timestamp,accX,accY,accZ,gyroX,gyroY,gyroZ,magX,magY,magZ,roll,pitch,yaw
1769246333649,-0.921875,0.15185547,0.4008789,12.145996,13.305664,-20.690918,0.0,0.0,0.0,21.846313,71.103516,10.552368
1769246333659,-0.921875,0.15185547,0.4008789,12.145996,13.305664,-20.690918,0.0,0.0,0.0,20.028076,72.04285,8.22876
1769246333748,-0.88916016,0.09375,0.44580078,20.568848,-10.864258,-10.803223,0.0,0.0,0.0,20.028076,72.04285,8.22876
1769246333760,-0.88916016,0.09375,0.44580078,20.568848,-10.864258,-10.803223,0.0,0.0,0.0,17.056274,73.10303,4.2681885
1769246333847,-0.94140625,0.14550781,0.24902344,-31.982422,-50.65918,26.489258,0.0,0.0,0.0,17.056274,73.10303,4.2681885
1769246333859,-0.94140625,0.14550781,0.24902344,-31.982422,-50.65918,26.489258,0.0,0.0,0.0,16.30371,67.681274,5.2349854
1769246333947,-0.9501953,0.07080078,0.2919922,18.615723,7.3242188,-14.221191,0.0,0.0,0.0,16.30371,67.681274,5.2349854
1769246333958,-0.9501953,0.07080078,0.2919922,18.615723,7.3242188,-14.221191,0.0,0.0,0.0,16.11145,66.362915,5.526123
1769246334046,-0.9526367,0.05029297,0.3564453,-10.925293,-2.8686523,0.79345703,0.0,0.0,0.0,16.11145,66.362915,5.526123
1769246334058,-0.9526367,0.05029297,0.3564453,-10.925293,-2.8686523,0.79345703,0.0,0.0,0.0,15.435791,67.53845,3.8287354
1769246334147,-0.9790039,0.10449219,0.26171875,1.0986328,11.901855,-3.540039,0.0,0.0,0.0,15.435791,67.53845,3.8287354
1769246334163,-0.9790039,0.10449219,0.26171875,1.0986328,11.901855,-3.540039,0.0,0.0,0.0,14.793091,67.97241,3.6584473
1769246334246,-1.0205078,0.12890625,0.33691406,-10.559082,19.836426,2.9296875,0.0,0.0,0.0,14.793091,67.97241,3.6584473
1769246334257,-1.0205078,0.12890625,0.33691406,-10.559082,19.836426,2.9296875,0.0,0.0,0.0,15.342407,69.81262,4.092407
1769246334345,-0.9213867,0.15771484,0.34814453,17.944336,-1.953125,-2.9296875,0.0,0.0,0.0,15.342407,69.81262,4.092407
1769246334357,-0.9213867,0.15771484,0.34814453,17.944336,-1.953125,-2.9296875,0.0,0.0,0.0,16.45752,70.85632,5.0372314
1769246334445,-1.0029297,0.06689453,0.23388672,5.004883,0.30517578,4.9438477,0.0,0.0,0.0,16.45752,70.85632,5.0372314
1769246334457,-1.0029297,0.06689453,0.23388672,5.004883,0.30517578,4.9438477,0.0,0.0,0.0,17.561646,70.81787,6.16333
1769246334545,-0.9584961,0.11035156,0.3100586,-3.7841797,6.591797,3.90625,0.0,0.0,0.0,17.561646,70.81787,6.16333
1769246334556,-0.9584961,0.11035156,0.3100586,-3.7841797,6.591797,3.90625,0.0,0.0,0.0,19.528198,71.0376,8.355103
1769246334644,-0.88134766,0.12988281,0.39013672,-2.2583008,-2.5024414,3.3569336,0.0,0.0,0.0,19.528198,71.0376,8.355103
1769246334656,-0.88134766,0.12988281,0.39013672,-2.2583008,-2.5024414,3.3569336,0.0,0.0,0.0,20.165405,71.586914,9.217529
1769246334744,-0.89160156,0.09863281,0.38671875,-14.221191,-3.6621094,8.361816,0.0,0.0,0.0,20.165405,71.586914,9.217529
1769246334756,-0.89160156,0.09863281,0.38671875,-14.221191,-3.6621094,8.361816,0.0,0.0,0.0,20.43457,70.5542,11.019287
1769246334844,-0.94970703,0.16259766,0.3774414,2.6245117,-9.58252,11.230469,0.0,0.0,0.0,20.43457,70.5542,11.019287
1769246334855,-0.94970703,0.16259766,0.3774414,2.6245117,-9.58252,11.230469,0.0,0.0,0.0,21.807861,69.48303,13.309937
1769246334944,-0.92871094,0.045410156,0.28125,3.9672852,4.8828125,-2.1972656,0.0,0.0,0.0,21.807861,69.48303,13.309937
1769246334956,-0.92871094,0.045410156,0.28125,3.9672852,4.8828125,-2.1972656,0.0,0.0,0.0,22.15393,68.90076,14.029541
1769246335043,-0.92529297,0.072265625,0.38183594,-10.803223,-6.225586,5.79834,0.0,0.0,0.0,22.15393,68.90076,14.029541
1769246335055,-0.92529297,0.072265625,0.38183594,-10.803223,-6.225586,5.79834,0.0,0.0,0.0,21.846313,69.142456,13.474731
1769246335143,-0.91015625,0.1586914,0.30566406,-2.746582,-10.498047,3.90625,0.0,0.0,0.0,21.846313,69.142456,13.474731
1769246335155,-0.91015625,0.1586914,0.30566406,-2.746582,-10.498047,3.90625,0.0,0.0,0.0,21.154175,67.54944,13.452759
1769246335243,-0.9526367,0.08544922,0.30810547,0.061035156,9.399414,3.1738281,0.0,0.0,0.0,21.154175,67.54944,13.452759
1769246335254,-0.9526367,0.08544922,0.30810547,0.061035156,9.399414,3.1738281,0.0,0.0,0.0,21.895752,67.802124,14.040527
1769246335342,-0.96533203,0.064941406,0.31835938,-1.159668,-4.638672,-0.91552734,0.0,0.0,0.0,21.895752,67.802124,14.040527
1769246335355,-0.96533203,0.064941406,0.31835938,-1.159668,-4.638672,-0.91552734,0.0,0.0,0.0,22.219849,68.02185,14.430542
1769246335442,-0.97558594,0.16015625,0.30566406,-2.9907227,1.0986328,-4.3945312,0.0,0.0,0.0,22.219849,68.02185,14.430542
1769246335454,-0.97558594,0.16015625,0.30566406,-2.9907227,1.0986328,-4.3945312,0.0,0.0,0.0,20.698242,68.170166,12.623291
1769246335542,-0.9741211,0.109375,0.2890625,-15.197754,10.498047,4.0283203,0.0,0.0,0.0,20.698242,68.170166,12.623291
1769246335553,-0.9741211,0.109375,0.2890625,-15.197754,10.498047,4.0283203,0.0,0.0,0.0,20.533447,68.85681,13.364868
1769246335642,-0.9838867,0.11328125,0.31054688,-22.094727,5.92041,8.544922,0.0,0.0,0.0,20.533447,68.85681,13.364868
1769246335653,-0.9838867,0.11328125,0.31054688,-22.094727,5.92041,8.544922,0.0,0.0,0.0,20.791626,69.79065,15.172119
1769246335741,-0.96728516,0.11621094,0.30615234,0.48828125,4.4555664,-4.1503906,0.0,0.0,0.0,20.791626,69.79065,15.172119
1769246335753,-0.96728516,0.11621094,0.30615234,0.48828125,4.4555664,-4.1503906,0.0,0.0,0.0,20.703735,70.16968,16.02356
1769246335841,-0.828125,0.13476562,0.3466797,0.48828125,14.526367,-10.375977,0.0,0.0,0.0,20.703735,70.16968,16.02356
1769246335853,-0.828125,0.13476562,0.3466797,0.48828125,14.526367,-10.375977,0.0,0.0,0.0,19.857788,71.39465,15.073242
1769246335941,-0.8955078,0.14941406,0.421875,14.6484375,14.099121,-18.981934,0.0,0.0,0.0,19.857788,71.39465,15.073242
1769246335952,-0.8955078,0.14941406,0.421875,14.6484375,14.099121,-18.981934,0.0,0.0,0.0,17.567139,72.89429,12.046509
1769246336040,-0.9003906,0.09326172,0.42773438,26.794434,-17.39502,-13.73291,0.0,0.0,0.0,17.567139,72.89429,12.046509
1769246336052,-0.9003906,0.09326172,0.42773438,26.794434,-17.39502,-13.73291,0.0,0.0,0.0,14.238281,73.498535,6.70166
1769246336140,-0.8955078,0.08886719,0.22167969,-7.8125,-42.96875,10.864258,0.0,0.0,0.0,14.238281,73.498535,6.70166
1769246336152,-0.8955078,0.08886719,0.22167969,-7.8125,-42.96875,10.864258,0.0,0.0,0.0,12.980347,69.40613,5.0976562
1769246336240,-0.9453125,0.07080078,0.2861328,10.620117,2.8686523,-9.277344,0.0,0.0,0.0,12.980347,69.40613,5.0976562
1769246336251,-0.9453125,0.07080078,0.2861328,10.620117,2.8686523,-9.277344,0.0,0.0,0.0,12.722168,67.44507,4.7460938
1769246336340,-0.9501953,0.029785156,0.34277344,-5.554199,-4.0893555,1.4648438,0.0,0.0,0.0,12.722168,67.44507,4.7460938
1769246336351,-0.9501953,0.029785156,0.34277344,-5.554199,-4.0893555,1.4648438,0.0,0.0,0.0,12.23877,68.18115,3.6309814
1769246336439,-0.9628906,0.05419922,0.2763672,-5.859375,4.699707,2.0751953,0.0,0.0,0.0,12.23877,68.18115,3.6309814
1769246336451,-0.9628906,0.05419922,0.2763672,-5.859375,4.699707,2.0751953,0.0,0.0,0.0,12.030029,68.065796,3.5870361
1769246336539,-1.0097656,0.1274414,0.33496094,-19.65332,12.512207,11.169434,0.0,0.0,0.0,12.030029,68.065796,3.5870361
1769246336550,-1.0097656,0.1274414,0.33496094,-19.65332,12.512207,11.169434,0.0,0.0,0.0,12.612305,68.97217,5.185547
1769246336639,-1.0288086,0.123535156,0.3564453,9.338379,5.6762695,-0.7324219,0.0,0.0,0.0,12.612305,68.97217,5.185547
1769246336650,-1.0288086,0.123535156,0.3564453,9.338379,5.6762695,-0.7324219,0.0,0.0,0.0,13.782349,69.77966,7.201538
1769246336738,-0.9707031,0.095214844,0.3413086,-1.3427734,-12.268066,7.6293945,0.0,0.0,0.0,13.782349,69.77966,7.201538
1769246336750,-0.9707031,0.095214844,0.3413086,-1.3427734,-12.268066,7.6293945,0.0,0.0,0.0,14.430542,70.718994,8.470459
1769246336838,-0.96728516,0.057128906,0.25830078,13.671875,4.0283203,-7.2021484,0.0,0.0,0.0,14.430542,70.718994,8.470459
1769246336850,-0.96728516,0.057128906,0.25830078,13.671875,4.0283203,-7.2021484,0.0,0.0,0.0,15.386353,69.66431,10.101929
1769246336938,-0.83935547,0.056152344,0.39648438,5.9814453,14.892578,-7.8125,0.0,0.0,0.0,15.386353,69.66431,10.101929
1769246336949,-0.83935547,0.056152344,0.39648438,5.9814453,14.892578,-7.8125,0.0,0.0,0.0,14.655762,71.63635,7.2894287
1769246337037,-0.85498047,0.052246094,0.4267578,-12.512207,-3.479004,2.2583008,0.0,0.0,0.0,14.655762,71.63635,7.2894287
1769246337049,-0.85498047,0.052246094,0.4267578,-12.512207,-3.479004,2.2583008,0.0,0.0,0.0,13.381348,71.7572,6.866455
1769246337137,-0.9609375,0.16992188,0.38623047,28.869629,-19.836426,3.540039,0.0,0.0,0.0,13.381348,71.7572,6.866455
1769246337149,-0.9609375,0.16992188,0.38623047,28.869629,-19.836426,3.540039,0.0,0.0,0.0,14.831543,70.02136,8.02002
1769246337237,-0.9189453,0.027832031,0.28955078,7.019043,-5.004883,2.6855469,0.0,0.0,0.0,14.831543,70.02136,8.02002
1769246337249,-0.9189453,0.027832031,0.28955078,7.019043,-5.004883,2.6855469,0.0,0.0,0.0,15.968628,68.55469,8.113403
1769246337337,-0.9375,0.021484375,0.3959961,0.061035156,0.24414062,7.6904297,0.0,0.0,0.0,15.968628,68.55469,8.113403
1769246337348,-0.9375,0.021484375,0.3959961,0.061035156,0.24414062,7.6904297,0.0,0.0,0.0,17.078247,68.604126,8.838501
1769246337436,-0.98828125,0.16699219,0.25097656,2.8076172,-4.638672,4.333496,0.0,0.0,0.0,17.078247,68.604126,8.838501
1769246337448,-0.98828125,0.16699219,0.25097656,2.8076172,-4.638672,4.333496,0.0,0.0,0.0,17.781372,67.62085,9.684448
1769246337540,-0.9453125,0.052734375,0.3022461,27.526855,10.314941,-16.967773,0.0,0.0,0.0,17.781372,67.62085,9.684448
1769246337548,-0.9453125,0.052734375,0.3022461,27.526855,10.314941,-16.967773,0.0,0.0,0.0,18.099976,69.158936,8.058472
1769246337636,-0.96533203,0.075683594,0.34179688,-6.4086914,-3.112793,2.380371,0.0,0.0,0.0,18.099976,69.158936,8.058472
1769246337650,-0.96533203,0.075683594,0.34179688,-6.4086914,-3.112793,2.380371,0.0,0.0,0.0,17.53418,69.9115,6.5093994
1769246337736,-1.0136719,0.0859375,0.22753906,6.7749023,6.8969727,-6.4697266,0.0,0.0,0.0,17.53418,69.9115,6.5093994
1769246337748,-1.0136719,0.0859375,0.22753906,6.7749023,6.8969727,-6.4697266,0.0,0.0,0.0,17.061768,70.08179,6.3830566
1769246337835,-0.9165039,0.119140625,0.34326172,-11.413574,5.004883,7.6293945,0.0,0.0,0.0,17.061768,70.08179,6.3830566
1769246337847,-0.9165039,0.119140625,0.34326172,-11.413574,5.004883,7.6293945,0.0,0.0,0.0,17.979126,70.85083,6.6741943
1769246337935,-1.0039062,0.088378906,0.20751953,-12.573242,4.0893555,7.3242188,0.0,0.0,0.0,17.979126,70.85083,6.6741943
1769246337950,-1.0039062,0.088378906,0.20751953,-12.573242,4.0893555,7.3242188,0.0,0.0,0.0,19.951172,70.42236,11.002808
1769246338035,-0.9404297,0.12011719,0.36376953,-9.033203,10.131836,4.699707,0.0,0.0,0.0,19.951172,70.42236,11.002808
1769246338046,-0.9404297,0.12011719,0.36376953,-9.033203,10.131836,4.699707,0.0,0.0,0.0,21.220093,71.345215,12.617798
1769246338134,-0.8569336,0.15917969,0.35205078,18.554688,5.3100586,-9.643555,0.0,0.0,0.0,21.220093,71.345215,12.617798
1769246338146,-0.8569336,0.15917969,0.35205078,18.554688,5.3100586,-9.643555,0.0,0.0,0.0,21.236572,72.020874,12.65625
1769246338234,-0.9223633,0.1303711,0.4423828,9.399414,18.310547,-20.507812,0.0,0.0,0.0,21.236572,72.020874,12.65625
1769246338245,-0.9223633,0.1303711,0.4423828,9.399414,18.310547,-20.507812,0.0,0.0,0.0,19.621582,73.3667,10.06897
1769246338334,-0.88916016,0.084472656,0.40234375,25.08545,-31.738281,-7.1411133,0.0,0.0,0.0,19.621582,73.3667,10.06897
1769246338345,-0.88916016,0.084472656,0.40234375,25.08545,-31.738281,-7.1411133,0.0,0.0,0.0,15.743408,73.185425,4.8449707
1769246338434,-0.9692383,0.057128906,0.13964844,-18.920898,-18.676758,8.300781,0.0,0.0,0.0,15.743408,73.185425,4.8449707
1769246338445,-0.9692383,0.057128906,0.13964844,-18.920898,-18.676758,8.300781,0.0,0.0,0.0,14.216309,69.00513,5.0427246
1769246338533,-0.93896484,0.1015625,0.37304688,4.760742,7.6904297,-6.225586,0.0,0.0,0.0,14.216309,69.00513,5.0427246
1769246338545,-0.93896484,0.1015625,0.37304688,4.760742,7.6904297,-6.225586,0.0,0.0,0.0,13.650513,69.79065,3.4332275
1769246338633,-0.9824219,4.8828125E-4,0.2319336,-5.6152344,-1.6479492,-2.2583008,0.0,0.0,0.0,13.650513,69.79065,3.4332275
1769246338644,-0.9824219,4.8828125E-4,0.2319336,-5.6152344,-1.6479492,-2.2583008,0.0,0.0,0.0,12.755127,69.58191,3.0596924
1769246338732,-0.95458984,0.10058594,0.25830078,-2.380371,4.699707,-1.4038086,0.0,0.0,0.0,12.755127,69.58191,3.0596924
1769246338744,-0.95458984,0.10058594,0.25830078,-2.380371,4.699707,-1.4038086,0.0,0.0,0.0,11.903687,70.30701,2.0819092
1769246338832,-0.99365234,0.06347656,0.3076172,3.479004,4.8828125,-0.36621094,0.0,0.0,0.0,11.903687,70.30701,2.0819092
1769246338844,-0.99365234,0.06347656,0.3076172,3.479004,4.8828125,-0.36621094,0.0,0.0,0.0,12.469482,71.1145,2.6257324
1769246338932,-0.9355469,0.11669922,0.3178711,9.033203,-14.160156,6.164551,0.0,0.0,0.0,12.469482,71.1145,2.6257324
1769246338943,-0.9355469,0.11669922,0.3178711,9.033203,-14.160156,6.164551,0.0,0.0,0.0,13.282471,70.83984,3.4661865
1769246339032,-0.94873047,0.049316406,0.27978516,-5.859375,-0.4272461,4.272461,0.0,0.0,0.0,13.282471,70.83984,3.4661865
1769246339043,-0.94873047,0.049316406,0.27978516,-5.859375,-0.4272461,4.272461,0.0,0.0,0.0,14.815063,69.88403,5.289917
1769246339131,-0.9951172,0.08691406,0.25341797,-10.437012,-1.7700195,6.164551,0.0,0.0,0.0,14.815063,69.88403,5.289917
1769246339143,-0.9951172,0.08691406,0.25341797,-10.437012,-1.7700195,6.164551,0.0,0.0,0.0,16.375122,69.70825,7.5750732
1769246339231,-0.91259766,0.08691406,0.37109375,12.084961,14.526367,-11.291504,0.0,0.0,0.0,16.375122,69.70825,7.5750732
1769246339243,-0.91259766,0.08691406,0.37109375,12.084961,14.526367,-11.291504,0.0,0.0,0.0,16.44104,71.01013,6.756592
1769246339331,-0.80371094,0.055664062,0.35498047,-9.887695,-2.1972656,6.4086914,0.0,0.0,0.0,16.44104,71.01013,6.756592
1769246339342,-0.80371094,0.055664062,0.35498047,-9.887695,-2.1972656,6.4086914,0.0,0.0,0.0,16.2323,71.16943,6.4105225
1769246339430,-0.94921875,0.09375,0.43164062,2.1972656,8.300781,4.0283203,0.0,0.0,0.0,16.2323,71.16943,6.4105225
1769246339442,-0.94921875,0.09375,0.43164062,2.1972656,8.300781,4.0283203,0.0,0.0,0.0,16.57837,71.18042,7.8167725
1769246339530,-0.91845703,0.16894531,0.33496094,6.0424805,-17.76123,5.79834,0.0,0.0,0.0,16.57837,71.18042,7.8167725
1769246339542,-0.91845703,0.16894531,0.33496094,6.0424805,-17.76123,5.79834,0.0,0.0,0.0,18.067017,70.09827,7.9870605
1769246339630,-0.91503906,-0.06933594,0.2836914,-3.112793,-4.8828125,5.1879883,0.0,0.0,0.0,18.067017,70.09827,7.9870605
1769246339642,-0.91503906,-0.06933594,0.2836914,-3.112793,-4.8828125,5.1879883,0.0,0.0,0.0,18.36914,68.48877,9.547119
1769246339730,-0.9658203,0.11816406,0.359375,-4.699707,-2.319336,0.12207031,0.0,0.0,0.0,18.36914,68.48877,9.547119
1769246339741,-0.9658203,0.11816406,0.359375,-4.699707,-2.319336,0.12207031,0.0,0.0,0.0,18.28125,68.4613,9.53064
1769246339829,-0.97753906,0.072753906,0.28125,1.5258789,13.000488,-4.3945312,0.0,0.0,0.0,18.28125,68.4613,9.53064
1769246339841,-0.97753906,0.072753906,0.28125,1.5258789,13.000488,-4.3945312,0.0,0.0,0.0,18.85254,69.02161,10.003052
1769246339929,-0.9760742,0.03125,0.2783203,-10.131836,8.7890625,2.380371,0.0,0.0,0.0,18.85254,69.02161,10.003052
1769246339940,-0.9760742,0.03125,0.2783203,-10.131836,8.7890625,2.380371,0.0,0.0,0.0,19.46228,70.21912,10.250244
1769246340029,-0.98535156,0.064941406,0.2602539,-1.8920898,8.361816,-7.6904297,0.0,0.0,0.0,19.46228,70.21912,10.250244
1769246340040,-0.98535156,0.064941406,0.2602539,-1.8920898,8.361816,-7.6904297,0.0,0.0,0.0,18.07251,71.015625,8.85498
1769246340129,-1.0092773,0.07714844,0.32080078,-8.728027,4.0283203,-1.8920898,0.0,0.0,0.0,18.07251,71.015625,8.85498
1769246340140,-1.0092773,0.07714844,0.32080078,-8.728027,4.0283203,-1.8920898,0.0,0.0,0.0,16.276245,71.94946,7.4212646
1769246340229,-0.90234375,0.064453125,0.31689453,-27.893066,-7.751465,8.728027,0.0,0.0,0.0,16.276245,71.94946,7.4212646
1769246340240,-0.90234375,0.064453125,0.31689453,-27.893066,-7.751465,8.728027,0.0,0.0,0.0,15.479736,71.867065,8.596802
1769246340329,-0.9580078,0.12402344,0.24804688,-11.962891,-1.6479492,8.483887,0.0,0.0,0.0,15.479736,71.867065,8.596802
1769246340340,-0.9580078,0.12402344,0.24804688,-11.962891,-1.6479492,8.483887,0.0,0.0,0.0,15.0842285,70.6311,10.030518
1769246340428,-0.9169922,0.06933594,0.36523438,-14.099121,11.352539,2.5024414,0.0,0.0,0.0,15.0842285,70.6311,10.030518
1769246340441,-0.9169922,0.06933594,0.36523438,-14.099121,11.352539,2.5024414,0.0,0.0,0.0,16.056519,71.14197,12.387085
1769246340528,-0.90185547,0.095703125,0.3486328,-10.192871,1.6479492,0.18310547,0.0,0.0,0.0,16.056519,71.14197,12.387085
1769246340539,-0.90185547,0.095703125,0.3486328,-10.192871,1.6479492,0.18310547,0.0,0.0,0.0,16.105957,71.520996,13.353882
1769246340630,-0.9267578,0.1274414,0.38232422,17.028809,12.634277,-16.479492,0.0,0.0,0.0,16.105957,71.520996,13.353882
1769246340639,-0.9267578,0.1274414,0.38232422,17.028809,12.634277,-16.479492,0.0,0.0,0.0,14.529419,72.05383,11.57959
1769246340727,-0.92089844,0.06689453,0.39746094,16.296387,-9.58252,-6.8359375,0.0,0.0,0.0,14.529419,72.05383,11.57959
1769246340738,-0.92089844,0.06689453,0.39746094,16.296387,-9.58252,-6.8359375,0.0,0.0,0.0,12.387085,72.872314,7.5805664
1769246340826,-0.93652344,0.080566406,0.22607422,-7.2631836,-21.78955,8.666992,0.0,0.0,0.0,12.387085,72.872314,7.5805664
1769246340838,-0.93652344,0.080566406,0.22607422,-7.2631836,-21.78955,8.666992,0.0,0.0,0.0,12.205811,70.19714,7.272949
1769246340926,-0.9355469,0.07861328,0.31298828,11.413574,-0.12207031,-4.8828125,0.0,0.0,0.0,12.205811,70.19714,7.272949
1769246340938,-0.9355469,0.07861328,0.31298828,11.413574,-0.12207031,-4.8828125,0.0,0.0,0.0,12.409058,69.62036,6.860962
1769246341026,-0.9511719,0.051757812,0.32958984,-5.79834,-9.521484,4.8217773,0.0,0.0,0.0,12.409058,69.62036,6.860962
1769246341037,-0.9511719,0.051757812,0.32958984,-5.79834,-9.521484,4.8217773,0.0,0.0,0.0,12.557373,69.296265,6.696167
1769246341126,-0.95458984,0.05810547,0.26220703,-4.638672,-6.958008,2.4414062,0.0,0.0,0.0,12.557373,69.296265,6.696167
1769246341137,-0.95458984,0.05810547,0.26220703,-4.638672,-6.958008,2.4414062,0.0,0.0,0.0,12.496948,68.40088,7.0202637
1769246341225,-0.9428711,0.071777344,0.30615234,-7.8125,-1.2207031,0.0,0.0,0.0,0.0,12.496948,68.40088,7.0202637
1769246341237,-0.9428711,0.071777344,0.30615234,-7.8125,-1.2207031,0.0,0.0,0.0,0.0,11.8927,68.26904,6.59729
1769246341325,-1.0478516,0.12646484,0.37646484,-20.690918,6.7749023,8.972168,0.0,0.0,0.0,11.8927,68.26904,6.59729
1769246341337,-1.0478516,0.12646484,0.37646484,-20.690918,6.7749023,8.972168,0.0,0.0,0.0,12.194824,68.71399,8.250732
1769246341425,-0.9526367,0.12988281,0.30322266,0.30517578,6.713867,-0.7324219,0.0,0.0,0.0,12.194824,68.71399,8.250732
1769246341436,-0.9526367,0.12988281,0.30322266,0.30517578,6.713867,-0.7324219,0.0,0.0,0.0,13.07373,68.845825,9.041748
1769246341524,-0.98046875,0.08886719,0.36865234,-9.521484,2.4414062,8.361816,0.0,0.0,0.0,13.07373,68.845825,9.041748
1769246341536,-0.98046875,0.08886719,0.36865234,-9.521484,2.4414062,8.361816,0.0,0.0,0.0,14.293213,69.76318,10.81604
1769246341624,-0.9379883,0.05517578,0.33496094,4.272461,4.4555664,-0.7324219,0.0,0.0,0.0,14.293213,69.76318,10.81604
1769246341636,-0.9379883,0.05517578,0.33496094,4.272461,4.4555664,-0.7324219,0.0,0.0,0.0,15.457764,69.746704,12.442017
1769246341724,-0.82666016,0.06542969,0.36083984,2.5634766,-1.159668,-2.8686523,0.0,0.0,0.0,15.457764,69.746704,12.442017
1769246341737,-0.82666016,0.06542969,0.36083984,2.5634766,-1.159668,-2.8686523,0.0,0.0,0.0,14.990845,69.93347,11.140137
1769246341823,-0.9267578,0.08691406,0.43066406,-5.126953,11.657715,8.178711,0.0,0.0,0.0,14.990845,69.93347,11.140137
1769246341835,-0.9267578,0.08691406,0.43066406,-5.126953,11.657715,8.178711,0.0,0.0,0.0,14.82605,70.42786,11.837769
1769246341923,-0.9169922,0.19726562,0.31201172,24.353027,-18.981934,3.1738281,0.0,0.0,0.0,14.82605,70.42786,11.837769
1769246341935,-0.9169922,0.19726562,0.31201172,24.353027,-18.981934,3.1738281,0.0,0.0,0.0,17.248535,68.9447,11.799316
1769246342023,-0.89453125,-0.0146484375,0.33007812,10.131836,-2.2583008,3.1738281,0.0,0.0,0.0,17.248535,68.9447,11.799316
1769246342034,-0.89453125,-0.0146484375,0.33007812,10.131836,-2.2583008,3.1738281,0.0,0.0,0.0,18.748169,68.19214,12.788086
1769246342123,-0.9897461,0.08105469,0.37304688,14.160156,-7.9956055,-0.7324219,0.0,0.0,0.0,18.748169,68.19214,12.788086
1769246342134,-0.9897461,0.08105469,0.37304688,14.160156,-7.9956055,-0.7324219,0.0,0.0,0.0,19.70398,67.99988,12.936401
1769246342222,-0.9370117,0.083496094,0.27294922,34.5459,9.70459,-23.925781,0.0,0.0,0.0,19.70398,67.99988,12.936401
1769246342234,-0.9370117,0.083496094,0.27294922,34.5459,9.70459,-23.925781,0.0,0.0,0.0,18.26477,68.75244,8.371582
1769246342322,-0.9501953,0.04736328,0.38183594,-5.126953,-4.0283203,1.6479492,0.0,0.0,0.0,18.26477,68.75244,8.371582
1769246342333,-0.9501953,0.04736328,0.38183594,-5.126953,-4.0283203,1.6479492,0.0,0.0,0.0,17.144165,69.938965,5.9710693
1769246342422,-0.96533203,0.060546875,0.28173828,5.126953,-15.319824,-8.239746,0.0,0.0,0.0,17.144165,69.938965,5.9710693
1769246342433,-0.96533203,0.060546875,0.28173828,5.126953,-15.319824,-8.239746,0.0,0.0,0.0,15.012817,68.43384,3.8067627
1769246342521,-1.0283203,0.087890625,0.3178711,-18.676758,12.939453,-0.9765625,0.0,0.0,0.0,15.012817,68.43384,3.8067627
1769246342533,-1.0283203,0.087890625,0.3178711,-18.676758,12.939453,-0.9765625,0.0,0.0,0.0,12.826538,68.90625,1.5985107
1769246342621,-0.9550781,0.12792969,0.34814453,-30.578613,4.3945312,10.864258,0.0,0.0,0.0,12.826538,68.90625,1.5985107
1769246342632,-0.9550781,0.12792969,0.34814453,-30.578613,4.3945312,10.864258,0.0,0.0,0.0,13.760376,69.642334,4.916382
1769246342721,-0.89404297,0.084472656,0.3388672,9.216309,0.061035156,2.6855469,0.0,0.0,0.0,13.760376,69.642334,4.916382
1769246342732,-0.89404297,0.084472656,0.3388672,9.216309,0.061035156,2.6855469,0.0,0.0,0.0,14.309692,70.2301,6.7401123
1769246342820,-0.8623047,0.092285156,0.33496094,-15.563965,9.70459,7.507324,0.0,0.0,0.0,14.309692,70.2301,6.7401123
1769246342832,-0.8623047,0.092285156,0.33496094,-15.563965,9.70459,7.507324,0.0,0.0,0.0,16.276245,70.09827,9.8272705
1769246342920,-0.9160156,0.0234375,0.45654297,18.554688,33.02002,-23.742676,0.0,0.0,0.0,16.276245,70.09827,9.8272705
1769246342932,-0.9160156,0.0234375,0.45654297,18.554688,33.02002,-23.742676,0.0,0.0,0.0,14.534912,72.542725,8.162842
1769246343020,-0.90527344,0.084472656,0.45117188,0.9765625,-17.944336,-2.8076172,0.0,0.0,0.0,14.534912,72.542725,8.162842
1769246343031,-0.90527344,0.084472656,0.45117188,0.9765625,-17.944336,-2.8076172,0.0,0.0,0.0,11.870728,73.59192,4.86145
1769246343120,-0.92871094,0.11621094,0.2578125,-20.324707,-24.658203,17.63916,0.0,0.0,0.0,11.870728,73.59192,4.86145
1769246343131,-0.92871094,0.11621094,0.2578125,-20.324707,-24.658203,17.63916,0.0,0.0,0.0,12.233276,69.96643,7.4212646
1769246343219,-0.95410156,0.07519531,0.25732422,3.2958984,-4.211426,2.2583008,0.0,0.0,0.0,12.233276,69.96643,7.4212646
1769246343231,-0.95410156,0.07519531,0.25732422,3.2958984,-4.211426,2.2583008,0.0,0.0,0.0,13.672485,68.73047,9.228516
1769246343319,-0.9501953,0.06738281,0.32177734,-4.638672,-5.554199,6.286621,0.0,0.0,0.0,13.672485,68.73047,9.228516
1769246343331,-0.9501953,0.06738281,0.32177734,-4.638672,-5.554199,6.286621,0.0,0.0,0.0,14.018555,68.604126,9.689941
1769246343419,-0.9111328,0.09472656,0.2524414,2.0141602,-18.554688,-1.4648438,0.0,0.0,0.0,14.018555,68.604126,9.689941
1769246343430,-0.9111328,0.09472656,0.2524414,2.0141602,-18.554688,-1.4648438,0.0,0.0,0.0,14.18335,67.52197,10.239258
1769246343518,-0.9892578,0.10546875,0.3569336,-9.887695,10.375977,0.91552734,0.0,0.0,0.0,14.18335,67.52197,10.239258
1769246343530,-0.9892578,0.10546875,0.3569336,-9.887695,10.375977,0.91552734,0.0,0.0,0.0,13.21106,67.88452,9.085693
1769246343618,-1.0615234,0.11669922,0.36328125,-27.34375,-8.911133,7.6293945,0.0,0.0,0.0,13.21106,67.88452,9.085693
1769246343630,-1.0615234,0.11669922,0.36328125,-27.34375,-8.911133,7.6293945,0.0,0.0,0.0,12.892456,67.5824,10.096436
1769246343718,-0.95166016,0.16455078,0.32958984,-9.643555,14.465332,3.4179688,0.0,0.0,0.0,12.892456,67.5824,10.096436
1769246343729,-0.95166016,0.16455078,0.32958984,-9.643555,14.465332,3.4179688,0.0,0.0,0.0,13.205566,67.53845,10.83252
1769246343818,-0.9399414,0.09423828,0.34375,-18.981934,-0.7324219,8.605957,0.0,0.0,0.0,13.205566,67.53845,10.83252
1769246343829,-0.9399414,0.09423828,0.34375,-18.981934,-0.7324219,8.605957,0.0,0.0,0.0,14.545898,68.28003,13.606567
1769246343917,-0.87646484,0.052734375,0.37158203,8.178711,19.958496,-9.216309,0.0,0.0,0.0,14.545898,68.28003,13.606567
1769246343929,-0.87646484,0.052734375,0.37158203,8.178711,19.958496,-9.216309,0.0,0.0,0.0,14.941406,69.37317,14.47998
1769246344017,-0.82714844,0.046875,0.42236328,-7.446289,4.638672,-2.6245117,0.0,0.0,0.0,14.941406,69.37317,14.47998
1769246344029,-0.82714844,0.046875,0.42236328,-7.446289,4.638672,-2.6245117,0.0,0.0,0.0,14.117432,70.60913,13.276978
1769246344117,-0.9692383,0.11035156,0.4375,20.507812,-8.361816,8.361816,0.0,0.0,0.0,14.117432,70.60913,13.276978
1769246344128,-0.9692383,0.11035156,0.4375,20.507812,-8.361816,8.361816,0.0,0.0,0.0,14.82605,70.14221,14.485474
1769246344216,-0.91308594,0.0546875,0.28515625,6.4086914,-10.314941,4.3945312,0.0,0.0,0.0,14.82605,70.14221,14.485474
1769246344228,-0.91308594,0.0546875,0.28515625,6.4086914,-10.314941,4.3945312,0.0,0.0,0.0,17.380371,68.36243,15.161133
1769246344316,-0.9291992,0.040039062,0.37646484,8.911133,4.699707,5.126953,0.0,0.0,0.0,17.380371,68.36243,15.161133
1769246344328,-0.9291992,0.040039062,0.37646484,8.911133,4.699707,5.126953,0.0,0.0,0.0,18.682251,68.15369,15.375366
1769246344416,-0.97509766,0.123535156,0.24267578,19.042969,11.71875,-9.70459,0.0,0.0,0.0,18.682251,68.15369,15.375366
1769246344427,-0.97509766,0.123535156,0.24267578,19.042969,11.71875,-9.70459,0.0,0.0,0.0,19.440308,68.411865,14.732666
1769246344516,-0.92626953,0.044921875,0.31396484,21.484375,7.1411133,-16.052246,0.0,0.0,0.0,19.440308,68.411865,14.732666
1769246344527,-0.92626953,0.044921875,0.31396484,21.484375,7.1411133,-16.052246,0.0,0.0,0.0,18.687744,70.27954,11.156616
1769246344615,-0.9555664,0.06738281,0.26220703,4.333496,-0.36621094,-7.6904297,0.0,0.0,0.0,18.687744,70.27954,11.156616
1769246344627,-0.9555664,0.06738281,0.26220703,4.333496,-0.36621094,-7.6904297,0.0,0.0,0.0,17.08374,70.85632,8.4375
1769246344715,-0.99902344,0.091308594,0.23583984,12.084961,10.559082,-9.094238,0.0,0.0,0.0,17.08374,70.85632,8.4375
1769246344726,-0.99902344,0.091308594,0.23583984,12.084961,10.559082,-9.094238,0.0,0.0,0.0,15.726929,71.82312,6.0479736
1769246344815,-0.9506836,0.045410156,0.29052734,0.36621094,4.0893555,-3.2348633,0.0,0.0,0.0,15.726929,71.82312,6.0479736
1769246344826,-0.9506836,0.045410156,0.29052734,0.36621094,4.0893555,-3.2348633,0.0,0.0,0.0,14.919434,72.89429,4.553833
1769246344914,-0.9980469,0.13623047,0.25048828,-20.935059,2.6855469,12.817383,0.0,0.0,0.0,14.919434,72.89429,4.553833
1769246344926,-0.9980469,0.13623047,0.25048828,-20.935059,2.6855469,12.817383,0.0,0.0,0.0,14.935913,72.9657,6.3720703
1769246345014,-0.90527344,0.078125,0.31884766,2.319336,11.169434,-2.9907227,0.0,0.0,0.0,14.935913,72.9657,6.3720703
1769246345026,-0.90527344,0.078125,0.31884766,2.319336,11.169434,-2.9907227,0.0,0.0,0.0,16.237793,73.29529,8.448486
1769246345114,-0.8515625,0.15039062,0.34960938,17.8833,-11.169434,-5.9814453,0.0,0.0,0.0,16.237793,73.29529,8.448486
1769246345125,-0.8515625,0.15039062,0.34960938,17.8833,-11.169434,-5.9814453,0.0,0.0,0.0,16.298218,73.35022,7.7838135
1769246345213,-0.92578125,0.04638672,0.43701172,13.793945,15.50293,-13.916016,0.0,0.0,0.0,16.298218,73.35022,7.7838135
1769246345225,-0.92578125,0.04638672,0.43701172,13.793945,15.50293,-13.916016,0.0,0.0,0.0,14.82605,73.50403,5.5810547
1769246345313,-0.9814453,0.06689453,0.16845703,-23.55957,-19.714355,10.7421875,0.0,0.0,0.0,14.82605,73.50403,5.5810547
1769246345325,-0.9814453,0.06689453,0.16845703,-23.55957,-19.714355,10.7421875,0.0,0.0,0.0,13.436279,72.888794,3.7298584
1769246345413,-0.91308594,0.021484375,0.25927734,-0.30517578,-10.925293,-2.9907227,0.0,0.0,0.0,13.436279,72.888794,3.7298584
1769246345425,-0.91308594,0.021484375,0.25927734,-0.30517578,-10.925293,-2.9907227,0.0,0.0,0.0,12.3376465,71.16394,4.246216
1769246345513,-1.0092773,0.18017578,0.43701172,0.9765625,-18.737793,4.5776367,0.0,0.0,0.0,12.3376465,71.16394,4.246216
1769246345524,-1.0092773,0.18017578,0.43701172,0.9765625,-18.737793,4.5776367,0.0,0.0,0.0,11.810303,70.93323,3.7023926
1769246345613,-0.97216797,-0.012207031,0.14013672,2.380371,-4.638672,-2.0751953,0.0,0.0,0.0,11.810303,70.93323,3.7023926
1769246345624,-0.97216797,-0.012207031,0.14013672,2.380371,-4.638672,-2.0751953,0.0,0.0,0.0,11.585083,68.88977,4.713135
1769246345712,-0.90527344,0.1381836,0.32373047,-6.4086914,-12.939453,9.399414,0.0,0.0,0.0,11.585083,68.88977,4.713135
1769246345723,-0.90527344,0.1381836,0.32373047,-6.4086914,-12.939453,9.399414,0.0,0.0,0.0,12.024536,68.757935,4.86145
1769246345812,-0.96191406,0.099121094,0.29101562,9.887695,5.9814453,-2.9296875,0.0,0.0,0.0,12.024536,68.757935,4.86145
1769246345823,-0.96191406,0.099121094,0.29101562,9.887695,5.9814453,-2.9296875,0.0,0.0,0.0,12.782593,68.42285,5.262451
1769246345911,-0.9560547,0.095703125,0.36523438,0.7324219,-2.6855469,6.7749023,0.0,0.0,0.0,12.782593,68.42285,5.262451
1769246345923,-0.9560547,0.095703125,0.36523438,0.7324219,-2.6855469,6.7749023,0.0,0.0,0.0,13.897705,69.01611,6.92688
1769246346011,-0.93603516,0.12451172,0.3696289,8.117676,12.023926,-4.0283203,0.0,0.0,0.0,13.897705,69.01611,6.92688
1769246346023,-0.93603516,0.12451172,0.3696289,8.117676,12.023926,-4.0283203,0.0,0.0,0.0,14.578857,69.45557,7.366333
1769246346111,-0.9838867,0.084472656,0.32080078,8.422852,-11.352539,3.479004,0.0,0.0,0.0,14.578857,69.45557,7.366333
1769246346122,-0.9838867,0.084472656,0.32080078,8.422852,-11.352539,3.479004,0.0,0.0,0.0,15.551147,69.12048,7.1520996
1769246346210,-0.93115234,0.06933594,0.3623047,19.28711,-12.084961,-5.6762695,0.0,0.0,0.0,15.551147,69.12048,7.1520996
1769246346222,-0.93115234,0.06933594,0.3623047,19.28711,-12.084961,-5.6762695,0.0,0.0,0.0,15.512695,68.01636,5.8831787
1769246346310,-0.87939453,0.07421875,0.4116211,10.803223,-2.8686523,-9.033203,0.0,0.0,0.0,15.512695,68.01636,5.8831787
1769246346322,-0.87939453,0.07421875,0.4116211,10.803223,-2.8686523,-9.033203,0.0,0.0,0.0,14.27124,67.68677,3.8287354
1769246346410,-0.8984375,0.109375,0.41601562,13.244629,-6.286621,-5.126953,0.0,0.0,0.0,14.27124,67.68677,3.8287354
1769246346421,-0.8984375,0.109375,0.41601562,13.244629,-6.286621,-5.126953,0.0,0.0,0.0,13.062744,67.38464,1.6589355
1769246346510,-0.9375,0.12646484,0.37548828,15.075684,-4.3945312,6.286621,0.0,0.0,0.0,13.062744,67.38464,1.6589355
1769246346521,-0.9375,0.12646484,0.37548828,15.075684,-4.3945312,6.286621,0.0,0.0,0.0,14.699707,66.51672,2.1038818
1769246346609,-0.90234375,0.03125,0.38623047,6.1035156,-5.1879883,7.873535,0.0,0.0,0.0,14.699707,66.51672,2.1038818
1769246346621,-0.90234375,0.03125,0.38623047,6.1035156,-5.1879883,7.873535,0.0,0.0,0.0,16.853027,65.98938,3.4991455
1769246346709,-0.88427734,0.052246094,0.43408203,-1.7700195,-3.6010742,11.169434,0.0,0.0,0.0,16.853027,65.98938,3.4991455
1769246346721,-0.88427734,0.052246094,0.43408203,-1.7700195,-3.6010742,11.169434,0.0,0.0,0.0,17.913208,65.390625,5.1361084
1769246346809,-0.9296875,0.18652344,0.31054688,7.2021484,-6.0424805,6.225586,0.0,0.0,0.0,17.913208,65.390625,5.1361084
1769246346820,-0.9296875,0.18652344,0.31054688,7.2021484,-6.0424805,6.225586,0.0,0.0,0.0,18.92395,64.59961,6.0479736
1769246346909,-0.94384766,0.08984375,0.3569336,11.84082,5.3710938,-4.5166016,0.0,0.0,0.0,18.92395,64.59961,6.0479736
1769246346920,-0.94384766,0.08984375,0.3569336,11.84082,5.3710938,-4.5166016,0.0,0.0,0.0,20.423584,65.03906,6.82251
1769246347008,-0.97509766,0.08984375,0.4189453,3.2348633,-0.7324219,0.91552734,0.0,0.0,0.0,20.423584,65.03906,6.82251
1769246347020,-0.97509766,0.08984375,0.4189453,3.2348633,-0.7324219,0.91552734,0.0,0.0,0.0,20.967407,65.93445,6.7456055
1769246347108,-1.015625,0.13623047,0.23730469,-14.709473,3.4179688,5.79834,0.0,0.0,0.0,20.967407,65.93445,6.7456055
1769246347120,-1.015625,0.13623047,0.23730469,-14.709473,3.4179688,5.79834,0.0,0.0,0.0,20.192871,65.23132,6.690674
1769246347208,-0.92578125,0.16748047,0.3725586,-6.8969727,18.310547,-6.4086914,0.0,0.0,0.0,20.192871,65.23132,6.690674
1769246347219,-0.92578125,0.16748047,0.3725586,-6.8969727,18.310547,-6.4086914,0.0,0.0,0.0,20.028076,67.13745,6.3061523
1769246347307,-0.8847656,0.10595703,0.37158203,3.4179688,-11.169434,0.5493164,0.0,0.0,0.0,20.028076,67.13745,6.3061523
1769246347319,-0.8847656,0.10595703,0.37158203,3.4179688,-11.169434,0.5493164,0.0,0.0,0.0,20.077515,67.70874,7.56958
1769246347407,-0.84375,0.14501953,0.36767578,-8.178711,17.578125,-3.540039,0.0,0.0,0.0,20.077515,67.70874,7.56958
1769246347419,-0.84375,0.14501953,0.36767578,-8.178711,17.578125,-3.540039,0.0,0.0,0.0,19.87976,67.9834,7.9266357
1769246347507,-0.9160156,0.1899414,0.4790039,11.230469,29.47998,-21.240234,0.0,0.0,0.0,19.87976,67.9834,7.9266357
1769246347518,-0.9160156,0.1899414,0.4790039,11.230469,29.47998,-21.240234,0.0,0.0,0.0,18.945923,70.50476,6.937866
1769246347607,-0.88671875,0.1352539,0.49121094,7.8125,-9.399414,-2.5024414,0.0,0.0,0.0,18.945923,70.50476,6.937866
1769246347618,-0.88671875,0.1352539,0.49121094,7.8125,-9.399414,-2.5024414,0.0,0.0,0.0,17.352905,72.27356,4.7296143
1769246347706,-0.93896484,0.1821289,0.23388672,-22.644043,-53.28369,26.916504,0.0,0.0,0.0,17.352905,72.27356,4.7296143
1769246347718,-0.93896484,0.1821289,0.23388672,-22.644043,-53.28369,26.916504,0.0,0.0,0.0,17.748413,67.19238,6.564331
1769246347806,-0.93652344,0.11621094,0.27197266,24.841309,26.794434,-17.8833,0.0,0.0,0.0,17.748413,67.19238,6.564331
1769246347818,-0.93652344,0.11621094,0.27197266,24.841309,26.794434,-17.8833,0.0,0.0,0.0,18.479004,66.24756,7.668457
1769246347906,-0.96533203,0.043945312,0.39648438,-12.390137,0.36621094,1.8920898,0.0,0.0,0.0,18.479004,66.24756,7.668457
1769246347917,-0.96533203,0.043945312,0.39648438,-12.390137,0.36621094,1.8920898,0.0,0.0,0.0,19.138184,68.83484,7.6135254
1769246348005,-1.0024414,0.110839844,0.2055664,6.591797,7.8125,-6.591797,0.0,0.0,0.0,19.138184,68.83484,7.6135254
1769246348017,-1.0024414,0.110839844,0.2055664,6.591797,7.8125,-6.591797,0.0,0.0,0.0,18.38562,68.99414,7.4816895
1769246348105,-1.0527344,0.16357422,0.35986328,-6.713867,16.479492,2.4414062,0.0,0.0,0.0,18.38562,68.99414,7.4816895
1769246348117,-1.0527344,0.16357422,0.35986328,-6.713867,16.479492,2.4414062,0.0,0.0,0.0,18.687744,70.51575,6.8170166
1769246348205,-0.99658203,0.111816406,0.32470703,-0.24414062,-0.8544922,0.24414062,0.0,0.0,0.0,18.687744,70.51575,6.8170166
1769246348216,-0.99658203,0.111816406,0.32470703,-0.24414062,-0.8544922,0.24414062,0.0,0.0,0.0,20.253296,70.894775,8.712158
1769246348305,-0.95947266,0.13427734,0.26708984,0.36621094,1.4648438,1.7700195,0.0,0.0,0.0,20.253296,70.894775,8.712158
1769246348316,-0.95947266,0.13427734,0.26708984,0.36621094,1.4648438,1.7700195,0.0,0.0,0.0,20.280762,71.49902,8.481445
1769246348404,-0.9033203,0.072753906,0.33544922,-2.9907227,11.352539,-4.9438477,0.0,0.0,0.0,20.280762,71.49902,8.481445
1769246348416,-0.9033203,0.072753906,0.33544922,-2.9907227,11.352539,-4.9438477,0.0,0.0,0.0,20.533447,71.449585,9.190063
1769246348504,-0.8432617,0.1430664,0.34179688,-2.1972656,-9.460449,2.9296875,0.0,0.0,0.0,20.533447,71.449585,9.190063
1769246348516,-0.8432617,0.1430664,0.34179688,-2.1972656,-9.460449,2.9296875,0.0,0.0,0.0,19.528198,71.83411,7.3443604
1769246348604,-0.9428711,0.118652344,0.40625,5.2490234,-3.2958984,10.559082,0.0,0.0,0.0,19.528198,71.83411,7.3443604
1769246348615,-0.9428711,0.118652344,0.40625,5.2490234,-3.2958984,10.559082,0.0,0.0,0.0,21.23108,70.42786,9.981079
1769246348704,-0.9326172,0.09326172,0.23925781,7.2021484,-1.0375977,0.36621094,0.0,0.0,0.0,21.23108,70.42786,9.981079
1769246348715,-0.9326172,0.09326172,0.23925781,7.2021484,-1.0375977,0.36621094,0.0,0.0,0.0,23.186646,69.818115,11.12915
1769246348803,-0.9038086,0.03466797,0.4033203,2.0751953,7.751465,-1.0986328,0.0,0.0,0.0,23.186646,69.818115,11.12915
1769246348815,-0.9038086,0.03466797,0.4033203,2.0751953,7.751465,-1.0986328,0.0,0.0,0.0,22.802124,70.180664,9.821777
1769246348903,-0.9272461,0.18066406,0.28710938,-3.540039,-12.878418,5.004883,0.0,0.0,0.0,22.802124,70.180664,9.821777
1769246348914,-0.9272461,0.18066406,0.28710938,-3.540039,-12.878418,5.004883,0.0,0.0,0.0,22.593384,69.87305,10.118408
1769246349003,-1.0014648,0.07128906,0.21191406,15.930176,15.319824,-8.972168,0.0,0.0,0.0,22.593384,69.87305,10.118408
1769246349014,-1.0014648,0.07128906,0.21191406,15.930176,15.319824,-8.972168,0.0,0.0,0.0,23.57666,69.96094,11.57959
1769246349102,-0.95947266,0.07470703,0.32666016,0.8544922,-0.6713867,-1.0986328,0.0,0.0,0.0,23.57666,69.96094,11.57959
1769246349114,-0.95947266,0.07470703,0.32666016,0.8544922,-0.6713867,-1.0986328,0.0,0.0,0.0,23.703003,71.48804,9.975586
1769246349202,-1.0117188,0.06689453,0.21289062,-0.9765625,3.6621094,-9.338379,0.0,0.0,0.0,23.703003,71.48804,9.975586
1769246349214,-1.0117188,0.06689453,0.21289062,-0.9765625,3.6621094,-9.338379,0.0,0.0,0.0,21.956177,71.38916,8.596802
1769246349302,-0.9296875,0.13671875,0.35058594,-2.0751953,6.286621,-5.6152344,0.0,0.0,0.0,21.956177,71.38916,8.596802
1769246349313,-0.9296875,0.13671875,0.35058594,-2.0751953,6.286621,-5.6152344,0.0,0.0,0.0,19.868774,72.46582,5.4821777
1769246349402,-0.95996094,0.09326172,0.18261719,-10.375977,-0.9765625,4.272461,0.0,0.0,0.0,19.868774,72.46582,5.4821777
1769246349413,-0.95996094,0.09326172,0.18261719,-10.375977,-0.9765625,4.272461,0.0,0.0,0.0,19.440308,71.987915,6.5093994
1769246349501,-0.9243164,0.115722656,0.3564453,0.79345703,-2.9296875,3.90625,0.0,0.0,0.0,19.440308,71.987915,6.5093994
1769246349513,-0.9243164,0.115722656,0.3564453,0.79345703,-2.9296875,3.90625,0.0,0.0,0.0,19.863281,72.11426,6.8829346
1769246349601,-0.8417969,0.16699219,0.3334961,-3.479004,-12.817383,10.314941,0.0,0.0,0.0,19.863281,72.11426,6.8829346
1769246349612,-0.8417969,0.16699219,0.3334961,-3.479004,-12.817383,10.314941,0.0,0.0,0.0,20.835571,71.00464,8.723145
1769246349701,-0.9111328,0.18164062,0.3930664,-2.5634766,-13.122559,2.746582,0.0,0.0,0.0,20.835571,71.00464,8.723145
1769246349712,-0.9111328,0.18164062,0.3930664,-2.5634766,-13.122559,2.746582,0.0,0.0,0.0,21.395874,69.30176,9.777832
1769246349800,-0.9321289,0.083496094,0.4091797,10.559082,-4.4555664,-7.2021484,0.0,0.0,0.0,21.395874,69.30176,9.777832
1769246349812,-0.9321289,0.083496094,0.4091797,10.559082,-4.4555664,-7.2021484,0.0,0.0,0.0,20.198364,68.7854,8.76709
1769246349900,-0.9580078,0.12646484,0.27197266,-16.723633,-15.686035,8.483887,0.0,0.0,0.0,20.198364,68.7854,8.76709
1769246349912,-0.9580078,0.12646484,0.27197266,-16.723633,-15.686035,8.483887,0.0,0.0,0.0,19.692993,67.4176,8.7561035
1769246350000,-0.9121094,0.15917969,0.37890625,11.474609,7.6904297,-6.4086914,0.0,0.0,0.0,19.692993,67.4176,8.7561035
1769246350011,-0.9121094,0.15917969,0.37890625,11.474609,7.6904297,-6.4086914,0.0,0.0,0.0,19.37439,67.14844,8.074951
1769246350100,-0.99072266,0.037597656,0.2709961,-9.82666,6.4086914,-2.0751953,0.0,0.0,0.0,19.37439,67.14844,8.074951
1769246350111,-0.99072266,0.037597656,0.2709961,-9.82666,6.4086914,-2.0751953,0.0,0.0,0.0,19.099731,67.93945,7.6794434
1769246350199,-0.9614258,0.17041016,0.27539062,-0.61035156,12.023926,-6.713867,0.0,0.0,0.0,19.099731,67.93945,7.6794434
1769246350211,-0.9614258,0.17041016,0.27539062,-0.61035156,12.023926,-6.713867,0.0,0.0,0.0,18.363647,69.38965,7.0532227
1769246350299,-1.0576172,0.12597656,0.28125,-6.4697266,14.526367,-3.9672852,0.0,0.0,0.0,18.363647,69.38965,7.0532227
1769246350311,-1.0576172,0.12597656,0.28125,-6.4697266,14.526367,-3.9672852,0.0,0.0,0.0,18.29773,70.790405,7.4816895
1769246350399,-0.99853516,0.12109375,0.2709961,4.8828125,-2.0751953,0.24414062,0.0,0.0,0.0,18.29773,70.790405,7.4816895
1769246350410,-0.99853516,0.12109375,0.2709961,4.8828125,-2.0751953,0.24414062,0.0,0.0,0.0,19.489746,71.41113,8.492432
1769246350498,-0.9555664,0.11767578,0.27197266,12.451172,0.61035156,-0.61035156,0.0,0.0,0.0,19.489746,71.41113,8.492432
1769246350510,-0.9555664,0.11767578,0.27197266,12.451172,0.61035156,-0.61035156,0.0,0.0,0.0,20.077515,72.16919,8.690186
1769246350598,-0.8823242,0.06689453,0.3935547,-7.5683594,-4.211426,0.48828125,0.0,0.0,0.0,20.077515,72.16919,8.690186
1769246350610,-0.8823242,0.06689453,0.3935547,-7.5683594,-4.211426,0.48828125,0.0,0.0,0.0,20.291748,71.47705,9.673462
1769246350698,-0.8696289,0.091796875,0.4321289,-7.5683594,-7.385254,2.9907227,0.0,0.0,0.0,20.291748,71.47705,9.673462
1769246350710,-0.8696289,0.091796875,0.4321289,-7.5683594,-7.385254,2.9907227,0.0,0.0,0.0,18.797607,71.1969,8.503418
1769246350797,-0.9663086,0.17285156,0.3486328,9.216309,-20.080566,10.498047,0.0,0.0,0.0,18.797607,71.1969,8.503418
1769246350810,-0.9663086,0.17285156,0.3486328,9.216309,-20.080566,10.498047,0.0,0.0,0.0,19.291992,68.93921,10.354614
1769246350897,-0.92041016,0.020996094,0.30517578,18.310547,9.643555,-13.366699,0.0,0.0,0.0,19.291992,68.93921,10.354614
1769246350909,-0.92041016,0.020996094,0.30517578,18.310547,9.643555,-13.366699,0.0,0.0,0.0,19.429321,68.845825,9.7229
1769246350997,-0.90966797,0.088378906,0.43164062,-18.554688,-7.1411133,8.239746,0.0,0.0,0.0,19.429321,68.845825,9.7229
1769246351008,-0.90966797,0.088378906,0.43164062,-18.554688,-7.1411133,8.239746,0.0,0.0,0.0,19.55017,69.46655,10.288696
1769246351097,-0.9819336,0.12988281,0.14208984,-1.2207031,14.404297,0.4272461,0.0,0.0,0.0,19.55017,69.46655,10.288696
1769246351108,-0.9819336,0.12988281,0.14208984,-1.2207031,14.404297,0.4272461,0.0,0.0,0.0,19.764404,69.071045,12.216797
1769246351196,-0.95166016,0.09277344,0.34179688,9.58252,14.6484375,-9.460449,0.0,0.0,0.0,19.764404,69.071045,12.216797
1769246351208,-0.95166016,0.09277344,0.34179688,9.58252,14.6484375,-9.460449,0.0,0.0,0.0,20.039062,71.45508,10.552368
1769246351296,-0.94921875,0.07519531,0.2163086,-1.7700195,8.911133,-0.91552734,0.0,0.0,0.0,20.039062,71.45508,10.552368
1769246351308,-0.94921875,0.07519531,0.2163086,-1.7700195,8.911133,-0.91552734,0.0,0.0,0.0,20.061035,72.125244,10.810547
1769246351396,-0.96533203,0.06640625,0.23828125,0.30517578,6.1035156,-2.0141602,0.0,0.0,0.0,20.061035,72.125244,10.810547
1769246351407,-0.96533203,0.06640625,0.23828125,0.30517578,6.1035156,-2.0141602,0.0,0.0,0.0,20.148926,73.35571,10.376587
1769246351495,-0.92333984,0.09277344,0.2890625,6.958008,-2.1362305,3.6621094,0.0,0.0,0.0,20.148926,73.35571,10.376587
1769246351507,-0.92333984,0.09277344,0.2890625,6.958008,-2.1362305,3.6621094,0.0,0.0,0.0,21.505737,73.13599,11.123657
1769246351595,-1.0405273,0.03857422,0.17675781,-3.4179688,-8.178711,8.911133,0.0,0.0,0.0,21.505737,73.13599,11.123657
1769246351607,-1.0405273,0.03857422,0.17675781,-3.4179688,-8.178711,8.911133,0.0,0.0,0.0,23.911743,72.718506,13.320923
1769246351695,-0.98291016,0.091308594,0.37060547,-13.122559,-2.5024414,5.3100586,0.0,0.0,0.0,23.911743,72.718506,13.320923
1769246351706,-0.98291016,0.091308594,0.37060547,-13.122559,-2.5024414,5.3100586,0.0,0.0,0.0,24.054565,72.04834,13.436279
1769246351795,-0.89453125,0.16308594,0.3022461,-15.258789,-8.544922,8.300781,0.0,0.0,0.0,24.054565,72.04834,13.436279
1769246351806,-0.89453125,0.16308594,0.3022461,-15.258789,-8.544922,8.300781,0.0,0.0,0.0,23.66455,71.38367,14.260254
1769246351894,-0.88671875,0.18798828,0.39501953,13.305664,-6.8969727,-10.559082,0.0,0.0,0.0,23.66455,71.38367,14.260254
1769246351906,-0.88671875,0.18798828,0.39501953,13.305664,-6.8969727,-10.559082,0.0,0.0,0.0,22.37915,70.54321,13.150635
1769246351994,-0.94384766,0.106933594,0.4404297,-2.319336,-5.7373047,-5.2490234,0.0,0.0,0.0,22.37915,70.54321,13.150635
1769246352006,-0.94384766,0.106933594,0.4404297,-2.319336,-5.7373047,-5.2490234,0.0,0.0,0.0,20.297241,70.548706,11.195068
1769246352094,-0.95996094,0.12548828,0.1821289,-4.9438477,-12.756348,-0.36621094,0.0,0.0,0.0,20.297241,70.548706,11.195068
1769246352105,-0.95996094,0.12548828,0.1821289,-4.9438477,-12.756348,-0.36621094,0.0,0.0,0.0,19.006348,69.29077,10.9313965
1769246352193,-0.8876953,0.16552734,0.39648438,11.413574,6.591797,-9.277344,0.0,0.0,0.0,19.006348,69.29077,10.9313965
1769246352205,-0.8876953,0.16552734,0.39648438,11.413574,6.591797,-9.277344,0.0,0.0,0.0,17.62207,69.34021,8.486938
1769246352293,-0.9921875,0.071777344,0.22167969,0.0,-5.065918,-2.6245117,0.0,0.0,0.0,17.62207,69.34021,8.486938
1769246352305,-0.9921875,0.071777344,0.22167969,0.0,-5.065918,-2.6245117,0.0,0.0,0.0,17.006836,69.054565,7.432251
1769246352393,-0.9296875,0.09814453,0.2758789,3.7231445,7.3242188,-6.0424805,0.0,0.0,0.0,17.006836,69.054565,7.432251
1769246352404,-0.9296875,0.09814453,0.2758789,3.7231445,7.3242188,-6.0424805,0.0,0.0,0.0,16.347656,69.680786,5.9051514
1769246352493,-0.99072266,0.12939453,0.2475586,-3.540039,2.8686523,-0.8544922,0.0,0.0,0.0,16.347656,69.680786,5.9051514
1769246352504,-0.99072266,0.12939453,0.2475586,-3.540039,2.8686523,-0.8544922,0.0,0.0,0.0,15.567627,70.41138,5.493164
1769246352592,-0.9760742,0.1538086,0.3178711,18.493652,-14.831543,6.958008,0.0,0.0,0.0,15.567627,70.41138,5.493164
1769246352604,-0.9760742,0.1538086,0.3178711,18.493652,-14.831543,6.958008,0.0,0.0,0.0,16.342163,69.9939,6.295166
1769246352692,-0.9711914,0.057128906,0.28027344,-4.211426,8.7890625,2.9296875,0.0,0.0,0.0,16.342163,69.9939,6.295166
1769246352704,-0.9711914,0.057128906,0.28027344,-4.211426,8.7890625,2.9296875,0.0,0.0,0.0,17.210083,69.697266,7.608032
1769246352792,-0.94873047,0.09277344,0.35742188,-7.1411133,3.6621094,-0.12207031,0.0,0.0,0.0,17.210083,69.697266,7.608032
1769246352803,-0.94873047,0.09277344,0.35742188,-7.1411133,3.6621094,-0.12207031,0.0,0.0,0.0,17.737427,69.89502,8.096924
1769246352891,-0.86865234,0.087890625,0.42138672,1.2817383,-2.319336,-1.5869141,0.0,0.0,0.0,17.737427,69.89502,8.096924
1769246352903,-0.86865234,0.087890625,0.42138672,1.2817383,-2.319336,-1.5869141,0.0,0.0,0.0,17.336426,70.285034,8.080444
1769246352991,-0.9272461,0.064941406,0.44628906,-7.6293945,-1.5869141,2.380371,0.0,0.0,0.0,17.336426,70.285034,8.080444
1769246353003,-0.9272461,0.064941406,0.44628906,-7.6293945,-1.5869141,2.380371,0.0,0.0,0.0,16.743164,69.80713,8.728638
1769246353091,-0.90625,0.123535156,0.29736328,5.79834,-2.319336,-2.746582,0.0,0.0,0.0,16.743164,69.80713,8.728638
1769246353102,-0.90625,0.123535156,0.29736328,5.79834,-2.319336,-2.746582,0.0,0.0,0.0,16.940918,69.175415,8.860474
1769246353190,-0.8964844,0.017578125,0.44189453,0.91552734,8.605957,1.2207031,0.0,0.0,0.0,16.940918,69.175415,8.860474
1769246353202,-0.8964844,0.017578125,0.44189453,0.91552734,8.605957,1.2207031,0.0,0.0,0.0,16.292725,69.71924,7.5476074
1769246353290,-0.9472656,0.13427734,0.29296875,0.9765625,-8.483887,5.432129,0.0,0.0,0.0,16.292725,69.71924,7.5476074
1769246353302,-0.9472656,0.13427734,0.29296875,0.9765625,-8.483887,5.432129,0.0,0.0,0.0,16.56189,68.878784,8.272705
1769246353390,-0.98046875,0.03466797,0.2290039,28.9917,24.780273,-14.404297,0.0,0.0,0.0,16.56189,68.878784,8.272705
1769246353401,-0.98046875,0.03466797,0.2290039,28.9917,24.780273,-14.404297,0.0,0.0,0.0,17.715454,69.87305,8.245239
1769246353490,-0.9355469,0.049804688,0.31689453,-2.1362305,7.2631836,0.18310547,0.0,0.0,0.0,17.715454,69.87305,8.245239
1769246353501,-0.9355469,0.049804688,0.31689453,-2.1362305,7.2631836,0.18310547,0.0,0.0,0.0,17.874756,72.15271,6.119385
1769246353589,-0.96533203,0.040527344,0.17822266,5.004883,13.916016,-1.5869141,0.0,0.0,0.0,17.874756,72.15271,6.119385
1769246353601,-0.96533203,0.040527344,0.17822266,5.004883,13.916016,-1.5869141,0.0,0.0,0.0,18.57788,72.943726,7.4542236
1769246353689,-1.0644531,0.036621094,0.28564453,2.0751953,-9.70459,4.4555664,0.0,0.0,0.0,18.57788,72.943726,7.4542236
1769246353701,-1.0644531,0.036621094,0.28564453,2.0751953,-9.70459,4.4555664,0.0,0.0,0.0,19.429321,73.64685,7.564087
1769246353789,-1.0688477,0.09033203,0.33935547,-23.498535,-11.901855,8.7890625,0.0,0.0,0.0,19.429321,73.64685,7.564087
1769246353800,-1.0688477,0.09033203,0.33935547,-23.498535,-11.901855,8.7890625,0.0,0.0,0.0,19.083252,72.21863,7.9101562
1769246353889,-1.0458984,0.05810547,0.1743164,-3.1738281,-8.728027,-2.4414062,0.0,0.0,0.0,19.083252,72.21863,7.9101562
1769246353900,-1.0458984,0.05810547,0.1743164,-3.1738281,-8.728027,-2.4414062,0.0,0.0,0.0,18.934937,71.09802,9.316406
1769246353988,-0.9663086,0.09863281,0.36767578,-13.366699,2.6855469,1.4038086,0.0,0.0,0.0,18.934937,71.09802,9.316406
1769246354000,-0.9663086,0.09863281,0.36767578,-13.366699,2.6855469,1.4038086,0.0,0.0,0.0,18.132935,71.72424,8.12439
1769246354088,-0.8442383,0.12451172,0.31152344,12.023926,-1.8920898,-7.9345703,0.0,0.0,0.0,18.132935,71.72424,8.12439
1769246354099,-0.8442383,0.12451172,0.31152344,12.023926,-1.8920898,-7.9345703,0.0,0.0,0.0,16.902466,71.35071,6.9104004
1769246354188,-0.90527344,0.21728516,0.43164062,10.192871,-0.4272461,-5.92041,0.0,0.0,0.0,16.902466,71.35071,6.9104004
1769246354199,-0.90527344,0.21728516,0.43164062,10.192871,-0.4272461,-5.92041,0.0,0.0,0.0,16.298218,71.31775,4.65271
1769246354287,-0.88964844,0.053710938,0.4169922,11.59668,-12.878418,-9.155273,0.0,0.0,0.0,16.298218,71.31775,4.65271
1769246354299,-0.88964844,0.053710938,0.4169922,11.59668,-12.878418,-9.155273,0.0,0.0,0.0,14.39209,71.07056,3.7628174
1769246354387,-0.9301758,0.11621094,0.1850586,-9.338379,-22.094727,7.5683594,0.0,0.0,0.0,14.39209,71.07056,3.7628174
1769246354399,-0.9301758,0.11621094,0.1850586,-9.338379,-22.094727,7.5683594,0.0,0.0,0.0,13.94165,68.291016,3.1201172
1769246354487,-0.9003906,0.10205078,0.40820312,3.112793,11.352539,-2.0751953,0.0,0.0,0.0,13.94165,68.291016,3.1201172
1769246354498,-0.9003906,0.10205078,0.40820312,3.112793,11.352539,-2.0751953,0.0,0.0,0.0,14.853516,68.098755,3.515625
1769246354586,-0.9873047,0.030273438,0.32666016,-12.390137,-11.047363,3.4179688,0.0,0.0,0.0,14.853516,68.098755,3.515625
1769246354598,-0.9873047,0.030273438,0.32666016,-12.390137,-11.047363,3.4179688,0.0,0.0,0.0,14.512939,67.9834,3.7243652
1769246354686,-0.9555664,0.13134766,0.23486328,7.2021484,5.2490234,-1.5869141,0.0,0.0,0.0,14.512939,67.9834,3.7243652
1769246354698,-0.9555664,0.13134766,0.23486328,7.2021484,5.2490234,-1.5869141,0.0,0.0,0.0,14.238281,67.873535,3.8232422
1769246354786,-0.99902344,0.11816406,0.31201172,8.239746,19.53125,-10.192871,0.0,0.0,0.0,14.238281,67.873535,3.8232422
1769246354797,-0.99902344,0.11816406,0.31201172,8.239746,19.53125,-10.192871,0.0,0.0,0.0,13.776855,69.71924,1.9665527
1769246354886,-0.98339844,0.1538086,0.34228516,6.4697266,-9.521484,10.375977,0.0,0.0,0.0,13.776855,69.71924,1.9665527
1769246354897,-0.98339844,0.1538086,0.34228516,6.4697266,-9.521484,10.375977,0.0,0.0,0.0,15.496216,70.14221,4.2681885
1769246354985,-0.9633789,0.07324219,0.2290039,24.475098,8.483887,-3.0517578,0.0,0.0,0.0,15.496216,70.14221,4.2681885
1769246354997,-0.9633789,0.07324219,0.2290039,24.475098,8.483887,-3.0517578,0.0,0.0,0.0,16.847534,70.43884,5.3009033
1769246355085,-0.96728516,0.072753906,0.33740234,1.8310547,-0.9765625,1.8310547,0.0,0.0,0.0,16.847534,70.43884,5.3009033
1769246355098,-0.96728516,0.072753906,0.33740234,1.8310547,-0.9765625,1.8310547,0.0,0.0,0.0,18.797607,70.43335,6.355591
1769246355185,-0.85253906,0.07080078,0.40283203,18.310547,9.216309,-11.657715,0.0,0.0,0.0,18.797607,70.43335,6.355591
1769246355196,-0.85253906,0.07080078,0.40283203,18.310547,9.216309,-11.657715,0.0,0.0,0.0,18.034058,71.63086,4.421997
1769246355285,-0.91259766,0.09033203,0.4038086,-15.930176,-5.3710938,8.178711,0.0,0.0,0.0,18.034058,71.63086,4.421997
1769246355296,-0.91259766,0.09033203,0.4038086,-15.930176,-5.3710938,8.178711,0.0,0.0,0.0,17.303467,71.07605,5.0372314
1769246355384,-0.90527344,0.1772461,0.2133789,6.958008,5.493164,2.2583008,0.0,0.0,0.0,17.303467,71.07605,5.0372314
1769246355396,-0.90527344,0.1772461,0.2133789,6.958008,5.493164,2.2583008,0.0,0.0,0.0,19.083252,70.57617,6.8774414
1769246355484,-0.9291992,0.026855469,0.3671875,12.329102,9.70459,-4.9438477,0.0,0.0,0.0,19.083252,70.57617,6.8774414
1769246355495,-0.9291992,0.026855469,0.3671875,12.329102,9.70459,-4.9438477,0.0,0.0,0.0,20.055542,71.38916,6.7730713
1769246355584,-0.9394531,0.12451172,0.29003906,-25.146484,-8.7890625,17.456055,0.0,0.0,0.0,20.055542,71.38916,6.7730713
1769246355595,-0.9394531,0.12451172,0.29003906,-25.146484,-8.7890625,17.456055,0.0,0.0,0.0,20.85205,70.98816,8.904419
1769246355683,-0.9902344,0.056152344,0.1899414,12.329102,15.197754,-4.638672,0.0,0.0,0.0,20.85205,70.98816,8.904419
1769246355695,-0.9902344,0.056152344,0.1899414,12.329102,15.197754,-4.638672,0.0,0.0,0.0,22.70874,71.152954,11.986084
1769246355783,-0.9560547,0.107910156,0.32080078,-1.5258789,1.2207031,1.953125,0.0,0.0,0.0,22.70874,71.152954,11.986084
1769246355794,-0.9560547,0.107910156,0.32080078,-1.5258789,1.2207031,1.953125,0.0,0.0,0.0,23.631592,72.74048,11.25
1769246355883,-1.0014648,0.056152344,0.17578125,3.7841797,3.6010742,-1.4648438,0.0,0.0,0.0,23.631592,72.74048,11.25
1769246355894,-1.0014648,0.056152344,0.17578125,3.7841797,3.6010742,-1.4648438,0.0,0.0,0.0,23.735962,72.454834,12.052002
1769246355983,-1.0668945,0.1015625,0.31982422,6.8359375,-4.0893555,-3.540039,0.0,0.0,0.0,23.735962,72.454834,12.052002
1769246355994,-1.0668945,0.1015625,0.31982422,6.8359375,-4.0893555,-3.540039,0.0,0.0,0.0,23.02185,73.394165,9.882202
1769246356082,-0.9873047,0.13867188,0.24560547,-27.770996,-6.713867,10.803223,0.0,0.0,0.0,23.02185,73.394165,9.882202
1769246356094,-0.9873047,0.13867188,0.24560547,-27.770996,-6.713867,10.803223,0.0,0.0,0.0,21.610107,72.22412,8.657227
1769246356182,-1.003418,0.110839844,0.30273438,16.296387,4.699707,-8.361816,0.0,0.0,0.0,21.610107,72.22412,8.657227
1769246356193,-1.003418,0.110839844,0.30273438,16.296387,4.699707,-8.361816,0.0,0.0,0.0,21.676025,72.25159,8.843994
1769246356282,-0.8823242,0.16552734,0.3647461,-11.657715,-18.737793,8.972168,0.0,0.0,0.0,21.676025,72.25159,8.843994
1769246356293,-0.8823242,0.16552734,0.3647461,-11.657715,-18.737793,8.972168,0.0,0.0,0.0,21.022339,72.02637,8.22876
1769246356381,-0.8696289,0.16552734,0.34179688,10.192871,-14.892578,-3.3569336,0.0,0.0,0.0,21.022339,72.02637,8.22876
1769246356393,-0.8696289,0.16552734,0.34179688,10.192871,-14.892578,-3.3569336,0.0,0.0,0.0,20.077515,69.59839,8.113403
1769246356481,-0.95703125,0.10986328,0.43554688,6.713867,12.207031,-19.348145,0.0,0.0,0.0,20.077515,69.59839,8.113403
1769246356493,-0.95703125,0.10986328,0.43554688,6.713867,12.207031,-19.348145,0.0,0.0,0.0,18.198853,69.84009,4.9823
1769246356582,-0.8901367,0.111328125,0.32470703,-15.441895,-17.456055,1.953125,0.0,0.0,0.0,18.198853,69.84009,4.9823
1769246356593,-0.8901367,0.111328125,0.32470703,-15.441895,-17.456055,1.953125,0.0,0.0,0.0,15.562134,69.938965,2.642212
1769246356680,-0.90234375,0.13916016,0.28271484,0.0,1.7700195,-1.2817383,0.0,0.0,0.0,15.562134,69.938965,2.642212
1769246356692,-0.90234375,0.13916016,0.28271484,0.0,1.7700195,-1.2817383,0.0,0.0,0.0,14.727173,68.3844,3.5925293
1769246356780,-0.9536133,0.071777344,0.36621094,0.91552734,10.681152,-1.7700195,0.0,0.0,0.0,14.727173,68.3844,3.5925293
1769246356792,-0.9536133,0.071777344,0.36621094,0.91552734,10.681152,-1.7700195,0.0,0.0,0.0,14.842529,69.90051,2.7850342
1769246356880,-0.96777344,0.080078125,0.16113281,-8.911133,10.7421875,0.5493164,0.0,0.0,0.0,14.842529,69.90051,2.7850342
1769246356892,-0.96777344,0.080078125,0.16113281,-8.911133,10.7421875,0.5493164,0.0,0.0,0.0,14.683228,70.22461,3.7298584
1769246356980,-0.9941406,0.10839844,0.24365234,6.7749023,12.084961,-7.3242188,0.0,0.0,0.0,14.683228,70.22461,3.7298584
1769246356991,-0.9941406,0.10839844,0.24365234,6.7749023,12.084961,-7.3242188,0.0,0.0,0.0,14.37561,71.50452,3.010254
1769246357079,-1.0615234,0.08544922,0.35839844,-18.188477,8.300781,6.4086914,0.0,0.0,0.0,14.37561,71.50452,3.010254
1769246357092,-1.0615234,0.08544922,0.35839844,-18.188477,8.300781,6.4086914,0.0,0.0,0.0,15.089722,73.23486,3.2080078
1769246357179,-1.0463867,0.056640625,0.18408203,1.6479492,-1.2207031,0.4272461,0.0,0.0,0.0,15.089722,73.23486,3.2080078
1769246357190,-1.0463867,0.056640625,0.18408203,1.6479492,-1.2207031,0.4272461,0.0,0.0,0.0,17.017822,72.57019,6.256714
1769246357279,-0.96728516,0.15673828,0.33740234,-13.183594,-1.0986328,10.498047,0.0,0.0,0.0,17.017822,72.57019,6.256714
1769246357291,-0.96728516,0.15673828,0.33740234,-13.183594,-1.0986328,10.498047,0.0,0.0,0.0,17.86377,73.41614,5.8447266
1769246357378,-0.9536133,0.07421875,0.30517578,9.460449,8.300781,-4.8217773,0.0,0.0,0.0,17.86377,73.41614,5.8447266
1769246357390,-0.9536133,0.07421875,0.30517578,9.460449,8.300781,-4.8217773,0.0,0.0,0.0,19.27002,72.93274,8.432007
1769246357478,-0.8408203,0.07714844,0.4013672,-27.404785,-4.9438477,15.197754,0.0,0.0,0.0,19.27002,72.93274,8.432007
1769246357490,-0.8408203,0.07714844,0.4013672,-27.404785,-4.9438477,15.197754,0.0,0.0,0.0,19.758911,72.888794,9.321899
1769246357578,-0.95703125,0.171875,0.36914062,10.375977,-5.79834,2.1362305,0.0,0.0,0.0,19.758911,72.888794,9.321899
1769246357589,-0.95703125,0.171875,0.36914062,10.375977,-5.79834,2.1362305,0.0,0.0,0.0,20.264282,72.004395,12.008057
1769246357678,-0.9604492,-0.0107421875,0.19335938,19.958496,7.507324,-11.59668,0.0,0.0,0.0,20.264282,72.004395,12.008057
1769246357689,-0.9604492,-0.0107421875,0.19335938,19.958496,7.507324,-11.59668,0.0,0.0,0.0,20.516968,71.33423,12.019043
1769246357777,-0.91845703,0.061035156,0.4350586,0.6713867,5.126953,-1.2207031,0.0,0.0,0.0,20.516968,71.33423,12.019043
1769246357789,-0.91845703,0.061035156,0.4350586,0.6713867,5.126953,-1.2207031,0.0,0.0,0.0,20.066528,73.48755,9.442749
1769246357877,-1.0068359,0.060058594,0.067871094,-1.4648438,7.507324,-0.8544922,0.0,0.0,0.0,20.066528,73.48755,9.442749
1769246357889,-1.0068359,0.060058594,0.067871094,-1.4648438,7.507324,-0.8544922,0.0,0.0,0.0,19.58313,72.85034,10.415039
1769246357977,-0.9296875,0.04638672,0.27148438,17.700195,20.324707,-10.375977,0.0,0.0,0.0,19.58313,72.85034,10.415039
1769246357988,-0.9296875,0.04638672,0.27148438,17.700195,20.324707,-10.375977,0.0,0.0,0.0,19.638062,75.33325,8.113403
1769246358077,-0.9970703,0.021484375,0.16064453,-17.8833,5.065918,5.493164,0.0,0.0,0.0,19.638062,75.33325,8.113403
1769246358088,-0.9970703,0.021484375,0.16064453,-17.8833,5.065918,5.493164,0.0,0.0,0.0,19.885254,76.25061,8.305664
1769246358176,-1.027832,0.0087890625,0.1772461,5.7373047,10.498047,-8.117676,0.0,0.0,0.0,19.885254,76.25061,8.305664
1769246358188,-1.027832,0.0087890625,0.1772461,5.7373047,10.498047,-8.117676,0.0,0.0,0.0,19.094238,77.629395,6.7840576
1769246358276,-1.0688477,0.08105469,0.24316406,-6.4697266,-12.756348,-1.5869141,0.0,0.0,0.0,19.094238,77.629395,6.7840576
1769246358288,-1.0688477,0.08105469,0.24316406,-6.4697266,-12.756348,-1.5869141,0.0,0.0,0.0,16.160889,77.316284,3.3947754
1769246358376,-0.9770508,0.0390625,0.16796875,-7.019043,-16.906738,5.6152344,0.0,0.0,0.0,16.160889,77.316284,3.3947754
1769246358387,-0.9770508,0.0390625,0.16796875,-7.019043,-16.906738,5.6152344,0.0,0.0,0.0,14.787598,75.74524,1.9006348
1769246358475,-0.9536133,0.09277344,0.20410156,-1.4648438,-10.925293,2.6855469,0.0,0.0,0.0,14.787598,75.74524,1.9006348
1769246358487,-0.9536133,0.09277344,0.20410156,-1.4648438,-10.925293,2.6855469,0.0,0.0,0.0,15.227051,74.24011,2.4060059
1769246358575,-0.97998047,0.08642578,0.30859375,-4.333496,3.7841797,2.5024414,0.0,0.0,0.0,15.227051,74.24011,2.4060059
1769246358587,-0.97998047,0.08642578,0.30859375,-4.333496,3.7841797,2.5024414,0.0,0.0,0.0,16.11145,74.333496,2.9003906
1769246358675,-0.82958984,0.096191406,0.31835938,8.850098,7.5683594,-6.0424805,0.0,0.0,0.0,16.11145,74.333496,2.9003906
1769246358686,-0.82958984,0.096191406,0.31835938,8.850098,7.5683594,-6.0424805,0.0,0.0,0.0,16.54541,74.77844,3.4277344
1769246358775,-1.0063477,0.19677734,0.38427734,7.019043,-8.422852,-5.493164,0.0,0.0,0.0,16.54541,74.77844,3.4277344
1769246358786,-1.0063477,0.19677734,0.38427734,7.019043,-8.422852,-5.493164,0.0,0.0,0.0,14.891968,74.63562,1.2854004
1769246358874,-0.9555664,-0.03466797,0.26367188,13.977051,9.460449,-13.48877,0.0,0.0,0.0,14.891968,74.63562,1.2854004
1769246358886,-0.9555664,-0.03466797,0.26367188,13.977051,9.460449,-13.48877,0.0,0.0,0.0,11.903687,74.73999,-1.7523193
1769246358974,-0.93310547,0.15039062,0.25048828,-20.324707,-13.977051,8.7890625,0.0,0.0,0.0,11.903687,74.73999,-1.7523193
1769246358986,-0.93310547,0.15039062,0.25048828,-20.324707,-13.977051,8.7890625,0.0,0.0,0.0,10.975342,74.02588,-0.8294678
1769246359074,-0.96728516,0.029296875,0.24707031,14.404297,13.366699,-10.681152,0.0,0.0,0.0,10.975342,74.02588,-0.8294678
1769246359086,-0.96728516,0.029296875,0.24707031,14.404297,13.366699,-10.681152,0.0,0.0,0.0,11.409302,74.43787,-0.40649414
1769246359173,-0.9941406,0.0024414062,0.13183594,-26.489258,-4.0283203,6.5307617,0.0,0.0,0.0,11.409302,74.43787,-0.40649414
1769246359185,-0.9941406,0.0024414062,0.13183594,-26.489258,-4.0283203,6.5307617,0.0,0.0,0.0,11.052246,74.70154,0.335083
1769246359273,-0.9785156,0.088378906,0.16503906,7.019043,7.873535,-5.3710938,0.0,0.0,0.0,11.052246,74.70154,0.335083
1769246359285,-0.9785156,0.088378906,0.16503906,7.019043,7.873535,-5.3710938,0.0,0.0,0.0,10.914917,75.34973,0.39001465
1769246359373,-1.0234375,0.030761719,0.21582031,-5.3710938,-5.3710938,10.437012,0.0,0.0,0.0,10.914917,75.34973,0.39001465
1769246359385,-1.0234375,0.030761719,0.21582031,-5.3710938,-5.3710938,10.437012,0.0,0.0,0.0,12.348633,75.76172,0.8294678
1769246359473,-0.99072266,0.12597656,0.22949219,0.30517578,-19.958496,14.221191,0.0,0.0,0.0,12.348633,75.76172,0.8294678
1769246359484,-0.99072266,0.12597656,0.22949219,0.30517578,-19.958496,14.221191,0.0,0.0,0.0,14.968872,74.262085,4.1638184
1769246359573,-0.9345703,0.047851562,0.18798828,3.112793,-8.361816,3.479004,0.0,0.0,0.0,14.968872,74.262085,4.1638184
1769246359584,-0.9345703,0.047851562,0.18798828,3.112793,-8.361816,3.479004,0.0,0.0,0.0,17.160645,72.68555,6.2072754
1769246359673,-0.97753906,0.072753906,0.31884766,-9.70459,1.7089844,4.0893555,0.0,0.0,0.0,17.160645,72.68555,6.2072754
1769246359684,-0.97753906,0.072753906,0.31884766,-9.70459,1.7089844,4.0893555,0.0,0.0,0.0,18.314209,72.90527,7.5915527
1769246359772,-0.8989258,0.107421875,0.296875,1.8920898,-1.4038086,-1.5258789,0.0,0.0,0.0,18.314209,72.90527,7.5915527
1769246359783,-0.8989258,0.107421875,0.296875,1.8920898,-1.4038086,-1.5258789,0.0,0.0,0.0,18.198853,73.02063,7.470703
1769246359872,-0.8720703,0.12451172,0.38720703,-3.2348633,-0.24414062,4.1503906,0.0,0.0,0.0,18.198853,73.02063,7.470703
1769246359883,-0.8720703,0.12451172,0.38720703,-3.2348633,-0.24414062,4.1503906,0.0,0.0,0.0,18.204346,72.48779,7.5146484
1769246359971,-0.97216797,0.13867188,0.35986328,15.014648,2.1362305,5.79834,0.0,0.0,0.0,18.204346,72.48779,7.5146484
1769246359983,-0.97216797,0.13867188,0.35986328,15.014648,2.1362305,5.79834,0.0,0.0,0.0,20.099487,72.46582,9.816284
1769246360071,-0.94384766,0.020507812,0.26220703,15.258789,0.4272461,-7.2021484,0.0,0.0,0.0,20.099487,72.46582,9.816284
1769246360083,-0.94384766,0.020507812,0.26220703,15.258789,0.4272461,-7.2021484,0.0,0.0,0.0,21.280518,72.54822,10.299683
1769246360171,-0.9189453,0.078125,0.3642578,-11.291504,-4.638672,9.277344,0.0,0.0,0.0,21.280518,72.54822,10.299683
1769246360182,-0.9189453,0.078125,0.3642578,-11.291504,-4.638672,9.277344,0.0,0.0,0.0,20.928955,72.50427,9.805298
1769246360270,-0.99853516,0.115722656,0.13134766,-2.5024414,4.1503906,5.2490234,0.0,0.0,0.0,20.928955,72.50427,9.805298
1769246360282,-0.99853516,0.115722656,0.13134766,-2.5024414,4.1503906,5.2490234,0.0,0.0,0.0,22.445068,71.58142,12.892456
1769246360370,-0.97216797,0.064941406,0.2861328,18.493652,7.2631836,-9.277344,0.0,0.0,0.0,22.445068,71.58142,12.892456
1769246360382,-0.97216797,0.064941406,0.2861328,18.493652,7.2631836,-9.277344,0.0,0.0,0.0,23.258057,72.95471,11.6015625
1769246360470,-0.9746094,0.07128906,0.2084961,0.0,-8.117676,-0.61035156,0.0,0.0,0.0,23.258057,72.95471,11.6015625
1769246360481,-0.9746094,0.07128906,0.2084961,0.0,-8.117676,-0.61035156,0.0,0.0,0.0,22.527466,72.86133,10.475464
1769246360570,-1.0214844,0.07128906,0.2475586,19.89746,0.18310547,-13.73291,0.0,0.0,0.0,22.527466,72.86133,10.475464
1769246360581,-1.0214844,0.07128906,0.2475586,19.89746,0.18310547,-13.73291,0.0,0.0,0.0,20.775146,73.13599,7.1411133
1769246360669,-0.99658203,0.08105469,0.38867188,8.605957,-14.465332,-12.451172,0.0,0.0,0.0,20.775146,73.13599,7.1411133
1769246360681,-0.99658203,0.08105469,0.38867188,8.605957,-14.465332,-12.451172,0.0,0.0,0.0,17.715454,73.02063,2.076416
1769246360769,-0.9433594,0.087402344,0.23730469,4.8828125,-22.033691,-3.112793,0.0,0.0,0.0,17.715454,73.02063,2.076416
1769246360780,-0.9433594,0.087402344,0.23730469,4.8828125,-22.033691,-3.112793,0.0,0.0,0.0,15.457764,71.24634,-0.4449463
1769246360869,-0.9116211,0.11425781,0.34716797,23.742676,-10.375977,-9.765625,0.0,0.0,0.0,15.457764,71.24634,-0.4449463
1769246360880,-0.9116211,0.11425781,0.34716797,23.742676,-10.375977,-9.765625,0.0,0.0,0.0,13.458252,70.21362,-4.180298
1769246360968,-0.86865234,0.13378906,0.40234375,22.766113,-28.686523,-6.713867,0.0,0.0,0.0,13.458252,70.21362,-4.180298
1769246360980,-0.86865234,0.13378906,0.40234375,22.766113,-28.686523,-6.713867,0.0,0.0,0.0,13.09021,68.26904,-6.7456055
1769246361068,-0.84814453,0.15283203,0.34179688,53.466797,-18.249512,-11.779785,0.0,0.0,0.0,13.09021,68.26904,-6.7456055
1769246361080,-0.84814453,0.15283203,0.34179688,53.466797,-18.249512,-11.779785,0.0,0.0,0.0,13.639526,66.14319,-9.360352
1769246361169,-0.84765625,0.12158203,0.45214844,42.48047,-13.061523,-14.099121,0.0,0.0,0.0,13.639526,66.14319,-9.360352
1769246361180,-0.84765625,0.12158203,0.45214844,42.48047,-13.061523,-14.099121,0.0,0.0,0.0,15.4852295,64.973145,-12.584839
1769246361268,-0.9326172,0.08691406,0.52490234,23.620605,-13.73291,-8.117676,0.0,0.0,0.0,15.4852295,64.973145,-12.584839
1769246361279,-0.9326172,0.08691406,0.52490234,23.620605,-13.73291,-8.117676,0.0,0.0,0.0,16.342163,63.73169,-14.067993
1769246361367,-0.86035156,0.095214844,0.43066406,17.700195,-13.366699,-16.723633,0.0,0.0,0.0,16.342163,63.73169,-14.067993
1769246361379,-0.86035156,0.095214844,0.43066406,17.700195,-13.366699,-16.723633,0.0,0.0,0.0,14.606323,62.83081,-16.523438
1769246361467,-0.88720703,0.140625,0.38867188,0.48828125,-9.70459,-3.8452148,0.0,0.0,0.0,14.606323,62.83081,-16.523438
1769246361478,-0.88720703,0.140625,0.38867188,0.48828125,-9.70459,-3.8452148,0.0,0.0,0.0,13.265991,61.64978,-17.803345
1769246361567,-0.90625,0.09863281,0.48632812,1.2817383,0.36621094,-5.3710938,0.0,0.0,0.0,13.265991,61.64978,-17.803345
1769246361578,-0.90625,0.09863281,0.48632812,1.2817383,0.36621094,-5.3710938,0.0,0.0,0.0,12.463989,61.6333,-18.034058
1769246361666,-0.9165039,0.09667969,0.4326172,-16.845703,-3.6621094,6.286621,0.0,0.0,0.0,12.463989,61.6333,-18.034058
1769246361678,-0.9165039,0.09667969,0.4326172,-16.845703,-3.6621094,6.286621,0.0,0.0,0.0,11.975098,61.292725,-16.715698
1769246361766,-0.92285156,0.10888672,0.40576172,-18.676758,12.573242,10.7421875,0.0,0.0,0.0,11.975098,61.292725,-16.715698
1769246361778,-0.92285156,0.10888672,0.40576172,-18.676758,12.573242,10.7421875,0.0,0.0,0.0,11.865234,61.64978,-14.161377
1769246361866,-1.003418,0.041503906,0.38232422,-29.418945,23.07129,11.71875,0.0,0.0,0.0,11.865234,61.64978,-14.161377
1769246361877,-1.003418,0.041503906,0.38232422,-29.418945,23.07129,11.71875,0.0,0.0,0.0,12.573853,63.242798,-10.365601
1769246361966,-0.9511719,0.103027344,0.3779297,-21.728516,17.63916,18.127441,0.0,0.0,0.0,12.573853,63.242798,-10.365601
1769246361977,-0.9511719,0.103027344,0.3779297,-21.728516,17.63916,18.127441,0.0,0.0,0.0,13.260498,65.58838,-6.4160156
1769246362065,-0.91259766,0.06738281,0.3857422,-28.9917,19.836426,17.333984,0.0,0.0,0.0,13.260498,65.58838,-6.4160156
1769246362077,-0.91259766,0.06738281,0.3857422,-28.9917,19.836426,17.333984,0.0,0.0,0.0,16.062012,66.63757,-1.6973877
1769246362165,-0.890625,0.059570312,0.44384766,-24.414062,9.338379,8.728027,0.0,0.0,0.0,16.062012,66.63757,-1.6973877
1769246362177,-0.890625,0.059570312,0.44384766,-24.414062,9.338379,8.728027,0.0,0.0,0.0,17.594604,67.76367,2.37854
1769246362265,-0.8125,0.106933594,0.42236328,-19.65332,7.507324,6.652832,0.0,0.0,0.0,17.594604,67.76367,2.37854
1769246362276,-0.8125,0.106933594,0.42236328,-19.65332,7.507324,6.652832,0.0,0.0,0.0,17.237549,67.95044,4.6636963
1769246362364,-0.88623047,0.16113281,0.44189453,-17.822266,10.009766,7.446289,0.0,0.0,0.0,17.237549,67.95044,4.6636963
1769246362376,-0.88623047,0.16113281,0.44189453,-17.822266,10.009766,7.446289,0.0,0.0,0.0,17.265015,68.323975,7.3773193
1769246362464,-0.90771484,0.17138672,0.38085938,-5.3100586,5.126953,0.48828125,0.0,0.0,0.0,17.265015,68.323975,7.3773193
1769246362476,-0.90771484,0.17138672,0.38085938,-5.3100586,5.126953,0.48828125,0.0,0.0,0.0,18.484497,68.79089,9.18457
1769246362564,-0.9160156,0.05126953,0.34179688,-21.54541,-4.760742,10.192871,0.0,0.0,0.0,18.484497,68.79089,9.18457
1769246362576,-0.9160156,0.05126953,0.34179688,-21.54541,-4.760742,10.192871,0.0,0.0,0.0,18.28125,67.96692,11.079712
1769246362664,-0.9135742,0.115234375,0.3408203,-4.272461,11.71875,7.9956055,0.0,0.0,0.0,18.28125,67.96692,11.079712
1769246362676,-0.9135742,0.115234375,0.3408203,-4.272461,11.71875,7.9956055,0.0,0.0,0.0,19.46228,68.21411,13.150635
1769246362763,-0.97314453,0.10839844,0.20117188,8.728027,15.991211,0.24414062,0.0,0.0,0.0,19.46228,68.21411,13.150635
1769246362775,-0.97314453,0.10839844,0.20117188,8.728027,15.991211,0.24414062,0.0,0.0,0.0,21.912231,69.69177,15.232544
1769246362863,-0.9790039,0.080566406,0.3256836,-3.112793,4.4555664,1.2207031,0.0,0.0,0.0,21.912231,69.69177,15.232544
1769246362875,-0.9790039,0.080566406,0.3256836,-3.112793,4.4555664,1.2207031,0.0,0.0,0.0,22.478027,70.3949,14.403076
1769246362963,-1.0043945,0.076660156,0.22851562,3.1738281,3.4179688,-4.211426,0.0,0.0,0.0,22.478027,70.3949,14.403076
1769246362974,-1.0043945,0.076660156,0.22851562,3.1738281,3.4179688,-4.211426,0.0,0.0,0.0,22.60437,71.07605,13.815308
1769246363063,-0.9086914,0.099121094,0.32080078,6.1035156,-5.6762695,-0.30517578,0.0,0.0,0.0,22.60437,71.07605,13.815308
1769246363074,-0.9086914,0.099121094,0.32080078,6.1035156,-5.6762695,-0.30517578,0.0,0.0,0.0,21.626587,71.345215,11.80481
1769246363162,-0.9458008,0.12451172,0.25927734,-16.723633,-8.605957,10.009766,0.0,0.0,0.0,21.626587,71.345215,11.80481
1769246363174,-0.9458008,0.12451172,0.25927734,-16.723633,-8.605957,10.009766,0.0,0.0,0.0,21.121216,70.62012,13.353882
1769246363262,-0.95947266,0.09326172,0.3334961,7.5683594,-2.1972656,-7.1411133,0.0,0.0,0.0,21.121216,70.62012,13.353882
1769246363274,-0.95947266,0.09326172,0.3334961,7.5683594,-2.1972656,-7.1411133,0.0,0.0,0.0,20.604858,70.67505,12.128906
1769246363362,-0.88427734,0.15234375,0.36523438,10.375977,-15.380859,-2.380371,0.0,0.0,0.0,20.604858,70.67505,12.128906
1769246363373,-0.88427734,0.15234375,0.36523438,10.375977,-15.380859,-2.380371,0.0,0.0,0.0,19.802856,70.03235,10.431519
1769246363461,-0.8803711,0.19042969,0.36132812,10.131836,1.5258789,-10.498047,0.0,0.0,0.0,19.802856,70.03235,10.431519
1769246363473,-0.8803711,0.19042969,0.36132812,10.131836,1.5258789,-10.498047,0.0,0.0,0.0,18.621826,69.16443,7.970581
1769246363561,-0.9589844,0.07910156,0.4428711,1.7089844,15.197754,-16.662598,0.0,0.0,0.0,18.621826,69.16443,7.970581
1769246363573,-0.9589844,0.07910156,0.4428711,1.7089844,15.197754,-16.662598,0.0,0.0,0.0,16.468506,70.78491,5.4107666
1769246363661,-0.8676758,0.09277344,0.3232422,-3.6621094,-31.799316,4.211426,0.0,0.0,0.0,16.468506,70.78491,5.4107666
1769246363673,-0.8676758,0.09277344,0.3232422,-3.6621094,-31.799316,4.211426,0.0,0.0,0.0,14.859009,69.37866,3.3343506
1769246363761,-0.91845703,0.15527344,0.28222656,-18.310547,-9.521484,7.9956055,0.0,0.0,0.0,14.859009,69.37866,3.3343506
1769246363772,-0.91845703,0.15527344,0.28222656,-18.310547,-9.521484,7.9956055,0.0,0.0,0.0,14.37561,66.571655,4.213257
1769246363860,-0.9458008,0.041503906,0.42333984,7.6293945,17.76123,-5.1879883,0.0,0.0,0.0,14.37561,66.571655,4.213257
1769246363872,-0.9458008,0.041503906,0.42333984,7.6293945,17.76123,-5.1879883,0.0,0.0,0.0,14.639282,68.28552,5.5755615
1769246363960,-0.9746094,0.10839844,0.2602539,-14.770508,-21.54541,13.427734,0.0,0.0,0.0,14.639282,68.28552,5.5755615
1769246363972,-0.9746094,0.10839844,0.2602539,-14.770508,-21.54541,13.427734,0.0,0.0,0.0,14.985352,67.093506,4.8339844
1769246364060,-1.0126953,0.05029297,0.26123047,4.760742,22.399902,-6.286621,0.0,0.0,0.0,14.985352,67.093506,4.8339844
1769246364071,-1.0126953,0.05029297,0.26123047,4.760742,22.399902,-6.286621,0.0,0.0,0.0,15.03479,67.38464,5.597534
1769246364159,-1.0307617,0.110839844,0.37939453,-23.19336,15.808105,7.019043,0.0,0.0,0.0,15.03479,67.38464,5.597534
1769246364171,-1.0307617,0.110839844,0.37939453,-23.19336,15.808105,7.019043,0.0,0.0,0.0,15.523682,69.971924,6.893921
1769246364259,-0.8486328,0.16455078,0.22558594,6.591797,-8.117676,0.7324219,0.0,0.0,0.0,15.523682,69.971924,6.893921
1769246364271,-0.8486328,0.16455078,0.22558594,6.591797,-8.117676,0.7324219,0.0,0.0,0.0,16.171875,69.472046,6.800537
1769246364359,-0.9277344,0.075683594,0.31640625,-6.4697266,7.019043,2.9907227,0.0,0.0,0.0,16.171875,69.472046,6.800537
1769246364370,-0.9277344,0.075683594,0.31640625,-6.4697266,7.019043,2.9907227,0.0,0.0,0.0,17.649536,69.49951,8.014526
1769246364459,-0.8803711,0.088378906,0.3408203,14.953613,13.427734,-9.765625,0.0,0.0,0.0,17.649536,69.49951,8.014526
1769246364470,-0.8803711,0.088378906,0.3408203,14.953613,13.427734,-9.765625,0.0,0.0,0.0,18.253784,70.64209,7.6574707
1769246364558,-0.8808594,0.09814453,0.39501953,-4.8217773,15.441895,-1.3427734,0.0,0.0,0.0,18.253784,70.64209,7.6574707
1769246364570,-0.8808594,0.09814453,0.39501953,-4.8217773,15.441895,-1.3427734,0.0,0.0,0.0,17.891235,72.020874,6.8170166
1769246364658,-0.95166016,0.16308594,0.41259766,31.860352,-0.8544922,0.61035156,0.0,0.0,0.0,17.891235,72.020874,6.8170166
1769246364670,-0.95166016,0.16308594,0.41259766,31.860352,-0.8544922,0.61035156,0.0,0.0,0.0,19.286499,72.86682,8.388062
1769246364758,-0.9526367,0.14208984,0.2915039,-9.460449,-32.226562,20.751953,0.0,0.0,0.0,19.286499,72.86682,8.388062
1769246364769,-0.9526367,0.14208984,0.2915039,-9.460449,-32.226562,20.751953,0.0,0.0,0.0,21.176147,70.20813,9.052734
1769246364858,-0.93408203,-0.032714844,0.3232422,20.874023,1.6479492,-1.8920898,0.0,0.0,0.0,21.176147,70.20813,9.052734
1769246364869,-0.93408203,-0.032714844,0.3232422,20.874023,1.6479492,-1.8920898,0.0,0.0,0.0,22.576904,68.40637,10.288696
1769246364957,-0.9638672,0.12060547,0.22851562,-9.70459,-3.2958984,6.3476562,0.0,0.0,0.0,22.576904,68.40637,10.288696
1769246364969,-0.9638672,0.12060547,0.22851562,-9.70459,-3.2958984,6.3476562,0.0,0.0,0.0,22.81311,68.307495,9.794312
1769246365057,-0.9658203,0.05517578,0.30566406,26.611328,12.084961,-16.418457,0.0,0.0,0.0,22.81311,68.307495,9.794312
1769246365069,-0.9658203,0.05517578,0.30566406,26.611328,12.084961,-16.418457,0.0,0.0,0.0,22.95044,69.60388,8.475952
1769246365157,-0.96728516,0.125,0.3095703,-1.5258789,-2.8686523,-1.953125,0.0,0.0,0.0,22.95044,69.60388,8.475952
1769246365168,-0.96728516,0.125,0.3095703,-1.5258789,-2.8686523,-1.953125,0.0,0.0,0.0,21.813354,70.42236,5.487671
1769246365256,-1.0737305,0.09472656,0.2788086,14.526367,2.380371,-10.253906,0.0,0.0,0.0,21.813354,70.42236,5.487671
1769246365268,-1.0737305,0.09472656,0.2788086,14.526367,2.380371,-10.253906,0.0,0.0,0.0,20.67627,70.76294,3.8946533
1769246365356,-0.90478516,0.072265625,0.3388672,-12.573242,-6.652832,4.0283203,0.0,0.0,0.0,20.67627,70.76294,3.8946533
1769246365368,-0.90478516,0.072265625,0.3388672,-12.573242,-6.652832,4.0283203,0.0,0.0,0.0,19.242554,71.02661,1.2744141
1769246365456,-0.9428711,0.122558594,0.3100586,-9.765625,-8.544922,4.5166016,0.0,0.0,0.0,19.242554,71.02661,1.2744141
1769246365467,-0.9428711,0.122558594,0.3100586,-9.765625,-8.544922,4.5166016,0.0,0.0,0.0,17.896729,69.87305,1.3128662
1769246365556,-0.9042969,0.12597656,0.35107422,-5.3100586,8.300781,-0.5493164,0.0,0.0,0.0,17.896729,69.87305,1.3128662
1769246365567,-0.9042969,0.12597656,0.35107422,-5.3100586,8.300781,-0.5493164,0.0,0.0,0.0,18.121948,69.81262,2.307129
1769246365655,-0.86083984,0.14941406,0.34228516,-0.8544922,8.239746,-0.91552734,0.0,0.0,0.0,18.121948,69.81262,2.307129
1769246365667,-0.86083984,0.14941406,0.34228516,-0.8544922,8.239746,-0.91552734,0.0,0.0,0.0,18.720703,70.60364,3.2574463
1769246365755,-0.9682617,0.14453125,0.42382812,8.422852,16.357422,-17.39502,0.0,0.0,0.0,18.720703,70.60364,3.2574463
1769246365766,-0.9682617,0.14453125,0.42382812,8.422852,16.357422,-17.39502,0.0,0.0,0.0,17.973633,71.70776,3.0377197
1769246365855,-0.88427734,0.078125,0.41064453,-0.061035156,-6.286621,-3.4179688,0.0,0.0,0.0,17.973633,71.70776,3.0377197
1769246365866,-0.88427734,0.078125,0.41064453,-0.061035156,-6.286621,-3.4179688,0.0,0.0,0.0,15.166626,72.91077,-0.22521973
1769246365954,-0.9316406,0.13378906,0.23046875,-23.31543,-36.865234,15.74707,0.0,0.0,0.0,15.166626,72.91077,-0.22521973
1769246365966,-0.9316406,0.13378906,0.23046875,-23.31543,-36.865234,15.74707,0.0,0.0,0.0,14.359131,69.72473,1.7962646
1769246366054,-0.9458008,0.11035156,0.26171875,9.094238,16.296387,-11.047363,0.0,0.0,0.0,14.359131,69.72473,1.7962646
1769246366066,-0.9458008,0.11035156,0.26171875,9.094238,16.296387,-11.047363,0.0,0.0,0.0,14.073486,68.845825,2.208252
1769246366154,-0.98876953,-4.8828125E-4,0.29541016,-12.939453,0.9765625,1.8310547,0.0,0.0,0.0,14.073486,68.845825,2.208252
1769246366166,-0.98876953,-4.8828125E-4,0.29541016,-12.939453,0.9765625,1.8310547,0.0,0.0,0.0,13.952637,70.41687,1.7797852
1769246366254,-0.9868164,0.083984375,0.2211914,1.4038086,11.413574,-5.79834,0.0,0.0,0.0,13.952637,70.41687,1.7797852
1769246366265,-0.9868164,0.083984375,0.2211914,1.4038086,11.413574,-5.79834,0.0,0.0,0.0,13.463745,71.14746,1.741333
1769246366353,-1.0644531,0.100097656,0.29248047,-5.432129,12.390137,0.79345703,0.0,0.0,0.0,13.463745,71.14746,1.741333
1769246366365,-1.0644531,0.100097656,0.29248047,-5.432129,12.390137,0.79345703,0.0,0.0,0.0,13.265991,72.76245,0.8129883
1769246366453,-0.9555664,0.104003906,0.26220703,6.4697266,-9.094238,5.92041,0.0,0.0,0.0,13.265991,72.76245,0.8129883
1769246366465,-0.9555664,0.104003906,0.26220703,6.4697266,-9.094238,5.92041,0.0,0.0,0.0,15.287476,72.93274,3.0706787
1769246366553,-0.9921875,0.064453125,0.23291016,5.6762695,1.5258789,3.112793,0.0,0.0,0.0,15.287476,72.93274,3.0706787
1769246366564,-0.9921875,0.064453125,0.23291016,5.6762695,1.5258789,3.112793,0.0,0.0,0.0,16.347656,72.84485,3.4332275
1769246366652,-1.0019531,0.07714844,0.29541016,-4.0893555,1.7089844,2.5024414,0.0,0.0,0.0,16.347656,72.84485,3.4332275
1769246366664,-1.0019531,0.07714844,0.29541016,-4.0893555,1.7089844,2.5024414,0.0,0.0,0.0,17.682495,72.95471,5.0372314
1769246366752,-0.8935547,0.07714844,0.34960938,1.4648438,0.30517578,-0.79345703,0.0,0.0,0.0,17.682495,72.95471,5.0372314
1769246366764,-0.8935547,0.07714844,0.34960938,1.4648438,0.30517578,-0.79345703,0.0,0.0,0.0,17.644043,73.394165,4.482422
1769246366852,-0.8330078,0.061035156,0.3671875,-19.65332,4.272461,7.507324,0.0,0.0,0.0,17.644043,73.394165,4.482422
1769246366863,-0.8330078,0.061035156,0.3671875,-19.65332,4.272461,7.507324,0.0,0.0,0.0,18.017578,72.927246,6.59729
1769246366952,-0.97558594,0.13964844,0.38427734,20.324707,-7.751465,-0.48828125,0.0,0.0,0.0,18.017578,72.927246,6.59729
1769246366963,-0.97558594,0.13964844,0.38427734,20.324707,-7.751465,-0.48828125,0.0,0.0,0.0,18.830566,72.82837,8.080444
1769246367051,-0.9458008,0.017089844,0.18408203,-2.9907227,-5.92041,4.211426,0.0,0.0,0.0,18.830566,72.82837,8.080444
1769246367063,-0.9458008,0.017089844,0.18408203,-2.9907227,-5.92041,4.211426,0.0,0.0,0.0,19.110718,71.33972,7.8552246
1769246367151,-0.9082031,0.06201172,0.33007812,-2.0141602,4.5166016,5.065918,0.0,0.0,0.0,19.110718,71.33972,7.8552246
1769246367162,-0.9082031,0.06201172,0.33007812,-2.0141602,4.5166016,5.065918,0.0,0.0,0.0,19.209595,71.75171,7.1740723
1769246367251,-0.9746094,0.099121094,0.2211914,-8.7890625,-0.7324219,6.7749023,0.0,0.0,0.0,19.209595,71.75171,7.1740723
1769246367262,-0.9746094,0.099121094,0.2211914,-8.7890625,-0.7324219,6.7749023,0.0,0.0,0.0,19.852295,71.09802,8.99231
1769246367350,-0.99560547,0.05908203,0.21582031,12.145996,14.892578,-7.507324,0.0,0.0,0.0,19.852295,71.09802,8.99231
1769246367362,-0.99560547,0.05908203,0.21582031,12.145996,14.892578,-7.507324,0.0,0.0,0.0,20.3302,72.68005,8.1188965
1769246367450,-1.003418,0.037597656,0.25097656,-2.746582,3.0517578,-4.4555664,0.0,0.0,0.0,20.3302,72.68005,8.1188965
1769246367462,-1.003418,0.037597656,0.25097656,-2.746582,3.0517578,-4.4555664,0.0,0.0,0.0,19.209595,73.40515,6.4709473
1769246367550,-1.0634766,0.096191406,0.32714844,0.36621094,2.8686523,-6.5307617,0.0,0.0,0.0,19.209595,73.40515,6.4709473
1769246367561,-1.0634766,0.096191406,0.32714844,0.36621094,2.8686523,-6.5307617,0.0,0.0,0.0,16.957397,74.333496,3.7243652
1769246367649,-0.95214844,0.063964844,0.3173828,-18.493652,-11.535645,6.958008,0.0,0.0,0.0,16.957397,74.333496,3.7243652
1769246367661,-0.95214844,0.063964844,0.3173828,-18.493652,-11.535645,6.958008,0.0,0.0,0.0,15.803833,73.795166,3.7408447
1769246367749,-1.0146484,0.057617188,0.13476562,-0.6713867,0.48828125,-2.4414062,0.0,0.0,0.0,15.803833,73.795166,3.7408447
1769246367761,-1.0146484,0.057617188,0.13476562,-0.6713867,0.48828125,-2.4414062,0.0,0.0,0.0,15.743408,73.14148,4.784546
1769246367849,-0.99072266,0.088378906,0.3383789,-16.357422,10.7421875,7.3242188,0.0,0.0,0.0,15.743408,73.14148,4.784546
1769246367860,-0.99072266,0.088378906,0.3383789,-16.357422,10.7421875,7.3242188,0.0,0.0,0.0,16.292725,74.32251,5.2734375
1769246367949,-0.92285156,0.07421875,0.25927734,-11.71875,-3.3569336,7.8125,0.0,0.0,0.0,16.292725,74.32251,5.2734375
1769246367960,-0.92285156,0.07421875,0.25927734,-11.71875,-3.3569336,7.8125,0.0,0.0,0.0,17.22107,73.69629,8.074951
1769246368048,-0.8774414,0.15478516,0.35595703,10.131836,-5.1879883,-1.2207031,0.0,0.0,0.0,17.22107,73.69629,8.074951
1769246368060,-0.8774414,0.15478516,0.35595703,10.131836,-5.1879883,-1.2207031,0.0,0.0,0.0,17.60559,73.32825,8.184814
1769246368148,-0.96972656,0.08251953,0.42919922,5.493164,6.0424805,-15.808105,0.0,0.0,0.0,17.60559,73.32825,8.184814
1769246368160,-0.96972656,0.08251953,0.42919922,5.493164,6.0424805,-15.808105,0.0,0.0,0.0,15.540161,73.361206,6.196289
1769246368248,-0.8979492,0.07861328,0.24951172,4.9438477,-31.311035,1.0375977,0.0,0.0,0.0,15.540161,73.361206,6.196289
1769246368260,-0.8979492,0.07861328,0.24951172,4.9438477,-31.311035,1.0375977,0.0,0.0,0.0,12.788086,71.867065,1.9445801
1769246368347,-0.9316406,0.09765625,0.2607422,0.0,-5.79834,0.8544922,0.0,0.0,0.0,12.788086,71.867065,1.9445801
1769246368359,-0.9316406,0.09765625,0.2607422,0.0,-5.79834,0.8544922,0.0,0.0,0.0,12.425537,70.08179,2.9003906
1769246368447,-0.9951172,0.04345703,0.29882812,-9.399414,5.126953,1.4648438,0.0,0.0,0.0,12.425537,70.08179,2.9003906
1769246368459,-0.9951172,0.04345703,0.29882812,-9.399414,5.126953,1.4648438,0.0,0.0,0.0,12.9748535,70.52673,3.383789
1769246368547,-0.96777344,0.08935547,0.15429688,-7.507324,12.329102,2.6855469,0.0,0.0,0.0,12.9748535,70.52673,3.383789
1769246368559,-0.96777344,0.08935547,0.15429688,-7.507324,12.329102,2.6855469,0.0,0.0,0.0,12.507935,71.61987,3.147583
1769246368647,-0.98046875,0.08251953,0.24560547,0.7324219,16.662598,-2.0141602,0.0,0.0,0.0,12.507935,71.61987,3.147583
1769246368658,-0.98046875,0.08251953,0.24560547,0.7324219,16.662598,-2.0141602,0.0,0.0,0.0,14.067993,72.855835,4.8449707
1769246368746,-0.93603516,0.10595703,0.28710938,2.380371,-4.0893555,7.6293945,0.0,0.0,0.0,14.067993,72.855835,4.8449707
1769246368758,-0.93603516,0.10595703,0.28710938,2.380371,-4.0893555,7.6293945,0.0,0.0,0.0,15.380859,74.349976,5.9161377
1769246368846,-1.0112305,0.03857422,0.24658203,8.300781,17.27295,-4.699707,0.0,0.0,0.0,15.380859,74.349976,5.9161377
1769246368858,-1.0112305,0.03857422,0.24658203,8.300781,17.27295,-4.699707,0.0,0.0,0.0,16.259766,74.41589,6.932373
1769246368946,-0.98535156,0.06298828,0.24511719,-5.3710938,-5.493164,4.272461,0.0,0.0,0.0,16.259766,74.41589,6.932373
1769246368957,-0.98535156,0.06298828,0.24511719,-5.3710938,-5.493164,4.272461,0.0,0.0,0.0,17.265015,74.712524,7.8497314
1769246369045,-0.9243164,0.06201172,0.35253906,6.7749023,-0.30517578,-3.7841797,0.0,0.0,0.0,17.265015,74.712524,7.8497314
1769246369057,-0.9243164,0.06201172,0.35253906,6.7749023,-0.30517578,-3.7841797,0.0,0.0,0.0,17.380371,75.025635,7.695923
1769246369145,-0.8564453,0.041992188,0.3540039,-13.85498,-11.779785,10.009766,0.0,0.0,0.0,17.380371,75.025635,7.695923
1769246369157,-0.8564453,0.041992188,0.3540039,-13.85498,-11.779785,10.009766,0.0,0.0,0.0,17.18811,73.72925,8.283691
1769246369245,-0.97265625,0.08642578,0.31933594,6.8969727,-16.235352,4.5776367,0.0,0.0,0.0,17.18811,73.72925,8.283691
1769246369256,-0.97265625,0.08642578,0.31933594,6.8969727,-16.235352,4.5776367,0.0,0.0,0.0,17.715454,72.1637,9.904175
1769246369345,-0.9584961,0.016113281,0.26757812,22.705078,-3.8452148,-11.59668,0.0,0.0,0.0,17.715454,72.1637,9.904175
1769246369356,-0.9584961,0.016113281,0.26757812,22.705078,-3.8452148,-11.59668,0.0,0.0,0.0,16.97937,71.30127,7.739868
1769246369444,-0.9404297,0.052734375,0.41064453,-3.2958984,-7.8125,2.8076172,0.0,0.0,0.0,16.97937,71.30127,7.739868
1769246369456,-0.9404297,0.052734375,0.41064453,-3.2958984,-7.8125,2.8076172,0.0,0.0,0.0,15.501709,71.36719,5.0811768
1769246369544,-0.9873047,0.10986328,0.12792969,3.540039,1.3427734,0.0,0.0,0.0,0.0,15.501709,71.36719,5.0811768
1769246369555,-0.9873047,0.10986328,0.12792969,3.540039,1.3427734,0.0,0.0,0.0,0.0,15.128174,70.026855,4.883423
1769246369644,-0.95703125,0.07080078,0.34228516,10.559082,8.361816,-6.3476562,0.0,0.0,0.0,15.128174,70.026855,4.883423
1769246369655,-0.95703125,0.07080078,0.34228516,10.559082,8.361816,-6.3476562,0.0,0.0,0.0,15.353394,71.433105,2.9663086
1769246369743,-0.9951172,0.03564453,0.2475586,-12.390137,4.760742,3.3569336,0.0,0.0,0.0,15.353394,71.433105,2.9663086
1769246369755,-0.9951172,0.03564453,0.2475586,-12.390137,4.760742,3.3569336,0.0,0.0,0.0,15.825806,71.7572,3.8122559
1769246369843,-1.0239258,0.057617188,0.25732422,1.953125,8.422852,-4.760742,0.0,0.0,0.0,15.825806,71.7572,3.8122559
1769246369855,-1.0239258,0.057617188,0.25732422,1.953125,8.422852,-4.760742,0.0,0.0,0.0,15.276489,72.784424,3.213501
1769246369943,-0.93359375,0.091796875,0.3256836,-7.2631836,-3.2348633,4.211426,0.0,0.0,0.0,15.276489,72.784424,3.213501
1769246369954,-0.93359375,0.091796875,0.3256836,-7.2631836,-3.2348633,4.211426,0.0,0.0,0.0,15.325928,73.24585,3.2299805
1769246370043,-0.95458984,0.06298828,0.2680664,-13.122559,-14.709473,12.023926,0.0,0.0,0.0,15.325928,73.24585,3.2299805
1769246370054,-0.95458984,0.06298828,0.2680664,-13.122559,-14.709473,12.023926,0.0,0.0,0.0,16.177368,72.07031,5.9161377
1769246370142,-1.012207,0.07763672,0.26904297,7.3242188,-3.112793,1.4038086,0.0,0.0,0.0,16.177368,72.07031,5.9161377
1769246370154,-1.012207,0.07763672,0.26904297,7.3242188,-3.112793,1.4038086,0.0,0.0,0.0,16.935425,70.878296,6.8774414
1769246370242,-0.89990234,0.064453125,0.34814453,-12.084961,-2.9907227,7.9345703,0.0,0.0,0.0,16.935425,70.878296,6.8774414
1769246370254,-0.89990234,0.064453125,0.34814453,-12.084961,-2.9907227,7.9345703,0.0,0.0,0.0,17.731934,70.60364,7.7948
1769246370342,-0.87353516,0.1328125,0.34765625,1.4648438,6.591797,-2.6855469,0.0,0.0,0.0,17.731934,70.60364,7.7948
1769246370353,-0.87353516,0.1328125,0.34765625,1.4648438,6.591797,-2.6855469,0.0,0.0,0.0,17.819824,70.49927,8.377075
1769246370442,-0.95166016,0.13427734,0.4326172,9.338379,14.6484375,-16.845703,0.0,0.0,0.0,17.819824,70.49927,8.377075
1769246370453,-0.95166016,0.13427734,0.4326172,9.338379,14.6484375,-16.845703,0.0,0.0,0.0,16.6333,71.59241,6.899414
1769246370541,-0.89941406,0.0546875,0.4194336,8.483887,-15.808105,-4.272461,0.0,0.0,0.0,16.6333,71.59241,6.899414
1769246370553,-0.89941406,0.0546875,0.4194336,8.483887,-15.808105,-4.272461,0.0,0.0,0.0,14.265747,72.37244,3.9276123
1769246370641,-0.93115234,0.15136719,0.18554688,-21.30127,-28.381348,16.784668,0.0,0.0,0.0,14.265747,72.37244,3.9276123
1769246370653,-0.93115234,0.15136719,0.18554688,-21.30127,-28.381348,16.784668,0.0,0.0,0.0,13.62854,68.79639,4.6032715
1769246370740,-0.92626953,0.072753906,0.3071289,16.479492,16.235352,-14.160156,0.0,0.0,0.0,13.62854,68.79639,4.6032715
1769246370752,-0.92626953,0.072753906,0.3071289,16.479492,16.235352,-14.160156,0.0,0.0,0.0,13.804321,68.58765,4.7680664
1769246370840,-0.94873047,0.028808594,0.32617188,-7.5683594,-2.8686523,-0.30517578,0.0,0.0,0.0,13.804321,68.58765,4.7680664
1769246370852,-0.94873047,0.028808594,0.32617188,-7.5683594,-2.8686523,-0.30517578,0.0,0.0,0.0,13.222046,69.75769,3.5430908
1769246370940,-0.99853516,0.091308594,0.25097656,2.0751953,8.850098,-4.4555664,0.0,0.0,0.0,13.222046,69.75769,3.5430908
1769246370952,-0.99853516,0.091308594,0.25097656,2.0751953,8.850098,-4.4555664,0.0,0.0,0.0,12.579346,70.13672,3.1750488
1769246371040,-1.0820312,0.07910156,0.34814453,-15.380859,12.573242,3.7231445,0.0,0.0,0.0,12.579346,70.13672,3.1750488
1769246371051,-1.0820312,0.07910156,0.34814453,-15.380859,12.573242,3.7231445,0.0,0.0,0.0,12.628784,71.658325,3.4002686
1769246371139,-0.97265625,0.09423828,0.2734375,-5.065918,-5.79834,9.643555,0.0,0.0,0.0,12.628784,71.658325,3.4002686
1769246371151,-0.97265625,0.09423828,0.2734375,-5.065918,-5.79834,9.643555,0.0,0.0,0.0,14.39209,71.49353,6.3775635
1769246371239,-0.9477539,0.05908203,0.3178711,-16.662598,6.4697266,8.911133,0.0,0.0,0.0,14.39209,71.49353,6.3775635
1769246371250,-0.9477539,0.05908203,0.3178711,-16.662598,6.4697266,8.911133,0.0,0.0,0.0,15.188599,72.03186,8.55835
1769246371339,-0.9716797,0.063964844,0.33740234,-18.859863,0.30517578,3.9672852,0.0,0.0,0.0,15.188599,72.03186,8.55835
1769246371350,-0.9716797,0.063964844,0.33740234,-18.859863,0.30517578,3.9672852,0.0,0.0,0.0,15.836792,71.62537,11.815796
1769246371438,-0.8208008,0.046875,0.37841797,-6.5307617,-4.4555664,-1.7089844,0.0,0.0,0.0,15.836792,71.62537,11.815796
1769246371450,-0.8208008,0.046875,0.37841797,-6.5307617,-4.4555664,-1.7089844,0.0,0.0,0.0,14.776611,71.77368,11.02478
1769246371538,-0.94921875,0.104003906,0.42236328,-10.803223,-3.6010742,7.019043,0.0,0.0,0.0,14.776611,71.77368,11.02478
1769246371550,-0.94921875,0.104003906,0.42236328,-10.803223,-3.6010742,7.019043,0.0,0.0,0.0,13.716431,71.09802,12.095947
1769246371638,-0.9086914,0.14697266,0.28466797,-9.277344,-19.53125,11.962891,0.0,0.0,0.0,13.716431,71.09802,12.095947
1769246371649,-0.9086914,0.14697266,0.28466797,-9.277344,-19.53125,11.962891,0.0,0.0,0.0,15.671997,68.8678,13.612061
1769246371738,-0.9008789,-0.0063476562,0.37158203,-1.2207031,1.5869141,8.483887,0.0,0.0,0.0,15.671997,68.8678,13.612061
1769246371749,-0.9008789,-0.0063476562,0.37158203,-1.2207031,1.5869141,8.483887,0.0,0.0,0.0,17.303467,68.12622,15.512695
1769246371837,-0.9741211,0.16845703,0.29833984,-1.4038086,-0.36621094,5.065918,0.0,0.0,0.0,17.303467,68.12622,15.512695
1769246371849,-0.9741211,0.16845703,0.29833984,-1.4038086,-0.36621094,5.065918,0.0,0.0,0.0,18.391113,67.67029,16.765137
1769246371937,-0.9550781,0.013671875,0.2602539,25.57373,17.63916,-13.85498,0.0,0.0,0.0,18.391113,67.67029,16.765137
1769246371948,-0.9550781,0.013671875,0.2602539,25.57373,17.63916,-13.85498,0.0,0.0,0.0,19.143677,69.32373,16.177368
1769246372037,-0.9477539,0.087402344,0.29345703,-7.446289,0.18310547,0.4272461,0.0,0.0,0.0,19.143677,69.32373,16.177368
1769246372049,-0.9477539,0.087402344,0.29345703,-7.446289,0.18310547,0.4272461,0.0,0.0,0.0,19.171143,70.58716,15.05127
1769246372136,-0.94970703,0.15478516,0.23730469,0.9765625,14.709473,2.1362305,0.0,0.0,0.0,19.171143,70.58716,15.05127
1769246372148,-0.94970703,0.15478516,0.23730469,0.9765625,14.709473,2.1362305,0.0,0.0,0.0,19.907227,71.40564,15.891724
1769246372236,-0.89697266,0.0703125,0.3125,-13.000488,-0.48828125,13.244629,0.0,0.0,0.0,19.907227,71.40564,15.891724
1769246372248,-0.89697266,0.0703125,0.3125,-13.000488,-0.48828125,13.244629,0.0,0.0,0.0,22.088013,71.93298,17.962646
1769246372336,-0.9614258,0.11230469,0.28857422,-21.54541,-8.117676,12.145996,0.0,0.0,0.0,22.088013,71.93298,17.962646
1769246372347,-0.9614258,0.11230469,0.28857422,-21.54541,-8.117676,12.145996,0.0,0.0,0.0,22.373657,70.85083,21.40686
1769246372436,-0.9736328,0.049316406,0.28857422,5.065918,-2.4414062,-12.329102,0.0,0.0,0.0,22.373657,70.85083,21.40686
1769246372447,-0.9736328,0.049316406,0.28857422,5.065918,-2.4414062,-12.329102,0.0,0.0,0.0,20.874023,70.372925,20.269775
1769246372535,-0.84716797,0.17236328,0.38476562,7.8125,4.272461,-17.578125,0.0,0.0,0.0,20.874023,70.372925,20.269775
1769246372547,-0.84716797,0.17236328,0.38476562,7.8125,4.272461,-17.578125,0.0,0.0,0.0,17.715454,71.449585,15.232544
1769246372635,-0.89941406,0.13964844,0.41357422,8.7890625,1.7089844,-12.268066,0.0,0.0,0.0,17.715454,71.449585,15.232544
1769246372647,-0.89941406,0.13964844,0.41357422,8.7890625,1.7089844,-12.268066,0.0,0.0,0.0,14.831543,71.48804,11.480713
1769246372735,-0.90625,0.083496094,0.41845703,17.211914,-23.07129,-1.2207031,0.0,0.0,0.0,14.831543,71.48804,11.480713
1769246372747,-0.90625,0.083496094,0.41845703,17.211914,-23.07129,-1.2207031,0.0,0.0,0.0,13.892212,70.944214,9.360352
1769246372834,-0.93115234,0.033203125,0.22216797,-16.967773,-22.033691,9.338379,0.0,0.0,0.0,13.892212,70.944214,9.360352
1769246372846,-0.93115234,0.033203125,0.22216797,-16.967773,-22.033691,9.338379,0.0,0.0,0.0,13.694458,67.24182,10.129395
1769246372934,-0.9291992,0.12158203,0.37597656,-7.2631836,4.272461,-3.7841797,0.0,0.0,0.0,13.694458,67.24182,10.129395
1769246372946,-0.9291992,0.12158203,0.37597656,-7.2631836,4.272461,-3.7841797,0.0,0.0,0.0,12.436523,67.48352,9.1571045
1769246373034,-0.9785156,0.07910156,0.26220703,-10.803223,-4.8828125,3.8452148,0.0,0.0,0.0,12.436523,67.48352,9.1571045
1769246373046,-0.9785156,0.07910156,0.26220703,-10.803223,-4.8828125,3.8452148,0.0,0.0,0.0,11.964111,67.20337,9.838257
1769246373134,-0.93603516,0.111328125,0.32666016,-9.216309,5.7373047,1.2207031,0.0,0.0,0.0,11.964111,67.20337,9.838257
1769246373145,-0.93603516,0.111328125,0.32666016,-9.216309,5.7373047,1.2207031,0.0,0.0,0.0,12.293701,67.69226,10.085449
1769246373233,-1.0415039,0.11328125,0.4165039,-28.381348,3.7841797,10.559082,0.0,0.0,0.0,12.293701,67.69226,10.085449
1769246373245,-1.0415039,0.11328125,0.4165039,-28.381348,3.7841797,10.559082,0.0,0.0,0.0,12.579346,68.25806,12.172852
1769246373333,-1.0126953,0.13916016,0.35839844,-3.112793,-6.8359375,0.61035156,0.0,0.0,0.0,12.579346,68.25806,12.172852
1769246373345,-1.0126953,0.13916016,0.35839844,-3.112793,-6.8359375,0.61035156,0.0,0.0,0.0,12.963867,67.41211,13.62854
1769246373433,-0.9790039,0.10546875,0.34521484,-12.6953125,-9.094238,8.605957,0.0,0.0,0.0,12.963867,67.41211,13.62854
1769246373445,-0.9790039,0.10546875,0.34521484,-12.6953125,-9.094238,8.605957,0.0,0.0,0.0,13.07373,67.41211,14.793091
1769246373532,-0.8979492,0.03515625,0.38867188,3.4179688,17.63916,-5.6152344,0.0,0.0,0.0,13.07373,67.41211,14.793091
1769246373544,-0.8979492,0.03515625,0.38867188,3.4179688,17.63916,-5.6152344,0.0,0.0,0.0,13.579102,67.890015,16.122437
1769246373632,-0.8613281,0.0107421875,0.47558594,-5.7373047,19.836426,-11.413574,0.0,0.0,0.0,13.579102,67.890015,16.122437
1769246373644,-0.8613281,0.0107421875,0.47558594,-5.7373047,19.836426,-11.413574,0.0,0.0,0.0,11.843262,69.96094,13.683472
1769246373732,-0.95751953,0.13671875,0.46679688,18.981934,-17.63916,-0.8544922,0.0,0.0,0.0,11.843262,69.96094,13.683472
1769246373743,-0.95751953,0.13671875,0.46679688,18.981934,-17.63916,-0.8544922,0.0,0.0,0.0,10.360107,70.059814,12.507935
1769246373832,-0.89941406,-9.765625E-4,0.3071289,0.48828125,-19.470215,6.0424805,0.0,0.0,0.0,10.360107,70.059814,12.507935
1769246373843,-0.89941406,-9.765625E-4,0.3071289,0.48828125,-19.470215,6.0424805,0.0,0.0,0.0,11.195068,67.32971,12.815552
1769246373931,-0.9291992,0.049804688,0.390625,13.85498,2.8686523,-1.8920898,0.0,0.0,0.0,11.195068,67.32971,12.815552
1769246373943,-0.9291992,0.049804688,0.390625,13.85498,2.8686523,-1.8920898,0.0,0.0,0.0,12.282715,66.91223,12.815552
1769246374031,-0.96972656,0.06982422,0.30615234,24.963379,10.070801,-10.314941,0.0,0.0,0.0,12.282715,66.91223,12.815552
1769246374043,-0.96972656,0.06982422,0.30615234,24.963379,10.070801,-10.314941,0.0,0.0,0.0,12.617798,67.527466,11.156616
1769246374131,-0.91308594,0.012207031,0.33154297,18.005371,7.446289,-10.620117,0.0,0.0,0.0,12.617798,67.527466,11.156616
1769246374142,-0.91308594,0.012207031,0.33154297,18.005371,7.446289,-10.620117,0.0,0.0,0.0,12.321167,68.69202,7.9101562
1769246374230,-0.9404297,0.075683594,0.3095703,12.207031,6.7749023,-6.4697266,0.0,0.0,0.0,12.321167,68.69202,7.9101562
1769246374243,-0.9404297,0.075683594,0.3095703,12.207031,6.7749023,-6.4697266,0.0,0.0,0.0,11.348877,69.37317,5.72937
1769246374330,-0.9682617,0.047851562,0.25976562,10.864258,7.1411133,1.6479492,0.0,0.0,0.0,11.348877,69.37317,5.72937
1769246374342,-0.9682617,0.047851562,0.25976562,10.864258,7.1411133,1.6479492,0.0,0.0,0.0,11.958618,70.40588,4.987793
1769246374430,-0.92626953,0.08154297,0.33203125,-13.122559,-2.380371,20.874023,0.0,0.0,0.0,11.958618,70.40588,4.987793
1769246374441,-0.92626953,0.08154297,0.33203125,-13.122559,-2.380371,20.874023,0.0,0.0,0.0,15.144653,70.927734,8.12439
1769246374530,-1.0131836,0.080078125,0.2631836,-20.019531,0.8544922,18.005371,0.0,0.0,0.0,15.144653,70.927734,8.12439
1769246374541,-1.0131836,0.080078125,0.2631836,-20.019531,0.8544922,18.005371,0.0,0.0,0.0,17.86377,70.14221,13.287964
1769246374629,-0.9628906,0.064453125,0.36816406,-1.8920898,4.211426,-7.8125,0.0,0.0,0.0,17.86377,70.14221,13.287964
1769246374641,-0.9628906,0.064453125,0.36816406,-1.8920898,4.211426,-7.8125,0.0,0.0,0.0,17.825317,70.01587,14.562378
1769246374730,-0.83740234,0.14355469,0.3959961,14.160156,4.333496,-17.028809,0.0,0.0,0.0,17.825317,70.01587,14.562378
1769246374741,-0.83740234,0.14355469,0.3959961,14.160156,4.333496,-17.028809,0.0,0.0,0.0,15.221558,70.97717,11.030273
1769246374829,-0.90478516,0.122558594,0.4453125,-0.24414062,4.9438477,-10.253906,0.0,0.0,0.0,15.221558,70.97717,11.030273
1769246374840,-0.90478516,0.122558594,0.4453125,-0.24414062,4.9438477,-10.253906,0.0,0.0,0.0,12.821045,71.345215,8.129883
1769246374928,-0.8798828,0.055664062,0.36621094,19.77539,-25.57373,-4.0893555,0.0,0.0,0.0,12.821045,71.345215,8.129883
1769246374940,-0.8798828,0.055664062,0.36621094,19.77539,-25.57373,-4.0893555,0.0,0.0,0.0,11.151123,70.62561,6.201782
1769246375028,-0.9042969,0.067871094,0.21826172,-5.3100586,-9.643555,3.7841797,0.0,0.0,0.0,11.151123,70.62561,6.201782
1769246375040,-0.9042969,0.067871094,0.21826172,-5.3100586,-9.643555,3.7841797,0.0,0.0,0.0,11.013794,68.31848,5.9765625
1769246375128,-0.9238281,0.11425781,0.38330078,6.225586,3.7231445,-2.5634766,0.0,0.0,0.0,11.013794,68.31848,5.9765625
1769246375139,-0.9238281,0.11425781,0.38330078,6.225586,3.7231445,-2.5634766,0.0,0.0,0.0,11.030273,68.71948,5.361328
1769246375227,-0.9584961,0.02734375,0.20507812,6.1035156,0.48828125,-0.5493164,0.0,0.0,0.0,11.030273,68.71948,5.361328
1769246375239,-0.9584961,0.02734375,0.20507812,6.1035156,0.48828125,-0.5493164,0.0,0.0,0.0,11.403809,68.71399,5.531616
1769246375327,-0.9140625,0.07910156,0.2939453,-5.126953,2.1362305,-0.18310547,0.0,0.0,0.0,11.403809,68.71399,5.531616
1769246375339,-0.9140625,0.07910156,0.2939453,-5.126953,2.1362305,-0.18310547,0.0,0.0,0.0,11.299438,69.208374,5.0372314
1769246375427,-1.0283203,0.1171875,0.3774414,-5.2490234,-2.9907227,-0.61035156,0.0,0.0,0.0,11.299438,69.208374,5.0372314
1769246375438,-1.0283203,0.1171875,0.3774414,-5.2490234,-2.9907227,-0.61035156,0.0,0.0,0.0,10.447998,69.38965,4.482422
1769246375527,-1.1044922,0.09033203,0.39794922,-4.333496,-9.155273,0.8544922,0.0,0.0,0.0,10.447998,69.38965,4.482422
1769246375538,-1.1044922,0.09033203,0.39794922,-4.333496,-9.155273,0.8544922,0.0,0.0,0.0,9.816284,68.1427,4.350586
1769246375626,-0.99902344,0.071777344,0.3725586,-0.36621094,-10.131836,-0.48828125,0.0,0.0,0.0,9.816284,68.1427,4.350586
1769246375639,-0.99902344,0.071777344,0.3725586,-0.36621094,-10.131836,-0.48828125,0.0,0.0,0.0,9.261475,67.769165,3.8012695
1769246375726,-0.89208984,-0.010253906,0.40722656,-1.953125,1.159668,-5.126953,0.0,0.0,0.0,9.261475,67.769165,3.8012695
1769246375737,-0.89208984,-0.010253906,0.40722656,-1.953125,1.159668,-5.126953,0.0,0.0,0.0,8.442993,67.5,3.7902832
1769246375826,-0.84521484,0.0107421875,0.45117188,2.8076172,10.925293,-14.038086,0.0,0.0,0.0,8.442993,67.5,3.7902832
1769246375837,-0.84521484,0.0107421875,0.45117188,2.8076172,10.925293,-14.038086,0.0,0.0,0.0,5.8117676,68.32947,0.89538574
1769246375926,-0.9448242,0.05810547,0.4736328,2.0751953,-3.2958984,0.0,0.0,0.0,0.0,5.8117676,68.32947,0.89538574
1769246375937,-0.9448242,0.05810547,0.4736328,2.0751953,-3.2958984,0.0,0.0,0.0,0.0,4.048462,68.499756,-0.22521973
1769246376025,-0.890625,0.060058594,0.28027344,7.6293945,-4.5776367,3.1738281,0.0,0.0,0.0,4.048462,68.499756,-0.22521973
1769246376037,-0.890625,0.060058594,0.28027344,7.6293945,-4.5776367,3.1738281,0.0,0.0,0.0,5.6799316,67.39014,0.9338379
1769246376125,-0.8935547,-0.061523438,0.40185547,13.549805,24.963379,-5.3100586,0.0,0.0,0.0,5.6799316,67.39014,0.9338379
1769246376136,-0.8935547,-0.061523438,0.40185547,13.549805,24.963379,-5.3100586,0.0,0.0,0.0,6.295166,68.97766,0.3955078
1769246376225,-0.9404297,0.078125,0.2783203,1.3427734,5.065918,5.3710938,0.0,0.0,0.0,6.295166,68.97766,0.3955078
1769246376236,-0.9404297,0.078125,0.2783203,1.3427734,5.065918,5.3710938,0.0,0.0,0.0,7.1191406,69.88953,0.7141113
1769246376324,-0.9736328,-0.0073242188,0.27734375,28.015137,26.184082,-7.385254,0.0,0.0,0.0,7.1191406,69.88953,0.7141113
1769246376336,-0.9736328,-0.0073242188,0.27734375,28.015137,26.184082,-7.385254,0.0,0.0,0.0,9.5251465,71.87805,1.5325928
1769246376424,-0.99560547,-0.036621094,0.30273438,-5.126953,1.4038086,4.8217773,0.0,0.0,0.0,9.5251465,71.87805,1.5325928
1769246376435,-0.99560547,-0.036621094,0.30273438,-5.126953,1.4038086,4.8217773,0.0,0.0,0.0,10.799561,73.30078,1.3568115
1769246376524,-1.0361328,-0.011230469,0.1977539,-0.48828125,1.0986328,-4.0893555,0.0,0.0,0.0,10.799561,73.30078,1.3568115
1769246376535,-1.0361328,-0.011230469,0.1977539,-0.48828125,1.0986328,-4.0893555,0.0,0.0,0.0,9.854736,73.377686,0.9942627
1769246376624,-0.98583984,0.09472656,0.25195312,-11.901855,-2.6855469,7.6904297,0.0,0.0,0.0,9.854736,73.377686,0.9942627
1769246376635,-0.98583984,0.09472656,0.25195312,-11.901855,-2.6855469,7.6904297,0.0,0.0,0.0,8.904419,73.43811,0.35705566
1769246376723,-0.9082031,0.119628906,0.29492188,-7.6293945,-8.666992,11.84082,0.0,0.0,0.0,8.904419,73.43811,0.35705566
1769246376735,-0.9082031,0.119628906,0.29492188,-7.6293945,-8.666992,11.84082,0.0,0.0,0.0,11.030273,72.751465,3.24646
1769246376823,-0.97509766,0.017578125,0.2626953,-13.916016,-13.366699,14.770508,0.0,0.0,0.0,11.030273,72.751465,3.24646
1769246376834,-0.97509766,0.017578125,0.2626953,-13.916016,-13.366699,14.770508,0.0,0.0,0.0,14.155884,71.42761,8.294678
1769246376923,-0.91064453,0.13183594,0.40185547,-8.300781,-7.8125,10.803223,0.0,0.0,0.0,14.155884,71.42761,8.294678
1769246376934,-0.91064453,0.13183594,0.40185547,-8.300781,-7.8125,10.803223,0.0,0.0,0.0,15.979614,70.3125,11.002808
1769246377022,-0.90478516,0.119628906,0.41357422,4.272461,4.5166016,-1.5869141,0.0,0.0,0.0,15.979614,70.3125,11.002808
1769246377034,-0.90478516,0.119628906,0.41357422,4.272461,4.5166016,-1.5869141,0.0,0.0,0.0,16.831055,69.99939,12.150879
1769246377122,-0.93359375,0.04248047,0.42285156,4.0893555,7.6904297,-11.291504,0.0,0.0,0.0,16.831055,69.99939,12.150879
1769246377134,-0.93359375,0.04248047,0.42285156,4.0893555,7.6904297,-11.291504,0.0,0.0,0.0,16.21582,70.510254,11.749878
1769246377222,-0.90527344,0.09814453,0.32177734,7.2631836,1.2207031,-6.0424805,0.0,0.0,0.0,16.21582,70.510254,11.749878
1769246377233,-0.90527344,0.09814453,0.32177734,7.2631836,1.2207031,-6.0424805,0.0,0.0,0.0,14.72168,71.04309,9.53064
1769246377322,-0.91503906,0.114746094,0.28320312,6.8359375,8.178711,-1.6479492,0.0,0.0,0.0,14.72168,71.04309,9.53064
1769246377333,-0.91503906,0.114746094,0.28320312,6.8359375,8.178711,-1.6479492,0.0,0.0,0.0,14.771118,71.33423,9.179077
1769246377421,-0.93310547,0.03564453,0.34277344,1.5869141,4.638672,-5.126953,0.0,0.0,0.0,14.771118,71.33423,9.179077
1769246377433,-0.93310547,0.03564453,0.34277344,1.5869141,4.638672,-5.126953,0.0,0.0,0.0,14.771118,72.19116,8.860474
1769246377521,-0.9765625,0.0390625,0.14257812,-9.70459,0.0,-0.79345703,0.0,0.0,0.0,14.771118,72.19116,8.860474
1769246377533,-0.9765625,0.0390625,0.14257812,-9.70459,0.0,-0.79345703,0.0,0.0,0.0,13.64502,71.91101,8.497925
1769246377621,-0.9741211,0.13427734,0.24072266,-1.0375977,4.1503906,-5.065918,0.0,0.0,0.0,13.64502,71.91101,8.497925
1769246377632,-0.9741211,0.13427734,0.24072266,-1.0375977,4.1503906,-5.065918,0.0,0.0,0.0,11.887207,72.718506,6.668701
1769246377720,-1.0170898,0.056152344,0.20947266,0.8544922,7.2021484,-5.432129,0.0,0.0,0.0,11.887207,72.718506,6.668701
1769246377732,-1.0170898,0.056152344,0.20947266,0.8544922,7.2021484,-5.432129,0.0,0.0,0.0,11.420288,73.361206,5.7128906
1769246377820,-0.93310547,0.119140625,0.27539062,-2.6245117,-15.991211,10.009766,0.0,0.0,0.0,11.420288,73.361206,5.7128906
1769246377832,-0.93310547,0.119140625,0.27539062,-2.6245117,-15.991211,10.009766,0.0,0.0,0.0,12.145386,73.11401,6.8389893
1769246377920,-0.99072266,0.033691406,0.2548828,3.2348633,3.90625,-1.159668,0.0,0.0,0.0,12.145386,73.11401,6.8389893
1769246377931,-0.99072266,0.033691406,0.2548828,3.2348633,3.90625,-1.159668,0.0,0.0,0.0,13.0078125,72.77893,7.970581
1769246378019,-1.012207,0.08691406,0.2758789,-17.51709,-6.225586,6.225586,0.0,0.0,0.0,13.0078125,72.77893,7.970581
1769246378031,-1.012207,0.08691406,0.2758789,-17.51709,-6.225586,6.225586,0.0,0.0,0.0,13.639526,72.4823,9.645996
1769246378119,-0.9213867,0.091308594,0.3671875,6.7749023,-6.958008,-2.4414062,0.0,0.0,0.0,13.639526,72.4823,9.645996
1769246378131,-0.9213867,0.091308594,0.3671875,6.7749023,-6.958008,-2.4414062,0.0,0.0,0.0,13.436279,72.37793,9.387817
1769246378219,-0.83935547,9.765625E-4,0.36572266,-10.620117,-10.070801,4.1503906,0.0,0.0,0.0,13.436279,72.37793,9.387817
1769246378231,-0.83935547,9.765625E-4,0.36572266,-10.620117,-10.070801,4.1503906,0.0,0.0,0.0,12.886963,71.09253,9.40979
1769246378319,-1.0117188,0.056640625,0.41308594,8.056641,-8.361816,0.0,0.0,0.0,0.0,12.886963,71.09253,9.40979
1769246378330,-1.0117188,0.056640625,0.41308594,8.056641,-8.361816,0.0,0.0,0.0,0.0,12.172852,70.15869,9.651489
1769246378418,-0.94677734,0.06298828,0.24267578,8.178711,-2.319336,-2.6245117,0.0,0.0,0.0,12.172852,70.15869,9.651489
1769246378430,-0.94677734,0.06298828,0.24267578,8.178711,-2.319336,-2.6245117,0.0,0.0,0.0,12.227783,69.246826,8.547363
1769246378518,-0.87890625,0.03564453,0.4038086,-0.4272461,6.7749023,-0.5493164,0.0,0.0,0.0,12.227783,69.246826,8.547363
1769246378530,-0.87890625,0.03564453,0.4038086,-0.4272461,6.7749023,-0.5493164,0.0,0.0,0.0,11.975098,69.8291,7.058716
1769246378618,-0.9511719,0.11230469,0.29101562,-2.0751953,-6.591797,7.5683594,0.0,0.0,0.0,11.975098,69.8291,7.058716
1769246378629,-0.9511719,0.11230469,0.29101562,-2.0751953,-6.591797,7.5683594,0.0,0.0,0.0,12.513428,69.246826,8.146362
1769246378717,-0.9379883,0.059570312,0.2705078,7.9956055,7.1411133,2.8686523,0.0,0.0,0.0,12.513428,69.246826,8.146362
1769246378729,-0.9379883,0.059570312,0.2705078,7.9956055,7.1411133,2.8686523,0.0,0.0,0.0,14.128418,69.25232,9.277954
1769246378817,-0.9453125,0.04248047,0.32226562,2.5634766,2.746582,5.859375,0.0,0.0,0.0,14.128418,69.25232,9.277954
1769246378829,-0.9453125,0.04248047,0.32226562,2.5634766,2.746582,5.859375,0.0,0.0,0.0,15.803833,69.730225,10.50293
1769246378917,-1.0170898,0.064453125,0.22607422,6.958008,5.493164,-0.91552734,0.0,0.0,0.0,15.803833,69.730225,10.50293
1769246378928,-1.0170898,0.064453125,0.22607422,6.958008,5.493164,-0.91552734,0.0,0.0,0.0,16.853027,70.131226,11.211548
1769246379017,-0.9663086,0.068847656,0.4086914,-15.991211,-0.4272461,4.638672,0.0,0.0,0.0,16.853027,70.131226,11.211548
1769246379028,-0.9663086,0.068847656,0.4086914,-15.991211,-0.4272461,4.638672,0.0,0.0,0.0,17.53418,70.72449,11.552124
1769246379116,-0.99560547,0.11425781,0.24902344,-8.911133,0.9765625,4.8217773,0.0,0.0,0.0,17.53418,70.72449,11.552124
1769246379128,-0.99560547,0.11425781,0.24902344,-8.911133,0.9765625,4.8217773,0.0,0.0,0.0,17.60559,70.356445,13.870239
1769246379216,-0.9091797,0.060546875,0.35742188,3.9672852,6.591797,-11.535645,0.0,0.0,0.0,17.60559,70.356445,13.870239
1769246379228,-0.9091797,0.060546875,0.35742188,3.9672852,6.591797,-11.535645,0.0,0.0,0.0,16.710205,70.67505,12.513428
1769246379316,-0.8569336,0.106933594,0.40625,14.6484375,2.1972656,-15.319824,0.0,0.0,0.0,16.710205,70.67505,12.513428
1769246379327,-0.8569336,0.106933594,0.40625,14.6484375,2.1972656,-15.319824,0.0,0.0,0.0,14.595337,71.48804,9.365845
1769246379415,-0.9140625,0.1586914,0.42871094,1.4038086,-4.699707,-8.972168,0.0,0.0,0.0,14.595337,71.48804,9.365845
1769246379427,-0.9140625,0.1586914,0.42871094,1.4038086,-4.699707,-8.972168,0.0,0.0,0.0,12.507935,70.93323,6.2402344
1769246379515,-0.890625,0.06933594,0.3383789,21.118164,-22.277832,-3.540039,0.0,0.0,0.0,12.507935,70.93323,6.2402344
1769246379527,-0.890625,0.06933594,0.3383789,21.118164,-22.277832,-3.540039,0.0,0.0,0.0,11.645508,69.56543,4.6087646
1769246379615,-0.9633789,0.051757812,0.25976562,5.6762695,-1.159668,-1.953125,0.0,0.0,0.0,11.645508,69.56543,4.6087646
1769246379626,-0.9633789,0.051757812,0.25976562,5.6762695,-1.159668,-1.953125,0.0,0.0,0.0,11.980591,68.67554,4.553833
1769246379715,-0.91845703,0.08105469,0.38134766,-12.817383,0.0,2.8686523,0.0,0.0,0.0,11.980591,68.67554,4.553833
1769246379726,-0.91845703,0.08105469,0.38134766,-12.817383,0.0,2.8686523,0.0,0.0,0.0,11.66748,69.12048,4.6032715
1769246379814,-0.9628906,0.06347656,0.1977539,-4.8828125,-4.760742,-0.061035156,0.0,0.0,0.0,11.66748,69.12048,4.6032715
1769246379826,-0.9628906,0.06347656,0.1977539,-4.8828125,-4.760742,-0.061035156,0.0,0.0,0.0,11.12915,68.49426,4.9658203
1769246379914,-0.9472656,0.12451172,0.3017578,-12.634277,4.3945312,6.591797,0.0,0.0,0.0,11.12915,68.49426,4.9658203
1769246379926,-0.9472656,0.12451172,0.3017578,-12.634277,4.3945312,6.591797,0.0,0.0,0.0,11.414795,68.87329,5.657959
1769246380014,-0.984375,0.08154297,0.3569336,-20.812988,-2.746582,6.225586,0.0,0.0,0.0,11.414795,68.87329,5.657959
1769246380026,-0.984375,0.08154297,0.3569336,-20.812988,-2.746582,6.225586,0.0,0.0,0.0,11.8927,69.246826,8.063965
1769246380113,-0.93310547,0.05419922,0.30615234,-14.465332,15.808105,-1.5869141,0.0,0.0,0.0,11.8927,69.246826,8.063965
1769246380125,-0.93310547,0.05419922,0.30615234,-14.465332,15.808105,-1.5869141,0.0,0.0,0.0,12.128906,69.33472,8.525391
1769246380213,-0.9042969,0.037597656,0.36865234,-15.930176,2.8686523,1.2207031,0.0,0.0,0.0,12.128906,69.33472,8.525391
1769246380225,-0.9042969,0.037597656,0.36865234,-15.930176,2.8686523,1.2207031,0.0,0.0,0.0,11.711426,69.74121,8.602295
1769246380313,-0.8432617,-0.001953125,0.4428711,5.6762695,10.864258,-14.343262,0.0,0.0,0.0,11.711426,69.74121,8.602295
1769246380324,-0.8432617,-0.001953125,0.4428711,5.6762695,10.864258,-14.343262,0.0,0.0,0.0,9.343872,70.64209,6.6522217
1769246380413,-0.95166016,0.13476562,0.42333984,10.864258,-13.061523,5.6152344,0.0,0.0,0.0,9.343872,70.64209,6.6522217
1769246380424,-0.95166016,0.13476562,0.42333984,10.864258,-13.061523,5.6152344,0.0,0.0,0.0,8.816528,70.33447,5.866699
1769246380512,-0.91845703,-0.030273438,0.29492188,10.864258,-1.8310547,-6.225586,0.0,0.0,0.0,8.816528,70.33447,5.866699
1769246380524,-0.91845703,-0.030273438,0.29492188,10.864258,-1.8310547,-6.225586,0.0,0.0,0.0,9.783325,69.01611,6.459961
1769246380612,-0.9057617,0.041015625,0.41064453,3.112793,3.6621094,-0.12207031,0.0,0.0,0.0,9.783325,69.01611,6.459961
1769246380623,-0.9057617,0.041015625,0.41064453,3.112793,3.6621094,-0.12207031,0.0,0.0,0.0,9.788818,69.7522,5.317383
1769246380712,-0.97753906,0.05126953,0.22509766,13.61084,8.239746,-4.211426,0.0,0.0,0.0,9.788818,69.7522,5.317383
1769246380723,-0.97753906,0.05126953,0.22509766,13.61084,8.239746,-4.211426,0.0,0.0,0.0,10.272217,69.59839,5.822754
1769246380811,-0.9291992,0.015625,0.3486328,21.42334,15.258789,-9.216309,0.0,0.0,0.0,10.272217,69.59839,5.822754
1769246380823,-0.9291992,0.015625,0.3486328,21.42334,15.258789,-9.216309,0.0,0.0,0.0,9.981079,71.658325,2.7301025
1769246380911,-0.9638672,0.02734375,0.25195312,-0.30517578,5.7373047,-1.7089844,0.0,0.0,0.0,9.981079,71.658325,2.7301025
1769246380923,-0.9638672,0.02734375,0.25195312,-0.30517578,5.7373047,-1.7089844,0.0,0.0,0.0,9.53064,72.20215,2.208252
1769246381011,-1.0249023,0.009765625,0.2265625,10.681152,12.634277,-8.361816,0.0,0.0,0.0,9.53064,72.20215,2.208252
1769246381022,-1.0249023,0.009765625,0.2265625,10.681152,12.634277,-8.361816,0.0,0.0,0.0,8.239746,73.57544,-0.07141113
1769246381110,-1.0087891,0.059570312,0.2631836,0.5493164,-2.380371,2.0751953,0.0,0.0,0.0,8.239746,73.57544,-0.07141113
1769246381122,-1.0087891,0.059570312,0.2631836,0.5493164,-2.380371,2.0751953,0.0,0.0,0.0,7.739868,73.90503,-1.0986328
1769246381210,-0.9370117,0.010253906,0.29785156,-4.211426,-12.145996,6.713867,0.0,0.0,0.0,7.739868,73.90503,-1.0986328
1769246381222,-0.9370117,0.010253906,0.29785156,-4.211426,-12.145996,6.713867,0.0,0.0,0.0,9.266968,73.14148,0.31311035
1769246381310,-0.9902344,0.076660156,0.23779297,-8.300781,-2.9907227,8.117676,0.0,0.0,0.0,9.266968,73.14148,0.31311035
1769246381321,-0.9902344,0.076660156,0.23779297,-8.300781,-2.9907227,8.117676,0.0,0.0,0.0,9.926147,72.46582,1.6699219
1769246381410,-0.90722656,0.06591797,0.3544922,-0.7324219,-0.91552734,2.9907227,0.0,0.0,0.0,9.926147,72.46582,1.6699219
1769246381421,-0.90722656,0.06591797,0.3544922,-0.7324219,-0.91552734,2.9907227,0.0,0.0,0.0,11.079712,72.25708,3.2025146
1769246381509,-0.90283203,0.052734375,0.34570312,-8.972168,-1.0375977,5.126953,0.0,0.0,0.0,11.079712,72.25708,3.2025146
1769246381521,-0.90283203,0.052734375,0.34570312,-8.972168,-1.0375977,5.126953,0.0,0.0,0.0,11.991577,71.922,4.9823
1769246381609,-0.9453125,0.1171875,0.4013672,4.8217773,3.7841797,-6.3476562,0.0,0.0,0.0,11.991577,71.922,4.9823
1769246381620,-0.9453125,0.1171875,0.4013672,4.8217773,3.7841797,-6.3476562,0.0,0.0,0.0,11.727905,71.850586,5.0701904
1769246381709,-0.92871094,0.009765625,0.3388672,12.084961,-2.319336,-7.6904297,0.0,0.0,0.0,11.727905,71.850586,5.0701904
1769246381720,-0.92871094,0.009765625,0.3388672,12.084961,-2.319336,-7.6904297,0.0,0.0,0.0,10.239258,72.15271,2.9553223
1769246381808,-0.9399414,0.107421875,0.24853516,-3.3569336,-3.6010742,2.1972656,0.0,0.0,0.0,10.239258,72.15271,2.9553223
1769246381820,-0.9399414,0.107421875,0.24853516,-3.3569336,-3.6010742,2.1972656,0.0,0.0,0.0,9.893188,71.56494,2.9553223
1769246381908,-0.94140625,0.0625,0.3100586,4.272461,2.8076172,-2.0751953,0.0,0.0,0.0,9.893188,71.56494,2.9553223
1769246381920,-0.94140625,0.0625,0.3100586,4.272461,2.8076172,-2.0751953,0.0,0.0,0.0,10.305176,71.91101,3.0981445
1769246382008,-0.9916992,0.020996094,0.16064453,-7.507324,0.18310547,1.0375977,0.0,0.0,0.0,10.305176,71.91101,3.0981445
1769246382020,-0.9916992,0.020996094,0.16064453,-7.507324,0.18310547,1.0375977,0.0,0.0,0.0,10.420532,71.674805,3.4606934
1769246382108,-0.9692383,0.09814453,0.24902344,-1.8920898,1.0986328,0.24414062,0.0,0.0,0.0,10.420532,71.674805,3.4606934
1769246382119,-0.9692383,0.09814453,0.24902344,-1.8920898,1.0986328,0.24414062,0.0,0.0,0.0,10.585327,72.11975,3.4387207
1769246382207,-1.0756836,0.08935547,0.28710938,-3.0517578,4.4555664,0.061035156,0.0,0.0,0.0,10.585327,72.11975,3.4387207
1769246382219,-1.0756836,0.08935547,0.28710938,-3.0517578,4.4555664,0.061035156,0.0,0.0,0.0,11.04126,72.87781,3.746338
1769246382307,-1.0566406,0.0703125,0.28271484,-2.6855469,-0.5493164,0.6713867,0.0,0.0,0.0,11.04126,72.87781,3.746338
1769246382318,-1.0566406,0.0703125,0.28271484,-2.6855469,-0.5493164,0.6713867,0.0,0.0,0.0,12.387085,72.33948,5.4766846
1769246382407,-0.95996094,0.07910156,0.29785156,-7.446289,-5.126953,5.6152344,0.0,0.0,0.0,12.387085,72.33948,5.4766846
1769246382418,-0.95996094,0.07910156,0.29785156,-7.446289,-5.126953,5.6152344,0.0,0.0,0.0,13.205566,72.76245,5.756836
1769246382506,-0.8925781,0.041992188,0.3227539,6.4086914,3.2958984,-1.8310547,0.0,0.0,0.0,13.205566,72.76245,5.756836
1769246382518,-0.8925781,0.041992188,0.3227539,6.4086914,3.2958984,-1.8310547,0.0,0.0,0.0,13.903198,72.22412,7.4487305
1769246382606,-0.8496094,0.03564453,0.36572266,-3.0517578,5.92041,-2.380371,0.0,0.0,0.0,13.903198,72.22412,7.4487305
1769246382618,-0.8496094,0.03564453,0.36572266,-3.0517578,5.92041,-2.380371,0.0,0.0,0.0,13.282471,72.724,6.3391113
1769246382706,-0.98095703,0.05810547,0.40625,0.61035156,-3.2348633,2.746582,0.0,0.0,0.0,13.282471,72.724,6.3391113
1769246382717,-0.98095703,0.05810547,0.40625,0.61035156,-3.2348633,2.746582,0.0,0.0,0.0,12.513428,72.927246,6.9763184
1769246382805,-0.9394531,0.055664062,0.17773438,5.7373047,-10.375977,2.8076172,0.0,0.0,0.0,12.513428,72.927246,6.9763184
1769246382817,-0.9394531,0.055664062,0.17773438,5.7373047,-10.375977,2.8076172,0.0,0.0,0.0,13.430786,71.257324,7.5421143
1769246382905,-0.9082031,0.025390625,0.37304688,11.84082,13.305664,-5.3710938,0.0,0.0,0.0,13.430786,71.257324,7.5421143
1769246382917,-0.9082031,0.025390625,0.37304688,11.84082,13.305664,-5.3710938,0.0,0.0,0.0,13.172607,71.97693,5.328369
1769246383005,-0.96875,0.0625,0.21728516,-4.5776367,-9.399414,6.286621,0.0,0.0,0.0,13.172607,71.97693,5.328369
1769246383016,-0.96875,0.0625,0.21728516,-4.5776367,-9.399414,6.286621,0.0,0.0,0.0,13.287964,71.51001,6.026001
1769246383105,-0.92822266,0.0625,0.2705078,12.329102,5.7373047,-5.79834,0.0,0.0,0.0,13.287964,71.51001,6.026001
1769246383116,-0.92822266,0.0625,0.2705078,12.329102,5.7373047,-5.79834,0.0,0.0,0.0,13.425293,71.79016,5.048218
1769246383204,-0.94921875,0.05029297,0.23486328,1.2207031,-0.91552734,4.8217773,0.0,0.0,0.0,13.425293,71.79016,5.048218
1769246383216,-0.94921875,0.05029297,0.23486328,1.2207031,-0.91552734,4.8217773,0.0,0.0,0.0,13.612061,71.954956,4.828491
1769246383305,-0.9916992,0.022949219,0.20898438,11.535645,2.319336,0.8544922,0.0,0.0,0.0,13.612061,71.954956,4.828491
1769246383316,-0.9916992,0.022949219,0.20898438,11.535645,2.319336,0.8544922,0.0,0.0,0.0,15.26001,72.229614,5.256958
1769246383404,-1.0200195,0.07714844,0.33447266,-5.126953,-5.432129,8.666992,0.0,0.0,0.0,15.26001,72.229614,5.256958
1769246383415,-1.0200195,0.07714844,0.33447266,-5.126953,-5.432129,8.666992,0.0,0.0,0.0,16.748657,72.323,6.0809326
1769246383503,-1.0380859,0.06933594,0.3125,-12.939453,3.3569336,4.1503906,0.0,0.0,0.0,16.748657,72.323,6.0809326
1769246383515,-1.0380859,0.06933594,0.3125,-12.939453,3.3569336,4.1503906,0.0,0.0,0.0,16.951904,72.09778,7.5091553
1769246383603,-0.9423828,0.08935547,0.34423828,-7.873535,-1.0375977,-2.8686523,0.0,0.0,0.0,16.951904,72.09778,7.5091553
1769246383615,-0.9423828,0.08935547,0.34423828,-7.873535,-1.0375977,-2.8686523,0.0,0.0,0.0,16.160889,72.22412,7.261963
1769246383703,-0.8486328,0.115234375,0.4111328,9.70459,2.2583008,-9.765625,0.0,0.0,0.0,16.160889,72.22412,7.261963
1769246383714,-0.8486328,0.115234375,0.4111328,9.70459,2.2583008,-9.765625,0.0,0.0,0.0,14.364624,72.614136,5.822754
1769246383803,-0.9433594,0.13232422,0.4165039,1.0986328,-0.12207031,-9.887695,0.0,0.0,0.0,14.364624,72.614136,5.822754
1769246383814,-0.9433594,0.13232422,0.4165039,1.0986328,-0.12207031,-9.887695,0.0,0.0,0.0,12.211304,72.23511,3.4661865
1769246383902,-0.9350586,0.045410156,0.20898438,13.85498,7.9345703,-11.169434,0.0,0.0,0.0,12.211304,72.23511,3.4661865
1769246383914,-0.9350586,0.045410156,0.20898438,13.85498,7.9345703,-11.169434,0.0,0.0,0.0,10.420532,72.37244,1.1096191
1769246384002,-0.9145508,0.111328125,0.3203125,-10.437012,2.380371,0.0,0.0,0.0,0.0,10.420532,72.37244,1.1096191
1769246384014,-0.9145508,0.111328125,0.3203125,-10.437012,2.380371,0.0,0.0,0.0,0.0,9.442749,72.65808,0.63171387
1769246384102,-0.95166016,0.044433594,0.25830078,4.8828125,-1.2207031,-4.0283203,0.0,0.0,0.0,9.442749,72.65808,0.63171387
