timestamp,accX,accY,accZ,gyroX,gyroY,gyroZ,magX,magY,magZ,roll,pitch,yaw
1770514105041,-0.91503906,0.21923828,0.019042969,0.24414062,-1.2207031,-1.0986328,3337.0,1172.0,365.0,82.65015,78.76648,97.212524
1770514105056,-0.91503906,0.21923828,0.019042969,0.24414062,-1.2207031,-1.0986328,3337.0,1172.0,365.0,89.78027,79.01367,105.06775
1770514105067,-0.91503906,0.21923828,0.019042969,0.24414062,-1.2207031,-1.0986328,0.0,0.0,0.0,89.78027,79.01367,105.06775
1770514105141,-0.8388672,0.22802734,-0.05126953,28.625488,-4.0893555,-0.8544922,3459.0,1120.0,583.0,89.78027,79.01367,105.06775
1770514105152,-0.8388672,0.22802734,-0.05126953,28.625488,-4.0893555,-0.8544922,3459.0,1120.0,583.0,91.42273,79.002686,105.05127
1770514105164,-0.8388672,0.22802734,-0.05126953,28.625488,-4.0893555,-0.8544922,0.0,0.0,0.0,91.42273,79.002686,105.05127
1770514105240,-0.9663086,0.15234375,-0.021972656,5.6152344,-4.5776367,-7.6293945,3352.0,1083.0,683.0,91.42273,79.002686,105.05127
1770514105256,-0.9663086,0.15234375,-0.021972656,5.6152344,-4.5776367,-7.6293945,3352.0,1083.0,683.0,93.54309,79.453125,105.85327
1770514105263,-0.9663086,0.15234375,-0.021972656,5.6152344,-4.5776367,-7.6293945,0.0,0.0,0.0,93.54309,79.453125,105.85327
1770514105340,-0.9121094,0.24658203,-0.053222656,-0.8544922,-8.239746,8.300781,3428.0,954.0,681.0,93.54309,79.453125,105.85327
1770514105352,-0.9121094,0.24658203,-0.053222656,-0.8544922,-8.239746,8.300781,3428.0,954.0,681.0,88.83545,79.211426,101.519165
1770514105364,-0.9121094,0.24658203,-0.053222656,-0.8544922,-8.239746,8.300781,0.0,0.0,0.0,88.83545,79.211426,101.519165
1770514105440,-0.90771484,0.23242188,-0.0546875,2.0141602,-10.070801,11.108398,3415.0,901.0,665.0,88.83545,79.211426,101.519165
1770514105452,-0.90771484,0.23242188,-0.0546875,2.0141602,-10.070801,11.108398,3415.0,901.0,665.0,85.495605,77.93152,98.42102
1770514105462,-0.90771484,0.23242188,-0.0546875,2.0141602,-10.070801,11.108398,0.0,0.0,0.0,85.495605,77.93152,98.42102
1770514105539,-1.0488281,0.17626953,-0.10644531,6.652832,-2.746582,0.9765625,3361.0,888.0,605.0,85.495605,77.93152,98.42102
1770514105551,-1.0488281,0.17626953,-0.10644531,6.652832,-2.746582,0.9765625,3361.0,888.0,605.0,83.75427,77.08008,96.27869
1770514105562,-1.0488281,0.17626953,-0.10644531,6.652832,-2.746582,0.9765625,0.0,0.0,0.0,83.75427,77.08008,96.27869
1770514105639,-1.081543,0.30078125,0.044921875,9.521484,-27.09961,0.91552734,3290.0,842.0,572.0,83.75427,77.08008,96.27869
1770514105651,-1.081543,0.30078125,0.044921875,9.521484,-27.09961,0.91552734,3290.0,842.0,572.0,82.18872,76.92627,94.97131
1770514105662,-1.081543,0.30078125,0.044921875,9.521484,-27.09961,0.91552734,0.0,0.0,0.0,82.18872,76.92627,94.97131
1770514105739,-0.81396484,0.1381836,0.12011719,28.9917,-22.216797,-14.404297,3275.0,871.0,500.0,82.18872,76.92627,94.97131
1770514105750,-0.81396484,0.1381836,0.12011719,28.9917,-22.216797,-14.404297,3275.0,871.0,500.0,72.11426,76.503296,82.74902
1770514105762,-0.81396484,0.1381836,0.12011719,28.9917,-22.216797,-14.404297,0.0,0.0,0.0,72.11426,76.503296,82.74902
1770514105838,-1.0976562,0.123535156,0.25439453,-15.441895,1.4648438,11.657715,3169.0,788.0,333.0,72.11426,76.503296,82.74902
1770514105850,-1.0976562,0.123535156,0.25439453,-15.441895,1.4648438,11.657715,3169.0,788.0,333.0,70.90027,76.38245,82.611694
1770514105861,-1.0976562,0.123535156,0.25439453,-15.441895,1.4648438,11.657715,0.0,0.0,0.0,70.90027,76.38245,82.611694
1770514105938,-0.91308594,0.30566406,0.095703125,3.7231445,-5.3710938,3.479004,3134.0,801.0,218.0,70.90027,76.38245,82.611694
1770514105950,-0.91308594,0.30566406,0.095703125,3.7231445,-5.3710938,3.479004,3134.0,801.0,218.0,68.2251,75.531006,81.35376
1770514105961,-0.91308594,0.30566406,0.095703125,3.7231445,-5.3710938,3.479004,0.0,0.0,0.0,68.2251,75.531006,81.35376
1770514106038,-0.9941406,0.12939453,0.080078125,-13.48877,4.8217773,7.1411133,3118.0,838.0,177.0,68.2251,75.531006,81.35376
1770514106050,-0.9941406,0.12939453,0.080078125,-13.48877,4.8217773,7.1411133,3118.0,838.0,177.0,69.37317,75.06409,82.8479
1770514106061,-0.9941406,0.12939453,0.080078125,-13.48877,4.8217773,7.1411133,0.0,0.0,0.0,69.37317,75.06409,82.8479
1770514106138,-0.97265625,0.23095703,0.026367188,-2.746582,16.906738,6.8969727,3136.0,825.0,171.0,69.37317,75.06409,82.8479
1770514106149,-0.97265625,0.23095703,0.026367188,-2.746582,16.906738,6.8969727,3136.0,825.0,171.0,73.64685,74.89929,88.60474
1770514106160,-0.97265625,0.23095703,0.026367188,-2.746582,16.906738,6.8969727,0.0,0.0,0.0,73.64685,74.89929,88.60474
1770514106237,-1.2456055,0.25878906,-0.0024414062,-14.587402,37.65869,3.479004,3198.0,824.0,232.0,73.64685,74.89929,88.60474
1770514106249,-1.2456055,0.25878906,-0.0024414062,-14.587402,37.65869,3.479004,3198.0,824.0,232.0,84.18823,75.36621,100.17334
1770514106260,-1.2456055,0.25878906,-0.0024414062,-14.587402,37.65869,3.479004,0.0,0.0,0.0,84.18823,75.36621,100.17334
1770514106337,-0.8803711,0.3720703,0.01953125,-25.6958,-23.254395,0.61035156,3310.0,824.0,415.0,84.18823,75.36621,100.17334
1770514106348,-0.8803711,0.3720703,0.01953125,-25.6958,-23.254395,0.61035156,3310.0,824.0,415.0,83.66638,75.50354,102.33765
1770514106360,-0.8803711,0.3720703,0.01953125,-25.6958,-23.254395,0.61035156,0.0,0.0,0.0,83.66638,75.50354,102.33765
1770514106437,-1.0722656,0.25732422,0.06933594,28.259277,8.422852,-19.958496,3393.0,905.0,514.0,83.66638,75.50354,102.33765
1770514106448,-1.0722656,0.25732422,0.06933594,28.259277,8.422852,-19.958496,3393.0,905.0,514.0,79.958496,76.398926,97.316895
1770514106462,-1.0722656,0.25732422,0.06933594,28.259277,8.422852,-19.958496,0.0,0.0,0.0,79.958496,76.398926,97.316895
1770514106536,-0.9267578,0.3173828,-0.057128906,-5.859375,-0.61035156,-4.3945312,3342.0,957.0,438.0,79.958496,76.398926,97.316895
1770514106548,-0.9267578,0.3173828,-0.057128906,-5.859375,-0.61035156,-4.3945312,3342.0,957.0,438.0,78.75549,76.99768,96.54785
1770514106567,-0.9267578,0.3173828,-0.057128906,-5.859375,-0.61035156,-4.3945312,0.0,0.0,0.0,78.75549,76.99768,96.54785
1770514106636,-0.9116211,0.22851562,0.032714844,35.583496,-11.474609,-6.5307617,3335.0,981.0,395.0,78.75549,76.99768,96.54785
1770514106648,-0.9116211,0.22851562,0.032714844,35.583496,-11.474609,-6.5307617,3335.0,981.0,395.0,76.728516,77.33826,91.85669
1770514106660,-0.9116211,0.22851562,0.032714844,35.583496,-11.474609,-6.5307617,0.0,0.0,0.0,76.728516,77.33826,91.85669
1770514106736,-0.9790039,0.12695312,0.14501953,-1.7089844,7.6904297,-7.019043,3278.0,958.0,361.0,76.728516,77.33826,91.85669
1770514106747,-0.9790039,0.12695312,0.14501953,-1.7089844,7.6904297,-7.019043,3278.0,958.0,361.0,78.079834,77.82715,91.19202
1770514106759,-0.9790039,0.12695312,0.14501953,-1.7089844,7.6904297,-7.019043,0.0,0.0,0.0,78.079834,77.82715,91.19202
1770514106836,-0.9873047,0.24511719,-0.0014648438,-18.005371,14.465332,1.8310547,3250.0,866.0,323.0,78.079834,77.82715,91.19202
1770514106847,-0.9873047,0.24511719,-0.0014648438,-18.005371,14.465332,1.8310547,3250.0,866.0,323.0,78.98071,78.151245,93.92761
1770514106858,-0.9873047,0.24511719,-0.0014648438,-18.005371,14.465332,1.8310547,0.0,0.0,0.0,78.98071,78.151245,93.92761
1770514106935,-1.0649414,0.27490234,-0.0068359375,-17.8833,-7.2021484,-0.061035156,3275.0,908.0,327.0,78.98071,78.151245,93.92761
1770514106947,-1.0649414,0.27490234,-0.0068359375,-17.8833,-7.2021484,-0.061035156,3275.0,908.0,327.0,82.9303,78.568726,100.475464
1770514106958,-1.0649414,0.27490234,-0.0068359375,-17.8833,-7.2021484,-0.061035156,0.0,0.0,0.0,82.9303,78.568726,100.475464
1770514107035,-0.87353516,0.15966797,-0.0063476562,27.46582,-22.094727,0.0,3321.0,1055.0,348.0,82.9303,78.568726,100.475464
1770514107046,-0.87353516,0.15966797,-0.0063476562,27.46582,-22.094727,0.0,3321.0,1055.0,348.0,72.59216,77.91504,89.29138
1770514107058,-0.87353516,0.15966797,-0.0063476562,27.46582,-22.094727,0.0,0.0,0.0,0.0,72.59216,77.91504,89.29138
1770514107135,-1.0703125,0.14794922,0.12890625,26.794434,-18.005371,4.0893555,3258.0,1102.0,232.0,72.59216,77.91504,89.29138
1770514107146,-1.0703125,0.14794922,0.12890625,26.794434,-18.005371,4.0893555,3258.0,1102.0,232.0,66.84631,76.327515,80.97473
1770514107160,-1.0703125,0.14794922,0.12890625,26.794434,-18.005371,4.0893555,0.0,0.0,0.0,66.84631,76.327515,80.97473
1770514107234,-0.90283203,0.114746094,0.1772461,-8.7890625,-5.493164,7.2631836,3137.0,1023.0,98.0,66.84631,76.327515,80.97473
1770514107246,-0.90283203,0.114746094,0.1772461,-8.7890625,-5.493164,7.2631836,3137.0,1023.0,98.0,64.48425,75.7782,77.05261
1770514107257,-0.90283203,0.114746094,0.1772461,-8.7890625,-5.493164,7.2631836,0.0,0.0,0.0,64.48425,75.7782,77.05261
1770514107334,-0.96533203,0.19824219,0.080078125,-5.3100586,4.638672,0.7324219,3069.0,921.0,12.0,64.48425,75.7782,77.05261
1770514107346,-0.96533203,0.19824219,0.080078125,-5.3100586,4.638672,0.7324219,3069.0,921.0,12.0,62.38037,75.4541,75.981445
1770514107357,-0.96533203,0.19824219,0.080078125,-5.3100586,4.638672,0.7324219,0.0,0.0,0.0,62.38037,75.4541,75.981445
1770514107434,-0.96435547,0.20605469,0.103515625,9.033203,12.512207,2.2583008,3039.0,951.0,-43.0,62.38037,75.4541,75.981445
1770514107446,-0.96435547,0.20605469,0.103515625,9.033203,12.512207,2.2583008,3039.0,951.0,-43.0,65.50598,75.67383,79.06311
1770514107465,-0.96435547,0.20605469,0.103515625,9.033203,12.512207,2.2583008,0.0,0.0,0.0,65.50598,75.67383,79.06311
1770514107533,-1.1469727,0.11767578,-0.037597656,12.145996,36.071777,-1.4648438,3054.0,931.0,-23.0,65.50598,75.67383,79.06311
1770514107545,-1.1469727,0.11767578,-0.037597656,12.145996,36.071777,-1.4648438,3054.0,931.0,-23.0,75.64636,76.55823,88.43994
1770514107561,-1.1469727,0.11767578,-0.037597656,12.145996,36.071777,-1.4648438,0.0,0.0,0.0,75.64636,76.55823,88.43994
1770514107633,-0.9145508,0.3408203,0.05908203,-6.652832,-25.512695,7.9956055,3143.0,855.0,148.0,75.64636,76.55823,88.43994
1770514107645,-0.9145508,0.3408203,0.05908203,-6.652832,-25.512695,7.9956055,3143.0,855.0,148.0,82.86438,76.728516,96.47095
1770514107656,-0.9145508,0.3408203,0.05908203,-6.652832,-25.512695,7.9956055,0.0,0.0,0.0,82.86438,76.728516,96.47095
1770514107733,-0.90625,0.31396484,0.091796875,21.972656,-1.7089844,-18.981934,3294.0,820.0,377.0,82.86438,76.728516,96.47095
1770514107744,-0.90625,0.31396484,0.091796875,21.972656,-1.7089844,-18.981934,3294.0,820.0,377.0,78.05237,76.8988,91.16455
1770514107756,-0.90625,0.31396484,0.091796875,21.972656,-1.7089844,-18.981934,0.0,0.0,0.0,78.05237,76.8988,91.16455
1770514107833,-1.0068359,0.1430664,0.06347656,-25.756836,19.89746,3.3569336,3278.0,802.0,404.0,78.05237,76.8988,91.16455
1770514107844,-1.0068359,0.1430664,0.06347656,-25.756836,19.89746,3.3569336,3278.0,802.0,404.0,82.699585,77.77771,96.416016
1770514107859,-1.0068359,0.1430664,0.06347656,-25.756836,19.89746,3.3569336,0.0,0.0,0.0,82.699585,77.77771,96.416016
1770514107932,-0.84277344,0.34814453,0.0087890625,0.8544922,-7.5683594,-3.112793,3295.0,782.0,446.0,82.699585,77.77771,96.416016
1770514107944,-0.84277344,0.34814453,0.0087890625,0.8544922,-7.5683594,-3.112793,3295.0,782.0,446.0,82.144775,78.06885,97.48718
1770514107955,-0.84277344,0.34814453,0.0087890625,0.8544922,-7.5683594,-3.112793,0.0,0.0,0.0,82.144775,78.06885,97.48718
1770514108032,-0.9404297,0.17382812,-0.03955078,-10.620117,-9.460449,6.1035156,3327.0,882.0,495.0,82.144775,78.06885,97.48718
1770514108044,-0.9404297,0.17382812,-0.03955078,-10.620117,-9.460449,6.1035156,3327.0,882.0,495.0,79.59595,77.48108,95.19104
1770514108058,-0.9404297,0.17382812,-0.03955078,-10.620117,-9.460449,6.1035156,0.0,0.0,0.0,79.59595,77.48108,95.19104
1770514108132,-0.89941406,0.21826172,-0.060546875,10.986328,-6.5307617,-0.5493164,3302.0,910.0,429.0,79.59595,77.48108,95.19104
1770514108143,-0.89941406,0.21826172,-0.060546875,10.986328,-6.5307617,-0.5493164,3302.0,910.0,429.0,78.1073,76.94275,93.51013
1770514108155,-0.89941406,0.21826172,-0.060546875,10.986328,-6.5307617,-0.5493164,0.0,0.0,0.0,78.1073,76.94275,93.51013
1770514108231,-1.2231445,0.28320312,0.09765625,11.230469,-13.916016,-12.268066,3260.0,925.0,335.0,78.1073,76.94275,93.51013
1770514108243,-1.2231445,0.28320312,0.09765625,11.230469,-13.916016,-12.268066,3260.0,925.0,335.0,75.20691,77.316284,89.6814
1770514108255,-1.2231445,0.28320312,0.09765625,11.230469,-13.916016,-12.268066,0.0,0.0,0.0,75.20691,77.316284,89.6814
1770514108331,-0.8676758,0.13574219,0.18554688,8.666992,-17.028809,-1.2207031,3223.0,951.0,263.0,75.20691,77.316284,89.6814
1770514108342,-0.8676758,0.13574219,0.18554688,8.666992,-17.028809,-1.2207031,3223.0,951.0,263.0,65.55542,76.953735,77.18994
1770514108355,-0.8676758,0.13574219,0.18554688,8.666992,-17.028809,-1.2207031,0.0,0.0,0.0,65.55542,76.953735,77.18994
1770514108431,-0.96875,0.18115234,0.16455078,-0.5493164,3.6010742,5.493164,3102.0,895.0,94.0,65.55542,76.953735,77.18994
1770514108442,-0.96875,0.18115234,0.16455078,-0.5493164,3.6010742,5.493164,3102.0,895.0,94.0,66.59363,76.48682,78.62915
1770514108456,-0.96875,0.18115234,0.16455078,-0.5493164,3.6010742,5.493164,0.0,0.0,0.0,66.59363,76.48682,78.62915
1770514108530,-0.97314453,0.103515625,0.06591797,1.8920898,8.666992,1.7089844,3093.0,832.0,51.0,66.59363,76.48682,78.62915
1770514108542,-0.97314453,0.103515625,0.06591797,1.8920898,8.666992,1.7089844,3093.0,832.0,51.0,67.06055,76.53076,79.123535
1770514108553,-0.97314453,0.103515625,0.06591797,1.8920898,8.666992,1.7089844,0.0,0.0,0.0,67.06055,76.53076,79.123535
1770514108630,-0.97021484,0.16015625,0.049316406,-12.512207,5.3100586,5.6152344,3108.0,784.0,51.0,67.06055,76.53076,79.123535
1770514108642,-0.97021484,0.16015625,0.049316406,-12.512207,5.3100586,5.6152344,3108.0,784.0,51.0,69.18091,76.49231,82.4469
1770514108654,-0.97021484,0.16015625,0.049316406,-12.512207,5.3100586,5.6152344,0.0,0.0,0.0,69.18091,76.49231,82.4469
1770514108730,-0.97802734,0.20019531,0.080566406,-7.2021484,7.6293945,7.751465,3124.0,813.0,70.0,69.18091,76.49231,82.4469
1770514108741,-0.97802734,0.20019531,0.080566406,-7.2021484,7.6293945,7.751465,3124.0,813.0,70.0,72.31201,76.07483,86.59424
1770514108755,-0.97802734,0.20019531,0.080566406,-7.2021484,7.6293945,7.751465,0.0,0.0,0.0,72.31201,76.07483,86.59424
1770514108830,-0.9941406,0.14746094,-0.03173828,-20.141602,22.705078,2.380371,3161.0,849.0,124.0,72.31201,76.07483,86.59424
1770514108841,-0.9941406,0.14746094,-0.03173828,-20.141602,22.705078,2.380371,3161.0,849.0,124.0,77.45911,76.48682,93.0542
1770514108854,-0.9941406,0.14746094,-0.03173828,-20.141602,22.705078,2.380371,0.0,0.0,0.0,77.45911,76.48682,93.0542
1770514108931,-1.0371094,0.23876953,0.21728516,-15.625,-2.1362305,-7.873535,3219.0,887.0,218.0,77.45911,76.48682,93.0542
1770514108942,-1.0371094,0.23876953,0.21728516,-15.625,-2.1362305,-7.873535,3219.0,887.0,218.0,85.34729,77.11304,102.9364
1770514108952,-1.0371094,0.23876953,0.21728516,-15.625,-2.1362305,-7.873535,0.0,0.0,0.0,85.34729,77.11304,102.9364
1770514109029,-0.80908203,0.33007812,0.055664062,2.6855469,-20.080566,-3.6621094,3334.0,948.0,371.0,85.34729,77.11304,102.9364
1770514109041,-0.80908203,0.33007812,0.055664062,2.6855469,-20.080566,-3.6621094,3334.0,948.0,371.0,75.201416,76.40442,94.46045
1770514109053,-0.80908203,0.33007812,0.055664062,2.6855469,-20.080566,-3.6621094,0.0,0.0,0.0,75.201416,76.40442,94.46045
1770514109131,-1.0581055,0.21044922,0.10449219,-1.159668,-0.7324219,-0.79345703,3243.0,1053.0,315.0,75.201416,76.40442,94.46045
1770514109140,-1.0581055,0.21044922,0.10449219,-1.159668,-0.7324219,-0.79345703,3243.0,1053.0,315.0,71.15845,77.178955,87.51709
1770514109153,-1.0581055,0.21044922,0.10449219,-1.159668,-0.7324219,-0.79345703,0.0,0.0,0.0,71.15845,77.178955,87.51709
1770514109228,-0.8857422,0.27929688,0.048339844,3.90625,-1.953125,-7.9345703,3175.0,1022.0,214.0,71.15845,77.178955,87.51709
1770514109240,-0.8857422,0.27929688,0.048339844,3.90625,-1.953125,-7.9345703,3175.0,1022.0,214.0,67.29126,77.23389,84.63318
1770514109251,-0.8857422,0.27929688,0.048339844,3.90625,-1.953125,-7.9345703,0.0,0.0,0.0,67.29126,77.23389,84.63318
1770514109328,-0.96435547,0.22265625,-0.01171875,8.300781,2.746582,-2.9907227,3110.0,1082.0,164.0,67.29126,77.23389,84.63318
1770514109339,-0.96435547,0.22265625,-0.01171875,8.300781,2.746582,-2.9907227,3110.0,1082.0,164.0,66.329956,77.12952,82.96326
1770514109351,-0.96435547,0.22265625,-0.01171875,8.300781,2.746582,-2.9907227,0.0,0.0,0.0,66.329956,77.12952,82.96326
1770514109428,-0.9916992,0.20898438,-0.0126953125,12.145996,6.1035156,-6.8359375,3076.0,1098.0,92.0,66.329956,77.12952,82.96326
1770514109439,-0.9916992,0.20898438,-0.0126953125,12.145996,6.1035156,-6.8359375,3076.0,1098.0,92.0,69.58191,77.45911,84.418945
1770514109450,-0.9916992,0.20898438,-0.0126953125,12.145996,6.1035156,-6.8359375,0.0,0.0,0.0,69.58191,77.45911,84.418945
1770514109527,-1.2001953,0.27148438,0.0703125,-10.803223,11.169434,-0.24414062,3068.0,1072.0,97.0,69.58191,77.45911,84.418945
1770514109539,-1.2001953,0.27148438,0.0703125,-10.803223,11.169434,-0.24414062,3068.0,1072.0,97.0,74.55322,78.4259,88.357544
1770514109550,-1.2001953,0.27148438,0.0703125,-10.803223,11.169434,-0.24414062,0.0,0.0,0.0,74.55322,78.4259,88.357544
1770514109627,-0.9033203,0.22558594,0.068847656,33.02002,-28.320312,-6.8969727,3084.0,1057.0,150.0,74.55322,78.4259,88.357544
1770514109638,-0.9033203,0.22558594,0.068847656,33.02002,-28.320312,-6.8969727,3084.0,1057.0,150.0,70.252075,77.67883,82.53479
1770514109650,-0.9033203,0.22558594,0.068847656,33.02002,-28.320312,-6.8969727,0.0,0.0,0.0,70.252075,77.67883,82.53479
1770514109727,-1.0449219,0.08251953,0.25634766,11.84082,-2.380371,2.0751953,3124.0,1023.0,138.0,70.252075,77.67883,82.53479
1770514109738,-1.0449219,0.08251953,0.25634766,11.84082,-2.380371,2.0751953,3124.0,1023.0,138.0,65.58838,77.87659,75.146484
1770514109750,-1.0449219,0.08251953,0.25634766,11.84082,-2.380371,2.0751953,0.0,0.0,0.0,65.58838,77.87659,75.146484
1770514109826,-0.9189453,0.15136719,0.060546875,-1.7089844,-6.4086914,-0.48828125,3055.0,912.0,18.0,65.58838,77.87659,75.146484
1770514109838,-0.9189453,0.15136719,0.060546875,-1.7089844,-6.4086914,-0.48828125,3055.0,912.0,18.0,66.066284,77.06909,76.47034
1770514109849,-0.9189453,0.15136719,0.060546875,-1.7089844,-6.4086914,-0.48828125,0.0,0.0,0.0,66.066284,77.06909,76.47034
1770514109926,-0.9511719,0.09277344,0.12792969,-11.230469,6.164551,1.4648438,3082.0,864.0,-13.0,66.066284,77.06909,76.47034
1770514109938,-0.9511719,0.09277344,0.12792969,-11.230469,6.164551,1.4648438,3082.0,864.0,-13.0,64.297485,77.24487,74.96521
1770514109949,-0.9511719,0.09277344,0.12792969,-11.230469,6.164551,1.4648438,0.0,0.0,0.0,64.297485,77.24487,74.96521
1770514110026,-1.0161133,0.2319336,0.052734375,-12.451172,12.573242,8.7890625,3078.0,841.0,-19.0,64.297485,77.24487,74.96521
1770514110037,-1.0161133,0.2319336,0.052734375,-12.451172,12.573242,8.7890625,3078.0,841.0,-19.0,65.253296,77.195435,77.99194
1770514110049,-1.0161133,0.2319336,0.052734375,-12.451172,12.573242,8.7890625,0.0,0.0,0.0,65.253296,77.195435,77.99194
1770514110126,-1.0078125,0.09863281,-0.017089844,2.5024414,27.46582,2.0751953,3093.0,889.0,-16.0,65.253296,77.195435,77.99194
1770514110137,-1.0078125,0.09863281,-0.017089844,2.5024414,27.46582,2.0751953,3093.0,889.0,-16.0,75.267334,77.475586,88.01697
1770514110148,-1.0078125,0.09863281,-0.017089844,2.5024414,27.46582,2.0751953,0.0,0.0,0.0,75.267334,77.475586,88.01697
1770514110225,-1.1494141,0.24316406,0.11621094,-9.521484,12.268066,5.6152344,3198.0,887.0,122.0,75.267334,77.475586,88.01697
1770514110237,-1.1494141,0.24316406,0.11621094,-9.521484,12.268066,5.6152344,3198.0,887.0,122.0,85.36377,77.508545,98.65723
1770514110248,-1.1494141,0.24316406,0.11621094,-9.521484,12.268066,5.6152344,0.0,0.0,0.0,85.36377,77.508545,98.65723
1770514110325,-0.8613281,0.3544922,-0.07763672,-23.132324,-18.005371,10.192871,3300.0,857.0,339.0,85.36377,77.508545,98.65723
1770514110337,-0.8613281,0.3544922,-0.07763672,-23.132324,-18.005371,10.192871,3300.0,857.0,339.0,80.5957,76.882324,95.476685
1770514110348,-0.8613281,0.3544922,-0.07763672,-23.132324,-18.005371,10.192871,0.0,0.0,0.0,80.5957,76.882324,95.476685
1770514110425,-1.0131836,0.29248047,0.16748047,-4.5776367,-10.7421875,-9.94873,3326.0,874.0,403.0,80.5957,76.882324,95.476685
1770514110436,-1.0131836,0.29248047,0.16748047,-4.5776367,-10.7421875,-9.94873,3326.0,874.0,403.0,76.45386,77.31079,90.49988
1770514110448,-1.0131836,0.29248047,0.16748047,-4.5776367,-10.7421875,-9.94873,0.0,0.0,0.0,76.45386,77.31079,90.49988
1770514110525,-0.9711914,0.28076172,-0.0073242188,-9.521484,6.1035156,-6.1035156,3270.0,873.0,322.0,76.45386,77.31079,90.49988
1770514110536,-0.9711914,0.28076172,-0.0073242188,-9.521484,6.1035156,-6.1035156,3270.0,873.0,322.0,71.26282,77.11304,88.28064
1770514110548,-0.9711914,0.28076172,-0.0073242188,-9.521484,6.1035156,-6.1035156,0.0,0.0,0.0,71.26282,77.11304,88.28064
1770514110624,-0.88378906,0.26171875,0.06347656,21.42334,-6.8969727,-4.8217773,3212.0,1012.0,182.0,71.26282,77.11304,88.28064
1770514110635,-0.88378906,0.26171875,0.06347656,21.42334,-6.8969727,-4.8217773,3212.0,1012.0,182.0,70.01587,76.761475,86.34155
1770514110647,-0.88378906,0.26171875,0.06347656,21.42334,-6.8969727,-4.8217773,0.0,0.0,0.0,70.01587,76.761475,86.34155
1770514110724,-0.9716797,0.1538086,0.12109375,2.319336,-1.7700195,0.0,3155.0,1069.0,134.0,70.01587,76.761475,86.34155
1770514110735,-0.9716797,0.1538086,0.12109375,2.319336,-1.7700195,0.0,3155.0,1069.0,134.0,71.1969,76.744995,85.06714
1770514110747,-0.9716797,0.1538086,0.12109375,2.319336,-1.7700195,0.0,0.0,0.0,0.0,71.1969,76.744995,85.06714
1770514110823,-0.9711914,0.2705078,0.07128906,-1.7700195,8.605957,-3.0517578,3083.0,1014.0,146.0,71.1969,76.744995,85.06714
1770514110835,-0.9711914,0.2705078,0.07128906,-1.7700195,8.605957,-3.0517578,3083.0,1014.0,146.0,71.55945,77.05261,85.75928
1770514110848,-0.9711914,0.2705078,0.07128906,-1.7700195,8.605957,-3.0517578,0.0,0.0,0.0,71.55945,77.05261,85.75928
1770514110923,-1.1679688,0.26757812,-0.032226562,-18.127441,7.446289,-6.5307617,3134.0,1010.0,127.0,71.55945,77.05261,85.75928
1770514110935,-1.1679688,0.26757812,-0.032226562,-18.127441,7.446289,-6.5307617,3134.0,1010.0,127.0,74.43787,77.77771,88.92883
1770514110947,-1.1679688,0.26757812,-0.032226562,-18.127441,7.446289,-6.5307617,0.0,0.0,0.0,74.43787,77.77771,88.92883
1770514111023,-0.99609375,0.17285156,0.012207031,22.827148,-3.7231445,-4.333496,3088.0,1071.0,180.0,74.43787,77.77771,88.92883
1770514111034,-0.99609375,0.17285156,0.012207031,22.827148,-3.7231445,-4.333496,3088.0,1071.0,180.0,74.70154,77.88757,88.97827
1770514111046,-0.99609375,0.17285156,0.012207031,22.827148,-3.7231445,-4.333496,0.0,0.0,0.0,74.70154,77.88757,88.97827
1770514111123,-0.8544922,0.123046875,0.17138672,4.4555664,-1.3427734,9.216309,3115.0,1115.0,137.0,74.70154,77.88757,88.97827
1770514111134,-0.8544922,0.123046875,0.17138672,4.4555664,-1.3427734,9.216309,3115.0,1115.0,137.0,74.01489,77.975464,86.47888
1770514111146,-0.8544922,0.123046875,0.17138672,4.4555664,-1.3427734,9.216309,0.0,0.0,0.0,74.01489,77.975464,86.47888
1770514111222,-1.0966797,0.22607422,-0.061523438,-7.9345703,-1.8310547,8.666992,3127.0,1068.0,132.0,74.01489,77.975464,86.47888
1770514111234,-1.0966797,0.22607422,-0.061523438,-7.9345703,-1.8310547,8.666992,3127.0,1068.0,132.0,74.10278,76.744995,86.64917
1770514111246,-1.0966797,0.22607422,-0.061523438,-7.9345703,-1.8310547,8.666992,0.0,0.0,0.0,74.10278,76.744995,86.64917
1770514111322,-0.93652344,0.10595703,0.08935547,-9.155273,-0.5493164,9.460449,3060.0,1016.0,149.0,74.10278,76.744995,86.64917
1770514111334,-0.93652344,0.10595703,0.08935547,-9.155273,-0.5493164,9.460449,3060.0,1016.0,149.0,74.20715,76.45386,86.40198
1770514111345,-0.93652344,0.10595703,0.08935547,-9.155273,-0.5493164,9.460449,0.0,0.0,0.0,74.20715,76.45386,86.40198
1770514111422,-0.98339844,0.1953125,0.05078125,-9.82666,2.6245117,2.0751953,3134.0,972.0,152.0,74.20715,76.45386,86.40198
1770514111433,-0.98339844,0.1953125,0.05078125,-9.82666,2.6245117,2.0751953,3134.0,972.0,152.0,73.26782,76.21216,86.84143
1770514111445,-0.98339844,0.1953125,0.05078125,-9.82666,2.6245117,2.0751953,0.0,0.0,0.0,73.26782,76.21216,86.84143
1770514111522,-0.9770508,0.2055664,0.036621094,-10.437012,8.544922,2.1972656,3191.0,983.0,83.0,73.26782,76.21216,86.84143
1770514111533,-0.9770508,0.2055664,0.036621094,-10.437012,8.544922,2.1972656,3191.0,983.0,83.0,74.11926,76.102295,88.90686
1770514111544,-0.9770508,0.2055664,0.036621094,-10.437012,8.544922,2.1972656,0.0,0.0,0.0,74.11926,76.102295,88.90686
1770514111621,-1.1098633,0.22216797,-0.032226562,2.746582,23.68164,-2.0141602,3216.0,1040.0,114.0,74.11926,76.102295,88.90686
1770514111633,-1.1098633,0.22216797,-0.032226562,2.746582,23.68164,-2.0141602,3216.0,1040.0,114.0,82.27661,77.01965,97.13013
1770514111646,-1.1098633,0.22216797,-0.032226562,2.746582,23.68164,-2.0141602,0.0,0.0,0.0,82.27661,77.01965,97.13013
1770514111721,-0.92285156,0.31982422,0.11621094,-1.6479492,-16.357422,-0.8544922,3278.0,1069.0,232.0,82.27661,77.01965,97.13013
1770514111733,-0.92285156,0.31982422,0.11621094,-1.6479492,-16.357422,-0.8544922,3278.0,1069.0,232.0,86.451416,77.10205,101.76636
1770514111745,-0.92285156,0.31982422,0.11621094,-1.6479492,-16.357422,-0.8544922,0.0,0.0,0.0,86.451416,77.10205,101.76636
1770514111821,-0.8847656,0.29589844,0.10644531,16.601562,-12.756348,-7.6293945,3378.0,1072.0,416.0,86.451416,77.10205,101.76636
1770514111833,-0.8847656,0.29589844,0.10644531,16.601562,-12.756348,-7.6293945,3378.0,1072.0,416.0,81.397705,77.28882,95.4657
1770514111844,-0.8847656,0.29589844,0.10644531,16.601562,-12.756348,-7.6293945,0.0,0.0,0.0,81.397705,77.28882,95.4657
1770514111921,-0.9868164,0.17773438,0.023925781,15.197754,2.5634766,-9.338379,3311.0,1043.0,374.0,81.397705,77.28882,95.4657
1770514111932,-0.9868164,0.17773438,0.023925781,15.197754,2.5634766,-9.338379,3311.0,1043.0,374.0,80.216675,77.37671,93.444214
1770514111944,-0.9868164,0.17773438,0.023925781,15.197754,2.5634766,-9.338379,0.0,0.0,0.0,80.216675,77.37671,93.444214
1770514112020,-0.9135742,0.29541016,-0.0146484375,7.507324,-3.6621094,-0.61035156,3271.0,1014.0,332.0,80.216675,77.37671,93.444214
1770514112032,-0.9135742,0.29541016,-0.0146484375,7.507324,-3.6621094,-0.61035156,3271.0,1014.0,332.0,79.91455,77.7832,92.31262
1770514112043,-0.9135742,0.29541016,-0.0146484375,7.507324,-3.6621094,-0.61035156,0.0,0.0,0.0,79.91455,77.7832,92.31262
1770514112120,-0.9824219,0.20703125,0.05908203,11.169434,-5.2490234,-5.92041,3288.0,988.0,341.0,79.91455,77.7832,92.31262
1770514112131,-0.9824219,0.20703125,0.05908203,11.169434,-5.2490234,-5.92041,3288.0,988.0,341.0,79.46411,78.14575,90.14282
1770514112143,-0.9824219,0.20703125,0.05908203,11.169434,-5.2490234,-5.92041,0.0,0.0,0.0,79.46411,78.14575,90.14282
1770514112220,-0.9550781,0.23095703,-0.0029296875,2.5024414,1.2817383,-2.746582,3274.0,904.0,303.0,79.46411,78.14575,90.14282
1770514112231,-0.9550781,0.23095703,-0.0029296875,2.5024414,1.2817383,-2.746582,3274.0,904.0,303.0,78.947754,78.35449,89.25293
1770514112243,-0.9550781,0.23095703,-0.0029296875,2.5024414,1.2817383,-2.746582,0.0,0.0,0.0,78.947754,78.35449,89.25293
1770514112319,-1.2485352,0.31591797,-0.029785156,-14.6484375,4.333496,-0.9765625,3275.0,891.0,270.0,78.947754,78.35449,89.25293
1770514112331,-1.2485352,0.31591797,-0.029785156,-14.6484375,4.333496,-0.9765625,3275.0,891.0,270.0,79.82117,78.31055,90.58777
1770514112342,-1.2485352,0.31591797,-0.029785156,-14.6484375,4.333496,-0.9765625,0.0,0.0,0.0,79.82117,78.31055,90.58777
1770514112419,-0.9291992,0.17041016,0.049316406,3.9672852,-13.916016,10.253906,3265.0,900.0,262.0,79.82117,78.31055,90.58777
1770514112430,-0.9291992,0.17041016,0.049316406,3.9672852,-13.916016,10.253906,3265.0,900.0,262.0,77.44263,77.26135,87.88513
1770514112442,-0.9291992,0.17041016,0.049316406,3.9672852,-13.916016,10.253906,0.0,0.0,0.0,77.44263,77.26135,87.88513
1770514112519,-0.91552734,0.1459961,0.16796875,-3.479004,-11.291504,8.850098,3227.0,924.0,210.0,77.44263,77.26135,87.88513
1770514112530,-0.91552734,0.1459961,0.16796875,-3.479004,-11.291504,8.850098,3227.0,924.0,210.0,71.60339,76.190186,81.78223
1770514112542,-0.91552734,0.1459961,0.16796875,-3.479004,-11.291504,8.850098,0.0,0.0,0.0,71.60339,76.190186,81.78223
1770514112618,-0.96240234,0.22509766,0.032714844,-17.51709,4.8217773,9.216309,3181.0,897.0,119.0,71.60339,76.190186,81.78223
1770514112630,-0.96240234,0.22509766,0.032714844,-17.51709,4.8217773,9.216309,3181.0,897.0,119.0,71.14197,75.67383,82.99072
1770514112642,-0.96240234,0.22509766,0.032714844,-17.51709,4.8217773,9.216309,0.0,0.0,0.0,71.14197,75.67383,82.99072
1770514112718,-0.92822266,0.14892578,0.032226562,-0.91552734,3.2958984,4.8217773,3161.0,929.0,41.0,71.14197,75.67383,82.99072
1770514112730,-0.92822266,0.14892578,0.032226562,-0.91552734,3.2958984,4.8217773,3161.0,929.0,41.0,71.63635,75.2124,83.47412
1770514112742,-0.92822266,0.14892578,0.032226562,-0.91552734,3.2958984,4.8217773,0.0,0.0,0.0,71.63635,75.2124,83.47412
1770514112818,-0.98095703,0.27490234,0.11328125,-9.399414,8.666992,13.73291,3162.0,938.0,47.0,71.63635,75.2124,83.47412
1770514112830,-0.98095703,0.27490234,0.11328125,-9.399414,8.666992,13.73291,3162.0,938.0,47.0,74.575195,74.59717,87.5116
1770514112841,-0.98095703,0.27490234,0.11328125,-9.399414,8.666992,13.73291,0.0,0.0,0.0,74.575195,74.59717,87.5116
1770514112918,-0.9995117,0.16259766,-0.08496094,4.5166016,21.911621,-0.30517578,3212.0,966.0,81.0,74.575195,74.59717,87.5116
1770514112929,-0.9995117,0.16259766,-0.08496094,4.5166016,21.911621,-0.30517578,3212.0,966.0,81.0,80.08484,74.66858,92.79053
1770514112945,-0.9995117,0.16259766,-0.08496094,4.5166016,21.911621,-0.30517578,0.0,0.0,0.0,80.08484,74.66858,92.79053
1770514113017,-1.1342773,0.19628906,-0.0053710938,-4.0893555,15.075684,-7.1411133,3276.0,949.0,168.0,80.08484,74.66858,92.79053
1770514113029,-1.1342773,0.19628906,-0.0053710938,-4.0893555,15.075684,-7.1411133,3276.0,949.0,168.0,87.91809,75.79468,100.5249
1770514113041,-1.1342773,0.19628906,-0.0053710938,-4.0893555,15.075684,-7.1411133,0.0,0.0,0.0,87.91809,75.79468,100.5249
1770514113117,-0.98535156,0.37695312,0.04736328,-14.831543,-19.89746,1.953125,3372.0,946.0,346.0,87.91809,75.79468,100.5249
1770514113128,-0.98535156,0.37695312,0.04736328,-14.831543,-19.89746,1.953125,3372.0,946.0,346.0,87.05017,76.624146,101.4917
1770514113140,-0.98535156,0.37695312,0.04736328,-14.831543,-19.89746,1.953125,0.0,0.0,0.0,87.05017,76.624146,101.4917
1770514113217,-0.91308594,0.27685547,0.1328125,57.434082,-23.68164,-22.888184,3426.0,996.0,409.0,87.05017,76.624146,101.4917
1770514113228,-0.91308594,0.27685547,0.1328125,57.434082,-23.68164,-22.888184,3426.0,996.0,409.0,80.288086,76.970215,92.27417
1770514113248,-0.91308594,0.27685547,0.1328125,57.434082,-23.68164,-22.888184,0.0,0.0,0.0,80.288086,76.970215,92.27417
1770514113316,-0.95654297,0.19189453,0.0073242188,-10.375977,-8.056641,0.0,3329.0,969.0,340.0,80.288086,76.970215,92.27417
1770514113328,-0.95654297,0.19189453,0.0073242188,-10.375977,-8.056641,0.0,3329.0,969.0,340.0,74.53674,77.178955,85.319824
1770514113340,-0.95654297,0.19189453,0.0073242188,-10.375977,-8.056641,0.0,0.0,0.0,0.0,74.53674,77.178955,85.319824
1770514113416,-0.9272461,0.26953125,0.047851562,16.601562,-2.1362305,-4.8217773,3227.0,887.0,199.0,74.53674,77.178955,85.319824
1770514113427,-0.9272461,0.26953125,0.047851562,16.601562,-2.1362305,-4.8217773,3227.0,887.0,199.0,74.575195,77.33276,84.51233
1770514113439,-0.9272461,0.26953125,0.047851562,16.601562,-2.1362305,-4.8217773,0.0,0.0,0.0,74.575195,77.33276,84.51233
1770514113516,-1.0249023,0.1640625,0.067871094,7.2021484,10.375977,-10.681152,3224.0,862.0,184.0,74.575195,77.33276,84.51233
1770514113527,-1.0249023,0.1640625,0.067871094,7.2021484,10.375977,-10.681152,3224.0,862.0,184.0,76.89331,77.88208,85.841675
1770514113538,-1.0249023,0.1640625,0.067871094,7.2021484,10.375977,-10.681152,0.0,0.0,0.0,76.89331,77.88208,85.841675
1770514113615,-0.9160156,0.27246094,-0.045410156,-12.268066,9.216309,0.30517578,3225.0,798.0,230.0,76.89331,77.88208,85.841675
1770514113627,-0.9160156,0.27246094,-0.045410156,-12.268066,9.216309,0.30517578,3225.0,798.0,230.0,80.513306,78.73352,90.15381
1770514113641,-0.9160156,0.27246094,-0.045410156,-12.268066,9.216309,0.30517578,0.0,0.0,0.0,80.513306,78.73352,90.15381
1770514113715,-1.1308594,0.30322266,0.044433594,8.728027,4.8828125,-3.479004,3282.0,830.0,250.0,80.513306,78.73352,90.15381
1770514113726,-1.1308594,0.30322266,0.044433594,8.728027,4.8828125,-3.479004,3282.0,830.0,250.0,84.627686,78.65112,94.295654
1770514113748,-1.1308594,0.30322266,0.044433594,8.728027,4.8828125,-3.479004,0.0,0.0,0.0,84.627686,78.65112,94.295654
1770514113815,-0.96972656,0.20703125,0.08642578,-6.8359375,-16.906738,8.422852,3316.0,850.0,346.0,84.627686,78.65112,94.295654
1770514113826,-0.96972656,0.20703125,0.08642578,-6.8359375,-16.906738,8.422852,3316.0,850.0,346.0,80.56824,77.13501,90.670166
1770514113838,-0.96972656,0.20703125,0.08642578,-6.8359375,-16.906738,8.422852,0.0,0.0,0.0,80.56824,77.13501,90.670166
1770514113916,-0.96875,0.16699219,0.12890625,-14.343262,-10.314941,12.329102,3300.0,846.0,303.0,80.56824,77.13501,90.670166
1770514113926,-0.96875,0.16699219,0.12890625,-14.343262,-10.314941,12.329102,3300.0,846.0,303.0,75.81116,76.4978,85.78125
1770514113938,-0.96875,0.16699219,0.12890625,-14.343262,-10.314941,12.329102,0.0,0.0,0.0,75.81116,76.4978,85.78125
1770514114014,-0.96484375,0.24121094,0.052734375,7.385254,-0.61035156,3.6010742,3218.0,845.0,179.0,75.81116,76.4978,85.78125
1770514114026,-0.96484375,0.24121094,0.052734375,7.385254,-0.61035156,3.6010742,3218.0,845.0,179.0,75.62439,75.88257,86.40747
1770514114037,-0.96484375,0.24121094,0.052734375,7.385254,-0.61035156,3.6010742,0.0,0.0,0.0,75.62439,75.88257,86.40747
1770514114114,-0.97753906,0.09375,0.00390625,12.023926,0.0,-2.9907227,3222.0,841.0,142.0,75.62439,75.88257,86.40747
1770514114125,-0.97753906,0.09375,0.00390625,12.023926,0.0,-2.9907227,3222.0,841.0,142.0,75.26184,75.6958,85.28137
1770514114138,-0.97753906,0.09375,0.00390625,12.023926,0.0,-2.9907227,0.0,0.0,0.0,75.26184,75.6958,85.28137
1770514114214,-0.9838867,0.22460938,0.020996094,-11.413574,-11.779785,8.239746,3217.0,765.0,148.0,75.26184,75.6958,85.28137
1770514114225,-0.9838867,0.22460938,0.020996094,-11.413574,-11.779785,8.239746,3217.0,765.0,148.0,73.75122,75.547485,84.17175
1770514114237,-0.9838867,0.22460938,0.020996094,-11.413574,-11.779785,8.239746,0.0,0.0,0.0,73.75122,75.547485,84.17175
1770514114313,-0.9946289,0.17578125,0.013183594,-0.48828125,5.6152344,0.12207031,3194.0,759.0,105.0,73.75122,75.547485,84.17175
1770514114325,-0.9946289,0.17578125,0.013183594,-0.48828125,5.6152344,0.12207031,3194.0,759.0,105.0,72.00989,75.09155,82.50183
1770514114336,-0.9946289,0.17578125,0.013183594,-0.48828125,5.6152344,0.12207031,0.0,0.0,0.0,72.00989,75.09155,82.50183
1770514114413,-0.97753906,0.15429688,0.0087890625,-1.0986328,21.1792,-3.8452148,3165.0,800.0,39.0,72.00989,75.09155,82.50183
1770514114424,-0.97753906,0.15429688,0.0087890625,-1.0986328,21.1792,-3.8452148,3165.0,800.0,39.0,77.88208,75.93201,88.48938
1770514114436,-0.97753906,0.15429688,0.0087890625,-1.0986328,21.1792,-3.8452148,0.0,0.0,0.0,77.88208,75.93201,88.48938
1770514114513,-1.1137695,0.29492188,0.18115234,-21.30127,8.361816,0.0,3216.0,820.0,101.0,77.88208,75.93201,88.48938
1770514114524,-1.1137695,0.29492188,0.18115234,-21.30127,8.361816,0.0,3216.0,820.0,101.0,86.066895,76.95923,97.542114
1770514114536,-1.1137695,0.29492188,0.18115234,-21.30127,8.361816,0.0,0.0,0.0,0.0,86.066895,76.95923,97.542114
1770514114612,-0.81103516,0.26513672,0.0087890625,27.160645,-10.253906,-14.892578,3305.0,871.0,261.0,86.066895,76.95923,97.542114
1770514114624,-0.81103516,0.26513672,0.0087890625,27.160645,-10.253906,-14.892578,3305.0,871.0,261.0,85.66589,77.08008,98.23425
1770514114636,-0.81103516,0.26513672,0.0087890625,27.160645,-10.253906,-14.892578,0.0,0.0,0.0,85.66589,77.08008,98.23425
1770514114712,-0.98876953,0.2084961,0.07714844,4.699707,-9.82666,-5.3100586,3363.0,914.0,349.0,85.66589,77.08008,98.23425
1770514114723,-0.98876953,0.2084961,0.07714844,4.699707,-9.82666,-5.3100586,3363.0,914.0,349.0,80.007935,77.645874,91.48865
1770514114735,-0.98876953,0.2084961,0.07714844,4.699707,-9.82666,-5.3100586,0.0,0.0,0.0,80.007935,77.645874,91.48865
1770514114812,-0.8720703,0.28076172,0.011230469,4.5166016,-2.0751953,0.4272461,3300.0,902.0,304.0,80.007935,77.645874,91.48865
1770514114823,-0.8720703,0.28076172,0.011230469,4.5166016,-2.0751953,0.4272461,3300.0,902.0,304.0,77.51404,77.75574,88.654175
1770514114834,-0.8720703,0.28076172,0.011230469,4.5166016,-2.0751953,0.4272461,0.0,0.0,0.0,77.51404,77.75574,88.654175
1770514114912,-0.95996094,0.18701172,0.053710938,2.9907227,0.79345703,2.380371,3214.0,899.0,216.0,77.51404,77.75574,88.654175
1770514114923,-0.95996094,0.18701172,0.053710938,2.9907227,0.79345703,2.380371,3214.0,899.0,216.0,78.20618,77.39868,88.428955
1770514114934,-0.95996094,0.18701172,0.053710938,2.9907227,0.79345703,2.380371,0.0,0.0,0.0,78.20618,77.39868,88.428955
1770514115011,-0.97216797,0.25976562,-0.012207031,-12.451172,11.535645,1.3427734,3202.0,844.0,231.0,78.20618,77.39868,88.428955
1770514115022,-0.97216797,0.25976562,-0.012207031,-12.451172,11.535645,1.3427734,3202.0,844.0,231.0,80.36499,77.39319,91.203
1770514115034,-0.97216797,0.25976562,-0.012207031,-12.451172,11.535645,1.3427734,0.0,0.0,0.0,80.36499,77.39319,91.203
1770514115111,-1.2148438,0.32861328,-0.017578125,-14.6484375,8.7890625,-4.5776367,3228.0,835.0,243.0,80.36499,77.39319,91.203
1770514115122,-1.2148438,0.32861328,-0.017578125,-14.6484375,8.7890625,-4.5776367,3228.0,835.0,243.0,85.45715,77.33276,97.27844
1770514115136,-1.2148438,0.32861328,-0.017578125,-14.6484375,8.7890625,-4.5776367,0.0,0.0,0.0,85.45715,77.33276,97.27844
1770514115210,-0.8671875,0.2607422,0.111816406,-2.8076172,-20.019531,7.019043,3288.0,899.0,342.0,85.45715,77.33276,97.27844
1770514115223,-0.8671875,0.2607422,0.111816406,-2.8076172,-20.019531,7.019043,3288.0,899.0,342.0,83.55652,76.92078,95.87219
1770514115235,-0.8671875,0.2607422,0.111816406,-2.8076172,-20.019531,7.019043,0.0,0.0,0.0,83.55652,76.92078,95.87219
1770514115310,-0.99316406,0.16503906,0.16357422,3.6621094,-9.399414,-0.18310547,3315.0,937.0,300.0,83.55652,76.92078,95.87219
1770514115322,-0.99316406,0.16503906,0.16357422,3.6621094,-9.399414,-0.18310547,3315.0,937.0,300.0,75.042114,76.24512,87.09961
1770514115333,-0.99316406,0.16503906,0.16357422,3.6621094,-9.399414,-0.18310547,0.0,0.0,0.0,75.042114,76.24512,87.09961
1770514115410,-0.8979492,0.2163086,0.07714844,-3.9672852,-1.5258789,6.225586,3248.0,955.0,150.0,75.042114,76.24512,87.09961
1770514115421,-0.8979492,0.2163086,0.07714844,-3.9672852,-1.5258789,6.225586,3248.0,955.0,150.0,74.31702,75.88806,86.885376
1770514115434,-0.8979492,0.2163086,0.07714844,-3.9672852,-1.5258789,6.225586,0.0,0.0,0.0,74.31702,75.88806,86.885376
1770514115510,-1.0332031,0.1640625,0.1015625,7.6293945,-0.79345703,6.4086914,3218.0,967.0,83.0,74.31702,75.88806,86.885376
1770514115521,-1.0332031,0.1640625,0.1015625,7.6293945,-0.79345703,6.4086914,3218.0,967.0,83.0,72.93823,75.34424,85.39673
1770514115534,-1.0332031,0.1640625,0.1015625,7.6293945,-0.79345703,6.4086914,0.0,0.0,0.0,72.93823,75.34424,85.39673
1770514115609,-0.97314453,0.17529297,0.009765625,-0.7324219,7.446289,4.272461,3212.0,967.0,54.0,72.93823,75.34424,85.39673
1770514115621,-0.97314453,0.17529297,0.009765625,-0.7324219,7.446289,4.272461,3212.0,967.0,54.0,73.97095,75.09155,86.28113
1770514115632,-0.97314453,0.17529297,0.009765625,-0.7324219,7.446289,4.272461,0.0,0.0,0.0,73.97095,75.09155,86.28113
1770514115709,-1.003418,0.13183594,0.011230469,12.939453,17.028809,-3.3569336,3187.0,925.0,80.0,73.97095,75.09155,86.28113
1770514115720,-1.003418,0.13183594,0.011230469,12.939453,17.028809,-3.3569336,3187.0,925.0,80.0,78.86536,75.31677,90.54932
1770514115733,-1.003418,0.13183594,0.011230469,12.939453,17.028809,-3.3569336,0.0,0.0,0.0,78.86536,75.31677,90.54932
1770514115809,-1.1474609,0.22314453,0.030761719,-1.4038086,20.385742,-5.6152344,3222.0,897.0,172.0,78.86536,75.31677,90.54932
1770514115820,-1.1474609,0.22314453,0.030761719,-1.4038086,20.385742,-5.6152344,3222.0,897.0,172.0,88.45642,76.45935,99.766846
1770514115841,-1.1474609,0.22314453,0.030761719,-1.4038086,20.385742,-5.6152344,0.0,0.0,0.0,88.45642,76.45935,99.766846
1770514115909,-0.9067383,0.32177734,-0.0546875,-13.549805,-30.578613,-2.0751953,3305.0,846.0,352.0,88.45642,76.45935,99.766846
1770514115920,-0.9067383,0.32177734,-0.0546875,-13.549805,-30.578613,-2.0751953,3305.0,846.0,352.0,85.583496,77.33826,98.3551
1770514115931,-0.9067383,0.32177734,-0.0546875,-13.549805,-30.578613,-2.0751953,0.0,0.0,0.0,85.583496,77.33826,98.3551
1770514116008,-0.9345703,0.23730469,0.1303711,0.18310547,-13.671875,-20.141602,3392.0,842.0,421.0,85.583496,77.33826,98.3551
1770514116020,-0.9345703,0.23730469,0.1303711,0.18310547,-13.671875,-20.141602,3392.0,842.0,421.0,81.101074,78.35449,93.22449
1770514116039,-0.9345703,0.23730469,0.1303711,0.18310547,-13.671875,-20.141602,0.0,0.0,0.0,81.101074,78.35449,93.22449
1770514116108,-1.0141602,0.23388672,-0.056640625,-28.869629,-0.9765625,-2.319336,3339.0,865.0,358.0,81.101074,78.35449,93.22449
1770514116119,-1.0141602,0.23388672,-0.056640625,-28.869629,-0.9765625,-2.319336,3339.0,865.0,358.0,76.45935,78.89282,90.6427
1770514116137,-1.0141602,0.23388672,-0.056640625,-28.869629,-0.9765625,-2.319336,0.0,0.0,0.0,76.45935,78.89282,90.6427
1770514116207,-0.8857422,0.32470703,-0.03466797,15.991211,-12.023926,1.2817383,3270.0,989.0,230.0,76.45935,78.89282,90.6427
1770514116219,-0.8857422,0.32470703,-0.03466797,15.991211,-12.023926,1.2817383,3270.0,989.0,230.0,73.38318,78.409424,87.13257
1770514116230,-0.8857422,0.32470703,-0.03466797,15.991211,-12.023926,1.2817383,0.0,0.0,0.0,73.38318,78.409424,87.13257
1770514116307,-1.0170898,0.14013672,0.075683594,21.54541,-4.5166016,6.3476562,3231.0,1054.0,182.0,73.38318,78.409424,87.13257
1770514116319,-1.0170898,0.14013672,0.075683594,21.54541,-4.5166016,6.3476562,3231.0,1054.0,182.0,73.168945,77.67883,84.17175
1770514116330,-1.0170898,0.14013672,0.075683594,21.54541,-4.5166016,6.3476562,0.0,0.0,0.0,73.168945,77.67883,84.17175
1770514116407,-0.9550781,0.2109375,0.032714844,3.6010742,13.244629,0.18310547,3165.0,955.0,126.0,73.168945,77.67883,84.17175
1770514116418,-0.9550781,0.2109375,0.032714844,3.6010742,13.244629,0.18310547,3165.0,955.0,126.0,75.66284,77.717285,85.979004
1770514116430,-0.9550781,0.2109375,0.032714844,3.6010742,13.244629,0.18310547,0.0,0.0,0.0,75.66284,77.717285,85.979004
1770514116507,-1.2177734,0.35839844,-0.0126953125,-22.521973,9.399414,1.159668,3173.0,927.0,142.0,75.66284,77.717285,85.979004
1770514116518,-1.2177734,0.35839844,-0.0126953125,-22.521973,9.399414,1.159668,3173.0,927.0,142.0,82.4469,77.81616,94.15283
1770514116530,-1.2177734,0.35839844,-0.0126953125,-22.521973,9.399414,1.159668,0.0,0.0,0.0,82.4469,77.81616,94.15283
1770514116606,-0.8442383,0.19970703,0.18603516,20.080566,-18.554688,5.126953,3267.0,958.0,227.0,82.4469,77.81616,94.15283
1770514116618,-0.8442383,0.19970703,0.18603516,20.080566,-18.554688,5.126953,3267.0,958.0,227.0,80.755005,77.02515,91.362305
1770514116629,-0.8442383,0.19970703,0.18603516,20.080566,-18.554688,5.126953,0.0,0.0,0.0,80.755005,77.02515,91.362305
1770514116706,-1.1191406,0.1850586,0.110839844,-1.7089844,1.953125,9.887695,3261.0,933.0,277.0,80.755005,77.02515,91.362305
1770514116718,-1.1191406,0.1850586,0.110839844,-1.7089844,1.953125,9.887695,3261.0,933.0,277.0,77.84363,76.536255,88.41797
1770514116730,-1.1191406,0.1850586,0.110839844,-1.7089844,1.953125,9.887695,0.0,0.0,0.0,77.84363,76.536255,88.41797
1770514116806,-0.9453125,0.15917969,0.040039062,11.291504,0.24414062,-1.0375977,3218.0,893.0,195.0,77.84363,76.536255,88.41797
1770514116817,-0.9453125,0.15917969,0.040039062,11.291504,0.24414062,-1.0375977,3218.0,893.0,195.0,76.953735,75.756226,88.37402
1770514116829,-0.9453125,0.15917969,0.040039062,11.291504,0.24414062,-1.0375977,0.0,0.0,0.0,76.953735,75.756226,88.37402
1770514116905,-0.97753906,0.15966797,0.06933594,-8.7890625,4.9438477,4.4555664,3231.0,867.0,186.0,76.953735,75.756226,88.37402
1770514116917,-0.97753906,0.15966797,0.06933594,-8.7890625,4.9438477,4.4555664,3231.0,867.0,186.0,77.283325,75.72876,89.13757
1770514116930,-0.97753906,0.15966797,0.06933594,-8.7890625,4.9438477,4.4555664,0.0,0.0,0.0,77.283325,75.72876,89.13757
1770514117005,-0.99609375,0.20263672,0.01171875,-4.638672,12.817383,2.319336,3253.0,867.0,163.0,77.283325,75.72876,89.13757
1770514117017,-0.99609375,0.20263672,0.01171875,-4.638672,12.817383,2.319336,3253.0,867.0,163.0,79.75525,75.89905,92.32361
1770514117028,-0.99609375,0.20263672,0.01171875,-4.638672,12.817383,2.319336,0.0,0.0,0.0,79.75525,75.89905,92.32361
1770514117105,-0.9975586,0.122558594,-0.040039062,-4.0893555,22.949219,-7.8125,3273.0,884.0,215.0,79.75525,75.89905,92.32361
1770514117116,-0.9975586,0.122558594,-0.040039062,-4.0893555,22.949219,-7.8125,3273.0,884.0,215.0,87.97302,76.69006,100.947876
1770514117129,-0.9975586,0.122558594,-0.040039062,-4.0893555,22.949219,-7.8125,0.0,0.0,0.0,87.97302,76.69006,100.947876
1770514117204,-0.9658203,0.24169922,0.12792969,-13.122559,9.887695,-0.6713867,3363.0,925.0,349.0,87.97302,76.69006,100.947876
1770514117216,-0.9658203,0.24169922,0.12792969,-13.122559,9.887695,-0.6713867,3363.0,925.0,349.0,98.00903,77.11304,112.1759
1770514117228,-0.9658203,0.24169922,0.12792969,-13.122559,9.887695,-0.6713867,0.0,0.0,0.0,98.00903,77.11304,112.1759
1770514117304,-0.828125,0.23486328,-0.11816406,9.277344,-22.094727,-3.2348633,3492.0,926.0,559.0,98.00903,77.11304,112.1759
1770514117316,-0.828125,0.23486328,-0.11816406,9.277344,-22.094727,-3.2348633,3492.0,926.0,559.0,87.577515,77.18445,102.55737
1770514117328,-0.828125,0.23486328,-0.11816406,9.277344,-22.094727,-3.2348633,0.0,0.0,0.0,87.577515,77.18445,102.55737
1770514117404,-1.0039062,0.19091797,0.055664062,-7.9956055,-14.099121,-2.4414062,3432.0,952.0,480.0,87.577515,77.18445,102.55737
1770514117415,-1.0039062,0.19091797,0.055664062,-7.9956055,-14.099121,-2.4414062,3432.0,952.0,480.0,81.52405,77.55798,94.86694
1770514117428,-1.0039062,0.19091797,0.055664062,-7.9956055,-14.099121,-2.4414062,0.0,0.0,0.0,81.52405,77.55798,94.86694
1770514117503,-0.9086914,0.31835938,-0.021484375,7.385254,-11.291504,-1.5258789,3340.0,928.0,339.0,81.52405,77.55798,94.86694
1770514117515,-0.9086914,0.31835938,-0.021484375,7.385254,-11.291504,-1.5258789,3340.0,928.0,339.0,76.4978,77.37671,89.82422
1770514117532,-0.9086914,0.31835938,-0.021484375,7.385254,-11.291504,-1.5258789,0.0,0.0,0.0,76.4978,77.37671,89.82422
1770514117603,-0.98779297,0.22509766,0.0234375,7.751465,-5.79834,-1.8920898,3261.0,956.0,219.0,76.4978,77.37671,89.82422
1770514117615,-0.98779297,0.22509766,0.0234375,7.751465,-5.79834,-1.8920898,3261.0,956.0,219.0,74.5697,77.20642,86.28113
1770514117627,-0.98779297,0.22509766,0.0234375,7.751465,-5.79834,-1.8920898,0.0,0.0,0.0,74.5697,77.20642,86.28113
1770514117703,-0.9550781,0.22607422,0.036621094,-3.6010742,2.2583008,-6.286621,3226.0,928.0,126.0,74.5697,77.20642,86.28113
1770514117715,-0.9550781,0.22607422,0.036621094,-3.6010742,2.2583008,-6.286621,3226.0,928.0,126.0,75.67932,77.700806,86.89636
1770514117726,-0.9550781,0.22607422,0.036621094,-3.6010742,2.2583008,-6.286621,0.0,0.0,0.0,75.67932,77.700806,86.89636
1770514117803,-1.1621094,0.35546875,-0.029785156,1.953125,12.634277,3.0517578,3196.0,913.0,119.0,75.67932,77.700806,86.89636
1770514117814,-1.1621094,0.35546875,-0.029785156,1.953125,12.634277,3.0517578,3196.0,913.0,119.0,78.31604,77.60193,89.39575
1770514117826,-1.1621094,0.35546875,-0.029785156,1.953125,12.634277,3.0517578,0.0,0.0,0.0,78.31604,77.60193,89.39575
1770514117902,-0.9560547,0.15771484,0.10546875,2.380371,-13.427734,3.2958984,3196.0,928.0,161.0,78.31604,77.60193,89.39575
1770514117914,-0.9560547,0.15771484,0.10546875,2.380371,-13.427734,3.2958984,3196.0,928.0,161.0,78.07434,77.058105,87.63245
1770514117934,-0.9560547,0.15771484,0.10546875,2.380371,-13.427734,3.2958984,0.0,0.0,0.0,78.07434,77.058105,87.63245
1770514118002,-0.9033203,0.1640625,0.20898438,-8.056641,-12.512207,6.4697266,3212.0,892.0,144.0,78.07434,77.058105,87.63245
1770514118013,-0.9033203,0.1640625,0.20898438,-8.056641,-12.512207,6.4697266,3212.0,892.0,144.0,70.09827,76.239624,80.15625
1770514118027,-0.9033203,0.1640625,0.20898438,-8.056641,-12.512207,6.4697266,0.0,0.0,0.0,70.09827,76.239624,80.15625
1770514118102,-0.88671875,0.21972656,0.060546875,-7.2021484,-3.2348633,8.666992,3161.0,883.0,24.0,70.09827,76.239624,80.15625
1770514118113,-0.88671875,0.21972656,0.060546875,-7.2021484,-3.2348633,8.666992,3161.0,883.0,24.0,69.680786,75.8551,80.46936
1770514118125,-0.88671875,0.21972656,0.060546875,-7.2021484,-3.2348633,8.666992,0.0,0.0,0.0,69.680786,75.8551,80.46936
1770514118201,-1.0258789,0.18261719,0.15966797,13.977051,0.6713867,0.61035156,3114.0,930.0,-38.0,69.680786,75.8551,80.46936
1770514118213,-1.0258789,0.18261719,0.15966797,13.977051,0.6713867,0.61035156,3114.0,930.0,-38.0,66.698,74.470825,77.492065
1770514118225,-1.0258789,0.18261719,0.15966797,13.977051,0.6713867,0.61035156,0.0,0.0,0.0,66.698,74.470825,77.492065
1770514118301,-0.9692383,0.19873047,0.026367188,-19.89746,-4.760742,11.71875,3078.0,913.0,-96.0,66.698,74.470825,77.492065
1770514118313,-0.9692383,0.19873047,0.026367188,-19.89746,-4.760742,11.71875,3078.0,913.0,-96.0,67.20886,74.80591,78.255615
1770514118324,-0.9692383,0.19873047,0.026367188,-19.89746,-4.760742,11.71875,0.0,0.0,0.0,67.20886,74.80591,78.255615
1770514118401,-1.0039062,0.22167969,0.016113281,16.845703,17.089844,-3.6010742,3078.0,918.0,-111.0,67.20886,74.80591,78.255615
1770514118412,-1.0039062,0.22167969,0.016113281,16.845703,17.089844,-3.6010742,3078.0,918.0,-111.0,68.1427,74.399414,79.09607
1770514118424,-1.0039062,0.22167969,0.016113281,16.845703,17.089844,-3.6010742,0.0,0.0,0.0,68.1427,74.399414,79.09607
1770514118501,-0.95214844,0.19335938,0.014160156,-0.91552734,18.249512,0.36621094,3084.0,931.0,-92.0,68.1427,74.399414,79.09607
1770514118512,-0.95214844,0.19335938,0.014160156,-0.91552734,18.249512,0.36621094,3084.0,931.0,-92.0,75.83862,75.30029,85.913086
1770514118524,-0.95214844,0.19335938,0.014160156,-0.91552734,18.249512,0.36621094,0.0,0.0,0.0,75.83862,75.30029,85.913086
1770514118600,-1.2890625,0.20361328,0.114746094,10.375977,28.381348,-0.48828125,3168.0,871.0,54.0,75.83862,75.30029,85.913086
1770514118612,-1.2890625,0.20361328,0.114746094,10.375977,28.381348,-0.48828125,3168.0,871.0,54.0,85.545044,75.72327,94.888916
1770514118623,-1.2890625,0.20361328,0.114746094,10.375977,28.381348,-0.48828125,0.0,0.0,0.0,85.545044,75.72327,94.888916
1770514118700,-0.93603516,0.32373047,-0.10449219,-35.52246,-1.7089844,4.9438477,3293.0,842.0,237.0,85.545044,75.72327,94.888916
1770514118711,-0.93603516,0.32373047,-0.10449219,-35.52246,-1.7089844,4.9438477,3293.0,842.0,237.0,84.034424,76.79993,95.64148
1770514118723,-0.93603516,0.32373047,-0.10449219,-35.52246,-1.7089844,4.9438477,0.0,0.0,0.0,84.034424,76.79993,95.64148
1770514118800,-0.9941406,0.38378906,0.21533203,14.343262,-19.16504,-9.887695,3316.0,899.0,345.0,84.034424,76.79993,95.64148
1770514118811,-0.9941406,0.38378906,0.21533203,14.343262,-19.16504,-9.887695,3316.0,899.0,345.0,76.069336,76.849365,87.2699
1770514118823,-0.9941406,0.38378906,0.21533203,14.343262,-19.16504,-9.887695,0.0,0.0,0.0,76.069336,76.849365,87.2699
1770514118899,-0.9082031,0.2446289,0.0,-22.827148,-4.8828125,6.7749023,3260.0,939.0,300.0,76.069336,76.849365,87.2699
1770514118911,-0.9082031,0.2446289,0.0,-22.827148,-4.8828125,6.7749023,3260.0,939.0,300.0,73.31726,76.99219,84.00696
1770514118923,-0.9082031,0.2446289,0.0,-22.827148,-4.8828125,6.7749023,0.0,0.0,0.0,73.31726,76.99219,84.00696
1770514118999,-0.88964844,0.25439453,0.044921875,18.859863,-5.004883,-3.2958984,3209.0,924.0,211.0,73.31726,76.99219,84.00696
1770514119011,-0.88964844,0.25439453,0.044921875,18.859863,-5.004883,-3.2958984,3209.0,924.0,211.0,72.05383,76.206665,83.39172
1770514119022,-0.88964844,0.25439453,0.044921875,18.859863,-5.004883,-3.2958984,0.0,0.0,0.0,72.05383,76.206665,83.39172
1770514119099,-1.0537109,0.18261719,0.14355469,-12.084961,3.1738281,-3.3569336,3168.0,960.0,158.0,72.05383,76.206665,83.39172
1770514119110,-1.0537109,0.18261719,0.14355469,-12.084961,3.1738281,-3.3569336,3168.0,960.0,158.0,71.93298,76.48682,83.0072
1770514119122,-1.0537109,0.18261719,0.14355469,-12.084961,3.1738281,-3.3569336,0.0,0.0,0.0,71.93298,76.48682,83.0072
1770514119198,-0.9946289,0.2890625,-0.08935547,4.8828125,21.1792,0.12207031,3161.0,935.0,118.0,71.93298,76.48682,83.0072
1770514119210,-0.9946289,0.2890625,-0.08935547,4.8828125,21.1792,0.12207031,3161.0,935.0,118.0,78.10181,76.92627,91.03821
1770514119221,-0.9946289,0.2890625,-0.08935547,4.8828125,21.1792,0.12207031,0.0,0.0,0.0,78.10181,76.92627,91.03821
1770514119298,-0.9145508,0.24365234,0.02734375,0.5493164,13.549805,-0.4272461,3208.0,1008.0,166.0,78.10181,76.92627,91.03821
1770514119310,-0.9145508,0.24365234,0.02734375,0.5493164,13.549805,-0.4272461,3208.0,1008.0,166.0,87.9126,77.420654,99.55261
1770514119323,-0.9145508,0.24365234,0.02734375,0.5493164,13.549805,-0.4272461,0.0,0.0,0.0,87.9126,77.420654,99.55261
1770514119398,-1.1274414,0.3701172,0.048339844,-14.404297,4.1503906,4.333496,3308.0,982.0,346.0,87.9126,77.420654,99.55261
1770514119410,-1.1274414,0.3701172,0.048339844,-14.404297,4.1503906,4.333496,3308.0,982.0,346.0,90.48889,77.25037,103.29895
1770514119421,-1.1274414,0.3701172,0.048339844,-14.404297,4.1503906,4.333496,0.0,0.0,0.0,90.48889,77.25037,103.29895
1770514119498,-0.95410156,0.09375,-0.009765625,22.827148,-2.1972656,-7.080078,3380.0,1010.0,439.0,90.48889,77.25037,103.29895
1770514119509,-0.95410156,0.09375,-0.009765625,22.827148,-2.1972656,-7.080078,3380.0,1010.0,439.0,85.45166,76.3385,98.22327
1770514119521,-0.95410156,0.09375,-0.009765625,22.827148,-2.1972656,-7.080078,0.0,0.0,0.0,85.45166,76.3385,98.22327
1770514119597,-0.9267578,0.19726562,0.21142578,-6.958008,-15.075684,8.605957,3349.0,1039.0,381.0,85.45166,76.3385,98.22327
1770514119609,-0.9267578,0.19726562,0.21142578,-6.958008,-15.075684,8.605957,3349.0,1039.0,381.0,81.0791,75.90454,94.00452
1770514119621,-0.9267578,0.19726562,0.21142578,-6.958008,-15.075684,8.605957,0.0,0.0,0.0,81.0791,75.90454,94.00452
1770514119697,-0.9326172,0.19580078,0.019042969,-6.1035156,-2.319336,4.333496,3329.0,1028.0,298.0,81.0791,75.90454,94.00452
1770514119709,-0.9326172,0.19580078,0.019042969,-6.1035156,-2.319336,4.333496,3329.0,1028.0,298.0,79.60144,75.82214,92.37305
1770514119720,-0.9326172,0.19580078,0.019042969,-6.1035156,-2.319336,4.333496,0.0,0.0,0.0,79.60144,75.82214,92.37305
1770514119797,-0.99072266,0.2397461,0.033203125,-2.319336,-6.652832,4.5166016,3308.0,1028.0,238.0,79.60144,75.82214,92.37305
1770514119808,-0.99072266,0.2397461,0.033203125,-2.319336,-6.652832,4.5166016,3308.0,1028.0,238.0,75.668335,75.51453,88.54431
1770514119822,-0.99072266,0.2397461,0.033203125,-2.319336,-6.652832,4.5166016,0.0,0.0,0.0,75.668335,75.51453,88.54431
1770514119896,-0.98876953,0.1459961,-0.022949219,1.2817383,-6.3476562,0.79345703,3280.0,1028.0,147.0,75.668335,75.51453,88.54431
1770514119908,-0.98876953,0.1459961,-0.022949219,1.2817383,-6.3476562,0.79345703,3280.0,1028.0,147.0,73.619385,74.92676,85.962524
1770514119919,-0.98876953,0.1459961,-0.022949219,1.2817383,-6.3476562,0.79345703,0.0,0.0,0.0,73.619385,74.92676,85.962524
1770514119996,-0.96777344,0.203125,0.03564453,4.1503906,5.1879883,3.2958984,3214.0,1016.0,92.0,73.619385,74.92676,85.962524
1770514120008,-0.96777344,0.203125,0.03564453,4.1503906,5.1879883,3.2958984,3214.0,1016.0,92.0,74.8938,74.94324,86.797485
1770514120028,-0.96777344,0.203125,0.03564453,4.1503906,5.1879883,3.2958984,0.0,0.0,0.0,74.8938,74.94324,86.797485
1770514120096,-0.9316406,0.17675781,-0.01171875,0.9765625,10.7421875,-0.4272461,3205.0,994.0,88.0,74.8938,74.94324,86.797485
1770514120107,-0.9316406,0.17675781,-0.01171875,0.9765625,10.7421875,-0.4272461,3205.0,994.0,88.0,78.40393,75.52002,89.70886
1770514120119,-0.9316406,0.17675781,-0.01171875,0.9765625,10.7421875,-0.4272461,0.0,0.0,0.0,78.40393,75.52002,89.70886
1770514120196,-1.0820312,0.18359375,0.17236328,9.887695,9.033203,-12.878418,3252.0,984.0,108.0,78.40393,75.52002,89.70886
1770514120207,-1.0820312,0.18359375,0.17236328,9.887695,9.033203,-12.878418,3252.0,984.0,108.0,84.32556,76.014404,94.94385
1770514120218,-1.0820312,0.18359375,0.17236328,9.887695,9.033203,-12.878418,0.0,0.0,0.0,84.32556,76.014404,94.94385
1770514120295,-0.91503906,0.26660156,-0.044921875,-1.0375977,-3.90625,0.8544922,3279.0,950.0,251.0,84.32556,76.014404,94.94385
1770514120307,-0.91503906,0.26660156,-0.044921875,-1.0375977,-3.90625,0.8544922,3279.0,950.0,251.0,80.01343,76.36597,91.224976
1770514120319,-0.91503906,0.26660156,-0.044921875,-1.0375977,-3.90625,0.8544922,0.0,0.0,0.0,80.01343,76.36597,91.224976
1770514120395,-1.0356445,0.22216797,0.19042969,4.333496,-12.817383,-13.183594,3274.0,936.0,270.0,80.01343,76.36597,91.224976
1770514120407,-1.0356445,0.22216797,0.19042969,4.333496,-12.817383,-13.183594,3274.0,936.0,270.0,75.305786,76.95923,85.149536
1770514120419,-1.0356445,0.22216797,0.19042969,4.333496,-12.817383,-13.183594,0.0,0.0,0.0,75.305786,76.95923,85.149536
1770514120495,-0.8984375,0.30664062,0.032714844,-12.207031,-9.765625,3.7231445,3213.0,910.0,242.0,75.305786,76.95923,85.149536
1770514120506,-0.8984375,0.30664062,0.032714844,-12.207031,-9.765625,3.7231445,3213.0,910.0,242.0,71.07056,76.92627,81.760254
1770514120518,-0.8984375,0.30664062,0.032714844,-12.207031,-9.765625,3.7231445,0.0,0.0,0.0,71.07056,76.92627,81.760254
1770514120594,-0.9345703,0.234375,0.018554688,13.244629,-2.6245117,-0.8544922,3144.0,941.0,122.0,71.07056,76.92627,81.760254
1770514120606,-0.9345703,0.234375,0.018554688,13.244629,-2.6245117,-0.8544922,3144.0,941.0,122.0,69.29077,76.35498,79.348755
1770514120617,-0.9345703,0.234375,0.018554688,13.244629,-2.6245117,-0.8544922,0.0,0.0,0.0,69.29077,76.35498,79.348755
1770514120694,-0.99658203,0.20361328,0.08496094,-8.422852,6.164551,-3.4179688,3108.0,929.0,93.0,69.29077,76.35498,79.348755
1770514120706,-0.99658203,0.20361328,0.08496094,-8.422852,6.164551,-3.4179688,3108.0,929.0,93.0,71.09802,76.62964,80.95276
1770514120718,-0.99658203,0.20361328,0.08496094,-8.422852,6.164551,-3.4179688,0.0,0.0,0.0,71.09802,76.62964,80.95276
1770514120794,-0.94873047,0.3076172,-0.015625,-10.498047,11.779785,2.6245117,3112.0,936.0,72.0,71.09802,76.62964,80.95276
1770514120805,-0.94873047,0.3076172,-0.015625,-10.498047,11.779785,2.6245117,3112.0,936.0,72.0,75.02014,77.0636,86.13281
1770514120826,-0.94873047,0.3076172,-0.015625,-10.498047,11.779785,2.6245117,0.0,0.0,0.0,75.02014,77.0636,86.13281
1770514120894,-1.0585938,0.27490234,0.079589844,1.4038086,-3.7841797,2.1972656,3159.0,995.0,105.0,75.02014,77.0636,86.13281
1770514120905,-1.0585938,0.27490234,0.079589844,1.4038086,-3.7841797,2.1972656,3159.0,995.0,105.0,78.62366,77.283325,89.96155
1770514120916,-1.0585938,0.27490234,0.079589844,1.4038086,-3.7841797,2.1972656,0.0,0.0,0.0,78.62366,77.283325,89.96155
1770514120993,-0.8359375,0.1796875,0.0625,-0.6713867,-13.305664,7.751465,3225.0,1053.0,144.0,78.62366,77.283325,89.96155
1770514121005,-0.8359375,0.1796875,0.0625,-0.6713867,-13.305664,7.751465,3225.0,1053.0,144.0,72.68555,75.93201,84.14978
1770514121016,-0.8359375,0.1796875,0.0625,-0.6713867,-13.305664,7.751465,0.0,0.0,0.0,72.68555,75.93201,84.14978
1770514121093,-1.0874023,0.16064453,0.21435547,-8.361816,-0.8544922,8.544922,3193.0,1066.0,98.0,72.68555,75.93201,84.14978
1770514121105,-1.0874023,0.16064453,0.21435547,-8.361816,-0.8544922,8.544922,3193.0,1066.0,98.0,73.43262,75.39368,85.62744
1770514121116,-1.0874023,0.16064453,0.21435547,-8.361816,-0.8544922,8.544922,0.0,0.0,0.0,73.43262,75.39368,85.62744
1770514121193,-0.9042969,0.23046875,0.056152344,-1.3427734,-8.056641,2.9907227,3199.0,1078.0,70.0,73.43262,75.39368,85.62744
1770514121204,-0.9042969,0.23046875,0.056152344,-1.3427734,-8.056641,2.9907227,3199.0,1078.0,70.0,71.24634,74.87732,84.14429
1770514121216,-0.9042969,0.23046875,0.056152344,-1.3427734,-8.056641,2.9907227,0.0,0.0,0.0,71.24634,74.87732,84.14429
1770514121292,-0.98828125,0.18457031,0.103515625,-3.3569336,-4.638672,5.92041,3193.0,1108.0,34.0,71.24634,74.87732,84.14429
1770514121304,-0.98828125,0.18457031,0.103515625,-3.3569336,-4.638672,5.92041,3193.0,1108.0,34.0,69.54895,74.0918,82.732544
1770514121317,-0.98828125,0.18457031,0.103515625,-3.3569336,-4.638672,5.92041,0.0,0.0,0.0,69.54895,74.0918,82.732544
1770514121392,-0.97265625,0.21240234,0.053710938,2.6855469,0.36621094,0.36621094,3150.0,1121.0,0.0,69.54895,74.0918,82.732544
1770514121403,-0.97265625,0.21240234,0.053710938,2.6855469,0.36621094,0.36621094,3150.0,1121.0,0.0,68.20862,73.99292,80.95825
1770514121415,-0.97265625,0.21240234,0.053710938,2.6855469,0.36621094,0.36621094,0.0,0.0,0.0,68.20862,73.99292,80.95825
1770514121492,-0.9838867,0.14355469,0.03515625,2.1972656,17.39502,-6.8969727,3107.0,1131.0,-39.0,68.20862,73.99292,80.95825
1770514121503,-0.9838867,0.14355469,0.03515625,2.1972656,17.39502,-6.8969727,3107.0,1131.0,-39.0,71.85608,74.73999,83.97949
1770514121517,-0.9838867,0.14355469,0.03515625,2.1972656,17.39502,-6.8969727,0.0,0.0,0.0,71.85608,74.73999,83.97949
1770514121591,-1.1816406,0.27294922,0.048828125,9.58252,20.874023,-8.972168,3164.0,1107.0,11.0,71.85608,74.73999,83.97949
1770514121603,-1.1816406,0.27294922,0.048828125,9.58252,20.874023,-8.972168,3164.0,1107.0,11.0,79.332275,76.45935,90.57129
1770514121622,-1.1816406,0.27294922,0.048828125,9.58252,20.874023,-8.972168,0.0,0.0,0.0,79.332275,76.45935,90.57129
1770514121691,-0.91015625,0.29833984,0.061035156,-3.6010742,-17.51709,-1.159668,3253.0,1076.0,131.0,79.332275,76.45935,90.57129
1770514121703,-0.91015625,0.29833984,0.061035156,-3.6010742,-17.51709,-1.159668,3253.0,1076.0,131.0,77.83264,77.17346,89.20349
1770514121715,-0.91015625,0.29833984,0.061035156,-3.6010742,-17.51709,-1.159668,0.0,0.0,0.0,77.83264,77.17346,89.20349
1770514121791,-1.0332031,0.22949219,0.20410156,17.944336,-5.79834,-11.413574,3285.0,1075.0,217.0,77.83264,77.17346,89.20349
1770514121802,-1.0332031,0.22949219,0.20410156,17.944336,-5.79834,-11.413574,3285.0,1075.0,217.0,75.3772,77.89307,84.59473
1770514121814,-1.0332031,0.22949219,0.20410156,17.944336,-5.79834,-11.413574,0.0,0.0,0.0,75.3772,77.89307,84.59473
1770514121891,-0.9145508,0.265625,-0.014160156,5.859375,-4.4555664,-0.30517578,3242.0,1036.0,191.0,75.3772,77.89307,84.59473
1770514121902,-0.9145508,0.265625,-0.014160156,5.859375,-4.4555664,-0.30517578,3242.0,1036.0,191.0,69.85657,77.71179,79.436646
1770514121913,-0.9145508,0.265625,-0.014160156,5.859375,-4.4555664,-0.30517578,0.0,0.0,0.0,69.85657,77.71179,79.436646
1770514121990,-0.9013672,0.2241211,0.024902344,20.507812,1.0986328,3.7841797,3181.0,1039.0,108.0,69.85657,77.71179,79.436646
1770514122002,-0.9013672,0.2241211,0.024902344,20.507812,1.0986328,3.7841797,3181.0,1039.0,108.0,70.80139,77.37671,78.52478
1770514122013,-0.9013672,0.2241211,0.024902344,20.507812,1.0986328,3.7841797,0.0,0.0,0.0,70.80139,77.37671,78.52478
1770514122090,-1.0185547,0.15673828,0.0048828125,-0.36621094,4.4555664,-0.18310547,3156.0,986.0,79.0,70.80139,77.37671,78.52478
1770514122101,-1.0185547,0.15673828,0.0048828125,-0.36621094,4.4555664,-0.18310547,3156.0,986.0,79.0,75.84961,77.13501,82.490845
1770514122113,-1.0185547,0.15673828,0.0048828125,-0.36621094,4.4555664,-0.18310547,0.0,0.0,0.0,75.84961,77.13501,82.490845
1770514122190,-0.95996094,0.29492188,-0.030273438,-11.352539,9.338379,0.79345703,3178.0,857.0,159.0,75.84961,77.13501,82.490845
1770514122201,-0.95996094,0.29492188,-0.030273438,-11.352539,9.338379,0.79345703,3178.0,857.0,159.0,78.64563,77.541504,86.41846
1770514122214,-0.95996094,0.29492188,-0.030273438,-11.352539,9.338379,0.79345703,0.0,0.0,0.0,78.64563,77.541504,86.41846
1770514122289,-1.0830078,0.24853516,0.09375,0.30517578,6.591797,5.92041,3225.0,882.0,190.0,78.64563,77.541504,86.41846
1770514122301,-1.0830078,0.24853516,0.09375,0.30517578,6.591797,5.92041,3225.0,882.0,190.0,83.166504,77.21741,91.571045
1770514122312,-1.0830078,0.24853516,0.09375,0.30517578,6.591797,5.92041,0.0,0.0,0.0,83.166504,77.21741,91.571045
1770514122389,-0.8911133,0.16894531,-0.0126953125,-1.2817383,-13.85498,1.2817383,3276.0,915.0,249.0,83.166504,77.21741,91.571045
1770514122401,-0.8911133,0.16894531,-0.0126953125,-1.2817383,-13.85498,1.2817383,3276.0,915.0,249.0,78.359985,76.99768,86.42944
1770514122417,-0.8911133,0.16894531,-0.0126953125,-1.2817383,-13.85498,1.2817383,0.0,0.0,0.0,78.359985,76.99768,86.42944
1770514122489,-1.1499023,0.12939453,0.21191406,-3.540039,-6.4697266,-0.8544922,3245.0,922.0,196.0,78.359985,76.99768,86.42944
1770514122500,-1.1499023,0.12939453,0.21191406,-3.540039,-6.4697266,-0.8544922,3245.0,922.0,196.0,71.53198,76.97571,80.024414
1770514122512,-1.1499023,0.12939453,0.21191406,-3.540039,-6.4697266,-0.8544922,0.0,0.0,0.0,71.53198,76.97571,80.024414
1770514122589,-0.8823242,0.19921875,0.05126953,-8.361816,-16.357422,3.8452148,3152.0,975.0,47.0,71.53198,76.97571,80.024414
1770514122601,-0.8823242,0.19921875,0.05126953,-8.361816,-16.357422,3.8452148,3152.0,975.0,47.0,70.3949,76.57471,79.22241
1770514122613,-0.8823242,0.19921875,0.05126953,-8.361816,-16.357422,3.8452148,0.0,0.0,0.0,70.3949,76.57471,79.22241
1770514122688,-0.9921875,0.1484375,0.14648438,4.638672,-4.1503906,5.065918,3126.0,983.0,5.0,70.3949,76.57471,79.22241
1770514122700,-0.9921875,0.1484375,0.14648438,4.638672,-4.1503906,5.065918,3126.0,983.0,5.0,66.329956,75.94299,75.443115
1770514122718,-0.9921875,0.1484375,0.14648438,4.638672,-4.1503906,5.065918,0.0,0.0,0.0,66.329956,75.94299,75.443115
1770514122788,-0.9663086,0.22216797,0.022460938,-13.366699,0.36621094,5.6152344,3107.0,1023.0,-92.0,66.329956,75.94299,75.443115
1770514122800,-0.9663086,0.22216797,0.022460938,-13.366699,0.36621094,5.6152344,3107.0,1023.0,-92.0,66.22009,75.74524,75.58594
1770514122811,-0.9663086,0.22216797,0.022460938,-13.366699,0.36621094,5.6152344,0.0,0.0,0.0,66.22009,75.74524,75.58594
1770514122888,-0.96728516,0.17675781,-0.020507812,8.666992,18.432617,2.746582,3078.0,1020.0,-122.0,66.22009,75.74524,75.58594
1770514122899,-0.96728516,0.17675781,-0.020507812,8.666992,18.432617,2.746582,3078.0,1020.0,-122.0,69.75769,75.877075,78.86536
1770514122910,-0.96728516,0.17675781,-0.020507812,8.666992,18.432617,2.746582,0.0,0.0,0.0,69.75769,75.877075,78.86536
1770514122987,-1.0800781,0.13378906,0.15771484,8.972168,6.225586,-3.6010742,3098.0,1055.0,-117.0,69.75769,75.877075,78.86536
1770514122999,-1.0800781,0.13378906,0.15771484,8.972168,6.225586,-3.6010742,3098.0,1055.0,-117.0,75.38818,76.03088,83.39172
1770514123010,-1.0800781,0.13378906,0.15771484,8.972168,6.225586,-3.6010742,0.0,0.0,0.0,75.38818,76.03088,83.39172
1770514123087,-1.0097656,0.24169922,-0.021484375,5.1879883,13.000488,4.638672,3146.0,1025.0,14.0,75.38818,76.03088,83.39172
1770514123098,-1.0097656,0.24169922,-0.021484375,5.1879883,13.000488,4.638672,3146.0,1025.0,14.0,75.17395,76.40991,83.71582
1770514123115,-1.0097656,0.24169922,-0.021484375,5.1879883,13.000488,4.638672,0.0,0.0,0.0,75.17395,76.40991,83.71582
1770514123187,-0.99316406,0.35498047,0.15283203,1.4038086,-11.291504,-5.3100586,3162.0,1005.0,75.0,75.17395,76.40991,83.71582
1770514123198,-0.99316406,0.35498047,0.15283203,1.4038086,-11.291504,-5.3100586,3162.0,1005.0,75.0,71.60339,76.77246,77.00867
1770514123209,-0.99316406,0.35498047,0.15283203,1.4038086,-11.291504,-5.3100586,0.0,0.0,0.0,71.60339,76.77246,77.00867
1770514123286,-0.8901367,0.22070312,0.095703125,10.131836,9.887695,-6.286621,3160.0,882.0,118.0,71.60339,76.77246,77.00867
1770514123298,-0.8901367,0.22070312,0.095703125,10.131836,9.887695,-6.286621,3160.0,882.0,118.0,73.899536,77.60742,78.66211
1770514123309,-0.8901367,0.22070312,0.095703125,10.131836,9.887695,-6.286621,0.0,0.0,0.0,73.899536,77.60742,78.66211
1770514123386,-0.9248047,0.2524414,-0.0063476562,6.4086914,3.7231445,-5.1879883,3157.0,796.0,138.0,73.899536,77.60742,78.66211
1770514123398,-0.9248047,0.2524414,-0.0063476562,6.4086914,3.7231445,-5.1879883,3157.0,796.0,138.0,74.82239,77.40967,81.4032
1770514123409,-0.9248047,0.2524414,-0.0063476562,6.4086914,3.7231445,-5.1879883,0.0,0.0,0.0,74.82239,77.40967,81.4032
1770514123486,-0.9736328,0.21191406,0.033691406,-11.230469,17.028809,-3.3569336,3193.0,806.0,179.0,74.82239,77.40967,81.4032
1770514123497,-0.9736328,0.21191406,0.033691406,-11.230469,17.028809,-3.3569336,3193.0,806.0,179.0,79.90906,78.03589,86.18225
1770514123509,-0.9736328,0.21191406,0.033691406,-11.230469,17.028809,-3.3569336,0.0,0.0,0.0,79.90906,78.03589,86.18225
1770514123585,-0.95654297,0.23486328,-0.1171875,-24.841309,15.136719,-6.8359375,3227.0,801.0,232.0,79.90906,78.03589,86.18225
1770514123597,-0.95654297,0.23486328,-0.1171875,-24.841309,15.136719,-6.8359375,3227.0,801.0,232.0,87.802734,78.46985,96.295166
1770514123610,-0.95654297,0.23486328,-0.1171875,-24.841309,15.136719,-6.8359375,0.0,0.0,0.0,87.802734,78.46985,96.295166
1770514123685,-1.2080078,0.2607422,0.09814453,-7.873535,1.2817383,-7.019043,3326.0,872.0,335.0,87.802734,78.46985,96.295166
1770514123697,-1.2080078,0.2607422,0.09814453,-7.873535,1.2817383,-7.019043,3326.0,872.0,335.0,92.631226,79.678345,102.941895
1770514123708,-1.2080078,0.2607422,0.09814453,-7.873535,1.2817383,-7.019043,0.0,0.0,0.0,92.631226,79.678345,102.941895
1770514123785,-0.8515625,0.23486328,-0.026367188,-32.409668,-10.864258,7.446289,3377.0,1034.0,396.0,92.631226,79.678345,102.941895
1770514123796,-0.8515625,0.23486328,-0.026367188,-32.409668,-10.864258,7.446289,3377.0,1034.0,396.0,85.583496,78.618164,97.075195
1770514123808,-0.8515625,0.23486328,-0.026367188,-32.409668,-10.864258,7.446289,0.0,0.0,0.0,85.583496,78.618164,97.075195
1770514123885,-1.1645508,0.07080078,0.23925781,-0.5493164,0.5493164,-0.4272461,3383.0,1097.0,308.0,85.583496,78.618164,97.075195
1770514123896,-1.1645508,0.07080078,0.23925781,-0.5493164,0.5493164,-0.4272461,3383.0,1097.0,308.0,81.28784,78.76648,94.56482
1770514123907,-1.1645508,0.07080078,0.23925781,-0.5493164,0.5493164,-0.4272461,0.0,0.0,0.0,81.28784,78.76648,94.56482
1770514123984,-0.87353516,0.20800781,-0.0234375,-4.333496,-4.4555664,5.2490234,3358.0,1215.0,208.0,81.28784,78.76648,94.56482
1770514123996,-0.87353516,0.20800781,-0.0234375,-4.333496,-4.4555664,5.2490234,3358.0,1215.0,208.0,84.24866,78.09631,98.9978
1770514124007,-0.87353516,0.20800781,-0.0234375,-4.333496,-4.4555664,5.2490234,0.0,0.0,0.0,84.24866,78.09631,98.9978
1770514124084,-1.0063477,0.099121094,0.021484375,8.422852,1.5869141,1.0375977,3390.0,1252.0,246.0,84.24866,78.09631,98.9978
1770514124096,-1.0063477,0.099121094,0.021484375,8.422852,1.5869141,1.0375977,3390.0,1252.0,246.0,82.353516,78.1897,96.08093
1770514124107,-1.0063477,0.099121094,0.021484375,8.422852,1.5869141,1.0375977,0.0,0.0,0.0,82.353516,78.1897,96.08093
1770514124184,-1.0058594,0.16455078,-0.028320312,6.713867,-0.6713867,0.9765625,3385.0,1264.0,207.0,82.353516,78.1897,96.08093
1770514124195,-1.0058594,0.16455078,-0.028320312,6.713867,-0.6713867,0.9765625,3385.0,1264.0,207.0,83.430176,78.36548,96.15784
1770514124207,-1.0058594,0.16455078,-0.028320312,6.713867,-0.6713867,0.9765625,0.0,0.0,0.0,83.430176,78.36548,96.15784
1770514124283,-1.0009766,0.110839844,-0.068359375,16.967773,11.169434,-2.380371,3398.0,1212.0,237.0,83.430176,78.36548,96.15784
1770514124295,-1.0009766,0.110839844,-0.068359375,16.967773,11.169434,-2.380371,3398.0,1212.0,237.0,87.9126,78.73901,99.036255
1770514124306,-1.0009766,0.110839844,-0.068359375,16.967773,11.169434,-2.380371,0.0,0.0,0.0,87.9126,78.73901,99.036255
1770514124383,-1.0161133,0.20751953,0.16455078,14.404297,4.699707,-2.9907227,3412.0,1152.0,262.0,87.9126,78.73901,99.036255
1770514124395,-1.0161133,0.20751953,0.16455078,14.404297,4.699707,-2.9907227,3412.0,1152.0,262.0,95.39978,78.881836,105.25452
1770514124406,-1.0161133,0.20751953,0.16455078,14.404297,4.699707,-2.9907227,0.0,0.0,0.0,95.39978,78.881836,105.25452
1770514124483,-0.81933594,0.19384766,-0.080078125,16.296387,-6.4086914,-0.36621094,3475.0,1071.0,394.0,95.39978,78.881836,105.25452
1770514124494,-0.81933594,0.19384766,-0.080078125,16.296387,-6.4086914,-0.36621094,3475.0,1071.0,394.0,85.56152,79.38721,94.75708
1770514124506,-0.81933594,0.19384766,-0.080078125,16.296387,-6.4086914,-0.36621094,0.0,0.0,0.0,85.56152,79.38721,94.75708
1770514124583,-1.081543,0.20654297,0.12402344,10.986328,-13.48877,-6.0424805,3409.0,1003.0,302.0,85.56152,79.38721,94.75708
1770514124594,-1.081543,0.20654297,0.12402344,10.986328,-13.48877,-6.0424805,3409.0,1003.0,302.0,79.57947,79.44763,86.59973
1770514124610,-1.081543,0.20654297,0.12402344,10.986328,-13.48877,-6.0424805,0.0,0.0,0.0,79.57947,79.44763,86.59973
1770514124682,-0.8984375,0.2602539,0.0048828125,-6.164551,-0.79345703,4.760742,3345.0,906.0,246.0,79.57947,79.44763,86.59973
1770514124694,-0.8984375,0.2602539,0.0048828125,-6.164551,-0.79345703,4.760742,3345.0,906.0,246.0,77.03064,79.59595,84.44641
1770514124705,-0.8984375,0.2602539,0.0048828125,-6.164551,-0.79345703,4.760742,0.0,0.0,0.0,77.03064,79.59595,84.44641
1770514124782,-0.9970703,0.20605469,-9.765625E-4,1.2207031,-0.8544922,4.760742,3292.0,892.0,172.0,77.03064,79.59595,84.44641
1770514124794,-0.9970703,0.20605469,-9.765625E-4,1.2207031,-0.8544922,4.760742,3292.0,892.0,172.0,76.48682,78.59619,84.314575
1770514124805,-0.9970703,0.20605469,-9.765625E-4,1.2207031,-0.8544922,4.760742,0.0,0.0,0.0,76.48682,78.59619,84.314575
1770514124882,-0.9482422,0.20605469,0.005859375,-13.549805,-0.12207031,1.7700195,3252.0,897.0,132.0,76.48682,78.59619,84.314575
1770514124893,-0.9482422,0.20605469,0.005859375,-13.549805,-0.12207031,1.7700195,3252.0,897.0,132.0,77.23389,78.359985,85.6604
1770514124915,-0.9482422,0.20605469,0.005859375,-13.549805,-0.12207031,1.7700195,0.0,0.0,0.0,77.23389,78.359985,85.6604
1770514124981,-0.9794922,0.21777344,-0.018066406,-15.625,3.112793,-2.746582,3268.0,921.0,124.0,77.23389,78.359985,85.6604
1770514124993,-0.9794922,0.21777344,-0.018066406,-15.625,3.112793,-2.746582,3268.0,921.0,124.0,77.64038,78.480835,86.75903
1770514125004,-0.9794922,0.21777344,-0.018066406,-15.625,3.112793,-2.746582,0.0,0.0,0.0,77.64038,78.480835,86.75903
1770514125081,-0.8989258,0.30419922,0.14941406,-8.7890625,-18.615723,7.6904297,3277.0,977.0,101.0,77.64038,78.480835,86.75903
1770514125093,-0.8989258,0.30419922,0.14941406,-8.7890625,-18.615723,7.6904297,3277.0,977.0,101.0,75.217896,78.32153,85.60547
1770514125104,-0.8989258,0.30419922,0.14941406,-8.7890625,-18.615723,7.6904297,0.0,0.0,0.0,75.217896,78.32153,85.60547
1770514125181,-0.99072266,0.0625,0.05810547,-3.7841797,9.216309,-3.90625,3272.0,1098.0,72.0,75.217896,78.32153,85.60547
1770514125192,-0.99072266,0.0625,0.05810547,-3.7841797,9.216309,-3.90625,3272.0,1098.0,72.0,72.421875,77.42615,83.204956
1770514125214,-0.99072266,0.0625,0.05810547,-3.7841797,9.216309,-3.90625,0.0,0.0,0.0,72.421875,77.42615,83.204956
1770514125280,-0.9682617,0.18554688,0.04736328,-12.939453,5.065918,12.756348,3229.0,1141.0,3.0,72.421875,77.42615,83.204956
1770514125292,-0.9682617,0.18554688,0.04736328,-12.939453,5.065918,12.756348,3229.0,1141.0,3.0,74.72351,77.11853,86.19324
1770514125309,-0.9682617,0.18554688,0.04736328,-12.939453,5.065918,12.756348,0.0,0.0,0.0,74.72351,77.11853,86.19324
1770514125380,-0.97265625,0.17333984,0.049804688,0.91552734,-10.986328,5.2490234,3250.0,1177.0,13.0,74.72351,77.11853,86.19324
1770514125392,-0.97265625,0.17333984,0.049804688,0.91552734,-10.986328,5.2490234,3250.0,1177.0,13.0,72.23511,76.47034,83.325806
1770514125403,-0.97265625,0.17333984,0.049804688,0.91552734,-10.986328,5.2490234,0.0,0.0,0.0,72.23511,76.47034,83.325806
1770514125480,-0.9790039,0.100097656,0.032714844,-3.2348633,-7.385254,1.4648438,3241.0,1184.0,0.0,72.23511,76.47034,83.325806
1770514125491,-0.9790039,0.100097656,0.032714844,-3.2348633,-7.385254,1.4648438,3241.0,1184.0,0.0,70.21912,75.87158,80.92529
1770514125503,-0.9790039,0.100097656,0.032714844,-3.2348633,-7.385254,1.4648438,0.0,0.0,0.0,70.21912,75.87158,80.92529
1770514125580,-0.97509766,0.22851562,0.025390625,0.36621094,8.117676,0.79345703,3228.0,1146.0,-51.0,70.21912,75.87158,80.92529
1770514125591,-0.97509766,0.22851562,0.025390625,0.36621094,8.117676,0.79345703,3228.0,1146.0,-51.0,70.69702,76.190186,81.33179
1770514125602,-0.97509766,0.22851562,0.025390625,0.36621094,8.117676,0.79345703,0.0,0.0,0.0,70.69702,76.190186,81.33179
1770514125679,-0.9941406,0.11279297,-0.056152344,17.944336,22.644043,-2.380371,3211.0,1162.0,-42.0,70.69702,76.190186,81.33179
1770514125691,-0.9941406,0.11279297,-0.056152344,17.944336,22.644043,-2.380371,3211.0,1162.0,-42.0,79.65088,76.88782,88.58276
1770514125702,-0.9941406,0.11279297,-0.056152344,17.944336,22.644043,-2.380371,0.0,0.0,0.0,79.65088,76.88782,88.58276
1770514125779,-1.1049805,0.30126953,0.2861328,0.36621094,-11.901855,-3.6010742,3257.0,1133.0,53.0,79.65088,76.88782,88.58276
1770514125790,-1.1049805,0.30126953,0.2861328,0.36621094,-11.901855,-3.6010742,3257.0,1133.0,53.0,85.31433,77.6239,93.098145
1770514125802,-1.1049805,0.30126953,0.2861328,0.36621094,-11.901855,-3.6010742,0.0,0.0,0.0,85.31433,77.6239,93.098145
1770514125879,-0.8886719,0.24707031,-0.010253906,24.902344,1.2817383,-11.59668,3339.0,1049.0,205.0,85.31433,77.6239,93.098145
1770514125890,-0.8886719,0.24707031,-0.010253906,24.902344,1.2817383,-11.59668,3339.0,1049.0,205.0,86.7865,78.513794,94.55383
1770514125901,-0.8886719,0.24707031,-0.010253906,24.902344,1.2817383,-11.59668,0.0,0.0,0.0,86.7865,78.513794,94.55383
1770514125978,-0.9379883,0.203125,0.06298828,19.16504,-10.803223,-6.3476562,3332.0,1039.0,288.0,86.7865,78.513794,94.55383
1770514125990,-0.9379883,0.203125,0.06298828,19.16504,-10.803223,-6.3476562,3332.0,1039.0,288.0,80.79346,78.93677,87.5061
1770514126001,-0.9379883,0.203125,0.06298828,19.16504,-10.803223,-6.3476562,0.0,0.0,0.0,80.79346,78.93677,87.5061
1770514126078,-0.890625,0.23242188,0.030273438,-2.9907227,4.0893555,1.8920898,3267.0,1007.0,271.0,80.79346,78.93677,87.5061
1770514126090,-0.890625,0.23242188,0.030273438,-2.9907227,4.0893555,1.8920898,3267.0,1007.0,271.0,80.26062,79.107056,86.4624
1770514126110,-0.890625,0.23242188,0.030273438,-2.9907227,4.0893555,1.8920898,0.0,0.0,0.0,80.26062,79.107056,86.4624
1770514126178,-0.9707031,0.21875,-0.00390625,-3.3569336,6.0424805,3.2958984,3285.0,945.0,230.0,80.26062,79.107056,86.4624
1770514126189,-0.9707031,0.21875,-0.00390625,-3.3569336,6.0424805,3.2958984,3285.0,945.0,230.0,83.25989,78.71704,89.96155
1770514126201,-0.9707031,0.21875,-0.00390625,-3.3569336,6.0424805,3.2958984,0.0,0.0,0.0,83.25989,78.71704,89.96155
1770514126277,-0.94873047,0.18554688,-0.047851562,-12.573242,9.033203,-3.7231445,3310.0,922.0,278.0,83.25989,78.71704,89.96155
1770514126289,-0.94873047,0.18554688,-0.047851562,-12.573242,9.033203,-3.7231445,3310.0,922.0,278.0,87.18201,78.75,94.81201
1770514126301,-0.94873047,0.18554688,-0.047851562,-12.573242,9.033203,-3.7231445,0.0,0.0,0.0,87.18201,78.75,94.81201
1770514126377,-0.94189453,0.2631836,-0.083496094,-16.418457,4.9438477,-2.5024414,3357.0,954.0,308.0,87.18201,78.75,94.81201
1770514126389,-0.94189453,0.2631836,-0.083496094,-16.418457,4.9438477,-2.5024414,3357.0,954.0,308.0,88.74756,78.85986,98.23425
1770514126400,-0.94189453,0.2631836,-0.083496094,-16.418457,4.9438477,-2.5024414,0.0,0.0,0.0,88.74756,78.85986,98.23425
1770514126477,-0.96728516,0.25341797,0.20214844,1.0375977,-26.672363,7.1411133,3394.0,1033.0,340.0,88.74756,78.85986,98.23425
1770514126489,-0.96728516,0.25341797,0.20214844,1.0375977,-26.672363,7.1411133,3394.0,1033.0,340.0,86.76453,78.50281,96.99829
1770514126500,-0.96728516,0.25341797,0.20214844,1.0375977,-26.672363,7.1411133,0.0,0.0,0.0,86.76453,78.50281,96.99829
1770514126577,-0.96533203,0.18359375,-0.0024414062,-5.126953,-4.272461,3.540039,3386.0,1117.0,335.0,86.76453,78.50281,96.99829
1770514126588,-0.96533203,0.18359375,-0.0024414062,-5.126953,-4.272461,3.540039,3386.0,1117.0,335.0,79.98047,77.60742,90.52734
1770514126607,-0.96533203,0.18359375,-0.0024414062,-5.126953,-4.272461,3.540039,0.0,0.0,0.0,79.98047,77.60742,90.52734
1770514126677,-0.99853516,0.13134766,0.05908203,4.8828125,3.540039,0.6713867,3336.0,1124.0,211.0,79.98047,77.60742,90.52734
1770514126688,-0.99853516,0.13134766,0.05908203,4.8828125,3.540039,0.6713867,3336.0,1124.0,211.0,80.50232,77.37671,90.91736
1770514126699,-0.99853516,0.13134766,0.05908203,4.8828125,3.540039,0.6713867,0.0,0.0,0.0,80.50232,77.37671,90.91736
1770514126776,-0.92871094,0.11425781,0.015625,-10.437012,-5.554199,-0.48828125,3331.0,1107.0,181.0,80.50232,77.37671,90.91736
1770514126788,-0.92871094,0.11425781,0.015625,-10.437012,-5.554199,-0.48828125,3331.0,1107.0,181.0,78.09631,77.44812,89.20349
1770514126803,-0.92871094,0.11425781,0.015625,-10.437012,-5.554199,-0.48828125,0.0,0.0,0.0,78.09631,77.44812,89.20349
1770514126876,-0.97753906,0.23535156,0.0053710938,-12.451172,-8.361816,7.507324,3339.0,1125.0,154.0,78.09631,77.44812,89.20349
1770514126888,-0.97753906,0.23535156,0.0053710938,-12.451172,-8.361816,7.507324,3339.0,1125.0,154.0,75.09155,77.43713,87.09412
1770514126899,-0.97753906,0.23535156,0.0053710938,-12.451172,-8.361816,7.507324,0.0,0.0,0.0,75.09155,77.43713,87.09412
1770514126975,-0.98095703,0.1640625,-0.026855469,8.056641,-3.4179688,5.1879883,3304.0,1186.0,81.0,75.09155,77.43713,87.09412
1770514126987,-0.98095703,0.1640625,-0.026855469,8.056641,-3.4179688,5.1879883,3304.0,1186.0,81.0,73.306274,76.519775,84.75403
1770514126999,-0.98095703,0.1640625,-0.026855469,8.056641,-3.4179688,5.1879883,0.0,0.0,0.0,73.306274,76.519775,84.75403
1770514127075,-0.97021484,0.11669922,-0.040527344,8.7890625,15.197754,0.7324219,3260.0,1178.0,19.0,73.306274,76.519775,84.75403
1770514127087,-0.97021484,0.11669922,-0.040527344,8.7890625,15.197754,0.7324219,3260.0,1178.0,19.0,78.29407,76.624146,88.52234
1770514127098,-0.97021484,0.11669922,-0.040527344,8.7890625,15.197754,0.7324219,0.0,0.0,0.0,78.29407,76.624146,88.52234
1770514127175,-1.0053711,0.23144531,0.15722656,13.305664,2.4414062,-10.070801,3264.0,1167.0,66.0,78.29407,76.624146,88.52234
1770514127186,-1.0053711,0.23144531,0.15722656,13.305664,2.4414062,-10.070801,3264.0,1167.0,66.0,85.46265,77.27234,94.487915
1770514127208,-1.0053711,0.23144531,0.15722656,13.305664,2.4414062,-10.070801,0.0,0.0,0.0,85.46265,77.27234,94.487915
1770514127274,-0.89404297,0.16601562,-0.03173828,24.169922,-4.272461,-15.625,3353.0,1119.0,188.0,85.46265,77.27234,94.487915
1770514127286,-0.89404297,0.16601562,-0.03173828,24.169922,-4.272461,-15.625,3353.0,1119.0,188.0,78.826904,77.99194,87.23694
1770514127298,-0.89404297,0.16601562,-0.03173828,24.169922,-4.272461,-15.625,0.0,0.0,0.0,78.826904,77.99194,87.23694
1770514127374,-0.9472656,0.28808594,0.17236328,5.554199,-17.51709,-1.159668,3291.0,1099.0,143.0,78.826904,77.99194,87.23694
1770514127386,-0.9472656,0.28808594,0.17236328,5.554199,-17.51709,-1.159668,3291.0,1099.0,143.0,68.098755,77.92053,75.18494
1770514127398,-0.9472656,0.28808594,0.17236328,5.554199,-17.51709,-1.159668,0.0,0.0,0.0,68.098755,77.92053,75.18494
1770514127474,-0.9399414,0.21191406,0.063964844,-0.8544922,-3.6621094,-4.272461,3194.0,1050.0,34.0,68.098755,77.92053,75.18494
1770514127486,-0.9399414,0.21191406,0.063964844,-0.8544922,-3.6621094,-4.272461,3194.0,1050.0,34.0,63.446045,77.854614,69.521484
1770514127497,-0.9399414,0.21191406,0.063964844,-0.8544922,-3.6621094,-4.272461,0.0,0.0,0.0,63.446045,77.854614,69.521484
1770514127574,-0.97021484,0.2265625,0.029296875,0.36621094,1.7700195,0.48828125,3103.0,1030.0,-70.0,63.446045,77.854614,69.521484
1770514127585,-0.97021484,0.2265625,0.029296875,0.36621094,1.7700195,0.48828125,3103.0,1030.0,-70.0,63.47351,77.72278,69.87305
1770514127598,-0.97021484,0.2265625,0.029296875,0.36621094,1.7700195,0.48828125,0.0,0.0,0.0,63.47351,77.72278,69.87305
1770514127674,-0.99853516,0.22216797,0.064941406,-3.540039,-0.4272461,-1.8920898,3085.0,1038.0,-120.0,63.47351,77.72278,69.87305
1770514127685,-0.99853516,0.22216797,0.064941406,-3.540039,-0.4272461,-1.8920898,3085.0,1038.0,-120.0,64.79187,77.805176,70.93872
1770514127696,-0.99853516,0.22216797,0.064941406,-3.540039,-0.4272461,-1.8920898,0.0,0.0,0.0,64.79187,77.805176,70.93872
1770514127773,-0.9316406,0.25634766,-0.011230469,4.3945312,10.375977,1.7700195,3075.0,1033.0,-120.0,64.79187,77.805176,70.93872
1770514127785,-0.9316406,0.25634766,-0.011230469,4.3945312,10.375977,1.7700195,3075.0,1033.0,-120.0,68.302,78.046875,74.28955
1770514127797,-0.9316406,0.25634766,-0.011230469,4.3945312,10.375977,1.7700195,0.0,0.0,0.0,68.302,78.046875,74.28955
1770514127873,-0.9892578,0.24316406,0.17382812,7.507324,-11.413574,3.1738281,3101.0,1046.0,-88.0,68.302,78.046875,74.28955
1770514127884,-0.9892578,0.24316406,0.17382812,7.507324,-11.413574,3.1738281,3101.0,1046.0,-88.0,71.91101,77.82715,77.26135
1770514127896,-0.9892578,0.24316406,0.17382812,7.507324,-11.413574,3.1738281,0.0,0.0,0.0,71.91101,77.82715,77.26135
1770514127973,-0.9526367,0.18164062,0.10253906,-11.413574,2.2583008,3.6621094,3150.0,1027.0,-32.0,71.91101,77.82715,77.26135
1770514127984,-0.9526367,0.18164062,0.10253906,-11.413574,2.2583008,3.6621094,3150.0,1027.0,-32.0,68.291016,77.162476,73.97095
1770514127996,-0.9526367,0.18164062,0.10253906,-11.413574,2.2583008,3.6621094,0.0,0.0,0.0,68.291016,77.162476,73.97095
1770514128072,-1.0322266,0.06347656,0.15722656,-5.1879883,3.2958984,2.746582,3117.0,1044.0,-84.0,68.291016,77.162476,73.97095
1770514128084,-1.0322266,0.06347656,0.15722656,-5.1879883,3.2958984,2.746582,3117.0,1044.0,-84.0,69.06006,76.89331,75.52551
1770514128096,-1.0322266,0.06347656,0.15722656,-5.1879883,3.2958984,2.746582,0.0,0.0,0.0,69.06006,76.89331,75.52551
1770514128172,-0.90185547,0.21386719,0.10253906,-16.662598,-5.6762695,4.638672,3133.0,1074.0,-101.0,69.06006,76.89331,75.52551
1770514128183,-0.90185547,0.21386719,0.10253906,-16.662598,-5.6762695,4.638672,3133.0,1074.0,-101.0,68.082275,76.99768,75.98694
1770514128195,-0.90185547,0.21386719,0.10253906,-16.662598,-5.6762695,4.638672,0.0,0.0,0.0,68.082275,76.99768,75.98694
1770514128271,-0.9980469,0.11376953,0.055664062,-0.12207031,-4.760742,0.0,3161.0,1121.0,-116.0,68.082275,76.99768,75.98694
1770514128283,-0.9980469,0.11376953,0.055664062,-0.12207031,-4.760742,0.0,3161.0,1121.0,-116.0,64.78088,76.36597,73.41614
1770514128295,-0.9980469,0.11376953,0.055664062,-0.12207031,-4.760742,0.0,0.0,0.0,0.0,64.78088,76.36597,73.41614
1770514128371,-0.9716797,0.21191406,0.0390625,-5.7373047,7.751465,5.3100586,3133.0,1165.0,-165.0,64.78088,76.36597,73.41614
1770514128383,-0.9716797,0.21191406,0.0390625,-5.7373047,7.751465,5.3100586,3133.0,1165.0,-165.0,64.51172,76.48682,73.32825
1770514128394,-0.9716797,0.21191406,0.0390625,-5.7373047,7.751465,5.3100586,0.0,0.0,0.0,64.51172,76.48682,73.32825
1770514128471,-1.0053711,0.07128906,-0.0043945312,18.127441,18.310547,-4.4555664,3120.0,1208.0,-232.0,64.51172,76.48682,73.32825
1770514128483,-1.0053711,0.07128906,-0.0043945312,18.127441,18.310547,-4.4555664,3120.0,1208.0,-232.0,71.97693,76.986694,79.42566
1770514128494,-1.0053711,0.07128906,-0.0043945312,18.127441,18.310547,-4.4555664,0.0,0.0,0.0,71.97693,76.986694,79.42566
1770514128571,-1.2089844,0.22460938,0.061523438,5.7373047,18.371582,-8.7890625,3167.0,1175.0,-98.0,71.97693,76.986694,79.42566
1770514128582,-1.2089844,0.22460938,0.061523438,5.7373047,18.371582,-8.7890625,3167.0,1175.0,-98.0,80.304565,78.38745,86.572266
1770514128593,-1.2089844,0.22460938,0.061523438,5.7373047,18.371582,-8.7890625,0.0,0.0,0.0,80.304565,78.38745,86.572266
1770514128670,-0.88671875,0.22558594,0.1171875,13.061523,-22.216797,-5.493164,3256.0,1123.0,73.0,80.304565,78.38745,86.572266
1770514128682,-0.88671875,0.22558594,0.1171875,13.061523,-22.216797,-5.493164,3256.0,1123.0,73.0,77.77771,79.002686,83.4137
1770514128693,-0.88671875,0.22558594,0.1171875,13.061523,-22.216797,-5.493164,0.0,0.0,0.0,77.77771,79.002686,83.4137
1770514128770,-1.0151367,0.24365234,0.16259766,16.967773,-7.9956055,-7.3242188,3279.0,1059.0,120.0,77.77771,79.002686,83.4137
1770514128781,-1.0151367,0.24365234,0.16259766,16.967773,-7.9956055,-7.3242188,3279.0,1059.0,120.0,73.586426,79.211426,77.266846
1770514128793,-1.0151367,0.24365234,0.16259766,16.967773,-7.9956055,-7.3242188,0.0,0.0,0.0,73.586426,79.211426,77.266846
1770514128870,-0.95166016,0.21142578,-0.022949219,-8.300781,0.0,-0.7324219,3233.0,970.0,73.0,73.586426,79.211426,77.266846
1770514128881,-0.95166016,0.21142578,-0.022949219,-8.300781,0.0,-0.7324219,3233.0,970.0,73.0,70.043335,79.10156,74.174194
1770514128893,-0.95166016,0.21142578,-0.022949219,-8.300781,0.0,-0.7324219,0.0,0.0,0.0,70.043335,79.10156,74.174194
1770514128969,-0.9404297,0.23242188,0.032714844,4.0893555,-5.9814453,5.2490234,3198.0,961.0,41.0,70.043335,79.10156,74.174194
1770514128981,-0.9404297,0.23242188,0.032714844,4.0893555,-5.9814453,5.2490234,3198.0,961.0,41.0,70.372925,78.57422,74.52576
1770514128993,-0.9404297,0.23242188,0.032714844,4.0893555,-5.9814453,5.2490234,0.0,0.0,0.0,70.372925,78.57422,74.52576
1770514129069,-0.96191406,0.22314453,0.061035156,-2.1972656,-3.479004,1.5869141,3166.0,943.0,5.0,70.372925,78.57422,74.52576
1770514129081,-0.96191406,0.22314453,0.061035156,-2.1972656,-3.479004,1.5869141,3166.0,943.0,5.0,70.114746,78.04138,74.01489
1770514129092,-0.96191406,0.22314453,0.061035156,-2.1972656,-3.479004,1.5869141,0.0,0.0,0.0,70.114746,78.04138,74.01489
1770514129169,-1.0253906,0.25585938,-0.032226562,-12.268066,3.540039,0.4272461,3148.0,929.0,-16.0,70.114746,78.04138,74.01489
1770514129180,-1.0253906,0.25585938,-0.032226562,-12.268066,3.540039,0.4272461,3148.0,929.0,-16.0,69.609375,77.82715,74.31702
1770514129192,-1.0253906,0.25585938,-0.032226562,-12.268066,3.540039,0.4272461,0.0,0.0,0.0,69.609375,77.82715,74.31702
1770514129269,-0.95996094,0.26513672,0.18896484,-2.4414062,-8.544922,9.82666,3133.0,974.0,-42.0,69.609375,77.82715,74.31702
1770514129280,-0.95996094,0.26513672,0.18896484,-2.4414062,-8.544922,9.82666,3133.0,974.0,-42.0,72.630615,77.838135,78.41492
1770514129292,-0.95996094,0.26513672,0.18896484,-2.4414062,-8.544922,9.82666,0.0,0.0,0.0,72.630615,77.838135,78.41492
1770514129368,-0.91796875,0.052246094,0.114746094,-12.451172,-2.0751953,-0.5493164,3162.0,1047.0,-11.0,72.630615,77.838135,78.41492
1770514129380,-0.91796875,0.052246094,0.114746094,-12.451172,-2.0751953,-0.5493164,3162.0,1047.0,-11.0,67.25281,76.78894,73.99841
1770514129391,-0.91796875,0.052246094,0.114746094,-12.451172,-2.0751953,-0.5493164,0.0,0.0,0.0,67.25281,76.78894,73.99841
1770514129468,-0.93066406,0.19677734,0.12207031,-25.024414,-4.9438477,11.71875,3110.0,1116.0,-119.0,67.25281,76.78894,73.99841
1770514129479,-0.93066406,0.19677734,0.12207031,-25.024414,-4.9438477,11.71875,3110.0,1116.0,-119.0,64.8468,76.294556,73.54248
1770514129491,-0.93066406,0.19677734,0.12207031,-25.024414,-4.9438477,11.71875,0.0,0.0,0.0,64.8468,76.294556,73.54248
1770514129568,-1.0029297,0.25732422,0.13183594,2.2583008,-4.638672,6.0424805,3113.0,1194.0,-159.0,64.8468,76.294556,73.54248
1770514129579,-1.0029297,0.25732422,0.13183594,2.2583008,-4.638672,6.0424805,3113.0,1194.0,-159.0,60.78186,75.34973,70.131226
1770514129591,-1.0029297,0.25732422,0.13183594,2.2583008,-4.638672,6.0424805,0.0,0.0,0.0,60.78186,75.34973,70.131226
1770514129667,-0.99316406,0.11669922,0.04638672,2.5024414,-5.859375,-0.9765625,3079.0,1246.0,-245.0,60.78186,75.34973,70.131226
1770514129679,-0.99316406,0.11669922,0.04638672,2.5024414,-5.859375,-0.9765625,3079.0,1246.0,-245.0,59.18335,74.77295,67.769165
1770514129690,-0.99316406,0.11669922,0.04638672,2.5024414,-5.859375,-0.9765625,0.0,0.0,0.0,59.18335,74.77295,67.769165
1770514129767,-1.019043,0.18798828,0.083496094,13.73291,13.73291,1.8310547,2990.0,1260.0,-297.0,59.18335,74.77295,67.769165
1770514129778,-1.019043,0.18798828,0.083496094,13.73291,13.73291,1.8310547,2990.0,1260.0,-297.0,62.836304,75.06409,70.33447
1770514129790,-1.019043,0.18798828,0.083496094,13.73291,13.73291,1.8310547,0.0,0.0,0.0,62.836304,75.06409,70.33447
1770514129867,-0.9584961,0.1484375,0.021484375,11.59668,24.902344,-5.554199,3031.0,1222.0,-308.0,62.836304,75.06409,70.33447
1770514129878,-0.9584961,0.1484375,0.021484375,11.59668,24.902344,-5.554199,3031.0,1222.0,-308.0,71.433105,76.62964,77.12402
1770514129889,-0.9584961,0.1484375,0.021484375,11.59668,24.902344,-5.554199,0.0,0.0,0.0,71.433105,76.62964,77.12402
1770514129966,-0.98339844,0.16992188,0.22705078,13.61084,3.7841797,-13.244629,3136.0,1154.0,-133.0,71.433105,76.62964,77.12402
1770514129978,-0.98339844,0.16992188,0.22705078,13.61084,3.7841797,-13.244629,3136.0,1154.0,-133.0,79.453125,77.926025,83.792725
1770514129990,-0.98339844,0.16992188,0.22705078,13.61084,3.7841797,-13.244629,0.0,0.0,0.0,79.453125,77.926025,83.792725
1770514130066,-0.7753906,0.2241211,-0.056152344,13.793945,-2.5024414,-7.385254,3222.0,1066.0,84.0,79.453125,77.926025,83.792725
1770514130078,-0.7753906,0.2241211,-0.056152344,13.793945,-2.5024414,-7.385254,3222.0,1066.0,84.0,71.136475,78.52478,75.6134
1770514130090,-0.7753906,0.2241211,-0.056152344,13.793945,-2.5024414,-7.385254,0.0,0.0,0.0,71.136475,78.52478,75.6134
1770514130166,-1.0454102,0.140625,0.09082031,-0.18310547,1.5258789,-10.131836,3212.0,1050.0,52.0,71.136475,78.52478,75.6134
1770514130178,-1.0454102,0.140625,0.09082031,-0.18310547,1.5258789,-10.131836,3212.0,1050.0,52.0,68.236084,78.57971,72.29004
1770514130191,-1.0454102,0.140625,0.09082031,-0.18310547,1.5258789,-10.131836,0.0,0.0,0.0,68.236084,78.57971,72.29004
1770514130265,-0.89160156,0.2890625,0.0107421875,-9.033203,-11.291504,8.7890625,3178.0,1025.0,13.0,68.236084,78.57971,72.29004
1770514130277,-0.89160156,0.2890625,0.0107421875,-9.033203,-11.291504,8.7890625,3178.0,1025.0,13.0,66.16516,78.392944,70.74097
1770514130288,-0.89160156,0.2890625,0.0107421875,-9.033203,-11.291504,8.7890625,0.0,0.0,0.0,66.16516,78.392944,70.74097
1770514130365,-0.98339844,0.1899414,0.06542969,14.831543,-0.7324219,-0.8544922,3148.0,1035.0,-36.0,66.16516,78.392944,70.74097
1770514130377,-0.98339844,0.1899414,0.06542969,14.831543,-0.7324219,-0.8544922,3148.0,1035.0,-36.0,65.23682,77.96997,68.532715
1770514130389,-0.98339844,0.1899414,0.06542969,14.831543,-0.7324219,-0.8544922,0.0,0.0,0.0,65.23682,77.96997,68.532715
1770514130465,-1.0356445,0.24169922,0.037109375,-2.746582,5.065918,0.91552734,3097.0,1001.0,-73.0,65.23682,77.96997,68.532715
1770514130476,-1.0356445,0.24169922,0.037109375,-2.746582,5.065918,0.91552734,3097.0,1001.0,-73.0,66.450806,77.73926,69.81262
1770514130488,-1.0356445,0.24169922,0.037109375,-2.746582,5.065918,0.91552734,0.0,0.0,0.0,66.450806,77.73926,69.81262
1770514130565,-0.94433594,0.22753906,-0.001953125,-7.2631836,7.5683594,4.0893555,3093.0,991.0,-97.0,66.450806,77.73926,69.81262
1770514130576,-0.94433594,0.22753906,-0.001953125,-7.2631836,7.5683594,4.0893555,3093.0,991.0,-97.0,71.06506,77.67334,75.1355
1770514130588,-0.94433594,0.22753906,-0.001953125,-7.2631836,7.5683594,4.0893555,0.0,0.0,0.0,71.06506,77.67334,75.1355
1770514130664,-0.8989258,0.20605469,0.119628906,-2.8686523,-2.746582,5.859375,3125.0,1032.0,-56.0,71.06506,77.67334,75.1355
1770514130676,-0.8989258,0.20605469,0.119628906,-2.8686523,-2.746582,5.859375,3125.0,1032.0,-56.0,76.2561,77.81067,80.980225
1770514130695,-0.8989258,0.20605469,0.119628906,-2.8686523,-2.746582,5.859375,0.0,0.0,0.0,76.2561,77.81067,80.980225
1770514130764,-0.9375,0.08886719,0.13232422,-7.6293945,-3.9672852,-2.746582,3209.0,1061.0,25.0,76.2561,77.81067,80.980225
1770514130776,-0.9375,0.08886719,0.13232422,-7.6293945,-3.9672852,-2.746582,3209.0,1061.0,25.0,69.71924,77.13501,74.992676
1770514130790,-0.9375,0.08886719,0.13232422,-7.6293945,-3.9672852,-2.746582,0.0,0.0,0.0,69.71924,77.13501,74.992676
1770514130864,-1.0131836,0.16113281,0.17675781,-29.35791,-6.164551,5.2490234,3170.0,1094.0,-39.0,69.71924,77.13501,74.992676
1770514130875,-1.0131836,0.16113281,0.17675781,-29.35791,-6.164551,5.2490234,3170.0,1094.0,-39.0,66.73096,76.8988,73.95996
1770514130896,-1.0131836,0.16113281,0.17675781,-29.35791,-6.164551,5.2490234,0.0,0.0,0.0,66.73096,76.8988,73.95996
1770514130963,-0.9448242,0.19091797,0.10449219,-7.2631836,-4.0893555,0.7324219,3153.0,1177.0,-120.0,66.73096,76.8988,73.95996
1770514130975,-0.9448242,0.19091797,0.10449219,-7.2631836,-4.0893555,0.7324219,3153.0,1177.0,-120.0,61.59485,76.37695,70.581665
1770514130987,-0.9448242,0.19091797,0.10449219,-7.2631836,-4.0893555,0.7324219,0.0,0.0,0.0,61.59485,76.37695,70.581665
1770514131063,-0.9819336,0.17285156,0.05810547,-2.319336,-2.5024414,3.90625,3107.0,1273.0,-222.0,61.59485,76.37695,70.581665
1770514131074,-0.9819336,0.17285156,0.05810547,-2.319336,-2.5024414,3.90625,3107.0,1273.0,-222.0,60.20508,75.95398,69.472046
1770514131086,-0.9819336,0.17285156,0.05810547,-2.319336,-2.5024414,3.90625,0.0,0.0,0.0,60.20508,75.95398,69.472046
1770514131163,-1.0048828,0.17822266,0.07324219,11.352539,13.122559,0.8544922,3053.0,1303.0,-279.0,60.20508,75.95398,69.472046
1770514131174,-1.0048828,0.17822266,0.07324219,11.352539,13.122559,0.8544922,3053.0,1303.0,-279.0,63.028564,76.12976,71.38367
1770514131186,-1.0048828,0.17822266,0.07324219,11.352539,13.122559,0.8544922,0.0,0.0,0.0,63.028564,76.12976,71.38367
1770514131262,-1.0102539,0.14648438,-0.053222656,13.73291,26.306152,-2.4414062,3035.0,1305.0,-249.0,63.028564,76.12976,71.38367
1770514131274,-1.0102539,0.14648438,-0.053222656,13.73291,26.306152,-2.4414062,3035.0,1305.0,-249.0,72.52075,77.0636,79.58496
1770514131285,-1.0102539,0.14648438,-0.053222656,13.73291,26.306152,-2.4414062,0.0,0.0,0.0,72.52075,77.0636,79.58496
1770514131362,-1.1635742,0.26171875,0.33007812,16.784668,-17.39502,-13.916016,3136.0,1253.0,-98.0,72.52075,77.0636,79.58496
1770514131374,-1.1635742,0.26171875,0.33007812,16.784668,-17.39502,-13.916016,3136.0,1253.0,-98.0,82.770996,77.99744,88.28064
1770514131385,-1.1635742,0.26171875,0.33007812,16.784668,-17.39502,-13.916016,0.0,0.0,0.0,82.770996,77.99744,88.28064
1770514131462,-0.7636719,0.2084961,0.057617188,52.91748,-13.48877,-9.887695,3274.0,1147.0,138.0,82.770996,77.99744,88.28064
1770514131473,-0.7636719,0.2084961,0.057617188,52.91748,-13.48877,-9.887695,3274.0,1147.0,138.0,75.48706,78.48633,78.71704
1770514131486,-0.7636719,0.2084961,0.057617188,52.91748,-13.48877,-9.887695,0.0,0.0,0.0,75.48706,78.48633,78.71704
1770514131561,-0.95751953,0.10888672,0.047851562,2.0751953,-10.7421875,-5.1879883,3234.0,1065.0,116.0,75.48706,78.48633,78.71704
1770514131573,-0.95751953,0.10888672,0.047851562,2.0751953,-10.7421875,-5.1879883,3234.0,1065.0,116.0,70.043335,78.65662,70.80139
1770514131584,-0.95751953,0.10888672,0.047851562,2.0751953,-10.7421875,-5.1879883,0.0,0.0,0.0,70.043335,78.65662,70.80139
1770514131661,-0.92626953,0.31152344,0.022949219,-6.7749023,-8.728027,1.2207031,3184.0,886.0,84.0,70.043335,78.65662,70.80139
1770514131673,-0.92626953,0.31152344,0.022949219,-6.7749023,-8.728027,1.2207031,3184.0,886.0,84.0,67.52197,78.618164,69.22485
1770514131684,-0.92626953,0.31152344,0.022949219,-6.7749023,-8.728027,1.2207031,0.0,0.0,0.0,67.52197,78.618164,69.22485
1770514131762,-0.99609375,0.19140625,0.036621094,8.422852,-4.8828125,-1.7700195,3146.0,882.0,26.0,67.52197,78.618164,69.22485
1770514131772,-0.99609375,0.19140625,0.036621094,8.422852,-4.8828125,-1.7700195,3146.0,882.0,26.0,65.59387,77.84912,67.19238
1770514131784,-0.99609375,0.19140625,0.036621094,8.422852,-4.8828125,-1.7700195,0.0,0.0,0.0,65.59387,77.84912,67.19238
1770514131861,-0.98339844,0.19677734,0.047851562,-15.563965,4.0893555,-0.12207031,3096.0,879.0,-43.0,65.59387,77.84912,67.19238
1770514131872,-0.98339844,0.19677734,0.047851562,-15.563965,4.0893555,-0.12207031,3096.0,879.0,-43.0,66.41785,78.11279,68.115234
1770514131884,-0.98339844,0.19677734,0.047851562,-15.563965,4.0893555,-0.12207031,0.0,0.0,0.0,66.41785,78.11279,68.115234
1770514131960,-0.9638672,0.26513672,0.047851562,-0.24414062,7.9345703,2.4414062,3059.0,903.0,-61.0,66.41785,78.11279,68.115234
1770514131972,-0.9638672,0.26513672,0.047851562,-0.24414062,7.9345703,2.4414062,3059.0,903.0,-61.0,70.77942,77.79968,73.531494
1770514131983,-0.9638672,0.26513672,0.047851562,-0.24414062,7.9345703,2.4414062,0.0,0.0,0.0,70.77942,77.79968,73.531494
1770514132060,-0.85302734,0.22851562,0.14208984,-19.592285,-20.812988,9.338379,3115.0,937.0,-30.0,70.77942,77.79968,73.531494
1770514132071,-0.85302734,0.22851562,0.14208984,-19.592285,-20.812988,9.338379,3115.0,937.0,-30.0,69.72473,77.958984,72.960205
1770514132083,-0.85302734,0.22851562,0.14208984,-19.592285,-20.812988,9.338379,0.0,0.0,0.0,69.72473,77.958984,72.960205
1770514132160,-0.9355469,0.08300781,0.13623047,-11.657715,13.549805,-7.5683594,3135.0,985.0,-57.0,69.72473,77.958984,72.960205
1770514132171,-0.9355469,0.08300781,0.13623047,-11.657715,13.549805,-7.5683594,3135.0,985.0,-57.0,64.64905,77.162476,69.70825
1770514132184,-0.9355469,0.08300781,0.13623047,-11.657715,13.549805,-7.5683594,0.0,0.0,0.0,64.64905,77.162476,69.70825
1770514132259,-0.9550781,0.20605469,0.047851562,-18.737793,2.0751953,14.282227,3080.0,1071.0,-144.0,64.64905,77.162476,69.70825
1770514132271,-0.9550781,0.20605469,0.047851562,-18.737793,2.0751953,14.282227,3080.0,1071.0,-144.0,68.36792,77.47009,75.66284
1770514132282,-0.9550781,0.20605469,0.047851562,-18.737793,2.0751953,14.282227,0.0,0.0,0.0,68.36792,77.47009,75.66284
1770514132359,-0.90283203,0.16601562,0.1459961,5.2490234,-18.432617,0.30517578,3134.0,1168.0,-122.0,68.36792,77.47009,75.66284
1770514132371,-0.90283203,0.16601562,0.1459961,5.2490234,-18.432617,0.30517578,3134.0,1168.0,-122.0,63.880005,75.56946,71.51001
1770514132383,-0.90283203,0.16601562,0.1459961,5.2490234,-18.432617,0.30517578,0.0,0.0,0.0,63.880005,75.56946,71.51001
1770514132459,-0.97558594,0.1665039,0.09375,-30.578613,-7.8125,17.028809,3108.0,1176.0,-131.0,63.880005,75.56946,71.51001
1770514132471,-0.97558594,0.1665039,0.09375,-30.578613,-7.8125,17.028809,3108.0,1176.0,-131.0,64.46228,76.00342,72.03735
1770514132482,-0.97558594,0.1665039,0.09375,-30.578613,-7.8125,17.028809,0.0,0.0,0.0,64.46228,76.00342,72.03735
1770514132559,-1.0117188,0.23925781,-0.0063476562,20.019531,20.263672,-4.211426,3076.0,1200.0,-176.0,64.46228,76.00342,72.03735
1770514132570,-1.0117188,0.23925781,-0.0063476562,20.019531,20.263672,-4.211426,3076.0,1200.0,-176.0,64.03381,75.22888,72.03186
1770514132583,-1.0117188,0.23925781,-0.0063476562,20.019531,20.263672,-4.211426,0.0,0.0,0.0,64.03381,75.22888,72.03186
1770514132658,-0.98779297,0.09472656,0.00390625,15.380859,26.916504,-6.958008,3065.0,1216.0,-231.0,64.03381,75.22888,72.03186
1770514132670,-0.98779297,0.09472656,0.00390625,15.380859,26.916504,-6.958008,3065.0,1216.0,-231.0,76.68457,76.728516,82.75452
1770514132681,-0.98779297,0.09472656,0.00390625,15.380859,26.916504,-6.958008,0.0,0.0,0.0,76.68457,76.728516,82.75452
1770514132758,-1.0732422,0.17382812,0.15625,1.6479492,26.367188,-13.48877,3198.0,1164.0,-51.0,76.68457,76.728516,82.75452
1770514132770,-1.0732422,0.17382812,0.15625,1.6479492,26.367188,-13.48877,3198.0,1164.0,-51.0,87.385254,78.480835,92.66968
1770514132782,-1.0732422,0.17382812,0.15625,1.6479492,26.367188,-13.48877,0.0,0.0,0.0,87.385254,78.480835,92.66968
1770514132858,-0.8222656,0.24316406,-0.11230469,1.3427734,1.0986328,-2.6245117,3324.0,1111.0,182.0,87.385254,78.480835,92.66968
1770514132869,-0.8222656,0.24316406,-0.11230469,1.3427734,1.0986328,-2.6245117,3324.0,1111.0,182.0,81.19995,78.75549,87.51709
1770514132881,-0.8222656,0.24316406,-0.11230469,1.3427734,1.0986328,-2.6245117,0.0,0.0,0.0,81.19995,78.75549,87.51709
1770514132957,-1.0488281,0.18115234,0.18798828,14.099121,-15.686035,-9.216309,3326.0,1101.0,186.0,81.19995,78.75549,87.51709
1770514132969,-1.0488281,0.18115234,0.18798828,14.099121,-15.686035,-9.216309,3326.0,1101.0,186.0,76.24512,79.3103,79.365234
1770514132980,-1.0488281,0.18115234,0.18798828,14.099121,-15.686035,-9.216309,0.0,0.0,0.0,76.24512,79.3103,79.365234
1770514133057,-0.9394531,0.2626953,-0.009765625,-10.314941,-1.7700195,5.065918,3261.0,1013.0,109.0,76.24512,79.3103,79.365234
1770514133069,-0.9394531,0.2626953,-0.009765625,-10.314941,-1.7700195,5.065918,3261.0,1013.0,109.0,72.43286,79.11255,76.33301
1770514133080,-0.9394531,0.2626953,-0.009765625,-10.314941,-1.7700195,5.065918,0.0,0.0,0.0,72.43286,79.11255,76.33301
1770514133157,-0.92871094,0.22070312,-0.0063476562,11.84082,-5.2490234,5.004883,3205.0,1002.0,49.0,72.43286,79.11255,76.33301
1770514133168,-0.92871094,0.22070312,-0.0063476562,11.84082,-5.2490234,5.004883,3205.0,1002.0,49.0,71.60339,78.33252,75.09155
1770514133180,-0.92871094,0.22070312,-0.0063476562,11.84082,-5.2490234,5.004883,0.0,0.0,0.0,71.60339,78.33252,75.09155
1770514133256,-0.9770508,0.18701172,0.016601562,-9.82666,6.7749023,-0.24414062,3191.0,985.0,-7.0,71.60339,78.33252,75.09155
1770514133268,-0.9770508,0.18701172,0.016601562,-9.82666,6.7749023,-0.24414062,3191.0,985.0,-7.0,73.99292,78.08533,77.299805
1770514133282,-0.9770508,0.18701172,0.016601562,-9.82666,6.7749023,-0.24414062,0.0,0.0,0.0,73.99292,78.08533,77.299805
1770514133356,-0.92578125,0.28173828,-0.033691406,-13.671875,0.4272461,2.0141602,3193.0,957.0,8.0,73.99292,78.08533,77.299805
1770514133368,-0.92578125,0.28173828,-0.033691406,-13.671875,0.4272461,2.0141602,3193.0,957.0,8.0,75.33325,78.1073,80.16174
1770514133379,-0.92578125,0.28173828,-0.033691406,-13.671875,0.4272461,2.0141602,0.0,0.0,0.0,75.33325,78.1073,80.16174
1770514133456,-1.0629883,0.24169922,0.1977539,6.652832,-12.939453,0.4272461,3206.0,1041.0,-12.0,75.33325,78.1073,80.16174
1770514133467,-1.0629883,0.24169922,0.1977539,6.652832,-12.939453,0.4272461,3206.0,1041.0,-12.0,76.67908,77.93152,81.798706
1770514133479,-1.0629883,0.24169922,0.1977539,6.652832,-12.939453,0.4272461,0.0,0.0,0.0,76.67908,77.93152,81.798706
1770514133556,-0.81640625,0.106933594,0.119628906,-26.672363,-16.052246,5.859375,3223.0,1096.0,5.0,76.67908,77.93152,81.798706
1770514133567,-0.81640625,0.106933594,0.119628906,-26.672363,-16.052246,5.859375,3223.0,1096.0,5.0,68.43384,76.728516,73.87207
1770514133579,-0.81640625,0.106933594,0.119628906,-26.672363,-16.052246,5.859375,0.0,0.0,0.0,68.43384,76.728516,73.87207
1770514133655,-0.9394531,0.23583984,0.1850586,-27.282715,-3.0517578,17.8833,3157.0,1127.0,-110.0,68.43384,76.728516,73.87207
1770514133667,-0.9394531,0.23583984,0.1850586,-27.282715,-3.0517578,17.8833,3157.0,1127.0,-110.0,68.08777,76.503296,76.19568
1770514133678,-0.9394531,0.23583984,0.1850586,-27.282715,-3.0517578,17.8833,0.0,0.0,0.0,68.08777,76.503296,76.19568
1770514133755,-0.94384766,0.123046875,0.0390625,18.676758,-15.808105,-11.169434,3158.0,1225.0,-152.0,68.08777,76.503296,76.19568
1770514133766,-0.94384766,0.123046875,0.0390625,18.676758,-15.808105,-11.169434,3158.0,1225.0,-152.0,60.787354,74.83887,69.834595
1770514133778,-0.94384766,0.123046875,0.0390625,18.676758,-15.808105,-11.169434,0.0,0.0,0.0,60.787354,74.83887,69.834595
1770514133855,-0.99121094,0.18359375,0.13916016,-20.080566,-1.0375977,10.559082,3074.0,1316.0,-242.0,60.787354,74.83887,69.834595
1770514133866,-0.99121094,0.18359375,0.13916016,-20.080566,-1.0375977,10.559082,3074.0,1316.0,-242.0,62.160645,75.22888,70.493774
1770514133877,-0.99121094,0.18359375,0.13916016,-20.080566,-1.0375977,10.559082,0.0,0.0,0.0,62.160645,75.22888,70.493774
1770514133954,-1.0117188,0.1640625,0.0234375,20.446777,15.869141,-0.7324219,3060.0,1312.0,-304.0,62.160645,75.22888,70.493774
1770514133966,-1.0117188,0.1640625,0.0234375,20.446777,15.869141,-0.7324219,3060.0,1312.0,-304.0,66.26953,75.30029,73.46008
1770514133979,-1.0117188,0.1640625,0.0234375,20.446777,15.869141,-0.7324219,0.0,0.0,0.0,66.26953,75.30029,73.46008
1770514134054,-1.0517578,0.1328125,0.03955078,13.549805,20.629883,-9.94873,3087.0,1297.0,-238.0,66.26953,75.30029,73.46008
1770514134066,-1.0517578,0.1328125,0.03955078,13.549805,20.629883,-9.94873,3087.0,1297.0,-238.0,74.262085,76.91528,79.57947
1770514134077,-1.0517578,0.1328125,0.03955078,13.549805,20.629883,-9.94873,0.0,0.0,0.0,74.262085,76.91528,79.57947
1770514134154,-0.97509766,0.33447266,0.25585938,5.9814453,-21.54541,-1.6479492,3204.0,1217.0,-86.0,74.262085,76.91528,79.57947
1770514134165,-0.97509766,0.33447266,0.25585938,5.9814453,-21.54541,-1.6479492,3204.0,1217.0,-86.0,76.69556,77.854614,81.07361
1770514134177,-0.97509766,0.33447266,0.25585938,5.9814453,-21.54541,-1.6479492,0.0,0.0,0.0,76.69556,77.854614,81.07361
1770514134253,-0.8364258,0.2006836,0.07421875,32.287598,-5.493164,-9.643555,3277.0,1129.0,70.0,76.69556,77.854614,81.07361
1770514134265,-0.8364258,0.2006836,0.07421875,32.287598,-5.493164,-9.643555,3277.0,1129.0,70.0,72.00989,78.167725,74.069824
1770514134276,-0.8364258,0.2006836,0.07421875,32.287598,-5.493164,-9.643555,0.0,0.0,0.0,72.00989,78.167725,74.069824
1770514134353,-0.9951172,0.17382812,0.04296875,4.4555664,-8.544922,-7.6293945,3213.0,1043.0,66.0,72.00989,78.167725,74.069824
1770514134365,-0.9951172,0.17382812,0.04296875,4.4555664,-8.544922,-7.6293945,3213.0,1043.0,66.0,67.70874,78.31055,69.28528
1770514134376,-0.9951172,0.17382812,0.04296875,4.4555664,-8.544922,-7.6293945,0.0,0.0,0.0,67.70874,78.31055,69.28528
1770514134453,-0.9291992,0.26904297,0.029785156,3.540039,-13.061523,-0.18310547,3153.0,963.0,-1.0,67.70874,78.31055,69.28528
1770514134464,-0.9291992,0.26904297,0.029785156,3.540039,-13.061523,-0.18310547,3153.0,963.0,-1.0,64.31946,78.29407,65.720215
1770514134476,-0.9291992,0.26904297,0.029785156,3.540039,-13.061523,-0.18310547,0.0,0.0,0.0,64.31946,78.29407,65.720215
1770514134553,-0.98291016,0.2529297,0.09277344,5.554199,-11.901855,5.432129,3098.0,963.0,-73.0,64.31946,78.29407,65.720215
1770514134565,-0.98291016,0.2529297,0.09277344,5.554199,-11.901855,5.432129,3098.0,963.0,-73.0,59.88098,77.24487,60.529175
1770514134576,-0.98291016,0.2529297,0.09277344,5.554199,-11.901855,5.432129,0.0,0.0,0.0,59.88098,77.24487,60.529175
1770514134652,-0.95751953,0.2290039,0.018554688,1.5869141,0.6713867,5.3100586,2998.0,954.0,-174.0,59.88098,77.24487,60.529175
1770514134664,-0.95751953,0.2290039,0.018554688,1.5869141,0.6713867,5.3100586,2998.0,954.0,-174.0,61.105957,76.552734,61.28723
1770514134676,-0.95751953,0.2290039,0.018554688,1.5869141,0.6713867,5.3100586,0.0,0.0,0.0,61.105957,76.552734,61.28723
1770514134752,-1.2358398,0.24804688,0.099121094,-18.615723,12.6953125,-5.554199,2979.0,924.0,-223.0,61.105957,76.552734,61.28723
1770514134763,-1.2358398,0.24804688,0.099121094,-18.615723,12.6953125,-5.554199,2979.0,924.0,-223.0,63.880005,76.712036,64.451294
1770514134776,-1.2358398,0.24804688,0.099121094,-18.615723,12.6953125,-5.554199,0.0,0.0,0.0,63.880005,76.712036,64.451294
1770514134852,-0.85009766,0.23144531,0.18554688,-23.07129,-10.681152,6.591797,2993.0,940.0,-190.0,63.880005,76.712036,64.451294
1770514134863,-0.85009766,0.23144531,0.18554688,-23.07129,-10.681152,6.591797,2993.0,940.0,-190.0,64.37988,76.78345,66.813354
1770514134875,-0.85009766,0.23144531,0.18554688,-23.07129,-10.681152,6.591797,0.0,0.0,0.0,64.37988,76.78345,66.813354
1770514134951,-1.1171875,0.12109375,0.18603516,-4.3945312,22.094727,0.18310547,3019.0,1029.0,-218.0,64.37988,76.78345,66.813354
1770514134963,-1.1171875,0.12109375,0.18603516,-4.3945312,22.094727,0.18310547,3019.0,1029.0,-218.0,64.02283,76.882324,68.14819
1770514134974,-1.1171875,0.12109375,0.18603516,-4.3945312,22.094727,0.18310547,0.0,0.0,0.0,64.02283,76.882324,68.14819
1770514135051,-0.8227539,0.17773438,0.100097656,-13.000488,-0.36621094,8.605957,3052.0,1120.0,-228.0,64.02283,76.882324,68.14819
1770514135063,-0.8227539,0.17773438,0.100097656,-13.000488,-0.36621094,8.605957,3052.0,1120.0,-228.0,68.12622,76.65161,73.98193
1770514135074,-0.8227539,0.17773438,0.100097656,-13.000488,-0.36621094,8.605957,0.0,0.0,0.0,68.12622,76.65161,73.98193
1770514135151,-1.0795898,0.17089844,0.13378906,-6.8969727,-1.2207031,12.573242,3129.0,1178.0,-152.0,68.12622,76.65161,73.98193
1770514135162,-1.0795898,0.17089844,0.13378906,-6.8969727,-1.2207031,12.573242,3129.0,1178.0,-152.0,68.59314,75.668335,75.47058
1770514135174,-1.0795898,0.17089844,0.13378906,-6.8969727,-1.2207031,12.573242,0.0,0.0,0.0,68.59314,75.668335,75.47058
1770514135250,-0.9995117,0.23730469,-0.016601562,-10.498047,0.12207031,6.652832,3140.0,1199.0,-124.0,68.59314,75.668335,75.47058
1770514135262,-0.9995117,0.23730469,-0.016601562,-10.498047,0.12207031,6.652832,3140.0,1199.0,-124.0,66.73645,75.34973,74.328
1770514135273,-0.9995117,0.23730469,-0.016601562,-10.498047,0.12207031,6.652832,0.0,0.0,0.0,66.73645,75.34973,74.328
1770514135350,-1.0102539,0.1352539,0.013183594,13.793945,20.812988,-5.065918,3146.0,1239.0,-158.0,66.73645,75.34973,74.328
1770514135362,-1.0102539,0.1352539,0.013183594,13.793945,20.812988,-5.065918,3146.0,1239.0,-158.0,72.60864,75.51453,79.57947
1770514135374,-1.0102539,0.1352539,0.013183594,13.793945,20.812988,-5.065918,0.0,0.0,0.0,72.60864,75.51453,79.57947
1770514135450,-1.043457,0.21679688,-0.026367188,21.057129,23.68164,-2.746582,3198.0,1218.0,-81.0,72.60864,75.51453,79.57947
1770514135461,-1.043457,0.21679688,-0.026367188,21.057129,23.68164,-2.746582,3198.0,1218.0,-81.0,84.06738,76.85486,89.714355
1770514135473,-1.043457,0.21679688,-0.026367188,21.057129,23.68164,-2.746582,0.0,0.0,0.0,84.06738,76.85486,89.714355
1770514135550,-1.0673828,0.32910156,0.18896484,1.7089844,-21.78955,3.2958984,3313.0,1167.0,114.0,84.06738,76.85486,89.714355
1770514135561,-1.0673828,0.32910156,0.18896484,1.7089844,-21.78955,3.2958984,3313.0,1167.0,114.0,88.53882,77.3053,93.1366
1770514135573,-1.0673828,0.32910156,0.18896484,1.7089844,-21.78955,3.2958984,0.0,0.0,0.0,88.53882,77.3053,93.1366
1770514135649,-0.93847656,0.25732422,0.104003906,46.691895,-18.615723,-14.343262,3410.0,1085.0,275.0,88.53882,77.3053,93.1366
1770514135661,-0.93847656,0.25732422,0.104003906,46.691895,-18.615723,-14.343262,3410.0,1085.0,275.0,82.369995,77.53601,84.81995
1770514135672,-0.93847656,0.25732422,0.104003906,46.691895,-18.615723,-14.343262,0.0,0.0,0.0,82.369995,77.53601,84.81995
1770514135749,-0.96533203,0.1743164,0.037597656,3.4179688,-17.27295,-8.361816,3351.0,991.0,216.0,82.369995,77.53601,84.81995
1770514135761,-0.96533203,0.1743164,0.037597656,3.4179688,-17.27295,-8.361816,3351.0,991.0,216.0,73.47656,77.958984,74.62463
1770514135782,-0.96533203,0.1743164,0.037597656,3.4179688,-17.27295,-8.361816,0.0,0.0,0.0,73.47656,77.958984,74.62463
1770514135849,-0.9135742,0.2631836,0.055664062,0.91552734,-6.7749023,-1.7700195,3245.0,859.0,110.0,73.47656,77.958984,74.62463
1770514135860,-0.9135742,0.2631836,0.055664062,0.91552734,-6.7749023,-1.7700195,3245.0,859.0,110.0,67.769165,77.87109,69.30725
1770514135871,-0.9135742,0.2631836,0.055664062,0.91552734,-6.7749023,-1.7700195,0.0,0.0,0.0,67.769165,77.87109,69.30725
1770514135948,-0.9785156,0.2241211,0.020507812,-6.4697266,-1.5258789,0.24414062,3180.0,875.0,-12.0,67.769165,77.87109,69.30725
1770514135960,-0.9785156,0.2241211,0.020507812,-6.4697266,-1.5258789,0.24414062,3180.0,875.0,-12.0,65.98938,77.645874,67.48901
1770514135971,-0.9785156,0.2241211,0.020507812,-6.4697266,-1.5258789,0.24414062,0.0,0.0,0.0,65.98938,77.645874,67.48901
1770514136048,-0.9716797,0.23779297,-0.036621094,-17.76123,7.2631836,3.8452148,3119.0,883.0,-63.0,65.98938,77.645874,67.48901
1770514136059,-0.9716797,0.23779297,-0.036621094,-17.76123,7.2631836,3.8452148,3119.0,883.0,-63.0,67.9834,77.717285,70.36194
1770514136072,-0.9716797,0.23779297,-0.036621094,-17.76123,7.2631836,3.8452148,0.0,0.0,0.0,67.9834,77.717285,70.36194
1770514136148,-1.3305664,0.30566406,0.11279297,-29.35791,27.34375,3.3569336,3121.0,923.0,-92.0,67.9834,77.717285,70.36194
1770514136159,-1.3305664,0.30566406,0.11279297,-29.35791,27.34375,3.3569336,3121.0,923.0,-92.0,72.6416,77.44812,76.73401
1770514136171,-1.3305664,0.30566406,0.11279297,-29.35791,27.34375,3.3569336,0.0,0.0,0.0,72.6416,77.44812,76.73401
1770514136248,-0.7421875,0.203125,0.14794922,-8.544922,-28.137207,8.544922,3158.0,999.0,-85.0,72.6416,77.44812,76.73401
1770514136259,-0.7421875,0.203125,0.14794922,-8.544922,-28.137207,8.544922,3158.0,999.0,-85.0,68.20862,76.36047,73.6853
1770514136270,-0.7421875,0.203125,0.14794922,-8.544922,-28.137207,8.544922,0.0,0.0,0.0,68.20862,76.36047,73.6853
1770514136347,-1.1201172,0.12890625,0.21777344,-7.1411133,0.61035156,6.4086914,3126.0,1100.0,-58.0,68.20862,76.36047,73.6853
1770514136359,-1.1201172,0.12890625,0.21777344,-7.1411133,0.61035156,6.4086914,3126.0,1100.0,-58.0,62.08374,75.62439,69.04907
1770514136370,-1.1201172,0.12890625,0.21777344,-7.1411133,0.61035156,6.4086914,0.0,0.0,0.0,62.08374,75.62439,69.04907
1770514136447,-0.90478516,0.25048828,0.084472656,-6.7749023,-16.601562,4.9438477,3061.0,1186.0,-216.0,62.08374,75.62439,69.04907
1770514136458,-0.90478516,0.25048828,0.084472656,-6.7749023,-16.601562,4.9438477,3061.0,1186.0,-216.0,60.27649,74.61914,68.31848
1770514136471,-0.90478516,0.25048828,0.084472656,-6.7749023,-16.601562,4.9438477,0.0,0.0,0.0,60.27649,74.61914,68.31848
1770514136546,-0.95166016,0.10986328,0.15917969,2.2583008,-1.4648438,0.061035156,3049.0,1240.0,-300.0,60.27649,74.61914,68.31848
1770514136558,-0.95166016,0.10986328,0.15917969,2.2583008,-1.4648438,0.061035156,3049.0,1240.0,-300.0,57.244263,73.811646,64.209595
1770514136569,-0.95166016,0.10986328,0.15917969,2.2583008,-1.4648438,0.061035156,0.0,0.0,0.0,57.244263,73.811646,64.209595
1770514136646,-0.98583984,0.26464844,0.10449219,-1.5869141,7.1411133,8.666992,2960.0,1255.0,-385.0,57.244263,73.811646,64.209595
1770514136658,-0.98583984,0.26464844,0.10449219,-1.5869141,7.1411133,8.666992,2960.0,1255.0,-385.0,56.782837,73.71277,63.85254
1770514136669,-0.98583984,0.26464844,0.10449219,-1.5869141,7.1411133,8.666992,0.0,0.0,0.0,56.782837,73.71277,63.85254
1770514136746,-1.0205078,0.14453125,0.026855469,24.658203,38.024902,-7.2021484,2927.0,1267.0,-410.0,56.782837,73.71277,63.85254
1770514136757,-1.0205078,0.14453125,0.026855469,24.658203,38.024902,-7.2021484,2927.0,1267.0,-410.0,64.74243,74.80591,70.059814
1770514136769,-1.0205078,0.14453125,0.026855469,24.658203,38.024902,-7.2021484,0.0,0.0,0.0,64.74243,74.80591,70.059814
1770514136846,-1.152832,0.23046875,0.17480469,8.850098,20.751953,-12.207031,3006.0,1215.0,-302.0,64.74243,74.80591,70.059814
1770514136857,-1.152832,0.23046875,0.17480469,8.850098,20.751953,-12.207031,3006.0,1215.0,-302.0,75.27283,77.03613,79.123535
1770514136868,-1.152832,0.23046875,0.17480469,8.850098,20.751953,-12.207031,0.0,0.0,0.0,75.27283,77.03613,79.123535
1770514136945,-0.8925781,0.22363281,0.016113281,6.286621,-13.366699,-5.3100586,3130.0,1156.0,-69.0,75.27283,77.03613,79.123535
1770514136957,-0.8925781,0.22363281,0.016113281,6.286621,-13.366699,-5.3100586,3130.0,1156.0,-69.0,74.53674,78.134766,78.32153
1770514136976,-0.8925781,0.22363281,0.016113281,6.286621,-13.366699,-5.3100586,0.0,0.0,0.0,74.53674,78.134766,78.32153
1770514137045,-1.0048828,0.27001953,0.15722656,26.672363,-20.629883,-11.59668,3194.0,1110.0,15.0,74.53674,78.134766,78.32153
1770514137056,-1.0048828,0.27001953,0.15722656,26.672363,-20.629883,-11.59668,3194.0,1110.0,15.0,67.53296,78.1897,68.532715
1770514137068,-1.0048828,0.27001953,0.15722656,26.672363,-20.629883,-11.59668,0.0,0.0,0.0,67.53296,78.1897,68.532715
1770514137145,-0.9584961,0.17773438,0.05126953,-11.59668,6.652832,0.48828125,3182.0,974.0,8.0,67.53296,78.1897,68.532715
1770514137156,-0.9584961,0.17773438,0.05126953,-11.59668,6.652832,0.48828125,3182.0,974.0,8.0,67.576904,78.87634,68.73047
1770514137168,-0.9584961,0.17773438,0.05126953,-11.59668,6.652832,0.48828125,0.0,0.0,0.0,67.576904,78.87634,68.73047
1770514137245,-0.95214844,0.26513672,-0.018554688,4.4555664,2.380371,2.6245117,3145.0,968.0,-38.0,67.576904,78.87634,68.73047
1770514137256,-0.95214844,0.26513672,-0.018554688,4.4555664,2.380371,2.6245117,3145.0,968.0,-38.0,72.020874,78.56323,74.43787
1770514137267,-0.95214844,0.26513672,-0.018554688,4.4555664,2.380371,2.6245117,0.0,0.0,0.0,72.020874,78.56323,74.43787
1770514137344,-0.9741211,0.18554688,0.010253906,-0.4272461,2.2583008,2.1972656,3168.0,977.0,-8.0,72.020874,78.56323,74.43787
1770514137356,-0.9741211,0.18554688,0.010253906,-0.4272461,2.2583008,2.1972656,3168.0,977.0,-8.0,73.95447,78.11279,76.05286
1770514137372,-0.9741211,0.18554688,0.010253906,-0.4272461,2.2583008,2.1972656,0.0,0.0,0.0,73.95447,78.11279,76.05286
