timestamp,accX,accY,accZ,gyroX,gyroY,gyroZ,magX,magY,magZ,roll,pitch,yaw
1770514225111,-1.0732422,0.24804688,0.27539062,-10.864258,-22.766113,-0.48828125,0.0,0.0,0.0,75.2124,77.717285,73.289795
1770514225185,-0.9082031,0.28466797,0.115722656,16.906738,-13.244629,-4.333496,3387.0,734.0,-73.0,75.2124,77.717285,73.289795
1770514225197,-0.9082031,0.28466797,0.115722656,16.906738,-13.244629,-4.333496,3387.0,734.0,-73.0,66.97815,77.23389,65.148926
1770514225208,-0.9082031,0.28466797,0.115722656,16.906738,-13.244629,-4.333496,0.0,0.0,0.0,66.97815,77.23389,65.148926
1770514225287,-0.98876953,0.1459961,-0.005859375,-13.122559,-7.6904297,-0.30517578,3211.0,749.0,-156.0,66.97815,77.23389,65.148926
1770514225296,-0.98876953,0.1459961,-0.005859375,-13.122559,-7.6904297,-0.30517578,3211.0,749.0,-156.0,63.259277,76.937256,61.864014
1770514225309,-0.98876953,0.1459961,-0.005859375,-13.122559,-7.6904297,-0.30517578,0.0,0.0,0.0,63.259277,76.937256,61.864014
1770514225385,-0.86816406,0.3100586,0.07128906,-5.065918,-8.117676,7.2631836,3155.0,712.0,-202.0,63.259277,76.937256,61.864014
1770514225396,-0.86816406,0.3100586,0.07128906,-5.065918,-8.117676,7.2631836,3155.0,712.0,-202.0,61.61682,76.014404,61.325684
1770514225410,-0.86816406,0.3100586,0.07128906,-5.065918,-8.117676,7.2631836,0.0,0.0,0.0,61.61682,76.014404,61.325684
1770514225485,-0.96875,0.22753906,0.05810547,0.61035156,8.483887,3.540039,3147.0,742.0,-286.0,61.61682,76.014404,61.325684
1770514225496,-0.96875,0.22753906,0.05810547,0.61035156,8.483887,3.540039,3147.0,742.0,-286.0,63.95691,75.60791,62.957153
1770514225508,-0.96875,0.22753906,0.05810547,0.61035156,8.483887,3.540039,0.0,0.0,0.0,63.95691,75.60791,62.957153
1770514225585,-0.9199219,0.2836914,-0.067871094,-2.0751953,9.460449,3.2958984,3139.0,746.0,-305.0,63.95691,75.60791,62.957153
1770514225596,-0.9199219,0.2836914,-0.067871094,-2.0751953,9.460449,3.2958984,3139.0,746.0,-305.0,68.19214,75.6189,67.14844
1770514225607,-0.9199219,0.2836914,-0.067871094,-2.0751953,9.460449,3.2958984,0.0,0.0,0.0,68.19214,75.6189,67.14844
1770514225684,-1.2299805,0.27246094,0.2084961,5.6152344,5.92041,5.79834,3161.0,760.0,-271.0,68.19214,75.6189,67.14844
1770514225695,-1.2299805,0.27246094,0.2084961,5.6152344,5.92041,5.79834,3161.0,760.0,-271.0,73.11401,75.73425,71.66931
1770514225708,-1.2299805,0.27246094,0.2084961,5.6152344,5.92041,5.79834,0.0,0.0,0.0,73.11401,75.73425,71.66931
1770514225784,-0.7910156,0.1875,0.10498047,-19.77539,-13.549805,7.5683594,3195.0,735.0,-206.0,73.11401,75.73425,71.66931
1770514225795,-0.7910156,0.1875,0.10498047,-19.77539,-13.549805,7.5683594,3195.0,735.0,-206.0,70.114746,74.82239,69.66431
1770514225806,-0.7910156,0.1875,0.10498047,-19.77539,-13.549805,7.5683594,0.0,0.0,0.0,70.114746,74.82239,69.66431
1770514225883,-0.95751953,0.17236328,0.20898438,-12.268066,8.666992,5.6152344,3202.0,762.0,-188.0,70.114746,74.82239,69.66431
1770514225895,-0.95751953,0.17236328,0.20898438,-12.268066,8.666992,5.6152344,3202.0,762.0,-188.0,68.47778,74.229126,70.36194
1770514225910,-0.95751953,0.17236328,0.20898438,-12.268066,8.666992,5.6152344,0.0,0.0,0.0,68.47778,74.229126,70.36194
1770514225983,-0.8725586,0.23242188,0.080078125,-4.5776367,-8.972168,2.2583008,3217.0,868.0,-218.0,68.47778,74.229126,70.36194
1770514225994,-0.8725586,0.23242188,0.080078125,-4.5776367,-8.972168,2.2583008,3217.0,868.0,-218.0,66.97266,73.932495,70.22461
1770514226006,-0.8725586,0.23242188,0.080078125,-4.5776367,-8.972168,2.2583008,0.0,0.0,0.0,66.97266,73.932495,70.22461
1770514226083,-0.98876953,0.13378906,0.12597656,9.460449,-9.216309,-2.746582,3243.0,917.0,-247.0,66.97266,73.932495,70.22461
1770514226094,-0.98876953,0.13378906,0.12597656,9.460449,-9.216309,-2.746582,3243.0,917.0,-247.0,64.19861,73.201904,66.450806
1770514226105,-0.98876953,0.13378906,0.12597656,9.460449,-9.216309,-2.746582,0.0,0.0,0.0,64.19861,73.201904,66.450806
1770514226182,-0.9370117,0.26123047,0.09375,-11.901855,-1.5869141,6.958008,3193.0,893.0,-335.0,64.19861,73.201904,66.450806
1770514226194,-0.9370117,0.26123047,0.09375,-11.901855,-1.5869141,6.958008,3193.0,893.0,-335.0,61.885986,73.34473,64.24805
1770514226205,-0.9370117,0.26123047,0.09375,-11.901855,-1.5869141,6.958008,0.0,0.0,0.0,61.885986,73.34473,64.24805
1770514226282,-1.0463867,0.15136719,-0.0034179688,21.972656,38.94043,-7.2021484,3147.0,905.0,-408.0,61.885986,73.34473,64.24805
1770514226293,-1.0463867,0.15136719,-0.0034179688,21.972656,38.94043,-7.2021484,3147.0,905.0,-408.0,68.57666,74.25659,69.70276
1770514226305,-1.0463867,0.15136719,-0.0034179688,21.972656,38.94043,-7.2021484,0.0,0.0,0.0,68.57666,74.25659,69.70276
1770514226382,-1.0800781,0.17626953,0.15283203,-1.953125,33.569336,-6.958008,3202.0,903.0,-356.0,68.57666,74.25659,69.70276
1770514226394,-1.0800781,0.17626953,0.15283203,-1.953125,33.569336,-6.958008,3202.0,903.0,-356.0,78.447876,75.981445,78.513794
1770514226408,-1.0800781,0.17626953,0.15283203,-1.953125,33.569336,-6.958008,0.0,0.0,0.0,78.447876,75.981445,78.513794
1770514226481,-0.99121094,0.26513672,-0.023925781,-24.658203,-10.070801,-5.3100586,3356.0,825.0,-151.0,78.447876,75.981445,78.513794
1770514226493,-0.99121094,0.26513672,-0.023925781,-24.658203,-10.070801,-5.3100586,3356.0,825.0,-151.0,77.283325,77.178955,79.61792
1770514226512,-0.99121094,0.26513672,-0.023925781,-24.658203,-10.070801,-5.3100586,0.0,0.0,0.0,77.283325,77.178955,79.61792
1770514226581,-1.0151367,0.2919922,0.17382812,8.972168,-11.84082,-7.080078,3399.0,886.0,-44.0,77.283325,77.178955,79.61792
1770514226593,-1.0151367,0.2919922,0.17382812,8.972168,-11.84082,-7.080078,3399.0,886.0,-44.0,74.24011,77.66785,76.294556
1770514226610,-1.0151367,0.2919922,0.17382812,8.972168,-11.84082,-7.080078,0.0,0.0,0.0,74.24011,77.66785,76.294556
1770514226681,-0.9350586,0.22998047,0.0073242188,-6.8359375,-1.4648438,-0.5493164,3367.0,930.0,-59.0,74.24011,77.66785,76.294556
1770514226692,-0.9350586,0.22998047,0.0073242188,-6.8359375,-1.4648438,-0.5493164,3367.0,930.0,-59.0,68.95569,77.60742,71.032104
1770514226704,-0.9350586,0.22998047,0.0073242188,-6.8359375,-1.4648438,-0.5493164,0.0,0.0,0.0,68.95569,77.60742,71.032104
1770514226781,-0.91503906,0.2841797,0.02734375,2.8686523,-3.1738281,5.493164,3310.0,933.0,-172.0,68.95569,77.60742,71.032104
1770514226792,-0.91503906,0.2841797,0.02734375,2.8686523,-3.1738281,5.493164,3310.0,933.0,-172.0,69.09851,77.15698,71.4386
1770514226803,-0.91503906,0.2841797,0.02734375,2.8686523,-3.1738281,5.493164,0.0,0.0,0.0,69.09851,77.15698,71.4386
1770514226880,-0.9760742,0.22949219,0.07421875,5.3710938,8.422852,-2.1972656,3310.0,957.0,-195.0,69.09851,77.15698,71.4386
1770514226892,-0.9760742,0.22949219,0.07421875,5.3710938,8.422852,-2.1972656,3310.0,957.0,-195.0,72.89978,76.849365,74.591675
1770514226912,-0.9760742,0.22949219,0.07421875,5.3710938,8.422852,-2.1972656,0.0,0.0,0.0,72.89978,76.849365,74.591675
1770514226980,-0.94677734,0.26611328,-0.05517578,-3.6010742,16.235352,-1.7700195,3319.0,923.0,-152.0,72.89978,76.849365,74.591675
1770514226991,-0.94677734,0.26611328,-0.05517578,-3.6010742,16.235352,-1.7700195,3319.0,923.0,-152.0,78.1897,77.25586,79.89807
1770514227003,-0.94677734,0.26611328,-0.05517578,-3.6010742,16.235352,-1.7700195,0.0,0.0,0.0,78.1897,77.25586,79.89807
1770514227080,-0.95947266,0.24560547,0.20361328,-6.0424805,-13.244629,6.1035156,3352.0,917.0,-60.0,78.1897,77.25586,79.89807
1770514227091,-0.95947266,0.24560547,0.20361328,-6.0424805,-13.244629,6.1035156,3352.0,917.0,-60.0,83.18298,77.35474,85.512085
1770514227106,-0.95947266,0.24560547,0.20361328,-6.0424805,-13.244629,6.1035156,0.0,0.0,0.0,83.18298,77.35474,85.512085
1770514227179,-0.84716797,0.091308594,0.037109375,-9.338379,-18.127441,-1.7089844,3440.0,954.0,5.0,83.18298,77.35474,85.512085
1770514227191,-0.84716797,0.091308594,0.037109375,-9.338379,-18.127441,-1.7089844,3440.0,954.0,5.0,72.10327,76.44287,74.75098
1770514227202,-0.84716797,0.091308594,0.037109375,-9.338379,-18.127441,-1.7089844,0.0,0.0,0.0,72.10327,76.44287,74.75098
1770514227279,-0.95654297,0.1953125,0.14453125,-15.136719,-5.859375,4.4555664,3352.0,979.0,-104.0,72.10327,76.44287,74.75098
1770514227291,-0.95654297,0.1953125,0.14453125,-15.136719,-5.859375,4.4555664,3352.0,979.0,-104.0,70.20813,76.52527,73.76221
1770514227312,-0.95654297,0.1953125,0.14453125,-15.136719,-5.859375,4.4555664,0.0,0.0,0.0,70.20813,76.52527,73.76221
1770514227379,-0.9638672,0.20019531,0.05908203,-0.79345703,-14.709473,0.79345703,3326.0,1019.0,-202.0,70.20813,76.52527,73.76221
1770514227390,-0.9638672,0.20019531,0.05908203,-0.79345703,-14.709473,0.79345703,3326.0,1019.0,-202.0,63.825073,75.910034,67.53845
1770514227407,-0.9638672,0.20019531,0.05908203,-0.79345703,-14.709473,0.79345703,0.0,0.0,0.0,63.825073,75.910034,67.53845
1770514227478,-0.9819336,0.12109375,0.049804688,-0.61035156,-10.437012,4.1503906,3269.0,1062.0,-311.0,63.825073,75.910034,67.53845
1770514227490,-0.9819336,0.12109375,0.049804688,-0.61035156,-10.437012,4.1503906,3269.0,1062.0,-311.0,61.19934,75.10803,64.193115
1770514227501,-0.9819336,0.12109375,0.049804688,-0.61035156,-10.437012,4.1503906,0.0,0.0,0.0,61.19934,75.10803,64.193115
1770514227578,-1.0205078,0.22460938,0.083984375,7.2631836,11.047363,3.2348633,3209.0,1072.0,-432.0,61.19934,75.10803,64.193115
1770514227590,-1.0205078,0.22460938,0.083984375,7.2631836,11.047363,3.2348633,3209.0,1072.0,-432.0,63.012085,75.15198,65.27527
1770514227601,-1.0205078,0.22460938,0.083984375,7.2631836,11.047363,3.2348633,0.0,0.0,0.0,63.012085,75.15198,65.27527
1770514227678,-0.9399414,0.10449219,-0.037597656,12.939453,19.958496,-3.90625,3188.0,1076.0,-470.0,63.012085,75.15198,65.27527
1770514227689,-0.9399414,0.10449219,-0.037597656,12.939453,19.958496,-3.90625,3188.0,1076.0,-470.0,71.94946,76.27258,72.542725
1770514227701,-0.9399414,0.10449219,-0.037597656,12.939453,19.958496,-3.90625,0.0,0.0,0.0,71.94946,76.27258,72.542725
1770514227778,-1.2216797,0.2529297,0.34423828,-13.61084,-0.61035156,-9.155273,3271.0,1011.0,-336.0,71.94946,76.27258,72.542725
1770514227789,-1.2216797,0.2529297,0.34423828,-13.61084,-0.61035156,-9.155273,3271.0,1011.0,-336.0,79.953,77.66235,79.78821
1770514227801,-1.2216797,0.2529297,0.34423828,-13.61084,-0.61035156,-9.155273,0.0,0.0,0.0,79.953,77.66235,79.78821
1770514227877,-0.79052734,0.2734375,0.034179688,19.53125,-11.657715,-9.82666,3378.0,967.0,-147.0,79.953,77.66235,79.78821
1770514227889,-0.79052734,0.2734375,0.034179688,19.53125,-11.657715,-9.82666,3378.0,967.0,-147.0,73.73474,78.32153,74.42688
1770514227901,-0.79052734,0.2734375,0.034179688,19.53125,-11.657715,-9.82666,0.0,0.0,0.0,73.73474,78.32153,74.42688
1770514227977,-0.97216797,0.12841797,0.068847656,-3.479004,-12.084961,-6.7749023,3375.0,996.0,-167.0,73.73474,78.32153,74.42688
1770514227989,-0.97216797,0.12841797,0.068847656,-3.479004,-12.084961,-6.7749023,3375.0,996.0,-167.0,66.94519,78.5083,67.08252
1770514228002,-0.97216797,0.12841797,0.068847656,-3.479004,-12.084961,-6.7749023,0.0,0.0,0.0,66.94519,78.5083,67.08252
1770514228077,-0.89941406,0.3100586,0.032226562,-2.0751953,-6.286621,7.019043,3293.0,1002.0,-270.0,66.94519,78.5083,67.08252
1770514228088,-0.89941406,0.3100586,0.032226562,-2.0751953,-6.286621,7.019043,3293.0,1002.0,-270.0,63.533936,77.60742,64.59412
1770514228100,-0.89941406,0.3100586,0.032226562,-2.0751953,-6.286621,7.019043,0.0,0.0,0.0,63.533936,77.60742,64.59412
1770514228176,-0.9433594,0.17480469,0.049316406,5.9814453,5.3100586,5.004883,3251.0,1044.0,-316.0,63.533936,77.60742,64.59412
1770514228188,-0.9433594,0.17480469,0.049316406,5.9814453,5.3100586,5.004883,3251.0,1044.0,-316.0,66.71997,77.178955,66.28601
1770514228200,-0.9433594,0.17480469,0.049316406,5.9814453,5.3100586,5.004883,0.0,0.0,0.0,66.71997,77.178955,66.28601
1770514228276,-0.94970703,0.23779297,-0.0073242188,-12.573242,14.343262,-1.4648438,3235.0,1014.0,-312.0,66.71997,77.178955,66.28601
1770514228288,-0.94970703,0.23779297,-0.0073242188,-12.573242,14.343262,-1.4648438,3235.0,1014.0,-312.0,71.99341,77.404175,71.76819
1770514228300,-0.94970703,0.23779297,-0.0073242188,-12.573242,14.343262,-1.4648438,0.0,0.0,0.0,71.99341,77.404175,71.76819
1770514228376,-1.1645508,0.31445312,0.17138672,-7.1411133,8.7890625,0.79345703,3295.0,983.0,-274.0,71.99341,77.404175,71.76819
1770514228387,-1.1645508,0.31445312,0.17138672,-7.1411133,8.7890625,0.79345703,3295.0,983.0,-274.0,78.64563,78.013916,79.96948
1770514228400,-1.1645508,0.31445312,0.17138672,-7.1411133,8.7890625,0.79345703,0.0,0.0,0.0,78.64563,78.013916,79.96948
1770514228476,-0.78466797,0.12988281,0.1274414,-1.4038086,-19.958496,5.859375,3353.0,1079.0,-147.0,78.64563,78.013916,79.96948
1770514228487,-0.78466797,0.12988281,0.1274414,-1.4038086,-19.958496,5.859375,3353.0,1079.0,-147.0,74.124756,77.3053,75.305786
1770514228503,-0.78466797,0.12988281,0.1274414,-1.4038086,-19.958496,5.859375,0.0,0.0,0.0,74.124756,77.3053,75.305786
1770514228575,-1.0283203,0.16601562,0.11669922,1.0986328,7.9956055,3.6010742,3354.0,1128.0,-157.0,74.124756,77.3053,75.305786
1770514228587,-1.0283203,0.16601562,0.11669922,1.0986328,7.9956055,3.6010742,3354.0,1128.0,-157.0,72.724,76.94824,74.24011
1770514228599,-1.0283203,0.16601562,0.11669922,1.0986328,7.9956055,3.6010742,0.0,0.0,0.0,72.724,76.94824,74.24011
1770514228675,-0.9169922,0.13378906,0.06689453,12.390137,-8.239746,-0.48828125,3347.0,1132.0,-179.0,72.724,76.94824,74.24011
1770514228687,-0.9169922,0.13378906,0.06689453,12.390137,-8.239746,-0.48828125,3347.0,1132.0,-179.0,71.5155,76.673584,73.08655
1770514228699,-0.9169922,0.13378906,0.06689453,12.390137,-8.239746,-0.48828125,0.0,0.0,0.0,71.5155,76.673584,73.08655
1770514228775,-1.015625,0.19335938,0.09716797,-7.9345703,-6.4086914,7.1411133,3378.0,1116.0,-231.0,71.5155,76.673584,73.08655
1770514228786,-1.015625,0.19335938,0.09716797,-7.9345703,-6.4086914,7.1411133,3378.0,1116.0,-231.0,68.33496,76.135254,70.14221
1770514228797,-1.015625,0.19335938,0.09716797,-7.9345703,-6.4086914,7.1411133,0.0,0.0,0.0,68.33496,76.135254,70.14221
1770514228874,-0.97998047,0.14794922,-0.014160156,2.9907227,-7.6293945,1.159668,3338.0,1116.0,-283.0,68.33496,76.135254,70.14221
1770514228886,-0.97998047,0.14794922,-0.014160156,2.9907227,-7.6293945,1.159668,3338.0,1116.0,-283.0,65.12146,75.322266,66.58264
1770514228903,-0.97998047,0.14794922,-0.014160156,2.9907227,-7.6293945,1.159668,0.0,0.0,0.0,65.12146,75.322266,66.58264
1770514228974,-0.98779297,0.15234375,0.048339844,3.9672852,11.047363,-0.061035156,3293.0,1116.0,-344.0,65.12146,75.322266,66.58264
1770514228986,-0.98779297,0.15234375,0.048339844,3.9672852,11.047363,-0.061035156,3293.0,1116.0,-344.0,68.29651,75.67383,69.24133
1770514228997,-0.98779297,0.15234375,0.048339844,3.9672852,11.047363,-0.061035156,0.0,0.0,0.0,68.29651,75.67383,69.24133
1770514229074,-0.9921875,0.20117188,-0.032226562,12.268066,13.427734,-3.3569336,3284.0,1115.0,-338.0,68.29651,75.67383,69.24133
1770514229088,-0.9921875,0.20117188,-0.032226562,12.268066,13.427734,-3.3569336,3284.0,1115.0,-338.0,74.17969,76.73401,74.16321
1770514229096,-0.9921875,0.20117188,-0.032226562,12.268066,13.427734,-3.3569336,0.0,0.0,0.0,74.17969,76.73401,74.16321
1770514229173,-1.1787109,0.27441406,0.2998047,-9.82666,-6.652832,-2.8076172,3284.0,1088.0,-223.0,74.17969,76.73401,74.16321
1770514229186,-1.1787109,0.27441406,0.2998047,-9.82666,-6.652832,-2.8076172,3284.0,1088.0,-223.0,77.60193,77.43164,77.21741
1770514229197,-1.1787109,0.27441406,0.2998047,-9.82666,-6.652832,-2.8076172,0.0,0.0,0.0,77.60193,77.43164,77.21741
1770514229273,-0.9482422,0.29345703,0.087402344,19.104004,-9.94873,-8.666992,3339.0,1049.0,-119.0,77.60193,77.43164,77.21741
1770514229285,-0.9482422,0.29345703,0.087402344,19.104004,-9.94873,-8.666992,3339.0,1049.0,-119.0,71.8396,77.79968,71.0376
1770514229296,-0.9482422,0.29345703,0.087402344,19.104004,-9.94873,-8.666992,0.0,0.0,0.0,71.8396,77.79968,71.0376
1770514229373,-0.9428711,0.18554688,0.05029297,6.652832,-16.906738,-7.507324,3293.0,1038.0,-192.0,71.8396,77.79968,71.0376
1770514229384,-0.9428711,0.18554688,0.05029297,6.652832,-16.906738,-7.507324,3293.0,1038.0,-192.0,65.28076,77.93701,63.462524
1770514229396,-0.9428711,0.18554688,0.05029297,6.652832,-16.906738,-7.507324,0.0,0.0,0.0,65.28076,77.93701,63.462524
1770514229472,-0.88183594,0.25341797,0.08300781,5.3100586,-4.638672,0.91552734,3225.0,1004.0,-267.0,65.28076,77.93701,63.462524
1770514229484,-0.88183594,0.25341797,0.08300781,5.3100586,-4.638672,0.91552734,3225.0,1004.0,-267.0,62.627563,77.53052,60.43579
1770514229495,-0.88183594,0.25341797,0.08300781,5.3100586,-4.638672,0.91552734,0.0,0.0,0.0,62.627563,77.53052,60.43579
1770514229573,-0.94677734,0.16455078,0.05419922,0.61035156,8.544922,-2.746582,3183.0,992.0,-336.0,62.627563,77.53052,60.43579
1770514229584,-0.94677734,0.16455078,0.05419922,0.61035156,8.544922,-2.746582,3183.0,992.0,-336.0,64.75891,77.59094,61.847534
1770514229601,-0.94677734,0.16455078,0.05419922,0.61035156,8.544922,-2.746582,0.0,0.0,0.0,64.75891,77.59094,61.847534
1770514229672,-0.94921875,0.24609375,-0.022949219,-3.112793,16.540527,-5.432129,3195.0,942.0,-334.0,64.75891,77.59094,61.847534
1770514229683,-0.94921875,0.24609375,-0.022949219,-3.112793,16.540527,-5.432129,3195.0,942.0,-334.0,69.3512,78.585205,67.04956
1770514229695,-0.94921875,0.24609375,-0.022949219,-3.112793,16.540527,-5.432129,0.0,0.0,0.0,69.3512,78.585205,67.04956
1770514229772,-1.3364258,0.32861328,0.1484375,-3.90625,30.151367,2.319336,3254.0,972.0,-292.0,69.3512,78.585205,67.04956
1770514229783,-1.3364258,0.32861328,0.1484375,-3.90625,30.151367,2.319336,3254.0,972.0,-292.0,83.55652,79.28833,81.46362
1770514229797,-1.3364258,0.32861328,0.1484375,-3.90625,30.151367,2.319336,0.0,0.0,0.0,83.55652,79.28833,81.46362
1770514229871,-0.73291016,0.12548828,0.053710938,16.784668,-17.822266,3.479004,3365.0,998.0,-145.0,83.55652,79.28833,81.46362
1770514229887,-0.73291016,0.12548828,0.053710938,16.784668,-17.822266,3.479004,3365.0,998.0,-145.0,82.95227,78.67859,80.77698
1770514229895,-0.73291016,0.12548828,0.053710938,16.784668,-17.822266,3.479004,0.0,0.0,0.0,82.95227,78.67859,80.77698
1770514229971,-1.1147461,0.15136719,0.14257812,-27.160645,-10.253906,15.197754,3452.0,993.0,-76.0,82.95227,78.67859,80.77698
1770514229982,-1.1147461,0.15136719,0.14257812,-27.160645,-10.253906,15.197754,3452.0,993.0,-76.0,76.503296,77.27783,75.893555
1770514230000,-1.1147461,0.15136719,0.14257812,-27.160645,-10.253906,15.197754,0.0,0.0,0.0,76.503296,77.27783,75.893555
1770514230071,-0.9873047,0.14746094,0.064941406,13.671875,-16.845703,-5.554199,3403.0,1009.0,-160.0,76.503296,77.27783,75.893555
1770514230082,-0.9873047,0.14746094,0.064941406,13.671875,-16.845703,-5.554199,3403.0,1009.0,-160.0,69.9939,76.45935,70.389404
1770514230093,-0.9873047,0.14746094,0.064941406,13.671875,-16.845703,-5.554199,0.0,0.0,0.0,69.9939,76.45935,70.389404
1770514230170,-0.98339844,0.15722656,0.022949219,-8.544922,-7.751465,-2.5634766,3350.0,1071.0,-301.0,69.9939,76.45935,70.389404
1770514230182,-0.98339844,0.15722656,0.022949219,-8.544922,-7.751465,-2.5634766,3350.0,1071.0,-301.0,64.297485,76.81641,63.61084
1770514230194,-0.98339844,0.15722656,0.022949219,-8.544922,-7.751465,-2.5634766,0.0,0.0,0.0,64.297485,76.81641,63.61084
1770514230270,-0.98535156,0.30566406,0.025878906,7.751465,-7.2631836,10.314941,3260.0,1080.0,-418.0,64.297485,76.81641,63.61084
1770514230282,-0.98535156,0.30566406,0.025878906,7.751465,-7.2631836,10.314941,3260.0,1080.0,-418.0,63.308716,76.32202,62.347412
1770514230293,-0.98535156,0.30566406,0.025878906,7.751465,-7.2631836,10.314941,0.0,0.0,0.0,63.308716,76.32202,62.347412
1770514230370,-0.9868164,0.0107421875,-0.043945312,41.015625,23.010254,-17.39502,3193.0,1111.0,-486.0,63.308716,76.32202,62.347412
1770514230381,-0.9868164,0.0107421875,-0.043945312,41.015625,23.010254,-17.39502,3193.0,1111.0,-486.0,69.09302,77.01416,64.87976
1770514230396,-0.9868164,0.0107421875,-0.043945312,41.015625,23.010254,-17.39502,0.0,0.0,0.0,69.09302,77.01416,64.87976
1770514230469,-1.0014648,0.16748047,-0.0063476562,-14.587402,8.544922,10.192871,3231.0,1004.0,-470.0,69.09302,77.01416,64.87976
1770514230481,-1.0014648,0.16748047,-0.0063476562,-14.587402,8.544922,10.192871,3231.0,1004.0,-470.0,76.206665,77.59094,71.28479
1770514230492,-1.0014648,0.16748047,-0.0063476562,-14.587402,8.544922,10.192871,0.0,0.0,0.0,76.206665,77.59094,71.28479
1770514230569,-1.1323242,0.21044922,0.19482422,-8.972168,-4.9438477,-3.6621094,3295.0,928.0,-345.0,76.206665,77.59094,71.28479
1770514230581,-1.1323242,0.21044922,0.19482422,-8.972168,-4.9438477,-3.6621094,3295.0,928.0,-345.0,75.95947,78.063354,71.42761
1770514230592,-1.1323242,0.21044922,0.19482422,-8.972168,-4.9438477,-3.6621094,0.0,0.0,0.0,75.95947,78.063354,71.42761
1770514230669,-1.1708984,0.296875,0.14697266,5.859375,-14.160156,-12.573242,3351.0,889.0,-247.0,75.95947,78.063354,71.42761
1770514230680,-1.1708984,0.296875,0.14697266,5.859375,-14.160156,-12.573242,3351.0,889.0,-247.0,76.55823,78.57422,70.88928
1770514230695,-1.1708984,0.296875,0.14697266,5.859375,-14.160156,-12.573242,0.0,0.0,0.0,76.55823,78.57422,70.88928
1770514230768,-0.9321289,0.27148438,0.038085938,0.30517578,7.080078,-1.0375977,3354.0,836.0,-184.0,76.55823,78.57422,70.88928
1770514230780,-0.9321289,0.27148438,0.038085938,0.30517578,7.080078,-1.0375977,3354.0,836.0,-184.0,74.23462,79.645386,68.97766
1770514230792,-0.9321289,0.27148438,0.038085938,0.30517578,7.080078,-1.0375977,0.0,0.0,0.0,74.23462,79.645386,68.97766
1770514230868,-0.89160156,0.2578125,-0.0107421875,13.671875,1.4038086,0.91552734,3339.0,853.0,-205.0,74.23462,79.645386,68.97766
1770514230880,-0.89160156,0.2578125,-0.0107421875,13.671875,1.4038086,0.91552734,3339.0,853.0,-205.0,75.71777,79.315796,70.83435
1770514230892,-0.89160156,0.2578125,-0.0107421875,13.671875,1.4038086,0.91552734,0.0,0.0,0.0,75.71777,79.315796,70.83435
1770514230968,-1.0048828,0.19140625,0.0078125,-8.911133,15.930176,4.1503906,3365.0,843.0,-191.0,75.71777,79.315796,70.83435
1770514230979,-1.0048828,0.19140625,0.0078125,-8.911133,15.930176,4.1503906,3365.0,843.0,-191.0,81.8866,79.2334,75.94849
1770514230999,-1.0048828,0.19140625,0.0078125,-8.911133,15.930176,4.1503906,0.0,0.0,0.0,81.8866,79.2334,75.94849
1770514231068,-0.9477539,0.25146484,-0.10498047,-21.972656,15.441895,-1.3427734,3387.0,773.0,-104.0,81.8866,79.2334,75.94849
1770514231079,-0.9477539,0.25146484,-0.10498047,-21.972656,15.441895,-1.3427734,3387.0,773.0,-104.0,91.63147,78.88733,88.29712
1770514231090,-0.9477539,0.25146484,-0.10498047,-21.972656,15.441895,-1.3427734,0.0,0.0,0.0,91.63147,78.88733,88.29712
1770514231167,-0.8144531,0.1171875,0.1928711,-4.8828125,-12.145996,5.7373047,3489.0,846.0,29.0,91.63147,78.88733,88.29712
1770514231179,-0.8144531,0.1171875,0.1928711,-4.8828125,-12.145996,5.7373047,3489.0,846.0,29.0,95.55359,79.11255,94.575806
1770514231190,-0.8144531,0.1171875,0.1928711,-4.8828125,-12.145996,5.7373047,0.0,0.0,0.0,95.55359,79.11255,94.575806
1770514231267,-1.3759766,0.10205078,-0.1743164,-39.67285,15.563965,16.723633,3560.0,1010.0,89.0,95.55359,79.11255,94.575806
1770514231278,-1.3759766,0.10205078,-0.1743164,-39.67285,15.563965,16.723633,3560.0,1010.0,89.0,85.061646,79.18945,86.2262
1770514231290,-1.3759766,0.10205078,-0.1743164,-39.67285,15.563965,16.723633,0.0,0.0,0.0,85.061646,79.18945,86.2262
1770514231367,-0.92626953,0.23144531,0.063964844,-2.6245117,-12.145996,2.1972656,3517.0,1142.0,-26.0,85.061646,79.18945,86.2262
1770514231378,-0.92626953,0.23144531,0.063964844,-2.6245117,-12.145996,2.1972656,3517.0,1142.0,-26.0,88.50586,78.81592,89.77478
1770514231390,-0.92626953,0.23144531,0.063964844,-2.6245117,-12.145996,2.1972656,0.0,0.0,0.0,88.50586,78.81592,89.77478
1770514231466,-0.98291016,0.1484375,0.04736328,8.605957,-1.953125,1.4648438,3568.0,1138.0,6.0,88.50586,78.81592,89.77478
1770514231478,-0.98291016,0.1484375,0.04736328,8.605957,-1.953125,1.4648438,3568.0,1138.0,6.0,81.35376,79.01367,83.045654
1770514231490,-0.98291016,0.1484375,0.04736328,8.605957,-1.953125,1.4648438,0.0,0.0,0.0,81.35376,79.01367,83.045654
1770514231569,-0.9941406,0.16503906,-0.05419922,13.977051,-6.1035156,8.178711,3509.0,1196.0,-115.0,81.35376,79.01367,83.045654
1770514231579,-0.9941406,0.16503906,-0.05419922,13.977051,-6.1035156,8.178711,3509.0,1196.0,-115.0,79.782715,78.5083,80.45288
1770514231589,-0.9941406,0.16503906,-0.05419922,13.977051,-6.1035156,8.178711,0.0,0.0,0.0,79.782715,78.5083,80.45288
1770514231666,-1.0014648,0.06347656,-0.0107421875,10.375977,-0.61035156,-3.8452148,3508.0,1178.0,-146.0,79.782715,78.5083,80.45288
1770514231678,-1.0014648,0.06347656,-0.0107421875,10.375977,-0.61035156,-3.8452148,3508.0,1178.0,-146.0,82.194214,78.568726,80.233154
1770514231690,-1.0014648,0.06347656,-0.0107421875,10.375977,-0.61035156,-3.8452148,0.0,0.0,0.0,82.194214,78.568726,80.233154
1770514231766,-1.1767578,0.1508789,0.14355469,16.052246,10.375977,-12.939453,3475.0,1050.0,-163.0,82.194214,78.568726,80.233154
1770514231777,-1.1767578,0.1508789,0.14355469,16.052246,10.375977,-12.939453,3475.0,1050.0,-163.0,85.30884,79.557495,82.056885
1770514231789,-1.1767578,0.1508789,0.14355469,16.052246,10.375977,-12.939453,0.0,0.0,0.0,85.30884,79.557495,82.056885
1770514231865,-0.82666016,0.21582031,-0.13427734,28.503418,8.850098,3.8452148,3487.0,981.0,-91.0,85.30884,79.557495,82.056885
1770514231877,-0.82666016,0.21582031,-0.13427734,28.503418,8.850098,3.8452148,3487.0,981.0,-91.0,84.35852,79.66736,80.88684
1770514231889,-0.82666016,0.21582031,-0.13427734,28.503418,8.850098,3.8452148,0.0,0.0,0.0,84.35852,79.66736,80.88684
1770514231965,-1.0229492,0.23144531,0.13427734,30.822754,-14.404297,-8.7890625,3481.0,956.0,-47.0,84.35852,79.66736,80.88684
1770514231977,-1.0229492,0.23144531,0.13427734,30.822754,-14.404297,-8.7890625,3481.0,956.0,-47.0,84.47937,80.233154,76.0199
1770514232000,-1.0229492,0.23144531,0.13427734,30.822754,-14.404297,-8.7890625,0.0,0.0,0.0,84.47937,80.233154,76.0199
1770514232065,-1.0336914,0.203125,0.010253906,6.3476562,1.2817383,-8.056641,3454.0,656.0,38.0,84.47937,80.233154,76.0199
1770514232076,-1.0336914,0.203125,0.010253906,6.3476562,1.2817383,-8.056641,3454.0,656.0,38.0,77.12402,80.86487,68.323975
1770514232089,-1.0336914,0.203125,0.010253906,6.3476562,1.2817383,-8.056641,0.0,0.0,0.0,77.12402,80.86487,68.323975
1770514232165,-0.92578125,0.17626953,0.020507812,-4.0893555,-4.638672,2.5024414,3382.0,489.0,-41.0,77.12402,80.86487,68.323975
1770514232176,-0.92578125,0.17626953,0.020507812,-4.0893555,-4.638672,2.5024414,3382.0,489.0,-41.0,76.986694,80.72754,68.90076
1770514232187,-0.92578125,0.17626953,0.020507812,-4.0893555,-4.638672,2.5024414,0.0,0.0,0.0,76.986694,80.72754,68.90076
1770514232264,-0.9399414,0.15966797,0.03466797,-15.869141,8.7890625,0.30517578,3361.0,462.0,-48.0,76.986694,80.72754,68.90076
1770514232275,-0.9399414,0.15966797,0.03466797,-15.869141,8.7890625,0.30517578,3361.0,462.0,-48.0,78.82141,80.69458,71.7572
1770514232287,-0.9399414,0.15966797,0.03466797,-15.869141,8.7890625,0.30517578,0.0,0.0,0.0,78.82141,80.69458,71.7572
1770514232364,-0.97753906,0.20117188,-0.10205078,-34.79004,11.84082,-1.159668,3393.0,447.0,-39.0,78.82141,80.69458,71.7572
1770514232375,-0.97753906,0.20117188,-0.10205078,-34.79004,11.84082,-1.159668,3393.0,447.0,-39.0,82.61719,80.69458,78.42041
1770514232387,-0.97753906,0.20117188,-0.10205078,-34.79004,11.84082,-1.159668,0.0,0.0,0.0,82.61719,80.69458,78.42041
1770514232463,-1.3735352,0.22167969,0.100097656,-45.715332,15.563965,-0.30517578,3421.0,621.0,-28.0,82.61719,80.69458,78.42041
1770514232475,-1.3735352,0.22167969,0.100097656,-45.715332,15.563965,-0.30517578,3421.0,621.0,-28.0,88.566284,81.11755,88.04443
1770514232487,-1.3735352,0.22167969,0.100097656,-45.715332,15.563965,-0.30517578,0.0,0.0,0.0,88.566284,81.11755,88.04443
1770514232563,-0.7241211,0.08984375,0.03955078,-28.015137,-32.592773,6.4697266,3413.0,905.0,-38.0,88.566284,81.11755,88.04443
1770514232575,-0.7241211,0.08984375,0.03955078,-28.015137,-32.592773,6.4697266,3413.0,905.0,-38.0,79.60144,80.47485,82.08984
1770514232587,-0.7241211,0.08984375,0.03955078,-28.015137,-32.592773,6.4697266,0.0,0.0,0.0,79.60144,80.47485,82.08984
1770514232663,-1.0512695,0.22265625,0.15478516,-18.615723,2.380371,13.305664,3469.0,1109.0,-83.0,79.60144,80.47485,82.08984
1770514232674,-1.0512695,0.22265625,0.15478516,-18.615723,2.380371,13.305664,3469.0,1109.0,-83.0,73.6853,79.39819,78.618164
1770514232686,-1.0512695,0.22265625,0.15478516,-18.615723,2.380371,13.305664,0.0,0.0,0.0,73.6853,79.39819,78.618164
1770514232763,-0.93066406,0.078125,0.028808594,-5.126953,-5.1879883,4.5166016,3414.0,1259.0,-220.0,73.6853,79.39819,78.618164
1770514232774,-0.93066406,0.078125,0.028808594,-5.126953,-5.1879883,4.5166016,3414.0,1259.0,-220.0,71.78467,78.41492,77.63489
1770514232785,-0.93066406,0.078125,0.028808594,-5.126953,-5.1879883,4.5166016,0.0,0.0,0.0,71.78467,78.41492,77.63489
1770514232862,-1.0292969,0.20654297,0.10595703,-11.535645,-3.0517578,7.6293945,3429.0,1324.0,-250.0,71.78467,78.41492,77.63489
1770514232874,-1.0292969,0.20654297,0.10595703,-11.535645,-3.0517578,7.6293945,3429.0,1324.0,-250.0,69.14795,78.1073,75.877075
1770514232885,-1.0292969,0.20654297,0.10595703,-11.535645,-3.0517578,7.6293945,0.0,0.0,0.0,69.14795,78.1073,75.877075
1770514232962,-1.0039062,0.1875,-0.095214844,14.099121,6.5307617,4.5776367,3411.0,1375.0,-294.0,69.14795,78.1073,75.877075
1770514232974,-1.0039062,0.1875,-0.095214844,14.099121,6.5307617,4.5776367,3411.0,1375.0,-294.0,68.724976,77.211914,74.729004
1770514232991,-1.0039062,0.1875,-0.095214844,14.099121,6.5307617,4.5776367,0.0,0.0,0.0,68.724976,77.211914,74.729004
1770514233062,-1.0380859,0.10205078,-0.016601562,22.705078,23.742676,5.3100586,3394.0,1378.0,-295.0,68.724976,77.211914,74.729004
1770514233073,-1.0380859,0.10205078,-0.016601562,22.705078,23.742676,5.3100586,3394.0,1378.0,-295.0,81.6449,76.87134,85.23743
1770514233085,-1.0380859,0.10205078,-0.016601562,22.705078,23.742676,5.3100586,0.0,0.0,0.0,81.6449,76.87134,85.23743
1770514233161,-1.0371094,0.16357422,-0.023925781,13.916016,19.28711,-1.7089844,3474.0,1244.0,-141.0,81.6449,76.87134,85.23743
1770514233173,-1.0371094,0.16357422,-0.023925781,13.916016,19.28711,-1.7089844,3474.0,1244.0,-141.0,93.31787,77.36572,94.93286
1770514233185,-1.0371094,0.16357422,-0.023925781,13.916016,19.28711,-1.7089844,0.0,0.0,0.0,93.31787,77.36572,94.93286
1770514233261,-1.0820312,0.25683594,0.16845703,-10.986328,-18.249512,-2.1362305,3627.0,1095.0,93.0,93.31787,77.36572,94.93286
1770514233272,-1.0820312,0.25683594,0.16845703,-10.986328,-18.249512,-2.1362305,3627.0,1095.0,93.0,95.64697,78.04138,97.33887
1770514233284,-1.0820312,0.25683594,0.16845703,-10.986328,-18.249512,-2.1362305,0.0,0.0,0.0,95.64697,78.04138,97.33887
1770514233361,-0.9003906,0.33251953,0.04296875,35.949707,-10.314941,-6.1035156,3689.0,1040.0,240.0,95.64697,78.04138,97.33887
1770514233372,-0.9003906,0.33251953,0.04296875,35.949707,-10.314941,-6.1035156,3689.0,1040.0,240.0,88.59375,78.25012,89.06616
1770514233385,-0.9003906,0.33251953,0.04296875,35.949707,-10.314941,-6.1035156,0.0,0.0,0.0,88.59375,78.25012,89.06616
1770514233461,-0.94384766,0.111816406,-0.05078125,-2.8076172,2.8076172,-12.023926,3628.0,982.0,159.0,88.59375,78.25012,89.06616
1770514233472,-0.94384766,0.111816406,-0.05078125,-2.8076172,2.8076172,-12.023926,3628.0,982.0,159.0,90.148315,79.13452,90.406494
1770514233490,-0.94384766,0.111816406,-0.05078125,-2.8076172,2.8076172,-12.023926,0.0,0.0,0.0,90.148315,79.13452,90.406494
1770514233560,-0.9067383,0.31103516,-0.07714844,-4.0893555,-4.211426,0.24414062,3588.0,950.0,134.0,90.148315,79.13452,90.406494
1770514233572,-0.9067383,0.31103516,-0.07714844,-4.0893555,-4.211426,0.24414062,3588.0,950.0,134.0,87.8302,78.95874,89.313354
1770514233583,-0.9067383,0.31103516,-0.07714844,-4.0893555,-4.211426,0.24414062,0.0,0.0,0.0,87.8302,78.95874,89.313354
1770514233660,-0.92333984,0.22851562,-0.06542969,-1.3427734,-6.713867,1.4038086,3566.0,996.0,107.0,87.8302,78.95874,89.313354
1770514233671,-0.92333984,0.22851562,-0.06542969,-1.3427734,-6.713867,1.4038086,3566.0,996.0,107.0,86.138306,78.706055,86.85791
1770514233683,-0.92333984,0.22851562,-0.06542969,-1.3427734,-6.713867,1.4038086,0.0,0.0,0.0,86.138306,78.706055,86.85791
1770514233760,-0.9790039,0.21777344,-0.05029297,-10.620117,-5.493164,-1.8920898,3527.0,1003.0,64.0,86.138306,78.706055,86.85791
1770514233771,-0.9790039,0.21777344,-0.05029297,-10.620117,-5.493164,-1.8920898,3527.0,1003.0,64.0,83.21594,78.409424,83.94653
1770514233784,-0.9790039,0.21777344,-0.05029297,-10.620117,-5.493164,-1.8920898,0.0,0.0,0.0,83.21594,78.409424,83.94653
1770514233859,-1.246582,0.25830078,0.13330078,-22.155762,-6.8359375,-0.061035156,3492.0,1039.0,-11.0,83.21594,78.409424,83.94653
1770514233871,-1.246582,0.25830078,0.13330078,-22.155762,-6.8359375,-0.061035156,3492.0,1039.0,-11.0,82.88086,78.65662,85.29236
1770514233882,-1.246582,0.25830078,0.13330078,-22.155762,-6.8359375,-0.061035156,0.0,0.0,0.0,82.88086,78.65662,85.29236
1770514233959,-0.8149414,0.19482422,0.08886719,-23.864746,-22.888184,8.239746,3458.0,1171.0,-85.0,82.88086,78.65662,85.29236
1770514233971,-0.8149414,0.19482422,0.08886719,-23.864746,-22.888184,8.239746,3458.0,1171.0,-85.0,74.35547,78.1073,78.33252
1770514233982,-0.8149414,0.19482422,0.08886719,-23.864746,-22.888184,8.239746,0.0,0.0,0.0,74.35547,78.1073,78.33252
1770514234059,-1.0,0.026367188,0.16064453,-9.094238,7.507324,1.953125,3418.0,1289.0,-157.0,74.35547,78.1073,78.33252
1770514234070,-1.0,0.026367188,0.16064453,-9.094238,7.507324,1.953125,3418.0,1289.0,-157.0,71.466064,77.15698,76.79993
1770514234082,-1.0,0.026367188,0.16064453,-9.094238,7.507324,1.953125,0.0,0.0,0.0,71.466064,77.15698,76.79993
1770514234158,-0.9248047,0.15917969,0.10058594,-8.605957,-9.094238,1.7089844,3392.0,1361.0,-236.0,71.466064,77.15698,76.79993
1770514234170,-0.9248047,0.15917969,0.10058594,-8.605957,-9.094238,1.7089844,3392.0,1361.0,-236.0,67.34619,77.041626,74.20166
1770514234182,-0.9248047,0.15917969,0.10058594,-8.605957,-9.094238,1.7089844,0.0,0.0,0.0,67.34619,77.041626,74.20166
1770514234258,-1.0449219,0.26220703,0.095214844,7.446289,0.7324219,7.2631836,3355.0,1441.0,-300.0,67.34619,77.041626,74.20166
1770514234270,-1.0449219,0.26220703,0.095214844,7.446289,0.7324219,7.2631836,3355.0,1441.0,-300.0,63.81958,76.77246,70.41138
1770514234283,-1.0449219,0.26220703,0.095214844,7.446289,0.7324219,7.2631836,0.0,0.0,0.0,63.81958,76.77246,70.41138
1770514234358,-0.99658203,0.14990234,-0.061523438,19.836426,14.099121,2.8076172,3331.0,1471.0,-341.0,63.81958,76.77246,70.41138
1770514234369,-0.99658203,0.14990234,-0.061523438,19.836426,14.099121,2.8076172,3331.0,1471.0,-341.0,67.39014,76.30005,71.94397
1770514234381,-0.99658203,0.14990234,-0.061523438,19.836426,14.099121,2.8076172,0.0,0.0,0.0,67.39014,76.30005,71.94397
1770514234457,-1.0063477,0.088378906,0.030761719,27.770996,21.484375,-3.6010742,3359.0,1389.0,-354.0,67.39014,76.30005,71.94397
1770514234469,-1.0063477,0.088378906,0.030761719,27.770996,21.484375,-3.6010742,3359.0,1389.0,-354.0,77.84363,76.64612,79.81018
1770514234480,-1.0063477,0.088378906,0.030761719,27.770996,21.484375,-3.6010742,0.0,0.0,0.0,77.84363,76.64612,79.81018
1770514234557,-1.1323242,0.23095703,0.049804688,14.953613,28.869629,-1.953125,3457.0,1285.0,-201.0,77.84363,76.64612,79.81018
1770514234569,-1.1323242,0.23095703,0.049804688,14.953613,28.869629,-1.953125,3457.0,1285.0,-201.0,91.884155,77.65137,91.538086
1770514234580,-1.1323242,0.23095703,0.049804688,14.953613,28.869629,-1.953125,0.0,0.0,0.0,91.884155,77.65137,91.538086
1770514234657,-0.86816406,0.31298828,0.029296875,-5.2490234,-37.41455,-0.48828125,3534.0,1097.0,48.0,91.884155,77.65137,91.538086
1770514234668,-0.86816406,0.31298828,0.029296875,-5.2490234,-37.41455,-0.48828125,3534.0,1097.0,48.0,84.973755,78.255615,84.347534
1770514234680,-0.86816406,0.31298828,0.029296875,-5.2490234,-37.41455,-0.48828125,0.0,0.0,0.0,84.973755,78.255615,84.347534
1770514234757,-1.0253906,0.28759766,0.10644531,18.066406,-1.0986328,-5.2490234,3551.0,1020.0,131.0,84.973755,78.255615,84.347534
1770514234768,-1.0253906,0.28759766,0.10644531,18.066406,-1.0986328,-5.2490234,3551.0,1020.0,131.0,83.21594,78.33801,81.2384
1770514234779,-1.0253906,0.28759766,0.10644531,18.066406,-1.0986328,-5.2490234,0.0,0.0,0.0,83.21594,78.33801,81.2384
1770514234856,-0.9379883,0.2397461,-0.056152344,3.7841797,-11.169434,-3.90625,3459.0,950.0,58.0,83.21594,78.33801,81.2384
1770514234868,-0.9379883,0.2397461,-0.056152344,3.7841797,-11.169434,-3.90625,3459.0,950.0,58.0,77.629395,78.255615,75.64087
1770514234881,-0.9379883,0.2397461,-0.056152344,3.7841797,-11.169434,-3.90625,0.0,0.0,0.0,77.629395,78.255615,75.64087
1770514234956,-0.92333984,0.23144531,0.001953125,6.4697266,-10.192871,0.61035156,3401.0,924.0,-27.0,77.629395,78.255615,75.64087
1770514234968,-0.92333984,0.23144531,0.001953125,6.4697266,-10.192871,0.61035156,3401.0,924.0,-27.0,74.9762,78.1073,72.32849
1770514234981,-0.92333984,0.23144531,0.001953125,6.4697266,-10.192871,0.61035156,0.0,0.0,0.0,74.9762,78.1073,72.32849
1770514235056,-0.9921875,0.23779297,0.011230469,-3.8452148,5.2490234,-1.7700195,3398.0,910.0,-107.0,74.9762,78.1073,72.32849
1770514235067,-0.9921875,0.23779297,0.011230469,-3.8452148,5.2490234,-1.7700195,3398.0,910.0,-107.0,76.21765,78.03589,73.30078
1770514235079,-0.9921875,0.23779297,0.011230469,-3.8452148,5.2490234,-1.7700195,0.0,0.0,0.0,76.21765,78.03589,73.30078
1770514235155,-1.0566406,0.24609375,-0.028320312,-13.122559,18.981934,2.1972656,3380.0,896.0,-144.0,76.21765,78.03589,73.30078
1770514235167,-1.0566406,0.24609375,-0.028320312,-13.122559,18.981934,2.1972656,3380.0,896.0,-144.0,80.92529,77.98645,78.777466
1770514235178,-1.0566406,0.24609375,-0.028320312,-13.122559,18.981934,2.1972656,0.0,0.0,0.0,80.92529,77.98645,78.777466
1770514235255,-0.94970703,0.21923828,0.23291016,-12.634277,-8.972168,7.019043,3412.0,942.0,-115.0,80.92529,77.98645,78.777466
1770514235267,-0.94970703,0.21923828,0.23291016,-12.634277,-8.972168,7.019043,3412.0,942.0,-115.0,85.38025,77.23389,85.27588
1770514235278,-0.94970703,0.21923828,0.23291016,-12.634277,-8.972168,7.019043,0.0,0.0,0.0,85.38025,77.23389,85.27588
1770514235355,-0.9555664,0.078125,0.046875,-12.207031,3.479004,-1.7700195,3498.0,1018.0,8.0,85.38025,77.23389,85.27588
1770514235366,-0.9555664,0.078125,0.046875,-12.207031,3.479004,-1.7700195,3498.0,1018.0,8.0,77.404175,76.8219,77.96448
1770514235378,-0.9555664,0.078125,0.046875,-12.207031,3.479004,-1.7700195,0.0,0.0,0.0,77.404175,76.8219,77.96448
1770514235454,-0.8823242,0.2006836,0.052734375,-11.474609,-14.892578,3.7841797,3465.0,1079.0,-93.0,77.404175,76.8219,77.96448
1770514235466,-0.8823242,0.2006836,0.052734375,-11.474609,-14.892578,3.7841797,3465.0,1079.0,-93.0,75.30029,76.624146,77.84363
1770514235477,-0.8823242,0.2006836,0.052734375,-11.474609,-14.892578,3.7841797,0.0,0.0,0.0,75.30029,76.624146,77.84363
1770514235554,-1.0512695,0.22314453,0.17041016,15.563965,-15.625,3.1738281,3434.0,1156.0,-132.0,75.30029,76.624146,77.84363
1770514235566,-1.0512695,0.22314453,0.17041016,15.563965,-15.625,3.1738281,3434.0,1156.0,-132.0,68.0603,75.93201,70.22461
1770514235578,-1.0512695,0.22314453,0.17041016,15.563965,-15.625,3.1738281,0.0,0.0,0.0,68.0603,75.93201,70.22461
1770514235654,-0.98583984,0.20361328,-0.0087890625,1.2817383,0.4272461,-0.4272461,3346.0,1192.0,-261.0,68.0603,75.93201,70.22461
1770514235665,-0.98583984,0.20361328,-0.0087890625,1.2817383,0.4272461,-0.4272461,3346.0,1192.0,-261.0,65.62683,75.93201,66.6156
1770514235677,-0.98583984,0.20361328,-0.0087890625,1.2817383,0.4272461,-0.4272461,0.0,0.0,0.0,65.62683,75.93201,66.6156
1770514235754,-1.0400391,0.12109375,-0.05126953,34.5459,19.53125,-8.850098,3314.0,1161.0,-380.0,65.62683,75.93201,66.6156
1770514235765,-1.0400391,0.12109375,-0.05126953,34.5459,19.53125,-8.850098,3314.0,1161.0,-380.0,70.30151,76.15723,69.472046
1770514235777,-1.0400391,0.12109375,-0.05126953,34.5459,19.53125,-8.850098,0.0,0.0,0.0,70.30151,76.15723,69.472046
1770514235853,-1.034668,0.16210938,0.072753906,13.061523,7.873535,-11.84082,3336.0,1108.0,-363.0,70.30151,76.15723,69.472046
1770514235865,-1.034668,0.16210938,0.072753906,13.061523,7.873535,-11.84082,3336.0,1108.0,-363.0,79.83765,78.09631,76.21216
1770514235876,-1.034668,0.16210938,0.072753906,13.061523,7.873535,-11.84082,0.0,0.0,0.0,79.83765,78.09631,76.21216
1770514235953,-1.0234375,0.19970703,0.2055664,-3.479004,-33.75244,-4.333496,3404.0,979.0,-218.0,79.83765,78.09631,76.21216
1770514235965,-1.0234375,0.19970703,0.2055664,-3.479004,-33.75244,-4.333496,3404.0,979.0,-218.0,79.53552,78.986206,75.73425
1770514235977,-1.0234375,0.19970703,0.2055664,-3.479004,-33.75244,-4.333496,0.0,0.0,0.0,79.53552,78.986206,75.73425
1770514236053,-1.0722656,0.32714844,0.14550781,20.874023,-8.7890625,-1.0986328,3433.0,934.0,-108.0,79.53552,78.986206,75.73425
1770514236064,-1.0722656,0.32714844,0.14550781,20.874023,-8.7890625,-1.0986328,3433.0,934.0,-108.0,71.71326,79.03015,66.95618
1770514236080,-1.0722656,0.32714844,0.14550781,20.874023,-8.7890625,-1.0986328,0.0,0.0,0.0,71.71326,79.03015,66.95618
1770514236152,-0.9794922,0.18457031,-0.008300781,-2.746582,-0.6713867,-5.2490234,3362.0,872.0,-201.0,71.71326,79.03015,66.95618
1770514236164,-0.9794922,0.18457031,-0.008300781,-2.746582,-0.6713867,-5.2490234,3362.0,872.0,-201.0,66.96716,79.28284,61.72119
1770514236176,-0.9794922,0.18457031,-0.008300781,-2.746582,-0.6713867,-5.2490234,0.0,0.0,0.0,66.96716,79.28284,61.72119
1770514236252,-0.9296875,0.2475586,0.016113281,-0.061035156,3.540039,0.12207031,3278.0,839.0,-262.0,66.96716,79.28284,61.72119
1770514236264,-0.9296875,0.2475586,0.016113281,-0.061035156,3.540039,0.12207031,3278.0,839.0,-262.0,68.50525,79.27734,64.26453
1770514236276,-0.9296875,0.2475586,0.016113281,-0.061035156,3.540039,0.12207031,0.0,0.0,0.0,68.50525,79.27734,64.26453
1770514236352,-0.9560547,0.22021484,0.0034179688,-7.2631836,10.009766,3.112793,3306.0,873.0,-273.0,68.50525,79.27734,64.26453
1770514236363,-0.9560547,0.22021484,0.0034179688,-7.2631836,10.009766,3.112793,3306.0,873.0,-273.0,72.29553,79.06311,68.411865
1770514236375,-0.9560547,0.22021484,0.0034179688,-7.2631836,10.009766,3.112793,0.0,0.0,0.0,72.29553,79.06311,68.411865
1770514236452,-0.921875,0.26123047,-0.055664062,-10.437012,15.869141,5.6762695,3332.0,899.0,-231.0,72.29553,79.06311,68.411865
1770514236463,-0.921875,0.26123047,-0.055664062,-10.437012,15.869141,5.6762695,3332.0,899.0,-231.0,80.13977,78.881836,77.145996
1770514236474,-0.921875,0.26123047,-0.055664062,-10.437012,15.869141,5.6762695,0.0,0.0,0.0,80.13977,78.881836,77.145996
1770514236551,-1.4228516,0.2631836,0.1381836,-10.192871,21.66748,-3.9672852,3383.0,957.0,-173.0,80.13977,78.881836,77.145996
1770514236563,-1.4228516,0.2631836,0.1381836,-10.192871,21.66748,-3.9672852,3383.0,957.0,-173.0,86.187744,78.49182,83.71582
1770514236574,-1.4228516,0.2631836,0.1381836,-10.192871,21.66748,-3.9672852,0.0,0.0,0.0,86.187744,78.49182,83.71582
1770514236651,-0.73583984,0.07763672,0.15185547,-13.671875,-31.677246,-0.79345703,3438.0,991.0,-75.0,86.187744,78.49182,83.71582
1770514236662,-0.73583984,0.07763672,0.15185547,-13.671875,-31.677246,-0.79345703,3438.0,991.0,-75.0,82.46338,78.349,81.188965
1770514236674,-0.73583984,0.07763672,0.15185547,-13.671875,-31.677246,-0.79345703,0.0,0.0,0.0,82.46338,78.349,81.188965
1770514236751,-1.0458984,0.2133789,0.10058594,-5.9814453,10.864258,5.126953,3477.0,1052.0,-88.0,82.46338,78.349,81.188965
1770514236762,-1.0458984,0.2133789,0.10058594,-5.9814453,10.864258,5.126953,3477.0,1052.0,-88.0,75.893555,78.48633,75.92651
1770514236774,-1.0458984,0.2133789,0.10058594,-5.9814453,10.864258,5.126953,0.0,0.0,0.0,75.893555,78.48633,75.92651
1770514236850,-0.9199219,0.15136719,0.046875,6.8359375,-15.50293,0.24414062,3430.0,1150.0,-231.0,75.893555,78.48633,75.92651
1770514236862,-0.9199219,0.15136719,0.046875,6.8359375,-15.50293,0.24414062,3430.0,1150.0,-231.0,71.06506,77.71179,71.94397
1770514236873,-0.9199219,0.15136719,0.046875,6.8359375,-15.50293,0.24414062,0.0,0.0,0.0,71.06506,77.71179,71.94397
1770514236950,-1.0141602,0.17773438,0.096191406,-12.817383,0.5493164,10.131836,3384.0,1182.0,-260.0,71.06506,77.71179,71.94397
1770514236962,-1.0141602,0.17773438,0.096191406,-12.817383,0.5493164,10.131836,3384.0,1182.0,-260.0,70.62561,77.29431,71.482544
1770514236974,-1.0141602,0.17773438,0.096191406,-12.817383,0.5493164,10.131836,0.0,0.0,0.0,70.62561,77.29431,71.482544
1770514237050,-0.9902344,0.13623047,-0.025390625,12.268066,-4.333496,-1.3427734,3377.0,1189.0,-304.0,70.62561,77.29431,71.482544
1770514237061,-0.9902344,0.13623047,-0.025390625,12.268066,-4.333496,-1.3427734,3377.0,1189.0,-304.0,69.12048,76.761475,69.15344
1770514237073,-0.9902344,0.13623047,-0.025390625,12.268066,-4.333496,-1.3427734,0.0,0.0,0.0,69.12048,76.761475,69.15344
1770514237150,-1.0009766,0.14257812,0.026855469,15.319824,19.042969,-0.5493164,3353.0,1161.0,-324.0,69.12048,76.761475,69.15344
1770514237161,-1.0009766,0.14257812,0.026855469,15.319824,19.042969,-0.5493164,3353.0,1161.0,-324.0,77.44263,77.299805,75.83862
1770514237173,-1.0009766,0.14257812,0.026855469,15.319824,19.042969,-0.5493164,0.0,0.0,0.0,77.44263,77.299805,75.83862
1770514237249,-1.1650391,0.19433594,0.060546875,17.822266,19.65332,-6.164551,3420.0,1090.0,-249.0,77.44263,77.299805,75.83862
1770514237261,-1.1650391,0.19433594,0.060546875,17.822266,19.65332,-6.164551,3420.0,1090.0,-249.0,89.18152,78.32153,85.94055
1770514237272,-1.1650391,0.19433594,0.060546875,17.822266,19.65332,-6.164551,0.0,0.0,0.0,89.18152,78.32153,85.94055
1770514237349,-0.87939453,0.2319336,0.029296875,3.3569336,-34.057617,-3.7231445,3532.0,976.0,-37.0,89.18152,78.32153,85.94055
1770514237360,-0.87939453,0.2319336,0.029296875,3.3569336,-34.057617,-3.7231445,3532.0,976.0,-37.0,84.99573,79.0741,81.78223
1770514237372,-0.87939453,0.2319336,0.029296875,3.3569336,-34.057617,-3.7231445,0.0,0.0,0.0,84.99573,79.0741,81.78223
1770514237449,-1.03125,0.27783203,0.13183594,42.23633,-4.0893555,-12.145996,3558.0,919.0,24.0,84.99573,79.0741,81.78223
1770514237460,-1.03125,0.27783203,0.13183594,42.23633,-4.0893555,-12.145996,3558.0,919.0,24.0,80.3595,79.348755,74.58069
1770514237475,-1.03125,0.27783203,0.13183594,42.23633,-4.0893555,-12.145996,0.0,0.0,0.0,80.3595,79.348755,74.58069
1770514237548,-0.9921875,0.1821289,-0.0703125,-12.268066,-0.12207031,-4.0893555,3485.0,774.0,-46.0,80.3595,79.348755,74.58069
1770514237560,-0.9921875,0.1821289,-0.0703125,-12.268066,-0.12207031,-4.0893555,3485.0,774.0,-46.0,78.35449,79.91455,73.03162
1770514237571,-0.9921875,0.1821289,-0.0703125,-12.268066,-0.12207031,-4.0893555,0.0,0.0,0.0,78.35449,79.91455,73.03162
1770514237648,-0.96777344,0.28466797,-0.04638672,-0.4272461,-8.300781,3.4179688,3435.0,748.0,-112.0,78.35449,79.91455,73.03162
1770514237659,-0.96777344,0.28466797,-0.04638672,-0.4272461,-8.300781,3.4179688,3435.0,748.0,-112.0,74.069824,79.524536,69.312744
1770514237671,-0.96777344,0.28466797,-0.04638672,-0.4272461,-8.300781,3.4179688,0.0,0.0,0.0,74.069824,79.524536,69.312744
1770514237748,-1.0107422,0.21875,0.03955078,-22.888184,-3.6621094,11.108398,3370.0,795.0,-177.0,74.069824,79.524536,69.312744
1770514237759,-1.0107422,0.21875,0.03955078,-22.888184,-3.6621094,11.108398,3370.0,795.0,-177.0,74.35547,78.618164,70.04883
1770514237771,-1.0107422,0.21875,0.03955078,-22.888184,-3.6621094,11.108398,0.0,0.0,0.0,74.35547,78.618164,70.04883
1770514237847,-0.9736328,0.25390625,0.020019531,-7.385254,17.150879,12.390137,3378.0,809.0,-231.0,74.35547,78.618164,70.04883
1770514237859,-0.9736328,0.25390625,0.020019531,-7.385254,17.150879,12.390137,3378.0,809.0,-231.0,78.15674,77.61841,74.96521
1770514237879,-0.9736328,0.25390625,0.020019531,-7.385254,17.150879,12.390137,0.0,0.0,0.0,78.15674,77.61841,74.96521
1770514237947,-1.2314453,0.21142578,0.07421875,-17.944336,22.583008,-7.507324,3369.0,863.0,-212.0,78.15674,77.61841,74.96521
1770514237959,-1.2314453,0.21142578,0.07421875,-17.944336,22.583008,-7.507324,3369.0,863.0,-212.0,86.40747,77.211914,84.59473
1770514237970,-1.2314453,0.21142578,0.07421875,-17.944336,22.583008,-7.507324,0.0,0.0,0.0,86.40747,77.211914,84.59473
1770514238047,-0.77685547,0.23583984,0.12988281,-16.601562,-28.137207,7.385254,3469.0,907.0,-72.0,86.40747,77.211914,84.59473
1770514238059,-0.77685547,0.23583984,0.12988281,-16.601562,-28.137207,7.385254,3469.0,907.0,-72.0,77.162476,76.3385,77.05261
1770514238079,-0.77685547,0.23583984,0.12988281,-16.601562,-28.137207,7.385254,0.0,0.0,0.0,77.162476,76.3385,77.05261
1770514238147,-1.15625,0.16503906,0.15234375,-0.18310547,11.779785,9.643555,3452.0,998.0,-112.0,77.162476,76.3385,77.05261
1770514238158,-1.15625,0.16503906,0.15234375,-0.18310547,11.779785,9.643555,3452.0,998.0,-112.0,75.476074,77.091064,75.025635
1770514238169,-1.15625,0.16503906,0.15234375,-0.18310547,11.779785,9.643555,0.0,0.0,0.0,75.476074,77.091064,75.025635
1770514238246,-0.87353516,0.23144531,0.020019531,8.605957,-14.892578,-6.4086914,3404.0,1051.0,-230.0,75.476074,77.091064,75.025635
1770514238258,-0.87353516,0.23144531,0.020019531,8.605957,-14.892578,-6.4086914,3404.0,1051.0,-230.0,71.048584,75.89905,71.76819
1770514238271,-0.87353516,0.23144531,0.020019531,8.605957,-14.892578,-6.4086914,0.0,0.0,0.0,71.048584,75.89905,71.76819
1770514238346,-1.0,0.12841797,0.10839844,-12.6953125,-3.540039,9.338379,3391.0,1062.0,-235.0,71.048584,75.89905,71.76819
1770514238358,-1.0,0.12841797,0.10839844,-12.6953125,-3.540039,9.338379,3391.0,1062.0,-235.0,70.21912,75.6134,70.6311
1770514238369,-1.0,0.12841797,0.10839844,-12.6953125,-3.540039,9.338379,0.0,0.0,0.0,70.21912,75.6134,70.6311
1770514238446,-0.9682617,0.26367188,9.765625E-4,2.0141602,6.225586,8.056641,3364.0,1052.0,-330.0,70.21912,75.6134,70.6311
1770514238457,-0.9682617,0.26367188,9.765625E-4,2.0141602,6.225586,8.056641,3364.0,1052.0,-330.0,70.91675,75.267334,71.570435
1770514238479,-0.9682617,0.26367188,9.765625E-4,2.0141602,6.225586,8.056641,0.0,0.0,0.0,70.91675,75.267334,71.570435
1770514238545,-1.0200195,0.061523438,-0.07910156,11.84082,33.569336,-6.8969727,3345.0,1081.0,-341.0,70.91675,75.267334,71.570435
1770514238557,-1.0200195,0.061523438,-0.07910156,11.84082,33.569336,-6.8969727,3345.0,1081.0,-341.0,82.27661,75.99243,81.46362
1770514238578,-1.0200195,0.061523438,-0.07910156,11.84082,33.569336,-6.8969727,0.0,0.0,0.0,82.27661,75.99243,81.46362
1770514238645,-1.0131836,0.21191406,0.055664062,-6.591797,26.550293,-11.413574,3452.0,1030.0,-217.0,82.27661,75.99243,81.46362
1770514238657,-1.0131836,0.21191406,0.055664062,-6.591797,26.550293,-11.413574,3452.0,1030.0,-217.0,92.92786,77.475586,92.30713
1770514238668,-1.0131836,0.21191406,0.055664062,-6.591797,26.550293,-11.413574,0.0,0.0,0.0,92.92786,77.475586,92.30713
1770514238745,-0.92333984,0.25439453,-0.11230469,13.549805,-11.291504,-8.605957,3558.0,1012.0,-6.0,92.92786,77.475586,92.30713
1770514238756,-0.92333984,0.25439453,-0.11230469,13.549805,-11.291504,-8.605957,3558.0,1012.0,-6.0,87.60498,77.645874,87.64343
1770514238768,-0.92333984,0.25439453,-0.11230469,13.549805,-11.291504,-8.605957,0.0,0.0,0.0,87.60498,77.645874,87.64343
1770514238845,-1.0307617,0.23730469,0.13134766,16.174316,-21.911621,-8.239746,3569.0,1021.0,50.0,87.60498,77.645874,87.64343
1770514238856,-1.0307617,0.23730469,0.13134766,16.174316,-21.911621,-8.239746,3569.0,1021.0,50.0,84.38599,78.79944,80.90332
1770514238868,-1.0307617,0.23730469,0.13134766,16.174316,-21.911621,-8.239746,0.0,0.0,0.0,84.38599,78.79944,80.90332
1770514238944,-0.9370117,0.20605469,-0.009277344,4.5776367,-6.958008,-7.8125,3524.0,913.0,-22.0,84.38599,78.79944,80.90332
1770514238956,-0.9370117,0.20605469,-0.009277344,4.5776367,-6.958008,-7.8125,3524.0,913.0,-22.0,76.16821,79.156494,71.795654
1770514238968,-0.9370117,0.20605469,-0.009277344,4.5776367,-6.958008,-7.8125,0.0,0.0,0.0,76.16821,79.156494,71.795654
1770514239044,-0.9326172,0.21044922,0.011230469,7.385254,-2.0141602,-0.061035156,3430.0,866.0,-147.0,76.16821,79.156494,71.795654
1770514239055,-0.9326172,0.21044922,0.011230469,7.385254,-2.0141602,-0.061035156,3430.0,866.0,-147.0,75.7782,79.27185,70.702515
1770514239068,-0.9326172,0.21044922,0.011230469,7.385254,-2.0141602,-0.061035156,0.0,0.0,0.0,75.7782,79.27185,70.702515
1770514239144,-0.94091797,0.20507812,0.026855469,-10.253906,-2.1362305,-0.8544922,3385.0,841.0,-207.0,75.7782,79.27185,70.702515
1770514239155,-0.94091797,0.20507812,0.026855469,-10.253906,-2.1362305,-0.8544922,3385.0,841.0,-207.0,75.6189,79.244385,70.46631
1770514239168,-0.94091797,0.20507812,0.026855469,-10.253906,-2.1362305,-0.8544922,0.0,0.0,0.0,75.6189,79.244385,70.46631
1770514239243,-0.9375,0.28320312,-0.106933594,-22.155762,8.422852,6.1035156,3379.0,836.0,-197.0,75.6189,79.244385,70.46631
1770514239255,-0.9375,0.28320312,-0.106933594,-22.155762,8.422852,6.1035156,3379.0,836.0,-197.0,77.27234,79.019165,73.70178
1770514239267,-0.9375,0.28320312,-0.106933594,-22.155762,8.422852,6.1035156,0.0,0.0,0.0,77.27234,79.019165,73.70178
1770514239343,-1.1450195,0.23730469,0.22851562,-8.361816,-9.399414,12.268066,3392.0,917.0,-196.0,77.27234,79.019165,73.70178
1770514239355,-1.1450195,0.23730469,0.22851562,-8.361816,-9.399414,12.268066,3392.0,917.0,-196.0,82.84241,78.54675,80.617676
1770514239366,-1.1450195,0.23730469,0.22851562,-8.361816,-9.399414,12.268066,0.0,0.0,0.0,82.84241,78.54675,80.617676
1770514239443,-0.7939453,0.07470703,0.068359375,-18.676758,-23.376465,1.4038086,3426.0,1020.0,-155.0,82.84241,78.54675,80.617676
1770514239454,-0.7939453,0.07470703,0.068359375,-18.676758,-23.376465,1.4038086,3426.0,1020.0,-155.0,72.125244,77.3053,71.76819
1770514239466,-0.7939453,0.07470703,0.068359375,-18.676758,-23.376465,1.4038086,0.0,0.0,0.0,72.125244,77.3053,71.76819
1770514239542,-0.97998047,0.2084961,0.1953125,-9.094238,-4.333496,5.2490234,3397.0,1117.0,-251.0,72.125244,77.3053,71.76819
1770514239554,-0.97998047,0.2084961,0.1953125,-9.094238,-4.333496,5.2490234,3397.0,1117.0,-251.0,69.25232,77.3053,69.75769
1770514239566,-0.97998047,0.2084961,0.1953125,-9.094238,-4.333496,5.2490234,0.0,0.0,0.0,69.25232,77.3053,69.75769
1770514239642,-0.8852539,0.15283203,0.107421875,6.4697266,-14.526367,-1.0986328,3360.0,1205.0,-348.0,69.25232,77.3053,69.75769
1770514239654,-0.8852539,0.15283203,0.107421875,6.4697266,-14.526367,-1.0986328,3360.0,1205.0,-348.0,64.764404,76.8219,65.093994
1770514239667,-0.8852539,0.15283203,0.107421875,6.4697266,-14.526367,-1.0986328,0.0,0.0,0.0,64.764404,76.8219,65.093994
1770514239742,-0.99609375,0.15283203,0.15576172,2.6855469,-7.9345703,5.004883,3325.0,1238.0,-432.0,64.764404,76.8219,65.093994
1770514239753,-0.99609375,0.15283203,0.15576172,2.6855469,-7.9345703,5.004883,3325.0,1238.0,-432.0,59.935913,75.81665,60.29297
1770514239765,-0.99609375,0.15283203,0.15576172,2.6855469,-7.9345703,5.004883,0.0,0.0,0.0,59.935913,75.81665,60.29297
1770514239841,-1.0058594,0.23242188,0.040039062,-2.8076172,5.493164,9.094238,3256.0,1242.0,-567.0,59.935913,75.81665,60.29297
1770514239853,-1.0058594,0.23242188,0.040039062,-2.8076172,5.493164,9.094238,3256.0,1242.0,-567.0,59.79309,75.55847,59.39209
1770514239868,-1.0058594,0.23242188,0.040039062,-2.8076172,5.493164,9.094238,0.0,0.0,0.0,59.79309,75.55847,59.39209
1770514239941,-1.0004883,0.09375,0.0053710938,17.8833,18.554688,-1.8920898,3204.0,1238.0,-630.0,59.79309,75.55847,59.39209
1770514239953,-1.0004883,0.09375,0.0053710938,17.8833,18.554688,-1.8920898,3204.0,1238.0,-630.0,67.25281,75.805664,65.286255
1770514239967,-1.0004883,0.09375,0.0053710938,17.8833,18.554688,-1.8920898,0.0,0.0,0.0,67.25281,75.805664,65.286255
1770514240041,-1.1884766,0.20458984,0.07519531,5.2490234,16.540527,2.8076172,3250.0,1171.0,-528.0,67.25281,75.805664,65.286255
1770514240052,-1.1884766,0.20458984,0.07519531,5.2490234,16.540527,2.8076172,3250.0,1171.0,-528.0,75.50354,76.59668,72.36145
1770514240064,-1.1884766,0.20458984,0.07519531,5.2490234,16.540527,2.8076172,0.0,0.0,0.0,75.50354,76.59668,72.36145
1770514240141,-1.0380859,0.21240234,0.04345703,-19.042969,-7.873535,-3.2348633,3326.0,1100.0,-366.0,75.50354,76.59668,72.36145
1770514240152,-1.0380859,0.21240234,0.04345703,-19.042969,-7.873535,-3.2348633,3326.0,1100.0,-366.0,77.16797,77.091064,75.08606
1770514240163,-1.0380859,0.21240234,0.04345703,-19.042969,-7.873535,-3.2348633,0.0,0.0,0.0,77.16797,77.091064,75.08606
1770514240240,-1.0136719,0.3828125,0.20410156,14.221191,-12.634277,-10.864258,3379.0,1088.0,-254.0,77.16797,77.091064,75.08606
1770514240252,-1.0136719,0.3828125,0.20410156,14.221191,-12.634277,-10.864258,3379.0,1088.0,-254.0,72.76245,77.74475,69.367676
1770514240263,-1.0136719,0.3828125,0.20410156,14.221191,-12.634277,-10.864258,0.0,0.0,0.0,72.76245,77.74475,69.367676
1770514240340,-0.91748047,0.25732422,0.009765625,-1.0986328,-1.7089844,-2.4414062,3352.0,1083.0,-283.0,72.76245,77.74475,69.367676
1770514240351,-0.91748047,0.25732422,0.009765625,-1.0986328,-1.7089844,-2.4414062,3352.0,1083.0,-283.0,70.44983,78.30505,66.71448
1770514240363,-0.91748047,0.25732422,0.009765625,-1.0986328,-1.7089844,-2.4414062,0.0,0.0,0.0,70.44983,78.30505,66.71448
1770514240440,-0.9243164,0.27197266,0.045898438,20.629883,-3.4179688,-0.18310547,3323.0,1042.0,-301.0,70.44983,78.30505,66.71448
1770514240451,-0.9243164,0.27197266,0.045898438,20.629883,-3.4179688,-0.18310547,3323.0,1042.0,-301.0,69.16992,77.51953,65.54443
1770514240464,-0.9243164,0.27197266,0.045898438,20.629883,-3.4179688,-0.18310547,0.0,0.0,0.0,69.16992,77.51953,65.54443
1770514240539,-0.96728516,0.17773438,0.024414062,-11.657715,7.873535,1.5258789,3319.0,1019.0,-307.0,69.16992,77.51953,65.54443
1770514240551,-0.96728516,0.17773438,0.024414062,-11.657715,7.873535,1.5258789,3319.0,1019.0,-307.0,72.784424,77.56348,67.543945
1770514240563,-0.96728516,0.17773438,0.024414062,-11.657715,7.873535,1.5258789,0.0,0.0,0.0,72.784424,77.56348,67.543945
1770514240639,-0.94677734,0.22753906,-0.052734375,-15.441895,12.268066,-7.507324,3336.0,933.0,-286.0,72.784424,77.56348,67.543945
1770514240651,-0.94677734,0.22753906,-0.052734375,-15.441895,12.268066,-7.507324,3336.0,933.0,-286.0,76.04187,77.975464,72.213135
1770514240662,-0.94677734,0.22753906,-0.052734375,-15.441895,12.268066,-7.507324,0.0,0.0,0.0,76.04187,77.975464,72.213135
1770514240739,-1.0854492,0.29101562,0.26660156,-45.288086,-17.8833,18.615723,3365.0,1009.0,-274.0,76.04187,77.975464,72.213135
1770514240750,-1.0854492,0.29101562,0.26660156,-45.288086,-17.8833,18.615723,3365.0,1009.0,-274.0,76.46484,78.20618,76.014404
1770514240763,-1.0854492,0.29101562,0.26660156,-45.288086,-17.8833,18.615723,0.0,0.0,0.0,76.46484,78.20618,76.014404
1770514240838,-0.81152344,0.17675781,0.040039062,7.3242188,-11.59668,3.9672852,3380.0,1184.0,-245.0,76.46484,78.20618,76.014404
1770514240850,-0.81152344,0.17675781,0.040039062,7.3242188,-11.59668,3.9672852,3380.0,1184.0,-245.0,65.69275,76.19568,66.725464
1770514240861,-0.81152344,0.17675781,0.040039062,7.3242188,-11.59668,3.9672852,0.0,0.0,0.0,65.69275,76.19568,66.725464
1770514240938,-0.99658203,0.14550781,0.20751953,-9.521484,-5.79834,10.375977,3291.0,1304.0,-319.0,65.69275,76.19568,66.725464
1770514240950,-0.99658203,0.14550781,0.20751953,-9.521484,-5.79834,10.375977,3291.0,1304.0,-319.0,66.033325,75.60791,66.8573
1770514240961,-0.99658203,0.14550781,0.20751953,-9.521484,-5.79834,10.375977,0.0,0.0,0.0,66.033325,75.60791,66.8573
1770514241038,-0.9614258,0.10205078,0.05517578,15.258789,-10.192871,-7.6904297,3305.0,1333.0,-421.0,66.033325,75.60791,66.8573
1770514241049,-0.9614258,0.10205078,0.05517578,15.258789,-10.192871,-7.6904297,3305.0,1333.0,-421.0,61.80359,74.99817,62.374878
1770514241061,-0.9614258,0.10205078,0.05517578,15.258789,-10.192871,-7.6904297,0.0,0.0,0.0,61.80359,74.99817,62.374878
1770514241138,-1.0395508,0.28125,0.11035156,-10.314941,-4.333496,12.268066,3282.0,1324.0,-529.0,61.80359,74.99817,62.374878
1770514241149,-1.0395508,0.28125,0.11035156,-10.314941,-4.333496,12.268066,3282.0,1324.0,-529.0,60.43579,74.86633,60.51819
1770514241160,-1.0395508,0.28125,0.11035156,-10.314941,-4.333496,12.268066,0.0,0.0,0.0,60.43579,74.86633,60.51819
1770514241237,-0.9790039,0.103027344,-0.029785156,24.658203,7.9345703,-8.239746,3235.0,1324.0,-564.0,60.43579,74.86633,60.51819
1770514241249,-0.9790039,0.103027344,-0.029785156,24.658203,7.9345703,-8.239746,3235.0,1324.0,-564.0,62.495728,74.63562,60.770874
1770514241260,-0.9790039,0.103027344,-0.029785156,24.658203,7.9345703,-8.239746,0.0,0.0,0.0,62.495728,74.63562,60.770874
1770514241338,-0.9692383,0.111816406,0.059570312,6.1035156,15.563965,-4.760742,3227.0,1254.0,-568.0,62.495728,74.63562,60.770874
1770514241349,-0.9692383,0.111816406,0.059570312,6.1035156,15.563965,-4.760742,3227.0,1254.0,-568.0,68.236084,75.60791,65.0885
1770514241360,-0.9692383,0.111816406,0.059570312,6.1035156,15.563965,-4.760742,0.0,0.0,0.0,68.236084,75.60791,65.0885
1770514241437,-1.0380859,0.19628906,0.06689453,0.61035156,32.53174,-5.3710938,3276.0,1192.0,-462.0,68.236084,75.60791,65.0885
1770514241448,-1.0380859,0.19628906,0.06689453,0.61035156,32.53174,-5.3710938,3276.0,1192.0,-462.0,77.12402,77.05261,73.08655
1770514241465,-1.0380859,0.19628906,0.06689453,0.61035156,32.53174,-5.3710938,0.0,0.0,0.0,77.12402,77.05261,73.08655
1770514241536,-0.9682617,0.20800781,0.0043945312,0.9765625,-11.84082,-8.056641,3375.0,1129.0,-315.0,77.12402,77.05261,73.08655
1770514241548,-0.9682617,0.20800781,0.0043945312,0.9765625,-11.84082,-8.056641,3375.0,1129.0,-315.0,75.31677,77.67334,71.97693
1770514241559,-0.9682617,0.20800781,0.0043945312,0.9765625,-11.84082,-8.056641,0.0,0.0,0.0,75.31677,77.67334,71.97693
1770514241636,-0.9526367,0.28222656,0.20458984,26.428223,-9.521484,-17.51709,3419.0,1136.0,-219.0,75.31677,77.67334,71.97693
1770514241648,-0.9526367,0.28222656,0.20458984,26.428223,-9.521484,-17.51709,3419.0,1136.0,-219.0,70.72449,78.75549,65.0061
1770514241664,-0.9526367,0.28222656,0.20458984,26.428223,-9.521484,-17.51709,0.0,0.0,0.0,70.72449,78.75549,65.0061
1770514241736,-0.98779297,0.2133789,-0.020507812,-1.3427734,-3.479004,-5.554199,3356.0,1077.0,-232.0,70.72449,78.75549,65.0061
1770514241747,-0.98779297,0.2133789,-0.020507812,-1.3427734,-3.479004,-5.554199,3356.0,1077.0,-232.0,64.3634,78.8324,58.518677
1770514241760,-0.98779297,0.2133789,-0.020507812,-1.3427734,-3.479004,-5.554199,0.0,0.0,0.0,64.3634,78.8324,58.518677
1770514241835,-0.89501953,0.26367188,0.06982422,4.8828125,-3.6621094,5.2490234,3293.0,1031.0,-332.0,64.3634,78.8324,58.518677
1770514241847,-0.89501953,0.26367188,0.06982422,4.8828125,-3.6621094,5.2490234,3293.0,1031.0,-332.0,65.80261,78.56323,59.710693
1770514241861,-0.89501953,0.26367188,0.06982422,4.8828125,-3.6621094,5.2490234,0.0,0.0,0.0,65.80261,78.56323,59.710693
1770514241935,-0.9658203,0.19873047,0.09863281,-13.061523,7.9345703,6.225586,3283.0,1013.0,-352.0,65.80261,78.56323,59.710693
1770514241947,-0.9658203,0.19873047,0.09863281,-13.061523,7.9345703,6.225586,3283.0,1013.0,-352.0,67.87903,77.99194,62.10022
1770514241960,-0.9658203,0.19873047,0.09863281,-13.061523,7.9345703,6.225586,0.0,0.0,0.0,67.87903,77.99194,62.10022
1770514242035,-0.9536133,0.30810547,-0.07519531,-17.578125,12.023926,5.2490234,3280.0,1009.0,-343.0,67.87903,77.99194,62.10022
1770514242046,-0.9536133,0.30810547,-0.07519531,-17.578125,12.023926,5.2490234,3280.0,1009.0,-343.0,70.15869,77.7063,67.07153
1770514242064,-0.9536133,0.30810547,-0.07519531,-17.578125,12.023926,5.2490234,0.0,0.0,0.0,70.15869,77.7063,67.07153
1770514242135,-1.1108398,0.2109375,0.22460938,6.286621,-1.2817383,4.272461,3317.0,1096.0,-319.0,70.15869,77.7063,67.07153
1770514242146,-1.1108398,0.2109375,0.22460938,6.286621,-1.2817383,4.272461,3317.0,1096.0,-319.0,79.11804,77.56348,76.36597
1770514242157,-1.1108398,0.2109375,0.22460938,6.286621,-1.2817383,4.272461,0.0,0.0,0.0,79.11804,77.56348,76.36597
1770514242234,-0.82421875,0.13964844,0.07324219,-0.79345703,-18.737793,7.9345703,3408.0,1135.0,-204.0,79.11804,77.56348,76.36597
1770514242246,-0.82421875,0.13964844,0.07324219,-0.79345703,-18.737793,7.9345703,3408.0,1135.0,-204.0,71.13098,76.59668,68.57117
1770514242260,-0.82421875,0.13964844,0.07324219,-0.79345703,-18.737793,7.9345703,0.0,0.0,0.0,71.13098,76.59668,68.57117
1770514242334,-1.0170898,0.100097656,0.16503906,-3.7231445,2.9296875,1.7700195,3395.0,1161.0,-269.0,71.13098,76.59668,68.57117
1770514242346,-1.0170898,0.100097656,0.16503906,-3.7231445,2.9296875,1.7700195,3395.0,1161.0,-269.0,71.3562,76.64612,68.80737
1770514242357,-1.0170898,0.100097656,0.16503906,-3.7231445,2.9296875,1.7700195,0.0,0.0,0.0,71.3562,76.64612,68.80737
1770514242434,-0.94384766,0.13916016,0.049804688,6.4086914,-11.352539,-6.164551,3381.0,1171.0,-315.0,71.3562,76.64612,68.80737
1770514242445,-0.94384766,0.13916016,0.049804688,6.4086914,-11.352539,-6.164551,3381.0,1171.0,-315.0,66.7749,76.73401,64.50073
1770514242457,-0.94384766,0.13916016,0.049804688,6.4086914,-11.352539,-6.164551,0.0,0.0,0.0,66.7749,76.73401,64.50073
1770514242533,-1.0175781,0.20605469,0.12548828,-0.79345703,-15.930176,1.8310547,3354.0,1187.0,-381.0,66.7749,76.73401,64.50073
1770514242545,-1.0175781,0.20605469,0.12548828,-0.79345703,-15.930176,1.8310547,3354.0,1187.0,-381.0,62.18811,76.57471,59.73816
1770514242556,-1.0175781,0.20605469,0.12548828,-0.79345703,-15.930176,1.8310547,0.0,0.0,0.0,62.18811,76.57471,59.73816
1770514242633,-0.9824219,0.17333984,0.03857422,10.620117,-0.30517578,-0.061035156,3264.0,1206.0,-452.0,62.18811,76.57471,59.73816
1770514242645,-0.9824219,0.17333984,0.03857422,10.620117,-0.30517578,-0.061035156,3264.0,1206.0,-452.0,58.78784,76.02539,55.480957
1770514242662,-0.9824219,0.17333984,0.03857422,10.620117,-0.30517578,-0.061035156,0.0,0.0,0.0,58.78784,76.02539,55.480957
1770514242733,-0.99316406,0.09375,-0.015625,16.967773,15.136719,-5.1879883,3204.0,1198.0,-563.0,58.78784,76.02539,55.480957
1770514242744,-0.99316406,0.09375,-0.015625,16.967773,15.136719,-5.1879883,3204.0,1198.0,-563.0,64.47876,76.76697,59.39209
1770514242756,-0.99316406,0.09375,-0.015625,16.967773,15.136719,-5.1879883,0.0,0.0,0.0,64.47876,76.76697,59.39209
1770514242832,-1.1049805,0.1796875,0.17773438,14.160156,12.573242,-11.657715,3240.0,1136.0,-514.0,64.47876,76.76697,59.39209
1770514242844,-1.1049805,0.1796875,0.17773438,14.160156,12.573242,-11.657715,3240.0,1136.0,-514.0,71.77368,78.288574,64.67651
1770514242860,-1.1049805,0.1796875,0.17773438,14.160156,12.573242,-11.657715,0.0,0.0,0.0,71.77368,78.288574,64.67651
1770514242932,-0.98046875,0.22607422,0.032714844,-8.178711,-22.827148,-1.3427734,3291.0,1043.0,-368.0,71.77368,78.288574,64.67651
1770514242944,-0.98046875,0.22607422,0.032714844,-8.178711,-22.827148,-1.3427734,3291.0,1043.0,-368.0,65.23132,78.72803,58.947144
1770514242955,-0.98046875,0.22607422,0.032714844,-8.178711,-22.827148,-1.3427734,0.0,0.0,0.0,65.23132,78.72803,58.947144
1770514243032,-1.0571289,0.24707031,0.26220703,14.953613,-9.887695,-8.728027,3276.0,1042.0,-365.0,65.23132,78.72803,58.947144
1770514243043,-1.0571289,0.24707031,0.26220703,14.953613,-9.887695,-8.728027,3276.0,1042.0,-365.0,60.12268,78.55774,52.08069
1770514243061,-1.0571289,0.24707031,0.26220703,14.953613,-9.887695,-8.728027,0.0,0.0,0.0,60.12268,78.55774,52.08069
1770514243132,-0.9638672,0.22460938,0.026367188,-7.446289,-6.0424805,-0.061035156,3248.0,984.0,-397.0,60.12268,78.55774,52.08069
1770514243143,-0.9638672,0.22460938,0.026367188,-7.446289,-6.0424805,-0.061035156,3248.0,984.0,-397.0,55.46997,78.409424,47.664185
1770514243154,-0.9638672,0.22460938,0.026367188,-7.446289,-6.0424805,-0.061035156,0.0,0.0,0.0,55.46997,78.409424,47.664185
1770514243231,-0.9135742,0.18359375,0.056640625,9.033203,-3.7231445,-1.8920898,3172.0,961.0,-491.0,55.46997,78.409424,47.664185
1770514243243,-0.9135742,0.18359375,0.056640625,9.033203,-3.7231445,-1.8920898,3172.0,961.0,-491.0,54.140625,77.854614,46.224976
1770514243254,-0.9135742,0.18359375,0.056640625,9.033203,-3.7231445,-1.8920898,0.0,0.0,0.0,54.140625,77.854614,46.224976
1770514243331,-1.0097656,0.1538086,0.048828125,-11.291504,19.28711,-3.8452148,3133.0,934.0,-544.0,54.140625,77.854614,46.224976
1770514243342,-1.0097656,0.1538086,0.048828125,-11.291504,19.28711,-3.8452148,3133.0,934.0,-544.0,57.55188,78.513794,49.432983
1770514243357,-1.0097656,0.1538086,0.048828125,-11.291504,19.28711,-3.8452148,0.0,0.0,0.0,57.55188,78.513794,49.432983
1770514243431,-0.9145508,0.2680664,-0.024902344,-10.375977,9.94873,6.8969727,3133.0,949.0,-552.0,57.55188,78.513794,49.432983
1770514243442,-0.9145508,0.2680664,-0.024902344,-10.375977,9.94873,6.8969727,3133.0,949.0,-552.0,64.385376,79.17847,57.32666
1770514243454,-0.9145508,0.2680664,-0.024902344,-10.375977,9.94873,6.8969727,0.0,0.0,0.0,64.385376,79.17847,57.32666
1770514243530,-1.2880859,0.2705078,0.10107422,-4.4555664,21.057129,5.1879883,3213.0,1009.0,-454.0,64.385376,79.17847,57.32666
1770514243542,-1.2880859,0.2705078,0.10107422,-4.4555664,21.057129,5.1879883,3213.0,1009.0,-454.0,71.62537,78.90381,64.64905
1770514243553,-1.2880859,0.2705078,0.10107422,-4.4555664,21.057129,5.1879883,0.0,0.0,0.0,71.62537,78.90381,64.64905
1770514243630,-0.70654297,0.08154297,0.1772461,-5.6762695,-24.597168,4.3945312,3273.0,1026.0,-363.0,71.62537,78.90381,64.64905
1770514243642,-0.70654297,0.08154297,0.1772461,-5.6762695,-24.597168,4.3945312,3273.0,1026.0,-363.0,73.53699,78.39844,68.02734
1770514243653,-0.70654297,0.08154297,0.1772461,-5.6762695,-24.597168,4.3945312,0.0,0.0,0.0,73.53699,78.39844,68.02734
1770514243730,-1.0424805,0.21728516,0.12695312,-9.399414,-2.6855469,13.061523,3359.0,1092.0,-295.0,73.53699,78.39844,68.02734
1770514243741,-1.0424805,0.21728516,0.12695312,-9.399414,-2.6855469,13.061523,3359.0,1092.0,-295.0,66.06079,77.003174,61.452026
1770514243753,-1.0424805,0.21728516,0.12695312,-9.399414,-2.6855469,13.061523,0.0,0.0,0.0,66.06079,77.003174,61.452026
1770514243829,-0.99658203,0.07763672,0.088378906,10.253906,-3.540039,-0.91552734,3292.0,1129.0,-396.0,66.06079,77.003174,61.452026
1770514243841,-0.99658203,0.07763672,0.088378906,10.253906,-3.540039,-0.91552734,3292.0,1129.0,-396.0,63.880005,76.223145,59.331665
1770514243852,-0.99658203,0.07763672,0.088378906,10.253906,-3.540039,-0.91552734,0.0,0.0,0.0,63.880005,76.223145,59.331665
1770514243929,-0.99560547,0.21289062,0.092285156,-5.9814453,-4.9438477,4.9438477,3254.0,1141.0,-465.0,63.880005,76.223145,59.331665
1770514243941,-0.99560547,0.21289062,0.092285156,-5.9814453,-4.9438477,4.9438477,3254.0,1141.0,-465.0,61.517944,76.10779,56.80481
1770514243952,-0.99560547,0.21289062,0.092285156,-5.9814453,-4.9438477,4.9438477,0.0,0.0,0.0,61.517944,76.10779,56.80481
1770514244029,-0.98095703,0.12402344,0.038085938,16.723633,3.2958984,-3.479004,3231.0,1131.0,-527.0,61.517944,76.10779,56.80481
1770514244040,-0.98095703,0.12402344,0.038085938,16.723633,3.2958984,-3.479004,3231.0,1131.0,-527.0,62.869263,75.94299,57.008057
1770514244058,-0.98095703,0.12402344,0.038085938,16.723633,3.2958984,-3.479004,0.0,0.0,0.0,62.869263,75.94299,57.008057
1770514244129,-1.0029297,0.1303711,0.057617188,1.2207031,20.263672,-3.0517578,3232.0,1080.0,-540.0,62.869263,75.94299,57.008057
1770514244140,-1.0029297,0.1303711,0.057617188,1.2207031,20.263672,-3.0517578,3232.0,1080.0,-540.0,68.98865,77.08557,61.759644
1770514244151,-1.0029297,0.1303711,0.057617188,1.2207031,20.263672,-3.0517578,0.0,0.0,0.0,68.98865,77.08557,61.759644
1770514244228,-1.171875,0.18847656,0.09375,8.911133,15.441895,-3.3569336,3270.0,1006.0,-466.0,68.98865,77.08557,61.759644
1770514244240,-1.171875,0.18847656,0.09375,8.911133,15.441895,-3.3569336,3270.0,1006.0,-466.0,75.81665,78.288574,67.80762
1770514244251,-1.171875,0.18847656,0.09375,8.911133,15.441895,-3.3569336,0.0,0.0,0.0,75.81665,78.288574,67.80762
1770514244328,-0.92041016,0.22998047,-0.021484375,-4.0283203,-14.038086,1.5869141,3370.0,963.0,-309.0,75.81665,78.288574,67.80762
1770514244339,-0.92041016,0.22998047,-0.021484375,-4.0283203,-14.038086,1.5869141,3370.0,963.0,-309.0,78.255615,78.72803,71.18591
1770514244351,-0.92041016,0.22998047,-0.021484375,-4.0283203,-14.038086,1.5869141,0.0,0.0,0.0,78.255615,78.72803,71.18591
1770514244428,-0.9404297,0.2446289,0.19873047,32.592773,-9.216309,-9.58252,3432.0,940.0,-213.0,78.255615,78.72803,71.18591
1770514244439,-0.9404297,0.2446289,0.19873047,32.592773,-9.216309,-9.58252,3432.0,940.0,-213.0,73.23486,78.99719,64.07776
1770514244461,-0.9404297,0.2446289,0.19873047,32.592773,-9.216309,-9.58252,0.0,0.0,0.0,73.23486,78.99719,64.07776
1770514244527,-0.9682617,0.1538086,-0.014160156,-15.258789,-3.2958984,-3.6621094,3390.0,870.0,-213.0,73.23486,78.99719,64.07776
1770514244539,-0.9682617,0.1538086,-0.014160156,-15.258789,-3.2958984,-3.6621094,3390.0,870.0,-213.0,68.79089,79.03015,59.501953
1770514244554,-0.9682617,0.1538086,-0.014160156,-15.258789,-3.2958984,-3.6621094,0.0,0.0,0.0,68.79089,79.03015,59.501953
1770514244627,-0.953125,0.32226562,0.044921875,2.746582,-7.873535,1.2817383,3329.0,788.0,-251.0,68.79089,79.03015,59.501953
1770514244639,-0.953125,0.32226562,0.044921875,2.746582,-7.873535,1.2817383,3329.0,788.0,-251.0,67.74719,78.79944,59.683228
1770514244650,-0.953125,0.32226562,0.044921875,2.746582,-7.873535,1.2817383,0.0,0.0,0.0,67.74719,78.79944,59.683228
1770514244727,-0.93359375,0.16308594,0.043945312,-2.8686523,2.2583008,2.6245117,3309.0,811.0,-276.0,67.74719,78.79944,59.683228
1770514244739,-0.93359375,0.16308594,0.043945312,-2.8686523,2.2583008,2.6245117,3309.0,811.0,-276.0,70.21362,78.57422,61.589355
1770514244751,-0.93359375,0.16308594,0.043945312,-2.8686523,2.2583008,2.6245117,0.0,0.0,0.0,70.21362,78.57422,61.589355
1770514244826,-0.9291992,0.21679688,-0.014160156,-12.390137,6.164551,2.1972656,3311.0,794.0,-285.0,70.21362,78.57422,61.589355
1770514244838,-0.9291992,0.21679688,-0.014160156,-12.390137,6.164551,2.1972656,3311.0,794.0,-285.0,71.14197,78.272095,63.446045
1770514244853,-0.9291992,0.21679688,-0.014160156,-12.390137,6.164551,2.1972656,0.0,0.0,0.0,71.14197,78.272095,63.446045
1770514244926,-1.190918,0.3071289,-0.00390625,-31.066895,17.028809,4.0283203,3321.0,799.0,-279.0,71.14197,78.272095,63.446045
1770514244938,-1.190918,0.3071289,-0.00390625,-31.066895,17.028809,4.0283203,3321.0,799.0,-279.0,74.04785,77.948,68.57666
1770514244953,-1.190918,0.3071289,-0.00390625,-31.066895,17.028809,4.0283203,0.0,0.0,0.0,74.04785,77.948,68.57666
1770514245026,-0.81933594,0.17138672,0.22363281,-15.014648,-22.460938,11.474609,3315.0,912.0,-258.0,74.04785,77.948,68.57666
1770514245038,-0.81933594,0.17138672,0.22363281,-15.014648,-22.460938,11.474609,3315.0,912.0,-258.0,73.01514,77.03613,70.372925
1770514245049,-0.81933594,0.17138672,0.22363281,-15.014648,-22.460938,11.474609,0.0,0.0,0.0,73.01514,77.03613,70.372925
1770514245125,-1.0620117,0.13916016,0.06542969,-2.0751953,6.1035156,4.8828125,3365.0,1073.0,-265.0,73.01514,77.03613,70.372925
1770514245137,-1.0620117,0.13916016,0.06542969,-2.0751953,6.1035156,4.8828125,3365.0,1073.0,-265.0,66.70349,76.0199,64.714966
1770514245148,-1.0620117,0.13916016,0.06542969,-2.0751953,6.1035156,4.8828125,0.0,0.0,0.0,66.70349,76.0199,64.714966
1770514245225,-0.93066406,0.18652344,0.12890625,2.0751953,-13.366699,2.5634766,3303.0,1163.0,-364.0,66.70349,76.0199,64.714966
1770514245237,-0.93066406,0.18652344,0.12890625,2.0751953,-13.366699,2.5634766,3303.0,1163.0,-364.0,64.3689,75.355225,63.08899
1770514245255,-0.93066406,0.18652344,0.12890625,2.0751953,-13.366699,2.5634766,0.0,0.0,0.0,64.3689,75.355225,63.08899
1770514245325,-0.89990234,0.19726562,0.10644531,-5.004883,-7.3242188,6.4086914,3287.0,1191.0,-415.0,64.3689,75.355225,63.08899
1770514245337,-0.89990234,0.19726562,0.10644531,-5.004883,-7.3242188,6.4086914,3287.0,1191.0,-415.0,62.10022,75.11902,60.100708
1770514245348,-0.89990234,0.19726562,0.10644531,-5.004883,-7.3242188,6.4086914,0.0,0.0,0.0,62.10022,75.11902,60.100708
1770514245425,-0.9814453,0.14501953,0.15673828,10.620117,-0.9765625,0.9765625,3236.0,1183.0,-469.0,62.10022,75.11902,60.100708
1770514245436,-0.9814453,0.14501953,0.15673828,10.620117,-0.9765625,0.9765625,3236.0,1183.0,-469.0,62.495728,74.45984,60.117188
1770514245447,-0.9814453,0.14501953,0.15673828,10.620117,-0.9765625,0.9765625,0.0,0.0,0.0,62.495728,74.45984,60.117188
1770514245524,-1.012207,0.18554688,0.001953125,6.8969727,23.4375,5.6152344,3219.0,1155.0,-483.0,62.495728,74.45984,60.117188
1770514245536,-1.012207,0.18554688,0.001953125,6.8969727,23.4375,5.6152344,3219.0,1155.0,-483.0,69.246826,75.27832,65.62683
1770514245547,-1.012207,0.18554688,0.001953125,6.8969727,23.4375,5.6152344,0.0,0.0,0.0,69.246826,75.27832,65.62683
1770514245624,-1.2402344,0.16357422,0.10205078,17.8833,18.554688,-8.728027,3273.0,1098.0,-425.0,69.246826,75.27832,65.62683
1770514245635,-1.2402344,0.16357422,0.10205078,17.8833,18.554688,-8.728027,3273.0,1098.0,-425.0,78.84338,76.431885,73.77869
1770514245647,-1.2402344,0.16357422,0.10205078,17.8833,18.554688,-8.728027,0.0,0.0,0.0,78.84338,76.431885,73.77869
1770514245724,-0.89208984,0.27490234,0.0053710938,-14.404297,-21.606445,4.0893555,3400.0,1005.0,-236.0,78.84338,76.431885,73.77869
1770514245735,-0.89208984,0.27490234,0.0053710938,-14.404297,-21.606445,4.0893555,3400.0,1005.0,-236.0,76.11328,77.107544,72.647095
1770514245747,-0.89208984,0.27490234,0.0053710938,-14.404297,-21.606445,4.0893555,0.0,0.0,0.0,76.11328,77.107544,72.647095
1770514245824,-1.0219727,0.3334961,0.15429688,14.892578,-7.8125,-9.460449,3428.0,1001.0,-147.0,76.11328,77.107544,72.647095
1770514245835,-1.0219727,0.3334961,0.15429688,14.892578,-7.8125,-9.460449,3428.0,1001.0,-147.0,71.28479,77.15698,66.604614
1770514245846,-1.0219727,0.3334961,0.15429688,14.892578,-7.8125,-9.460449,0.0,0.0,0.0,71.28479,77.15698,66.604614
1770514245923,-0.9404297,0.24267578,0.026367188,-11.71875,0.061035156,-1.7089844,3370.0,939.0,-212.0,71.28479,77.15698,66.604614
1770514245935,-0.9404297,0.24267578,0.026367188,-11.71875,0.061035156,-1.7089844,3370.0,939.0,-212.0,70.702515,77.77222,66.47827
1770514245946,-0.9404297,0.24267578,0.026367188,-11.71875,0.061035156,-1.7089844,0.0,0.0,0.0,70.702515,77.77222,66.47827
1770514246023,-0.9116211,0.25195312,0.03125,17.150879,-1.7700195,-5.92041,3361.0,926.0,-243.0,70.702515,77.77222,66.47827
1770514246034,-0.9116211,0.25195312,0.03125,17.150879,-1.7700195,-5.92041,3361.0,926.0,-243.0,69.69177,77.51953,65.4126
1770514246046,-0.9116211,0.25195312,0.03125,17.150879,-1.7700195,-5.92041,0.0,0.0,0.0,69.69177,77.51953,65.4126
1770514246122,-0.9482422,0.18798828,0.028808594,-4.9438477,11.413574,-1.3427734,3345.0,957.0,-271.0,69.69177,77.51953,65.4126
1770514246134,-0.9482422,0.18798828,0.028808594,-4.9438477,11.413574,-1.3427734,3345.0,957.0,-271.0,73.00964,77.74475,68.43933
1770514246146,-0.9482422,0.18798828,0.028808594,-4.9438477,11.413574,-1.3427734,0.0,0.0,0.0,73.00964,77.74475,68.43933
1770514246222,-0.90722656,0.21582031,-0.036621094,-8.422852,11.413574,0.4272461,3362.0,930.0,-258.0,73.00964,77.74475,68.43933
1770514246234,-0.90722656,0.21582031,-0.036621094,-8.422852,11.413574,0.4272461,3362.0,930.0,-258.0,78.134766,78.151245,74.19617
1770514246245,-0.90722656,0.21582031,-0.036621094,-8.422852,11.413574,0.4272461,0.0,0.0,0.0,78.134766,78.151245,74.19617
1770514246322,-1.3510742,0.38378906,0.15234375,-9.58252,5.9814453,5.065918,3412.0,978.0,-209.0,78.134766,78.151245,74.19617
1770514246333,-1.3510742,0.38378906,0.15234375,-9.58252,5.9814453,5.065918,3412.0,978.0,-209.0,83.72131,78.10181,81.09558
1770514246345,-1.3510742,0.38378906,0.15234375,-9.58252,5.9814453,5.065918,0.0,0.0,0.0,83.72131,78.10181,81.09558
1770514246422,-0.6713867,0.08496094,0.08984375,13.73291,-28.686523,-2.1362305,3459.0,1031.0,-91.0,83.72131,78.10181,81.09558
1770514246433,-0.6713867,0.08496094,0.08984375,13.73291,-28.686523,-2.1362305,3459.0,1031.0,-91.0,75.113525,77.24487,72.11426
1770514246445,-0.6713867,0.08496094,0.08984375,13.73291,-28.686523,-2.1362305,0.0,0.0,0.0,75.113525,77.24487,72.11426
1770514246521,-0.9946289,0.24853516,0.17871094,-10.437012,0.48828125,11.169434,3430.0,1057.0,-179.0,75.113525,77.24487,72.11426
1770514246533,-0.9946289,0.24853516,0.17871094,-10.437012,0.48828125,11.169434,3430.0,1057.0,-179.0,72.075806,76.47583,70.14221
1770514246546,-0.9946289,0.24853516,0.17871094,-10.437012,0.48828125,11.169434,0.0,0.0,0.0,72.075806,76.47583,70.14221
1770514246621,-0.98046875,0.09814453,-0.005859375,14.892578,-4.1503906,-5.6762695,3371.0,1085.0,-294.0,72.075806,76.47583,70.14221
1770514246633,-0.98046875,0.09814453,-0.005859375,14.892578,-4.1503906,-5.6762695,3371.0,1085.0,-294.0,69.818115,76.47583,67.23633
1770514246645,-0.98046875,0.09814453,-0.005859375,14.892578,-4.1503906,-5.6762695,0.0,0.0,0.0,69.818115,76.47583,67.23633
1770514246721,-0.94628906,0.17285156,0.06542969,-9.277344,-0.79345703,2.2583008,3370.0,1074.0,-352.0,69.818115,76.47583,67.23633
1770514246732,-0.94628906,0.17285156,0.06542969,-9.277344,-0.79345703,2.2583008,3370.0,1074.0,-352.0,67.681274,76.49231,65.35217
1770514246744,-0.94628906,0.17285156,0.06542969,-9.277344,-0.79345703,2.2583008,0.0,0.0,0.0,67.681274,76.49231,65.35217
1770514246821,-0.9814453,0.15673828,0.020507812,18.066406,-6.164551,-2.319336,3328.0,1082.0,-360.0,67.681274,76.49231,65.35217
1770514246832,-0.9814453,0.15673828,0.020507812,18.066406,-6.164551,-2.319336,3328.0,1082.0,-360.0,67.48901,76.1792,64.82483
1770514246845,-0.9814453,0.15673828,0.020507812,18.066406,-6.164551,-2.319336,0.0,0.0,0.0,67.48901,76.1792,64.82483
1770514246920,-0.98535156,0.14892578,0.13964844,-6.4086914,5.126953,0.12207031,3325.0,1087.0,-384.0,67.48901,76.1792,64.82483
1770514246932,-0.98535156,0.14892578,0.13964844,-6.4086914,5.126953,0.12207031,3325.0,1087.0,-384.0,69.49951,76.73401,65.41809
1770514246943,-0.98535156,0.14892578,0.13964844,-6.4086914,5.126953,0.12207031,0.0,0.0,0.0,69.49951,76.73401,65.41809
1770514247020,-0.94970703,0.20898438,-0.12207031,-3.112793,25.634766,5.92041,3310.0,1021.0,-378.0,69.49951,76.73401,65.41809
1770514247031,-0.94970703,0.20898438,-0.12207031,-3.112793,25.634766,5.92041,3310.0,1021.0,-378.0,73.75122,77.03064,70.477295
1770514247044,-0.94970703,0.20898438,-0.12207031,-3.112793,25.634766,5.92041,0.0,0.0,0.0,73.75122,77.03064,70.477295
1770514247120,-1.1445312,0.107421875,0.19482422,15.319824,17.578125,-7.9956055,3366.0,1045.0,-320.0,73.75122,77.03064,70.477295
1770514247131,-1.1445312,0.107421875,0.19482422,15.319824,17.578125,-7.9956055,3366.0,1045.0,-320.0,84.30359,77.59094,79.40918
1770514247143,-1.1445312,0.107421875,0.19482422,15.319824,17.578125,-7.9956055,0.0,0.0,0.0,84.30359,77.59094,79.40918
1770514247219,-0.75146484,0.2290039,-0.052246094,11.71875,-24.475098,-4.638672,3464.0,970.0,-120.0,84.30359,77.59094,79.40918
1770514247231,-0.75146484,0.2290039,-0.052246094,11.71875,-24.475098,-4.638672,3464.0,970.0,-120.0,77.107544,78.118286,72.5647
1770514247244,-0.75146484,0.2290039,-0.052246094,11.71875,-24.475098,-4.638672,0.0,0.0,0.0,77.107544,78.118286,72.5647
1770514247319,-1.0732422,0.27392578,0.20166016,19.89746,-2.380371,-3.0517578,3441.0,936.0,-122.0,77.107544,78.118286,72.5647
1770514247330,-1.0732422,0.27392578,0.20166016,19.89746,-2.380371,-3.0517578,3441.0,936.0,-122.0,69.72473,78.21716,63.012085
1770514247342,-1.0732422,0.27392578,0.20166016,19.89746,-2.380371,-3.0517578,0.0,0.0,0.0,69.72473,78.21716,63.012085
1770514247419,-0.9555664,0.25683594,0.021972656,-10.375977,-5.79834,1.3427734,3350.0,835.0,-231.0,69.72473,78.21716,63.012085
1770514247430,-0.9555664,0.25683594,0.021972656,-10.375977,-5.79834,1.3427734,3350.0,835.0,-231.0,68.47229,78.31604,62.385864
1770514247442,-0.9555664,0.25683594,0.021972656,-10.375977,-5.79834,1.3427734,0.0,0.0,0.0,68.47229,78.31604,62.385864
1770514247518,-0.95410156,0.23291016,0.021972656,7.1411133,-0.5493164,2.9907227,3291.0,817.0,-265.0,68.47229,78.31604,62.385864
1770514247530,-0.95410156,0.23291016,0.021972656,7.1411133,-0.5493164,2.9907227,3291.0,817.0,-265.0,66.40137,77.55798,60.595093
1770514247541,-0.95410156,0.23291016,0.021972656,7.1411133,-0.5493164,2.9907227,0.0,0.0,0.0,66.40137,77.55798,60.595093
1770514247618,-0.9584961,0.20507812,0.05419922,-4.8828125,3.90625,1.8920898,3265.0,819.0,-317.0,66.40137,77.55798,60.595093
1770514247630,-0.9584961,0.20507812,0.05419922,-4.8828125,3.90625,1.8920898,3265.0,819.0,-317.0,69.175415,77.16797,63.495483
1770514247641,-0.9584961,0.20507812,0.05419922,-4.8828125,3.90625,1.8920898,0.0,0.0,0.0,69.175415,77.16797,63.495483
1770514247718,-0.92626953,0.3022461,-0.024414062,-4.333496,12.268066,10.437012,3275.0,804.0,-313.0,69.175415,77.16797,63.495483
1770514247729,-0.92626953,0.3022461,-0.024414062,-4.333496,12.268066,10.437012,3275.0,804.0,-313.0,74.04236,76.937256,68.757935
1770514247741,-0.92626953,0.3022461,-0.024414062,-4.333496,12.268066,10.437012,0.0,0.0,0.0,74.04236,76.937256,68.757935
1770514247817,-1.152832,0.26708984,0.13574219,9.643555,-11.84082,4.638672,3310.0,788.0,-257.0,74.04236,76.937256,68.757935
1770514247829,-1.152832,0.26708984,0.13574219,9.643555,-11.84082,4.638672,3310.0,788.0,-257.0,78.618164,76.448364,73.289795
1770514247840,-1.152832,0.26708984,0.13574219,9.643555,-11.84082,4.638672,0.0,0.0,0.0,78.618164,76.448364,73.289795
1770514247917,-0.85058594,0.123046875,0.10205078,-5.9814453,-11.84082,-7.5683594,3375.0,769.0,-158.0,78.618164,76.448364,73.289795
1770514247929,-0.85058594,0.123046875,0.10205078,-5.9814453,-11.84082,-7.5683594,3375.0,769.0,-158.0,73.56995,76.05286,68.58765
1770514247940,-0.85058594,0.123046875,0.10205078,-5.9814453,-11.84082,-7.5683594,0.0,0.0,0.0,73.56995,76.05286,68.58765
1770514248017,-1.0849609,0.1484375,0.18945312,-1.8310547,9.765625,-1.2817383,3352.0,769.0,-213.0,73.56995,76.05286,68.58765
1770514248028,-1.0849609,0.1484375,0.18945312,-1.8310547,9.765625,-1.2817383,3352.0,769.0,-213.0,72.388916,76.5802,68.64807
1770514248040,-1.0849609,0.1484375,0.18945312,-1.8310547,9.765625,-1.2817383,0.0,0.0,0.0,72.388916,76.5802,68.64807
1770514248116,-0.81933594,0.18652344,0.109375,8.850098,-2.6245117,-10.559082,3330.0,848.0,-266.0,72.388916,76.5802,68.64807
1770514248129,-0.81933594,0.18652344,0.109375,8.850098,-2.6245117,-10.559082,3330.0,848.0,-266.0,74.41589,77.93701,70.36743
1770514248140,-0.81933594,0.18652344,0.109375,8.850098,-2.6245117,-10.559082,0.0,0.0,0.0,74.41589,77.93701,70.36743
1770514248216,-1.0317383,0.16455078,0.04296875,7.873535,-12.451172,-0.061035156,3377.0,861.0,-260.0,74.41589,77.93701,70.36743
1770514248228,-1.0317383,0.16455078,0.04296875,7.873535,-12.451172,-0.061035156,3377.0,861.0,-260.0,69.80713,77.76672,66.36841
1770514248240,-1.0317383,0.16455078,0.04296875,7.873535,-12.451172,-0.061035156,0.0,0.0,0.0,69.80713,77.76672,66.36841
1770514248316,-1.0395508,0.23144531,-0.041503906,-6.0424805,1.7089844,8.911133,3352.0,874.0,-288.0,69.80713,77.76672,66.36841
1770514248327,-1.0395508,0.23144531,-0.041503906,-6.0424805,1.7089844,8.911133,3352.0,874.0,-288.0,68.74695,77.84912,64.44031
1770514248340,-1.0395508,0.23144531,-0.041503906,-6.0424805,1.7089844,8.911133,0.0,0.0,0.0,68.74695,77.84912,64.44031
1770514248416,-1.0078125,0.11328125,-0.071777344,33.447266,17.944336,1.7089844,3302.0,860.0,-394.0,68.74695,77.84912,64.44031
1770514248427,-1.0078125,0.11328125,-0.071777344,33.447266,17.944336,1.7089844,3302.0,860.0,-394.0,76.44287,77.283325,71.103516
1770514248439,-1.0078125,0.11328125,-0.071777344,33.447266,17.944336,1.7089844,0.0,0.0,0.0,76.44287,77.283325,71.103516
1770514248515,-0.97802734,0.111328125,-0.03857422,-8.666992,10.009766,-2.6245117,3363.0,784.0,-302.0,76.44287,77.283325,71.103516
1770514248527,-0.97802734,0.111328125,-0.03857422,-8.666992,10.009766,-2.6245117,3363.0,784.0,-302.0,85.30884,77.838135,78.5083
1770514248539,-0.97802734,0.111328125,-0.03857422,-8.666992,10.009766,-2.6245117,0.0,0.0,0.0,85.30884,77.838135,78.5083
1770514248615,-1.2333984,0.2631836,0.24121094,-34.179688,-12.573242,-4.0283203,3474.0,660.0,-162.0,85.30884,77.838135,78.5083
1770514248626,-1.2333984,0.2631836,0.24121094,-34.179688,-12.573242,-4.0283203,3474.0,660.0,-162.0,89.84619,79.25537,84.04541
1770514248641,-1.2333984,0.2631836,0.24121094,-34.179688,-12.573242,-4.0283203,0.0,0.0,0.0,89.84619,79.25537,84.04541
1770514248715,-0.8569336,0.30126953,0.049804688,51.757812,-22.521973,-16.845703,3509.0,690.0,-28.0,89.84619,79.25537,84.04541
1770514248726,-0.8569336,0.30126953,0.049804688,51.757812,-22.521973,-16.845703,3509.0,690.0,-28.0,81.903076,79.17297,77.76123
1770514248738,-0.8569336,0.30126953,0.049804688,51.757812,-22.521973,-16.845703,0.0,0.0,0.0,81.903076,79.17297,77.76123
1770514248814,-0.9614258,0.12792969,-0.014160156,-18.676758,-13.000488,0.9765625,3471.0,798.0,-64.0,81.903076,79.17297,77.76123
1770514248826,-0.9614258,0.12792969,-0.014160156,-18.676758,-13.000488,0.9765625,3471.0,798.0,-64.0,73.37219,79.645386,67.89551
1770514248837,-0.9614258,0.12792969,-0.014160156,-18.676758,-13.000488,0.9765625,0.0,0.0,0.0,73.37219,79.645386,67.89551
1770514248914,-0.8852539,0.3095703,0.04638672,1.8920898,-14.587402,0.5493164,3381.0,759.0,-181.0,73.37219,79.645386,67.89551
1770514248926,-0.8852539,0.3095703,0.04638672,1.8920898,-14.587402,0.5493164,3381.0,759.0,-181.0,67.27478,78.8324,62.803345
1770514248946,-0.8852539,0.3095703,0.04638672,1.8920898,-14.587402,0.5493164,0.0,0.0,0.0,67.27478,78.8324,62.803345
1770514249014,-0.9550781,0.14794922,0.038085938,11.901855,6.4697266,1.8310547,3300.0,811.0,-317.0,67.27478,78.8324,62.803345
1770514249025,-0.9550781,0.14794922,0.038085938,11.901855,6.4697266,1.8310547,3300.0,811.0,-317.0,67.82959,78.32703,61.918945
1770514249039,-0.9550781,0.14794922,0.038085938,11.901855,6.4697266,1.8310547,0.0,0.0,0.0,67.82959,78.32703,61.918945
1770514249113,-0.9472656,0.25097656,-0.045410156,-8.7890625,8.361816,6.1035156,3260.0,805.0,-368.0,67.82959,78.32703,61.918945
1770514249125,-0.9472656,0.25097656,-0.045410156,-8.7890625,8.361816,6.1035156,3260.0,805.0,-368.0,72.18567,78.046875,66.56067
1770514249136,-0.9472656,0.25097656,-0.045410156,-8.7890625,8.361816,6.1035156,0.0,0.0,0.0,72.18567,78.046875,66.56067
1770514249213,-1.050293,0.2578125,-0.09277344,8.239746,10.131836,-5.432129,3294.0,790.0,-341.0,72.18567,78.046875,66.56067
1770514249225,-1.050293,0.2578125,-0.09277344,8.239746,10.131836,-5.432129,3294.0,790.0,-341.0,77.79968,78.359985,71.900024
1770514249236,-1.050293,0.2578125,-0.09277344,8.239746,10.131836,-5.432129,0.0,0.0,0.0,77.79968,78.359985,71.900024
1770514249313,-0.9584961,0.123046875,0.33935547,-2.4414062,-5.9814453,0.5493164,3334.0,829.0,-258.0,77.79968,78.359985,71.900024
1770514249325,-0.9584961,0.123046875,0.33935547,-2.4414062,-5.9814453,0.5493164,3334.0,829.0,-258.0,79.50806,77.98096,74.141235
1770514249337,-0.9584961,0.123046875,0.33935547,-2.4414062,-5.9814453,0.5493164,0.0,0.0,0.0,79.50806,77.98096,74.141235
1770514249413,-1.0908203,0.23535156,0.091796875,-20.690918,12.084961,16.052246,3389.0,853.0,-228.0,79.50806,77.98096,74.141235
1770514249425,-1.0908203,0.23535156,0.091796875,-20.690918,12.084961,16.052246,3389.0,853.0,-228.0,79.09607,78.134766,75.15198
1770514249436,-1.0908203,0.23535156,0.091796875,-20.690918,12.084961,16.052246,0.0,0.0,0.0,79.09607,78.134766,75.15198
1770514249513,-0.93652344,0.13427734,-0.022460938,32.714844,9.033203,-11.962891,3410.0,920.0,-249.0,79.09607,78.134766,75.15198
1770514249524,-0.93652344,0.13427734,-0.022460938,32.714844,9.033203,-11.962891,3410.0,920.0,-249.0,82.10083,77.629395,78.48633
1770514249535,-0.93652344,0.13427734,-0.022460938,32.714844,9.033203,-11.962891,0.0,0.0,0.0,82.10083,77.629395,78.48633
1770514249612,-0.93896484,0.14404297,0.05126953,-8.666992,-0.79345703,2.380371,3477.0,911.0,-133.0,82.10083,77.629395,78.48633
1770514249624,-0.93896484,0.14404297,0.05126953,-8.666992,-0.79345703,2.380371,3477.0,911.0,-133.0,84.27612,78.376465,80.22217
1770514249635,-0.93896484,0.14404297,0.05126953,-8.666992,-0.79345703,2.380371,0.0,0.0,0.0,84.27612,78.376465,80.22217
1770514249712,-1.0087891,0.12841797,-0.06640625,15.50293,12.939453,-1.7700195,3512.0,866.0,-108.0,84.27612,78.376465,80.22217
1770514249723,-1.0087891,0.12841797,-0.06640625,15.50293,12.939453,-1.7700195,3512.0,866.0,-108.0,89.176025,78.73901,84.506836
1770514249736,-1.0087891,0.12841797,-0.06640625,15.50293,12.939453,-1.7700195,0.0,0.0,0.0,89.176025,78.73901,84.506836
1770514249812,-0.9970703,0.100097656,-0.05517578,12.6953125,2.319336,0.8544922,3571.0,808.0,-3.0,89.176025,78.73901,84.506836
1770514249823,-0.9970703,0.100097656,-0.05517578,12.6953125,2.319336,0.8544922,3571.0,808.0,-3.0,97.08069,78.84888,90.97778
1770514249835,-0.9970703,0.100097656,-0.05517578,12.6953125,2.319336,0.8544922,0.0,0.0,0.0,97.08069,78.84888,90.97778
1770514249911,-1.1147461,0.19140625,0.15332031,11.108398,2.380371,-4.3945312,3644.0,668.0,142.0,97.08069,78.84888,90.97778
1770514249922,-1.1147461,0.19140625,0.15332031,11.108398,2.380371,-4.3945312,3644.0,668.0,142.0,98.7561,79.25537,92.27966
1770514249934,-1.1147461,0.19140625,0.15332031,11.108398,2.380371,-4.3945312,0.0,0.0,0.0,98.7561,79.25537,92.27966
1770514250011,-0.83740234,0.21582031,-0.052734375,24.414062,-5.6152344,4.1503906,3641.0,551.0,213.0,98.7561,79.25537,92.27966
1770514250022,-0.83740234,0.21582031,-0.052734375,24.414062,-5.6152344,4.1503906,3641.0,551.0,213.0,93.40576,79.18396,87.544556
1770514250034,-0.83740234,0.21582031,-0.052734375,24.414062,-5.6152344,4.1503906,0.0,0.0,0.0,93.40576,79.18396,87.544556
1770514250110,-0.9980469,0.119628906,0.04296875,-1.8920898,9.58252,-5.6762695,3590.0,467.0,206.0,93.40576,79.18396,87.544556
1770514250122,-0.9980469,0.119628906,0.04296875,-1.8920898,9.58252,-5.6762695,3590.0,467.0,206.0,96.42151,79.11804,91.06018
1770514250135,-0.9980469,0.119628906,0.04296875,-1.8920898,9.58252,-5.6762695,0.0,0.0,0.0,96.42151,79.11804,91.06018
1770514250210,-0.8808594,0.38378906,-0.071777344,-14.404297,-13.916016,19.592285,3603.0,360.0,284.0,96.42151,79.11804,91.06018
1770514250222,-0.8808594,0.38378906,-0.071777344,-14.404297,-13.916016,19.592285,3603.0,360.0,284.0,96.99829,78.134766,93.92761
1770514250234,-0.8808594,0.38378906,-0.071777344,-14.404297,-13.916016,19.592285,0.0,0.0,0.0,96.99829,78.134766,93.92761
1770514250310,-1.0053711,0.21240234,-0.060546875,17.944336,5.004883,-0.7324219,3649.0,328.0,403.0,96.99829,78.134766,93.92761
1770514250322,-1.0053711,0.21240234,-0.060546875,17.944336,5.004883,-0.7324219,3649.0,328.0,403.0,95.22949,77.43713,91.884155
1770514250333,-1.0053711,0.21240234,-0.060546875,17.944336,5.004883,-0.7324219,0.0,0.0,0.0,95.22949,77.43713,91.884155
1770514250410,-0.96875,0.2265625,-0.08105469,-3.540039,8.239746,-2.4414062,3629.0,293.0,406.0,95.22949,77.43713,91.884155
1770514250421,-0.96875,0.2265625,-0.08105469,-3.540039,8.239746,-2.4414062,3629.0,293.0,406.0,97.196045,77.28882,94.921875
1770514250439,-0.96875,0.2265625,-0.08105469,-3.540039,8.239746,-2.4414062,0.0,0.0,0.0,97.196045,77.28882,94.921875
1770514250509,-0.90722656,0.21679688,-0.07763672,-18.371582,9.338379,-4.5166016,3642.0,326.0,450.0,97.196045,77.28882,94.921875
1770514250521,-0.90722656,0.21679688,-0.07763672,-18.371582,9.338379,-4.5166016,3642.0,326.0,450.0,100.76111,77.27234,100.59082
1770514250532,-0.90722656,0.21679688,-0.07763672,-18.371582,9.338379,-4.5166016,0.0,0.0,0.0,100.76111,77.27234,100.59082
1770514250609,-1.0981445,0.15576172,0.1508789,-29.968262,1.4038086,-10.620117,3677.0,420.0,486.0,100.76111,77.27234,100.59082
1770514250620,-1.0981445,0.15576172,0.1508789,-29.968262,1.4038086,-10.620117,3677.0,420.0,486.0,104.04602,77.81067,107.64404
1770514250632,-1.0981445,0.15576172,0.1508789,-29.968262,1.4038086,-10.620117,0.0,0.0,0.0,104.04602,77.81067,107.64404
1770514250709,-0.8461914,0.19970703,0.059570312,-44.677734,-35.461426,4.5776367,3713.0,660.0,470.0,104.04602,77.81067,107.64404
1770514250720,-0.8461914,0.19970703,0.059570312,-44.677734,-35.461426,4.5776367,3713.0,660.0,470.0,86.42395,77.98096,94.66919
1770514250733,-0.8461914,0.19970703,0.059570312,-44.677734,-35.461426,4.5776367,0.0,0.0,0.0,86.42395,77.98096,94.66919
1770514250808,-0.97558594,0.21679688,0.020996094,-17.456055,9.094238,0.9765625,3620.0,940.0,259.0,86.42395,77.98096,94.66919
1770514250820,-0.97558594,0.21679688,0.020996094,-17.456055,9.094238,0.9765625,3620.0,940.0,259.0,79.469604,77.66785,91.224976
1770514250831,-0.97558594,0.21679688,0.020996094,-17.456055,9.094238,0.9765625,0.0,0.0,0.0,79.469604,77.66785,91.224976
1770514250908,-1.0249023,0.21240234,0.063964844,-9.216309,-20.385742,6.164551,3513.0,1187.0,45.0,79.469604,77.66785,91.224976
1770514250919,-1.0249023,0.21240234,0.063964844,-9.216309,-20.385742,6.164551,3513.0,1187.0,45.0,71.900024,77.26135,84.001465
1770514250931,-1.0249023,0.21240234,0.063964844,-9.216309,-20.385742,6.164551,0.0,0.0,0.0,71.900024,77.26135,84.001465
1770514251008,-0.99853516,0.06689453,0.0234375,3.90625,0.36621094,-2.6245117,3456.0,1308.0,-89.0,71.900024,77.26135,84.001465
1770514251019,-0.99853516,0.06689453,0.0234375,3.90625,0.36621094,-2.6245117,3456.0,1308.0,-89.0,70.76843,76.95923,81.326294
1770514251031,-0.99853516,0.06689453,0.0234375,3.90625,0.36621094,-2.6245117,0.0,0.0,0.0,70.76843,76.95923,81.326294
1770514251107,-1.0014648,0.21435547,-0.021972656,25.634766,14.038086,-0.48828125,3390.0,1325.0,-208.0,70.76843,76.95923,81.326294
1770514251119,-1.0014648,0.21435547,-0.021972656,25.634766,14.038086,-0.48828125,3390.0,1325.0,-208.0,77.72827,77.60742,86.29761
1770514251130,-1.0014648,0.21435547,-0.021972656,25.634766,14.038086,-0.48828125,0.0,0.0,0.0,77.72827,77.60742,86.29761
1770514251207,-1.0302734,0.055664062,0.038085938,25.817871,23.620605,-15.075684,3442.0,1273.0,-165.0,77.72827,77.60742,86.29761
1770514251219,-1.0302734,0.055664062,0.038085938,25.817871,23.620605,-15.075684,3442.0,1273.0,-165.0,89.60449,78.87085,94.88342
1770514251230,-1.0302734,0.055664062,0.038085938,25.817871,23.620605,-15.075684,0.0,0.0,0.0,89.60449,78.87085,94.88342
1770514251307,-0.9145508,0.17822266,0.15917969,-3.3569336,-12.268066,-12.390137,3521.0,1150.0,42.0,89.60449,78.87085,94.88342
1770514251318,-0.9145508,0.17822266,0.15917969,-3.3569336,-12.268066,-12.390137,3521.0,1150.0,42.0,96.81152,80.64514,101.22803
1770514251331,-0.9145508,0.17822266,0.15917969,-3.3569336,-12.268066,-12.390137,0.0,0.0,0.0,96.81152,80.64514,101.22803
1770514251407,-0.9116211,0.2548828,-0.07421875,18.188477,0.9765625,-2.4414062,3592.0,1073.0,133.0,96.81152,80.64514,101.22803
1770514251418,-0.9116211,0.2548828,-0.07421875,18.188477,0.9765625,-2.4414062,3592.0,1073.0,133.0,82.34802,80.68909,86.588745
1770514251430,-0.9116211,0.2548828,-0.07421875,18.188477,0.9765625,-2.4414062,0.0,0.0,0.0,82.34802,80.68909,86.588745
1770514251506,-0.94433594,0.12451172,-0.03955078,-11.413574,-17.822266,2.4414062,3508.0,1050.0,53.0,82.34802,80.68909,86.588745
1770514251518,-0.94433594,0.12451172,-0.03955078,-11.413574,-17.822266,2.4414062,3508.0,1050.0,53.0,80.95276,80.6781,84.16626
1770514251529,-0.94433594,0.12451172,-0.03955078,-11.413574,-17.822266,2.4414062,0.0,0.0,0.0,80.95276,80.6781,84.16626
1770514251606,-0.96728516,0.24121094,0.0063476562,11.291504,-6.5307617,3.479004,3488.0,994.0,-28.0,80.95276,80.6781,84.16626
1770514251618,-0.96728516,0.24121094,0.0063476562,11.291504,-6.5307617,3.479004,3488.0,994.0,-28.0,77.3053,79.8761,80.41992
1770514251629,-0.96728516,0.24121094,0.0063476562,11.291504,-6.5307617,3.479004,0.0,0.0,0.0,77.3053,79.8761,80.41992
1770514251706,-1.0571289,0.24267578,0.013671875,-6.5307617,0.0,9.399414,3447.0,984.0,-82.0,77.3053,79.8761,80.41992
1770514251717,-1.0571289,0.24267578,0.013671875,-6.5307617,0.0,9.399414,3447.0,984.0,-82.0,75.6134,78.94226,77.8656
1770514251729,-1.0571289,0.24267578,0.013671875,-6.5307617,0.0,9.399414,0.0,0.0,0.0,75.6134,78.94226,77.8656
1770514251806,-0.92626953,0.24804688,-0.07324219,-11.108398,9.887695,6.591797,3425.0,926.0,-144.0,75.6134,78.94226,77.8656
1770514251817,-0.92626953,0.24804688,-0.07324219,-11.108398,9.887695,6.591797,3425.0,926.0,-144.0,79.22241,78.23364,82.13928
1770514251828,-0.92626953,0.24804688,-0.07324219,-11.108398,9.887695,6.591797,0.0,0.0,0.0,79.22241,78.23364,82.13928
1770514251905,-1.2763672,0.24267578,0.030761719,-23.80371,40.222168,-1.953125,3445.0,939.0,-118.0,79.22241,78.23364,82.13928
1770514251917,-1.2763672,0.24267578,0.030761719,-23.80371,40.222168,-1.953125,3445.0,939.0,-118.0,88.12683,78.05237,91.69739
1770514251928,-1.2763672,0.24267578,0.030761719,-23.80371,40.222168,-1.953125,0.0,0.0,0.0,88.12683,78.05237,91.69739
1770514252005,-0.7319336,0.14892578,0.14453125,-12.023926,-19.226074,6.1035156,3522.0,970.0,6.0,88.12683,78.05237,91.69739
1770514252016,-0.7319336,0.14892578,0.14453125,-12.023926,-19.226074,6.1035156,3522.0,970.0,6.0,88.115845,77.162476,93.3728
1770514252028,-0.7319336,0.14892578,0.14453125,-12.023926,-19.226074,6.1035156,0.0,0.0,0.0,88.115845,77.162476,93.3728
1770514252105,-1.1577148,0.19091797,0.07910156,-18.371582,7.3242188,-0.36621094,3582.0,1058.0,79.0,88.115845,77.162476,93.3728
1770514252116,-1.1577148,0.19091797,0.07910156,-18.371582,7.3242188,-0.36621094,3582.0,1058.0,79.0,85.23193,77.88208,92.12036
1770514252128,-1.1577148,0.19091797,0.07910156,-18.371582,7.3242188,-0.36621094,0.0,0.0,0.0,85.23193,77.88208,92.12036
1770514252204,-0.9375,0.359375,0.07861328,-8.911133,-29.296875,13.671875,3561.0,1170.0,0.0,85.23193,77.88208,92.12036
1770514252216,-0.9375,0.359375,0.07861328,-8.911133,-29.296875,13.671875,3561.0,1170.0,0.0,74.13574,76.47583,82.67212
1770514252227,-0.9375,0.359375,0.07861328,-8.911133,-29.296875,13.671875,0.0,0.0,0.0,74.13574,76.47583,82.67212
1770514252304,-1.0830078,0.008300781,0.0024414062,-2.6855469,2.8076172,-4.5166016,3506.0,1259.0,-66.0,74.13574,76.47583,82.67212
1770514252316,-1.0830078,0.008300781,0.0024414062,-2.6855469,2.8076172,-4.5166016,3506.0,1259.0,-66.0,72.98218,76.728516,79.24988
1770514252327,-1.0830078,0.008300781,0.0024414062,-2.6855469,2.8076172,-4.5166016,0.0,0.0,0.0,72.98218,76.728516,79.24988
1770514252404,-1.0185547,0.27246094,-0.025390625,12.268066,6.0424805,5.2490234,3423.0,1276.0,-211.0,72.98218,76.728516,79.24988
1770514252415,-1.0185547,0.27246094,-0.025390625,12.268066,6.0424805,5.2490234,3423.0,1276.0,-211.0,71.76819,76.118774,78.57971
1770514252426,-1.0185547,0.27246094,-0.025390625,12.268066,6.0424805,5.2490234,0.0,0.0,0.0,71.76819,76.118774,78.57971
1770514252503,-0.98291016,0.07373047,-0.041015625,20.812988,28.320312,-7.6293945,3418.0,1271.0,-237.0,71.76819,76.118774,78.57971
1770514252515,-0.98291016,0.07373047,-0.041015625,20.812988,28.320312,-7.6293945,3418.0,1271.0,-237.0,82.578735,76.865845,86.41846
1770514252526,-0.98291016,0.07373047,-0.041015625,20.812988,28.320312,-7.6293945,0.0,0.0,0.0,82.578735,76.865845,86.41846
1770514252603,-1.0693359,0.29345703,0.2163086,-10.498047,11.779785,-3.479004,3497.0,1189.0,-139.0,82.578735,76.865845,86.41846
1770514252615,-1.0693359,0.29345703,0.2163086,-10.498047,11.779785,-3.479004,3497.0,1189.0,-139.0,96.78406,78.19519,99.79431
1770514252632,-1.0693359,0.29345703,0.2163086,-10.498047,11.779785,-3.479004,0.0,0.0,0.0,96.78406,78.19519,99.79431
1770514252703,-0.8417969,0.25927734,-0.09423828,16.601562,9.82666,-17.211914,3624.0,1115.0,102.0,96.78406,78.19519,99.79431
1770514252715,-0.8417969,0.25927734,-0.09423828,16.601562,9.82666,-17.211914,3624.0,1115.0,102.0,100.38757,78.80493,105.10071
1770514252726,-0.8417969,0.25927734,-0.09423828,16.601562,9.82666,-17.211914,0.0,0.0,0.0,100.38757,78.80493,105.10071
1770514252802,-0.90283203,0.18359375,-0.044921875,18.371582,-7.5683594,-10.253906,3689.0,1117.0,219.0,100.38757,78.80493,105.10071
1770514252814,-0.90283203,0.18359375,-0.044921875,18.371582,-7.5683594,-10.253906,3689.0,1117.0,219.0,102.10144,79.50256,105.95764
1770514252827,-0.90283203,0.18359375,-0.044921875,18.371582,-7.5683594,-10.253906,0.0,0.0,0.0,102.10144,79.50256,105.95764
1770514252902,-0.94140625,0.26123047,-0.076171875,9.094238,2.1362305,3.6621094,3676.0,1125.0,294.0,102.10144,79.50256,105.95764
1770514252914,-0.94140625,0.26123047,-0.076171875,9.094238,2.1362305,3.6621094,3676.0,1125.0,294.0,98.21777,79.77722,100.964355
1770514252925,-0.94140625,0.26123047,-0.076171875,9.094238,2.1362305,3.6621094,0.0,0.0,0.0,98.21777,79.77722,100.964355
1770514253002,-0.9213867,0.23339844,-0.10107422,15.625,-11.474609,3.3569336,3657.0,1097.0,217.0,98.21777,79.77722,100.964355
1770514253013,-0.9213867,0.23339844,-0.10107422,15.625,-11.474609,3.3569336,3657.0,1097.0,217.0,98.794556,79.09607,100.184326
1770514253025,-0.9213867,0.23339844,-0.10107422,15.625,-11.474609,3.3569336,0.0,0.0,0.0,98.794556,79.09607,100.184326
1770514253102,-0.9746094,0.13769531,-0.05126953,-8.178711,-7.9345703,-3.2348633,3651.0,1021.0,228.0,98.794556,79.09607,100.184326
1770514253113,-0.9746094,0.13769531,-0.05126953,-8.178711,-7.9345703,-3.2348633,3651.0,1021.0,228.0,95.224,79.035645,95.3009
1770514253124,-0.9746094,0.13769531,-0.05126953,-8.178711,-7.9345703,-3.2348633,0.0,0.0,0.0,95.224,79.035645,95.3009
1770514253201,-1.1928711,0.31298828,0.15478516,-26.062012,4.638672,5.79834,3597.0,972.0,202.0,95.224,79.035645,95.3009
1770514253213,-1.1928711,0.31298828,0.15478516,-26.062012,4.638672,5.79834,3597.0,972.0,202.0,99.09668,79.123535,101.651
1770514253232,-1.1928711,0.31298828,0.15478516,-26.062012,4.638672,5.79834,0.0,0.0,0.0,99.09668,79.123535,101.651
1770514253301,-0.77441406,0.088378906,0.026855469,10.986328,-24.414062,1.3427734,3626.0,1077.0,144.0,99.09668,79.123535,101.651
1770514253313,-0.77441406,0.088378906,0.026855469,10.986328,-24.414062,1.3427734,3626.0,1077.0,144.0,85.30884,78.41492,87.90161
1770514253324,-0.77441406,0.088378906,0.026855469,10.986328,-24.414062,1.3427734,0.0,0.0,0.0,85.30884,78.41492,87.90161
1770514253401,-1.0288086,0.15673828,0.11425781,-0.18310547,1.8920898,6.8969727,3592.0,1147.0,58.0,85.30884,78.41492,87.90161
1770514253413,-1.0288086,0.15673828,0.11425781,-0.18310547,1.8920898,6.8969727,3592.0,1147.0,58.0,83.463135,78.33801,85.48462
1770514253424,-1.0288086,0.15673828,0.11425781,-0.18310547,1.8920898,6.8969727,0.0,0.0,0.0,83.463135,78.33801,85.48462
1770514253500,-0.98828125,0.03564453,-0.068359375,16.113281,-6.4086914,-10.375977,3537.0,1123.0,-58.0,83.463135,78.33801,85.48462
1770514253512,-0.98828125,0.03564453,-0.068359375,16.113281,-6.4086914,-10.375977,3537.0,1123.0,-58.0,78.82141,78.288574,80.233154
1770514253524,-0.98828125,0.03564453,-0.068359375,16.113281,-6.4086914,-10.375977,0.0,0.0,0.0,78.82141,78.288574,80.233154
1770514253600,-1.003418,0.21923828,0.025878906,-3.7841797,1.7700195,1.159668,3508.0,1104.0,-155.0,78.82141,78.288574,80.233154
1770514253611,-1.003418,0.21923828,0.025878906,-3.7841797,1.7700195,1.159668,3508.0,1104.0,-155.0,77.53601,78.931274,78.40393
1770514253625,-1.003418,0.21923828,0.025878906,-3.7841797,1.7700195,1.159668,0.0,0.0,0.0,77.53601,78.931274,78.40393
1770514253700,-0.96191406,0.104003906,-0.17138672,21.240234,16.662598,0.8544922,3487.0,1101.0,-166.0,77.53601,78.931274,78.40393
1770514253711,-0.96191406,0.104003906,-0.17138672,21.240234,16.662598,0.8544922,3487.0,1101.0,-166.0,81.51306,78.73352,80.70007
1770514253723,-0.96191406,0.104003906,-0.17138672,21.240234,16.662598,0.8544922,0.0,0.0,0.0,81.51306,78.73352,80.70007
1770514253799,-1.1958008,0.22558594,0.09716797,7.385254,31.433105,7.019043,3475.0,1024.0,-137.0,81.51306,78.73352,80.70007
1770514253811,-1.1958008,0.22558594,0.09716797,7.385254,31.433105,7.019043,3475.0,1024.0,-137.0,96.00403,78.48633,93.861694
1770514253823,-1.1958008,0.22558594,0.09716797,7.385254,31.433105,7.019043,0.0,0.0,0.0,96.00403,78.48633,93.861694
1770514253899,-0.96191406,0.14355469,-0.052246094,-9.399414,-25.268555,-6.652832,3613.0,860.0,52.0,96.00403,78.48633,93.861694
1770514253911,-0.96191406,0.14355469,-0.052246094,-9.399414,-25.268555,-6.652832,3613.0,860.0,52.0,93.46619,79.07959,91.83472
1770514253926,-0.96191406,0.14355469,-0.052246094,-9.399414,-25.268555,-6.652832,0.0,0.0,0.0,93.46619,79.07959,91.83472
1770514253999,-1.0136719,0.36767578,0.1665039,15.930176,-5.9814453,-5.3710938,3658.0,808.0,151.0,93.46619,79.07959,91.83472
1770514254010,-1.0136719,0.36767578,0.1665039,15.930176,-5.9814453,-5.3710938,3658.0,808.0,151.0,89.65393,79.799194,87.022705
1770514254022,-1.0136719,0.36767578,0.1665039,15.930176,-5.9814453,-5.3710938,0.0,0.0,0.0,89.65393,79.799194,87.022705
1770514254099,-1.0195312,0.23486328,-0.100097656,-11.84082,2.2583008,-2.0141602,3604.0,739.0,107.0,89.65393,79.799194,87.022705
1770514254110,-1.0195312,0.23486328,-0.100097656,-11.84082,2.2583008,-2.0141602,3604.0,739.0,107.0,84.59473,79.89807,82.96875
1770514254121,-1.0195312,0.23486328,-0.100097656,-11.84082,2.2583008,-2.0141602,0.0,0.0,0.0,84.59473,79.89807,82.96875
1770514254198,-0.96435547,0.29101562,-0.047851562,-2.9296875,-2.6245117,5.7373047,3532.0,764.0,32.0,84.59473,79.89807,82.96875
1770514254210,-0.96435547,0.29101562,-0.047851562,-2.9296875,-2.6245117,5.7373047,3532.0,764.0,32.0,85.32532,79.107056,84.776
1770514254221,-0.96435547,0.29101562,-0.047851562,-2.9296875,-2.6245117,5.7373047,0.0,0.0,0.0,85.32532,79.107056,84.776
1770514254298,-0.9355469,0.17138672,0.06738281,-1.7700195,8.361816,9.765625,3536.0,762.0,7.0,85.32532,79.107056,84.776
1770514254310,-0.9355469,0.17138672,0.06738281,-1.7700195,8.361816,9.765625,3536.0,762.0,7.0,86.96777,77.98645,86.47339
1770514254321,-0.9355469,0.17138672,0.06738281,-1.7700195,8.361816,9.765625,0.0,0.0,0.0,86.96777,77.98645,86.47339
1770514254398,-0.94921875,0.30273438,-0.06933594,-23.376465,15.014648,10.925293,3537.0,740.0,57.0,86.96777,77.98645,86.47339
1770514254409,-0.94921875,0.30273438,-0.06933594,-23.376465,15.014648,10.925293,3537.0,740.0,57.0,91.63147,77.15149,93.01575
1770514254420,-0.94921875,0.30273438,-0.06933594,-23.376465,15.014648,10.925293,0.0,0.0,0.0,91.63147,77.15149,93.01575
1770514254497,-0.79785156,0.2319336,0.14160156,-16.906738,-30.334473,3.9672852,3615.0,796.0,107.0,91.63147,77.15149,93.01575
1770514254509,-0.79785156,0.2319336,0.14160156,-16.906738,-30.334473,3.9672852,3615.0,796.0,107.0,90.81848,76.54724,94.4989
1770514254521,-0.79785156,0.2319336,0.14160156,-16.906738,-30.334473,3.9672852,0.0,0.0,0.0,90.81848,76.54724,94.4989
1770514254597,-1.1655273,0.010253906,-0.020019531,-7.2631836,6.8969727,-13.671875,3644.0,935.0,137.0,90.81848,76.54724,94.4989
1770514254609,-1.1655273,0.010253906,-0.020019531,-7.2631836,6.8969727,-13.671875,3644.0,935.0,137.0,82.01294,76.624146,87.03369
1770514254621,-1.1655273,0.010253906,-0.020019531,-7.2631836,6.8969727,-13.671875,0.0,0.0,0.0,82.01294,76.624146,87.03369
1770514254697,-0.88720703,0.2734375,0.03466797,-4.211426,-13.671875,2.9907227,3569.0,1071.0,-16.0,82.01294,76.624146,87.03369
1770514254708,-0.88720703,0.2734375,0.03466797,-4.211426,-13.671875,2.9907227,3569.0,1071.0,-16.0,81.0791,76.72302,87.039185
1770514254720,-0.88720703,0.2734375,0.03466797,-4.211426,-13.671875,2.9907227,0.0,0.0,0.0,81.0791,76.72302,87.039185
1770514254796,-0.9711914,0.15283203,0.024414062,8.544922,-7.9345703,-2.1362305,3549.0,1158.0,-76.0,81.0791,76.72302,87.039185
1770514254808,-0.9711914,0.15283203,0.024414062,8.544922,-7.9345703,-2.1362305,3549.0,1158.0,-76.0,77.45361,77.22839,81.77673
1770514254822,-0.9711914,0.15283203,0.024414062,8.544922,-7.9345703,-2.1362305,0.0,0.0,0.0,77.45361,77.22839,81.77673
1770514254896,-0.99560547,0.14892578,0.026367188,0.8544922,-10.925293,5.126953,3522.0,1180.0,-127.0,77.45361,77.22839,81.77673
1770514254908,-0.99560547,0.14892578,0.026367188,0.8544922,-10.925293,5.126953,3522.0,1180.0,-127.0,74.575195,76.78894,78.32703
1770514254920,-0.99560547,0.14892578,0.026367188,0.8544922,-10.925293,5.126953,0.0,0.0,0.0,74.575195,76.78894,78.32703
1770514254996,-0.95458984,0.1484375,-0.067871094,0.79345703,20.507812,0.7324219,3470.0,1158.0,-241.0,74.575195,76.78894,78.32703
1770514255007,-0.95458984,0.1484375,-0.067871094,0.79345703,20.507812,0.7324219,3470.0,1158.0,-241.0,78.12927,77.145996,81.156006
1770514255020,-0.95458984,0.1484375,-0.067871094,0.79345703,20.507812,0.7324219,0.0,0.0,0.0,78.12927,77.145996,81.156006
1770514255096,-1.0849609,0.17480469,0.14550781,14.343262,22.705078,-4.5166016,3474.0,1143.0,-248.0,78.12927,77.145996,81.156006
1770514255107,-1.0849609,0.17480469,0.14550781,14.343262,22.705078,-4.5166016,3474.0,1143.0,-248.0,90.28015,77.3822,91.82373
1770514255118,-1.0849609,0.17480469,0.14550781,14.343262,22.705078,-4.5166016,0.0,0.0,0.0,90.28015,77.3822,91.82373
1770514255195,-0.76904297,0.23535156,-0.13183594,10.314941,-9.70459,-6.225586,3579.0,1057.0,-43.0,90.28015,77.3822,91.82373
1770514255207,-0.76904297,0.23535156,-0.13183594,10.314941,-9.70459,-6.225586,3579.0,1057.0,-43.0,84.42993,77.7887,85.63843
1770514255222,-0.76904297,0.23535156,-0.13183594,10.314941,-9.70459,-6.225586,0.0,0.0,0.0,84.42993,77.7887,85.63843
1770514255295,-0.9692383,0.14404297,0.095214844,9.765625,4.1503906,-11.535645,3576.0,993.0,-12.0,84.42993,77.7887,85.63843
1770514255306,-0.9692383,0.14404297,0.095214844,9.765625,4.1503906,-11.535645,3576.0,993.0,-12.0,87.51709,78.4314,86.61072
1770514255318,-0.9692383,0.14404297,0.095214844,9.765625,4.1503906,-11.535645,0.0,0.0,0.0,87.51709,78.4314,86.61072
1770514255395,-0.92041016,0.2998047,-0.061035156,4.638672,-0.48828125,-2.1972656,3568.0,891.0,-8.0,87.51709,78.4314,86.61072
1770514255406,-0.92041016,0.2998047,-0.061035156,4.638672,-0.48828125,-2.1972656,3568.0,891.0,-8.0,86.48987,78.84338,85.55603
1770514255419,-0.92041016,0.2998047,-0.061035156,4.638672,-0.48828125,-2.1972656,0.0,0.0,0.0,86.48987,78.84338,85.55603
1770514255494,-0.9707031,0.21289062,-0.03466797,4.5776367,1.5258789,0.8544922,3566.0,863.0,7.0,86.48987,78.84338,85.55603
1770514255506,-0.9707031,0.21289062,-0.03466797,4.5776367,1.5258789,0.8544922,3566.0,863.0,7.0,89.87915,78.78845,87.73132
1770514255517,-0.9707031,0.21289062,-0.03466797,4.5776367,1.5258789,0.8544922,0.0,0.0,0.0,89.87915,78.78845,87.73132
1770514255594,-0.96728516,0.203125,-0.009277344,-15.74707,5.432129,-3.6621094,3563.0,793.0,34.0,89.87915,78.78845,87.73132
1770514255606,-0.96728516,0.203125,-0.009277344,-15.74707,5.432129,-3.6621094,3563.0,793.0,34.0,92.21924,78.72803,90.686646
1770514255618,-0.96728516,0.203125,-0.009277344,-15.74707,5.432129,-3.6621094,0.0,0.0,0.0,92.21924,78.72803,90.686646
1770514255694,-1.2192383,0.24072266,-0.037597656,-48.217773,11.84082,-8.178711,3566.0,831.0,41.0,92.21924,78.72803,90.686646
1770514255705,-1.2192383,0.24072266,-0.037597656,-48.217773,11.84082,-8.178711,3566.0,831.0,41.0,94.44946,79.04114,95.756836
1770514255717,-1.2192383,0.24072266,-0.037597656,-48.217773,11.84082,-8.178711,0.0,0.0,0.0,94.44946,79.04114,95.756836
1770514255794,-0.72558594,0.1977539,0.08496094,-4.4555664,-37.841797,-0.36621094,3579.0,973.0,75.0,94.44946,79.04114,95.756836
1770514255805,-0.72558594,0.1977539,0.08496094,-4.4555664,-37.841797,-0.36621094,3579.0,973.0,75.0,86.11633,78.777466,90.87891
1770514255818,-0.72558594,0.1977539,0.08496094,-4.4555664,-37.841797,-0.36621094,0.0,0.0,0.0,86.11633,78.777466,90.87891
1770514255893,-1.1313477,0.16015625,0.111816406,-4.4555664,3.90625,10.070801,3558.0,1209.0,-6.0,86.11633,78.777466,90.87891
1770514255905,-1.1313477,0.16015625,0.111816406,-4.4555664,3.90625,10.070801,3558.0,1209.0,-6.0,82.386475,78.46985,86.35254
1770514255916,-1.1313477,0.16015625,0.111816406,-4.4555664,3.90625,10.070801,0.0,0.0,0.0,82.386475,78.46985,86.35254
1770514255993,-0.94384766,0.08642578,-0.019042969,15.441895,-16.052246,-5.1879883,3522.0,1265.0,-137.0,82.386475,78.46985,86.35254
1770514256004,-0.94384766,0.08642578,-0.019042969,15.441895,-16.052246,-5.1879883,3522.0,1265.0,-137.0,78.66211,77.76123,82.194214
1770514256029,-0.94384766,0.08642578,-0.019042969,15.441895,-16.052246,-5.1879883,0.0,0.0,0.0,78.66211,77.76123,82.194214
1770514256093,-1.027832,0.19726562,0.10058594,-5.79834,-9.338379,6.3476562,3508.0,1244.0,-159.0,78.66211,77.76123,82.194214
1770514256104,-1.027832,0.19726562,0.10058594,-5.79834,-9.338379,6.3476562,3508.0,1244.0,-159.0,73.097534,77.59094,76.1792
1770514256116,-1.027832,0.19726562,0.10058594,-5.79834,-9.338379,6.3476562,0.0,0.0,0.0,73.097534,77.59094,76.1792
1770514256192,-1.0092773,0.16455078,-0.068359375,11.657715,0.30517578,-2.4414062,3467.0,1242.0,-266.0,73.097534,77.59094,76.1792
1770514256204,-1.0092773,0.16455078,-0.068359375,11.657715,0.30517578,-2.4414062,3467.0,1242.0,-266.0,70.10925,77.28882,72.36694
1770514256216,-1.0092773,0.16455078,-0.068359375,11.657715,0.30517578,-2.4414062,0.0,0.0,0.0,70.10925,77.28882,72.36694
1770514256292,-0.97558594,0.083984375,-0.009765625,15.075684,15.075684,-8.911133,3406.0,1245.0,-348.0,70.10925,77.28882,72.36694
1770514256303,-0.97558594,0.083984375,-0.009765625,15.075684,15.075684,-8.911133,3406.0,1245.0,-348.0,76.92627,78.15674,77.211914
1770514256315,-0.97558594,0.083984375,-0.009765625,15.075684,15.075684,-8.911133,0.0,0.0,0.0,76.92627,78.15674,77.211914
1770514256392,-1.1259766,0.19384766,0.3310547,-15.74707,1.0986328,-13.061523,3429.0,1192.0,-315.0,76.92627,78.15674,77.211914
1770514256403,-1.1259766,0.19384766,0.3310547,-15.74707,1.0986328,-13.061523,3429.0,1192.0,-315.0,85.8197,79.65637,85.41321
1770514256414,-1.1259766,0.19384766,0.3310547,-15.74707,1.0986328,-13.061523,0.0,0.0,0.0,85.8197,79.65637,85.41321
1770514256491,-0.76953125,0.27294922,-0.053710938,31.433105,0.30517578,-5.6152344,3469.0,1155.0,-161.0,85.8197,79.65637,85.41321
1770514256503,-0.76953125,0.27294922,-0.053710938,31.433105,0.30517578,-5.6152344,3469.0,1155.0,-161.0,77.36572,80.04089,78.89282
1770514256515,-0.76953125,0.27294922,-0.053710938,31.433105,0.30517578,-5.6152344,0.0,0.0,0.0,77.36572,80.04089,78.89282
1770514256591,-1.0,0.13476562,0.09375,7.6293945,-7.2631836,-0.9765625,3448.0,1223.0,-171.0,77.36572,80.04089,78.89282
1770514256602,-1.0,0.13476562,0.09375,7.6293945,-7.2631836,-0.9765625,3448.0,1223.0,-171.0,74.696045,79.96399,73.97644
1770514256614,-1.0,0.13476562,0.09375,7.6293945,-7.2631836,-0.9765625,0.0,0.0,0.0,74.696045,79.96399,73.97644
1770514256691,-0.8881836,0.28076172,0.023925781,0.4272461,-8.117676,13.61084,3390.0,1166.0,-182.0,74.696045,79.96399,73.97644
1770514256702,-0.8881836,0.28076172,0.023925781,0.4272461,-8.117676,13.61084,3390.0,1166.0,-182.0,72.69104,79.27734,71.57593
1770514256713,-0.8881836,0.28076172,0.023925781,0.4272461,-8.117676,13.61084,0.0,0.0,0.0,72.69104,79.27734,71.57593
1770514256790,-0.984375,0.1850586,0.01171875,11.352539,3.540039,2.380371,3369.0,1115.0,-209.0,72.69104,79.27734,71.57593
1770514256802,-0.984375,0.1850586,0.01171875,11.352539,3.540039,2.380371,3369.0,1115.0,-209.0,72.65259,78.14575,70.27405
1770514256813,-0.984375,0.1850586,0.01171875,11.352539,3.540039,2.380371,0.0,0.0,0.0,72.65259,78.14575,70.27405
1770514256890,-0.9741211,0.21826172,0.021972656,-9.887695,10.375977,-1.7089844,3358.0,1041.0,-225.0,72.65259,78.14575,70.27405
1770514256902,-0.9741211,0.21826172,0.021972656,-9.887695,10.375977,-1.7089844,3358.0,1041.0,-225.0,76.11328,78.2666,73.83911
1770514256913,-0.9741211,0.21826172,0.021972656,-9.887695,10.375977,-1.7089844,0.0,0.0,0.0,76.11328,78.2666,73.83911
1770514256990,-0.9941406,0.27978516,-0.009277344,6.713867,14.343262,-0.36621094,3371.0,1014.0,-217.0,76.11328,78.2666,73.83911
1770514257002,-0.9941406,0.27978516,-0.009277344,6.713867,14.343262,-0.36621094,3371.0,1014.0,-217.0,84.15527,78.30505,82.21619
1770514257013,-0.9941406,0.27978516,-0.009277344,6.713867,14.343262,-0.36621094,0.0,0.0,0.0,84.15527,78.30505,82.21619
1770514257089,-0.7963867,0.19726562,0.14990234,-8.361816,-17.089844,5.3100586,3455.0,1037.0,-101.0,84.15527,78.30505,82.21619
1770514257101,-0.7963867,0.19726562,0.14990234,-8.361816,-17.089844,5.3100586,3455.0,1037.0,-101.0,84.26514,77.77222,82.3645
1770514257113,-0.7963867,0.19726562,0.14990234,-8.361816,-17.089844,5.3100586,0.0,0.0,0.0,84.26514,77.77222,82.3645
1770514257189,-1.0727539,0.03515625,0.059570312,-7.873535,3.2348633,-12.756348,3531.0,1022.0,-31.0,84.26514,77.77222,82.3645
1770514257201,-1.0727539,0.03515625,0.059570312,-7.873535,3.2348633,-12.756348,3531.0,1022.0,-31.0,76.97571,77.65137,75.95398
1770514257221,-1.0727539,0.03515625,0.059570312,-7.873535,3.2348633,-12.756348,0.0,0.0,0.0,76.97571,77.65137,75.95398
1770514257289,-0.9453125,0.19042969,0.0043945312,0.9765625,-5.493164,0.5493164,3486.0,1083.0,-175.0,76.97571,77.65137,75.95398
1770514257301,-0.9453125,0.19042969,0.0043945312,0.9765625,-5.493164,0.5493164,3486.0,1083.0,-175.0,77.99744,78.09631,77.72278
1770514257313,-0.9453125,0.19042969,0.0043945312,0.9765625,-5.493164,0.5493164,0.0,0.0,0.0,77.99744,78.09631,77.72278
1770514257389,-0.9663086,0.12939453,0.0234375,-5.6762695,-5.432129,4.5776367,3476.0,1131.0,-208.0,77.99744,78.09631,77.72278
