timestamp,accX,accY,accZ,gyroX,gyroY,gyroZ,magX,magY,magZ,roll,pitch,yaw
1768030255643,-0.9584961,-0.045410156,-0.13916016,9.155273,9.765625,-3.479004,0.0,0.0,0.0,-167.32178,76.069336,129.18274
1768030255654,-0.9584961,-0.045410156,-0.13916016,9.155273,9.765625,-3.479004,0.0,0.0,0.0,-166.39893,76.15723,130.177
1768030255742,-0.95214844,-0.06298828,-0.22509766,7.385254,8.239746,-2.2583008,0.0,0.0,0.0,-166.39893,76.15723,130.177
1768030255754,-0.95214844,-0.06298828,-0.22509766,7.385254,8.239746,-2.2583008,0.0,0.0,0.0,-165.95947,75.893555,130.29785
1768030255842,-0.96435547,-0.07128906,-0.2578125,7.9345703,10.925293,-2.2583008,0.0,0.0,0.0,-165.95947,75.893555,130.29785
1768030255854,-0.96435547,-0.07128906,-0.2578125,7.9345703,10.925293,-2.2583008,0.0,0.0,0.0,-165.27832,74.77844,130.46814
1768030255942,-0.9448242,-0.091308594,-0.2548828,5.7373047,5.2490234,0.8544922,0.0,0.0,0.0,-165.27832,74.77844,130.46814
1768030255954,-0.9448242,-0.091308594,-0.2548828,5.7373047,5.2490234,0.8544922,0.0,0.0,0.0,-164.61365,73.828125,130.21545
1768030256041,-0.9458008,-0.092285156,-0.28466797,9.887695,6.652832,1.953125,0.0,0.0,0.0,-164.61365,73.828125,130.21545
1768030256057,-0.9458008,-0.092285156,-0.28466797,9.887695,6.652832,1.953125,0.0,0.0,0.0,-164.83337,73.34473,129.16626
1768030256141,-0.92626953,-0.10498047,-0.265625,6.8969727,1.159668,3.4179688,0.0,0.0,0.0,-164.83337,73.34473,129.16626
1768030256153,-0.92626953,-0.10498047,-0.265625,6.8969727,1.159668,3.4179688,0.0,0.0,0.0,-165.04211,73.0426,127.94678
1768030256241,-0.9580078,-0.1171875,-0.35986328,-0.91552734,4.211426,1.8920898,0.0,0.0,0.0,-165.04211,73.0426,127.94678
1768030256252,-0.9580078,-0.1171875,-0.35986328,-0.91552734,4.211426,1.8920898,0.0,0.0,0.0,-165.46509,72.83386,127.13928
1768030256341,-0.9506836,-0.07128906,-0.40820312,7.385254,1.4038086,8.483887,0.0,0.0,0.0,-165.46509,72.83386,127.13928
1768030256352,-0.9506836,-0.07128906,-0.40820312,7.385254,1.4038086,8.483887,0.0,0.0,0.0,-166.96472,72.38342,125.18921
1768030256440,-0.9379883,-0.14355469,-0.39941406,6.3476562,-0.61035156,4.0283203,0.0,0.0,0.0,-166.96472,72.38342,125.18921
1768030256452,-0.9379883,-0.14355469,-0.39941406,6.3476562,-0.61035156,4.0283203,0.0,0.0,0.0,-167.96448,71.96045,123.063354
1768030256540,-0.96240234,-0.16259766,-0.44580078,-6.0424805,3.0517578,-4.0283203,0.0,0.0,0.0,-167.96448,71.96045,123.063354
1768030256552,-0.96240234,-0.16259766,-0.44580078,-6.0424805,3.0517578,-4.0283203,0.0,0.0,0.0,-167.2284,71.482544,123.59619
1768030256640,-1.1850586,-0.064453125,-0.41601562,0.7324219,7.385254,-10.192871,0.0,0.0,0.0,-167.2284,71.482544,123.59619
1768030256651,-1.1850586,-0.064453125,-0.41601562,0.7324219,7.385254,-10.192871,0.0,0.0,0.0,-164.92126,70.43335,125.92529
1768030256740,-0.8129883,-0.09716797,-0.16064453,5.065918,-27.038574,1.6479492,0.0,0.0,0.0,-164.92126,70.43335,125.92529
1768030256751,-0.8129883,-0.09716797,-0.16064453,5.065918,-27.038574,1.6479492,0.0,0.0,0.0,-162.60315,71.416626,127.50183
1768030256839,-0.9555664,0.048339844,-0.078125,20.568848,-14.465332,6.286621,0.0,0.0,0.0,-162.60315,71.416626,127.50183
1768030256851,-0.9555664,0.048339844,-0.078125,20.568848,-14.465332,6.286621,0.0,0.0,0.0,-159.86206,73.59741,128.974
1768030256939,-1.0068359,-0.034179688,-0.115234375,-2.1972656,-4.8828125,8.239746,0.0,0.0,0.0,-159.86206,73.59741,128.974
1768030256951,-1.0068359,-0.034179688,-0.115234375,-2.1972656,-4.8828125,8.239746,0.0,0.0,0.0,-162.45483,75.03113,126.260376
1768030257039,-1.0195312,-0.0078125,-0.20263672,-20.141602,0.7324219,0.8544922,0.0,0.0,0.0,-162.45483,75.03113,126.260376
1768030257050,-1.0195312,-0.0078125,-0.20263672,-20.141602,0.7324219,0.8544922,0.0,0.0,0.0,-164.87732,75.58594,125.24963
1768030257138,-0.97509766,0.0043945312,-0.20898438,-20.263672,0.061035156,2.6855469,0.0,0.0,0.0,-164.87732,75.58594,125.24963
1768030257150,-0.97509766,0.0043945312,-0.20898438,-20.263672,0.061035156,2.6855469,0.0,0.0,0.0,-167.61292,75.651855,124.29382
1768030257238,-0.9536133,-0.02734375,-0.23828125,-4.3945312,4.1503906,-0.7324219,0.0,0.0,0.0,-167.61292,75.651855,124.29382
1768030257250,-0.9536133,-0.02734375,-0.23828125,-4.3945312,4.1503906,-0.7324219,0.0,0.0,0.0,-169.51904,75.234375,123.54126
1768030257338,-0.95654297,-0.02734375,-0.30566406,1.6479492,3.7841797,0.61035156,0.0,0.0,0.0,-169.51904,75.234375,123.54126
1768030257350,-0.95654297,-0.02734375,-0.30566406,1.6479492,3.7841797,0.61035156,0.0,0.0,0.0,-170.73853,75.146484,122.95349
1768030257438,-0.9448242,-0.06689453,-0.28955078,3.4179688,0.5493164,-1.7700195,0.0,0.0,0.0,-170.73853,75.146484,122.95349
1768030257449,-0.9448242,-0.06689453,-0.28955078,3.4179688,0.5493164,-1.7700195,0.0,0.0,0.0,-170.54077,74.86633,122.81616
1768030257537,-0.97021484,-0.023925781,-0.2915039,0.0,-1.4648438,0.5493164,0.0,0.0,0.0,-170.54077,74.86633,122.81616
1768030257550,-0.97021484,-0.023925781,-0.2915039,0.0,-1.4648438,0.5493164,0.0,0.0,0.0,-170.17273,74.82239,123.07434
1768030257637,-0.95703125,-0.06201172,-0.30419922,-4.8217773,-2.746582,-1.0375977,0.0,0.0,0.0,-170.17273,74.82239,123.07434
1768030257649,-0.95703125,-0.06201172,-0.30419922,-4.8217773,-2.746582,-1.0375977,0.0,0.0,0.0,-170.66162,74.816895,122.7887
1768030257737,-0.91552734,-0.052734375,-0.3173828,-8.300781,-4.699707,-2.5024414,0.0,0.0,0.0,-170.66162,74.816895,122.7887
1768030257749,-0.91552734,-0.052734375,-0.3173828,-8.300781,-4.699707,-2.5024414,0.0,0.0,0.0,-170.18921,74.8114,123.88733
1768030257837,-0.92822266,-0.041015625,-0.35888672,-9.887695,1.0986328,-3.90625,0.0,0.0,0.0,-170.18921,74.8114,123.88733
1768030257848,-0.92822266,-0.041015625,-0.35888672,-9.887695,1.0986328,-3.90625,0.0,0.0,0.0,-169.67285,74.729004,125.13977
1768030257936,-1.0004883,-0.09423828,-0.42773438,-2.8076172,11.84082,-5.554199,0.0,0.0,0.0,-169.67285,74.729004,125.13977
1768030257948,-1.0004883,-0.09423828,-0.42773438,-2.8076172,11.84082,-5.554199,0.0,0.0,0.0,-169.49158,73.86658,125.84839
1768030258036,-1.1010742,-0.111816406,-0.4248047,-2.2583008,28.9917,-14.343262,0.0,0.0,0.0,-169.49158,73.86658,125.84839
1768030258047,-1.1010742,-0.111816406,-0.4248047,-2.2583008,28.9917,-14.343262,0.0,0.0,0.0,-167.42615,71.2738,128.03467
1768030258136,-0.7573242,0.024902344,-0.18359375,20.141602,21.057129,-11.474609,0.0,0.0,0.0,-167.42615,71.2738,128.03467
1768030258147,-0.7573242,0.024902344,-0.18359375,20.141602,21.057129,-11.474609,0.0,0.0,0.0,-164.92126,67.86804,130.29236
1768030258235,-1.0400391,-0.087890625,-0.22607422,13.671875,17.150879,13.61084,0.0,0.0,0.0,-164.92126,67.86804,130.29236
1768030258247,-1.0400391,-0.087890625,-0.22607422,13.671875,17.150879,13.61084,0.0,0.0,0.0,-167.83813,67.8186,127.11731
1768030258335,-0.9794922,-0.11621094,-0.4165039,-9.58252,-1.2817383,3.479004,0.0,0.0,0.0,-167.83813,67.8186,127.11731
1768030258347,-0.9794922,-0.11621094,-0.4165039,-9.58252,-1.2817383,3.479004,0.0,0.0,0.0,-169.37073,67.84607,124.93652
1768030258435,-0.9091797,-0.05810547,-0.25976562,7.751465,-3.1738281,15.991211,0.0,0.0,0.0,-169.37073,67.84607,124.93652
1768030258446,-0.9091797,-0.05810547,-0.25976562,7.751465,-3.1738281,15.991211,0.0,0.0,0.0,-171.03516,68.24707,122.65686
1768030258535,-0.92822266,-0.07519531,-0.3779297,7.1411133,0.24414062,8.361816,0.0,0.0,0.0,-171.03516,68.24707,122.65686
1768030258547,-0.92822266,-0.07519531,-0.3779297,7.1411133,0.24414062,8.361816,0.0,0.0,0.0,-173.74329,68.58765,119.503784
1768030258634,-0.9316406,-0.056152344,-0.35205078,7.080078,-1.8920898,6.958008,0.0,0.0,0.0,-173.74329,68.58765,119.503784
1768030258646,-0.9316406,-0.056152344,-0.35205078,7.080078,-1.8920898,6.958008,0.0,0.0,0.0,-174.59473,68.73596,117.65259
1768030258734,-1.0102539,-0.0053710938,-0.38330078,-6.652832,-0.18310547,0.61035156,0.0,0.0,0.0,-174.59473,68.73596,117.65259
1768030258746,-1.0102539,-0.0053710938,-0.38330078,-6.652832,-0.18310547,0.61035156,0.0,0.0,0.0,-174.49036,69.14795,117.17468
1768030258834,-0.9453125,0.0024414062,-0.20996094,-1.2207031,-17.150879,10.375977,0.0,0.0,0.0,-174.49036,69.14795,117.17468
1768030258845,-0.9453125,0.0024414062,-0.20996094,-1.2207031,-17.150879,10.375977,0.0,0.0,0.0,-176.11633,69.82361,115.339966
1768030258934,-0.98046875,-0.0034179688,-0.24707031,-14.953613,-32.226562,6.5307617,0.0,0.0,0.0,-176.11633,69.82361,115.339966
1768030258945,-0.98046875,-0.0034179688,-0.24707031,-14.953613,-32.226562,6.5307617,0.0,0.0,0.0,179.69238,72.66907,112.560425
1768030259034,-1.0131836,0.017089844,-0.29345703,-15.808105,-18.371582,2.8076172,0.0,0.0,0.0,179.69238,72.66907,112.560425
1768030259045,-1.0131836,0.017089844,-0.29345703,-15.808105,-18.371582,2.8076172,0.0,0.0,0.0,176.28113,75.042114,110.90698
1768030259133,-0.9970703,0.03515625,-0.22167969,3.2958984,-14.892578,2.2583008,0.0,0.0,0.0,176.28113,75.042114,110.90698
1768030259144,-0.9970703,0.03515625,-0.22167969,3.2958984,-14.892578,2.2583008,0.0,0.0,0.0,174.44092,76.4978,109.69849
1768030259233,-0.94384766,0.036621094,-0.21923828,12.207031,-9.094238,-2.1362305,0.0,0.0,0.0,174.44092,76.4978,109.69849
1768030259244,-0.94384766,0.036621094,-0.21923828,12.207031,-9.094238,-2.1362305,0.0,0.0,0.0,174.92432,77.51953,109.281006
1768030259332,-1.0073242,-0.03125,-0.203125,7.2021484,6.0424805,-11.291504,0.0,0.0,0.0,174.92432,77.51953,109.281006
1768030259344,-1.0073242,-0.03125,-0.203125,7.2021484,6.0424805,-11.291504,0.0,0.0,0.0,178.10486,77.60193,111.6156
1768030259432,-1.0341797,0.020507812,-0.34521484,-6.164551,-1.4038086,-8.117676,0.0,0.0,0.0,178.10486,77.60193,111.6156
1768030259444,-1.0341797,0.020507812,-0.34521484,-6.164551,-1.4038086,-8.117676,0.0,0.0,0.0,-177.46765,77.77222,116.18042
1768030259532,-0.9760742,-0.028320312,-0.17626953,-1.0375977,-4.760742,-3.6621094,0.0,0.0,0.0,-177.46765,77.77222,116.18042
1768030259543,-0.9760742,-0.028320312,-0.17626953,-1.0375977,-4.760742,-3.6621094,0.0,0.0,0.0,-174.66614,77.60193,118.56995
1768030259634,-0.9951172,-0.020507812,-0.2006836,4.699707,-7.8125,-1.8920898,0.0,0.0,0.0,-174.66614,77.60193,118.56995
1768030259645,-0.9951172,-0.020507812,-0.2006836,4.699707,-7.8125,-1.8920898,0.0,0.0,0.0,-173.66089,78.28308,119.51477
1768030259737,-0.9746094,-0.0063476562,-0.21142578,-3.6010742,-5.7373047,-2.4414062,0.0,0.0,0.0,-173.66089,78.28308,119.51477
1768030259743,-0.9746094,-0.0063476562,-0.21142578,-3.6010742,-5.7373047,-2.4414062,0.0,0.0,0.0,-171.46912,78.77197,121.35498
1768030259831,-0.9770508,-0.024414062,-0.22314453,-6.0424805,-0.61035156,-0.8544922,0.0,0.0,0.0,-171.46912,78.77197,121.35498
1768030259843,-0.9770508,-0.024414062,-0.22314453,-6.0424805,-0.61035156,-0.8544922,0.0,0.0,0.0,-170.73853,78.98071,122.20642
1768030259931,-0.9711914,-0.028808594,-0.25146484,-16.967773,-2.2583008,-3.0517578,0.0,0.0,0.0,-170.73853,78.98071,122.20642
1768030259943,-0.9711914,-0.028808594,-0.25146484,-16.967773,-2.2583008,-3.0517578,0.0,0.0,0.0,-170.5188,78.947754,123.33801
1768030260030,-0.93603516,-0.030273438,-0.31298828,-9.82666,7.3242188,-3.479004,0.0,0.0,0.0,-170.5188,78.947754,123.33801
1768030260046,-0.93603516,-0.030273438,-0.31298828,-9.82666,7.3242188,-3.479004,0.0,0.0,0.0,-171.19446,78.62366,123.95874
1768030260130,-0.9458008,-0.030273438,-0.35205078,-8.666992,8.911133,1.953125,0.0,0.0,0.0,-171.19446,78.62366,123.95874
1768030260142,-0.9458008,-0.030273438,-0.35205078,-8.666992,8.911133,1.953125,0.0,0.0,0.0,-172.78748,77.7063,123.349
1768030260230,-1.0605469,-0.016113281,-0.3046875,-5.004883,17.211914,-0.91552734,0.0,0.0,0.0,-172.78748,77.7063,123.349
1768030260241,-1.0605469,-0.016113281,-0.3046875,-5.004883,17.211914,-0.91552734,0.0,0.0,0.0,-173.87512,76.16272,122.508545
1768030260330,-1.2802734,-0.0546875,-0.2055664,28.320312,37.231445,-12.573242,0.0,0.0,0.0,-173.87512,76.16272,122.508545
1768030260341,-1.2802734,-0.0546875,-0.2055664,28.320312,37.231445,-12.573242,0.0,0.0,0.0,-171.99646,73.10303,123.706055
1768030260429,-0.94921875,-0.091308594,-0.21240234,-30.517578,-0.7324219,-0.5493164,0.0,0.0,0.0,-171.99646,73.10303,123.706055
1768030260441,-0.94921875,-0.091308594,-0.21240234,-30.517578,-0.7324219,-0.5493164,0.0,0.0,0.0,-169.68384,71.78467,125.562744
1768030260529,-0.94091797,0.001953125,-0.05078125,5.92041,2.9296875,4.0893555,0.0,0.0,0.0,-169.68384,71.78467,125.562744
1768030260541,-0.94091797,0.001953125,-0.05078125,5.92041,2.9296875,4.0893555,0.0,0.0,0.0,-170.71106,71.72974,125.22217
1768030260629,-0.94091797,-0.049804688,-0.28027344,1.953125,-5.065918,5.1879883,0.0,0.0,0.0,-170.71106,71.72974,125.22217
1768030260640,-0.94091797,-0.049804688,-0.28027344,1.953125,-5.065918,5.1879883,0.0,0.0,0.0,-171.82068,72.751465,123.83789
1768030260729,-0.890625,-0.015625,-0.24414062,12.329102,1.8310547,-1.4648438,0.0,0.0,0.0,-171.82068,72.751465,123.83789
1768030260740,-0.890625,-0.015625,-0.24414062,12.329102,1.8310547,-1.4648438,0.0,0.0,0.0,-170.84839,72.4823,124.123535
1768030260828,-0.9370117,-0.022949219,-0.27392578,28.869629,11.047363,3.112793,0.0,0.0,0.0,-170.84839,72.4823,124.123535
1768030260840,-0.9370117,-0.022949219,-0.27392578,28.869629,11.047363,3.112793,0.0,0.0,0.0,-171.39221,72.16919,122.717285
1768030260928,-0.96777344,-0.064453125,-0.33740234,8.7890625,5.432129,3.4179688,0.0,0.0,0.0,-171.39221,72.16919,122.717285
1768030260940,-0.96777344,-0.064453125,-0.33740234,8.7890625,5.432129,3.4179688,0.0,0.0,0.0,-172.25464,71.82861,120.80017
1768030261028,-0.9399414,-0.05859375,-0.30419922,-4.5776367,4.1503906,1.3427734,0.0,0.0,0.0,-172.25464,71.82861,120.80017
1768030261039,-0.9399414,-0.05859375,-0.30419922,-4.5776367,4.1503906,1.3427734,0.0,0.0,0.0,-172.95776,71.39465,119.95422
1768030261128,-0.9428711,-0.04736328,-0.33007812,-6.591797,0.7324219,2.4414062,0.0,0.0,0.0,-172.95776,71.39465,119.95422
1768030261139,-0.9428711,-0.04736328,-0.33007812,-6.591797,0.7324219,2.4414062,0.0,0.0,0.0,-173.95203,71.29028,119.48181
1768030261227,-0.9785156,-0.061035156,-0.3310547,-7.8125,-2.5634766,0.12207031,0.0,0.0,0.0,-173.95203,71.29028,119.48181
1768030261239,-0.9785156,-0.061035156,-0.3310547,-7.8125,-2.5634766,0.12207031,0.0,0.0,0.0,-174.63318,71.44409,119.44885
1768030261327,-0.97265625,-0.022949219,-0.3671875,-8.117676,-14.953613,4.760742,0.0,0.0,0.0,-174.63318,71.44409,119.44885
1768030261338,-0.97265625,-0.022949219,-0.3671875,-8.117676,-14.953613,4.760742,0.0,0.0,0.0,-175.69336,72.29004,119.34448
1768030261427,-0.91064453,-0.034179688,-0.36816406,-0.24414062,-7.507324,2.5634766,0.0,0.0,0.0,-175.69336,72.29004,119.34448
1768030261438,-0.91064453,-0.034179688,-0.36816406,-0.24414062,-7.507324,2.5634766,0.0,0.0,0.0,-175.99548,72.59216,118.89404
1768030261526,-0.87646484,-0.078125,-0.3959961,1.7089844,0.5493164,-1.3427734,0.0,0.0,0.0,-175.99548,72.59216,118.89404
1768030261538,-0.87646484,-0.078125,-0.3959961,1.7089844,0.5493164,-1.3427734,0.0,0.0,0.0,-175.2649,72.493286,119.229126
1768030261626,-0.85009766,-0.06738281,-0.4375,5.79834,10.253906,-6.164551,0.0,0.0,0.0,-175.2649,72.493286,119.229126
1768030261638,-0.85009766,-0.06738281,-0.4375,5.79834,10.253906,-6.164551,0.0,0.0,0.0,-173.33679,71.570435,120.67932
1768030261726,-1.2758789,0.00390625,-0.27734375,18.615723,16.845703,-11.169434,0.0,0.0,0.0,-173.33679,71.570435,120.67932
1768030261737,-1.2758789,0.00390625,-0.27734375,18.615723,16.845703,-11.169434,0.0,0.0,0.0,-170.01343,69.3457,122.55798
1768030261826,-0.8754883,-0.0859375,0.0063476562,-23.19336,-42.785645,11.352539,0.0,0.0,0.0,-170.01343,69.3457,122.55798
1768030261837,-0.8754883,-0.0859375,0.0063476562,-23.19336,-42.785645,11.352539,0.0,0.0,0.0,-168.5083,71.674805,122.926025
1768030261926,-0.9135742,0.12597656,-0.075683594,35.461426,-16.357422,-10.437012,0.0,0.0,0.0,-168.5083,71.674805,122.926025
1768030261937,-0.9135742,0.12597656,-0.075683594,35.461426,-16.357422,-10.437012,0.0,0.0,0.0,-165.26733,73.58093,126.71631
1768030262025,-0.9663086,-0.07861328,-0.24951172,13.671875,-4.699707,-2.9907227,0.0,0.0,0.0,-165.26733,73.58093,126.71631
1768030262037,-0.9663086,-0.07861328,-0.24951172,13.671875,-4.699707,-2.9907227,0.0,0.0,0.0,-165.62439,74.92676,126.535034
1768030262128,-0.9448242,-0.022949219,-0.24560547,28.137207,0.91552734,-0.061035156,0.0,0.0,0.0,-165.62439,74.92676,126.535034
1768030262136,-0.9448242,-0.022949219,-0.24560547,28.137207,0.91552734,-0.061035156,0.0,0.0,0.0,-166.0199,75.476074,125.321045
1768030262225,-0.95458984,-0.034179688,-0.24609375,-9.460449,3.8452148,-1.4648438,0.0,0.0,0.0,-166.0199,75.476074,125.321045
1768030262236,-0.95458984,-0.034179688,-0.24609375,-9.460449,3.8452148,-1.4648438,0.0,0.0,0.0,-164.27856,75.08057,125.722046
1768030262330,-0.9316406,-0.087890625,-0.22558594,-6.713867,-0.18310547,2.1362305,0.0,0.0,0.0,-164.27856,75.08057,125.722046
1768030262336,-0.9316406,-0.087890625,-0.22558594,-6.713867,-0.18310547,2.1362305,0.0,0.0,0.0,-165.3772,75.02014,124.77722
1768030262426,-0.9663086,-0.03173828,-0.27734375,-10.192871,-2.6245117,4.8828125,0.0,0.0,0.0,-165.3772,75.02014,124.77722
1768030262438,-0.9663086,-0.03173828,-0.27734375,-10.192871,-2.6245117,4.8828125,0.0,0.0,0.0,-168.09631,75.43213,123.4259
1768030262524,-0.95996094,-0.056640625,-0.25927734,-19.470215,-0.91552734,-1.953125,0.0,0.0,0.0,-168.09631,75.43213,123.4259
1768030262539,-0.95996094,-0.056640625,-0.25927734,-19.470215,-0.91552734,-1.953125,0.0,0.0,0.0,-170.06287,75.3772,122.96448
1768030262623,-0.94091797,0.0,-0.2993164,-21.484375,0.4272461,-3.4179688,0.0,0.0,0.0,-170.06287,75.3772,122.96448
1768030262635,-0.94091797,0.0,-0.2993164,-21.484375,0.4272461,-3.4179688,0.0,0.0,0.0,-170.95825,75.27832,124.40918
1768030262723,-0.94091797,-0.034179688,-0.31103516,-19.28711,-4.638672,-0.5493164,0.0,0.0,0.0,-170.95825,75.27832,124.40918
1768030262735,-0.94091797,-0.034179688,-0.31103516,-19.28711,-4.638672,-0.5493164,0.0,0.0,0.0,-172.71057,75.267334,124.72229
1768030262823,-0.9614258,-0.014160156,-0.39404297,-1.5258789,4.0893555,-1.7700195,0.0,0.0,0.0,-172.71057,75.267334,124.72229
1768030262834,-0.9614258,-0.014160156,-0.39404297,-1.5258789,4.0893555,-1.7700195,0.0,0.0,0.0,-173.4961,75.09155,125.10681
1768030262923,-0.93066406,-0.026855469,-0.42138672,13.366699,13.671875,-1.5258789,0.0,0.0,0.0,-173.4961,75.09155,125.10681
1768030262934,-0.93066406,-0.026855469,-0.42138672,13.366699,13.671875,-1.5258789,0.0,0.0,0.0,-173.77625,74.23462,124.453125
1768030263023,-1.0429688,-0.07324219,-0.3720703,14.587402,21.728516,-1.4648438,0.0,0.0,0.0,-173.77625,74.23462,124.453125
1768030263034,-1.0429688,-0.07324219,-0.3720703,14.587402,21.728516,-1.4648438,0.0,0.0,0.0,-173.34778,72.13623,123.480835
1768030263122,-1.1352539,-0.07714844,-0.2290039,4.699707,17.76123,-4.760742,0.0,0.0,0.0,-173.34778,72.13623,123.480835
1768030263133,-1.1352539,-0.07714844,-0.2290039,4.699707,17.76123,-4.760742,0.0,0.0,0.0,-171.44165,69.88403,123.95325
1768030263222,-0.94433594,0.034179688,-0.17919922,-27.648926,-1.8310547,8.666992,0.0,0.0,0.0,-171.44165,69.88403,123.95325
1768030263233,-0.94433594,0.034179688,-0.17919922,-27.648926,-1.8310547,8.666992,0.0,0.0,0.0,-172.06787,70.10925,123.84338
1768030263321,-0.9995117,-0.07714844,-0.21386719,0.36621094,-6.8359375,2.5634766,0.0,0.0,0.0,-172.06787,70.10925,123.84338
1768030263333,-0.9995117,-0.07714844,-0.21386719,0.36621094,-6.8359375,2.5634766,0.0,0.0,0.0,-174.16077,70.24109,122.60193
1768030263421,-0.9526367,-0.029785156,-0.25439453,-1.953125,-13.122559,6.713867,0.0,0.0,0.0,-174.16077,70.24109,122.60193
1768030263433,-0.9526367,-0.029785156,-0.25439453,-1.953125,-13.122559,6.713867,0.0,0.0,0.0,-174.54529,71.74072,122.04712
1768030263521,-0.93359375,-0.0053710938,-0.2866211,4.8217773,-4.5166016,4.333496,0.0,0.0,0.0,-174.54529,71.74072,122.04712
1768030263532,-0.93359375,-0.0053710938,-0.2866211,4.8217773,-4.5166016,4.333496,0.0,0.0,0.0,-175.91309,72.68555,120.71228
1768030263621,-0.953125,-0.013183594,-0.31054688,0.061035156,-1.0375977,4.8217773,0.0,0.0,0.0,-175.91309,72.68555,120.71228
1768030263632,-0.953125,-0.013183594,-0.31054688,0.061035156,-1.0375977,4.8217773,0.0,0.0,0.0,-177.22595,72.91077,119.22363
1768030263720,-0.94628906,0.011230469,-0.29785156,4.211426,0.18310547,5.2490234,0.0,0.0,0.0,-177.22595,72.91077,119.22363
1768030263732,-0.94628906,0.011230469,-0.29785156,4.211426,0.18310547,5.2490234,0.0,0.0,0.0,-178.59375,72.927246,117.63611
1768030263820,-0.93310547,-0.026367188,-0.29052734,2.2583008,-1.4648438,2.1362305,0.0,0.0,0.0,-178.59375,72.927246,117.63611
1768030263832,-0.93310547,-0.026367188,-0.29052734,2.2583008,-1.4648438,2.1362305,0.0,0.0,0.0,-179.61548,73.13049,116.119995
1768030263920,-0.93847656,-0.030761719,-0.2993164,0.79345703,-0.061035156,-0.7324219,0.0,0.0,0.0,-179.61548,73.13049,116.119995
1768030263931,-0.93847656,-0.030761719,-0.2993164,0.79345703,-0.061035156,-0.7324219,0.0,0.0,0.0,-179.6814,73.273315,115.944214
1768030264019,-0.97021484,-0.03955078,-0.31933594,4.638672,-7.019043,-1.159668,0.0,0.0,0.0,-179.6814,73.273315,115.944214
1768030264031,-0.97021484,-0.03955078,-0.31933594,4.638672,-7.019043,-1.159668,0.0,0.0,0.0,-178.52783,73.394165,116.70227
1768030264119,-0.98291016,-0.046875,-0.41064453,4.272461,0.0,-1.2817383,0.0,0.0,0.0,-178.52783,73.394165,116.70227
1768030264131,-0.98291016,-0.046875,-0.41064453,4.272461,0.0,-1.2817383,0.0,0.0,0.0,-176.81946,73.35022,117.960205
1768030264219,-0.9658203,-0.11279297,-0.4453125,7.5683594,15.380859,-4.4555664,0.0,0.0,0.0,-176.81946,73.35022,117.960205
1768030264231,-0.9658203,-0.11279297,-0.4453125,7.5683594,15.380859,-4.4555664,0.0,0.0,0.0,-174.96826,72.10327,118.77319
1768030264319,-1.2851562,-0.024902344,-0.35205078,-1.2817383,26.184082,-17.333984,0.0,0.0,0.0,-174.96826,72.10327,118.77319
1768030264330,-1.2851562,-0.024902344,-0.35205078,-1.2817383,26.184082,-17.333984,0.0,0.0,0.0,-171.49658,70.15869,121.536255
1768030264418,-0.8515625,-0.16015625,-0.22851562,-20.080566,-31.12793,-8.300781,0.0,0.0,0.0,-171.49658,70.15869,121.536255
1768030264430,-0.8515625,-0.16015625,-0.22851562,-20.080566,-31.12793,-8.300781,0.0,0.0,0.0,-169.62341,69.99939,124.04663
1768030264518,-0.9921875,0.067871094,-0.055664062,-16.662598,-13.061523,-12.268066,0.0,0.0,0.0,-169.62341,69.99939,124.04663
1768030264530,-0.9921875,0.067871094,-0.055664062,-16.662598,-13.061523,-12.268066,0.0,0.0,0.0,-165.7782,71.119995,129.60571
1768030264618,-0.9716797,-0.07714844,-0.26171875,-14.160156,-12.390137,-15.319824,0.0,0.0,0.0,-165.7782,71.119995,129.60571
1768030264630,-0.9716797,-0.07714844,-0.26171875,-14.160156,-12.390137,-15.319824,0.0,0.0,0.0,-164.34448,73.185425,134.05518
1768030264718,-1.03125,-0.030761719,-0.20996094,-10.925293,-21.240234,-9.033203,0.0,0.0,0.0,-164.34448,73.185425,134.05518
1768030264730,-1.03125,-0.030761719,-0.20996094,-10.925293,-21.240234,-9.033203,0.0,0.0,0.0,-159.32373,74.696045,140.60303
1768030264817,-0.9038086,-0.05126953,-0.12207031,6.8359375,-27.648926,3.1738281,0.0,0.0,0.0,-159.32373,74.696045,140.60303
1768030264829,-0.9038086,-0.05126953,-0.12207031,6.8359375,-27.648926,3.1738281,0.0,0.0,0.0,-154.91821,77.01416,144.9701
1768030264917,-1.0395508,0.0087890625,-0.29785156,19.104004,0.8544922,11.230469,0.0,0.0,0.0,-154.91821,77.01416,144.9701
1768030264929,-1.0395508,0.0087890625,-0.29785156,19.104004,0.8544922,11.230469,0.0,0.0,0.0,-155.84106,78.57422,142.81677
1768030265017,-0.94433594,-0.10546875,-0.18261719,13.48877,-1.159668,6.958008,0.0,0.0,0.0,-155.84106,78.57422,142.81677
1768030265028,-0.94433594,-0.10546875,-0.18261719,13.48877,-1.159668,6.958008,0.0,0.0,0.0,-158.96667,78.585205,137.31812
1768030265117,-0.97802734,-0.088378906,-0.2241211,13.427734,7.3242188,7.080078,0.0,0.0,0.0,-158.96667,78.585205,137.31812
1768030265128,-0.97802734,-0.088378906,-0.2241211,13.427734,7.3242188,7.080078,0.0,0.0,0.0,-161.72974,78.12378,132.8247
1768030265216,-0.99072266,-0.078125,-0.23779297,2.5024414,5.92041,5.79834,0.0,0.0,0.0,-161.72974,78.12378,132.8247
1768030265228,-0.99072266,-0.078125,-0.23779297,2.5024414,5.92041,5.79834,0.0,0.0,0.0,-164.39392,77.61841,129.35303
1768030265316,-0.95703125,-0.10888672,-0.23925781,-5.065918,5.9814453,1.6479492,0.0,0.0,0.0,-164.39392,77.61841,129.35303
1768030265327,-0.95703125,-0.10888672,-0.23925781,-5.065918,5.9814453,1.6479492,0.0,0.0,0.0,-166.42639,77.15698,127.08435
1768030265416,-0.94384766,-0.0625,-0.2709961,-14.282227,5.1879883,2.0751953,0.0,0.0,0.0,-166.42639,77.15698,127.08435
1768030265427,-0.94384766,-0.0625,-0.2709961,-14.282227,5.1879883,2.0751953,0.0,0.0,0.0,-168.12378,76.657104,126.14502
1768030265515,-0.9692383,-0.024902344,-0.32617188,-14.770508,3.2348633,1.7700195,0.0,0.0,0.0,-168.12378,76.657104,126.14502
1768030265527,-0.9692383,-0.024902344,-0.32617188,-14.770508,3.2348633,1.7700195,0.0,0.0,0.0,-170.0299,76.12427,125.53528
1768030265615,-0.9458008,-0.023925781,-0.37304688,0.0,11.230469,0.9765625,0.0,0.0,0.0,-170.0299,76.12427,125.53528
1768030265627,-0.9458008,-0.023925781,-0.37304688,0.0,11.230469,0.9765625,0.0,0.0,0.0,-171.84814,75.2124,124.14551
1768030265715,-1.0200195,-0.04296875,-0.38183594,17.944336,14.953613,-3.6621094,0.0,0.0,0.0,-171.84814,75.2124,124.14551
1768030265726,-1.0200195,-0.04296875,-0.38183594,17.944336,14.953613,-3.6621094,0.0,0.0,0.0,-171.60645,73.54797,123.255615
1768030265815,-0.9067383,0.0146484375,-0.26171875,43.029785,25.20752,-4.333496,0.0,0.0,0.0,-171.60645,73.54797,123.255615
1768030265826,-0.9067383,0.0146484375,-0.26171875,43.029785,25.20752,-4.333496,0.0,0.0,0.0,-169.16199,71.07056,123.45886
1768030265914,-0.91552734,-0.1616211,-0.16308594,-11.779785,8.483887,-12.573242,0.0,0.0,0.0,-169.16199,71.07056,123.45886
1768030265926,-0.91552734,-0.1616211,-0.16308594,-11.779785,8.483887,-12.573242,0.0,0.0,0.0,-168.33252,70.81787,123.986206
1768030266014,-0.9628906,-0.03515625,-0.1640625,-16.662598,-7.8125,2.319336,0.0,0.0,0.0,-168.33252,70.81787,123.986206
1768030266026,-0.9628906,-0.03515625,-0.1640625,-16.662598,-7.8125,2.319336,0.0,0.0,0.0,-167.90955,70.68054,125.81543
1768030266114,-0.95654297,-0.04638672,-0.26660156,-11.71875,-5.493164,-3.540039,0.0,0.0,0.0,-167.90955,70.68054,125.81543
1768030266125,-0.95654297,-0.04638672,-0.26660156,-11.71875,-5.493164,-3.540039,0.0,0.0,0.0,-169.44763,71.795654,126.2439
1768030266213,-0.97802734,-0.037109375,-0.37109375,2.319336,-10.498047,6.4086914,0.0,0.0,0.0,-169.44763,71.795654,126.2439
1768030266225,-0.97802734,-0.037109375,-0.37109375,2.319336,-10.498047,6.4086914,0.0,0.0,0.0,-170.10681,73.47107,126.19995
1768030266313,-0.94433594,-0.15917969,-0.22607422,1.0375977,-7.385254,-5.92041,0.0,0.0,0.0,-170.10681,73.47107,126.19995
1768030266325,-0.94433594,-0.15917969,-0.22607422,1.0375977,-7.385254,-5.92041,0.0,0.0,0.0,-169.59045,73.73474,125.8374
1768030266413,-0.90722656,0.01171875,-0.33251953,8.056641,2.0141602,-7.446289,0.0,0.0,0.0,-169.59045,73.73474,125.8374
1768030266425,-0.90722656,0.01171875,-0.33251953,8.056641,2.0141602,-7.446289,0.0,0.0,0.0,-165.55298,73.85559,129.75403
1768030266513,-0.9526367,-0.13671875,-0.23730469,-7.9956055,-1.7089844,-4.0283203,0.0,0.0,0.0,-165.55298,73.85559,129.75403
1768030266524,-0.9526367,-0.13671875,-0.23730469,-7.9956055,-1.7089844,-4.0283203,0.0,0.0,0.0,-165.13,73.82263,129.81445
1768030266612,-0.9638672,-0.047851562,-0.3256836,-9.155273,-4.9438477,-3.9672852,0.0,0.0,0.0,-165.13,73.82263,129.81445
1768030266625,-0.9638672,-0.047851562,-0.3256836,-9.155273,-4.9438477,-3.9672852,0.0,0.0,0.0,-163.41614,74.21814,132.41272
1768030266712,-0.97216797,-0.10595703,-0.32226562,4.3945312,-10.375977,7.1411133,0.0,0.0,0.0,-163.41614,74.21814,132.41272
1768030266724,-0.97216797,-0.10595703,-0.32226562,4.3945312,-10.375977,7.1411133,0.0,0.0,0.0,-163.77869,74.833374,131.73157
1768030266812,-0.9951172,-0.10839844,-0.4086914,11.535645,0.36621094,8.361816,0.0,0.0,0.0,-163.77869,74.833374,131.73157
1768030266824,-0.9951172,-0.10839844,-0.4086914,11.535645,0.36621094,8.361816,0.0,0.0,0.0,-165.28381,74.921265,129.30359
1768030266912,-0.92041016,-0.1538086,-0.38232422,18.493652,0.6713867,10.7421875,0.0,0.0,0.0,-165.28381,74.921265,129.30359
1768030266923,-0.92041016,-0.1538086,-0.38232422,18.493652,0.6713867,10.7421875,0.0,0.0,0.0,-167.4646,74.72351,125.200195
1768030267011,-0.8925781,-0.041503906,-0.107421875,16.052246,1.0986328,5.3710938,0.0,0.0,0.0,-167.4646,74.72351,125.200195
1768030267024,-0.8925781,-0.041503906,-0.107421875,16.052246,1.0986328,5.3710938,0.0,0.0,0.0,-167.44263,73.45459,123.05786
1768030267111,-0.9448242,-0.037597656,-0.2133789,-15.991211,7.446289,-11.84082,0.0,0.0,0.0,-167.44263,73.45459,123.05786
1768030267122,-0.9448242,-0.037597656,-0.2133789,-15.991211,7.446289,-11.84082,0.0,0.0,0.0,-166.4154,73.289795,125.007935
1768030267211,-0.984375,-0.025878906,-0.045898438,11.474609,-23.254395,-5.493164,0.0,0.0,0.0,-166.4154,73.289795,125.007935
1768030267222,-0.984375,-0.025878906,-0.045898438,11.474609,-23.254395,-5.493164,0.0,0.0,0.0,-161.51001,74.32251,129.68262
1768030267311,-0.9819336,-0.083984375,-0.19042969,11.291504,-10.009766,-4.638672,0.0,0.0,0.0,-161.51001,74.32251,129.68262
1768030267322,-0.9819336,-0.083984375,-0.19042969,11.291504,-10.009766,-4.638672,0.0,0.0,0.0,-156.43982,75.94299,134.05518
1768030267410,-0.9638672,-0.061523438,-0.13671875,7.2021484,-6.5307617,-1.5869141,0.0,0.0,0.0,-156.43982,75.94299,134.05518
1768030267422,-0.9638672,-0.061523438,-0.13671875,7.2021484,-6.5307617,-1.5869141,0.0,0.0,0.0,-152.77588,76.865845,136.64246
1768030267510,-0.96484375,-0.017578125,-0.2421875,8.666992,-0.36621094,5.065918,0.0,0.0,0.0,-152.77588,76.865845,136.64246
1768030267521,-0.96484375,-0.017578125,-0.2421875,8.666992,-0.36621094,5.065918,0.0,0.0,0.0,-151.80359,77.41516,137.20825
1768030267610,-0.9765625,-0.08935547,-0.15673828,6.286621,0.61035156,10.864258,0.0,0.0,0.0,-151.80359,77.41516,137.20825
1768030267621,-0.9765625,-0.08935547,-0.15673828,6.286621,0.61035156,10.864258,0.0,0.0,0.0,-155.54993,77.717285,132.67639
1768030267709,-1.0292969,-0.088378906,-0.14990234,-9.033203,-13.73291,6.0424805,0.0,0.0,0.0,-155.54993,77.717285,132.67639
1768030267721,-1.0292969,-0.088378906,-0.14990234,-9.033203,-13.73291,6.0424805,0.0,0.0,0.0,-160.09827,78.447876,128.63892
1768030267809,-0.99365234,-0.0024414062,-0.22070312,-28.076172,-6.8969727,-1.159668,0.0,0.0,0.0,-160.09827,78.447876,128.63892
1768030267821,-0.99365234,-0.0024414062,-0.22070312,-28.076172,-6.8969727,-1.159668,0.0,0.0,0.0,-160.42236,79.68933,130.9845
1768030267909,-0.98876953,-0.057617188,-0.30664062,-31.25,1.5258789,-10.681152,0.0,0.0,0.0,-160.42236,79.68933,130.9845
1768030267920,-0.98876953,-0.057617188,-0.30664062,-31.25,1.5258789,-10.681152,0.0,0.0,0.0,-161.10352,79.541016,133.8739
1768030268009,-1.0253906,-0.043945312,-0.39404297,-16.906738,4.211426,-10.620117,0.0,0.0,0.0,-161.10352,79.541016,133.8739
1768030268020,-1.0253906,-0.043945312,-0.39404297,-16.906738,4.211426,-10.620117,0.0,0.0,0.0,-159.23584,78.69507,138.14209
1768030268108,-1.0771484,-0.13232422,-0.36083984,3.479004,-2.6855469,-1.0375977,0.0,0.0,0.0,-159.23584,78.69507,138.14209
1768030268120,-1.0771484,-0.13232422,-0.36083984,3.479004,-2.6855469,-1.0375977,0.0,0.0,0.0,-159.22485,78.1897,138.50464
1768030268208,-0.9824219,-0.095214844,-0.20361328,25.634766,3.2958984,-4.5166016,0.0,0.0,0.0,-159.22485,78.1897,138.50464
1768030268220,-0.9824219,-0.095214844,-0.20361328,25.634766,3.2958984,-4.5166016,0.0,0.0,0.0,-155.90698,77.89856,139.16382
1768030268308,-0.86279297,-0.060546875,-0.055664062,21.728516,4.9438477,6.5307617,0.0,0.0,0.0,-155.90698,77.89856,139.16382
1768030268319,-0.86279297,-0.060546875,-0.055664062,21.728516,4.9438477,6.5307617,0.0,0.0,0.0,-156.67053,76.88782,136.56006
1768030268408,-1.1474609,-0.21533203,0.03125,-7.080078,-6.652832,7.6293945,0.0,0.0,0.0,-156.67053,76.88782,136.56006
1768030268419,-1.1474609,-0.21533203,0.03125,-7.080078,-6.652832,7.6293945,0.0,0.0,0.0,-160.5597,77.96997,131.19873
1768030268507,-0.9921875,0.060546875,-0.17041016,-6.225586,-9.887695,14.953613,0.0,0.0,0.0,-160.5597,77.96997,131.19873
1768030268519,-0.9921875,0.060546875,-0.17041016,-6.225586,-9.887695,14.953613,0.0,0.0,0.0,-162.74597,78.96973,130.44067
1768030268607,-0.98291016,-0.022460938,-0.10205078,27.09961,-5.79834,8.666992,0.0,0.0,0.0,-162.74597,78.96973,130.44067
1768030268619,-0.98291016,-0.022460938,-0.10205078,27.09961,-5.79834,8.666992,0.0,0.0,0.0,-167.20642,80.05737,125.22766
1768030268707,-0.9819336,-0.052246094,-0.24853516,2.9907227,20.141602,-3.9672852,0.0,0.0,0.0,-167.20642,80.05737,125.22766
1768030268718,-0.9819336,-0.052246094,-0.24853516,2.9907227,20.141602,-3.9672852,0.0,0.0,0.0,-168.79395,80.04639,122.75574
1768030268806,-0.9741211,-0.072265625,-0.123535156,-1.6479492,-2.5634766,7.1411133,0.0,0.0,0.0,-168.79395,80.04639,122.75574
1768030268818,-0.9741211,-0.072265625,-0.123535156,-1.6479492,-2.5634766,7.1411133,0.0,0.0,0.0,-169.57947,78.480835,121.37146
1768030268906,-0.9536133,-0.032714844,-0.19384766,-12.756348,2.0141602,1.0375977,0.0,0.0,0.0,-169.57947,78.480835,121.37146
1768030268918,-0.9536133,-0.032714844,-0.19384766,-12.756348,2.0141602,1.0375977,0.0,0.0,0.0,-171.8866,78.40393,119.93225
1768030269006,-0.96972656,-0.03125,-0.1928711,1.0986328,2.380371,1.4038086,0.0,0.0,0.0,-171.8866,78.40393,119.93225
1768030269018,-0.96972656,-0.03125,-0.1928711,1.0986328,2.380371,1.4038086,0.0,0.0,0.0,-172.87537,78.38745,119.333496
1768030269106,-0.98095703,-0.03857422,-0.25927734,7.5683594,2.9907227,1.6479492,0.0,0.0,0.0,-172.87537,78.38745,119.333496
1768030269117,-0.98095703,-0.03857422,-0.25927734,7.5683594,2.9907227,1.6479492,0.0,0.0,0.0,-173.60046,78.06885,118.50952
1768030269205,-1.0131836,-0.020996094,-0.27685547,7.873535,5.065918,2.6855469,0.0,0.0,0.0,-173.60046,78.06885,118.50952
1768030269217,-1.0131836,-0.020996094,-0.27685547,7.873535,5.065918,2.6855469,0.0,0.0,0.0,-173.04016,77.67334,118.00964
1768030269305,-0.9589844,-0.08105469,-0.31054688,6.1035156,9.460449,-3.9672852,0.0,0.0,0.0,-173.04016,77.67334,118.00964
1768030269318,-0.9589844,-0.08105469,-0.31054688,6.1035156,9.460449,-3.9672852,0.0,0.0,0.0,-172.11182,76.63513,118.081055
1768030269405,-1.203125,-0.08544922,-0.2368164,20.568848,17.8833,-12.878418,0.0,0.0,0.0,-172.11182,76.63513,118.081055
1768030269417,-1.203125,-0.08544922,-0.2368164,20.568848,17.8833,-12.878418,0.0,0.0,0.0,-168.38196,74.61914,120.66284
1768030269505,-0.93115234,-0.09277344,-0.20898438,-22.766113,8.361816,-12.939453,0.0,0.0,0.0,-168.38196,74.61914,120.66284
1768030269516,-0.93115234,-0.09277344,-0.20898438,-22.766113,8.361816,-12.939453,0.0,0.0,0.0,-166.15173,73.71277,124.552
1768030269604,-0.9511719,0.04248047,-0.14550781,2.5024414,-1.5869141,-5.493164,0.0,0.0,0.0,-166.15173,73.71277,124.552
1768030269616,-0.9511719,0.04248047,-0.14550781,2.5024414,-1.5869141,-5.493164,0.0,0.0,0.0,-164.47083,72.97119,127.44141
1768030269704,-0.94628906,0.010253906,-0.20800781,0.24414062,-8.422852,2.4414062,0.0,0.0,0.0,-164.47083,72.97119,127.44141
1768030269715,-0.94628906,0.010253906,-0.20800781,0.24414062,-8.422852,2.4414062,0.0,0.0,0.0,-164.31702,74.31152,127.93579
1768030269804,-0.99560547,-0.053222656,-0.13427734,5.126953,-15.50293,4.272461,0.0,0.0,0.0,-164.31702,74.31152,127.93579
1768030269815,-0.99560547,-0.053222656,-0.13427734,5.126953,-15.50293,4.272461,0.0,0.0,0.0,-164.53125,75.635376,127.25464
1768030269904,-1.0473633,-0.099121094,-0.27978516,-14.770508,-2.8686523,-4.699707,0.0,0.0,0.0,-164.53125,75.635376,127.25464
1768030269915,-1.0473633,-0.099121094,-0.27978516,-14.770508,-2.8686523,-4.699707,0.0,0.0,0.0,-164.26758,77.20093,128.54553
1768030270003,-0.95166016,-0.0234375,-0.15478516,-2.8076172,-5.79834,-6.164551,0.0,0.0,0.0,-164.26758,77.20093,128.54553
1768030270015,-0.95166016,-0.0234375,-0.15478516,-2.8076172,-5.79834,-6.164551,0.0,0.0,0.0,-160.82886,77.56897,132.25891
1768030270103,-0.9682617,-0.06982422,-0.24121094,8.117676,-2.380371,-5.92041,0.0,0.0,0.0,-160.82886,77.56897,132.25891
1768030270115,-0.9682617,-0.06982422,-0.24121094,8.117676,-2.380371,-5.92041,0.0,0.0,0.0,-157.91199,77.50305,135.10437
1768030270203,-0.9428711,-0.111328125,-0.24853516,2.9907227,2.5634766,-5.79834,0.0,0.0,0.0,-157.91199,77.50305,135.10437
1768030270215,-0.9428711,-0.111328125,-0.24853516,2.9907227,2.5634766,-5.79834,0.0,0.0,0.0,-155.45654,77.04712,137.18628
1768030270302,-0.9453125,-0.10498047,-0.22167969,-4.3945312,3.8452148,-6.1035156,0.0,0.0,0.0,-155.45654,77.04712,137.18628
1768030270314,-0.9453125,-0.10498047,-0.22167969,-4.3945312,3.8452148,-6.1035156,0.0,0.0,0.0,-154.08875,76.40442,138.6145
1768030270402,-0.94628906,-0.087890625,-0.2685547,-10.986328,8.300781,-5.9814453,0.0,0.0,0.0,-154.08875,76.40442,138.6145
1768030270414,-0.94628906,-0.087890625,-0.2685547,-10.986328,8.300781,-5.9814453,0.0,0.0,0.0,-154.2096,75.64636,139.50989
1768030270502,-1.0175781,-0.084472656,-0.3071289,-1.7089844,5.493164,-1.2817383,0.0,0.0,0.0,-154.2096,75.64636,139.50989
1768030270514,-1.0175781,-0.084472656,-0.3071289,-1.7089844,5.493164,-1.2817383,0.0,0.0,0.0,-155.25879,74.75647,139.12537
1768030270602,-1.0292969,-0.1665039,-0.3310547,-12.6953125,-0.18310547,0.7324219,0.0,0.0,0.0,-155.25879,74.75647,139.12537
1768030270613,-1.0292969,-0.1665039,-0.3310547,-12.6953125,-0.18310547,0.7324219,0.0,0.0,0.0,-156.59912,74.09729,138.2904
1768030270702,-0.9399414,-0.109375,-0.3178711,-1.0375977,-2.9296875,6.0424805,0.0,0.0,0.0,-156.59912,74.09729,138.2904
1768030270713,-0.9399414,-0.109375,-0.3178711,-1.0375977,-2.9296875,6.0424805,0.0,0.0,0.0,-157.38464,74.2511,137.5653
1768030270801,-0.9970703,-0.09472656,-0.33740234,-0.5493164,-2.6855469,1.2817383,0.0,0.0,0.0,-157.38464,74.2511,137.5653
1768030270813,-0.9970703,-0.09472656,-0.33740234,-0.5493164,-2.6855469,1.2817383,0.0,0.0,0.0,-157.84607,74.49829,136.94458
1768030270901,-1.0234375,-0.12548828,-0.27392578,1.8310547,-2.0141602,0.4272461,0.0,0.0,0.0,-157.84607,74.49829,136.94458
1768030270912,-1.0234375,-0.12548828,-0.27392578,1.8310547,-2.0141602,0.4272461,0.0,0.0,0.0,-158.75793,74.503784,135.73059
1768030271001,-0.9248047,-0.041503906,-0.095703125,-6.5307617,1.5258789,1.5258789,0.0,0.0,0.0,-158.75793,74.503784,135.73059
1768030271012,-0.9248047,-0.041503906,-0.095703125,-6.5307617,1.5258789,1.5258789,0.0,0.0,0.0,-158.25806,73.916016,135.91187
1768030271100,-0.9873047,-0.022460938,-0.071777344,-18.432617,-5.2490234,8.361816,0.0,0.0,0.0,-158.25806,73.916016,135.91187
1768030271112,-0.9873047,-0.022460938,-0.071777344,-18.432617,-5.2490234,8.361816,0.0,0.0,0.0,-161.32324,74.53125,134.28589
1768030271200,-1.0170898,-0.0014648438,-0.2626953,-9.58252,-4.211426,9.887695,0.0,0.0,0.0,-161.32324,74.53125,134.28589
1768030271212,-1.0170898,-0.0014648438,-0.2626953,-9.58252,-4.211426,9.887695,0.0,0.0,0.0,-166.05286,75.97046,131.45691
1768030271300,-0.9423828,-0.056640625,-0.1796875,22.216797,2.8076172,8.361816,0.0,0.0,0.0,-166.05286,75.97046,131.45691
1768030271311,-0.9423828,-0.056640625,-0.1796875,22.216797,2.8076172,8.361816,0.0,0.0,0.0,-168.48083,75.94299,127.6062
1768030271400,-0.96240234,-0.06933594,-0.2993164,13.000488,10.192871,1.4648438,0.0,0.0,0.0,-168.48083,75.94299,127.6062
1768030271411,-0.96240234,-0.06933594,-0.2993164,13.000488,10.192871,1.4648438,0.0,0.0,0.0,-169.42566,75.75073,125.17822
1768030271499,-0.9638672,-0.051757812,-0.27734375,2.5634766,6.225586,-1.0986328,0.0,0.0,0.0,-169.42566,75.75073,125.17822
1768030271511,-0.9638672,-0.051757812,-0.27734375,2.5634766,6.225586,-1.0986328,0.0,0.0,0.0,-168.9972,75.338745,124.49707
1768030271599,-0.95410156,-0.060058594,-0.25146484,1.5869141,5.004883,-4.0283203,0.0,0.0,0.0,-168.9972,75.338745,124.49707
1768030271610,-0.95410156,-0.060058594,-0.25146484,1.5869141,5.004883,-4.0283203,0.0,0.0,0.0,-167.72278,74.61914,125.32654
1768030271699,-0.9370117,-0.08935547,-0.22607422,1.4038086,0.30517578,-1.2817383,0.0,0.0,0.0,-167.72278,74.61914,125.32654
1768030271710,-0.9370117,-0.08935547,-0.22607422,1.4038086,0.30517578,-1.2817383,0.0,0.0,0.0,-167.92053,74.349976,124.84863
1768030271798,-0.96191406,-0.064453125,-0.26416016,5.6762695,-2.6855469,1.8310547,0.0,0.0,0.0,-167.92053,74.349976,124.84863
1768030271810,-0.96191406,-0.064453125,-0.26416016,5.6762695,-2.6855469,1.8310547,0.0,0.0,0.0,-167.50854,74.66858,124.854126
1768030271898,-0.98535156,-0.06933594,-0.29052734,14.953613,4.5776367,2.8076172,0.0,0.0,0.0,-167.50854,74.66858,124.854126
1768030271910,-0.98535156,-0.06933594,-0.29052734,14.953613,4.5776367,2.8076172,0.0,0.0,0.0,-167.88757,74.82788,123.513794
1768030271998,-0.97753906,-0.092285156,-0.34716797,2.8686523,0.9765625,0.36621094,0.0,0.0,0.0,-167.88757,74.82788,123.513794
1768030272009,-0.97753906,-0.092285156,-0.34716797,2.8686523,0.9765625,0.36621094,0.0,0.0,0.0,-168.23914,74.63013,122.547
1768030272098,-0.99658203,-0.08105469,-0.3466797,-1.7089844,7.446289,-1.159668,0.0,0.0,0.0,-168.23914,74.63013,122.547
1768030272109,-0.99658203,-0.08105469,-0.3466797,-1.7089844,7.446289,-1.159668,0.0,0.0,0.0,-168.16772,74.262085,122.55798
1768030272197,-0.87060547,-0.11035156,-0.26123047,-23.4375,6.286621,-4.760742,0.0,0.0,0.0,-168.16772,74.262085,122.55798
1768030272209,-0.87060547,-0.11035156,-0.26123047,-23.4375,6.286621,-4.760742,0.0,0.0,0.0,-168.5138,73.289795,123.37097
1768030272297,-0.9501953,-0.029296875,-0.2475586,-17.150879,9.70459,-9.277344,0.0,0.0,0.0,-168.5138,73.289795,123.37097
1768030272309,-0.9501953,-0.029296875,-0.2475586,-17.150879,9.70459,-9.277344,0.0,0.0,0.0,-168.13477,72.13074,126.00769
1768030272397,-0.99316406,-0.019042969,-0.21044922,6.0424805,-0.8544922,-6.958008,0.0,0.0,0.0,-168.13477,72.13074,126.00769
1768030272408,-0.99316406,-0.019042969,-0.21044922,6.0424805,-0.8544922,-6.958008,0.0,0.0,0.0,-166.39343,71.99341,128.46313
1768030272497,-0.92285156,-0.048828125,-0.22802734,9.460449,-6.4697266,-6.4697266,0.0,0.0,0.0,-166.39343,71.99341,128.46313
1768030272508,-0.92285156,-0.048828125,-0.22802734,9.460449,-6.4697266,-6.4697266,0.0,0.0,0.0,-162.89978,72.41089,131.1383
1768030272596,-0.9716797,-0.083984375,-0.15185547,1.8920898,-10.559082,1.4038086,0.0,0.0,0.0,-162.89978,72.41089,131.1383
1768030272608,-0.9716797,-0.083984375,-0.15185547,1.8920898,-10.559082,1.4038086,0.0,0.0,0.0,-160.85083,73.25134,132.56653
1768030272696,-0.9707031,-0.046875,-0.2368164,-4.5166016,-9.460449,3.8452148,0.0,0.0,0.0,-160.85083,73.25134,132.56653
1768030272708,-0.9707031,-0.046875,-0.2368164,-4.5166016,-9.460449,3.8452148,0.0,0.0,0.0,-160.83435,74.696045,133.06091
1768030272796,-0.96777344,-0.06591797,-0.203125,0.12207031,-5.1879883,2.9296875,0.0,0.0,0.0,-160.83435,74.696045,133.06091
1768030272807,-0.96777344,-0.06591797,-0.203125,0.12207031,-5.1879883,2.9296875,0.0,0.0,0.0,-161.3562,75.90454,132.65991
1768030272896,-0.9951172,-0.0625,-0.26367188,-3.9672852,-0.8544922,-0.24414062,0.0,0.0,0.0,-161.3562,75.90454,132.65991
1768030272907,-0.9951172,-0.0625,-0.26367188,-3.9672852,-0.8544922,-0.24414062,0.0,0.0,0.0,-162.43835,75.805664,132.03369
1768030272995,-0.94970703,-0.078125,-0.2866211,-3.2348633,1.4038086,0.5493164,0.0,0.0,0.0,-162.43835,75.805664,132.03369
1768030273007,-0.94970703,-0.078125,-0.2866211,-3.2348633,1.4038086,0.5493164,0.0,0.0,0.0,-163.27881,75.86609,131.67664
1768030273095,-0.9526367,-0.08300781,-0.25976562,-1.2207031,-3.4179688,-1.6479492,0.0,0.0,0.0,-163.27881,75.86609,131.67664
1768030273107,-0.9526367,-0.08300781,-0.25976562,-1.2207031,-3.4179688,-1.6479492,0.0,0.0,0.0,-163.42163,75.89905,131.69312
1768030273195,-0.9580078,-0.059570312,-0.23046875,-1.8310547,-6.4697266,0.91552734,0.0,0.0,0.0,-163.42163,75.89905,131.69312
1768030273206,-0.9580078,-0.059570312,-0.23046875,-1.8310547,-6.4697266,0.91552734,0.0,0.0,0.0,-162.724,76.31653,132.37427
1768030273295,-0.9863281,-0.057128906,-0.2607422,-3.6010742,-8.239746,3.2348633,0.0,0.0,0.0,-162.724,76.31653,132.37427
1768030273306,-0.9863281,-0.057128906,-0.2607422,-3.6010742,-8.239746,3.2348633,0.0,0.0,0.0,-163.42163,77.091064,131.97327
1768030273394,-0.9555664,-0.057617188,-0.32128906,-12.512207,7.385254,0.0,0.0,0.0,0.0,-163.42163,77.091064,131.97327
1768030273406,-0.9555664,-0.057617188,-0.32128906,-12.512207,7.385254,0.0,0.0,0.0,0.0,-164.26758,77.27234,131.82495
1768030273494,-0.94628906,-0.049316406,-0.31933594,11.59668,9.82666,-0.9765625,0.0,0.0,0.0,-164.26758,77.27234,131.82495
1768030273506,-0.94628906,-0.049316406,-0.31933594,11.59668,9.82666,-0.9765625,0.0,0.0,0.0,-164.729,75.79468,130.8966
1768030273594,-0.97802734,-0.12548828,-0.2890625,2.8686523,13.549805,-5.7373047,0.0,0.0,0.0,-164.729,75.79468,130.8966
1768030273605,-0.97802734,-0.12548828,-0.2890625,2.8686523,13.549805,-5.7373047,0.0,0.0,0.0,-164.26208,74.21814,130.49011
1768030273693,-1.012207,-0.075683594,-0.28027344,7.019043,13.48877,-6.958008,0.0,0.0,0.0,-164.26208,74.21814,130.49011
1768030273705,-1.012207,-0.075683594,-0.28027344,7.019043,13.48877,-6.958008,0.0,0.0,0.0,-163.26782,72.36694,131.25916
1768030273793,-0.7236328,-0.12060547,-0.24267578,4.8828125,-12.939453,1.5258789,0.0,0.0,0.0,-163.26782,72.36694,131.25916
1768030273805,-0.7236328,-0.12060547,-0.24267578,4.8828125,-12.939453,1.5258789,0.0,0.0,0.0,-164.78943,72.95471,130.14404
1768030273893,-1.0258789,0.018066406,-0.16992188,-37.53662,-7.9956055,4.1503906,0.0,0.0,0.0,-164.78943,72.95471,130.14404
1768030273904,-1.0258789,0.018066406,-0.16992188,-37.53662,-7.9956055,4.1503906,0.0,0.0,0.0,-167.60742,74.62463,130.14954
1768030273993,-0.9975586,-0.05078125,-0.14501953,-28.076172,-17.822266,5.432129,0.0,0.0,0.0,-167.60742,74.62463,130.14954
1768030274004,-0.9975586,-0.05078125,-0.14501953,-28.076172,-17.822266,5.432129,0.0,0.0,0.0,-170.83191,76.93176,129.14978
1768030274092,-0.94628906,0.048339844,-0.18457031,7.1411133,-10.009766,7.9956055,0.0,0.0,0.0,-170.83191,76.93176,129.14978
1768030274104,-0.94628906,0.048339844,-0.18457031,7.1411133,-10.009766,7.9956055,0.0,0.0,0.0,-173.50159,78.272095,126.743774
1768030274192,-1.0068359,-0.00390625,-0.20361328,21.850586,-2.0751953,9.216309,0.0,0.0,0.0,-173.50159,78.272095,126.743774
1768030274203,-1.0068359,-0.00390625,-0.20361328,21.850586,-2.0751953,9.216309,0.0,0.0,0.0,-175.57251,78.56323,122.49756
1768030274292,-0.9824219,0.012207031,-0.2006836,20.568848,-2.1362305,10.437012,0.0,0.0,0.0,-175.57251,78.56323,122.49756
1768030274303,-0.9824219,0.012207031,-0.2006836,20.568848,-2.1362305,10.437012,0.0,0.0,0.0,-178.13232,78.84888,117.54822
1768030274392,-0.9589844,-0.026367188,-0.20361328,13.122559,2.1362305,7.9345703,0.0,0.0,0.0,-178.13232,78.84888,117.54822
1768030274403,-0.9589844,-0.026367188,-0.20361328,13.122559,2.1362305,7.9345703,0.0,0.0,0.0,178.91235,78.810425,112.736206
1768030274491,-0.95947266,0.0029296875,-0.20947266,13.793945,-1.5258789,4.5166016,0.0,0.0,0.0,178.91235,78.810425,112.736206
1768030274503,-0.95947266,0.0029296875,-0.20947266,13.793945,-1.5258789,4.5166016,0.0,0.0,0.0,177.3523,78.793945,109.819336
1768030274591,-0.9941406,-0.0034179688,-0.22363281,18.066406,5.2490234,5.6152344,0.0,0.0,0.0,177.3523,78.793945,109.819336
1768030274603,-0.9941406,-0.0034179688,-0.22363281,18.066406,5.2490234,5.6152344,0.0,0.0,0.0,177.30286,78.585205,107.677
1768030274691,-0.99853516,-0.028808594,-0.2133789,11.71875,2.0751953,4.272461,0.0,0.0,0.0,177.30286,78.585205,107.677
1768030274702,-0.99853516,-0.028808594,-0.2133789,11.71875,2.0751953,4.272461,0.0,0.0,0.0,177.48413,78.62366,105.78735
1768030274790,-0.97265625,-0.033691406,-0.21240234,23.07129,-3.9672852,0.36621094,0.0,0.0,0.0,177.48413,78.62366,105.78735
1768030274802,-0.97265625,-0.033691406,-0.21240234,23.07129,-3.9672852,0.36621094,0.0,0.0,0.0,178.5498,78.66211,105.062256
1768030274890,-1.0073242,-0.0053710938,-0.24169922,8.178711,-10.925293,0.79345703,0.0,0.0,0.0,178.5498,78.66211,105.062256
1768030274902,-1.0073242,-0.0053710938,-0.24169922,8.178711,-10.925293,0.79345703,0.0,0.0,0.0,-179.81873,79.62341,105.55115
1768030274990,-1.0288086,-0.040039062,-0.26123047,21.728516,0.4272461,-2.746582,0.0,0.0,0.0,-179.81873,79.62341,105.55115
1768030275001,-1.0288086,-0.040039062,-0.26123047,21.728516,0.4272461,-2.746582,0.0,0.0,0.0,-178.13232,79.93103,105.99609
1768030275090,-0.9067383,-0.022460938,-0.060058594,7.9956055,-7.6904297,-4.760742,0.0,0.0,0.0,-178.13232,79.93103,105.99609
1768030275101,-0.9067383,-0.022460938,-0.060058594,7.9956055,-7.6904297,-4.760742,0.0,0.0,0.0,-172.97424,79.678345,109.48425
1768030275189,-0.9746094,0.013671875,-0.14941406,-11.047363,2.6855469,-7.080078,0.0,0.0,0.0,-172.97424,79.678345,109.48425
1768030275201,-0.9746094,0.013671875,-0.14941406,-11.047363,2.6855469,-7.080078,0.0,0.0,0.0,-170.33752,79.749756,113.71399
1768030275289,-0.9902344,0.03125,-0.06982422,-10.925293,-4.0283203,-6.713867,0.0,0.0,0.0,-170.33752,79.749756,113.71399
1768030275301,-0.9902344,0.03125,-0.06982422,-10.925293,-4.0283203,-6.713867,0.0,0.0,0.0,-169.12903,80.49133,116.20239
1768030275389,-1.0654297,0.001953125,-0.046875,-10.986328,-9.155273,-1.0986328,0.0,0.0,0.0,-169.12903,80.49133,116.20239
1768030275400,-1.0654297,0.001953125,-0.046875,-10.986328,-9.155273,-1.0986328,0.0,0.0,0.0,-166.70654,81.2439,119.04236
1768030275489,-0.96728516,0.0068359375,-0.07519531,-16.540527,-11.962891,-5.7373047,0.0,0.0,0.0,-166.70654,81.2439,119.04236
1768030275500,-0.96728516,0.0068359375,-0.07519531,-16.540527,-11.962891,-5.7373047,0.0,0.0,0.0,-162.46033,82.21619,124.98596
1768030275588,-0.97753906,0.0,-0.107910156,-16.418457,-0.79345703,-7.019043,0.0,0.0,0.0,-162.46033,82.21619,124.98596
1768030275600,-0.97753906,0.0,-0.107910156,-16.418457,-0.79345703,-7.019043,0.0,0.0,0.0,-158.16467,82.803955,131.08887
1768030275688,-1.0073242,-0.030761719,-0.14355469,-12.023926,2.8076172,-0.48828125,0.0,0.0,0.0,-158.16467,82.803955,131.08887
1768030275700,-1.0073242,-0.030761719,-0.14355469,-12.023926,2.8076172,-0.48828125,0.0,0.0,0.0,-158.80188,82.78198,131.92383
1768030275788,-0.9770508,-0.024902344,-0.1538086,-1.159668,8.422852,-1.2207031,0.0,0.0,0.0,-158.80188,82.78198,131.92383
1768030275799,-0.9770508,-0.024902344,-0.1538086,-1.159668,8.422852,-1.2207031,0.0,0.0,0.0,-160.7135,82.128296,130.76477
1768030275888,-0.9663086,-0.053710938,-0.15576172,0.91552734,2.6855469,0.0,0.0,0.0,0.0,-160.7135,82.128296,130.76477
1768030275899,-0.9663086,-0.053710938,-0.15576172,0.91552734,2.6855469,0.0,0.0,0.0,0.0,-161.25732,81.8811,129.90784
1768030275987,-0.9902344,-0.05419922,-0.20117188,-0.30517578,3.4179688,-0.4272461,0.0,0.0,0.0,-161.25732,81.8811,129.90784
1768030275999,-0.9902344,-0.05419922,-0.20117188,-0.30517578,3.4179688,-0.4272461,0.0,0.0,0.0,-160.88928,81.60095,129.97375
1768030276087,-0.98876953,-0.032226562,-0.13183594,-4.638672,5.7373047,-3.0517578,0.0,0.0,0.0,-160.88928,81.60095,129.97375
1768030276099,-0.98876953,-0.032226562,-0.13183594,-4.638672,5.7373047,-3.0517578,0.0,0.0,0.0,-160.70801,80.88135,130.11108
1768030276187,-0.9609375,-0.060546875,-0.21875,-9.155273,8.422852,1.953125,0.0,0.0,0.0,-160.70801,80.88135,130.11108
1768030276198,-0.9609375,-0.060546875,-0.21875,-9.155273,8.422852,1.953125,0.0,0.0,0.0,-161.80664,80.0354,129.76501
1768030276287,-1.0097656,-0.061035156,-0.29492188,-3.2958984,12.634277,-0.5493164,0.0,0.0,0.0,-161.80664,80.0354,129.76501
1768030276298,-1.0097656,-0.061035156,-0.29492188,-3.2958984,12.634277,-0.5493164,0.0,0.0,0.0,-164.43237,79.123535,127.699585
1768030276386,-1.121582,-0.072753906,-0.28125,7.8125,13.305664,0.12207031,0.0,0.0,0.0,-164.43237,79.123535,127.699585
1768030276398,-1.121582,-0.072753906,-0.28125,7.8125,13.305664,0.12207031,0.0,0.0,0.0,-165.72327,77.7887,125.9198
1768030276486,-0.8149414,-0.030761719,-0.15283203,12.939453,-1.953125,4.9438477,0.0,0.0,0.0,-165.72327,77.7887,125.9198
1768030276497,-0.8149414,-0.030761719,-0.15283203,12.939453,-1.953125,4.9438477,0.0,0.0,0.0,-166.0968,77.22839,124.002686
1768030276586,-0.94628906,-0.03564453,-0.19091797,-1.0986328,8.300781,-0.36621094,0.0,0.0,0.0,-166.0968,77.22839,124.002686
1768030276598,-0.94628906,-0.03564453,-0.19091797,-1.0986328,8.300781,-0.36621094,0.0,0.0,0.0,-167.61841,76.71753,122.45911
1768030276685,-0.9716797,0.03173828,-0.041015625,-8.911133,-5.6762695,4.333496,0.0,0.0,0.0,-167.61841,76.71753,122.45911
1768030276698,-0.9716797,0.03173828,-0.041015625,-8.911133,-5.6762695,4.333496,0.0,0.0,0.0,-168.12927,76.66809,122.48108
1768030276785,-1.0185547,0.028320312,-0.203125,-3.0517578,-4.1503906,8.728027,0.0,0.0,0.0,-168.12927,76.66809,122.48108
1768030276797,-1.0185547,0.028320312,-0.203125,-3.0517578,-4.1503906,8.728027,0.0,0.0,0.0,-171.73828,77.596436,120.10254
1768030276885,-0.9433594,-0.020507812,-0.18457031,13.244629,-2.746582,8.972168,0.0,0.0,0.0,-171.73828,77.596436,120.10254
1768030276896,-0.9433594,-0.020507812,-0.18457031,13.244629,-2.746582,8.972168,0.0,0.0,0.0,-175.4956,78.09082,115.64209
1768030276985,-0.97216797,-0.0126953125,-0.3046875,32.836914,9.338379,6.8969727,0.0,0.0,0.0,-175.4956,78.09082,115.64209
1768030276996,-0.97216797,-0.0126953125,-0.3046875,32.836914,9.338379,6.8969727,0.0,0.0,0.0,-178.45093,78.17871,111.12671
1768030277084,-0.9902344,-0.09863281,-0.19042969,19.16504,0.8544922,4.211426,0.0,0.0,0.0,-178.45093,78.17871,111.12671
1768030277096,-0.9902344,-0.09863281,-0.19042969,19.16504,0.8544922,4.211426,0.0,0.0,0.0,-177.62695,77.49756,108.54492
1768030277184,-0.98583984,-0.028320312,-0.20996094,7.1411133,-4.8217773,5.126953,0.0,0.0,0.0,-177.62695,77.49756,108.54492
1768030277196,-0.98583984,-0.028320312,-0.20996094,7.1411133,-4.8217773,5.126953,0.0,0.0,0.0,-175.61646,77.541504,108.863525
1768030277284,-0.97314453,-0.03466797,-0.20166016,7.3242188,-1.0986328,4.1503906,0.0,0.0,0.0,-175.61646,77.541504,108.863525
1768030277295,-0.97314453,-0.03466797,-0.20166016,7.3242188,-1.0986328,4.1503906,0.0,0.0,0.0,-175.88013,77.77222,107.62756
1768030277384,-0.98779297,-0.075683594,-0.20263672,10.131836,-0.6713867,1.2207031,0.0,0.0,0.0,-175.88013,77.77222,107.62756
1768030277395,-0.98779297,-0.075683594,-0.20263672,10.131836,-0.6713867,1.2207031,0.0,0.0,0.0,-175.81421,77.76123,106.70471
1768030277483,-1.0268555,-0.0048828125,-0.2529297,12.390137,-5.493164,4.5166016,0.0,0.0,0.0,-175.81421,77.76123,106.70471
1768030277495,-1.0268555,-0.0048828125,-0.2529297,12.390137,-5.493164,4.5166016,0.0,0.0,0.0,-176.08887,77.87659,106.2323
1768030277583,-0.9995117,-0.103515625,-0.2836914,-7.6904297,-2.6245117,1.953125,0.0,0.0,0.0,-176.08887,77.87659,106.2323
1768030277595,-0.9995117,-0.103515625,-0.2836914,-7.6904297,-2.6245117,1.953125,0.0,0.0,0.0,-176.24268,77.81616,105.41382
1768030277683,-1.0073242,-0.037597656,-0.22998047,-4.211426,-5.126953,3.4179688,0.0,0.0,0.0,-176.24268,77.81616,105.41382
1768030277694,-1.0073242,-0.037597656,-0.22998047,-4.211426,-5.126953,3.4179688,0.0,0.0,0.0,-175.979,77.89307,106.05652
1768030277783,-0.9609375,-0.13916016,-0.16064453,-62.316895,-19.40918,-5.9814453,0.0,0.0,0.0,-175.979,77.89307,106.05652
1768030277794,-0.9609375,-0.13916016,-0.16064453,-62.316895,-19.40918,-5.9814453,0.0,0.0,0.0,-178.05542,79.43115,106.04004
1768030277882,-0.9501953,0.15966797,-0.17822266,-27.160645,-10.498047,-4.699707,0.0,0.0,0.0,-178.05542,79.43115,106.04004
1768030277894,-0.9501953,0.15966797,-0.17822266,-27.160645,-10.498047,-4.699707,0.0,0.0,0.0,-176.44592,80.16724,111.7749
1768030277982,-0.97753906,0.068847656,-0.045898438,24.597168,-14.282227,-3.8452148,0.0,0.0,0.0,-176.44592,80.16724,111.7749
1768030277994,-0.97753906,0.068847656,-0.045898438,24.597168,-14.282227,-3.8452148,0.0,0.0,0.0,-175.83618,81.293335,112.697754
1768030278082,-1.0454102,0.03564453,-0.045410156,0.4272461,-3.6010742,-2.9296875,0.0,0.0,0.0,-175.83618,81.293335,112.697754
1768030278093,-1.0454102,0.03564453,-0.045410156,0.4272461,-3.6010742,-2.9296875,0.0,0.0,0.0,-173.47412,82.22168,113.878784
1768030278182,-1.0126953,-0.03564453,-0.064941406,-0.61035156,3.9672852,-8.239746,0.0,0.0,0.0,-173.47412,82.22168,113.878784
1768030278193,-1.0126953,-0.03564453,-0.064941406,-0.61035156,3.9672852,-8.239746,0.0,0.0,0.0,-170.2716,81.83716,117.35596
1768030278281,-0.96435547,0.029785156,-0.12451172,-28.930664,5.6152344,-7.507324,0.0,0.0,0.0,-170.2716,81.83716,117.35596
1768030278293,-0.96435547,0.029785156,-0.12451172,-28.930664,5.6152344,-7.507324,0.0,0.0,0.0,-166.38245,81.22742,123.20618
1768030278381,-0.97265625,-0.0068359375,-0.16308594,-4.3945312,9.58252,-5.6762695,0.0,0.0,0.0,-166.38245,81.22742,123.20618
1768030278393,-0.97265625,-0.0068359375,-0.16308594,-4.3945312,9.58252,-5.6762695,0.0,0.0,0.0,-165.943,80.513306,125.079346
1768030278481,-0.9667969,-0.014160156,-0.20458984,-8.605957,4.9438477,-0.061035156,0.0,0.0,0.0,-165.943,80.513306,125.079346
1768030278492,-0.9667969,-0.014160156,-0.20458984,-8.605957,4.9438477,-0.061035156,0.0,0.0,0.0,-167.59094,80.128784,124.40369
1768030278580,-0.9746094,-0.0234375,-0.21484375,-3.112793,0.5493164,1.8920898,0.0,0.0,0.0,-167.59094,80.128784,124.40369
1768030278592,-0.9746094,-0.0234375,-0.21484375,-3.112793,0.5493164,1.8920898,0.0,0.0,0.0,-169.42017,79.93652,122.909546
1768030278680,-0.9770508,0.021972656,-0.22998047,0.0,-2.6855469,3.0517578,0.0,0.0,0.0,-169.42017,79.93652,122.909546
1768030278692,-0.9770508,0.021972656,-0.22998047,0.0,-2.6855469,3.0517578,0.0,0.0,0.0,-170.85388,79.92554,121.448364
1768030278780,-0.9863281,-0.03515625,-0.19433594,15.197754,-6.4086914,3.479004,0.0,0.0,0.0,-170.85388,79.92554,121.448364
1768030278791,-0.9863281,-0.03515625,-0.19433594,15.197754,-6.4086914,3.479004,0.0,0.0,0.0,-172.35352,80.02991,118.828125
1768030278879,-1.0112305,-0.08935547,-0.24121094,-3.7841797,2.746582,-3.540039,0.0,0.0,0.0,-172.35352,80.02991,118.828125
1768030278891,-1.0112305,-0.08935547,-0.24121094,-3.7841797,2.746582,-3.540039,0.0,0.0,0.0,-172.38098,80.354004,118.64685
1768030278979,-1.0400391,-0.052246094,-0.2734375,-6.7749023,5.859375,-1.5258789,0.0,0.0,0.0,-172.38098,80.354004,118.64685
1768030278991,-1.0400391,-0.052246094,-0.2734375,-6.7749023,5.859375,-1.5258789,0.0,0.0,0.0,-172.22168,79.85962,119.63562
1768030279079,-1.0131836,-0.07080078,-0.22509766,-11.71875,7.8125,0.4272461,0.0,0.0,0.0,-172.22168,79.85962,119.63562
1768030279091,-1.0131836,-0.07080078,-0.22509766,-11.71875,7.8125,0.4272461,0.0,0.0,0.0,-172.91382,78.76648,119.55322
1768030279179,-1.0957031,0.0024414062,-0.2006836,4.3945312,16.113281,-3.90625,0.0,0.0,0.0,-172.91382,78.76648,119.55322
1768030279190,-1.0957031,0.0024414062,-0.2006836,4.3945312,16.113281,-3.90625,0.0,0.0,0.0,-171.97998,77.65686,120.73425
1768030279278,-0.9301758,0.07910156,0.016601562,-5.2490234,-9.216309,10.009766,0.0,0.0,0.0,-171.97998,77.65686,120.73425
1768030279290,-0.9301758,0.07910156,0.016601562,-5.2490234,-9.216309,10.009766,0.0,0.0,0.0,-172.2876,77.33276,119.871826
1768030279378,-0.9658203,0.08203125,-0.14111328,9.277344,5.92041,2.4414062,0.0,0.0,0.0,-172.2876,77.33276,119.871826
1768030279390,-0.9658203,0.08203125,-0.14111328,9.277344,5.92041,2.4414062,0.0,0.0,0.0,-177.52258,77.541504,115.91675
1768030279478,-0.9746094,-0.014160156,-0.17236328,17.028809,-1.3427734,4.9438477,0.0,0.0,0.0,-177.52258,77.541504,115.91675
1768030279489,-0.9746094,-0.014160156,-0.17236328,17.028809,-1.3427734,4.9438477,0.0,0.0,0.0,179.30786,78.05786,111.86279
1768030279578,-0.99365234,-0.041015625,-0.16357422,7.9345703,-0.91552734,3.1738281,0.0,0.0,0.0,179.30786,78.05786,111.86279
1768030279589,-0.99365234,-0.041015625,-0.16357422,7.9345703,-0.91552734,3.1738281,0.0,0.0,0.0,178.41797,78.26111,109.67651
1768030279678,-0.9658203,-0.00390625,-0.2602539,3.7841797,-0.48828125,1.4038086,0.0,0.0,0.0,178.41797,78.26111,109.67651
1768030279689,-0.9658203,-0.00390625,-0.2602539,3.7841797,-0.48828125,1.4038086,0.0,0.0,0.0,177.54456,78.55774,108.621826
1768030279777,-0.9794922,-0.0043945312,-0.23535156,-4.4555664,2.746582,2.5024414,0.0,0.0,0.0,177.54456,78.55774,108.621826
1768030279789,-0.9794922,-0.0043945312,-0.23535156,-4.4555664,2.746582,2.5024414,0.0,0.0,0.0,177.52258,78.5083,107.907715
1768030279877,-0.9790039,0.0,-0.19091797,12.634277,-2.2583008,0.79345703,0.0,0.0,0.0,177.52258,78.5083,107.907715
1768030279889,-0.9790039,0.0,-0.19091797,12.634277,-2.2583008,0.79345703,0.0,0.0,0.0,177.92908,78.05237,107.45178
1768030279976,-0.9536133,-0.029296875,-0.1459961,7.2631836,-0.4272461,-5.432129,0.0,0.0,0.0,177.92908,78.05237,107.45178
1768030279988,-0.9536133,-0.029296875,-0.1459961,7.2631836,-0.4272461,-5.432129,0.0,0.0,0.0,-179.41223,77.8656,109.105225
1768030280077,-0.9628906,0.0126953125,-0.26904297,10.314941,4.3945312,-8.911133,0.0,0.0,0.0,-179.41223,77.8656,109.105225
1768030280088,-0.9628906,0.0126953125,-0.26904297,10.314941,4.3945312,-8.911133,0.0,0.0,0.0,-175.56702,77.60193,112.69226
1768030280176,-0.98876953,-0.05078125,-0.24121094,7.873535,1.4648438,0.30517578,0.0,0.0,0.0,-175.56702,77.60193,112.69226
1768030280187,-0.98876953,-0.05078125,-0.24121094,7.873535,1.4648438,0.30517578,0.0,0.0,0.0,-174.97375,77.43164,112.50549
1768030280276,-1.015625,-0.033203125,-0.30273438,4.0893555,1.2207031,-2.0141602,0.0,0.0,0.0,-174.97375,77.43164,112.50549
1768030280287,-1.015625,-0.033203125,-0.30273438,4.0893555,1.2207031,-2.0141602,0.0,0.0,0.0,-174.5398,77.492065,112.664795
1768030280375,-0.9838867,-0.12939453,-0.30273438,-3.7841797,4.0283203,-4.9438477,0.0,0.0,0.0,-174.5398,77.492065,112.664795
1768030280387,-0.9838867,-0.12939453,-0.30273438,-3.7841797,4.0283203,-4.9438477,0.0,0.0,0.0,-172.24915,76.54724,114.746704
1768030280475,-0.8618164,-0.091796875,-0.3100586,-0.79345703,14.343262,-9.94873,0.0,0.0,0.0,-172.24915,76.54724,114.746704
1768030280487,-0.8618164,-0.091796875,-0.3100586,-0.79345703,14.343262,-9.94873,0.0,0.0,0.0,-169.28284,75.23987,117.993164
1768030280575,-1.1289062,0.022949219,-0.28955078,17.39502,40.771484,-22.705078,0.0,0.0,0.0,-169.28284,75.23987,117.993164
1768030280586,-1.1289062,0.022949219,-0.28955078,17.39502,40.771484,-22.705078,0.0,0.0,0.0,-164.93774,72.10327,121.89331
1768030280675,-1.0415039,-0.122558594,-0.17480469,12.573242,-7.2021484,-1.8920898,0.0,0.0,0.0,-164.93774,72.10327,121.89331
1768030280686,-1.0415039,-0.122558594,-0.17480469,12.573242,-7.2021484,-1.8920898,0.0,0.0,0.0,-161.97144,71.553955,123.151245
1768030280774,-1.0258789,0.0146484375,-0.17919922,-1.5869141,-20.568848,7.9345703,0.0,0.0,0.0,-161.97144,71.553955,123.151245
1768030280786,-1.0258789,0.0146484375,-0.17919922,-1.5869141,-20.568848,7.9345703,0.0,0.0,0.0,-160.26855,72.20215,124.23889
1768030280874,-0.98291016,-0.08300781,-0.1743164,3.6621094,-14.526367,-0.91552734,0.0,0.0,0.0,-160.26855,72.20215,124.23889
1768030280886,-0.98291016,-0.08300781,-0.1743164,3.6621094,-14.526367,-0.91552734,0.0,0.0,0.0,-158.82385,73.97095,125.46387
1768030280974,-0.97216797,-0.06591797,-0.22167969,-16.662598,-9.399414,-3.7841797,0.0,0.0,0.0,-158.82385,73.97095,125.46387
1768030280986,-0.97216797,-0.06591797,-0.22167969,-16.662598,-9.399414,-3.7841797,0.0,0.0,0.0,-156.698,75.74524,128.74878
1768030281073,-0.96435547,-0.04736328,-0.21142578,-27.770996,-10.437012,3.2348633,0.0,0.0,0.0,-156.698,75.74524,128.74878
1768030281085,-0.96435547,-0.04736328,-0.21142578,-27.770996,-10.437012,3.2348633,0.0,0.0,0.0,-157.59888,76.91528,130.12207
1768030281174,-0.98583984,-0.061523438,-0.23535156,-32.287598,-4.0283203,-2.5634766,0.0,0.0,0.0,-157.59888,76.91528,130.12207
1768030281185,-0.98583984,-0.061523438,-0.23535156,-32.287598,-4.0283203,-2.5634766,0.0,0.0,0.0,-159.73022,77.44263,131.02295
1768030281273,-0.9321289,-0.046875,-0.22705078,-22.583008,-6.8359375,-0.9765625,0.0,0.0,0.0,-159.73022,77.44263,131.02295
1768030281285,-0.9321289,-0.046875,-0.22705078,-22.583008,-6.8359375,-0.9765625,0.0,0.0,0.0,-161.57043,77.629395,132.182
1768030281373,-0.94677734,-0.07080078,-0.3383789,-4.760742,13.549805,-2.6855469,0.0,0.0,0.0,-161.57043,77.629395,132.182
1768030281384,-0.94677734,-0.07080078,-0.3383789,-4.760742,13.549805,-2.6855469,0.0,0.0,0.0,-163.19641,77.50305,132.13806
1768030281472,-1.0068359,-0.080566406,-0.296875,2.6245117,9.521484,-2.8076172,0.0,0.0,0.0,-163.19641,77.50305,132.13806
1768030281484,-1.0068359,-0.080566406,-0.296875,2.6245117,9.521484,-2.8076172,0.0,0.0,0.0,-163.80066,76.16821,131.29211
1768030281572,-1.0205078,-0.115722656,-0.22509766,-15.197754,1.0986328,-2.1362305,0.0,0.0,0.0,-163.80066,76.16821,131.29211
1768030281584,-1.0205078,-0.115722656,-0.22509766,-15.197754,1.0986328,-2.1362305,0.0,0.0,0.0,-163.4491,75.563965,131.58325
1768030281672,-0.9790039,-0.059570312,-0.34570312,-19.77539,-2.0751953,-0.18310547,0.0,0.0,0.0,-163.4491,75.563965,131.58325
1768030281683,-0.9790039,-0.059570312,-0.34570312,-19.77539,-2.0751953,-0.18310547,0.0,0.0,0.0,-164.54224,75.51453,132.63794
1768030281772,-1.1630859,-0.048339844,-0.3359375,-3.112793,0.5493164,7.751465,0.0,0.0,0.0,-164.54224,75.51453,132.63794
1768030281783,-1.1630859,-0.048339844,-0.3359375,-3.112793,0.5493164,7.751465,0.0,0.0,0.0,-167.37671,75.2948,131.37451
1768030281871,-0.97021484,-0.04296875,-0.29296875,25.878906,14.099121,6.958008,0.0,0.0,0.0,-167.37671,75.2948,131.37451
1768030281883,-0.97021484,-0.04296875,-0.29296875,25.878906,14.099121,6.958008,0.0,0.0,0.0,-170.65613,74.86084,127.23816
1768030281971,-0.8833008,0.0024414062,-0.1328125,19.28711,10.314941,1.953125,0.0,0.0,0.0,-170.65613,74.86084,127.23816
1768030281982,-0.8833008,0.0024414062,-0.1328125,19.28711,10.314941,1.953125,0.0,0.0,0.0,-171.26038,73.125,124.45862
1768030282071,-0.9633789,0.025878906,-0.1796875,-0.79345703,3.2348633,6.8969727,0.0,0.0,0.0,-171.26038,73.125,124.45862
1768030282082,-0.9633789,0.025878906,-0.1796875,-0.79345703,3.2348633,6.8969727,0.0,0.0,0.0,-173.11157,72.839355,122.162476
1768030282170,-0.97314453,0.017089844,-0.15527344,3.7841797,1.6479492,4.8828125,0.0,0.0,0.0,-173.11157,72.839355,122.162476
1768030282182,-0.97314453,0.017089844,-0.15527344,3.7841797,1.6479492,4.8828125,0.0,0.0,0.0,-175.67139,73.17993,119.53125
1768030282270,-0.9614258,-0.0073242188,-0.31396484,32.226562,5.004883,2.8686523,0.0,0.0,0.0,-175.67139,73.17993,119.53125
1768030282282,-0.9614258,-0.0073242188,-0.31396484,32.226562,5.004883,2.8686523,0.0,0.0,0.0,-176.15479,73.00415,118.02612
1768030282370,-0.9355469,-0.06689453,-0.2133789,21.118164,1.8920898,1.5869141,0.0,0.0,0.0,-176.15479,73.00415,118.02612
1768030282382,-0.9355469,-0.06689453,-0.2133789,21.118164,1.8920898,1.5869141,0.0,0.0,0.0,-174.00146,72.83386,117.07031
1768030282470,-0.93847656,-0.041992188,-0.30078125,7.019043,-0.12207031,2.746582,0.0,0.0,0.0,-174.00146,72.83386,117.07031
1768030282481,-0.93847656,-0.041992188,-0.30078125,7.019043,-0.12207031,2.746582,0.0,0.0,0.0,-173.55103,73.07556,116.47705
1768030282569,-0.9765625,-0.0048828125,-0.3408203,1.6479492,4.3945312,8.239746,0.0,0.0,0.0,-173.55103,73.07556,116.47705
1768030282581,-0.9765625,-0.0048828125,-0.3408203,1.6479492,4.3945312,8.239746,0.0,0.0,0.0,-175.14954,73.00964,114.472046
1768030282669,-0.94433594,-0.052246094,-0.28076172,14.831543,-2.9296875,6.652832,0.0,0.0,0.0,-175.14954,73.00964,114.472046
1768030282681,-0.94433594,-0.052246094,-0.28076172,14.831543,-2.9296875,6.652832,0.0,0.0,0.0,-176.00647,72.77893,112.197876
1768030282769,-0.93847656,-0.057617188,-0.23046875,5.859375,-12.756348,3.540039,0.0,0.0,0.0,-176.00647,72.77893,112.197876
1768030282780,-0.93847656,-0.057617188,-0.23046875,5.859375,-12.756348,3.540039,0.0,0.0,0.0,-175.62744,73.63037,111.31348
1768030282869,-0.99316406,-0.033203125,-0.328125,4.9438477,-3.2348633,0.30517578,0.0,0.0,0.0,-175.62744,73.63037,111.31348
1768030282880,-0.99316406,-0.033203125,-0.328125,4.9438477,-3.2348633,0.30517578,0.0,0.0,0.0,-175.53406,74.28955,111.170654
1768030282968,-0.9560547,-0.057617188,-0.34033203,3.90625,4.0283203,-1.0375977,0.0,0.0,0.0,-175.53406,74.28955,111.170654
1768030282980,-0.9560547,-0.057617188,-0.34033203,3.90625,4.0283203,-1.0375977,0.0,0.0,0.0,-175.0122,73.99841,111.47827
1768030283068,-1.1425781,-0.041015625,-0.33154297,0.48828125,6.164551,-2.0751953,0.0,0.0,0.0,-175.0122,73.99841,111.47827
1768030283080,-1.1425781,-0.041015625,-0.33154297,0.48828125,6.164551,-2.0751953,0.0,0.0,0.0,-174.2981,73.33374,111.96167
1768030283168,-0.9423828,-0.15673828,-0.28320312,-31.00586,-10.437012,-2.1972656,0.0,0.0,0.0,-174.2981,73.33374,111.96167
1768030283179,-0.9423828,-0.15673828,-0.28320312,-31.00586,-10.437012,-2.1972656,0.0,0.0,0.0,-174.90784,74.22363,112.8241
1768030283267,-0.9501953,0.034179688,-0.19384766,-22.033691,-8.544922,-3.8452148,0.0,0.0,0.0,-174.90784,74.22363,112.8241
1768030283279,-0.9501953,0.034179688,-0.19384766,-22.033691,-8.544922,-3.8452148,0.0,0.0,0.0,-174.10583,74.558716,116.10901
1768030283367,-0.9682617,0.024414062,-0.2680664,-12.207031,-5.3710938,-3.6010742,0.0,0.0,0.0,-174.10583,74.558716,116.10901
1768030283379,-0.9682617,0.024414062,-0.2680664,-12.207031,-5.3710938,-3.6010742,0.0,0.0,0.0,-175.6604,75.28381,117.09778
1768030283467,-0.9926758,0.08886719,-0.118652344,0.91552734,-17.27295,3.4179688,0.0,0.0,0.0,-175.6604,75.28381,117.09778
1768030283478,-0.9926758,0.08886719,-0.118652344,0.91552734,-17.27295,3.4179688,0.0,0.0,0.0,-174.56726,76.64612,117.67456
1768030283567,-1.0249023,-0.028320312,-0.16357422,16.052246,-2.5024414,-5.065918,0.0,0.0,0.0,-174.56726,76.64612,117.67456
1768030283578,-1.0249023,-0.028320312,-0.16357422,16.052246,-2.5024414,-5.065918,0.0,0.0,0.0,-172.87537,77.65137,118.17444
1768030283666,-0.93408203,0.01953125,-0.14160156,5.1879883,-6.591797,-4.3945312,0.0,0.0,0.0,-172.87537,77.65137,118.17444
1768030283678,-0.93408203,0.01953125,-0.14160156,5.1879883,-6.591797,-4.3945312,0.0,0.0,0.0,-169.20044,77.89307,121.27258
1768030283766,-0.9682617,-0.0063476562,-0.19726562,1.8920898,-0.18310547,-0.91552734,0.0,0.0,0.0,-169.20044,77.89307,121.27258
1768030283778,-0.9682617,-0.0063476562,-0.19726562,1.8920898,-0.18310547,-0.91552734,0.0,0.0,0.0,-169.11255,78.52478,121.640625
1768030283866,-0.98779297,-0.025878906,-0.17675781,-0.9765625,-6.164551,0.18310547,0.0,0.0,0.0,-169.11255,78.52478,121.640625
1768030283877,-0.98779297,-0.025878906,-0.17675781,-0.9765625,-6.164551,0.18310547,0.0,0.0,0.0,-168.76099,78.82141,121.970215
1768030283966,-0.98828125,-0.01953125,-0.21289062,-12.451172,-3.1738281,-0.48828125,0.0,0.0,0.0,-168.76099,78.82141,121.970215
1768030283977,-0.98828125,-0.01953125,-0.21289062,-12.451172,-3.1738281,-0.48828125,0.0,0.0,0.0,-168.9093,79.052124,122.79419
1768030284065,-0.9892578,-0.03564453,-0.22998047,-8.666992,5.9814453,-2.1972656,0.0,0.0,0.0,-168.9093,79.052124,122.79419
1768030284077,-0.9892578,-0.03564453,-0.22998047,-8.666992,5.9814453,-2.1972656,0.0,0.0,0.0,-170.48035,78.96423,122.547
1768030284165,-0.9370117,-0.04296875,-0.24707031,-14.953613,3.479004,-2.2583008,0.0,0.0,0.0,-170.48035,78.96423,122.547
1768030284176,-0.9370117,-0.04296875,-0.24707031,-14.953613,3.479004,-2.2583008,0.0,0.0,0.0,-171.40869,78.76099,122.71179
1768030284265,-0.9716797,-0.0078125,-0.24365234,-9.82666,0.6713867,3.540039,0.0,0.0,0.0,-171.40869,78.76099,122.71179
1768030284276,-0.9716797,-0.0078125,-0.24365234,-9.82666,0.6713867,3.540039,0.0,0.0,0.0,-172.39197,78.50281,122.50305
1768030284364,-1.0898438,-0.096191406,-0.31445312,3.2958984,7.9345703,-4.760742,0.0,0.0,0.0,-172.39197,78.50281,122.50305
1768030284376,-1.0898438,-0.096191406,-0.31445312,3.2958984,7.9345703,-4.760742,0.0,0.0,0.0,-172.22168,77.700806,122.579956
1768030284464,-0.91552734,-0.0073242188,-0.14990234,4.211426,-8.911133,-0.79345703,0.0,0.0,0.0,-172.22168,77.700806,122.579956
1768030284476,-0.91552734,-0.0073242188,-0.14990234,4.211426,-8.911133,-0.79345703,0.0,0.0,0.0,-169.2334,77.22839,124.38721
1768030284564,-1.2636719,0.0087890625,-0.35107422,27.160645,10.070801,3.2958984,0.0,0.0,0.0,-169.2334,77.22839,124.38721
1768030284576,-1.2636719,0.0087890625,-0.35107422,27.160645,10.070801,3.2958984,0.0,0.0,0.0,-170.64514,77.1405,122.67334
1768030284664,-0.9086914,-0.05029297,-0.20800781,2.9907227,-8.666992,8.178711,0.0,0.0,0.0,-170.64514,77.1405,122.67334
1768030284676,-0.9086914,-0.05029297,-0.20800781,2.9907227,-8.666992,8.178711,0.0,0.0,0.0,-168.98071,77.53052,121.343994
1768030284763,-0.9038086,0.0087890625,-0.024414062,20.935059,-15.991211,2.0141602,0.0,0.0,0.0,-168.98071,77.53052,121.343994
1768030284776,-0.9038086,0.0087890625,-0.024414062,20.935059,-15.991211,2.0141602,0.0,0.0,0.0,-167.83813,78.22266,121.11328
1768030284863,-1.0151367,0.022949219,-0.107910156,-5.92041,-14.404297,9.643555,0.0,0.0,0.0,-167.83813,78.22266,121.11328
1768030284875,-1.0151367,0.022949219,-0.107910156,-5.92041,-14.404297,9.643555,0.0,0.0,0.0,-171.58997,80.84839,117.8009
1768030284963,-0.9628906,0.06640625,-0.10058594,5.92041,-10.253906,13.85498,0.0,0.0,0.0,-171.58997,80.84839,117.8009
1768030284974,-0.9628906,0.06640625,-0.10058594,5.92041,-10.253906,13.85498,0.0,0.0,0.0,-177.92358,82.0459,110.93445
1768030285063,-1.0043945,0.01953125,-0.12011719,18.310547,10.314941,2.6245117,0.0,0.0,0.0,-177.92358,82.0459,110.93445
1768030285074,-1.0043945,0.01953125,-0.12011719,18.310547,10.314941,2.6245117,0.0,0.0,0.0,175.95703,82.01843,103.94165
1768030285162,-0.9560547,0.015625,-0.1015625,9.94873,2.0751953,5.065918,0.0,0.0,0.0,175.95703,82.01843,103.94165
1768030285174,-0.9560547,0.015625,-0.1015625,9.94873,2.0751953,5.065918,0.0,0.0,0.0,174.78699,81.3208,101.760864
1768030285262,-0.97216797,0.017089844,-0.11425781,0.91552734,0.0,4.0893555,0.0,0.0,0.0,174.78699,81.3208,101.760864
1768030285274,-0.97216797,0.017089844,-0.11425781,0.91552734,0.0,4.0893555,0.0,0.0,0.0,171.156,81.4032,98.19031
1768030285362,-1.0112305,0.0063476562,-0.2084961,-7.2631836,12.512207,0.5493164,0.0,0.0,0.0,171.156,81.4032,98.19031
1768030285373,-1.0112305,0.0063476562,-0.2084961,-7.2631836,12.512207,0.5493164,0.0,0.0,0.0,169.20593,81.01318,97.25647
1768030285461,-0.96777344,-0.015136719,-0.1586914,8.239746,7.3242188,0.061035156,0.0,0.0,0.0,169.20593,81.01318,97.25647
1768030285473,-0.96777344,-0.015136719,-0.1586914,8.239746,7.3242188,0.061035156,0.0,0.0,0.0,171.7987,79.799194,99.41528
1768030285561,-1.015625,0.015625,-0.2163086,8.117676,12.451172,-3.0517578,0.0,0.0,0.0,171.7987,79.799194,99.41528
1768030285573,-1.015625,0.015625,-0.2163086,8.117676,12.451172,-3.0517578,0.0,0.0,0.0,172.96875,79.123535,99.9646
1768030285661,-0.95703125,-0.022949219,-0.21240234,19.16504,10.803223,-4.3945312,0.0,0.0,0.0,172.96875,79.123535,99.9646
1768030285673,-0.95703125,-0.022949219,-0.21240234,19.16504,10.803223,-4.3945312,0.0,0.0,0.0,176.76453,77.53601,102.75513
1768030285761,-0.9482422,-0.07861328,-0.26904297,12.939453,11.230469,-10.620117,0.0,0.0,0.0,176.76453,77.53601,102.75513
1768030285773,-0.9482422,-0.07861328,-0.26904297,12.939453,11.230469,-10.620117,0.0,0.0,0.0,-178.6322,76.8219,105.930176
1768030285860,-1.0185547,-0.10595703,-0.33935547,5.2490234,18.554688,-12.939453,0.0,0.0,0.0,-178.6322,76.8219,105.930176
1768030285872,-1.0185547,-0.10595703,-0.33935547,5.2490234,18.554688,-12.939453,0.0,0.0,0.0,-172.38647,74.9707,111.35193
1768030285960,-1.1699219,-0.083984375,-0.28515625,7.2631836,21.118164,-15.014648,0.0,0.0,0.0,-172.38647,74.9707,111.35193
1768030285972,-1.1699219,-0.083984375,-0.28515625,7.2631836,21.118164,-15.014648,0.0,0.0,0.0,-169.04663,72.63611,114.38965
1768030286060,-0.80810547,-0.095703125,-0.20458984,-11.352539,1.2207031,-12.6953125,0.0,0.0,0.0,-169.04663,72.63611,114.38965
1768030286071,-0.80810547,-0.095703125,-0.20458984,-11.352539,1.2207031,-12.6953125,0.0,0.0,0.0,-166.75049,71.33972,117.59766
1768030286159,-1.0634766,0.014160156,-0.21484375,-18.005371,-11.71875,-6.3476562,0.0,0.0,0.0,-166.75049,71.33972,117.59766
1768030286171,-1.0634766,0.014160156,-0.21484375,-18.005371,-11.71875,-6.3476562,0.0,0.0,0.0,-165.09155,71.63086,120.86609
1768030286259,-0.9453125,-0.020507812,-0.18310547,-16.479492,-20.263672,-2.8686523,0.0,0.0,0.0,-165.09155,71.63086,120.86609
1768030286271,-0.9453125,-0.020507812,-0.18310547,-16.479492,-20.263672,-2.8686523,0.0,0.0,0.0,-163.31726,73.43811,124.260864
1768030286359,-0.95458984,0.06201172,-0.21826172,-24.719238,-13.122559,10.192871,0.0,0.0,0.0,-163.31726,73.43811,124.260864
1768030286370,-0.95458984,0.06201172,-0.21826172,-24.719238,-13.122559,10.192871,0.0,0.0,0.0,-166.0199,75.41016,124.04114
1768030286459,-1.0410156,-0.0068359375,-0.22705078,-11.413574,-0.91552734,4.699707,0.0,0.0,0.0,-166.0199,75.41016,124.04114
1768030286470,-1.0410156,-0.0068359375,-0.22705078,-11.413574,-0.91552734,4.699707,0.0,0.0,0.0,-171.13953,76.190186,120.6189
1768030286558,-0.9477539,0.0073242188,-0.22363281,-1.7089844,-8.178711,1.7700195,0.0,0.0,0.0,-171.13953,76.190186,120.6189
1768030286570,-0.9477539,0.0073242188,-0.22363281,-1.7089844,-8.178711,1.7700195,0.0,0.0,0.0,-173.0841,76.624146,119.399414
1768030286658,-0.9819336,-0.013671875,-0.26367188,2.2583008,-7.873535,1.6479492,0.0,0.0,0.0,-173.0841,76.624146,119.399414
1768030286670,-0.9819336,-0.013671875,-0.26367188,2.2583008,-7.873535,1.6479492,0.0,0.0,0.0,-173.88611,77.547,118.410645
1768030286758,-0.9873047,-0.045410156,-0.20263672,3.6010742,-5.9814453,-1.4648438,0.0,0.0,0.0,-173.88611,77.547,118.410645
1768030286769,-0.9873047,-0.045410156,-0.20263672,3.6010742,-5.9814453,-1.4648438,0.0,0.0,0.0,-172.67212,78.05237,118.70178
1768030286858,-0.9604492,-0.06298828,-0.2763672,-4.1503906,2.5024414,-10.925293,0.0,0.0,0.0,-172.67212,78.05237,118.70178
1768030286869,-0.9604492,-0.06298828,-0.2763672,-4.1503906,2.5024414,-10.925293,0.0,0.0,0.0,-168.52478,78.013916,122.81616
1768030286957,-0.9482422,-0.056640625,-0.22070312,-20.751953,2.1972656,-6.591797,0.0,0.0,0.0,-168.52478,78.013916,122.81616
1768030286969,-0.9482422,-0.056640625,-0.22070312,-20.751953,2.1972656,-6.591797,0.0,0.0,0.0,-166.2616,77.00867,126.326294
1768030287057,-1.0024414,0.022949219,-0.28808594,-27.404785,-4.272461,-2.0751953,0.0,0.0,0.0,-166.2616,77.00867,126.326294
1768030287069,-1.0024414,0.022949219,-0.28808594,-27.404785,-4.272461,-2.0751953,0.0,0.0,0.0,-166.45386,76.728516,128.54553
1768030287157,-0.9580078,-0.053222656,-0.27294922,-28.930664,-6.225586,0.18310547,0.0,0.0,0.0,-166.45386,76.728516,128.54553
1768030287168,-0.9580078,-0.053222656,-0.27294922,-28.930664,-6.225586,0.18310547,0.0,0.0,0.0,-168.37097,77.01416,128.6554
1768030287257,-0.92822266,-0.06201172,-0.36865234,-28.930664,1.2207031,-1.4648438,0.0,0.0,0.0,-168.37097,77.01416,128.6554
1768030287268,-0.92822266,-0.06201172,-0.36865234,-28.930664,1.2207031,-1.4648438,0.0,0.0,0.0,-171.17798,77.371216,128.38074
1768030287356,-0.98291016,-0.030273438,-0.3486328,-17.456055,12.756348,-5.3100586,0.0,0.0,0.0,-171.17798,77.371216,128.38074
1768030287368,-0.98291016,-0.030273438,-0.3486328,-17.456055,12.756348,-5.3100586,0.0,0.0,0.0,-171.82617,75.99243,129.34753
1768030287456,-1.0649414,-0.044921875,-0.15722656,22.094727,24.414062,-6.0424805,0.0,0.0,0.0,-171.82617,75.99243,129.34753
1768030287467,-1.0649414,-0.044921875,-0.15722656,22.094727,24.414062,-6.0424805,0.0,0.0,0.0,-170.37048,73.26782,130.12207
1768030287556,-0.94677734,-0.029296875,-0.20507812,-5.004883,-1.7700195,7.019043,0.0,0.0,0.0,-170.37048,73.26782,130.12207
1768030287567,-0.94677734,-0.029296875,-0.20507812,-5.004883,-1.7700195,7.019043,0.0,0.0,0.0,-170.07935,73.26782,130.17151
1768030287655,-0.9951172,0.041015625,-0.04248047,12.329102,-22.277832,8.605957,0.0,0.0,0.0,-170.07935,73.26782,130.17151
1768030287667,-0.9951172,0.041015625,-0.04248047,12.329102,-22.277832,8.605957,0.0,0.0,0.0,-169.44763,74.86633,129.2926
1768030287755,-1.0092773,0.03955078,-0.23730469,-13.793945,-1.5869141,11.657715,0.0,0.0,0.0,-169.44763,74.86633,129.2926
1768030287767,-1.0092773,0.03955078,-0.23730469,-13.793945,-1.5869141,11.657715,0.0,0.0,0.0,-174.94629,76.865845,124.7113
1768030287855,-0.9633789,-0.034179688,-0.15673828,31.12793,-9.70459,8.544922,0.0,0.0,0.0,-174.94629,76.865845,124.7113
1768030287866,-0.9633789,-0.034179688,-0.15673828,31.12793,-9.70459,8.544922,0.0,0.0,0.0,-177.45117,77.25586,120.25635
1768030287955,-0.96533203,-0.033691406,-0.17089844,-2.6855469,2.0141602,1.8920898,0.0,0.0,0.0,-177.45117,77.25586,120.25635
1768030287966,-0.96533203,-0.033691406,-0.17089844,-2.6855469,2.0141602,1.8920898,0.0,0.0,0.0,-178.13232,77.700806,118.38867
1768030288054,-0.97021484,-0.013671875,-0.31103516,5.493164,-4.760742,8.483887,0.0,0.0,0.0,-178.13232,77.700806,118.38867
1768030288066,-0.97021484,-0.013671875,-0.31103516,5.493164,-4.760742,8.483887,0.0,0.0,0.0,177.7478,78.23364,114.697266
1768030288154,-0.94873047,-9.765625E-4,-0.15136719,9.033203,-2.8686523,2.4414062,0.0,0.0,0.0,177.7478,78.23364,114.697266
1768030288166,-0.94873047,-9.765625E-4,-0.15136719,9.033203,-2.8686523,2.4414062,0.0,0.0,0.0,177.52808,78.10181,113.12073
1768030288254,-0.99072266,-0.03515625,-0.2397461,15.625,5.859375,1.2207031,0.0,0.0,0.0,177.52808,78.10181,113.12073
1768030288265,-0.99072266,-0.03515625,-0.2397461,15.625,5.859375,1.2207031,0.0,0.0,0.0,176.58875,77.909546,111.62659
1768030288353,-0.99316406,-0.023925781,-0.2109375,-16.723633,5.79834,10.498047,0.0,0.0,0.0,176.58875,77.909546,111.62659
1768030288365,-0.99316406,-0.023925781,-0.2109375,-16.723633,5.79834,10.498047,0.0,0.0,0.0,174.5343,77.82715,109.06128
1768030288453,-0.9892578,0.025878906,-0.2734375,-0.8544922,-11.474609,-0.6713867,0.0,0.0,0.0,174.5343,77.82715,109.06128
1768030288465,-0.9892578,0.025878906,-0.2734375,-0.8544922,-11.474609,-0.6713867,0.0,0.0,0.0,171.95801,78.29956,107.352905
1768030288553,-1.0180664,-0.018066406,-0.29101562,19.104004,1.5258789,-2.6855469,0.0,0.0,0.0,171.95801,78.29956,107.352905
1768030288564,-1.0180664,-0.018066406,-0.29101562,19.104004,1.5258789,-2.6855469,0.0,0.0,0.0,173.34778,78.35449,108.18237
1768030288653,-1.1049805,-0.0068359375,-0.21679688,11.535645,9.82666,-12.756348,0.0,0.0,0.0,173.34778,78.35449,108.18237
1768030288664,-1.1049805,-0.0068359375,-0.21679688,11.535645,9.82666,-12.756348,0.0,0.0,0.0,179.15955,77.59094,112.79114
1768030288752,-0.8803711,0.0063476562,-0.1796875,7.8125,-0.9765625,-12.512207,0.0,0.0,0.0,179.15955,77.59094,112.79114
1768030288764,-0.8803711,0.0063476562,-0.1796875,7.8125,-0.9765625,-12.512207,0.0,0.0,0.0,-175.08362,77.36572,118.26782
1768030288852,-1.0341797,0.0014648438,-0.080566406,4.9438477,-1.5869141,-9.521484,0.0,0.0,0.0,-175.08362,77.36572,118.26782
1768030288863,-1.0341797,0.0014648438,-0.080566406,4.9438477,-1.5869141,-9.521484,0.0,0.0,0.0,-170.30457,77.645874,122.50305
1768030288952,-0.9433594,0.0234375,-0.15332031,8.117676,7.9956055,-5.065918,0.0,0.0,0.0,-170.30457,77.645874,122.50305
1768030288963,-0.9433594,0.0234375,-0.15332031,8.117676,7.9956055,-5.065918,0.0,0.0,0.0,-165.50903,76.66809,126.89758
1768030289051,-0.953125,-0.00390625,-0.12695312,8.544922,-6.652832,0.61035156,0.0,0.0,0.0,-165.50903,76.66809,126.89758
1768030289063,-0.953125,-0.00390625,-0.12695312,8.544922,-6.652832,0.61035156,0.0,0.0,0.0,-164.96521,77.27234,126.54602
1768030289151,-0.9873047,0.001953125,-0.18603516,5.92041,-6.164551,6.4086914,0.0,0.0,0.0,-164.96521,77.27234,126.54602
1768030289163,-0.9873047,0.001953125,-0.18603516,5.92041,-6.164551,6.4086914,0.0,0.0,0.0,-166.61865,78.46985,124.59595
1768030289251,-1.0351562,-0.049804688,-0.19580078,-1.2817383,-2.6855469,0.061035156,0.0,0.0,0.0,-166.61865,78.46985,124.59595
1768030289262,-1.0351562,-0.049804688,-0.19580078,-1.2817383,-2.6855469,0.061035156,0.0,0.0,0.0,-168.07434,78.87085,122.77771
1768030289351,-0.97216797,-0.0390625,-0.1977539,-7.385254,-1.3427734,-4.272461,0.0,0.0,0.0,-168.07434,78.87085,122.77771
1768030289363,-0.97216797,-0.0390625,-0.1977539,-7.385254,-1.3427734,-4.272461,0.0,0.0,0.0,-167.2284,79.02466,124.20044
1768030289450,-0.95947266,-0.03466797,-0.21435547,-14.953613,-8.361816,-1.2207031,0.0,0.0,0.0,-167.2284,79.02466,124.20044
1768030289462,-0.95947266,-0.03466797,-0.21435547,-14.953613,-8.361816,-1.2207031,0.0,0.0,0.0,-167.01965,79.56848,125.68909
1768030289550,-0.97021484,-0.045410156,-0.21289062,-13.61084,-5.859375,1.8310547,0.0,0.0,0.0,-167.01965,79.56848,125.68909
1768030289562,-0.97021484,-0.045410156,-0.21289062,-13.61084,-5.859375,1.8310547,0.0,0.0,0.0,-167.91504,80.233154,126.02417
1768030289650,-0.94384766,-0.0024414062,-0.18115234,-9.70459,-4.760742,5.6152344,0.0,0.0,0.0,-167.91504,80.233154,126.02417
1768030289661,-0.94384766,-0.0024414062,-0.18115234,-9.70459,-4.760742,5.6152344,0.0,0.0,0.0,-169.38171,80.45288,125.34851
1768030289750,-1.059082,0.0107421875,-0.30126953,9.765625,8.911133,-2.8076172,0.0,0.0,0.0,-169.38171,80.45288,125.34851
1768030289761,-1.059082,0.0107421875,-0.30126953,9.765625,8.911133,-2.8076172,0.0,0.0,0.0,-170.96375,80.26062,124.107056
1768030289849,-1.0302734,-0.1171875,-0.3251953,-2.0751953,1.5258789,-1.3427734,0.0,0.0,0.0,-170.96375,80.26062,124.107056
1768030289861,-1.0302734,-0.1171875,-0.3251953,-2.0751953,1.5258789,-1.3427734,0.0,0.0,0.0,-172.49634,79.34326,122.492065
1768030289949,-1.1005859,-0.027832031,-0.28027344,1.5869141,16.845703,-2.5634766,0.0,0.0,0.0,-172.49634,79.34326,122.492065
1768030289961,-1.1005859,-0.027832031,-0.28027344,1.5869141,16.845703,-2.5634766,0.0,0.0,0.0,-171.49658,78.25012,123.480835
1768030290049,-0.9560547,-0.0024414062,-0.18701172,21.911621,14.953613,4.0893555,0.0,0.0,0.0,-171.49658,78.25012,123.480835
1768030290060,-0.9560547,-0.0024414062,-0.18701172,21.911621,14.953613,4.0893555,0.0,0.0,0.0,-171.97998,76.34949,121.71753
1768030290148,-0.9086914,0.023925781,-0.13232422,20.019531,14.892578,0.61035156,0.0,0.0,0.0,-171.97998,76.34949,121.71753
1768030290160,-0.9086914,0.023925781,-0.13232422,20.019531,14.892578,0.61035156,0.0,0.0,0.0,-172.34253,74.75647,119.7345
1768030290248,-1.0292969,-0.040039062,-0.13964844,-0.12207031,0.91552734,9.765625,0.0,0.0,0.0,-172.34253,74.75647,119.7345
1768030290260,-1.0292969,-0.040039062,-0.13964844,-0.12207031,0.91552734,9.765625,0.0,0.0,0.0,-175.36926,74.608154,115.48279
1768030290348,-0.9746094,0.03466797,-0.19091797,2.0141602,1.7089844,9.216309,0.0,0.0,0.0,-175.36926,74.608154,115.48279
1768030290360,-0.9746094,0.03466797,-0.19091797,2.0141602,1.7089844,9.216309,0.0,0.0,0.0,-177.78076,74.712524,112.93396
1768030290448,-0.9667969,-0.0043945312,-0.22705078,9.765625,-1.4038086,6.958008,0.0,0.0,0.0,-177.78076,74.712524,112.93396
1768030290459,-0.9667969,-0.0043945312,-0.22705078,9.765625,-1.4038086,6.958008,0.0,0.0,0.0,179.79675,74.87732,109.70398
1768030290547,-0.9555664,0.0063476562,-0.27148438,15.136719,2.6245117,4.0283203,0.0,0.0,0.0,179.79675,74.87732,109.70398
1768030290559,-0.9555664,0.0063476562,-0.27148438,15.136719,2.6245117,4.0283203,0.0,0.0,0.0,179.1211,74.871826,107.78137
1768030290647,-0.93896484,0.022460938,-0.2578125,15.930176,1.0375977,5.2490234,0.0,0.0,0.0,179.1211,74.871826,107.78137
1768030290659,-0.93896484,0.022460938,-0.2578125,15.930176,1.0375977,5.2490234,0.0,0.0,0.0,178.91235,74.50928,106.16638
1768030290747,-0.95996094,-0.0024414062,-0.24414062,17.944336,3.479004,1.7700195,0.0,0.0,0.0,178.91235,74.50928,106.16638
1768030290758,-0.95996094,-0.0024414062,-0.24414062,17.944336,3.479004,1.7700195,0.0,0.0,0.0,178.81897,74.13025,104.83154
1768030290847,-0.97509766,-0.033203125,-0.27734375,16.479492,-1.2817383,-0.30517578,0.0,0.0,0.0,178.81897,74.13025,104.83154
1768030290858,-0.97509766,-0.033203125,-0.27734375,16.479492,-1.2817383,-0.30517578,0.0,0.0,0.0,179.34082,74.10278,104.260254
1768030290947,-0.9814453,4.8828125E-4,-0.30517578,12.878418,-7.019043,1.953125,0.0,0.0,0.0,179.34082,74.10278,104.260254
1768030290958,-0.9814453,4.8828125E-4,-0.30517578,12.878418,-7.019043,1.953125,0.0,0.0,0.0,-179.48914,74.679565,104.331665
1768030291046,-0.9848633,-0.036621094,-0.3017578,14.892578,-5.004883,4.3945312,0.0,0.0,0.0,-179.48914,74.679565,104.331665
1768030291057,-0.9848633,-0.036621094,-0.3017578,14.892578,-5.004883,4.3945312,0.0,0.0,0.0,-178.80798,75.02014,103.45825
1768030291146,-0.9897461,-0.07861328,-0.31933594,11.047363,3.0517578,-0.5493164,0.0,0.0,0.0,-178.80798,75.02014,103.45825
1768030291157,-0.9897461,-0.07861328,-0.31933594,11.047363,3.0517578,-0.5493164,0.0,0.0,0.0,-177.70386,74.904785,103.18909
1768030291245,-1.0371094,-0.076660156,-0.21875,-2.0141602,0.48828125,-11.108398,0.0,0.0,0.0,-177.70386,74.904785,103.18909
1768030291257,-1.0371094,-0.076660156,-0.21875,-2.0141602,0.48828125,-11.108398,0.0,0.0,0.0,-173.61694,74.44885,106.53992
1768030291345,-0.91845703,-0.033691406,-0.2602539,-26.123047,-0.4272461,-8.7890625,0.0,0.0,0.0,-173.61694,74.44885,106.53992
1768030291357,-0.91845703,-0.033691406,-0.2602539,-26.123047,-0.4272461,-8.7890625,0.0,0.0,0.0,-171.90308,74.470825,110.56641
1768030291445,-0.93603516,0.025390625,-0.1796875,-20.385742,7.2021484,-8.911133,0.0,0.0,0.0,-171.90308,74.470825,110.56641
1768030291456,-0.93603516,0.025390625,-0.1796875,-20.385742,7.2021484,-8.911133,0.0,0.0,0.0,-170.95276,73.62488,113.80737
1768030291545,-1.0224609,0.11230469,-0.20898438,-4.333496,-10.131836,-1.7089844,0.0,0.0,0.0,-170.95276,73.62488,113.80737
1768030291556,-1.0224609,0.11230469,-0.20898438,-4.333496,-10.131836,-1.7089844,0.0,0.0,0.0,-169.53003,74.7345,116.0376
1768030291644,-0.9399414,-0.08642578,-0.23242188,-17.456055,-7.873535,-10.559082,0.0,0.0,0.0,-169.53003,74.7345,116.0376
1768030291656,-0.9399414,-0.08642578,-0.23242188,-17.456055,-7.873535,-10.559082,0.0,0.0,0.0,-167.41516,74.91028,119.03137
1768030291744,-0.98095703,0.0063476562,-0.1743164,-20.629883,-8.300781,-0.12207031,0.0,0.0,0.0,-167.41516,74.91028,119.03137
1768030291756,-0.98095703,0.0063476562,-0.1743164,-20.629883,-8.300781,-0.12207031,0.0,0.0,0.0,-167.58545,76.118774,120.40466
1768030291844,-0.96240234,-0.024902344,-0.26416016,-20.446777,-11.59668,-2.1362305,0.0,0.0,0.0,-167.58545,76.118774,120.40466
1768030291855,-0.96240234,-0.024902344,-0.26416016,-20.446777,-11.59668,-2.1362305,0.0,0.0,0.0,-169.20593,76.99768,121.2561
1768030291944,-0.953125,-0.03466797,-0.24658203,-20.812988,-3.6010742,-3.3569336,0.0,0.0,0.0,-169.20593,76.99768,121.2561
1768030291955,-0.953125,-0.03466797,-0.24658203,-20.812988,-3.6010742,-3.3569336,0.0,0.0,0.0,-169.90906,77.492065,122.64038
1768030292043,-0.95654297,-0.011230469,-0.21386719,-23.19336,-11.71875,0.91552734,0.0,0.0,0.0,-169.90906,77.492065,122.64038
1768030292055,-0.95654297,-0.011230469,-0.21386719,-23.19336,-11.71875,0.91552734,0.0,0.0,0.0,-171.35376,78.17871,123.184204
1768030292143,-0.9765625,0.0068359375,-0.2290039,-12.084961,-7.019043,1.8920898,0.0,0.0,0.0,-171.35376,78.17871,123.184204
1768030292154,-0.9765625,0.0068359375,-0.2290039,-12.084961,-7.019043,1.8920898,0.0,0.0,0.0,-173.90808,78.78296,122.4646
1768030292243,-1.0112305,-0.015136719,-0.24121094,2.5634766,-1.8310547,0.91552734,0.0,0.0,0.0,-173.90808,78.78296,122.4646
1768030292254,-1.0112305,-0.015136719,-0.24121094,2.5634766,-1.8310547,0.91552734,0.0,0.0,0.0,-175.28137,78.92578,121.49231
1768030292342,-0.97265625,-0.0053710938,-0.10595703,-3.4179688,-7.8125,1.5869141,0.0,0.0,0.0,-175.28137,78.92578,121.49231
1768030292354,-0.97265625,-0.0053710938,-0.10595703,-3.4179688,-7.8125,1.5869141,0.0,0.0,0.0,-174.54529,78.89282,120.91553
1768030292442,-0.9765625,-0.05029297,-0.2685547,2.0751953,-14.6484375,2.8686523,0.0,0.0,0.0,-174.54529,78.89282,120.91553
1768030292454,-0.9765625,-0.05029297,-0.2685547,2.0751953,-14.6484375,2.8686523,0.0,0.0,0.0,-177.5061,80.70557,118.50403
1768030292542,-1.0063477,-0.01171875,-0.26953125,-4.699707,-1.0375977,2.1362305,0.0,0.0,0.0,-177.5061,80.70557,118.50403
1768030292554,-1.0063477,-0.01171875,-0.26953125,-4.699707,-1.0375977,2.1362305,0.0,0.0,0.0,-177.88513,81.12305,117.94922
1768030292642,-1.1108398,-0.03955078,-0.2319336,14.404297,10.681152,-1.7089844,0.0,0.0,0.0,-177.88513,81.12305,117.94922
1768030292653,-1.1108398,-0.03955078,-0.2319336,14.404297,10.681152,-1.7089844,0.0,0.0,0.0,-177.01172,80.13428,117.9657
1768030292741,-0.8256836,0.0014648438,-0.07421875,14.892578,8.056641,-8.239746,0.0,0.0,0.0,-177.01172,80.13428,117.9657
1768030292753,-0.8256836,0.0014648438,-0.07421875,14.892578,8.056641,-8.239746,0.0,0.0,0.0,-171.99646,79.2334,120.98694
1768030292841,-1.015625,0.06347656,-0.067871094,-3.1738281,9.94873,1.4648438,0.0,0.0,0.0,-171.99646,79.2334,120.98694
1768030292854,-1.015625,0.06347656,-0.067871094,-3.1738281,9.94873,1.4648438,0.0,0.0,0.0,-173.51257,78.47534,120.41565
1768030292941,-1.0263672,4.8828125E-4,-0.17041016,-41.56494,18.310547,4.4555664,0.0,0.0,0.0,-173.51257,78.47534,120.41565
1768030292953,-1.0263672,4.8828125E-4,-0.17041016,-41.56494,18.310547,4.4555664,0.0,0.0,0.0,-176.85791,78.54126,118.26782
1768030293040,-0.9428711,-0.018554688,-0.14746094,6.958008,5.6762695,0.5493164,0.0,0.0,0.0,-176.85791,78.54126,118.26782
1768030293052,-0.9428711,-0.018554688,-0.14746094,6.958008,5.6762695,0.5493164,0.0,0.0,0.0,-179.21448,77.55798,116.466064
1768030293140,-0.94384766,0.037597656,-0.26953125,11.108398,15.258789,-1.4038086,0.0,0.0,0.0,-179.21448,77.55798,116.466064
1768030293152,-0.94384766,0.037597656,-0.26953125,11.108398,15.258789,-1.4038086,0.0,0.0,0.0,-177.70386,76.14075,117.74048
1768030293240,-0.9658203,0.009765625,-0.2368164,13.793945,13.85498,-3.8452148,0.0,0.0,0.0,-177.70386,76.14075,117.74048
1768030293251,-0.9658203,0.009765625,-0.2368164,13.793945,13.85498,-3.8452148,0.0,0.0,0.0,-176.59973,75.17395,117.67456
1768030293340,-0.94970703,-0.0078125,-0.30908203,11.779785,18.310547,-2.1972656,0.0,0.0,0.0,-176.59973,75.17395,117.67456
1768030293351,-0.94970703,-0.0078125,-0.30908203,11.779785,18.310547,-2.1972656,0.0,0.0,0.0,-175.42969,73.78418,117.888794
1768030293439,-0.90966797,-0.110839844,-0.25048828,3.8452148,4.3945312,1.5869141,0.0,0.0,0.0,-175.42969,73.78418,117.888794
1768030293451,-0.90966797,-0.110839844,-0.25048828,3.8452148,4.3945312,1.5869141,0.0,0.0,0.0,-174.1388,72.4823,117.61963
1768030293539,-0.9604492,-0.083496094,-0.40429688,4.760742,9.277344,-1.7700195,0.0,0.0,0.0,-174.1388,72.4823,117.61963
1768030293551,-0.9604492,-0.083496094,-0.40429688,4.760742,9.277344,-1.7700195,0.0,0.0,0.0,-174.0564,72.03735,117.72949
1768030293639,-0.9243164,-0.11621094,-0.42626953,6.3476562,6.0424805,-3.90625,0.0,0.0,0.0,-174.0564,72.03735,117.72949
1768030293650,-0.9243164,-0.11621094,-0.42626953,6.3476562,6.0424805,-3.90625,0.0,0.0,0.0,-172.65564,71.31775,118.465576
1768030293738,-1.090332,-0.123046875,-0.45898438,7.507324,11.779785,-8.972168,0.0,0.0,0.0,-172.65564,71.31775,118.465576
1768030293750,-1.090332,-0.123046875,-0.45898438,7.507324,11.779785,-8.972168,0.0,0.0,0.0,-169.22241,70.08179,120.55298
1768030293838,-0.7705078,-0.15283203,-0.15966797,-17.63916,8.666992,-11.59668,0.0,0.0,0.0,-169.22241,70.08179,120.55298
1768030293858,-0.7705078,-0.15283203,-0.15966797,-17.63916,8.666992,-11.59668,0.0,0.0,0.0,-165.72327,68.03833,123.30505
1768030293938,-0.8989258,-0.032714844,-0.33154297,2.5024414,15.319824,-21.78955,0.0,0.0,0.0,-165.72327,68.03833,123.30505
1768030293949,-0.8989258,-0.032714844,-0.33154297,2.5024414,15.319824,-21.78955,0.0,0.0,0.0,-163.90503,66.75842,127.08984
1768030294038,-0.98046875,-0.036621094,-0.328125,-6.8359375,3.7841797,-9.094238,0.0,0.0,0.0,-163.90503,66.75842,127.08984
1768030294049,-0.98046875,-0.036621094,-0.328125,-6.8359375,3.7841797,-9.094238,0.0,0.0,0.0,-162.3175,66.06079,129.80347
1768030294137,-0.9736328,-0.08300781,-0.30126953,-25.6958,-16.296387,-9.82666,0.0,0.0,0.0,-162.3175,66.06079,129.80347
1768030294149,-0.9736328,-0.08300781,-0.30126953,-25.6958,-16.296387,-9.82666,0.0,0.0,0.0,-161.2793,66.68152,132.182
1768030294237,-0.9042969,-0.083496094,-0.23876953,-27.46582,-17.028809,0.7324219,0.0,0.0,0.0,-161.2793,66.68152,132.182
1768030294249,-0.9042969,-0.083496094,-0.23876953,-27.46582,-17.028809,0.7324219,0.0,0.0,0.0,-160.6311,68.516235,134.9231
1768030294337,-0.9316406,-0.024414062,-0.40478516,-17.27295,-11.84082,0.79345703,0.0,0.0,0.0,-160.6311,68.516235,134.9231
1768030294348,-0.9316406,-0.024414062,-0.40478516,-17.27295,-11.84082,0.79345703,0.0,0.0,0.0,-162.78442,69.955444,135.99976
1768030294437,-0.92626953,-0.08935547,-0.36376953,-0.30517578,-6.4086914,3.7231445,0.0,0.0,0.0,-162.78442,69.955444,135.99976
1768030294448,-0.92626953,-0.08935547,-0.36376953,-0.30517578,-6.4086914,3.7231445,0.0,0.0,0.0,-163.94897,70.75745,135.49988
1768030294536,-0.94189453,-0.11035156,-0.30908203,12.756348,-1.7089844,3.540039,0.0,0.0,0.0,-163.94897,70.75745,135.49988
1768030294548,-0.94189453,-0.11035156,-0.30908203,12.756348,-1.7089844,3.540039,0.0,0.0,0.0,-164.43237,71.20239,134.20898
1768030294636,-0.97216797,-0.099609375,-0.3203125,4.760742,1.0375977,-0.48828125,0.0,0.0,0.0,-164.43237,71.20239,134.20898
1768030294648,-0.97216797,-0.099609375,-0.3203125,4.760742,1.0375977,-0.48828125,0.0,0.0,0.0,-164.15222,71.18042,133.56628
1768030294736,-0.9526367,-0.09716797,-0.28466797,-6.4697266,-6.0424805,3.540039,0.0,0.0,0.0,-164.15222,71.18042,133.56628
1768030294747,-0.9526367,-0.09716797,-0.28466797,-6.4697266,-6.0424805,3.540039,0.0,0.0,0.0,-163.93799,71.45508,133.396
1768030294835,-0.9067383,-0.053710938,-0.34716797,-7.507324,-10.681152,5.6152344,0.0,0.0,0.0,-163.93799,71.45508,133.396
1768030294847,-0.9067383,-0.053710938,-0.34716797,-7.507324,-10.681152,5.6152344,0.0,0.0,0.0,-165.02014,72.02637,133.11584
1768030294935,-0.9042969,-0.034179688,-0.36132812,0.79345703,4.8828125,3.6621094,0.0,0.0,0.0,-165.02014,72.02637,133.11584
1768030294947,-0.9042969,-0.034179688,-0.36132812,0.79345703,4.8828125,3.6621094,0.0,0.0,0.0,-166.77795,72.180176,131.59973
1768030295035,-0.94628906,-0.07373047,-0.4272461,-0.24414062,4.638672,2.4414062,0.0,0.0,0.0,-166.77795,72.180176,131.59973
1768030295046,-0.94628906,-0.07373047,-0.4272461,-0.24414062,4.638672,2.4414062,0.0,0.0,0.0,-168.8269,71.78467,129.57825
1768030295135,-1.015625,-0.14746094,-0.41601562,-2.8686523,8.544922,-3.112793,0.0,0.0,0.0,-168.8269,71.78467,129.57825
1768030295146,-1.015625,-0.14746094,-0.41601562,-2.8686523,8.544922,-3.112793,0.0,0.0,0.0,-169.59045,70.823364,128.6554
1768030295234,-0.9194336,-0.076660156,-0.44140625,0.24414062,11.230469,-2.4414062,0.0,0.0,0.0,-169.59045,70.823364,128.6554
1768030295246,-0.9194336,-0.076660156,-0.44140625,0.24414062,11.230469,-2.4414062,0.0,0.0,0.0,-169.05212,69.63684,129.39697
1768030295334,-0.9511719,-0.06347656,-0.27734375,-4.760742,18.127441,-4.5166016,0.0,0.0,0.0,-169.05212,69.63684,129.39697
1768030295345,-0.9511719,-0.06347656,-0.27734375,-4.760742,18.127441,-4.5166016,0.0,0.0,0.0,-169.27185,67.91748,129.32007
1768030295434,-0.9975586,-0.0625,-0.25634766,-26.97754,-16.174316,8.544922,0.0,0.0,0.0,-169.27185,67.91748,129.32007
1768030295445,-0.9975586,-0.0625,-0.25634766,-26.97754,-16.174316,8.544922,0.0,0.0,0.0,-172.1228,69.27429,127.924805
1768030295533,-0.98535156,0.0390625,-0.24511719,-7.6293945,-13.122559,5.7373047,0.0,0.0,0.0,-172.1228,69.27429,127.924805
1768030295545,-0.98535156,0.0390625,-0.24511719,-7.6293945,-13.122559,5.7373047,0.0,0.0,0.0,-173.32031,70.026855,127.71057
1768030295633,-0.96435547,-0.009277344,-0.2915039,0.36621094,-8.361816,3.7841797,0.0,0.0,0.0,-173.32031,70.026855,127.71057
1768030295645,-0.96435547,-0.009277344,-0.2915039,0.36621094,-8.361816,3.7841797,0.0,0.0,0.0,-174.15527,71.37268,126.73828
1768030295733,-0.97021484,-0.026367188,-0.31152344,2.380371,-1.159668,2.6245117,0.0,0.0,0.0,-174.15527,71.37268,126.73828
1768030295744,-0.97021484,-0.026367188,-0.31152344,2.380371,-1.159668,2.6245117,0.0,0.0,0.0,-174.32007,71.93848,125.930786
1768030295833,-0.890625,-0.026855469,-0.37451172,0.61035156,-2.6855469,14.6484375,0.0,0.0,0.0,-174.32007,71.93848,125.930786
1768030295844,-0.890625,-0.026855469,-0.37451172,0.61035156,-2.6855469,14.6484375,0.0,0.0,0.0,-177.7478,72.42737,122.16797
1768030295932,-0.9550781,0.0,-0.4428711,3.90625,9.399414,15.808105,0.0,0.0,0.0,-177.7478,72.42737,122.16797
1768030295944,-0.9550781,0.0,-0.4428711,3.90625,9.399414,15.808105,0.0,0.0,0.0,177.96204,71.81763,117.16919
1768030296032,-0.9667969,-0.040527344,-0.31933594,4.699707,-1.0375977,11.291504,0.0,0.0,0.0,177.96204,71.81763,117.16919
1768030296043,-0.9667969,-0.040527344,-0.31933594,4.699707,-1.0375977,11.291504,0.0,0.0,0.0,176.02844,71.15845,113.4668
1768030296132,-1.0244141,-0.03515625,-0.43554688,8.544922,5.1879883,5.004883,0.0,0.0,0.0,176.02844,71.15845,113.4668
1768030296144,-1.0244141,-0.03515625,-0.43554688,8.544922,5.1879883,5.004883,0.0,0.0,0.0,175.41321,70.90576,111.604614
1768030296231,-0.89501953,-0.013671875,-0.48535156,25.939941,8.178711,2.0141602,0.0,0.0,0.0,175.41321,70.90576,111.604614
1768030296243,-0.89501953,-0.013671875,-0.48535156,25.939941,8.178711,2.0141602,0.0,0.0,0.0,176.88538,70.02136,110.857544
1768030296331,-1.1083984,0.041992188,-0.33984375,63.11035,24.841309,-2.6245117,0.0,0.0,0.0,176.88538,70.02136,110.857544
1768030296343,-1.1083984,0.041992188,-0.33984375,63.11035,24.841309,-2.6245117,0.0,0.0,0.0,-178.7091,67.61536,110.95642
1768030296431,-0.8696289,0.016601562,-0.37890625,9.460449,-8.850098,-12.634277,0.0,0.0,0.0,-178.7091,67.61536,110.95642
1768030296443,-0.8696289,0.016601562,-0.37890625,9.460449,-8.850098,-12.634277,0.0,0.0,0.0,-173.86414,67.08801,112.77466
1768030296531,-0.9663086,0.064453125,-0.16455078,24.658203,2.2583008,-4.272461,0.0,0.0,0.0,-173.86414,67.08801,112.77466
1768030296542,-0.9663086,0.064453125,-0.16455078,24.658203,2.2583008,-4.272461,0.0,0.0,0.0,-169.66736,67.10449,114.41162
1768030296631,-0.89501953,0.03466797,-0.34423828,12.329102,-12.329102,-5.7373047,0.0,0.0,0.0,-169.66736,67.10449,114.41162
1768030296642,-0.89501953,0.03466797,-0.34423828,12.329102,-12.329102,-5.7373047,0.0,0.0,0.0,-168.38745,68.098755,115.823364
1768030296730,-0.93310547,-0.063964844,-0.27246094,-2.0141602,-10.314941,-5.432129,0.0,0.0,0.0,-168.38745,68.098755,115.823364
1768030296742,-0.93310547,-0.063964844,-0.27246094,-2.0141602,-10.314941,-5.432129,0.0,0.0,0.0,-166.4978,69.40613,117.196655
1768030296832,-0.94628906,-0.043945312,-0.34033203,-3.1738281,-4.333496,-6.8969727,0.0,0.0,0.0,-166.4978,69.40613,117.196655
1768030296841,-0.94628906,-0.043945312,-0.34033203,-3.1738281,-4.333496,-6.8969727,0.0,0.0,0.0,-165.3717,70.14221,119.31152
1768030296930,-0.9355469,-0.0703125,-0.35595703,-5.004883,-9.460449,-2.8076172,0.0,0.0,0.0,-165.3717,70.14221,119.31152
1768030296941,-0.9355469,-0.0703125,-0.35595703,-5.004883,-9.460449,-2.8076172,0.0,0.0,0.0,-164.61914,70.69702,120.89905
1768030297029,-0.93310547,-0.057128906,-0.2763672,-10.192871,-6.591797,-2.319336,0.0,0.0,0.0,-164.61914,70.69702,120.89905
1768030297041,-0.93310547,-0.057128906,-0.2763672,-10.192871,-6.591797,-2.319336,0.0,0.0,0.0,-164.04785,71.04309,122.3053
1768030297129,-0.9423828,-0.067871094,-0.34570312,-10.314941,-7.751465,-0.5493164,0.0,0.0,0.0,-164.04785,71.04309,122.3053
1768030297140,-0.9423828,-0.067871094,-0.34570312,-10.314941,-7.751465,-0.5493164,0.0,0.0,0.0,-164.76746,71.80115,123.1073
1768030297229,-0.95166016,-0.076660156,-0.3623047,-12.634277,-6.7749023,-0.91552734,0.0,0.0,0.0,-164.76746,71.80115,123.1073
1768030297240,-0.95166016,-0.076660156,-0.3623047,-12.634277,-6.7749023,-0.91552734,0.0,0.0,0.0,-165.1355,72.284546,123.78296
1768030297328,-0.94384766,-0.08984375,-0.3413086,-6.225586,-6.7749023,-0.48828125,0.0,0.0,0.0,-165.1355,72.284546,123.78296
1768030297340,-0.94384766,-0.08984375,-0.3413086,-6.225586,-6.7749023,-0.48828125,0.0,0.0,0.0,-165.32227,72.58118,124.34326
1768030297428,-0.95751953,-0.07763672,-0.4111328,-3.479004,-3.4179688,0.48828125,0.0,0.0,0.0,-165.32227,72.58118,124.34326
1768030297440,-0.95751953,-0.07763672,-0.4111328,-3.479004,-3.4179688,0.48828125,0.0,0.0,0.0,-165.80017,72.93823,124.590454
1768030297528,-1.0571289,-0.10205078,-0.39501953,-1.0375977,7.080078,-4.272461,0.0,0.0,0.0,-165.80017,72.93823,124.590454
1768030297540,-1.0571289,-0.10205078,-0.39501953,-1.0375977,7.080078,-4.272461,0.0,0.0,0.0,-165.48157,72.2406,125.024414
1768030297628,-0.8676758,-0.092285156,-0.2529297,8.361816,-7.385254,6.8969727,0.0,0.0,0.0,-165.48157,72.2406,125.024414
1768030297639,-0.8676758,-0.092285156,-0.2529297,8.361816,-7.385254,6.8969727,0.0,0.0,0.0,-165.59692,71.361694,123.95325
1768030297727,-0.9057617,-0.05859375,-0.13085938,1.6479492,0.0,0.061035156,0.0,0.0,0.0,-165.59692,71.361694,123.95325
1768030297739,-0.9057617,-0.05859375,-0.13085938,1.6479492,0.0,0.061035156,0.0,0.0,0.0,-166.45935,72.18567,123.32153
1768030297827,-0.9609375,-0.044921875,-0.19873047,-33.26416,-14.709473,3.3569336,0.0,0.0,0.0,-166.45935,72.18567,123.32153
1768030297838,-0.9609375,-0.044921875,-0.19873047,-33.26416,-14.709473,3.3569336,0.0,0.0,0.0,-167.49756,73.45459,123.777466
1768030297927,-0.98779297,-0.0146484375,-0.26757812,-0.8544922,0.6713867,6.7749023,0.0,0.0,0.0,-167.49756,73.45459,123.777466
1768030297938,-0.98779297,-0.0146484375,-0.26757812,-0.8544922,0.6713867,6.7749023,0.0,0.0,0.0,-170.30457,74.23462,122.47009
1768030298027,-0.93359375,-0.076171875,-0.19384766,1.5258789,0.061035156,0.9765625,0.0,0.0,0.0,-170.30457,74.23462,122.47009
1768030298038,-0.93359375,-0.076171875,-0.19384766,1.5258789,0.061035156,0.9765625,0.0,0.0,0.0,-171.47461,74.31152,120.91553
1768030298126,-0.94433594,-0.041992188,-0.2475586,9.94873,8.239746,0.24414062,0.0,0.0,0.0,-171.47461,74.31152,120.91553
1768030298138,-0.94433594,-0.041992188,-0.2475586,9.94873,8.239746,0.24414062,0.0,0.0,0.0,-171.34827,74.06433,120.82764
1768030298226,-0.9370117,-0.061035156,-0.27539062,4.211426,5.6152344,2.6855469,0.0,0.0,0.0,-171.34827,74.06433,120.82764
1768030298237,-0.9370117,-0.061035156,-0.27539062,4.211426,5.6152344,2.6855469,0.0,0.0,0.0,-171.71082,73.47656,119.74548
1768030298326,-0.9248047,-0.061035156,-0.33642578,10.070801,7.1411133,7.019043,0.0,0.0,0.0,-171.71082,73.47656,119.74548
1768030298337,-0.9248047,-0.061035156,-0.33642578,10.070801,7.1411133,7.019043,0.0,0.0,0.0,-173.15002,73.05908,117.62512
1768030298425,-0.9458008,-0.10253906,-0.32958984,12.451172,9.58252,2.6245117,0.0,0.0,0.0,-173.15002,73.05908,117.62512
1768030298437,-0.9458008,-0.10253906,-0.32958984,12.451172,9.58252,2.6245117,0.0,0.0,0.0,-173.58398,72.27356,115.68054
1768030298525,-0.9863281,-0.10058594,-0.4404297,17.63916,6.286621,2.5024414,0.0,0.0,0.0,-173.58398,72.27356,115.68054
1768030298537,-0.9863281,-0.10058594,-0.4404297,17.63916,6.286621,2.5024414,0.0,0.0,0.0,-172.72156,71.26831,115.02136
1768030298625,-0.9692383,-0.1616211,-0.42822266,12.023926,12.634277,-10.192871,0.0,0.0,0.0,-172.72156,71.26831,115.02136
1768030298636,-0.9692383,-0.1616211,-0.42822266,12.023926,12.634277,-10.192871,0.0,0.0,0.0,-169.6399,69.851074,116.16943
1768030298724,-0.7348633,-0.068359375,-0.19238281,25.45166,10.314941,-1.8920898,0.0,0.0,0.0,-169.6399,69.851074,116.16943
1768030298736,-0.7348633,-0.068359375,-0.19238281,25.45166,10.314941,-1.8920898,0.0,0.0,0.0,-166.0968,67.24182,118.00964
1768030298824,-0.9536133,0.07080078,-0.31152344,9.94873,12.451172,-2.5024414,0.0,0.0,0.0,-166.0968,67.24182,118.00964
1768030298836,-0.9536133,0.07080078,-0.31152344,9.94873,12.451172,-2.5024414,0.0,0.0,0.0,-164.51477,67.0166,118.75122
1768030298924,-0.98583984,-0.12841797,-0.296875,-13.61084,-2.5634766,4.8828125,0.0,0.0,0.0,-164.51477,67.0166,118.75122
1768030298935,-0.98583984,-0.12841797,-0.296875,-13.61084,-2.5634766,4.8828125,0.0,0.0,0.0,-166.03088,66.90674,116.92749
1768030299024,-0.9199219,0.029296875,-0.32666016,-13.549805,-14.221191,13.61084,0.0,0.0,0.0,-166.03088,66.90674,116.92749
1768030299035,-0.9199219,0.029296875,-0.32666016,-13.549805,-14.221191,13.61084,0.0,0.0,0.0,-169.51904,68.45581,115.0708
1768030299123,-0.9213867,0.00390625,-0.31396484,-11.108398,-7.5683594,15.258789,0.0,0.0,0.0,-169.51904,68.45581,115.0708
1768030299135,-0.9213867,0.00390625,-0.31396484,-11.108398,-7.5683594,15.258789,0.0,0.0,0.0,-175.0122,69.77417,111.08276
1768030299223,-0.96972656,0.053710938,-0.390625,0.30517578,-4.333496,12.023926,0.0,0.0,0.0,-175.0122,69.77417,111.08276
1768030299235,-0.96972656,0.053710938,-0.390625,0.30517578,-4.333496,12.023926,0.0,0.0,0.0,179.86267,70.45532,106.89697
1768030299323,-0.9482422,0.030273438,-0.41064453,-3.479004,-10.070801,8.605957,0.0,0.0,0.0,179.86267,70.45532,106.89697
1768030299334,-0.9482422,0.030273438,-0.41064453,-3.479004,-10.070801,8.605957,0.0,0.0,0.0,178.06091,71.09802,104.58984
1768030299422,-0.92529297,0.05419922,-0.33544922,-2.2583008,-8.850098,15.014648,0.0,0.0,0.0,178.06091,71.09802,104.58984
1768030299434,-0.92529297,0.05419922,-0.33544922,-2.2583008,-8.850098,15.014648,0.0,0.0,0.0,175.1001,71.71326,101.1676
1768030299522,-0.9291992,0.014160156,-0.29638672,-5.9814453,0.5493164,-3.479004,0.0,0.0,0.0,175.1001,71.71326,101.1676
1768030299534,-0.9291992,0.014160156,-0.29638672,-5.9814453,0.5493164,-3.479004,0.0,0.0,0.0,173.38074,71.56494,99.77234
1768030299622,-0.91845703,0.071777344,-0.4116211,-3.479004,2.8686523,-1.7700195,0.0,0.0,0.0,173.38074,71.56494,99.77234
1768030299634,-0.91845703,0.071777344,-0.4116211,-3.479004,2.8686523,-1.7700195,0.0,0.0,0.0,172.08984,71.21887,99.97009
1768030299722,-0.94873047,0.03515625,-0.40039062,3.0517578,-2.5634766,1.2817383,0.0,0.0,0.0,172.08984,71.21887,99.97009
1768030299733,-0.94873047,0.03515625,-0.40039062,3.0517578,-2.5634766,1.2817383,0.0,0.0,0.0,171.58997,70.86731,99.574585
1768030299821,-0.87939453,0.060058594,-0.41064453,3.7841797,-5.554199,2.9296875,0.0,0.0,0.0,171.58997,70.86731,99.574585
1768030299833,-0.87939453,0.060058594,-0.41064453,3.7841797,-5.554199,2.9296875,0.0,0.0,0.0,171.78772,71.05957,99.36035
1768030299921,-0.9321289,0.056152344,-0.44433594,4.272461,-2.746582,1.4038086,0.0,0.0,0.0,171.78772,71.05957,99.36035
1768030299932,-0.9321289,0.056152344,-0.44433594,4.272461,-2.746582,1.4038086,0.0,0.0,0.0,171.50208,71.328735,98.393555
1768030300021,-1.0400391,-0.009765625,-0.37353516,6.8359375,7.2021484,-7.2631836,0.0,0.0,0.0,171.50208,71.328735,98.393555
1768030300032,-1.0400391,-0.009765625,-0.37353516,6.8359375,7.2021484,-7.2631836,0.0,0.0,0.0,173.974,70.57068,99.87671
1768030300120,-1.3120117,0.0146484375,-0.375,-14.587402,11.169434,-9.887695,0.0,0.0,0.0,173.974,70.57068,99.87671
1768030300132,-1.3120117,0.0146484375,-0.375,-14.587402,11.169434,-9.887695,0.0,0.0,0.0,176.97327,70.21912,103.287964
1768030300220,-0.88134766,0.06738281,0.026855469,-58.776855,-39.733887,9.94873,0.0,0.0,0.0,176.97327,70.21912,103.287964
1768030300232,-0.88134766,0.06738281,0.026855469,-58.776855,-39.733887,9.94873,0.0,0.0,0.0,175.83618,72.94922,103.45276
1768030300320,-0.91748047,0.16748047,-0.24951172,22.888184,-1.159668,-18.188477,0.0,0.0,0.0,175.83618,72.94922,103.45276
1768030300331,-0.91748047,0.16748047,-0.24951172,22.888184,-1.159668,-18.188477,0.0,0.0,0.0,173.2544,73.65784,104.55139
1768030300419,-0.9550781,-0.023925781,-0.28222656,19.226074,7.6293945,-3.3569336,0.0,0.0,0.0,173.2544,73.65784,104.55139
1768030300431,-0.9550781,-0.023925781,-0.28222656,19.226074,7.6293945,-3.3569336,0.0,0.0,0.0,175.9076,73.90503,105.875244
1768030300519,-0.9477539,0.022949219,-0.21533203,27.34375,0.061035156,-4.211426,0.0,0.0,0.0,175.9076,73.90503,105.875244
1768030300531,-0.9477539,0.022949219,-0.21533203,27.34375,0.061035156,-4.211426,0.0,0.0,0.0,179.69788,73.91052,107.52319
1768030300619,-0.9477539,-0.053222656,-0.31347656,25.390625,0.61035156,1.6479492,0.0,0.0,0.0,179.69788,73.91052,107.52319
1768030300631,-0.9477539,-0.053222656,-0.31347656,25.390625,0.61035156,1.6479492,0.0,0.0,0.0,-178.16528,73.99292,107.42981
1768030300719,-0.91503906,-0.12158203,-0.35302734,23.19336,4.638672,-2.0751953,0.0,0.0,0.0,-178.16528,73.99292,107.42981
1768030300730,-0.91503906,-0.12158203,-0.35302734,23.19336,4.638672,-2.0751953,0.0,0.0,0.0,-175.75378,73.690796,107.52869
1768030300818,-0.921875,-0.122558594,-0.3461914,21.728516,10.375977,-8.605957,0.0,0.0,0.0,-175.75378,73.690796,107.52869
1768030300830,-0.921875,-0.122558594,-0.3461914,21.728516,10.375977,-8.605957,0.0,0.0,0.0,-171.26587,72.405396,109.86328
1768030300918,-1.0488281,-0.16503906,-0.31347656,6.8969727,11.779785,-9.094238,0.0,0.0,0.0,-171.26587,72.405396,109.86328
1768030300930,-1.0488281,-0.16503906,-0.31347656,6.8969727,11.779785,-9.094238,0.0,0.0,0.0,-167.07458,71.032104,112.32971
1768030301018,-0.8154297,-0.125,-0.111328125,11.962891,11.352539,-7.9956055,0.0,0.0,0.0,-167.07458,71.032104,112.32971
1768030301030,-0.8154297,-0.125,-0.111328125,11.962891,11.352539,-7.9956055,0.0,0.0,0.0,-163.95996,69.33472,114.63684
1768030301118,-0.82177734,0.07324219,-0.32714844,5.859375,11.108398,-18.554688,0.0,0.0,0.0,-163.95996,69.33472,114.63684
1768030301129,-0.82177734,0.07324219,-0.32714844,5.859375,11.108398,-18.554688,0.0,0.0,0.0,-161.01013,68.90076,118.306274
1768030301217,-1.0068359,-0.08203125,-0.2685547,-12.573242,5.554199,-13.000488,0.0,0.0,0.0,-161.01013,68.90076,118.306274
1768030301229,-1.0068359,-0.08203125,-0.2685547,-12.573242,5.554199,-13.000488,0.0,0.0,0.0,-158.93921,67.5824,120.860596
1768030301317,-0.9741211,-0.078125,-0.36865234,-2.5634766,-5.859375,-1.5258789,0.0,0.0,0.0,-158.93921,67.5824,120.860596
1768030301328,-0.9741211,-0.078125,-0.36865234,-2.5634766,-5.859375,-1.5258789,0.0,0.0,0.0,-158.89526,68.17566,122.20642
1768030301417,-0.94140625,-0.07763672,-0.32226562,-9.155273,-10.437012,-4.8217773,0.0,0.0,0.0,-158.89526,68.17566,122.20642
1768030301428,-0.94140625,-0.07763672,-0.32226562,-9.155273,-10.437012,-4.8217773,0.0,0.0,0.0,-157.32422,69.20288,124.11255
1768030301516,-0.91845703,-0.07910156,-0.3564453,-11.352539,-6.7749023,-0.061035156,0.0,0.0,0.0,-157.32422,69.20288,124.11255
1768030301528,-0.91845703,-0.07910156,-0.3564453,-11.352539,-6.7749023,-0.061035156,0.0,0.0,0.0,-157.73071,69.96094,125.15625
1768030301616,-0.9160156,-0.12988281,-0.3647461,-6.8969727,-4.333496,-2.1972656,0.0,0.0,0.0,-157.73071,69.96094,125.15625
1768030301628,-0.9160156,-0.12988281,-0.3647461,-6.8969727,-4.333496,-2.1972656,0.0,0.0,0.0,-158.08228,70.5542,125.562744
1768030301716,-0.96191406,-0.13476562,-0.34716797,-17.150879,-8.117676,-3.540039,0.0,0.0,0.0,-158.08228,70.5542,125.562744
1768030301727,-0.96191406,-0.13476562,-0.34716797,-17.150879,-8.117676,-3.540039,0.0,0.0,0.0,-158.12622,71.136475,126.848145
1768030301815,-0.98291016,-0.10253906,-0.34277344,-24.658203,-8.483887,-6.164551,0.0,0.0,0.0,-158.12622,71.136475,126.848145
1768030301827,-0.98291016,-0.10253906,-0.34277344,-24.658203,-8.483887,-6.164551,0.0,0.0,0.0,-157.72522,71.466064,129.2157
1768030301915,-0.9116211,-0.080078125,-0.43701172,-24.597168,0.7324219,-4.5166016,0.0,0.0,0.0,-157.72522,71.466064,129.2157
1768030301927,-0.9116211,-0.080078125,-0.43701172,-24.597168,0.7324219,-4.5166016,0.0,0.0,0.0,-158.47229,71.46057,131.32507
1768030302015,-1.15625,-0.12158203,-0.4741211,-11.59668,19.65332,-0.18310547,0.0,0.0,0.0,-158.47229,71.46057,131.32507
1768030302027,-1.15625,-0.12158203,-0.4741211,-11.59668,19.65332,-0.18310547,0.0,0.0,0.0,-160.98267,70.43335,130.45166
1768030302115,-0.8808594,-0.140625,-0.1821289,-13.305664,-11.657715,-1.4038086,0.0,0.0,0.0,-160.98267,70.43335,130.45166
1768030302127,-0.8808594,-0.140625,-0.1821289,-13.305664,-11.657715,-1.4038086,0.0,0.0,0.0,-161.04309,69.09302,129.68262
1768030302214,-0.87939453,-0.10498047,-0.106933594,-8.300781,0.061035156,-6.225586,0.0,0.0,0.0,-161.04309,69.09302,129.68262
1768030302226,-0.87939453,-0.10498047,-0.106933594,-8.300781,0.061035156,-6.225586,0.0,0.0,0.0,-160.56519,69.37317,131.75354
1768030302314,-0.9941406,-0.10839844,-0.30859375,-29.174805,-7.6293945,-2.1972656,0.0,0.0,0.0,-160.56519,69.37317,131.75354
1768030302326,-0.9941406,-0.10839844,-0.30859375,-29.174805,-7.6293945,-2.1972656,0.0,0.0,0.0,-161.47156,70.686035,133.73657
1768030302414,-0.9213867,-0.15234375,-0.23144531,-15.075684,-18.859863,3.4179688,0.0,0.0,0.0,-161.47156,70.686035,133.73657
1768030302425,-0.9213867,-0.15234375,-0.23144531,-15.075684,-18.859863,3.4179688,0.0,0.0,0.0,-161.53198,72.20215,134.98352
1768030302513,-0.94677734,-0.0546875,-0.27392578,1.7700195,-5.6762695,-0.7324219,0.0,0.0,0.0,-161.53198,72.20215,134.98352
1768030302525,-0.94677734,-0.0546875,-0.27392578,1.7700195,-5.6762695,-0.7324219,0.0,0.0,0.0,-160.5542,73.27881,136.81274
1768030302613,-0.94921875,-0.14746094,-0.33007812,6.8359375,4.0283203,6.225586,0.0,0.0,0.0,-160.5542,73.27881,136.81274
1768030302625,-0.94921875,-0.14746094,-0.33007812,6.8359375,4.0283203,6.225586,0.0,0.0,0.0,-161.68579,73.828125,135.15381
1768030302713,-0.9404297,-0.11767578,-0.2524414,6.225586,1.0986328,5.9814453,0.0,0.0,0.0,-161.68579,73.828125,135.15381
1768030302724,-0.9404297,-0.11767578,-0.2524414,6.225586,1.0986328,5.9814453,0.0,0.0,0.0,-162.58118,73.54797,132.96204
1768030302813,-0.9501953,-0.09667969,-0.3232422,18.981934,4.5776367,8.911133,0.0,0.0,0.0,-162.58118,73.54797,132.96204
1768030302824,-0.9501953,-0.09667969,-0.3232422,18.981934,4.5776367,8.911133,0.0,0.0,0.0,-163.8501,73.43811,130.56152
1768030302912,-0.9892578,-0.16699219,-0.3466797,17.944336,6.5307617,6.0424805,0.0,0.0,0.0,-163.8501,73.43811,130.56152
1768030302924,-0.9892578,-0.16699219,-0.3466797,17.944336,6.5307617,6.0424805,0.0,0.0,0.0,-164.86633,73.07556,127.402954
1768030303012,-0.9477539,-0.14697266,-0.38427734,27.58789,12.878418,2.0141602,0.0,0.0,0.0,-164.86633,73.07556,127.402954
1768030303024,-0.9477539,-0.14697266,-0.38427734,27.58789,12.878418,2.0141602,0.0,0.0,0.0,-164.31702,72.09778,125.57373
1768030303112,-0.93847656,-0.09472656,-0.20214844,15.686035,13.793945,-3.90625,0.0,0.0,0.0,-164.31702,72.09778,125.57373
1768030303123,-0.93847656,-0.09472656,-0.20214844,15.686035,13.793945,-3.90625,0.0,0.0,0.0,-162.35596,70.356445,124.89807
1768030303211,-0.96533203,-0.1274414,-0.46044922,-23.986816,6.958008,-15.869141,0.0,0.0,0.0,-162.35596,70.356445,124.89807
1768030303223,-0.96533203,-0.1274414,-0.46044922,-23.986816,6.958008,-15.869141,0.0,0.0,0.0,-161.36719,70.09277,126.78772
1768030303311,-0.94189453,-0.020996094,-0.14550781,6.7749023,-0.7324219,0.0,0.0,0.0,0.0,-161.36719,70.09277,126.78772
1768030303323,-0.94189453,-0.020996094,-0.14550781,6.7749023,-0.7324219,0.0,0.0,0.0,0.0,-160.05432,68.49426,128.46313
1768030303411,-0.9614258,0.013671875,-0.3046875,-9.70459,-10.375977,2.4414062,0.0,0.0,0.0,-160.05432,68.49426,128.46313
1768030303422,-0.9614258,0.013671875,-0.3046875,-9.70459,-10.375977,2.4414062,0.0,0.0,0.0,-160.94421,69.609375,128.77625
1768030303511,-0.9404297,-0.09033203,-0.28222656,-6.652832,0.4272461,-4.272461,0.0,0.0,0.0,-160.94421,69.609375,128.77625
1768030303522,-0.9404297,-0.09033203,-0.28222656,-6.652832,0.4272461,-4.272461,0.0,0.0,0.0,-161.1914,70.18616,129.07288
1768030303610,-0.94970703,-0.04296875,-0.33447266,-4.4555664,-3.0517578,1.7089844,0.0,0.0,0.0,-161.1914,70.18616,129.07288
1768030303622,-0.94970703,-0.04296875,-0.33447266,-4.4555664,-3.0517578,1.7089844,0.0,0.0,0.0,-161.78467,70.52124,129.375
1768030303710,-0.9506836,-0.05419922,-0.33447266,-3.4179688,-1.5258789,0.9765625,0.0,0.0,0.0,-161.78467,70.52124,129.375
1768030303722,-0.9506836,-0.05419922,-0.33447266,-3.4179688,-1.5258789,0.9765625,0.0,0.0,0.0,-162.79541,70.84534,128.79822
1768030303810,-0.9350586,-0.06298828,-0.33007812,-2.746582,-1.7700195,1.4038086,0.0,0.0,0.0,-162.79541,70.84534,128.79822
1768030303822,-0.9350586,-0.06298828,-0.33007812,-2.746582,-1.7700195,1.4038086,0.0,0.0,0.0,-163.73474,70.878296,128.17749
1768030303909,-0.94873047,-0.06933594,-0.3564453,-7.2021484,0.7324219,-1.4648438,0.0,0.0,0.0,-163.73474,70.878296,128.17749
1768030303921,-0.94873047,-0.06933594,-0.3564453,-7.2021484,0.7324219,-1.4648438,0.0,0.0,0.0,-164.51477,71.04309,128.02368
1768030304009,-0.95214844,-0.06640625,-0.36816406,-9.399414,-5.1879883,-1.5869141,0.0,0.0,0.0,-164.51477,71.04309,128.02368
1768030304021,-0.95214844,-0.06640625,-0.36816406,-9.399414,-5.1879883,-1.5869141,0.0,0.0,0.0,-165.00916,71.45508,128.4082
1768030304109,-0.9433594,-0.099121094,-0.41357422,-6.286621,0.061035156,-4.638672,0.0,0.0,0.0,-165.00916,71.45508,128.4082
1768030304120,-0.9433594,-0.099121094,-0.41357422,-6.286621,0.061035156,-4.638672,0.0,0.0,0.0,-164.95422,71.570435,129.10583
1768030304209,-0.9238281,-0.076660156,-0.4741211,-5.79834,8.483887,-5.7373047,0.0,0.0,0.0,-164.95422,71.570435,129.10583
1768030304220,-0.9238281,-0.076660156,-0.4741211,-5.79834,8.483887,-5.7373047,0.0,0.0,0.0,-164.34448,70.59265,130.20447
1768030304308,-1.3686523,-0.13769531,-0.40820312,0.18310547,30.517578,-13.977051,0.0,0.0,0.0,-164.34448,70.59265,130.20447
1768030304320,-1.3686523,-0.13769531,-0.40820312,0.18310547,30.517578,-13.977051,0.0,0.0,0.0,-163.38318,68.00537,130.92407
1768030304408,-0.7050781,-0.111816406,-0.28808594,-7.3242188,-19.104004,-4.211426,0.0,0.0,0.0,-163.38318,68.00537,130.92407
1768030304420,-0.7050781,-0.111816406,-0.28808594,-7.3242188,-19.104004,-4.211426,0.0,0.0,0.0,-160.6311,66.780396,132.6654
1768030304508,-0.9375,-0.048339844,-0.16308594,14.770508,4.8828125,3.112793,0.0,0.0,0.0,-160.6311,66.780396,132.6654
1768030304520,-0.9375,-0.048339844,-0.16308594,14.770508,4.8828125,3.112793,0.0,0.0,0.0,-159.32922,66.225586,133.45642
1768030304607,-0.8886719,-0.06982422,-0.28759766,3.7841797,-8.117676,7.5683594,0.0,0.0,0.0,-159.32922,66.225586,133.45642
1768030304619,-0.8886719,-0.06982422,-0.28759766,3.7841797,-8.117676,7.5683594,0.0,0.0,0.0,-159.48853,67.02759,132.59949
