timestamp,accX,accY,accZ,gyroX,gyroY,gyroZ,magX,magY,magZ,roll,pitch,yaw
1768033397459,-1.0439453,0.095703125,0.1508789,-3.7231445,-9.521484,2.5634766,0.0,0.0,0.0,20.698242,81.74927,15.095215
1768033397471,-1.0439453,0.095703125,0.1508789,-3.7231445,-9.521484,2.5634766,0.0,0.0,0.0,18.967896,80.47485,13.74939
1768033397559,-0.9433594,0.016601562,0.1743164,5.126953,-4.699707,-0.91552734,0.0,0.0,0.0,18.967896,80.47485,13.74939
1768033397570,-0.9433594,0.016601562,0.1743164,5.126953,-4.699707,-0.91552734,0.0,0.0,0.0,18.665771,79.89258,13.304443
1768033397659,-1.0136719,0.083984375,0.15917969,0.9765625,1.0986328,1.6479492,0.0,0.0,0.0,18.665771,79.89258,13.304443
1768033397670,-1.0136719,0.083984375,0.15917969,0.9765625,1.0986328,1.6479492,0.0,0.0,0.0,17.940674,79.381714,12.414551
1768033397760,-0.9741211,0.023925781,0.1459961,3.2348633,-0.30517578,-1.0986328,0.0,0.0,0.0,17.940674,79.381714,12.414551
1768033397770,-0.9741211,0.023925781,0.1459961,3.2348633,-0.30517578,-1.0986328,0.0,0.0,0.0,18.165894,79.56848,12.156372
1768033397859,-1.0029297,0.026367188,0.17626953,-0.5493164,0.0,-1.5258789,0.0,0.0,0.0,18.165894,79.56848,12.156372
1768033397869,-1.0029297,0.026367188,0.17626953,-0.5493164,0.0,-1.5258789,0.0,0.0,0.0,18.1604,79.86511,12.057495
1768033397958,-1.0371094,0.032226562,0.12060547,-1.2207031,2.4414062,-1.4648438,0.0,0.0,0.0,18.1604,79.86511,12.057495
1768033397969,-1.0371094,0.032226562,0.12060547,-1.2207031,2.4414062,-1.4648438,0.0,0.0,0.0,16.644287,79.72229,10.524902
1768033398058,-1.0053711,0.0078125,0.12890625,-3.2348633,-7.019043,-2.380371,0.0,0.0,0.0,16.644287,79.72229,10.524902
1768033398069,-1.0053711,0.0078125,0.12890625,-3.2348633,-7.019043,-2.380371,0.0,0.0,0.0,15.26001,79.62341,9.486694
1768033398157,-0.9946289,0.017578125,0.14208984,-3.112793,8.605957,-4.5166016,0.0,0.0,0.0,15.26001,79.62341,9.486694
1768033398168,-0.9946289,0.017578125,0.14208984,-3.112793,8.605957,-4.5166016,0.0,0.0,0.0,12.941895,79.920044,7.371826
1768033398257,-0.9526367,0.047851562,0.22607422,-0.5493164,8.666992,-9.033203,0.0,0.0,0.0,12.941895,79.920044,7.371826
1768033398269,-0.9526367,0.047851562,0.22607422,-0.5493164,8.666992,-9.033203,0.0,0.0,0.0,9.321899,81.19446,3.8891602
1768033398356,-0.9291992,0.08203125,0.24951172,4.9438477,-1.2817383,-5.9814453,0.0,0.0,0.0,9.321899,81.19446,3.8891602
1768033398368,-0.9291992,0.08203125,0.24951172,4.9438477,-1.2817383,-5.9814453,0.0,0.0,0.0,4.817505,80.79346,-0.9613037
1768033398456,-1.0126953,-0.0073242188,0.15527344,-6.713867,-27.58789,-0.5493164,0.0,0.0,0.0,4.817505,80.79346,-0.9613037
1768033398468,-1.0126953,-0.0073242188,0.15527344,-6.713867,-27.58789,-0.5493164,0.0,0.0,0.0,3.7353516,79.0686,-1.9720459
1768033398556,-0.9550781,0.05810547,0.17333984,4.0283203,3.8452148,-4.8217773,0.0,0.0,0.0,3.7353516,79.0686,-1.9720459
1768033398567,-0.9550781,0.05810547,0.17333984,4.0283203,3.8452148,-4.8217773,0.0,0.0,0.0,1.9555664,78.68408,-3.949585
1768033398656,-1.0039062,0.026367188,0.19189453,0.9765625,-1.0375977,1.2207031,0.0,0.0,0.0,1.9555664,78.68408,-3.949585
1768033398667,-1.0039062,0.026367188,0.19189453,0.9765625,-1.0375977,1.2207031,0.0,0.0,0.0,2.2192383,78.673096,-3.9331055
1768033398755,-1.0102539,0.018066406,0.14648438,0.18310547,-0.48828125,1.6479492,0.0,0.0,0.0,2.2192383,78.673096,-3.9331055
1768033398767,-1.0102539,0.018066406,0.14648438,0.18310547,-0.48828125,1.6479492,0.0,0.0,0.0,3.4057617,78.585205,-2.8070068
1768033398855,-1.0229492,0.03466797,0.13623047,-3.479004,5.92041,3.8452148,0.0,0.0,0.0,3.4057617,78.585205,-2.8070068
1768033398866,-1.0229492,0.03466797,0.13623047,-3.479004,5.92041,3.8452148,0.0,0.0,0.0,4.9713135,79.156494,-1.2249756
1768033398955,-0.9707031,0.087890625,0.18066406,-2.0141602,9.277344,6.652832,0.0,0.0,0.0,4.9713135,79.156494,-1.2249756
1768033398966,-0.9707031,0.087890625,0.18066406,-2.0141602,9.277344,6.652832,0.0,0.0,0.0,8.54187,80.10132,2.6531982
1768033399055,-1.0043945,0.03173828,0.15136719,-0.061035156,1.8310547,7.8125,0.0,0.0,0.0,8.54187,80.10132,2.6531982
1768033399066,-1.0043945,0.03173828,0.15136719,-0.061035156,1.8310547,7.8125,0.0,0.0,0.0,13.606567,80.34302,7.706909
1768033399154,-0.9091797,0.009277344,0.22607422,0.6713867,10.437012,6.3476562,0.0,0.0,0.0,13.606567,80.34302,7.706909
1768033399166,-0.9091797,0.009277344,0.22607422,0.6713867,10.437012,6.3476562,0.0,0.0,0.0,19.692993,80.90881,14.073486
1768033399254,-0.96728516,0.0029296875,0.2290039,-2.746582,-19.53125,3.540039,0.0,0.0,0.0,19.692993,80.90881,14.073486
1768033399265,-0.96728516,0.0029296875,0.2290039,-2.746582,-19.53125,3.540039,0.0,0.0,0.0,19.59961,80.04639,13.754883
1768033399354,-0.98583984,0.06982422,0.1352539,0.0,-11.59668,4.9438477,0.0,0.0,0.0,19.59961,80.04639,13.754883
1768033399365,-0.98583984,0.06982422,0.1352539,0.0,-11.59668,4.9438477,0.0,0.0,0.0,17.644043,77.84912,11.782837
1768033399453,-0.9848633,0.03564453,0.22509766,0.61035156,-4.0893555,0.61035156,0.0,0.0,0.0,17.644043,77.84912,11.782837
1768033399465,-0.9848633,0.03564453,0.22509766,0.61035156,-4.0893555,0.61035156,0.0,0.0,0.0,18.28125,77.547,12.106934
1768033399553,-0.99365234,0.068847656,0.2084961,3.4179688,3.8452148,-1.953125,0.0,0.0,0.0,18.28125,77.547,12.106934
1768033399564,-0.99365234,0.068847656,0.2084961,3.4179688,3.8452148,-1.953125,0.0,0.0,0.0,17.770386,77.20642,11.403809
1768033399653,-0.9951172,0.053710938,0.20361328,1.8920898,0.061035156,-1.6479492,0.0,0.0,0.0,17.770386,77.20642,11.403809
1768033399665,-0.9951172,0.053710938,0.20361328,1.8920898,0.061035156,-1.6479492,0.0,0.0,0.0,17.363892,77.547,10.497437
1768033399752,-1.003418,0.024414062,0.15917969,6.1035156,3.7231445,-6.164551,0.0,0.0,0.0,17.363892,77.547,10.497437
1768033399764,-1.003418,0.024414062,0.15917969,6.1035156,3.7231445,-6.164551,0.0,0.0,0.0,16.105957,77.92053,8.717651
1768033399852,-1.0097656,0.020996094,0.17333984,-4.5776367,1.0986328,-4.211426,0.0,0.0,0.0,16.105957,77.92053,8.717651
1768033399864,-1.0097656,0.020996094,0.17333984,-4.5776367,1.0986328,-4.211426,0.0,0.0,0.0,14.18335,78.64014,6.6192627
1768033399952,-0.9707031,0.0146484375,0.1616211,-6.0424805,4.8217773,-5.004883,0.0,0.0,0.0,14.18335,78.64014,6.6192627
1768033399963,-0.9707031,0.0146484375,0.1616211,-6.0424805,4.8217773,-5.004883,0.0,0.0,0.0,11.546631,78.947754,4.559326
1768033400051,-1.003418,0.04248047,0.21582031,-5.004883,10.131836,-7.2021484,0.0,0.0,0.0,11.546631,78.947754,4.559326
1768033400063,-1.003418,0.04248047,0.21582031,-5.004883,10.131836,-7.2021484,0.0,0.0,0.0,8.234253,79.94751,1.7797852
1768033400151,-0.8388672,0.08251953,0.22460938,5.004883,2.5634766,-7.5683594,0.0,0.0,0.0,8.234253,79.94751,1.7797852
1768033400163,-0.8388672,0.08251953,0.22460938,5.004883,2.5634766,-7.5683594,0.0,0.0,0.0,4.053955,80.337524,-2.5213623
1768033400251,-1.0786133,0.001953125,0.16357422,-7.019043,-27.70996,3.7231445,0.0,0.0,0.0,4.053955,80.337524,-2.5213623
1768033400263,-1.0786133,0.001953125,0.16357422,-7.019043,-27.70996,3.7231445,0.0,0.0,0.0,3.3673096,79.61243,-3.4057617
1768033400350,-0.9165039,0.037109375,0.17382812,5.065918,5.004883,-5.92041,0.0,0.0,0.0,3.3673096,79.61243,-3.4057617
1768033400362,-0.9165039,0.037109375,0.17382812,5.065918,5.004883,-5.92041,0.0,0.0,0.0,2.4829102,78.5083,-4.2022705
1768033400450,-1.015625,0.025878906,0.18652344,-3.3569336,-1.8310547,1.0375977,0.0,0.0,0.0,2.4829102,78.5083,-4.2022705
1768033400462,-1.015625,0.025878906,0.18652344,-3.3569336,-1.8310547,1.0375977,0.0,0.0,0.0,1.7962646,78.288574,-5.08667
1768033400550,-1.0029297,0.015625,0.17480469,-5.859375,0.9765625,2.5024414,0.0,0.0,0.0,1.7962646,78.288574,-5.08667
1768033400561,-1.0029297,0.015625,0.17480469,-5.859375,0.9765625,2.5024414,0.0,0.0,0.0,2.9718018,78.82141,-3.6035156
1768033400650,-1.0678711,0.033691406,0.12548828,0.061035156,17.63916,1.159668,0.0,0.0,0.0,2.9718018,78.82141,-3.6035156
1768033400661,-1.0678711,0.033691406,0.12548828,0.061035156,17.63916,1.159668,0.0,0.0,0.0,4.020996,79.34326,-2.340088
1768033400750,-0.9536133,0.06347656,0.1953125,4.9438477,3.6621094,4.8828125,0.0,0.0,0.0,4.020996,79.34326,-2.340088
1768033400762,-0.9536133,0.06347656,0.1953125,4.9438477,3.6621094,4.8828125,0.0,0.0,0.0,7.0092773,80.90332,0.48339844
1768033400849,-1.0180664,0.0390625,0.14453125,4.0283203,6.3476562,6.7749023,0.0,0.0,0.0,7.0092773,80.90332,0.48339844
1768033400861,-1.0180664,0.0390625,0.14453125,4.0283203,6.3476562,6.7749023,0.0,0.0,0.0,11.502686,80.826416,4.526367
1768033400949,-0.9008789,-0.0043945312,0.21582031,6.225586,-0.24414062,4.8217773,0.0,0.0,0.0,11.502686,80.826416,4.526367
1768033400960,-0.9008789,-0.0043945312,0.21582031,6.225586,-0.24414062,4.8217773,0.0,0.0,0.0,16.97937,81.2439,9.761353
1768033401048,-1.0185547,4.8828125E-4,0.20947266,3.90625,-8.972168,2.1972656,0.0,0.0,0.0,16.97937,81.2439,9.761353
1768033401060,-1.0185547,4.8828125E-4,0.20947266,3.90625,-8.972168,2.1972656,0.0,0.0,0.0,17.237549,80.24963,9.750366
1768033401148,-0.94628906,0.02734375,0.13134766,1.2207031,-12.268066,1.2817383,0.0,0.0,0.0,17.237549,80.24963,9.750366
1768033401160,-0.94628906,0.02734375,0.13134766,1.2207031,-12.268066,1.2817383,0.0,0.0,0.0,14.952393,78.601685,7.36084
1768033401248,-0.98779297,0.030761719,0.20605469,-0.4272461,-3.2958984,0.12207031,0.0,0.0,0.0,14.952393,78.601685,7.36084
1768033401259,-0.98779297,0.030761719,0.20605469,-0.4272461,-3.2958984,0.12207031,0.0,0.0,0.0,14.359131,78.343506,6.6522217
1768033401348,-0.9838867,0.052246094,0.1977539,3.4179688,-1.5258789,-0.7324219,0.0,0.0,0.0,14.359131,78.343506,6.6522217
1768033401359,-0.9838867,0.052246094,0.1977539,3.4179688,-1.5258789,-0.7324219,0.0,0.0,0.0,13.727417,77.87109,6.031494
1768033401447,-0.99853516,0.036132812,0.17626953,-1.4038086,-0.12207031,1.4038086,0.0,0.0,0.0,13.727417,77.87109,6.031494
1768033401459,-0.99853516,0.036132812,0.17626953,-1.4038086,-0.12207031,1.4038086,0.0,0.0,0.0,13.408813,77.68982,5.421753
1768033401547,-1.0258789,0.028808594,0.1743164,-1.2207031,-4.9438477,-1.2207031,0.0,0.0,0.0,13.408813,77.68982,5.421753
1768033401559,-1.0258789,0.028808594,0.1743164,-1.2207031,-4.9438477,-1.2207031,0.0,0.0,0.0,13.09021,77.68982,5.152588
1768033401647,-1.0205078,0.016113281,0.17041016,-7.2021484,-2.5024414,-2.0751953,0.0,0.0,0.0,13.09021,77.68982,5.152588
1768033401660,-1.0205078,0.016113281,0.17041016,-7.2021484,-2.5024414,-2.0751953,0.0,0.0,0.0,11.881714,77.67883,4.2077637
1768033401746,-0.9741211,0.0034179688,0.15820312,-4.8828125,7.873535,-6.225586,0.0,0.0,0.0,11.881714,77.67883,4.2077637
1768033401759,-0.9741211,0.0034179688,0.15820312,-4.8828125,7.873535,-6.225586,0.0,0.0,0.0,9.744873,78.06885,2.4389648
1768033401846,-0.97558594,0.046875,0.22753906,-3.2958984,18.371582,-7.080078,0.0,0.0,0.0,9.744873,78.06885,2.4389648
1768033401858,-0.97558594,0.046875,0.22753906,-3.2958984,18.371582,-7.080078,0.0,0.0,0.0,6.7730713,79.50256,-0.17028809
1768033401946,-0.88378906,0.07373047,0.25585938,3.112793,2.8686523,-7.873535,0.0,0.0,0.0,6.7730713,79.50256,-0.17028809
1768033401959,-0.88378906,0.07373047,0.25585938,3.112793,2.8686523,-7.873535,0.0,0.0,0.0,3.411255,80.546265,-3.5540771
1768033402045,-1.0610352,0.0024414062,0.17089844,-3.7841797,-16.784668,-0.4272461,0.0,0.0,0.0,3.411255,80.546265,-3.5540771
1768033402057,-1.0610352,0.0024414062,0.17089844,-3.7841797,-16.784668,-0.4272461,0.0,0.0,0.0,1.439209,79.96399,-5.888672
1768033402145,-0.9189453,0.025390625,0.15332031,4.0283203,7.6904297,-5.6152344,0.0,0.0,0.0,1.439209,79.96399,-5.888672
1768033402157,-0.9189453,0.025390625,0.15332031,4.0283203,7.6904297,-5.6152344,0.0,0.0,0.0,0.5548096,79.2334,-6.6741943
1768033402245,-0.97802734,0.024414062,0.17382812,3.3569336,-2.0141602,-0.18310547,0.0,0.0,0.0,0.5548096,79.2334,-6.6741943
1768033402256,-0.97802734,0.024414062,0.17382812,3.3569336,-2.0141602,-0.18310547,0.0,0.0,0.0,-0.26916504,79.44214,-8.025513
1768033402344,-1.0009766,-4.8828125E-4,0.17773438,-1.7700195,0.24414062,2.6245117,0.0,0.0,0.0,-0.26916504,79.44214,-8.025513
1768033402356,-1.0009766,-4.8828125E-4,0.17773438,-1.7700195,0.24414062,2.6245117,0.0,0.0,0.0,0.92285156,79.62341,-6.729126
1768033402444,-1.0283203,9.765625E-4,0.14453125,-2.8076172,4.333496,2.1972656,0.0,0.0,0.0,0.92285156,79.62341,-6.729126
1768033402456,-1.0283203,9.765625E-4,0.14453125,-2.8076172,4.333496,2.1972656,0.0,0.0,0.0,2.3345947,79.68933,-4.9438477
1768033402544,-1.0068359,0.030761719,0.14257812,-6.5307617,5.1879883,5.6762695,0.0,0.0,0.0,2.3345947,79.68933,-4.9438477
1768033402556,-1.0068359,0.030761719,0.14257812,-6.5307617,5.1879883,5.6762695,0.0,0.0,0.0,4.020996,80.1947,-2.6531982
1768033402644,-0.99072266,0.076660156,0.20019531,2.0141602,-4.8828125,8.239746,0.0,0.0,0.0,4.020996,80.1947,-2.6531982
1768033402655,-0.99072266,0.076660156,0.20019531,2.0141602,-4.8828125,8.239746,0.0,0.0,0.0,8.547363,80.41443,2.1038818
1768033402743,-0.9970703,0.048828125,0.14355469,6.591797,2.9907227,5.3710938,0.0,0.0,0.0,8.547363,80.41443,2.1038818
1768033402755,-0.9970703,0.048828125,0.14355469,6.591797,2.9907227,5.3710938,0.0,0.0,0.0,12.442017,80.06836,5.5096436
1768033402843,-0.9003906,0.009277344,0.23876953,11.230469,1.2207031,3.540039,0.0,0.0,0.0,12.442017,80.06836,5.5096436
1768033402855,-0.9003906,0.009277344,0.23876953,11.230469,1.2207031,3.540039,0.0,0.0,0.0,17.17163,80.425415,9.607544
1768033402943,-1.0229492,-0.008300781,0.24121094,-2.2583008,-16.357422,3.540039,0.0,0.0,0.0,17.17163,80.425415,9.607544
1768033402955,-1.0229492,-0.008300781,0.24121094,-2.2583008,-16.357422,3.540039,0.0,0.0,0.0,16.644287,79.37622,8.448486
1768033403042,-0.9433594,0.05029297,0.14794922,3.6621094,-11.535645,1.0375977,0.0,0.0,0.0,16.644287,79.37622,8.448486
1768033403054,-0.9433594,0.05029297,0.14794922,3.6621094,-11.535645,1.0375977,0.0,0.0,0.0,13.991089,76.99219,5.7788086
1768033403142,-0.9868164,0.0107421875,0.22753906,1.0375977,-7.873535,-1.2817383,0.0,0.0,0.0,13.991089,76.99219,5.7788086
1768033403153,-0.9868164,0.0107421875,0.22753906,1.0375977,-7.873535,-1.2817383,0.0,0.0,0.0,13.172607,76.5802,4.460449
1768033403242,-0.99365234,0.053710938,0.22265625,3.7231445,-1.4038086,-2.0141602,0.0,0.0,0.0,13.172607,76.5802,4.460449
1768033403253,-0.99365234,0.053710938,0.22265625,3.7231445,-1.4038086,-2.0141602,0.0,0.0,0.0,12.194824,75.997925,3.3343506
1768033403341,-0.9941406,0.022460938,0.19335938,1.0375977,-0.36621094,-1.4648438,0.0,0.0,0.0,12.194824,75.997925,3.3343506
1768033403353,-0.9941406,0.022460938,0.19335938,1.0375977,-0.36621094,-1.4648438,0.0,0.0,0.0,11.469727,76.0199,2.0819092
1768033403441,-1.0053711,0.0048828125,0.21728516,0.9765625,7.751465,-4.1503906,0.0,0.0,0.0,11.469727,76.0199,2.0819092
1768033403453,-1.0053711,0.0048828125,0.21728516,0.9765625,7.751465,-4.1503906,0.0,0.0,0.0,10.838013,76.744995,1.1975098
1768033403541,-1.0317383,0.024414062,0.18164062,-5.3100586,-0.91552734,-3.8452148,0.0,0.0,0.0,10.838013,76.744995,1.1975098
1768033403552,-1.0317383,0.024414062,0.18164062,-5.3100586,-0.91552734,-3.8452148,0.0,0.0,0.0,8.99231,77.27783,-0.62072754
1768033403641,-0.9770508,-0.012207031,0.1538086,-2.6855469,9.643555,-7.446289,0.0,0.0,0.0,8.99231,77.27783,-0.62072754
1768033403652,-0.9770508,-0.012207031,0.1538086,-2.6855469,9.643555,-7.446289,0.0,0.0,0.0,6.1413574,77.68982,-3.2080078
1768033403740,-0.9873047,0.032226562,0.23242188,0.61035156,18.188477,-11.71875,0.0,0.0,0.0,6.1413574,77.68982,-3.2080078
1768033403752,-0.9873047,0.032226562,0.23242188,0.61035156,18.188477,-11.71875,0.0,0.0,0.0,1.373291,79.28284,-8.031006
1768033403840,-0.83203125,0.05517578,0.25927734,7.6293945,3.2348633,-11.535645,0.0,0.0,0.0,1.373291,79.28284,-8.031006
1768033403851,-0.83203125,0.05517578,0.25927734,7.6293945,3.2348633,-11.535645,0.0,0.0,0.0,-4.317627,80.233154,-14.386597
1768033403940,-1.0693359,-0.037597656,0.19482422,-6.713867,-30.090332,1.5869141,0.0,0.0,0.0,-4.317627,80.233154,-14.386597
1768033403951,-1.0693359,-0.037597656,0.19482422,-6.713867,-30.090332,1.5869141,0.0,0.0,0.0,-4.4989014,78.95874,-14.7821045
1768033404039,-0.94628906,0.0024414062,0.1694336,1.0375977,6.8969727,-5.859375,0.0,0.0,0.0,-4.4989014,78.95874,-14.7821045
1768033404051,-0.94628906,0.0024414062,0.1694336,1.0375977,6.8969727,-5.859375,0.0,0.0,0.0,-4.916382,77.40967,-15.018311
1768033404139,-0.9892578,-0.011230469,0.2133789,-3.479004,-8.300781,1.5258789,0.0,0.0,0.0,-4.916382,77.40967,-15.018311
1768033404150,-0.9892578,-0.011230469,0.2133789,-3.479004,-8.300781,1.5258789,0.0,0.0,0.0,-5.2734375,77.33276,-15.419312
1768033404239,-0.99560547,-0.01953125,0.17480469,-6.225586,4.760742,3.540039,0.0,0.0,0.0,-5.2734375,77.33276,-15.419312
1768033404250,-0.99560547,-0.01953125,0.17480469,-6.225586,4.760742,3.540039,0.0,0.0,0.0,-4.4000244,77.299805,-14.227295
1768033404339,-1.0234375,-0.0107421875,0.16796875,-3.2958984,4.0893555,1.5258789,0.0,0.0,0.0,-4.4000244,77.299805,-14.227295
1768033404350,-1.0234375,-0.0107421875,0.16796875,-3.2958984,4.0893555,1.5258789,0.0,0.0,0.0,-3.982544,77.958984,-13.320923
1768033404442,-1.0107422,0.025390625,0.14746094,-5.493164,16.662598,1.953125,0.0,0.0,0.0,-3.982544,77.958984,-13.320923
1768033404450,-1.0107422,0.025390625,0.14746094,-5.493164,16.662598,1.953125,0.0,0.0,0.0,-3.449707,79.06311,-12.370605
1768033404538,-1.0126953,-0.005859375,0.2084961,-0.79345703,0.30517578,5.92041,0.0,0.0,0.0,-3.449707,79.06311,-12.370605
1768033404550,-1.0126953,-0.005859375,0.2084961,-0.79345703,0.30517578,5.92041,0.0,0.0,0.0,-0.34606934,80.05737,-8.800049
1768033404638,-0.95703125,-0.008300781,0.17675781,-5.004883,8.911133,8.117676,0.0,0.0,0.0,-0.34606934,80.05737,-8.800049
1768033404649,-0.95703125,-0.008300781,0.17675781,-5.004883,8.911133,8.117676,0.0,0.0,0.0,3.8342285,79.98596,-4.3615723
1768033404737,-0.84375,-0.032226562,0.25634766,2.2583008,-3.0517578,5.004883,0.0,0.0,0.0,3.8342285,79.98596,-4.3615723
1768033404749,-0.84375,-0.032226562,0.25634766,2.2583008,-3.0517578,5.004883,0.0,0.0,0.0,7.2070312,80.425415,-0.9008789
1768033404837,-1.0629883,0.061035156,0.18701172,-8.361816,-34.851074,7.5683594,0.0,0.0,0.0,7.2070312,80.425415,-0.9008789
1768033404849,-1.0629883,0.061035156,0.18701172,-8.361816,-34.851074,7.5683594,0.0,0.0,0.0,8.327637,78.05786,1.3677979
1768033404937,-0.92041016,0.026855469,0.20410156,5.1879883,1.3427734,0.5493164,0.0,0.0,0.0,8.327637,78.05786,1.3677979
1768033404948,-0.92041016,0.026855469,0.20410156,5.1879883,1.3427734,0.5493164,0.0,0.0,0.0,9.113159,77.01416,2.175293
1768033405036,-1.0039062,0.044433594,0.20605469,0.36621094,-8.361816,1.159668,0.0,0.0,0.0,9.113159,77.01416,2.175293
1768033405048,-1.0039062,0.044433594,0.20605469,0.36621094,-8.361816,1.159668,0.0,0.0,0.0,9.244995,76.51428,1.8621826
1768033405136,-0.9765625,0.025878906,0.18652344,3.2958984,4.1503906,-2.319336,0.0,0.0,0.0,9.244995,76.51428,1.8621826
1768033405148,-0.9765625,0.025878906,0.18652344,3.2958984,4.1503906,-2.319336,0.0,0.0,0.0,9.206543,76.5802,1.4282227
1768033405236,-1.0224609,0.013183594,0.21826172,-0.79345703,8.911133,-2.1362305,0.0,0.0,0.0,9.206543,76.5802,1.4282227
1768033405247,-1.0224609,0.013183594,0.21826172,-0.79345703,8.911133,-2.1362305,0.0,0.0,0.0,9.025269,77.44812,1.0437012
1768033405336,-1.0375977,0.0068359375,0.14990234,1.5258789,8.544922,-3.9672852,0.0,0.0,0.0,9.025269,77.44812,1.0437012
1768033405347,-1.0375977,0.0068359375,0.14990234,1.5258789,8.544922,-3.9672852,0.0,0.0,0.0,7.8771973,78.17871,-0.2746582
1768033405435,-0.9633789,-0.0048828125,0.15283203,-1.8920898,2.5024414,-3.7231445,0.0,0.0,0.0,7.8771973,78.17871,-0.2746582
1768033405447,-0.9633789,-0.0048828125,0.15283203,-1.8920898,2.5024414,-3.7231445,0.0,0.0,0.0,5.6030273,78.80493,-2.4005127
1768033405535,-0.98779297,-0.0073242188,0.22509766,-0.6713867,17.578125,-6.8969727,0.0,0.0,0.0,5.6030273,78.80493,-2.4005127
1768033405546,-0.98779297,-0.0073242188,0.22509766,-0.6713867,17.578125,-6.8969727,0.0,0.0,0.0,2.8125,79.91455,-5.1690674
1768033405635,-0.8925781,0.0063476562,0.21972656,1.5869141,-6.286621,-7.3242188,0.0,0.0,0.0,2.8125,79.91455,-5.1690674
1768033405646,-0.8925781,0.0063476562,0.21972656,1.5869141,-6.286621,-7.3242188,0.0,0.0,0.0,-1.0217285,80.78247,-9.0802
1768033405734,-0.9970703,0.025390625,0.2446289,5.065918,-3.0517578,-6.591797,0.0,0.0,0.0,-1.0217285,80.78247,-9.0802
1768033405746,-0.9970703,0.025390625,0.2446289,5.065918,-3.0517578,-6.591797,0.0,0.0,0.0,-5.0976562,80.13977,-13.414307
1768033405834,-0.9628906,-0.008300781,0.12548828,-0.061035156,-17.028809,-2.8686523,0.0,0.0,0.0,-5.0976562,80.13977,-13.414307
1768033405845,-0.9628906,-0.008300781,0.12548828,-0.061035156,-17.028809,-2.8686523,0.0,0.0,0.0,-4.290161,77.7887,-12.233276
1768033405934,-0.9941406,0.028320312,0.19238281,3.90625,-7.446289,-2.8686523,0.0,0.0,0.0,-4.290161,77.7887,-12.233276
1768033405945,-0.9941406,0.028320312,0.19238281,3.90625,-7.446289,-2.8686523,0.0,0.0,0.0,-5.1361084,77.31079,-13.496704
1768033406034,-0.9916992,-0.017578125,0.1772461,3.540039,4.638672,-1.0986328,0.0,0.0,0.0,-5.1361084,77.31079,-13.496704
1768033406045,-0.9916992,-0.017578125,0.1772461,3.540039,4.638672,-1.0986328,0.0,0.0,0.0,-4.9108887,77.06909,-13.760376
1768033406133,-1.0224609,-0.032226562,0.16796875,-1.6479492,5.004883,0.12207031,0.0,0.0,0.0,-4.9108887,77.06909,-13.760376
1768033406145,-1.0224609,-0.032226562,0.16796875,-1.6479492,5.004883,0.12207031,0.0,0.0,0.0,-5.1470947,77.7063,-14.144897
1768033406233,-1.065918,-0.022460938,0.18310547,-5.1879883,17.211914,4.1503906,0.0,0.0,0.0,-5.1470947,77.7063,-14.144897
1768033406245,-1.065918,-0.022460938,0.18310547,-5.1879883,17.211914,4.1503906,0.0,0.0,0.0,-5.559082,78.881836,-14.254761
1768033406333,-0.9711914,0.055664062,0.22949219,-5.3710938,2.2583008,11.59668,0.0,0.0,0.0,-5.559082,78.881836,-14.254761
1768033406344,-0.9711914,0.055664062,0.22949219,-5.3710938,2.2583008,11.59668,0.0,0.0,0.0,-2.6916504,80.16724,-10.706177
1768033406432,-0.97509766,0.0063476562,0.15966797,-1.4648438,-3.7841797,10.986328,0.0,0.0,0.0,-2.6916504,80.16724,-10.706177
1768033406444,-0.97509766,0.0063476562,0.15966797,-1.4648438,-3.7841797,10.986328,0.0,0.0,0.0,3.2299805,79.524536,-4.4714355
1768033406532,-0.84375,-0.025390625,0.22558594,1.4648438,-2.1972656,5.92041,0.0,0.0,0.0,3.2299805,79.524536,-4.4714355
1768033406543,-0.84375,-0.025390625,0.22558594,1.4648438,-2.1972656,5.92041,0.0,0.0,0.0,8.256226,79.67285,0.9008789
1768033406632,-1.0571289,-0.013183594,0.22363281,-2.5634766,-25.817871,0.0,0.0,0.0,0.0,8.256226,79.67285,0.9008789
1768033406643,-1.0571289,-0.013183594,0.22363281,-2.5634766,-25.817871,0.0,0.0,0.0,0.0,7.432251,77.61841,0.38452148
1768033406732,-0.9394531,0.053222656,0.2163086,2.746582,-4.5776367,0.0,0.0,0.0,0.0,7.432251,77.61841,0.38452148
1768033406743,-0.9394531,0.053222656,0.2163086,2.746582,-4.5776367,0.0,0.0,0.0,0.0,6.361084,76.30554,-0.6756592
1768033406831,-0.98779297,-0.0034179688,0.24609375,2.0141602,-3.540039,-0.18310547,0.0,0.0,0.0,6.361084,76.30554,-0.6756592
1768033406843,-0.98779297,-0.0034179688,0.24609375,2.0141602,-3.540039,-0.18310547,0.0,0.0,0.0,5.899658,76.09131,-1.9775391
1768033406931,-0.98828125,0.0087890625,0.19628906,4.211426,3.6010742,-0.79345703,0.0,0.0,0.0,5.899658,76.09131,-1.9775391
1768033406942,-0.98828125,0.0087890625,0.19628906,4.211426,3.6010742,-0.79345703,0.0,0.0,0.0,6.2072754,75.81116,-1.8951416
1768033407030,-1.0,0.001953125,0.24902344,-0.4272461,11.535645,-0.061035156,0.0,0.0,0.0,6.2072754,75.81116,-1.8951416
1768033407042,-1.0,0.001953125,0.24902344,-0.4272461,11.535645,-0.061035156,0.0,0.0,0.0,6.536865,77.03613,-1.873169
1768033407130,-1.0620117,0.026855469,0.16259766,-1.0375977,2.6855469,-0.5493164,0.0,0.0,0.0,6.536865,77.03613,-1.873169
1768033407142,-1.0620117,0.026855469,0.16259766,-1.0375977,2.6855469,-0.5493164,0.0,0.0,0.0,6.190796,77.32178,-2.0214844
1768033407230,-0.98339844,-0.0390625,0.15673828,-4.0283203,2.4414062,-3.540039,0.0,0.0,0.0,6.190796,77.32178,-2.0214844
1768033407242,-0.98339844,-0.0390625,0.15673828,-4.0283203,2.4414062,-3.540039,0.0,0.0,0.0,4.5703125,78.09082,-3.515625
1768033407330,-0.9814453,-0.021972656,0.20458984,-3.0517578,18.737793,-7.6904297,0.0,0.0,0.0,4.5703125,78.09082,-3.515625
1768033407341,-0.9814453,-0.021972656,0.20458984,-3.0517578,18.737793,-7.6904297,0.0,0.0,0.0,1.170044,79.30481,-6.624756
1768033407429,-0.87841797,0.06738281,0.2368164,2.6245117,5.6152344,-8.605957,0.0,0.0,0.0,1.170044,79.30481,-6.624756
1768033407441,-0.87841797,0.06738281,0.2368164,2.6245117,5.6152344,-8.605957,0.0,0.0,0.0,-4.9658203,80.77698,-12.700195
1768033407529,-1.0063477,0.020996094,0.2319336,4.211426,-6.591797,-5.9814453,0.0,0.0,0.0,-4.9658203,80.77698,-12.700195
1768033407540,-1.0063477,0.020996094,0.2319336,4.211426,-6.591797,-5.9814453,0.0,0.0,0.0,-7.196045,80.216675,-15.276489
1768033407629,-0.94433594,0.0068359375,0.114746094,-3.2958984,-6.591797,-1.953125,0.0,0.0,0.0,-7.196045,80.216675,-15.276489
1768033407641,-0.94433594,0.0068359375,0.114746094,-3.2958984,-6.591797,-1.953125,0.0,0.0,0.0,-5.965576,78.37097,-13.502197
1768033407728,-0.9892578,-0.012207031,0.203125,0.24414062,-9.521484,-1.5258789,0.0,0.0,0.0,-5.965576,78.37097,-13.502197
1768033407740,-0.9892578,-0.012207031,0.203125,0.24414062,-9.521484,-1.5258789,0.0,0.0,0.0,-6.4709473,78.079834,-14.282227
1768033407828,-0.99902344,-0.020507812,0.17138672,-6.652832,5.6152344,3.540039,0.0,0.0,0.0,-6.4709473,78.079834,-14.282227
1768033407839,-0.99902344,-0.020507812,0.17138672,-6.652832,5.6152344,3.540039,0.0,0.0,0.0,-5.4656982,77.87109,-12.919922
1768033407928,-1.0244141,-0.03173828,0.19824219,-1.7700195,-1.5258789,0.30517578,0.0,0.0,0.0,-5.4656982,77.87109,-12.919922
1768033407939,-1.0244141,-0.03173828,0.19824219,-1.7700195,-1.5258789,0.30517578,0.0,0.0,0.0,-5.125122,78.31604,-12.260742
1768033408027,-1.0522461,0.0126953125,0.14794922,0.30517578,4.5166016,3.8452148,0.0,0.0,0.0,-5.125122,78.31604,-12.260742
1768033408039,-1.0522461,0.0126953125,0.14794922,0.30517578,4.5166016,3.8452148,0.0,0.0,0.0,-3.8397217,78.184204,-10.799561
1768033408127,-0.97216797,0.015625,0.20410156,6.958008,4.3945312,3.6621094,0.0,0.0,0.0,-3.8397217,78.184204,-10.799561
1768033408139,-0.97216797,0.015625,0.20410156,6.958008,4.3945312,3.6621094,0.0,0.0,0.0,-1.1975098,78.95874,-8.4375
1768033408227,-0.96728516,-0.0063476562,0.21386719,1.8920898,9.643555,6.713867,0.0,0.0,0.0,-1.1975098,78.95874,-8.4375
1768033408238,-0.96728516,-0.0063476562,0.21386719,1.8920898,9.643555,6.713867,0.0,0.0,0.0,2.0599365,79.486084,-5.657959
1768033408327,-0.8666992,-0.04638672,0.22363281,1.3427734,-3.3569336,4.8828125,0.0,0.0,0.0,2.0599365,79.486084,-5.657959
1768033408338,-0.8666992,-0.04638672,0.22363281,1.3427734,-3.3569336,4.8828125,0.0,0.0,0.0,5.5371094,79.90906,-2.2027588
1768033408426,-1.0429688,0.044433594,0.22509766,-5.432129,-16.906738,6.225586,0.0,0.0,0.0,5.5371094,79.90906,-2.2027588
1768033408438,-1.0429688,0.044433594,0.22509766,-5.432129,-16.906738,6.225586,0.0,0.0,0.0,7.2125244,78.90381,-0.06591797
1768033408526,-0.92578125,0.023925781,0.19580078,4.211426,-6.713867,5.79834,0.0,0.0,0.0,7.2125244,78.90381,-0.06591797
1768033408537,-0.92578125,0.023925781,0.19580078,4.211426,-6.713867,5.79834,0.0,0.0,0.0,9.695435,76.75049,2.8344727
1768033408626,-1.0004883,0.056640625,0.22753906,1.5869141,-13.73291,3.0517578,0.0,0.0,0.0,9.695435,76.75049,2.8344727
1768033408637,-1.0004883,0.056640625,0.22753906,1.5869141,-13.73291,3.0517578,0.0,0.0,0.0,10.349121,76.23413,2.8509521
1768033408725,-0.9921875,0.017089844,0.19433594,11.291504,-1.2817383,-3.4179688,0.0,0.0,0.0,10.349121,76.23413,2.8509521
1768033408737,-0.9921875,0.017089844,0.19433594,11.291504,-1.2817383,-3.4179688,0.0,0.0,0.0,10.420532,75.563965,1.9995117
1768033408825,-0.98339844,0.0048828125,0.25146484,1.4038086,6.225586,-0.61035156,0.0,0.0,0.0,10.420532,75.563965,1.9995117
1768033408836,-0.98339844,0.0048828125,0.25146484,1.4038086,6.225586,-0.61035156,0.0,0.0,0.0,10.354614,76.07483,1.2194824
1768033408925,-1.0283203,0.017089844,0.18798828,0.8544922,-6.164551,-2.5024414,0.0,0.0,0.0,10.354614,76.07483,1.2194824
1768033408936,-1.0283203,0.017089844,0.18798828,0.8544922,-6.164551,-2.5024414,0.0,0.0,0.0,9.041748,76.00891,-0.31860352
1768033409024,-1.0014648,0.009277344,0.20361328,-1.953125,3.0517578,-3.7231445,0.0,0.0,0.0,9.041748,76.00891,-0.31860352
1768033409036,-1.0014648,0.009277344,0.20361328,-1.953125,3.0517578,-3.7231445,0.0,0.0,0.0,7.6574707,76.49231,-1.9335938
1768033409124,-0.95996094,-0.0234375,0.19482422,-5.1879883,-2.6855469,-3.540039,0.0,0.0,0.0,7.6574707,76.49231,-1.9335938
1768033409136,-0.95996094,-0.0234375,0.19482422,-5.1879883,-2.6855469,-3.540039,0.0,0.0,0.0,5.7458496,76.624146,-3.619995
1768033409224,-0.99560547,0.0043945312,0.2241211,-2.380371,18.371582,-8.850098,0.0,0.0,0.0,5.7458496,76.624146,-3.619995
1768033409235,-0.99560547,0.0043945312,0.2241211,-2.380371,18.371582,-8.850098,0.0,0.0,0.0,2.713623,77.547,-6.3775635
1768033409324,-0.86621094,0.080078125,0.2861328,4.333496,9.216309,-7.5683594,0.0,0.0,0.0,2.713623,77.547,-6.3775635
1768033409335,-0.86621094,0.080078125,0.2861328,4.333496,9.216309,-7.5683594,0.0,0.0,0.0,-1.3568115,79.04114,-10.475464
1768033409423,-1.0141602,0.017089844,0.2626953,0.8544922,-10.803223,-2.0751953,0.0,0.0,0.0,-1.3568115,79.04114,-10.475464
1768033409435,-1.0141602,0.017089844,0.2626953,0.8544922,-10.803223,-2.0751953,0.0,0.0,0.0,-2.477417,78.78296,-12.10144
1768033409523,-0.95751953,-0.005859375,0.14160156,0.6713867,-7.8125,-2.5634766,0.0,0.0,0.0,-2.477417,78.78296,-12.10144
1768033409535,-0.95751953,-0.005859375,0.14160156,0.6713867,-7.8125,-2.5634766,0.0,0.0,0.0,-1.5325928,76.49231,-10.623779
1768033409623,-0.98046875,0.01171875,0.21777344,1.7700195,-5.554199,-1.5869141,0.0,0.0,0.0,-1.5325928,76.49231,-10.623779
1768033409634,-0.98046875,0.01171875,0.21777344,1.7700195,-5.554199,-1.5869141,0.0,0.0,0.0,-2.746582,76.52527,-12.376099
1768033409722,-1.0053711,0.0014648438,0.18554688,-2.1362305,3.8452148,1.5258789,0.0,0.0,0.0,-2.746582,76.52527,-12.376099
1768033409734,-1.0053711,0.0014648438,0.18554688,-2.1362305,3.8452148,1.5258789,0.0,0.0,0.0,-2.2961426,76.24512,-11.832275
1768033409822,-1.012207,-0.015136719,0.2006836,-0.061035156,4.9438477,0.36621094,0.0,0.0,0.0,-2.2961426,76.24512,-11.832275
1768033409833,-1.012207,-0.015136719,0.2006836,-0.061035156,4.9438477,0.36621094,0.0,0.0,0.0,-1.8292236,76.86035,-11.228027
1768033409922,-1.0029297,0.0048828125,0.17333984,-2.2583008,6.4086914,2.0141602,0.0,0.0,0.0,-1.8292236,76.86035,-11.228027
1768033409934,-1.0029297,0.0048828125,0.17333984,-2.2583008,6.4086914,2.0141602,0.0,0.0,0.0,-1.7687988,77.55249,-11.107178
1768033410021,-0.9707031,0.047851562,0.23535156,0.12207031,4.211426,5.493164,0.0,0.0,0.0,-1.7687988,77.55249,-11.107178
1768033410033,-0.9707031,0.047851562,0.23535156,0.12207031,4.211426,5.493164,0.0,0.0,0.0,-0.37902832,78.64014,-9.404297
1768033410121,-0.99609375,0.030761719,0.1640625,0.48828125,5.9814453,3.9672852,0.0,0.0,0.0,-0.37902832,78.64014,-9.404297
1768033410133,-0.99609375,0.030761719,0.1640625,0.48828125,5.9814453,3.9672852,0.0,0.0,0.0,1.7303467,78.75,-7.3773193
1768033410221,-0.94091797,-0.001953125,0.26220703,7.507324,7.2631836,3.1738281,0.0,0.0,0.0,1.7303467,78.75,-7.3773193
1768033410232,-0.94091797,-0.001953125,0.26220703,7.507324,7.2631836,3.1738281,0.0,0.0,0.0,5.1031494,79.74426,-3.982544
1768033410320,-0.94433594,-0.053222656,0.28515625,1.4648438,-6.164551,3.0517578,0.0,0.0,0.0,5.1031494,79.74426,-3.982544
1768033410332,-0.94433594,-0.053222656,0.28515625,1.4648438,-6.164551,3.0517578,0.0,0.0,0.0,6.7126465,79.3927,-3.0047607
1768033410420,-1.0175781,0.06933594,0.203125,-2.1972656,-37.353516,11.352539,0.0,0.0,0.0,6.7126465,79.3927,-3.0047607
1768033410432,-1.0175781,0.06933594,0.203125,-2.1972656,-37.353516,11.352539,0.0,0.0,0.0,7.23999,76.91528,-2.1148682
1768033410520,-0.9511719,-0.025878906,0.22314453,8.605957,0.61035156,-2.0141602,0.0,0.0,0.0,7.23999,76.91528,-2.1148682
1768033410531,-0.9511719,-0.025878906,0.22314453,8.605957,0.61035156,-2.0141602,0.0,0.0,0.0,7.998047,75.71777,-1.8896484
1768033410620,-0.99609375,0.038085938,0.2211914,-0.79345703,-4.760742,1.5869141,0.0,0.0,0.0,7.998047,75.71777,-1.8896484
1768033410632,-0.99609375,0.038085938,0.2211914,-0.79345703,-4.760742,1.5869141,0.0,0.0,0.0,7.6849365,75.38818,-2.4060059
1768033410719,-0.99072266,0.01953125,0.18603516,2.1362305,3.2348633,0.12207031,0.0,0.0,0.0,7.6849365,75.38818,-2.4060059
1768033410731,-0.99072266,0.01953125,0.18603516,2.1362305,3.2348633,0.12207031,0.0,0.0,0.0,7.805786,75.67932,-2.70813
1768033410819,-0.9921875,0.018554688,0.23535156,-0.5493164,12.939453,-1.4648438,0.0,0.0,0.0,7.805786,75.67932,-2.70813
1768033410830,-0.9921875,0.018554688,0.23535156,-0.5493164,12.939453,-1.4648438,0.0,0.0,0.0,8.311157,76.99219,-2.241211
1768033410919,-1.019043,0.022460938,0.19873047,1.0375977,-1.3427734,-2.9296875,0.0,0.0,0.0,8.311157,76.99219,-2.241211
1768033410930,-1.019043,0.022460938,0.19873047,1.0375977,-1.3427734,-2.9296875,0.0,0.0,0.0,7.2839355,77.39319,-3.3618164
1768033411018,-0.97265625,-0.012207031,0.20800781,-1.7089844,-3.2348633,-5.126953,0.0,0.0,0.0,7.2839355,77.39319,-3.3618164
1768033411030,-0.97265625,-0.012207031,0.20800781,-1.7089844,-3.2348633,-5.126953,0.0,0.0,0.0,4.8010254,77.420654,-5.83374
1768033411118,-0.98876953,-0.01171875,0.18115234,-3.7231445,0.24414062,-6.713867,0.0,0.0,0.0,4.8010254,77.420654,-5.83374
1768033411130,-0.98876953,-0.01171875,0.18115234,-3.7231445,0.24414062,-6.713867,0.0,0.0,0.0,1.2579346,77.17346,-9.195557
1768033411218,-0.9897461,0.024902344,0.24365234,1.0375977,12.084961,-10.192871,0.0,0.0,0.0,1.2579346,77.17346,-9.195557
1768033411229,-0.9897461,0.024902344,0.24365234,1.0375977,12.084961,-10.192871,0.0,0.0,0.0,-3.1585693,78.4259,-13.496704
1768033411317,-0.86621094,0.017578125,0.25,7.507324,3.7231445,-12.512207,0.0,0.0,0.0,-3.1585693,78.4259,-13.496704
1768033411329,-0.86621094,0.017578125,0.25,7.507324,3.7231445,-12.512207,0.0,0.0,0.0,-7.739868,78.72803,-18.62732
1768033411417,-1.0722656,0.018066406,0.2607422,2.8686523,-10.803223,-0.79345703,0.0,0.0,0.0,-7.739868,78.72803,-18.62732
1768033411429,-1.0722656,0.018066406,0.2607422,2.8686523,-10.803223,-0.79345703,0.0,0.0,0.0,-10.50293,78.601685,-22.445068
1768033411517,-0.9399414,-0.045410156,0.11035156,0.8544922,-4.4555664,-2.9296875,0.0,0.0,0.0,-10.50293,78.601685,-22.445068
1768033411529,-0.9399414,-0.045410156,0.11035156,0.8544922,-4.4555664,-2.9296875,0.0,0.0,0.0,-7.8222656,76.4978,-19.06128
1768033411617,-0.984375,0.0014648438,0.22460938,0.5493164,0.6713867,-0.61035156,0.0,0.0,0.0,-7.8222656,76.4978,-19.06128
1768033411628,-0.984375,0.0014648438,0.22460938,0.5493164,0.6713867,-0.61035156,0.0,0.0,0.0,-9.118652,77.15149,-20.55542
1768033411716,-1.0048828,-0.04296875,0.1743164,-5.1879883,4.9438477,3.4179688,0.0,0.0,0.0,-9.118652,77.15149,-20.55542
1768033411728,-1.0048828,-0.04296875,0.1743164,-5.1879883,4.9438477,3.4179688,0.0,0.0,0.0,-7.7233887,77.08557,-18.753662
1768033411816,-1.0351562,-0.020019531,0.17285156,-4.638672,3.1738281,3.7231445,0.0,0.0,0.0,-7.7233887,77.08557,-18.753662
1768033411828,-1.0351562,-0.020019531,0.17285156,-4.638672,3.1738281,3.7231445,0.0,0.0,0.0,-7.0147705,77.79968,-17.402344
1768033411916,-1.0048828,-0.008300781,0.140625,-7.5683594,14.6484375,6.4086914,0.0,0.0,0.0,-7.0147705,77.79968,-17.402344
1768033411927,-1.0048828,-0.008300781,0.140625,-7.5683594,14.6484375,6.4086914,0.0,0.0,0.0,-5.564575,78.77197,-15.336914
1768033412016,-0.9658203,0.020996094,0.2241211,2.9296875,2.8686523,6.591797,0.0,0.0,0.0,-5.564575,78.77197,-15.336914
1768033412028,-0.9658203,0.020996094,0.2241211,2.9296875,2.8686523,6.591797,0.0,0.0,0.0,-2.3236084,79.83765,-11.848755
1768033412115,-1.0004883,-0.008300781,0.16503906,-4.8217773,10.864258,8.850098,0.0,0.0,0.0,-2.3236084,79.83765,-11.848755
1768033412127,-1.0004883,-0.008300781,0.16503906,-4.8217773,10.864258,8.850098,0.0,0.0,0.0,2.0819092,79.870605,-7.1740723
1768033412215,-0.9091797,-0.017089844,0.25683594,2.319336,0.24414062,3.540039,0.0,0.0,0.0,2.0819092,79.870605,-7.1740723
1768033412226,-0.9091797,-0.017089844,0.25683594,2.319336,0.24414062,3.540039,0.0,0.0,0.0,5.927124,80.77698,-2.9937744
1768033412314,-0.99853516,-0.017578125,0.24072266,-6.164551,-20.385742,3.9672852,0.0,0.0,0.0,5.927124,80.77698,-2.9937744
1768033412326,-0.99853516,-0.017578125,0.24072266,-6.164551,-20.385742,3.9672852,0.0,0.0,0.0,7.0861816,79.12903,-1.3952637
1768033412414,-0.92333984,0.056152344,0.18603516,1.5258789,-12.268066,4.638672,0.0,0.0,0.0,7.0861816,79.12903,-1.3952637
1768033412426,-0.92333984,0.056152344,0.18603516,1.5258789,-12.268066,4.638672,0.0,0.0,0.0,7.498169,77.21741,-0.91186523
1768033412514,-0.99365234,0.0073242188,0.18261719,1.5869141,-8.728027,2.1362305,0.0,0.0,0.0,7.498169,77.21741,-0.91186523
1768033412525,-0.99365234,0.0073242188,0.18261719,1.5869141,-8.728027,2.1362305,0.0,0.0,0.0,8.096924,76.16272,-0.7525635
1768033412614,-0.9794922,0.037109375,0.22314453,2.0751953,1.0375977,1.4038086,0.0,0.0,0.0,8.096924,76.16272,-0.7525635
1768033412625,-0.9794922,0.037109375,0.22314453,2.0751953,1.0375977,1.4038086,0.0,0.0,0.0,8.970337,75.910034,-0.016479492
1768033412713,-0.9790039,0.032226562,0.21582031,-0.61035156,4.9438477,2.2583008,0.0,0.0,0.0,8.970337,75.910034,-0.016479492
1768033412725,-0.9790039,0.032226562,0.21582031,-0.61035156,4.9438477,2.2583008,0.0,0.0,0.0,9.602051,76.00342,0.3515625
1768033412813,-1.0224609,0.0107421875,0.2368164,-2.319336,-1.4648438,0.36621094,0.0,0.0,0.0,9.602051,76.00342,0.3515625
1768033412825,-1.0224609,0.0107421875,0.2368164,-2.319336,-1.4648438,0.36621094,0.0,0.0,0.0,10.266724,76.58569,1.071167
1768033412913,-1.0249023,0.017578125,0.18603516,-5.554199,-2.6855469,-1.159668,0.0,0.0,0.0,10.266724,76.58569,1.071167
1768033412924,-1.0249023,0.017578125,0.18603516,-5.554199,-2.6855469,-1.159668,0.0,0.0,0.0,9.497681,76.536255,0.5328369
1768033413012,-0.9790039,0.0029296875,0.17578125,-1.2817383,-2.1362305,-2.2583008,0.0,0.0,0.0,9.497681,76.536255,0.5328369
1768033413024,-0.9790039,0.0029296875,0.17578125,-1.2817383,-2.1362305,-2.2583008,0.0,0.0,0.0,8.091431,76.35498,-0.70861816
1768033413112,-0.9711914,-0.0087890625,0.24707031,-3.2348633,12.023926,-6.225586,0.0,0.0,0.0,8.091431,76.35498,-0.70861816
1768033413123,-0.9711914,-0.0087890625,0.24707031,-3.2348633,12.023926,-6.225586,0.0,0.0,0.0,6.097412,77.06909,-2.581787
1768033413212,-0.96240234,0.032714844,0.26171875,-8.666992,3.7841797,-5.004883,0.0,0.0,0.0,6.097412,77.06909,-2.581787
1768033413223,-0.96240234,0.032714844,0.26171875,-8.666992,3.7841797,-5.004883,0.0,0.0,0.0,2.3895264,77.96997,-5.927124
1768033413312,-0.8964844,0.075683594,0.26904297,4.3945312,9.58252,-5.79834,0.0,0.0,0.0,2.3895264,77.96997,-5.927124
1768033413323,-0.8964844,0.075683594,0.26904297,4.3945312,9.58252,-5.79834,0.0,0.0,0.0,0.2911377,78.16223,-7.9815674
1768033413412,-1.0126953,-0.017578125,0.20263672,-13.916016,-21.78955,1.0375977,0.0,0.0,0.0,0.2911377,78.16223,-7.9815674
1768033413423,-1.0126953,-0.017578125,0.20263672,-13.916016,-21.78955,1.0375977,0.0,0.0,0.0,-1.1315918,77.93152,-9.63501
1768033413511,-0.9423828,0.0078125,0.17626953,-3.112793,3.9672852,-4.638672,0.0,0.0,0.0,-1.1315918,77.93152,-9.63501
1768033413522,-0.9423828,0.0078125,0.17626953,-3.112793,3.9672852,-4.638672,0.0,0.0,0.0,-2.3675537,76.9043,-10.26123
1768033413610,-0.984375,-0.04736328,0.2109375,-21.78955,-6.1035156,7.446289,0.0,0.0,0.0,-2.3675537,76.9043,-10.26123
1768033413622,-0.984375,-0.04736328,0.2109375,-21.78955,-6.1035156,7.446289,0.0,0.0,0.0,-3.0377197,76.75049,-9.981079
1768033413710,-0.9667969,0.0073242188,0.22314453,-29.35791,-7.019043,12.634277,0.0,0.0,0.0,-3.0377197,76.75049,-9.981079
1768033413722,-0.9667969,0.0073242188,0.22314453,-29.35791,-7.019043,12.634277,0.0,0.0,0.0,-1.2524414,76.48682,-5.5151367
1768033413810,-1.0063477,0.0107421875,0.1977539,-15.930176,-12.084961,3.2958984,0.0,0.0,0.0,-1.2524414,76.48682,-5.5151367
1768033413821,-1.0063477,0.0107421875,0.1977539,-15.930176,-12.084961,3.2958984,0.0,0.0,0.0,0.32958984,75.547485,-1.9006348
1768033413910,-0.9638672,0.03955078,0.24609375,-24.230957,0.48828125,4.760742,0.0,0.0,0.0,0.32958984,75.547485,-1.9006348
1768033413921,-0.9638672,0.03955078,0.24609375,-24.230957,0.48828125,4.760742,0.0,0.0,0.0,-0.2581787,75.07507,-0.9008789
1768033414009,-0.98535156,0.01953125,0.27929688,-24.841309,-20.019531,7.080078,0.0,0.0,0.0,-0.2581787,75.07507,-0.9008789
1768033414021,-0.98535156,0.01953125,0.27929688,-24.841309,-20.019531,7.080078,0.0,0.0,0.0,0.5328369,74.42139,1.807251
1768033414109,-1.0341797,0.018066406,0.28027344,-20.568848,0.36621094,0.8544922,0.0,0.0,0.0,0.5328369,74.42139,1.807251
1768033414121,-1.0341797,0.018066406,0.28027344,-20.568848,0.36621094,0.8544922,0.0,0.0,0.0,-0.06591797,72.70752,3.4387207
1768033414209,-0.8642578,-0.04296875,0.31982422,0.30517578,-0.36621094,-4.0893555,0.0,0.0,0.0,-0.06591797,72.70752,3.4387207
1768033414221,-0.8642578,-0.04296875,0.31982422,0.30517578,-0.36621094,-4.0893555,0.0,0.0,0.0,-1.4611816,73.01514,2.4884033
1768033414308,-0.95410156,-0.09472656,0.39111328,9.887695,9.216309,-3.479004,0.0,0.0,0.0,-1.4611816,73.01514,2.4884033
1768033414320,-0.95410156,-0.09472656,0.39111328,9.887695,9.216309,-3.479004,0.0,0.0,0.0,-3.652954,73.394165,-0.7800293
1768033414408,-0.9765625,0.0029296875,0.3466797,-28.442383,-42.419434,15.197754,0.0,0.0,0.0,-3.652954,73.394165,-0.7800293
1768033414419,-0.9765625,0.0029296875,0.3466797,-28.442383,-42.419434,15.197754,0.0,0.0,0.0,-2.6971436,71.19141,0.77453613
1768033414508,-0.9267578,-0.026367188,0.28808594,13.48877,5.6762695,-4.3945312,0.0,0.0,0.0,-2.6971436,71.19141,0.77453613
1768033414519,-0.9267578,-0.026367188,0.28808594,13.48877,5.6762695,-4.3945312,0.0,0.0,0.0,-2.005005,68.93921,1.2030029
1768033414607,-0.9458008,0.014160156,0.38378906,18.676758,9.460449,-4.211426,0.0,0.0,0.0,-2.005005,68.93921,1.2030029
1768033414619,-0.9458008,0.014160156,0.38378906,18.676758,9.460449,-4.211426,0.0,0.0,0.0,-1.8786621,70.57617,-1.2908936
1768033414707,-0.9448242,-0.019042969,0.3125,-0.7324219,-13.916016,2.6245117,0.0,0.0,0.0,-1.8786621,70.57617,-1.2908936
1768033414719,-0.9448242,-0.019042969,0.3125,-0.7324219,-13.916016,2.6245117,0.0,0.0,0.0,-0.80200195,69.51599,-1.2854004
1768033414807,-0.9794922,-0.010253906,0.32958984,11.535645,15.014648,-3.112793,0.0,0.0,0.0,-0.80200195,69.51599,-1.2854004
1768033414818,-0.9794922,-0.010253906,0.32958984,11.535645,15.014648,-3.112793,0.0,0.0,0.0,-0.31311035,70.131226,-2.010498
1768033414906,-1.0004883,-0.012207031,0.31396484,2.380371,-3.9672852,1.5869141,0.0,0.0,0.0,-0.31311035,70.131226,-2.010498
1768033414918,-1.0004883,-0.012207031,0.31396484,2.380371,-3.9672852,1.5869141,0.0,0.0,0.0,0.060424805,70.5542,-2.7905273
1768033415006,-0.9584961,-0.0029296875,0.29589844,-5.79834,-5.2490234,1.5869141,0.0,0.0,0.0,0.060424805,70.5542,-2.7905273
1768033415018,-0.9584961,-0.0029296875,0.29589844,-5.79834,-5.2490234,1.5869141,0.0,0.0,0.0,-0.021972656,70.1532,-2.911377
1768033415106,-0.9482422,-0.0234375,0.30810547,2.6245117,9.521484,-0.48828125,0.0,0.0,0.0,-0.021972656,70.1532,-2.911377
1768033415118,-0.9482422,-0.0234375,0.30810547,2.6245117,9.521484,-0.48828125,0.0,0.0,0.0,0.17028809,70.4718,-3.048706
1768033415206,-0.92822266,-0.008300781,0.3413086,-2.1972656,11.535645,1.159668,0.0,0.0,0.0,0.17028809,70.4718,-3.048706
1768033415217,-0.92822266,-0.008300781,0.3413086,-2.1972656,11.535645,1.159668,0.0,0.0,0.0,-0.24719238,71.883545,-3.949585
1768033415305,-0.8955078,0.0034179688,0.33447266,-1.5869141,9.094238,2.0751953,0.0,0.0,0.0,-0.24719238,71.883545,-3.949585
1768033415317,-0.8955078,0.0034179688,0.33447266,-1.5869141,9.094238,2.0751953,0.0,0.0,0.0,0.34057617,72.70752,-3.2244873
1768033415405,-0.95654297,-4.8828125E-4,0.36279297,15.258789,6.7749023,-7.5683594,0.0,0.0,0.0,0.34057617,72.70752,-3.2244873
1768033415416,-0.95654297,-4.8828125E-4,0.36279297,15.258789,6.7749023,-7.5683594,0.0,0.0,0.0,-0.18676758,73.56445,-4.7406006
1768033415505,-0.91552734,-0.025878906,0.2734375,-2.380371,-21.057129,-2.4414062,0.0,0.0,0.0,-0.18676758,73.56445,-4.7406006
1768033415516,-0.91552734,-0.025878906,0.2734375,-2.380371,-21.057129,-2.4414062,0.0,0.0,0.0,-0.43395996,71.52649,-5.1470947
1768033415604,-0.9633789,0.0053710938,0.2998047,12.634277,9.887695,-4.8828125,0.0,0.0,0.0,-0.43395996,71.52649,-5.1470947
1768033415616,-0.9633789,0.0053710938,0.2998047,12.634277,9.887695,-4.8828125,0.0,0.0,0.0,-0.9008789,71.61438,-7.091675
1768033415704,-0.9501953,0.013183594,0.30029297,7.446289,-5.3710938,-3.112793,0.0,0.0,0.0,-0.9008789,71.61438,-7.091675
1768033415716,-0.9501953,0.013183594,0.30029297,7.446289,-5.3710938,-3.112793,0.0,0.0,0.0,-0.72509766,71.84509,-8.00354
1768033415804,-0.96484375,0.01171875,0.28515625,12.573242,3.6621094,-6.1035156,0.0,0.0,0.0,-0.72509766,71.84509,-8.00354
1768033415815,-0.96484375,0.01171875,0.28515625,12.573242,3.6621094,-6.1035156,0.0,0.0,0.0,-1.1151123,71.65283,-9.503174
1768033415903,-0.9848633,0.0,0.24560547,3.2958984,-0.61035156,-2.9296875,0.0,0.0,0.0,-1.1151123,71.65283,-9.503174
1768033415915,-0.9848633,0.0,0.24560547,3.2958984,-0.61035156,-2.9296875,0.0,0.0,0.0,-1.5765381,71.94946,-10.92041
1768033416003,-0.9770508,0.06689453,0.3017578,12.145996,9.338379,-3.2348633,0.0,0.0,0.0,-1.5765381,71.94946,-10.92041
1768033416014,-0.9770508,0.06689453,0.3017578,12.145996,9.338379,-3.2348633,0.0,0.0,0.0,-2.27417,72.855835,-12.266235
1768033416103,-0.984375,-0.0043945312,0.25878906,3.6621094,-6.8969727,-0.61035156,0.0,0.0,0.0,-2.27417,72.855835,-12.266235
1768033416114,-0.984375,-0.0043945312,0.25878906,3.6621094,-6.8969727,-0.61035156,0.0,0.0,0.0,-1.439209,72.9657,-12.359619
1768033416202,-0.96191406,-0.012207031,0.28515625,8.850098,11.413574,-0.24414062,0.0,0.0,0.0,-1.439209,72.9657,-12.359619
1768033416214,-0.96191406,-0.012207031,0.28515625,8.850098,11.413574,-0.24414062,0.0,0.0,0.0,-0.41748047,73.21838,-11.656494
1768033416302,-0.8588867,-0.072265625,0.3046875,11.71875,7.2631836,-5.493164,0.0,0.0,0.0,-0.41748047,73.21838,-11.656494
1768033416314,-0.8588867,-0.072265625,0.3046875,11.71875,7.2631836,-5.493164,0.0,0.0,0.0,-0.8239746,74.18518,-13.238525
1768033416402,-0.98339844,-0.037597656,0.3515625,-5.004883,-8.972168,3.479004,0.0,0.0,0.0,-0.8239746,74.18518,-13.238525
1768033416414,-0.98339844,-0.037597656,0.3515625,-5.004883,-8.972168,3.479004,0.0,0.0,0.0,-1.4556885,74.08081,-13.974609
1768033416502,-0.9121094,0.0029296875,0.265625,-14.038086,-31.37207,8.972168,0.0,0.0,0.0,-1.4556885,74.08081,-13.974609
1768033416514,-0.9121094,0.0029296875,0.265625,-14.038086,-31.37207,8.972168,0.0,0.0,0.0,-0.32409668,71.07056,-11.2335205
1768033416601,-0.96240234,-0.03125,0.32226562,7.2631836,10.314941,-3.3569336,0.0,0.0,0.0,-0.32409668,71.07056,-11.2335205
1768033416613,-0.96240234,-0.03125,0.32226562,7.2631836,10.314941,-3.3569336,0.0,0.0,0.0,0.09887695,70.669556,-11.030273
1768033416701,-0.9472656,0.02734375,0.3232422,-1.0986328,-13.244629,0.36621094,0.0,0.0,0.0,0.09887695,70.669556,-11.030273
1768033416712,-0.9472656,0.02734375,0.3232422,-1.0986328,-13.244629,0.36621094,0.0,0.0,0.0,-0.09887695,70.66406,-11.645508
1768033416801,-0.96777344,-0.015625,0.31347656,3.9672852,6.652832,-0.61035156,0.0,0.0,0.0,-0.09887695,70.66406,-11.645508
1768033416812,-0.96777344,-0.015625,0.31347656,3.9672852,6.652832,-0.61035156,0.0,0.0,0.0,0.26916504,70.08179,-11.469727
1768033416900,-0.9892578,0.0014648438,0.31884766,2.746582,2.9296875,-2.5024414,0.0,0.0,0.0,0.26916504,70.08179,-11.469727
1768033416912,-0.9892578,0.0014648438,0.31884766,2.746582,2.9296875,-2.5024414,0.0,0.0,0.0,-0.07141113,70.96619,-12.44751
1768033417000,-1.0058594,-0.020996094,0.28076172,0.18310547,0.5493164,-2.4414062,0.0,0.0,0.0,-0.07141113,70.96619,-12.44751
1768033417011,-1.0058594,-0.020996094,0.28076172,0.18310547,0.5493164,-2.4414062,0.0,0.0,0.0,-0.32958984,71.10901,-12.925415
1768033417100,-0.9458008,-0.028320312,0.25195312,-1.4038086,2.8076172,-3.2958984,0.0,0.0,0.0,-0.32958984,71.10901,-12.925415
1768033417111,-0.9458008,-0.028320312,0.25195312,-1.4038086,2.8076172,-3.2958984,0.0,0.0,0.0,-1.4172363,71.1145,-13.870239
1768033417200,-0.95458984,-0.005859375,0.3227539,0.24414062,19.470215,-6.713867,0.0,0.0,0.0,-1.4172363,71.1145,-13.870239
1768033417211,-0.95458984,-0.005859375,0.3227539,0.24414062,19.470215,-6.713867,0.0,0.0,0.0,-3.3398438,72.52075,-15.759888
1768033417299,-0.86816406,0.033203125,0.3408203,5.3100586,8.483887,-5.432129,0.0,0.0,0.0,-3.3398438,72.52075,-15.759888
1768033417311,-0.86816406,0.033203125,0.3408203,5.3100586,8.483887,-5.432129,0.0,0.0,0.0,-5.3009033,73.811646,-18.078003
1768033417399,-0.99072266,-0.016601562,0.33447266,5.92041,0.36621094,-0.5493164,0.0,0.0,0.0,-5.3009033,73.811646,-18.078003
1768033417410,-0.99072266,-0.016601562,0.33447266,5.92041,0.36621094,-0.5493164,0.0,0.0,0.0,-5.531616,74.24011,-19.050293
1768033417499,-0.92089844,-0.040527344,0.23291016,0.061035156,-16.601562,-0.8544922,0.0,0.0,0.0,-5.531616,74.24011,-19.050293
1768033417510,-0.92089844,-0.040527344,0.23291016,0.061035156,-16.601562,-0.8544922,0.0,0.0,0.0,-4.191284,72.454834,-17.193604
1768033417598,-0.9609375,-0.022949219,0.2890625,13.427734,13.61084,-2.9907227,0.0,0.0,0.0,-4.191284,72.454834,-17.193604
1768033417610,-0.9609375,-0.022949219,0.2890625,13.427734,13.61084,-2.9907227,0.0,0.0,0.0,-4.3670654,72.822876,-18.468018
1768033417698,-0.9604492,-0.037597656,0.27246094,-4.5166016,-8.422852,2.380371,0.0,0.0,0.0,-4.3670654,72.822876,-18.468018
1768033417709,-0.9604492,-0.037597656,0.27246094,-4.5166016,-8.422852,2.380371,0.0,0.0,0.0,-4.0429688,73.19641,-18.517456
1768033417798,-0.98876953,-0.043945312,0.25830078,1.953125,5.6762695,-0.91552734,0.0,0.0,0.0,-4.0429688,73.19641,-18.517456
1768033417809,-0.98876953,-0.043945312,0.25830078,1.953125,5.6762695,-0.91552734,0.0,0.0,0.0,-3.9385986,72.83386,-18.001099
1768033417897,-0.99316406,-0.020507812,0.23486328,-9.82666,-5.493164,2.1972656,0.0,0.0,0.0,-3.9385986,72.83386,-18.001099
1768033417909,-0.99316406,-0.020507812,0.23486328,-9.82666,-5.493164,2.1972656,0.0,0.0,0.0,-4.4659424,73.21289,-18.314209
1768033417997,-0.9863281,0.05029297,0.27246094,0.8544922,6.4086914,4.8828125,0.0,0.0,0.0,-4.4659424,73.21289,-18.314209
1768033418009,-0.9863281,0.05029297,0.27246094,0.8544922,6.4086914,4.8828125,0.0,0.0,0.0,-4.3395996,73.515015,-17.418823
1768033418097,-0.97998047,-0.014160156,0.24560547,-5.9814453,-4.5166016,3.479004,0.0,0.0,0.0,-4.3395996,73.515015,-17.418823
1768033418108,-0.97998047,-0.014160156,0.24560547,-5.9814453,-4.5166016,3.479004,0.0,0.0,0.0,-2.9608154,73.71277,-15.90271
1768033418196,-0.9404297,-0.0014648438,0.30371094,0.61035156,12.573242,3.2348633,0.0,0.0,0.0,-2.9608154,73.71277,-15.90271
1768033418208,-0.9404297,-0.0014648438,0.30371094,0.61035156,12.573242,3.2348633,0.0,0.0,0.0,-1.5161133,74.278564,-13.754883
1768033418296,-0.8730469,-0.037109375,0.32080078,5.79834,-2.380371,-0.8544922,0.0,0.0,0.0,-1.5161133,74.278564,-13.754883
1768033418308,-0.8730469,-0.037109375,0.32080078,5.79834,-2.380371,-0.8544922,0.0,0.0,0.0,-1.0107422,74.937744,-13.705444
1768033418396,-0.98876953,0.008300781,0.34423828,-2.4414062,-15.625,1.8920898,0.0,0.0,0.0,-1.0107422,74.937744,-13.705444
1768033418407,-0.98876953,0.008300781,0.34423828,-2.4414062,-15.625,1.8920898,0.0,0.0,0.0,-0.670166,73.71277,-13.183594
1768033418495,-0.92285156,0.03857422,0.2783203,-1.2817383,-23.31543,6.5307617,0.0,0.0,0.0,-0.670166,73.71277,-13.183594
1768033418508,-0.92285156,0.03857422,0.2783203,-1.2817383,-23.31543,6.5307617,0.0,0.0,0.0,0.3515625,71.30127,-11.914673
1768033418595,-0.96777344,-0.045410156,0.30566406,9.521484,1.0375977,-1.6479492,0.0,0.0,0.0,0.3515625,71.30127,-11.914673
1768033418607,-0.96777344,-0.045410156,0.30566406,9.521484,1.0375977,-1.6479492,0.0,0.0,0.0,1.5655518,70.790405,-11.733398
1768033418695,-0.953125,0.029785156,0.3125,2.6245117,-9.216309,2.2583008,0.0,0.0,0.0,1.5655518,70.790405,-11.733398
1768033418706,-0.953125,0.029785156,0.3125,2.6245117,-9.216309,2.2583008,0.0,0.0,0.0,2.142334,70.33447,-11.508179
1768033418794,-0.96533203,-0.0234375,0.2866211,3.8452148,9.765625,0.36621094,0.0,0.0,0.0,2.142334,70.33447,-11.508179
1768033418806,-0.96533203,-0.0234375,0.2866211,3.8452148,9.765625,0.36621094,0.0,0.0,0.0,2.8234863,70.38391,-11.365356
1768033418894,-1.0029297,-0.01953125,0.31201172,0.8544922,7.8125,0.061035156,0.0,0.0,0.0,2.8234863,70.38391,-11.365356
1768033418906,-1.0029297,-0.01953125,0.31201172,0.8544922,7.8125,0.061035156,0.0,0.0,0.0,3.1201172,71.83411,-11.469727
1768033418994,-1.0083008,-0.016601562,0.24267578,-2.4414062,3.479004,-0.061035156,0.0,0.0,0.0,3.1201172,71.83411,-11.469727
1768033419005,-1.0083008,-0.016601562,0.24267578,-2.4414062,3.479004,-0.061035156,0.0,0.0,0.0,2.543335,71.94397,-11.623535
1768033419094,-0.97216797,-0.020507812,0.24853516,-0.12207031,6.4697266,-4.8217773,0.0,0.0,0.0,2.543335,71.94397,-11.623535
1768033419105,-0.97216797,-0.020507812,0.24853516,-0.12207031,6.4697266,-4.8217773,0.0,0.0,0.0,1.1480713,72.62512,-12.854004
1768033419193,-0.92822266,-0.018554688,0.2998047,3.7231445,19.958496,-10.437012,0.0,0.0,0.0,1.1480713,72.62512,-12.854004
1768033419205,-0.92822266,-0.018554688,0.2998047,3.7231445,19.958496,-10.437012,0.0,0.0,0.0,-1.9775391,74.21265,-16.281738
1768033419293,-0.8833008,0.012207031,0.31933594,4.8828125,5.554199,-10.070801,0.0,0.0,0.0,-1.9775391,74.21265,-16.281738
1768033419304,-0.8833008,0.012207031,0.31933594,4.8828125,5.554199,-10.070801,0.0,0.0,0.0,-5.630493,75.49255,-20.456543
1768033419393,-0.9838867,0.038085938,0.31201172,2.5634766,-0.9765625,-4.699707,0.0,0.0,0.0,-5.630493,75.49255,-20.456543
1768033419404,-0.9838867,0.038085938,0.31201172,2.5634766,-0.9765625,-4.699707,0.0,0.0,0.0,-7.366333,75.162964,-22.236328
1768033419492,-0.9423828,-0.047851562,0.21582031,-3.4179688,-17.089844,-3.6621094,0.0,0.0,0.0,-7.366333,75.162964,-22.236328
1768033419504,-0.9423828,-0.047851562,0.21582031,-3.4179688,-17.089844,-3.6621094,0.0,0.0,0.0,-7.1136475,73.56995,-21.747437
1768033419592,-0.9638672,-0.0087890625,0.26220703,9.887695,7.019043,-8.728027,0.0,0.0,0.0,-7.1136475,73.56995,-21.747437
1768033419604,-0.9638672,-0.0087890625,0.26220703,9.887695,7.019043,-8.728027,0.0,0.0,0.0,-9.036255,73.55896,-24.472046
1768033419692,-0.96777344,-0.034179688,0.24853516,-0.18310547,-3.2348633,0.4272461,0.0,0.0,0.0,-9.036255,73.55896,-24.472046
1768033419703,-0.96777344,-0.034179688,0.24853516,-0.18310547,-3.2348633,0.4272461,0.0,0.0,0.0,-9.234009,73.53699,-24.823608
1768033419792,-0.9946289,-0.04248047,0.24072266,0.48828125,3.4179688,-0.24414062,0.0,0.0,0.0,-9.234009,73.53699,-24.823608
1768033419803,-0.9946289,-0.04248047,0.24072266,0.48828125,3.4179688,-0.24414062,0.0,0.0,0.0,-9.047241,73.756714,-24.587402
1768033419891,-1.0102539,-0.036621094,0.21533203,-0.7324219,3.2348633,1.7700195,0.0,0.0,0.0,-9.047241,73.756714,-24.587402
1768033419903,-1.0102539,-0.036621094,0.21533203,-0.7324219,3.2348633,1.7700195,0.0,0.0,0.0,-9.299927,74.30603,-24.713745
1768033419991,-0.97265625,0.0078125,0.25195312,0.91552734,9.887695,5.6152344,0.0,0.0,0.0,-9.299927,74.30603,-24.713745
1768033420003,-0.97265625,0.0078125,0.25195312,0.91552734,9.887695,5.6152344,0.0,0.0,0.0,-8.393555,75.31128,-23.345947
1768033420091,-0.9794922,-0.021972656,0.21240234,-5.3100586,-4.211426,7.9956055,0.0,0.0,0.0,-8.393555,75.31128,-23.345947
1768033420102,-0.9794922,-0.021972656,0.21240234,-5.3100586,-4.211426,7.9956055,0.0,0.0,0.0,-6.2677,75.668335,-20.906982
1768033420190,-0.92822266,-0.027832031,0.29492188,5.3710938,13.305664,5.1879883,0.0,0.0,0.0,-6.2677,75.668335,-20.906982
1768033420202,-0.92822266,-0.027832031,0.29492188,5.3710938,13.305664,5.1879883,0.0,0.0,0.0,-3.3618164,76.38794,-17.41333
1768033420290,-0.87109375,-0.06689453,0.28759766,0.8544922,-8.056641,6.3476562,0.0,0.0,0.0,-3.3618164,76.38794,-17.41333
1768033420302,-0.87109375,-0.06689453,0.28759766,0.8544922,-8.056641,6.3476562,0.0,0.0,0.0,-1.4941406,76.65161,-16.012573
1768033420390,-1.0268555,0.036132812,0.26708984,-9.338379,-33.325195,9.155273,0.0,0.0,0.0,-1.4941406,76.65161,-16.012573
1768033420402,-1.0268555,0.036132812,0.26708984,-9.338379,-33.325195,9.155273,0.0,0.0,0.0,0.9448242,74.33899,-12.491455
1768033420489,-0.9111328,-0.024414062,0.25439453,9.643555,-2.1362305,3.1738281,0.0,0.0,0.0,0.9448242,74.33899,-12.491455
1768033420501,-0.9111328,-0.024414062,0.25439453,9.643555,-2.1362305,3.1738281,0.0,0.0,0.0,3.2519531,72.29553,-10.074463
1768033420589,-0.9868164,-0.009277344,0.3095703,2.1362305,-7.5683594,-0.61035156,0.0,0.0,0.0,3.2519531,72.29553,-10.074463
1768033420601,-0.9868164,-0.009277344,0.3095703,2.1362305,-7.5683594,-0.61035156,0.0,0.0,0.0,3.5760498,72.38342,-10.706177
1768033420689,-0.95947266,0.0,0.26367188,5.6152344,-6.3476562,-3.0517578,0.0,0.0,0.0,3.5760498,72.38342,-10.706177
1768033420700,-0.95947266,0.0,0.26367188,5.6152344,-6.3476562,-3.0517578,0.0,0.0,0.0,3.0706787,71.361694,-11.480713
1768033420789,-0.98046875,-0.013183594,0.2998047,0.36621094,7.8125,-1.8920898,0.0,0.0,0.0,3.0706787,71.361694,-11.480713
1768033420800,-0.98046875,-0.013183594,0.2998047,0.36621094,7.8125,-1.8920898,0.0,0.0,0.0,2.5323486,71.78467,-12.3046875
1768033420888,-0.9873047,-0.03125,0.27197266,-1.0986328,-0.5493164,-3.6010742,0.0,0.0,0.0,2.5323486,71.78467,-12.3046875
1768033420900,-0.9873047,-0.03125,0.27197266,-1.0986328,-0.5493164,-3.6010742,0.0,0.0,0.0,1.4666748,72.27356,-13.469238
1768033420988,-0.9946289,-0.0107421875,0.26464844,-2.5634766,6.591797,-4.699707,0.0,0.0,0.0,1.4666748,72.27356,-13.469238
1768033420999,-0.9946289,-0.0107421875,0.26464844,-2.5634766,6.591797,-4.699707,0.0,0.0,0.0,-0.16479492,72.74048,-14.974365
1768033421088,-0.9472656,-0.036132812,0.25439453,-6.4697266,2.746582,-4.9438477,0.0,0.0,0.0,-0.16479492,72.74048,-14.974365
1768033421099,-0.9472656,-0.036132812,0.25439453,-6.4697266,2.746582,-4.9438477,0.0,0.0,0.0,-2.3565674,73.21838,-16.66626
1768033421187,-0.9741211,-0.012207031,0.2919922,-3.0517578,13.549805,-7.080078,0.0,0.0,0.0,-2.3565674,73.21838,-16.66626
1768033421199,-0.9741211,-0.012207031,0.2919922,-3.0517578,13.549805,-7.080078,0.0,0.0,0.0,-5.29541,74.0863,-19.209595
1768033421287,-0.8535156,0.017089844,0.29248047,4.0893555,6.1035156,-10.009766,0.0,0.0,0.0,-5.29541,74.0863,-19.209595
1768033421298,-0.8535156,0.017089844,0.29248047,4.0893555,6.1035156,-10.009766,0.0,0.0,0.0,-8.723145,74.95422,-22.747192
1768033421387,-1.0092773,0.005859375,0.3232422,4.333496,-3.479004,-3.8452148,0.0,0.0,0.0,-8.723145,74.95422,-22.747192
1768033421398,-1.0092773,0.005859375,0.3232422,4.333496,-3.479004,-3.8452148,0.0,0.0,0.0,-10.349121,75.15747,-25.054321
1768033421487,-0.9194336,-0.029296875,0.20898438,0.0,-21.850586,-2.1972656,0.0,0.0,0.0,-10.349121,75.15747,-25.054321
1768033421498,-0.9194336,-0.029296875,0.20898438,0.0,-21.850586,-2.1972656,0.0,0.0,0.0,-8.745117,72.85034,-22.758179
1768033421586,-0.97216797,-0.00390625,0.2890625,10.314941,9.643555,-4.760742,0.0,0.0,0.0,-8.745117,72.85034,-22.758179
1768033421598,-0.97216797,-0.00390625,0.2890625,10.314941,9.643555,-4.760742,0.0,0.0,0.0,-9.354858,72.90527,-24.241333
1768033421686,-0.97265625,-0.048339844,0.26708984,-2.9907227,-6.4086914,1.953125,0.0,0.0,0.0,-9.354858,72.90527,-24.241333
1768033421697,-0.97265625,-0.048339844,0.26708984,-2.9907227,-6.4086914,1.953125,0.0,0.0,0.0,-8.811035,73.13049,-24.164429
1768033421786,-1.0063477,-0.044921875,0.2397461,-0.18310547,6.713867,1.7089844,0.0,0.0,0.0,-8.811035,73.13049,-24.164429
1768033421797,-1.0063477,-0.044921875,0.2397461,-0.18310547,6.713867,1.7089844,0.0,0.0,0.0,-7.9486084,72.99866,-22.994385
1768033421885,-1.0039062,-0.036621094,0.24560547,-1.7700195,7.9956055,4.0283203,0.0,0.0,0.0,-7.9486084,72.99866,-22.994385
1768033421897,-1.0039062,-0.036621094,0.24560547,-1.7700195,7.9956055,4.0283203,0.0,0.0,0.0,-7.728882,73.98743,-22.747192
1768033421985,-0.9785156,-0.019042969,0.2680664,4.0283203,3.112793,6.286621,0.0,0.0,0.0,-7.728882,73.98743,-22.747192
1768033421996,-0.9785156,-0.019042969,0.2680664,4.0283203,3.112793,6.286621,0.0,0.0,0.0,-5.6469727,74.65759,-20.401611
1768033422085,-0.94677734,-0.019042969,0.25634766,-3.0517578,-1.953125,7.507324,0.0,0.0,0.0,-5.6469727,74.65759,-20.401611
1768033422096,-0.94677734,-0.019042969,0.25634766,-3.0517578,-1.953125,7.507324,0.0,0.0,0.0,-3.0651855,74.7345,-17.737427
1768033422184,-0.89501953,-0.037597656,0.30615234,9.765625,2.0141602,2.380371,0.0,0.0,0.0,-3.0651855,74.7345,-17.737427
1768033422196,-0.89501953,-0.037597656,0.30615234,9.765625,2.0141602,2.380371,0.0,0.0,0.0,-0.8129883,74.92676,-15.501709
1768033422284,-0.95410156,-0.044433594,0.3310547,-4.211426,-12.878418,4.5166016,0.0,0.0,0.0,-0.8129883,74.92676,-15.501709
1768033422295,-0.95410156,-0.044433594,0.3310547,-4.211426,-12.878418,4.5166016,0.0,0.0,0.0,0.5163574,74.25659,-14.507446
1768033422384,-0.9238281,0.033691406,0.28125,-6.225586,-28.564453,10.375977,0.0,0.0,0.0,0.5163574,74.25659,-14.507446
1768033422395,-0.9238281,0.033691406,0.28125,-6.225586,-28.564453,10.375977,0.0,0.0,0.0,2.2906494,71.8396,-11.832275
1768033422483,-0.96875,-0.024414062,0.3149414,6.652832,3.540039,-1.159668,0.0,0.0,0.0,2.2906494,71.8396,-11.832275
1768033422495,-0.96875,-0.024414062,0.3149414,6.652832,3.540039,-1.159668,0.0,0.0,0.0,3.685913,70.85083,-10.717163
1768033422583,-0.95654297,0.025878906,0.328125,-2.0751953,-7.6904297,2.4414062,0.0,0.0,0.0,3.685913,70.85083,-10.717163
1768033422595,-0.95654297,0.025878906,0.328125,-2.0751953,-7.6904297,2.4414062,0.0,0.0,0.0,3.8891602,70.73547,-10.755615
1768033422683,-0.98095703,-0.013183594,0.2783203,-0.61035156,2.1972656,0.7324219,0.0,0.0,0.0,3.8891602,70.73547,-10.755615
1768033422694,-0.98095703,-0.013183594,0.2783203,-0.61035156,2.1972656,0.7324219,0.0,0.0,0.0,4.081421,70.35095,-10.744629
1768033422783,-0.9863281,0.0014648438,0.31884766,1.5869141,16.418457,-3.8452148,0.0,0.0,0.0,4.081421,70.35095,-10.744629
1768033422794,-0.9863281,0.0014648438,0.31884766,1.5869141,16.418457,-3.8452148,0.0,0.0,0.0,3.614502,71.99341,-11.409302
1768033422882,-1.0239258,-0.005859375,0.25097656,-6.591797,4.272461,-1.953125,0.0,0.0,0.0,3.614502,71.99341,-11.409302
1768033422893,-1.0239258,-0.005859375,0.25097656,-6.591797,4.272461,-1.953125,0.0,0.0,0.0,2.3840332,72.614136,-12.3376465
1768033422983,-0.9536133,-0.015136719,0.2529297,-4.4555664,6.8359375,-4.760742,0.0,0.0,0.0,2.3840332,72.614136,-12.3376465
1768033422993,-0.9536133,-0.015136719,0.2529297,-4.4555664,6.8359375,-4.760742,0.0,0.0,0.0,0.46142578,73.54797,-13.842773
1768033423082,-0.9550781,-0.036132812,0.26953125,-6.8359375,14.160156,-7.019043,0.0,0.0,0.0,0.46142578,73.54797,-13.842773
1768033423093,-0.9550781,-0.036132812,0.26953125,-6.8359375,14.160156,-7.019043,0.0,0.0,0.0,-2.109375,74.37195,-15.78186
1768033423183,-0.8984375,0.03857422,0.32177734,5.126953,15.258789,-14.160156,0.0,0.0,0.0,-2.109375,74.37195,-15.78186
1768033423193,-0.8984375,0.03857422,0.32177734,5.126953,15.258789,-14.160156,0.0,0.0,0.0,-7.498169,76.06384,-21.044312
1768033423281,-0.9223633,0.01171875,0.33740234,9.277344,1.6479492,-10.009766,0.0,0.0,0.0,-7.498169,76.06384,-21.044312
1768033423292,-0.9223633,0.01171875,0.33740234,9.277344,1.6479492,-10.009766,0.0,0.0,0.0,-10.513916,76.0199,-24.906006
1768033423381,-0.9604492,-0.05126953,0.20605469,-10.375977,-35.52246,1.953125,0.0,0.0,0.0,-10.513916,76.0199,-24.906006
1768033423392,-0.9604492,-0.05126953,0.20605469,-10.375977,-35.52246,1.953125,0.0,0.0,0.0,-8.673706,73.47107,-22.467041
1768033423480,-0.95458984,-0.024414062,0.2553711,13.427734,10.559082,-7.9345703,0.0,0.0,0.0,-8.673706,73.47107,-22.467041
1768033423492,-0.95458984,-0.024414062,0.2553711,13.427734,10.559082,-7.9345703,0.0,0.0,0.0,-9.437256,73.31726,-24.296265
1768033423580,-0.96728516,-0.033691406,0.26708984,-2.1362305,-5.432129,1.7089844,0.0,0.0,0.0,-9.437256,73.31726,-24.296265
1768033423592,-0.96728516,-0.033691406,0.26708984,-2.1362305,-5.432129,1.7089844,0.0,0.0,0.0,-9.783325,73.47656,-24.949951
1768033423680,-1.0029297,-0.051757812,0.24414062,-2.9296875,2.5634766,2.9907227,0.0,0.0,0.0,-9.783325,73.47656,-24.949951
1768033423691,-1.0029297,-0.051757812,0.24414062,-2.9296875,2.5634766,2.9907227,0.0,0.0,0.0,-9.091187,73.465576,-24.01062
1768033423779,-1.0307617,-0.045898438,0.22314453,-3.0517578,8.300781,3.9672852,0.0,0.0,0.0,-9.091187,73.465576,-24.01062
1768033423791,-1.0307617,-0.045898438,0.22314453,-3.0517578,8.300781,3.9672852,0.0,0.0,0.0,-8.739624,74.07532,-23.15918
1768033423879,-0.94970703,-0.0048828125,0.28515625,2.380371,5.432129,7.080078,0.0,0.0,0.0,-8.739624,74.07532,-23.15918
1768033423890,-0.94970703,-0.0048828125,0.28515625,2.380371,5.432129,7.080078,0.0,0.0,0.0,-7.8222656,75.28931,-21.94519
1768033423979,-0.9824219,-0.037597656,0.24414062,-5.2490234,-5.065918,10.925293,0.0,0.0,0.0,-7.8222656,75.28931,-21.94519
1768033423990,-0.9824219,-0.037597656,0.24414062,-5.2490234,-5.065918,10.925293,0.0,0.0,0.0,-4.6966553,75.097046,-18.435059
1768033424079,-0.9213867,-0.011230469,0.3076172,4.760742,1.953125,7.446289,0.0,0.0,0.0,-4.6966553,75.097046,-18.435059
1768033424090,-0.9213867,-0.011230469,0.3076172,4.760742,1.953125,7.446289,0.0,0.0,0.0,-1.1975098,75.36621,-14.534912
1768033424178,-0.8828125,-0.053222656,0.3076172,1.5258789,-9.643555,5.554199,0.0,0.0,0.0,-1.1975098,75.36621,-14.534912
1768033424190,-0.8828125,-0.053222656,0.3076172,1.5258789,-9.643555,5.554199,0.0,0.0,0.0,0.9448242,74.84436,-12.76062
1768033424278,-1.0126953,0.07421875,0.2841797,-3.3569336,-33.63037,4.4555664,0.0,0.0,0.0,0.9448242,74.84436,-12.76062
1768033424289,-1.0126953,0.07421875,0.2841797,-3.3569336,-33.63037,4.4555664,0.0,0.0,0.0,1.9830322,72.734985,-11.387329
1768033424378,-0.921875,-0.05029297,0.2783203,11.230469,4.4555664,-2.9907227,0.0,0.0,0.0,1.9830322,72.734985,-11.387329
1768033424390,-0.921875,-0.05029297,0.2783203,11.230469,4.4555664,-2.9907227,0.0,0.0,0.0,3.213501,71.02112,-10.651245
1768033424477,-0.9814453,0.014160156,0.3178711,-6.5307617,-7.6293945,2.9907227,0.0,0.0,0.0,3.213501,71.02112,-10.651245
1768033424489,-0.9814453,0.014160156,0.3178711,-6.5307617,-7.6293945,2.9907227,0.0,0.0,0.0,3.1585693,71.42761,-11.337891
1768033424577,-0.95703125,-0.0073242188,0.26660156,0.7324219,-1.2207031,0.8544922,0.0,0.0,0.0,3.1585693,71.42761,-11.337891
1768033424589,-0.95703125,-0.0073242188,0.26660156,0.7324219,-1.2207031,0.8544922,0.0,0.0,0.0,3.3892822,70.59265,-10.942383
1768033424677,-0.9760742,-0.026855469,0.30371094,-4.760742,17.028809,-1.6479492,0.0,0.0,0.0,3.3892822,70.59265,-10.942383
1768033424688,-0.9760742,-0.026855469,0.30371094,-4.760742,17.028809,-1.6479492,0.0,0.0,0.0,3.1915283,71.674805,-10.958862
1768033424776,-1.0385742,9.765625E-4,0.27783203,-14.526367,1.2817383,4.760742,0.0,0.0,0.0,3.1915283,71.674805,-10.958862
1768033424788,-1.0385742,9.765625E-4,0.27783203,-14.526367,1.2817383,4.760742,0.0,0.0,0.0,1.9281006,72.69653,-11.497192
1768033424876,-0.97802734,-0.022949219,0.24853516,-19.65332,7.8125,2.5024414,0.0,0.0,0.0,1.9281006,72.69653,-11.497192
1768033424888,-0.97802734,-0.022949219,0.24853516,-19.65332,7.8125,2.5024414,0.0,0.0,0.0,1.3293457,73.35022,-10.453491
1768033424976,-0.9379883,-0.024902344,0.2841797,-15.380859,15.930176,-2.4414062,0.0,0.0,0.0,1.3293457,73.35022,-10.453491
1768033424988,-0.9379883,-0.024902344,0.2841797,-15.380859,15.930176,-2.4414062,0.0,0.0,0.0,-0.6427002,74.37195,-10.843506
1768033425075,-0.87597656,0.03955078,0.32421875,-6.958008,10.009766,-6.591797,0.0,0.0,0.0,-0.6427002,74.37195,-10.843506
1768033425087,-0.87597656,0.03955078,0.32421875,-6.958008,10.009766,-6.591797,0.0,0.0,0.0,-4.5977783,75.93201,-13.793335
1768033425175,-0.92333984,0.0043945312,0.3701172,-8.483887,-1.0986328,2.746582,0.0,0.0,0.0,-4.5977783,75.93201,-13.793335
1768033425187,-0.92333984,0.0043945312,0.3701172,-8.483887,-1.0986328,2.746582,0.0,0.0,0.0,-5.8007812,75.50354,-14.018555
1768033425275,-0.96728516,-0.013183594,0.24853516,-33.87451,-41.56494,19.958496,0.0,0.0,0.0,-5.8007812,75.50354,-14.018555
1768033425286,-0.96728516,-0.013183594,0.24853516,-33.87451,-41.56494,19.958496,0.0,0.0,0.0,-2.581787,73.256836,-9.327393
1768033425375,-0.97265625,0.009277344,0.24414062,-9.277344,9.094238,4.638672,0.0,0.0,0.0,-2.581787,73.256836,-9.327393
1768033425386,-0.97265625,0.009277344,0.24414062,-9.277344,9.094238,4.638672,0.0,0.0,0.0,-1.0546875,71.66382,-6.361084
1768033425474,-0.9628906,0.040527344,0.30517578,-15.991211,-1.159668,10.131836,0.0,0.0,0.0,-1.0546875,71.66382,-6.361084
1768033425486,-0.9628906,0.040527344,0.30517578,-15.991211,-1.159668,10.131836,0.0,0.0,0.0,0.28015137,72.44385,-3.6694336
1768033425574,-0.97509766,-0.036132812,0.22216797,-28.625488,-11.779785,8.728027,0.0,0.0,0.0,0.28015137,72.44385,-3.6694336
1768033425585,-0.97509766,-0.036132812,0.22216797,-28.625488,-11.779785,8.728027,0.0,0.0,0.0,1.675415,71.52649,-0.28564453
1768033425674,-0.99560547,-0.014160156,0.26220703,-40.771484,6.8359375,9.338379,0.0,0.0,0.0,1.675415,71.52649,-0.28564453
1768033425685,-0.99560547,-0.014160156,0.26220703,-40.771484,6.8359375,9.338379,0.0,0.0,0.0,0.32958984,71.49353,1.5875244
1768033425773,-0.9970703,0.06201172,0.33447266,-40.283203,-3.6621094,13.48877,0.0,0.0,0.0,0.32958984,71.49353,1.5875244
1768033425785,-0.9970703,0.06201172,0.33447266,-40.283203,-3.6621094,13.48877,0.0,0.0,0.0,-0.6152344,71.93848,4.5758057
1768033425873,-0.95947266,-0.056152344,0.2890625,-42.114258,-2.6245117,7.9956055,0.0,0.0,0.0,-0.6152344,71.93848,4.5758057
1768033425884,-0.95947266,-0.056152344,0.2890625,-42.114258,-2.6245117,7.9956055,0.0,0.0,0.0,-1.7797852,71.64734,6.6467285
1768033425973,-0.8491211,-0.045898438,0.35498047,-21.42334,10.131836,-5.004883,0.0,0.0,0.0,-1.7797852,71.64734,6.6467285
1768033425985,-0.8491211,-0.045898438,0.35498047,-21.42334,10.131836,-5.004883,0.0,0.0,0.0,-4.5318604,72.01538,7.13562
1768033426072,-0.9589844,-0.05419922,0.4008789,-14.892578,-3.0517578,2.0141602,0.0,0.0,0.0,-4.5318604,72.01538,7.13562
1768033426084,-0.9589844,-0.05419922,0.4008789,-14.892578,-3.0517578,2.0141602,0.0,0.0,0.0,-8.245239,72.60315,4.2681885
1768033426172,-0.921875,-0.026367188,0.36621094,-23.4375,-29.11377,14.831543,0.0,0.0,0.0,-8.245239,72.60315,4.2681885
1768033426184,-0.921875,-0.026367188,0.36621094,-23.4375,-29.11377,14.831543,0.0,0.0,0.0,-6.465454,70.3125,8.190308
1768033426272,-0.91748047,-0.08935547,0.32910156,-1.8920898,2.9907227,1.4038086,0.0,0.0,0.0,-6.465454,70.3125,8.190308
1768033426283,-0.91748047,-0.08935547,0.32910156,-1.8920898,2.9907227,1.4038086,0.0,0.0,0.0,-4.993286,69.087524,9.761353
1768033426372,-0.9267578,0.020996094,0.3671875,1.0375977,-8.7890625,2.1362305,0.0,0.0,0.0,-4.993286,69.087524,9.761353
1768033426383,-0.9267578,0.020996094,0.3671875,1.0375977,-8.7890625,2.1362305,0.0,0.0,0.0,-5.19104,68.933716,9.453735
1768033426471,-0.97998047,-0.053222656,0.3564453,5.859375,-1.7089844,0.0,0.0,0.0,0.0,-5.19104,68.933716,9.453735
1768033426483,-0.97998047,-0.053222656,0.3564453,5.859375,-1.7089844,0.0,0.0,0.0,0.0,-3.883667,68.15918,9.953613
1768033426571,-0.97314453,-0.045410156,0.3095703,3.7231445,6.3476562,-0.18310547,0.0,0.0,0.0,-3.883667,68.15918,9.953613
1768033426583,-0.97314453,-0.045410156,0.3095703,3.7231445,6.3476562,-0.18310547,0.0,0.0,0.0,-3.4716797,68.516235,8.99231
1768033426671,-0.9663086,-0.03466797,0.30664062,-0.18310547,18.493652,0.0,0.0,0.0,0.0,-3.4716797,68.516235,8.99231
1768033426682,-0.9663086,-0.03466797,0.30664062,-0.18310547,18.493652,0.0,0.0,0.0,0.0,-3.7298584,69.80713,8.1188965
1768033426770,-0.9824219,0.018554688,0.35498047,-1.0986328,15.014648,3.0517578,0.0,0.0,0.0,-3.7298584,69.80713,8.1188965
1768033426782,-0.9824219,0.018554688,0.35498047,-1.0986328,15.014648,3.0517578,0.0,0.0,0.0,-3.9440918,71.85608,7.261963
1768033426870,-0.9511719,-0.016601562,0.31103516,5.432129,5.1879883,5.92041,0.0,0.0,0.0,-3.9440918,71.85608,7.261963
1768033426881,-0.9511719,-0.016601562,0.31103516,5.432129,5.1879883,5.92041,0.0,0.0,0.0,-1.9390869,72.14172,9.162598
1768033426970,-0.8745117,-0.049316406,0.41601562,44.128418,49.621582,-11.962891,0.0,0.0,0.0,-1.9390869,72.14172,9.162598
1768033426983,-0.8745117,-0.049316406,0.41601562,44.128418,49.621582,-11.962891,0.0,0.0,0.0,-1.40625,75.371704,6.558838
1768033427069,-0.9970703,0.045410156,0.28710938,-5.004883,-53.28369,19.40918,0.0,0.0,0.0,-1.40625,75.371704,6.558838
1768033427081,-0.9970703,0.045410156,0.28710938,-5.004883,-53.28369,19.40918,0.0,0.0,0.0,1.6699219,75.06958,6.9543457
1768033427169,-0.95410156,0.023925781,0.15332031,25.634766,-4.760742,-4.5776367,0.0,0.0,0.0,1.6699219,75.06958,6.9543457
1768033427181,-0.95410156,0.023925781,0.15332031,25.634766,-4.760742,-4.5776367,0.0,0.0,0.0,4.1693115,69.851074,9.596558
1768033427269,-0.93408203,0.043945312,0.32128906,13.793945,22.033691,-1.7089844,0.0,0.0,0.0,4.1693115,69.851074,9.596558
1768033427280,-0.93408203,0.043945312,0.32128906,13.793945,22.033691,-1.7089844,0.0,0.0,0.0,5.3063965,72.454834,9.014282
1768033427368,-1.0170898,0.0043945312,0.24560547,-12.451172,-27.09961,6.591797,0.0,0.0,0.0,5.3063965,72.454834,9.014282
1768033427380,-1.0170898,0.0043945312,0.24560547,-12.451172,-27.09961,6.591797,0.0,0.0,0.0,6.223755,71.60889,9.810791
1768033427468,-1.0,0.022949219,0.24121094,-0.30517578,23.986816,-3.6010742,0.0,0.0,0.0,6.223755,71.60889,9.810791
1768033427480,-1.0,0.022949219,0.24121094,-0.30517578,23.986816,-3.6010742,0.0,0.0,0.0,5.5810547,71.90552,9.42627
1768033427568,-0.9501953,0.055664062,0.31298828,0.18310547,0.6713867,-0.48828125,0.0,0.0,0.0,5.5810547,71.90552,9.42627
1768033427579,-0.9501953,0.055664062,0.31298828,0.18310547,0.6713867,-0.48828125,0.0,0.0,0.0,4.949341,73.48755,8.580322
1768033427667,-1.0605469,0.0087890625,0.2626953,-25.939941,-15.50293,2.746582,0.0,0.0,0.0,4.949341,73.48755,8.580322
1768033427679,-1.0605469,0.0087890625,0.2626953,-25.939941,-15.50293,2.746582,0.0,0.0,0.0,3.9276123,72.27905,9.069214
1768033427767,-0.98291016,0.072265625,0.29003906,0.9765625,14.770508,-8.728027,0.0,0.0,0.0,3.9276123,72.27905,9.069214
1768033427779,-0.98291016,0.072265625,0.29003906,0.9765625,14.770508,-8.728027,0.0,0.0,0.0,1.6040039,72.77893,7.640991
1768033427867,-0.87597656,-0.1508789,0.3022461,16.784668,29.785156,-15.380859,0.0,0.0,0.0,1.6040039,72.77893,7.640991
1768033427878,-0.87597656,-0.1508789,0.3022461,16.784668,29.785156,-15.380859,0.0,0.0,0.0,-2.1478271,75.17944,2.213745
1768033427967,-0.9536133,-0.0107421875,0.27294922,-31.37207,-26.123047,5.7373047,0.0,0.0,0.0,-2.1478271,75.17944,2.213745
1768033427978,-0.9536133,-0.0107421875,0.27294922,-31.37207,-26.123047,5.7373047,0.0,0.0,0.0,-5.4052734,75.08057,-0.26367188
1768033428066,-0.95458984,-0.05517578,0.24804688,9.70459,16.723633,-13.122559,0.0,0.0,0.0,-5.4052734,75.08057,-0.26367188
1768033428078,-0.95458984,-0.05517578,0.24804688,9.70459,16.723633,-13.122559,0.0,0.0,0.0,-6.9433594,74.42139,-0.99975586
1768033428166,-0.9501953,-0.016601562,0.30615234,7.385254,2.319336,-9.277344,0.0,0.0,0.0,-6.9433594,74.42139,-0.99975586
1768033428177,-0.9501953,-0.016601562,0.30615234,7.385254,2.319336,-9.277344,0.0,0.0,0.0,-10.772095,75.267334,-5.4382324
1768033428266,-1.0004883,-0.045410156,0.22851562,-1.2207031,-10.498047,-0.7324219,0.0,0.0,0.0,-10.772095,75.267334,-5.4382324
1768033428277,-1.0004883,-0.045410156,0.22851562,-1.2207031,-10.498047,-0.7324219,0.0,0.0,0.0,-11.140137,74.245605,-6.2182617
1768033428365,-0.9824219,-0.045898438,0.22216797,-2.1362305,9.765625,-0.7324219,0.0,0.0,0.0,-11.140137,74.245605,-6.2182617
1768033428377,-0.9824219,-0.045898438,0.22216797,-2.1362305,9.765625,-0.7324219,0.0,0.0,0.0,-11.5686035,74.61914,-6.569824
1768033428465,-1.0209961,-0.07324219,0.22216797,-8.850098,13.061523,5.065918,0.0,0.0,0.0,-11.5686035,74.61914,-6.569824
1768033428477,-1.0209961,-0.07324219,0.22216797,-8.850098,13.061523,5.065918,0.0,0.0,0.0,-11.623535,75.76721,-6.157837
1768033428565,-1.0214844,-0.025390625,0.22265625,-5.6762695,8.544922,9.521484,0.0,0.0,0.0,-11.623535,75.76721,-6.157837
1768033428576,-1.0214844,-0.025390625,0.22265625,-5.6762695,8.544922,9.521484,0.0,0.0,0.0,-10.881958,77.06909,-4.3011475
1768033428664,-0.86376953,-0.024902344,0.2602539,20.568848,20.141602,-6.958008,0.0,0.0,0.0,-10.881958,77.06909,-4.3011475
1768033428676,-0.86376953,-0.024902344,0.2602539,20.568848,20.141602,-6.958008,0.0,0.0,0.0,-9.8272705,78.349,-3.5540771
1768033428764,-0.9458008,-0.12646484,0.2709961,18.249512,-8.117676,-5.9814453,0.0,0.0,0.0,-9.8272705,78.349,-3.5540771
1768033428776,-0.9458008,-0.12646484,0.2709961,18.249512,-8.117676,-5.9814453,0.0,0.0,0.0,-13.996582,79.25537,-10.376587
1768033428864,-0.9116211,-0.024902344,0.18945312,0.6713867,-39.001465,0.0,0.0,0.0,0.0,-13.996582,79.25537,-10.376587
1768033428875,-0.9116211,-0.024902344,0.18945312,0.6713867,-39.001465,0.0,0.0,0.0,0.0,-11.030273,75.39368,-6.223755
1768033428963,-0.9838867,-0.03515625,0.24365234,-16.540527,-6.8359375,2.9296875,0.0,0.0,0.0,-11.030273,75.39368,-6.223755
1768033428975,-0.9838867,-0.03515625,0.24365234,-16.540527,-6.8359375,2.9296875,0.0,0.0,0.0,-10.975342,74.174194,-5.6469727
1768033429063,-1.0024414,-0.03173828,0.21533203,-22.888184,-11.71875,6.225586,0.0,0.0,0.0,-10.975342,74.174194,-5.6469727
1768033429075,-1.0024414,-0.03173828,0.21533203,-22.888184,-11.71875,6.225586,0.0,0.0,0.0,-10.409546,73.30078,-3.147583
1768033429163,-0.99658203,-0.04345703,0.19091797,-33.26416,0.4272461,8.972168,0.0,0.0,0.0,-10.409546,73.30078,-3.147583
1768033429175,-0.99658203,-0.04345703,0.19091797,-33.26416,0.4272461,8.972168,0.0,0.0,0.0,-10.27771,72.93823,-0.24719238
1768033429263,-0.99902344,-0.034179688,0.28808594,-41.07666,7.6904297,11.108398,0.0,0.0,0.0,-10.27771,72.93823,-0.24719238
1768033429274,-0.99902344,-0.034179688,0.28808594,-41.07666,7.6904297,11.108398,0.0,0.0,0.0,-11.442261,74.11926,2.3345947
1768033429362,-1.019043,-0.028320312,0.2705078,-17.51709,0.48828125,9.277344,0.0,0.0,0.0,-11.442261,74.11926,2.3345947
1768033429374,-1.019043,-0.028320312,0.2705078,-17.51709,0.48828125,9.277344,0.0,0.0,0.0,-10.706177,74.503784,6.1358643
1768033429462,-0.9033203,-0.10986328,0.30566406,-4.8828125,14.709473,6.4697266,0.0,0.0,0.0,-10.706177,74.503784,6.1358643
1768033429474,-0.9033203,-0.10986328,0.30566406,-4.8828125,14.709473,6.4697266,0.0,0.0,0.0,-9.008789,75.51453,8.898926
1768033429562,-0.96875,-0.080078125,0.31445312,0.0,-9.58252,5.7373047,0.0,0.0,0.0,-9.008789,75.51453,8.898926
1768033429573,-0.96875,-0.080078125,0.31445312,0.0,-9.58252,5.7373047,0.0,0.0,0.0,-8.410034,75.83313,9.415283
1768033429662,-0.95654297,0.025390625,0.24853516,17.028809,-8.178711,-0.18310547,0.0,0.0,0.0,-8.410034,75.83313,9.415283
1768033429673,-0.95654297,0.025390625,0.24853516,17.028809,-8.178711,-0.18310547,0.0,0.0,0.0,-5.7678223,73.8501,11.810303
1768033429761,-0.92041016,-0.056152344,0.32958984,47.302246,10.009766,-17.51709,0.0,0.0,0.0,-5.7678223,73.8501,11.810303
1768033429773,-0.92041016,-0.056152344,0.32958984,47.302246,10.009766,-17.51709,0.0,0.0,0.0,-6.558838,74.262085,7.46521
1768033429862,-0.96240234,-0.025878906,0.27197266,28.9917,-21.54541,-2.319336,0.0,0.0,0.0,-6.558838,74.262085,7.46521
1768033429872,-0.96240234,-0.025878906,0.27197266,28.9917,-21.54541,-2.319336,0.0,0.0,0.0,-5.9051514,73.498535,4.0704346
1768033429961,-0.9638672,-0.053710938,0.27734375,37.353516,12.451172,-7.3242188,0.0,0.0,0.0,-5.9051514,73.498535,4.0704346
1768033429972,-0.9638672,-0.053710938,0.27734375,37.353516,12.451172,-7.3242188,0.0,0.0,0.0,-4.0649414,72.54822,2.3016357
1768033430060,-0.953125,-0.045410156,0.27539062,16.784668,-5.3710938,2.6245117,0.0,0.0,0.0,-4.0649414,72.54822,2.3016357
1768033430072,-0.953125,-0.045410156,0.27539062,16.784668,-5.3710938,2.6245117,0.0,0.0,0.0,-2.7520752,73.58093,0.34606934
1768033430160,-0.9555664,-0.06201172,0.21533203,10.7421875,-2.5634766,3.540039,0.0,0.0,0.0,-2.7520752,73.58093,0.34606934
1768033430172,-0.9555664,-0.06201172,0.21533203,10.7421875,-2.5634766,3.540039,0.0,0.0,0.0,0.09887695,72.493286,2.3620605
1768033430260,-1.0043945,-0.03515625,0.26464844,3.7841797,8.056641,4.5166016,0.0,0.0,0.0,0.09887695,72.493286,2.3620605
1768033430272,-1.0043945,-0.03515625,0.26464844,3.7841797,8.056641,4.5166016,0.0,0.0,0.0,1.7358398,73.361206,3.3618164
1768033430359,-0.98339844,0.001953125,0.23242188,-1.2207031,0.6713867,2.0141602,0.0,0.0,0.0,1.7358398,73.361206,3.3618164
1768033430371,-0.98339844,0.001953125,0.23242188,-1.2207031,0.6713867,2.0141602,0.0,0.0,0.0,2.6861572,73.66333,4.6417236
1768033430459,-0.9658203,-0.016601562,0.2861328,12.084961,17.700195,-9.643555,0.0,0.0,0.0,2.6861572,73.66333,4.6417236
1768033430471,-0.9658203,-0.016601562,0.2861328,12.084961,17.700195,-9.643555,0.0,0.0,0.0,1.675415,74.78943,3.0322266
1768033430559,-0.9189453,0.030761719,0.3540039,22.338867,5.92041,-13.85498,0.0,0.0,0.0,1.675415,74.78943,3.0322266
1768033430570,-0.9189453,0.030761719,0.3540039,22.338867,5.92041,-13.85498,0.0,0.0,0.0,-1.5655518,76.05835,-1.9281006
1768033430659,-0.9951172,0.009765625,0.2529297,9.338379,-31.799316,-6.286621,0.0,0.0,0.0,-1.5655518,76.05835,-1.9281006
1768033430670,-0.9951172,0.009765625,0.2529297,9.338379,-31.799316,-6.286621,0.0,0.0,0.0,-3.548584,74.696045,-6.020508
1768033430758,-0.9428711,0.052246094,0.23876953,32.714844,1.7089844,-15.197754,0.0,0.0,0.0,-3.548584,74.696045,-6.020508
1768033430770,-0.9428711,0.052246094,0.23876953,32.714844,1.7089844,-15.197754,0.0,0.0,0.0,-4.4439697,73.03162,-9.140625
1768033430858,-0.95996094,0.0,0.3046875,34.484863,-3.90625,-10.498047,0.0,0.0,0.0,-4.4439697,73.03162,-9.140625
1768033430870,-0.95996094,0.0,0.3046875,34.484863,-3.90625,-10.498047,0.0,0.0,0.0,-4.7790527,73.03162,-13.068237
1768033430958,-0.9980469,0.0126953125,0.2529297,20.385742,-18.981934,-5.9814453,0.0,0.0,0.0,-4.7790527,73.03162,-13.068237
1768033430969,-0.9980469,0.0126953125,0.2529297,20.385742,-18.981934,-5.9814453,0.0,0.0,0.0,-3.5595703,71.553955,-14.0789795
1768033431057,-1.0151367,-0.0126953125,0.22851562,23.864746,6.1035156,-9.643555,0.0,0.0,0.0,-3.5595703,71.553955,-14.0789795
1768033431069,-1.0151367,-0.0126953125,0.22851562,23.864746,6.1035156,-9.643555,0.0,0.0,0.0,-3.4661865,71.26831,-16.270752
1768033431157,-0.9814453,0.023925781,0.25732422,19.042969,13.000488,-11.901855,0.0,0.0,0.0,-3.4661865,71.26831,-16.270752
1768033431169,-0.9814453,0.023925781,0.25732422,19.042969,13.000488,-11.901855,0.0,0.0,0.0,-4.993286,72.70203,-19.70398
1768033431257,-1.043457,0.001953125,0.2631836,29.174805,0.79345703,-15.197754,0.0,0.0,0.0,-4.993286,72.70203,-19.70398
1768033431269,-1.043457,0.001953125,0.2631836,29.174805,0.79345703,-15.197754,0.0,0.0,0.0,-6.1138916,72.81189,-23.33496
1768033431356,-0.84228516,-0.109375,0.27734375,32.53174,27.282715,-14.770508,0.0,0.0,0.0,-6.1138916,72.81189,-23.33496
1768033431368,-0.84228516,-0.109375,0.27734375,32.53174,27.282715,-14.770508,0.0,0.0,0.0,-8.739624,74.487305,-28.745728
1768033431456,-0.9140625,-0.07373047,0.3828125,8.666992,7.9345703,0.12207031,0.0,0.0,0.0,-8.739624,74.487305,-28.745728
1768033431468,-0.9140625,-0.07373047,0.3828125,8.666992,7.9345703,0.12207031,0.0,0.0,0.0,-10.579834,76.206665,-32.283325
1768033431556,-0.9628906,-0.03955078,0.25976562,-35.339355,-69.76318,20.874023,0.0,0.0,0.0,-10.579834,76.206665,-32.283325
1768033431568,-0.9628906,-0.03955078,0.25976562,-35.339355,-69.76318,20.874023,0.0,0.0,0.0,-4.75708,71.73523,-23.900757
1768033431656,-0.9633789,-0.041992188,0.2607422,6.8359375,26.611328,-1.5258789,0.0,0.0,0.0,-4.75708,71.73523,-23.900757
1768033431667,-0.9633789,-0.041992188,0.2607422,6.8359375,26.611328,-1.5258789,0.0,0.0,0.0,-2.9882812,70.42236,-21.802368
1768033431755,-0.9501953,-0.01171875,0.3305664,5.7373047,3.4179688,-1.953125,0.0,0.0,0.0,-2.9882812,70.42236,-21.802368
1768033431767,-0.9501953,-0.01171875,0.3305664,5.7373047,3.4179688,-1.953125,0.0,0.0,0.0,-3.7298584,72.53174,-23.48877
1768033431855,-1.0014648,-0.061035156,0.26220703,-2.2583008,-5.554199,-0.4272461,0.0,0.0,0.0,-3.7298584,72.53174,-23.48877
1768033431867,-1.0014648,-0.061035156,0.26220703,-2.2583008,-5.554199,-0.4272461,0.0,0.0,0.0,-3.746338,71.795654,-23.203125
1768033431955,-1.0029297,-0.028808594,0.25048828,7.6904297,15.50293,-8.300781,0.0,0.0,0.0,-3.746338,71.795654,-23.203125
1768033431966,-1.0029297,-0.028808594,0.25048828,7.6904297,15.50293,-8.300781,0.0,0.0,0.0,-5.3448486,72.72949,-25.01587
1768033432055,-0.984375,-0.1015625,0.26416016,1.2817383,10.864258,-10.620117,0.0,0.0,0.0,-5.3448486,72.72949,-25.01587
1768033432066,-0.984375,-0.1015625,0.26416016,1.2817383,10.864258,-10.620117,0.0,0.0,0.0,-8.388062,74.20166,-28.43811
1768033432154,-0.9765625,-0.04638672,0.23730469,-3.9672852,7.8125,-6.8359375,0.0,0.0,0.0,-8.388062,74.20166,-28.43811
1768033432166,-0.9765625,-0.04638672,0.23730469,-3.9672852,7.8125,-6.8359375,0.0,0.0,0.0,-11.705933,74.64111,-30.948486
1768033432254,-0.8442383,-0.009277344,0.2890625,11.779785,20.263672,-14.038086,0.0,0.0,0.0,-11.705933,74.64111,-30.948486
1768033432265,-0.8442383,-0.009277344,0.2890625,11.779785,20.263672,-14.038086,0.0,0.0,0.0,-16.929932,75.94849,-36.359253
1768033432354,-1.0146484,-0.03173828,0.32226562,-0.9765625,-19.714355,0.7324219,0.0,0.0,0.0,-16.929932,75.94849,-36.359253
1768033432365,-1.0146484,-0.03173828,0.32226562,-0.9765625,-19.714355,0.7324219,0.0,0.0,0.0,-17.858276,75.83862,-37.908325
1768033432453,-0.9194336,-0.068359375,0.15771484,4.4555664,-21.972656,-1.953125,0.0,0.0,0.0,-17.858276,75.83862,-37.908325
1768033432466,-0.9194336,-0.068359375,0.15771484,4.4555664,-21.972656,-1.953125,0.0,0.0,0.0,-12.952881,72.24609,-31.651611
1768033432553,-0.98876953,-0.049804688,0.31640625,8.300781,13.061523,-2.9907227,0.0,0.0,0.0,-12.952881,72.24609,-31.651611
1768033432565,-0.98876953,-0.049804688,0.31640625,8.300781,13.061523,-2.9907227,0.0,0.0,0.0,-14.584351,73.24036,-33.969727
1768033432653,-0.9506836,-0.08496094,0.24511719,-9.887695,-13.61084,6.225586,0.0,0.0,0.0,-14.584351,73.24036,-33.969727
1768033432664,-0.9506836,-0.08496094,0.24511719,-9.887695,-13.61084,6.225586,0.0,0.0,0.0,-13.145142,72.872314,-31.816406
1768033432753,-1.003418,-0.06298828,0.26220703,0.061035156,9.399414,2.380371,0.0,0.0,0.0,-13.145142,72.872314,-31.816406
1768033432764,-1.003418,-0.06298828,0.26220703,0.061035156,9.399414,2.380371,0.0,0.0,0.0,-12.859497,73.289795,-31.278076
1768033432852,-0.99560547,-0.0107421875,0.234375,-2.8076172,8.544922,4.699707,0.0,0.0,0.0,-12.859497,73.289795,-31.278076
1768033432864,-0.99560547,-0.0107421875,0.234375,-2.8076172,8.544922,4.699707,0.0,0.0,0.0,-12.216797,74.174194,-30.003662
1768033432952,-0.97314453,-0.037109375,0.25927734,4.272461,1.6479492,3.7231445,0.0,0.0,0.0,-12.216797,74.174194,-30.003662
1768033432963,-0.97314453,-0.037109375,0.25927734,4.272461,1.6479492,3.7231445,0.0,0.0,0.0,-10.294189,74.96521,-28.174438
1768033433052,-0.9248047,-0.045898438,0.27294922,-1.0375977,4.1503906,5.065918,0.0,0.0,0.0,-10.294189,74.96521,-28.174438
1768033433063,-0.9248047,-0.045898438,0.27294922,-1.0375977,4.1503906,5.065918,0.0,0.0,0.0,-8.327637,75.09155,-26.021118
1768033433151,-0.86621094,-0.08886719,0.3046875,1.8920898,-1.0375977,1.7700195,0.0,0.0,0.0,-8.327637,75.09155,-26.021118
1768033433163,-0.86621094,-0.08886719,0.3046875,1.8920898,-1.0375977,1.7700195,0.0,0.0,0.0,-7.300415,75.426636,-24.927979
1768033433251,-1.0410156,0.020019531,0.3095703,-17.028809,-29.907227,9.216309,0.0,0.0,0.0,-7.300415,75.426636,-24.927979
1768033433263,-1.0410156,0.020019531,0.3095703,-17.028809,-29.907227,9.216309,0.0,0.0,0.0,-6.663208,74.14673,-23.23059
1768033433351,-0.9223633,-0.03955078,0.20703125,4.638672,-5.2490234,4.0283203,0.0,0.0,0.0,-6.663208,74.14673,-23.23059
1768033433362,-0.9223633,-0.03955078,0.20703125,4.638672,-5.2490234,4.0283203,0.0,0.0,0.0,-3.515625,71.40564,-19.022827
1768033433450,-0.96777344,-0.001953125,0.3232422,1.7089844,0.18310547,3.7231445,0.0,0.0,0.0,-3.515625,71.40564,-19.022827
1768033433462,-0.96777344,-0.001953125,0.3232422,1.7089844,0.18310547,3.7231445,0.0,0.0,0.0,-2.5323486,71.98242,-18.358154
1768033433550,-0.97509766,-0.01953125,0.28271484,1.2207031,-9.277344,1.3427734,0.0,0.0,0.0,-2.5323486,71.98242,-18.358154
1768033433562,-0.97509766,-0.01953125,0.28271484,1.2207031,-9.277344,1.3427734,0.0,0.0,0.0,-1.373291,71.14746,-17.199097
1768033433650,-0.99609375,-0.030761719,0.296875,8.300781,6.4086914,-5.1879883,0.0,0.0,0.0,-1.373291,71.14746,-17.199097
1768033433661,-0.99609375,-0.030761719,0.296875,8.300781,6.4086914,-5.1879883,0.0,0.0,0.0,-1.4117432,71.32324,-17.962646
1768033433750,-1.0288086,-0.063964844,0.25097656,1.5258789,6.8969727,-7.9345703,0.0,0.0,0.0,-1.4117432,71.32324,-17.962646
1768033433762,-1.0288086,-0.063964844,0.25097656,1.5258789,6.8969727,-7.9345703,0.0,0.0,0.0,-3.0377197,71.86157,-20.220337
1768033433850,-0.92626953,-0.064453125,0.24951172,0.9765625,10.864258,-11.779785,0.0,0.0,0.0,-3.0377197,71.86157,-20.220337
1768033433861,-0.92626953,-0.064453125,0.24951172,0.9765625,10.864258,-11.779785,0.0,0.0,0.0,-6.6412354,72.66907,-23.983154
1768033433949,-0.95703125,-0.025878906,0.35009766,11.535645,27.038574,-17.211914,0.0,0.0,0.0,-6.6412354,72.66907,-23.983154
1768033433960,-0.95703125,-0.025878906,0.35009766,11.535645,27.038574,-17.211914,0.0,0.0,0.0,-12.562866,74.45984,-30.531006
1768033434049,-0.83154297,-0.032226562,0.30566406,0.5493164,-5.3100586,-8.728027,0.0,0.0,0.0,-12.562866,74.45984,-30.531006
1768033434060,-0.83154297,-0.032226562,0.30566406,0.5493164,-5.3100586,-8.728027,0.0,0.0,0.0,-17.149658,75.05859,-35.97473
1768033434148,-1.0424805,-0.03955078,0.2602539,-5.859375,-23.07129,3.2958984,0.0,0.0,0.0,-17.149658,75.05859,-35.97473
1768033434160,-1.0424805,-0.03955078,0.2602539,-5.859375,-23.07129,3.2958984,0.0,0.0,0.0,-16.655273,74.01489,-35.304565
1768033434248,-0.9248047,-0.08642578,0.21533203,4.0893555,8.361816,-4.4555664,0.0,0.0,0.0,-16.655273,74.01489,-35.304565
1768033434260,-0.9248047,-0.08642578,0.21533203,4.0893555,8.361816,-4.4555664,0.0,0.0,0.0,-14.359131,72.21863,-31.981201
1768033434348,-0.9824219,-0.041015625,0.29638672,-3.6621094,2.4414062,1.953125,0.0,0.0,0.0,-14.359131,72.21863,-31.981201
1768033434359,-0.9824219,-0.041015625,0.29638672,-3.6621094,2.4414062,1.953125,0.0,0.0,0.0,-15.864258,73.19641,-33.865356
1768033434447,-0.97753906,-0.06689453,0.23486328,-2.6245117,1.2207031,5.493164,0.0,0.0,0.0,-15.864258,73.19641,-33.865356
1768033434459,-0.97753906,-0.06689453,0.23486328,-2.6245117,1.2207031,5.493164,0.0,0.0,0.0,-14.260254,73.19092,-31.547241
1768033434547,-1.0087891,-0.048828125,0.21484375,0.18310547,12.878418,4.0283203,0.0,0.0,0.0,-14.260254,73.19092,-31.547241
1768033434559,-1.0087891,-0.048828125,0.21484375,0.18310547,12.878418,4.0283203,0.0,0.0,0.0,-13.50769,73.97095,-30.574951
1768033434647,-1.0068359,0.0078125,0.25,-3.2348633,8.911133,11.535645,0.0,0.0,0.0,-13.50769,73.97095,-30.574951
1768033434658,-1.0068359,0.0078125,0.25,-3.2348633,8.911133,11.535645,0.0,0.0,0.0,-12.579346,75.78369,-29.020386
1768033434747,-0.93066406,-0.057128906,0.24511719,1.2207031,-2.0751953,6.225586,0.0,0.0,0.0,-12.579346,75.78369,-29.020386
1768033434759,-0.93066406,-0.057128906,0.24511719,1.2207031,-2.0751953,6.225586,0.0,0.0,0.0,-9.371338,76.239624,-25.532227
1768033434846,-0.87158203,-0.056152344,0.2841797,2.1972656,2.0751953,6.4086914,0.0,0.0,0.0,-9.371338,76.239624,-25.532227
1768033434858,-0.87158203,-0.056152344,0.2841797,2.1972656,2.0751953,6.4086914,0.0,0.0,0.0,-6.6467285,76.34949,-22.60437
1768033434946,-0.9824219,-0.068359375,0.32080078,-9.277344,-17.39502,7.873535,0.0,0.0,0.0,-6.6467285,76.34949,-22.60437
1768033434958,-0.9824219,-0.068359375,0.32080078,-9.277344,-17.39502,7.873535,0.0,0.0,0.0,-4.020996,75.28381,-19.544678
1768033435046,-0.91845703,-0.030761719,0.234375,-10.559082,-28.686523,7.507324,0.0,0.0,0.0,-4.020996,75.28381,-19.544678
1768033435057,-0.91845703,-0.030761719,0.234375,-10.559082,-28.686523,7.507324,0.0,0.0,0.0,-1.7962646,72.3999,-15.891724
1768033435145,-0.9423828,-0.21679688,0.23632812,-24.353027,-0.7324219,0.18310547,0.0,0.0,0.0,-1.7962646,72.3999,-15.891724
1768033435157,-0.9423828,-0.21679688,0.23632812,-24.353027,-0.7324219,0.18310547,0.0,0.0,0.0,-3.5375977,71.50452,-16.331177
1768033435245,-0.9916992,-0.083984375,0.26708984,-61.035156,-3.7231445,7.1411133,0.0,0.0,0.0,-3.5375977,71.50452,-16.331177
1768033435257,-0.9916992,-0.083984375,0.26708984,-61.035156,-3.7231445,7.1411133,0.0,0.0,0.0,-7.7453613,71.57593,-15.57312
1768033435345,-1.0117188,-0.08154297,0.21923828,-43.33496,11.779785,4.8217773,0.0,0.0,0.0,-7.7453613,71.57593,-15.57312
1768033435356,-1.0117188,-0.08154297,0.21923828,-43.33496,11.779785,4.8217773,0.0,0.0,0.0,-11.156616,72.20764,-14.441528
1768033435444,-1.0024414,-0.15429688,0.28125,-34.606934,34.362793,-7.1411133,0.0,0.0,0.0,-11.156616,72.20764,-14.441528
1768033435456,-1.0024414,-0.15429688,0.28125,-34.606934,34.362793,-7.1411133,0.0,0.0,0.0,-18.380127,74.98169,-18.352661
1768033435544,-0.9926758,0.01171875,0.25439453,-34.484863,-10.620117,-2.0751953,0.0,0.0,0.0,-18.380127,74.98169,-18.352661
1768033435556,-0.9926758,0.01171875,0.25439453,-34.484863,-10.620117,-2.0751953,0.0,0.0,0.0,-25.081787,75.7782,-21.84082
1768033435644,-0.80615234,-0.14501953,0.30126953,-2.8076172,32.53174,-26.000977,0.0,0.0,0.0,-25.081787,75.7782,-21.84082
1768033435655,-0.80615234,-0.14501953,0.30126953,-2.8076172,32.53174,-26.000977,0.0,0.0,0.0,-31.942749,75.6189,-27.800903
1768033435744,-1.0249023,-0.043945312,0.25976562,-23.498535,-22.949219,-5.7373047,0.0,0.0,0.0,-31.942749,75.6189,-27.800903
1768033435756,-1.0249023,-0.043945312,0.25976562,-23.498535,-22.949219,-5.7373047,0.0,0.0,0.0,-41.82495,75.24536,-37.996216
1768033435843,-0.90478516,-0.12597656,0.16796875,-15.380859,-24.169922,1.2207031,0.0,0.0,0.0,-41.82495,75.24536,-37.996216
1768033435855,-0.90478516,-0.12597656,0.16796875,-15.380859,-24.169922,1.2207031,0.0,0.0,0.0,-34.002686,72.07031,-26.861572
1768033435943,-0.9658203,-0.140625,0.26904297,-22.033691,-10.7421875,4.5776367,0.0,0.0,0.0,-34.002686,72.07031,-26.861572
1768033435956,-0.9658203,-0.140625,0.26904297,-22.033691,-10.7421875,4.5776367,0.0,0.0,0.0,-33.876343,71.99341,-25.285034
1768033436043,-0.98779297,-0.15527344,0.20166016,-14.404297,-7.446289,1.953125,0.0,0.0,0.0,-33.876343,71.99341,-25.285034
1768033436054,-0.98779297,-0.15527344,0.20166016,-14.404297,-7.446289,1.953125,0.0,0.0,0.0,-32.525024,71.257324,-22.582397
1768033436142,-0.9511719,-0.16308594,0.25634766,-17.333984,-5.126953,4.8828125,0.0,0.0,0.0,-32.525024,71.257324,-22.582397
1768033436154,-0.9511719,-0.16308594,0.25634766,-17.333984,-5.126953,4.8828125,0.0,0.0,0.0,-32.332764,71.18591,-20.9729
1768033436242,-1.0112305,-0.171875,0.28955078,-9.460449,15.441895,4.0283203,0.0,0.0,0.0,-32.332764,71.18591,-20.9729
1768033436254,-1.0112305,-0.171875,0.28955078,-9.460449,15.441895,4.0283203,0.0,0.0,0.0,-33.59619,71.97693,-21.401367
1768033436342,-0.96484375,-0.14208984,0.25878906,4.0283203,5.859375,9.82666,0.0,0.0,0.0,-33.59619,71.97693,-21.401367
1768033436353,-0.96484375,-0.14208984,0.25878906,4.0283203,5.859375,9.82666,0.0,0.0,0.0,-32.711792,73.03162,-20.544434
1768033436442,-0.83984375,-0.21972656,0.3017578,24.536133,29.846191,1.5869141,0.0,0.0,0.0,-32.711792,73.03162,-20.544434
1768033436453,-0.83984375,-0.21972656,0.3017578,24.536133,29.846191,1.5869141,0.0,0.0,0.0,-33.079834,74.729004,-22.890015
1768033436541,-1.0214844,-0.12011719,0.26660156,3.90625,-26.306152,8.544922,0.0,0.0,0.0,-33.079834,74.729004,-22.890015
1768033436553,-1.0214844,-0.12011719,0.26660156,3.90625,-26.306152,8.544922,0.0,0.0,0.0,-30.855103,75.15747,-23.093262
1768033436641,-0.9350586,-0.12109375,0.19677734,37.04834,21.66748,-3.112793,0.0,0.0,0.0,-30.855103,75.15747,-23.093262
1768033436653,-0.9350586,-0.12109375,0.19677734,37.04834,21.66748,-3.112793,0.0,0.0,0.0,-25.0708,74.124756,-19.138184
1768033436741,-0.93310547,-0.1352539,0.26220703,26.062012,9.82666,1.159668,0.0,0.0,0.0,-25.0708,74.124756,-19.138184
1768033436752,-0.93310547,-0.1352539,0.26220703,26.062012,9.82666,1.159668,0.0,0.0,0.0,-26.240845,75.81116,-23.862305
1768033436840,-0.9916992,-0.119140625,0.1772461,12.817383,-14.892578,4.8828125,0.0,0.0,0.0,-26.240845,75.81116,-23.862305
1768033436852,-0.9916992,-0.119140625,0.1772461,12.817383,-14.892578,4.8828125,0.0,0.0,0.0,-22.17041,75.09155,-21.43982
1768033436940,-0.9736328,-0.13916016,0.17382812,9.338379,9.216309,5.6762695,0.0,0.0,0.0,-22.17041,75.09155,-21.43982
1768033436952,-0.9736328,-0.13916016,0.17382812,9.338379,9.216309,5.6762695,0.0,0.0,0.0,-20.25879,75.60791,-20.841064
1768033437040,-1.027832,-0.09716797,0.15917969,2.380371,2.9296875,5.493164,0.0,0.0,0.0,-20.25879,75.60791,-20.841064
1768033437051,-1.027832,-0.09716797,0.15917969,2.380371,2.9296875,5.493164,0.0,0.0,0.0,-18.978882,76.18469,-19.923706
1768033437140,-1.0400391,-0.06982422,0.17578125,-3.8452148,5.2490234,2.0751953,0.0,0.0,0.0,-18.978882,76.18469,-19.923706
1768033437151,-1.0400391,-0.06982422,0.17578125,-3.8452148,5.2490234,2.0751953,0.0,0.0,0.0,-19.324951,76.93176,-19.98413
1768033437239,-1.0268555,-0.06933594,0.16357422,10.375977,13.427734,-2.0141602,0.0,0.0,0.0,-19.324951,76.93176,-19.98413
1768033437251,-1.0268555,-0.06933594,0.16357422,10.375977,13.427734,-2.0141602,0.0,0.0,0.0,-20.170898,77.733765,-21.027832
1768033437339,-0.8857422,-0.048339844,0.2446289,26.489258,8.605957,-9.94873,0.0,0.0,0.0,-20.170898,77.733765,-21.027832
1768033437351,-0.8857422,-0.048339844,0.2446289,26.489258,8.605957,-9.94873,0.0,0.0,0.0,-24.796143,78.95874,-27.592163
1768033437439,-0.94677734,-0.0859375,0.28027344,35.461426,0.061035156,-9.338379,0.0,0.0,0.0,-24.796143,78.95874,-27.592163
1768033437450,-0.94677734,-0.0859375,0.28027344,35.461426,0.061035156,-9.338379,0.0,0.0,0.0,-25.383911,78.464355,-30.81665
1768033437538,-0.99658203,-0.05810547,0.17041016,25.08545,-31.066895,-7.751465,0.0,0.0,0.0,-25.383911,78.464355,-30.81665
1768033437550,-0.99658203,-0.05810547,0.17041016,25.08545,-31.066895,-7.751465,0.0,0.0,0.0,-21.187134,76.45386,-29.251099
1768033437638,-0.9453125,-0.056640625,0.203125,45.10498,2.5634766,-15.197754,0.0,0.0,0.0,-21.187134,76.45386,-29.251099
1768033437650,-0.9453125,-0.056640625,0.203125,45.10498,2.5634766,-15.197754,0.0,0.0,0.0,-20.440063,75.20691,-32.459106
1768033437738,-0.9760742,-0.11035156,0.22998047,18.310547,-1.159668,-3.6621094,0.0,0.0,0.0,-20.440063,75.20691,-32.459106
1768033437750,-0.9760742,-0.11035156,0.22998047,18.310547,-1.159668,-3.6621094,0.0,0.0,0.0,-20.703735,75.0531,-35.716553
1768033437838,-1.0102539,-0.096191406,0.14697266,6.225586,-4.8217773,0.0,0.0,0.0,0.0,-20.703735,75.0531,-35.716553
1768033437849,-1.0102539,-0.096191406,0.14697266,6.225586,-4.8217773,0.0,0.0,0.0,0.0,-19.434814,74.47632,-35.112305
1768033437937,-0.99902344,-0.10253906,0.19140625,6.8359375,17.27295,0.0,0.0,0.0,0.0,-19.434814,74.47632,-35.112305
1768033437949,-0.99902344,-0.10253906,0.19140625,6.8359375,17.27295,0.0,0.0,0.0,0.0,-20.786133,75.58594,-36.83716
1768033438037,-1.0175781,-0.025390625,0.21386719,10.620117,2.8686523,4.333496,0.0,0.0,0.0,-20.786133,75.58594,-36.83716
1768033438048,-1.0175781,-0.025390625,0.21386719,10.620117,2.8686523,4.333496,0.0,0.0,0.0,-21.00586,76.64612,-37.721558
1768033438137,-1.0,-0.087890625,0.20507812,6.8969727,-0.30517578,5.004883,0.0,0.0,0.0,-21.00586,76.64612,-37.721558
1768033438148,-1.0,-0.087890625,0.20507812,6.8969727,-0.30517578,5.004883,0.0,0.0,0.0,-18.825073,77.08557,-36.293335
1768033438236,-0.8510742,-0.095703125,0.25097656,11.230469,3.112793,1.4038086,0.0,0.0,0.0,-18.825073,77.08557,-36.293335
1768033438248,-0.8510742,-0.095703125,0.25097656,11.230469,3.112793,1.4038086,0.0,0.0,0.0,-17.138672,77.51404,-34.7937
1768033438336,-0.9970703,-0.07861328,0.29248047,0.9765625,-24.658203,0.4272461,0.0,0.0,0.0,-17.138672,77.51404,-34.7937
1768033438348,-0.9970703,-0.07861328,0.29248047,0.9765625,-24.658203,0.4272461,0.0,0.0,0.0,-15.001831,76.865845,-33.305054
1768033438436,-0.9355469,-0.0073242188,0.18359375,1.4038086,-12.573242,4.8828125,0.0,0.0,0.0,-15.001831,76.865845,-33.305054
1768033438447,-0.9355469,-0.0073242188,0.18359375,1.4038086,-12.573242,4.8828125,0.0,0.0,0.0,-9.656982,73.27881,-26.987915
1768033438536,-1.0073242,-0.064941406,0.30566406,6.591797,5.1879883,-1.5258789,0.0,0.0,0.0,-9.656982,73.27881,-26.987915
1768033438547,-1.0073242,-0.064941406,0.30566406,6.591797,5.1879883,-1.5258789,0.0,0.0,0.0,-9.651489,74.16321,-27.432861
1768033438635,-0.9760742,-0.057128906,0.19580078,4.8217773,-3.90625,-0.91552734,0.0,0.0,0.0,-9.651489,74.16321,-27.432861
1768033438647,-0.9760742,-0.057128906,0.19580078,4.8217773,-3.90625,-0.91552734,0.0,0.0,0.0,-9.0802,73.45459,-26.680298
1768033438735,-0.97314453,-0.072753906,0.2602539,-0.6713867,22.766113,-2.6245117,0.0,0.0,0.0,-9.0802,73.45459,-26.680298
1768033438746,-0.97314453,-0.072753906,0.2602539,-0.6713867,22.766113,-2.6245117,0.0,0.0,0.0,-10.739136,74.89929,-28.613892
1768033438835,-1.0498047,-0.07861328,0.16601562,-4.211426,7.2631836,-2.5024414,0.0,0.0,0.0,-10.739136,74.89929,-28.613892
1768033438846,-1.0498047,-0.07861328,0.16601562,-4.211426,7.2631836,-2.5024414,0.0,0.0,0.0,-13.249512,76.07483,-30.756226
1768033438934,-0.9345703,-0.11279297,0.21728516,8.422852,33.38623,-13.671875,0.0,0.0,0.0,-13.249512,76.07483,-30.756226
1768033438946,-0.9345703,-0.11279297,0.21728516,8.422852,33.38623,-13.671875,0.0,0.0,0.0,-21.022339,78.68408,-38.463135
1768033439034,-1.0117188,-0.07421875,0.17871094,-1.2817383,-15.441895,-4.5776367,0.0,0.0,0.0,-21.022339,78.68408,-38.463135
1768033439046,-1.0117188,-0.07421875,0.17871094,-1.2817383,-15.441895,-4.5776367,0.0,0.0,0.0,-26.71875,78.79944,-44.483643
1768033439134,-0.95751953,-0.09716797,0.1928711,10.192871,23.864746,-14.343262,0.0,0.0,0.0,-26.71875,78.79944,-44.483643
1768033439145,-0.95751953,-0.09716797,0.1928711,10.192871,23.864746,-14.343262,0.0,0.0,0.0,-31.05835,78.497314,-49.328613
1768033439234,-0.8857422,-0.024902344,0.24951172,8.972168,-6.1035156,-10.070801,0.0,0.0,0.0,-31.05835,78.497314,-49.328613
1768033439246,-0.8857422,-0.024902344,0.24951172,8.972168,-6.1035156,-10.070801,0.0,0.0,0.0,-38.01819,78.45886,-57.354126
1768033439333,-1.034668,-0.140625,0.140625,-2.1972656,-29.724121,2.6245117,0.0,0.0,0.0,-38.01819,78.45886,-57.354126
1768033439345,-1.034668,-0.140625,0.140625,-2.1972656,-29.724121,2.6245117,0.0,0.0,0.0,-30.437622,76.503296,-48.949585
1768033439433,-0.91503906,-0.080566406,0.18115234,1.4038086,5.2490234,-3.0517578,0.0,0.0,0.0,-30.437622,76.503296,-48.949585
1768033439444,-0.91503906,-0.080566406,0.18115234,1.4038086,5.2490234,-3.0517578,0.0,0.0,0.0,-30.60791,76.20117,-48.773804
1768033439533,-0.9980469,-0.118652344,0.18115234,-2.9296875,-12.512207,2.8076172,0.0,0.0,0.0,-30.60791,76.20117,-48.773804
1768033439544,-0.9980469,-0.118652344,0.18115234,-2.9296875,-12.512207,2.8076172,0.0,0.0,0.0,-28.674316,75.64087,-46.42273
1768033439633,-0.98779297,-0.107421875,0.22314453,-5.065918,4.5776367,1.8310547,0.0,0.0,0.0,-28.674316,75.64087,-46.42273
1768033439644,-0.98779297,-0.107421875,0.22314453,-5.065918,4.5776367,1.8310547,0.0,0.0,0.0,-29.174194,76.069336,-46.367798
1768033439732,-1.0478516,-0.08886719,0.10839844,-3.2958984,-1.4648438,2.746582,0.0,0.0,0.0,-29.174194,76.069336,-46.367798
1768033439744,-1.0478516,-0.08886719,0.10839844,-3.2958984,-1.4648438,2.746582,0.0,0.0,0.0,-26.976929,75.772705,-43.395996
1768033439832,-0.96191406,-0.011230469,0.21191406,-5.1879883,16.357422,7.019043,0.0,0.0,0.0,-26.976929,75.772705,-43.395996
1768033439844,-0.96191406,-0.011230469,0.21191406,-5.1879883,16.357422,7.019043,0.0,0.0,0.0,-30.992432,78.05237,-46.79077
1768033439932,-1.0131836,-0.123535156,0.15673828,-1.0986328,-17.456055,10.864258,0.0,0.0,0.0,-30.992432,78.05237,-46.79077
1768033439943,-1.0131836,-0.123535156,0.15673828,-1.0986328,-17.456055,10.864258,0.0,0.0,0.0,-24.01062,77.77222,-39.506836
1768033440031,-0.91064453,-0.072753906,0.26464844,-6.8969727,10.131836,10.681152,0.0,0.0,0.0,-24.01062,77.77222,-39.506836
1768033440043,-0.91064453,-0.072753906,0.26464844,-6.8969727,10.131836,10.681152,0.0,0.0,0.0,-20.78064,78.601685,-35.370483
1768033440131,-0.9189453,-0.10498047,0.2836914,-9.70459,-18.249512,13.305664,0.0,0.0,0.0,-20.78064,78.601685,-35.370483
1768033440143,-0.9189453,-0.10498047,0.2836914,-9.70459,-18.249512,13.305664,0.0,0.0,0.0,-15.095215,78.21716,-29.075317
1768033440231,-0.9980469,-9.765625E-4,0.18554688,-5.2490234,-32.226562,12.573242,0.0,0.0,0.0,-15.095215,78.21716,-29.075317
1768033440242,-0.9980469,-9.765625E-4,0.18554688,-5.2490234,-32.226562,12.573242,0.0,0.0,0.0,-8.569336,75.08606,-20.98938
1768033440330,-0.9316406,-0.05810547,0.27001953,4.699707,1.7089844,-0.24414062,0.0,0.0,0.0,-8.569336,75.08606,-20.98938
1768033440342,-0.9316406,-0.05810547,0.27001953,4.699707,1.7089844,-0.24414062,0.0,0.0,0.0,-7.025757,74.729004,-19.539185
1768033440430,-0.98535156,-0.020019531,0.22167969,-0.91552734,-10.803223,2.8686523,0.0,0.0,0.0,-7.025757,74.729004,-19.539185
1768033440442,-0.98535156,-0.020019531,0.22167969,-0.91552734,-10.803223,2.8686523,0.0,0.0,0.0,-5.855713,73.844604,-18.237305
1768033440530,-0.9736328,-0.064941406,0.2211914,0.0,14.526367,-0.61035156,0.0,0.0,0.0,-5.855713,73.844604,-18.237305
1768033440542,-0.9736328,-0.064941406,0.2211914,0.0,14.526367,-0.61035156,0.0,0.0,0.0,-6.366577,74.63562,-19.176636
1768033440630,-1.0371094,-0.08154297,0.2241211,-7.385254,14.465332,-4.3945312,0.0,0.0,0.0,-6.366577,74.63562,-19.176636
1768033440641,-1.0371094,-0.08154297,0.2241211,-7.385254,14.465332,-4.3945312,0.0,0.0,0.0,-9.146118,76.28357,-21.670532
1768033440729,-1.027832,-0.041992188,0.20019531,-9.887695,16.601562,-5.2490234,0.0,0.0,0.0,-9.146118,76.28357,-21.670532
1768033440741,-1.027832,-0.041992188,0.20019531,-9.887695,16.601562,-5.2490234,0.0,0.0,0.0,-14.738159,78.151245,-26.58142
1768033440829,-1.0180664,-0.049316406,0.1640625,7.2631836,13.793945,-10.009766,0.0,0.0,0.0,-14.738159,78.151245,-26.58142
1768033440841,-1.0180664,-0.049316406,0.1640625,7.2631836,13.793945,-10.009766,0.0,0.0,0.0,-20.961914,79.29932,-32.95349
1768033440929,-0.85546875,-0.03857422,0.21923828,16.784668,3.112793,-17.028809,0.0,0.0,0.0,-20.961914,79.29932,-32.95349
1768033440940,-0.85546875,-0.03857422,0.21923828,16.784668,3.112793,-17.028809,0.0,0.0,0.0,-28.103027,79.49707,-41.237183
1768033441028,-0.9746094,-0.064941406,0.20996094,5.79834,-13.916016,-5.004883,0.0,0.0,0.0,-28.103027,79.49707,-41.237183
1768033441040,-0.9746094,-0.064941406,0.20996094,5.79834,-13.916016,-5.004883,0.0,0.0,0.0,-28.43811,78.16223,-42.539062
1768033441128,-0.9291992,-0.083496094,0.17333984,4.0893555,-14.465332,-6.591797,0.0,0.0,0.0,-28.43811,78.16223,-42.539062
1768033441140,-0.9291992,-0.083496094,0.17333984,4.0893555,-14.465332,-6.591797,0.0,0.0,0.0,-25.339966,76.28906,-39.46289
1768033441228,-0.9921875,-0.072753906,0.22705078,6.713867,-10.009766,-4.9438477,0.0,0.0,0.0,-25.339966,76.28906,-39.46289
1768033441239,-0.9921875,-0.072753906,0.22705078,6.713867,-10.009766,-4.9438477,0.0,0.0,0.0,-25.394897,75.355225,-40.19348
1768033441328,-0.9716797,-0.119140625,0.19726562,-0.48828125,-2.0141602,-0.5493164,0.0,0.0,0.0,-25.394897,75.355225,-40.19348
1768033441339,-0.9716797,-0.119140625,0.19726562,-0.48828125,-2.0141602,-0.5493164,0.0,0.0,0.0,-24.241333,74.62463,-39.232178
1768033441427,-1.0141602,-0.08544922,0.18701172,-1.0986328,1.159668,1.6479492,0.0,0.0,0.0,-24.241333,74.62463,-39.232178
1768033441439,-1.0141602,-0.08544922,0.18701172,-1.0986328,1.159668,1.6479492,0.0,0.0,0.0,-24.268799,74.83887,-39.10034
1768033441527,-1.0424805,-0.11376953,0.18652344,0.24414062,15.014648,3.8452148,0.0,0.0,0.0,-24.268799,74.83887,-39.10034
1768033441539,-1.0424805,-0.11376953,0.18652344,0.24414062,15.014648,3.8452148,0.0,0.0,0.0,-24.587402,75.739746,-39.369507
1768033441627,-1.0039062,-0.06689453,0.24511719,3.90625,10.803223,5.9814453,0.0,0.0,0.0,-24.587402,75.739746,-39.369507
1768033441638,-1.0039062,-0.06689453,0.24511719,3.90625,10.803223,5.9814453,0.0,0.0,0.0,-25.88379,77.65137,-40.512085
1768033441727,-0.97216797,-0.08886719,0.18164062,-2.746582,-1.5258789,10.253906,0.0,0.0,0.0,-25.88379,77.65137,-40.512085
1768033441738,-0.97216797,-0.08886719,0.18164062,-2.746582,-1.5258789,10.253906,0.0,0.0,0.0,-22.730713,78.04138,-37.23816
1768033441826,-0.8364258,-0.072265625,0.234375,-0.48828125,0.8544922,11.291504,0.0,0.0,0.0,-22.730713,78.04138,-37.23816
1768033441838,-0.8364258,-0.072265625,0.234375,-0.48828125,0.8544922,11.291504,0.0,0.0,0.0,-18.621826,78.552246,-32.41516
1768033441926,-1.0419922,-0.091308594,0.24658203,-15.136719,-26.062012,12.207031,0.0,0.0,0.0,-18.621826,78.552246,-32.41516
1768033441937,-1.0419922,-0.091308594,0.24658203,-15.136719,-26.062012,12.207031,0.0,0.0,0.0,-13.178101,77.69531,-26.323242
1768033442026,-0.93652344,-0.024414062,0.17871094,-1.8310547,-11.047363,8.544922,0.0,0.0,0.0,-13.178101,77.69531,-26.323242
1768033442037,-0.93652344,-0.024414062,0.17871094,-1.8310547,-11.047363,8.544922,0.0,0.0,0.0,-6.569824,74.99817,-18.550415
1768033442125,-0.9946289,-0.03857422,0.25878906,0.0,-3.3569336,3.479004,0.0,0.0,0.0,-6.569824,74.99817,-18.550415
1768033442137,-0.9946289,-0.03857422,0.25878906,0.0,-3.3569336,3.479004,0.0,0.0,0.0,-5.5755615,75.06409,-17.7594
1768033442225,-0.98046875,-0.04248047,0.23535156,3.1738281,2.8076172,-1.2207031,0.0,0.0,0.0,-5.5755615,75.06409,-17.7594
1768033442237,-0.98046875,-0.04248047,0.23535156,3.1738281,2.8076172,-1.2207031,0.0,0.0,0.0,-4.65271,74.93225,-17.017822
1768033442325,-0.9946289,-0.0546875,0.21972656,0.8544922,10.253906,-2.9296875,0.0,0.0,0.0,-4.65271,74.93225,-17.017822
1768033442336,-0.9946289,-0.0546875,0.21972656,0.8544922,10.253906,-2.9296875,0.0,0.0,0.0,-5.751343,75.49255,-18.638306
1768033442424,-1.0512695,-0.049316406,0.18017578,2.9296875,11.535645,-7.2631836,0.0,0.0,0.0,-5.751343,75.49255,-18.638306
1768033442436,-1.0512695,-0.049316406,0.18017578,2.9296875,11.535645,-7.2631836,0.0,0.0,0.0,-8.712158,76.44287,-21.890259
1768033442524,-0.98535156,-0.11328125,0.24707031,-0.48828125,11.047363,-13.305664,0.0,0.0,0.0,-8.712158,76.44287,-21.890259
1768033442536,-0.98535156,-0.11328125,0.24707031,-0.48828125,11.047363,-13.305664,0.0,0.0,0.0,-14.990845,77.838135,-28.377686
1768033442624,-0.9951172,-0.036132812,0.19921875,2.1362305,0.91552734,-11.474609,0.0,0.0,0.0,-14.990845,77.838135,-28.377686
1768033442636,-0.9951172,-0.036132812,0.19921875,2.1362305,0.91552734,-11.474609,0.0,0.0,0.0,-20.52246,77.733765,-33.744507
1768033442724,-0.82958984,-0.02734375,0.234375,13.73291,1.2207031,-17.211914,0.0,0.0,0.0,-20.52246,77.733765,-33.744507
1768033442735,-0.82958984,-0.02734375,0.234375,13.73291,1.2207031,-17.211914,0.0,0.0,0.0,-26.356201,77.60193,-40.281372
1768033442823,-1.0478516,-0.033691406,0.25878906,6.286621,-19.592285,-0.91552734,0.0,0.0,0.0,-26.356201,77.60193,-40.281372
1768033442836,-1.0478516,-0.033691406,0.25878906,6.286621,-19.592285,-0.91552734,0.0,0.0,0.0,-27.432861,76.54175,-42.3468
1768033442923,-0.9291992,-0.11328125,0.140625,3.9672852,-6.4086914,-5.2490234,0.0,0.0,0.0,-27.432861,76.54175,-42.3468
1768033442935,-0.9291992,-0.11328125,0.140625,3.9672852,-6.4086914,-5.2490234,0.0,0.0,0.0,-22.434082,74.190674,-37.573242
1768033443023,-0.9897461,-0.068359375,0.24951172,-0.8544922,-4.5776367,-0.91552734,0.0,0.0,0.0,-22.434082,74.190674,-37.573242
1768033443034,-0.9897461,-0.068359375,0.24951172,-0.8544922,-4.5776367,-0.91552734,0.0,0.0,0.0,-24.04358,74.46533,-39.51233
1768033443122,-0.99902344,-0.09765625,0.20410156,-1.6479492,2.1362305,2.5024414,0.0,0.0,0.0,-24.04358,74.46533,-39.51233
1768033443134,-0.99902344,-0.09765625,0.20410156,-1.6479492,2.1362305,2.5024414,0.0,0.0,0.0,-22.5,74.08081,-37.633667
1768033443222,-0.99072266,-0.09375,0.2055664,-0.061035156,2.8076172,1.8310547,0.0,0.0,0.0,-22.5,74.08081,-37.633667
1768033443234,-0.99072266,-0.09375,0.2055664,-0.061035156,2.8076172,1.8310547,0.0,0.0,0.0,-22.423096,74.6521,-37.512817
1768033443322,-1.0327148,-0.087402344,0.20507812,-2.5024414,8.178711,5.2490234,0.0,0.0,0.0,-22.423096,74.6521,-37.512817
1768033443333,-1.0327148,-0.087402344,0.20507812,-2.5024414,8.178711,5.2490234,0.0,0.0,0.0,-22.532959,75.459595,-37.58972
1768033443422,-0.98046875,-0.05810547,0.24658203,5.859375,7.6904297,3.4179688,0.0,0.0,0.0,-22.532959,75.459595,-37.58972
1768033443433,-0.98046875,-0.05810547,0.24658203,5.859375,7.6904297,3.4179688,0.0,0.0,0.0,-21.63208,76.52527,-36.672363
1768033443521,-0.9926758,-0.10644531,0.21289062,-0.8544922,9.643555,8.300781,0.0,0.0,0.0,-21.63208,76.52527,-36.672363
1768033443533,-0.9926758,-0.10644531,0.21289062,-0.8544922,9.643555,8.300781,0.0,0.0,0.0,-19.423828,77.18445,-34.6344
1768033443621,-0.8144531,-0.12646484,0.26611328,5.3100586,8.605957,5.9814453,0.0,0.0,0.0,-19.423828,77.18445,-34.6344
1768033443632,-0.8144531,-0.12646484,0.26611328,5.3100586,8.605957,5.9814453,0.0,0.0,0.0,-18.259277,78.30505,-33.47534
1768033443721,-1.078125,-0.025878906,0.2763672,-21.78955,-40.222168,16.845703,0.0,0.0,0.0,-18.259277,78.30505,-33.47534
1768033443732,-1.078125,-0.025878906,0.2763672,-21.78955,-40.222168,16.845703,0.0,0.0,0.0,-12.903442,77.03064,-26.790161
1768033443820,-0.92285156,-0.07470703,0.18847656,-3.479004,12.756348,7.5683594,0.0,0.0,0.0,-12.903442,77.03064,-26.790161
1768033443832,-0.92285156,-0.07470703,0.18847656,-3.479004,12.756348,7.5683594,0.0,0.0,0.0,-6.7456055,75.17395,-19.67102
1768033443920,-0.9946289,-0.010253906,0.26123047,-5.1879883,-13.671875,7.1411133,0.0,0.0,0.0,-6.7456055,75.17395,-19.67102
1768033443932,-0.9946289,-0.010253906,0.26123047,-5.1879883,-13.671875,7.1411133,0.0,0.0,0.0,-5.4437256,75.72327,-18.182373
1768033444020,-0.98779297,-0.05810547,0.19580078,4.638672,7.873535,-1.7089844,0.0,0.0,0.0,-5.4437256,75.72327,-18.182373
1768033444031,-0.98779297,-0.05810547,0.19580078,4.638672,7.873535,-1.7089844,0.0,0.0,0.0,-4.158325,75.201416,-17.149658
1768033444120,-0.98828125,-0.0703125,0.25683594,-4.0893555,7.019043,-2.0751953,0.0,0.0,0.0,-4.158325,75.201416,-17.149658
1768033444131,-0.98828125,-0.0703125,0.25683594,-4.0893555,7.019043,-2.0751953,0.0,0.0,0.0,-5.5096436,76.16821,-18.48999
1768033444220,-1.0439453,-0.041992188,0.17529297,0.6713867,11.352539,-6.713867,0.0,0.0,0.0,-5.5096436,76.16821,-18.48999
1768033444231,-1.0439453,-0.041992188,0.17529297,0.6713867,11.352539,-6.713867,0.0,0.0,0.0,-8.113403,76.67908,-20.983887
1768033444319,-0.9716797,-0.09082031,0.20166016,2.0751953,5.79834,-10.375977,0.0,0.0,0.0,-8.113403,76.67908,-20.983887
1768033444330,-0.9716797,-0.09082031,0.20166016,2.0751953,5.79834,-10.375977,0.0,0.0,0.0,-13.249512,77.547,-26.317749
1768033444419,-1.0019531,-0.048339844,0.21972656,5.1879883,19.65332,-15.686035,0.0,0.0,0.0,-13.249512,77.547,-26.317749
1768033444430,-1.0019531,-0.048339844,0.21972656,5.1879883,19.65332,-15.686035,0.0,0.0,0.0,-20.511475,78.14575,-33.997192
1768033444518,-0.84228516,-4.8828125E-4,0.24804688,13.549805,-0.91552734,-15.74707,0.0,0.0,0.0,-20.511475,78.14575,-33.997192
1768033444530,-0.84228516,-4.8828125E-4,0.24804688,13.549805,-0.91552734,-15.74707,0.0,0.0,0.0,-28.756714,78.41492,-43.35205
1768033444618,-1.0473633,-0.09716797,0.2109375,-0.5493164,-30.090332,1.6479492,0.0,0.0,0.0,-28.756714,78.41492,-43.35205
1768033444630,-1.0473633,-0.09716797,0.2109375,-0.5493164,-30.090332,1.6479492,0.0,0.0,0.0,-25.839844,76.82739,-40.74829
1768033444718,-0.921875,-0.06982422,0.16455078,0.48828125,0.7324219,-3.479004,0.0,0.0,0.0,-25.839844,76.82739,-40.74829
1768033444729,-0.921875,-0.06982422,0.16455078,0.48828125,0.7324219,-3.479004,0.0,0.0,0.0,-22.818604,75.14099,-37.53479
1768033444818,-1.0092773,-0.08642578,0.20947266,-3.2348633,-7.873535,0.48828125,0.0,0.0,0.0,-22.818604,75.14099,-37.53479
1768033444830,-1.0092773,-0.08642578,0.20947266,-3.2348633,-7.873535,0.48828125,0.0,0.0,0.0,-23.010864,75.05859,-37.770996
1768033444917,-1.0004883,-0.080566406,0.18457031,-4.272461,8.911133,3.2348633,0.0,0.0,0.0,-23.010864,75.05859,-37.770996
1768033444930,-1.0004883,-0.080566406,0.18457031,-4.272461,8.911133,3.2348633,0.0,0.0,0.0,-22.7417,75.531006,-37.095337
1768033445017,-1.0229492,-0.096191406,0.14892578,-0.61035156,7.385254,1.7089844,0.0,0.0,0.0,-22.7417,75.531006,-37.095337
1768033445029,-1.0229492,-0.096191406,0.14892578,-0.61035156,7.385254,1.7089844,0.0,0.0,0.0,-23.137207,76.30005,-37.408447
1768033445117,-0.98046875,-0.025878906,0.18945312,-2.9296875,13.73291,7.1411133,0.0,0.0,0.0,-23.137207,76.30005,-37.408447
1768033445128,-0.98046875,-0.025878906,0.18945312,-2.9296875,13.73291,7.1411133,0.0,0.0,0.0,-25.054321,78.22815,-39.001465
1768033445216,-0.9838867,-0.07910156,0.2055664,-3.479004,-3.1738281,5.92041,0.0,0.0,0.0,-25.054321,78.22815,-39.001465
1768033445228,-0.9838867,-0.07910156,0.2055664,-3.479004,-3.1738281,5.92041,0.0,0.0,0.0,-22.901001,78.90381,-36.535034
1768033445316,-0.9042969,-0.05810547,0.2397461,-1.4038086,-1.7089844,9.521484,0.0,0.0,0.0,-22.901001,78.90381,-36.535034
1768033445328,-0.9042969,-0.05810547,0.2397461,-1.4038086,-1.7089844,9.521484,0.0,0.0,0.0,-18.237305,78.88733,-31.25061
1768033445416,-0.9628906,-0.13330078,0.2841797,0.061035156,-11.779785,4.211426,0.0,0.0,0.0,-18.237305,78.88733,-31.25061
1768033445427,-0.9628906,-0.13330078,0.2841797,0.061035156,-11.779785,4.211426,0.0,0.0,0.0,-14.501953,78.29956,-27.350464
1768033445516,-0.93408203,0.01953125,0.18554688,-3.4179688,-29.418945,10.314941,0.0,0.0,0.0,-14.501953,78.29956,-27.350464
1768033445527,-0.93408203,0.01953125,0.18554688,-3.4179688,-29.418945,10.314941,0.0,0.0,0.0,-8.327637,75.36621,-20.214844
1768033445615,-0.9633789,-0.064453125,0.25634766,10.009766,2.5634766,-3.3569336,0.0,0.0,0.0,-8.327637,75.36621,-20.214844
1768033445627,-0.9633789,-0.064453125,0.25634766,10.009766,2.5634766,-3.3569336,0.0,0.0,0.0,-6.7840576,74.89929,-19.368896
1768033445715,-1.0092773,-0.040039062,0.20996094,10.437012,-4.760742,-2.2583008,0.0,0.0,0.0,-6.7840576,74.89929,-19.368896
1768033445727,-1.0092773,-0.040039062,0.20996094,10.437012,-4.760742,-2.2583008,0.0,0.0,0.0,-6.459961,74.40491,-19.918213
1768033445815,-0.98583984,-0.06591797,0.22265625,2.8076172,14.343262,-4.272461,0.0,0.0,0.0,-6.459961,74.40491,-19.918213
1768033445826,-0.98583984,-0.06591797,0.22265625,2.8076172,14.343262,-4.272461,0.0,0.0,0.0,-7.8167725,75.14099,-22.263794
1768033445914,-0.99560547,-0.06201172,0.24511719,1.3427734,11.535645,-4.638672,0.0,0.0,0.0,-7.8167725,75.14099,-22.263794
1768033445926,-0.99560547,-0.06201172,0.24511719,1.3427734,11.535645,-4.638672,0.0,0.0,0.0,-10.48645,76.294556,-25.367432
1768033446014,-0.9584961,-0.09082031,0.24072266,1.953125,0.061035156,-8.056641,0.0,0.0,0.0,-10.48645,76.294556,-25.367432
1768033446026,-0.9584961,-0.09082031,0.24072266,1.953125,0.061035156,-8.056641,0.0,0.0,0.0,-13.886719,76.970215,-29.086304
1768033446114,-1.0019531,-0.10498047,0.16503906,4.9438477,1.8920898,-6.1035156,0.0,0.0,0.0,-13.886719,76.970215,-29.086304
1768033446126,-1.0019531,-0.10498047,0.16503906,4.9438477,1.8920898,-6.1035156,0.0,0.0,0.0,-15.545654,76.311035,-30.95398
1768033446214,-0.97558594,-0.103027344,0.23876953,-1.7700195,10.253906,-7.080078,0.0,0.0,0.0,-15.545654,76.311035,-30.95398
1768033446225,-0.97558594,-0.103027344,0.23876953,-1.7700195,10.253906,-7.080078,0.0,0.0,0.0,-19.890747,76.89331,-35.403442
1768033446313,-0.8935547,-0.02734375,0.2241211,-2.6855469,-4.0893555,-3.112793,0.0,0.0,0.0,-19.890747,76.89331,-35.403442
1768033446325,-0.8935547,-0.02734375,0.2241211,-2.6855469,-4.0893555,-3.112793,0.0,0.0,0.0,-22.631836,76.92627,-37.787476
1768033446413,-0.99121094,-0.024902344,0.28808594,-2.6855469,-3.6621094,0.30517578,0.0,0.0,0.0,-22.631836,76.92627,-37.787476
1768033446425,-0.99121094,-0.024902344,0.28808594,-2.6855469,-3.6621094,0.30517578,0.0,0.0,0.0,-22.115479,76.56372,-37.001953
1768033446513,-0.9682617,-0.06201172,0.1484375,-3.2958984,-20.751953,1.7089844,0.0,0.0,0.0,-22.115479,76.56372,-37.001953
1768033446524,-0.9682617,-0.06201172,0.1484375,-3.2958984,-20.751953,1.7089844,0.0,0.0,0.0,-17.671509,74.67407,-31.739502
1768033446612,-0.96484375,-0.061523438,0.25634766,1.6479492,0.8544922,-2.5634766,0.0,0.0,0.0,-17.671509,74.67407,-31.739502
1768033446624,-0.96484375,-0.061523438,0.25634766,1.6479492,0.8544922,-2.5634766,0.0,0.0,0.0,-18.03955,74.679565,-32.261353
1768033446712,-0.9897461,-0.08154297,0.234375,-4.0283203,-1.953125,1.0986328,0.0,0.0,0.0,-18.03955,74.679565,-32.261353
1768033446724,-0.9897461,-0.08154297,0.234375,-4.0283203,-1.953125,1.0986328,0.0,0.0,0.0,-17.259521,74.33899,-31.289062
1768033446812,-1.0039062,-0.07861328,0.20166016,-0.48828125,1.7089844,1.953125,0.0,0.0,0.0,-17.259521,74.33899,-31.289062
1768033446824,-1.0039062,-0.07861328,0.20166016,-0.48828125,1.7089844,1.953125,0.0,0.0,0.0,-17.303467,74.608154,-31.14624
1768033446912,-1.0219727,-0.079589844,0.20214844,-3.0517578,8.422852,4.4555664,0.0,0.0,0.0,-17.303467,74.608154,-31.14624
