timestamp,accX,accY,accZ,gyroX,gyroY,gyroZ,magX,magY,magZ,roll,pitch,yaw
1768030315677,-0.94873047,-0.14257812,-0.25439453,-1.953125,-5.3100586,-2.5634766,0.0,0.0,0.0,-158.9502,70.718994,138.99902
1768030315688,-0.94873047,-0.14257812,-0.25439453,-1.953125,-5.3100586,-2.5634766,0.0,0.0,0.0,-157.40112,71.087036,140.72388
1768030315779,-0.8955078,-0.10253906,-0.29541016,-1.953125,-4.760742,3.4179688,0.0,0.0,0.0,-157.40112,71.087036,140.72388
1768030315788,-0.8955078,-0.10253906,-0.29541016,-1.953125,-4.760742,3.4179688,0.0,0.0,0.0,-156.94519,71.37268,141.55884
1768030315876,-0.94140625,-0.15625,-0.34521484,9.216309,3.6621094,7.2021484,0.0,0.0,0.0,-156.94519,71.37268,141.55884
1768030315887,-0.94140625,-0.15625,-0.34521484,9.216309,3.6621094,7.2021484,0.0,0.0,0.0,-158.21411,71.691284,139.91089
1768030315976,-0.93603516,-0.18261719,-0.3696289,14.221191,4.0283203,4.8828125,0.0,0.0,0.0,-158.21411,71.691284,139.91089
1768030315987,-0.93603516,-0.18261719,-0.3696289,14.221191,4.0283203,4.8828125,0.0,0.0,0.0,-158.90076,71.48804,137.74658
1768030316076,-0.9267578,-0.19335938,-0.38623047,9.58252,8.911133,0.061035156,0.0,0.0,0.0,-158.90076,71.48804,137.74658
1768030316087,-0.9267578,-0.19335938,-0.38623047,9.58252,8.911133,0.061035156,0.0,0.0,0.0,-158.57666,70.823364,136.4502
1768030316175,-1.2075195,-0.053222656,-0.46728516,3.7841797,25.32959,-2.2583008,0.0,0.0,0.0,-158.57666,70.823364,136.4502
1768030316186,-1.2075195,-0.053222656,-0.46728516,3.7841797,25.32959,-2.2583008,0.0,0.0,0.0,-158.93921,69.39514,135.09888
1768030316275,-0.89990234,-0.17333984,-0.35107422,-0.9765625,0.4272461,7.6904297,0.0,0.0,0.0,-158.93921,69.39514,135.09888
1768030316286,-0.89990234,-0.17333984,-0.35107422,-0.9765625,0.4272461,7.6904297,0.0,0.0,0.0,-161.21338,68.02734,131.56128
1768030316374,-0.9277344,0.07128906,-0.14111328,6.286621,-1.0986328,14.892578,0.0,0.0,0.0,-161.21338,68.02734,131.56128
1768030316386,-0.9277344,0.07128906,-0.14111328,6.286621,-1.0986328,14.892578,0.0,0.0,0.0,-163.19092,67.302246,128.55652
1768030316474,-0.96240234,-0.087890625,-0.26611328,-2.5024414,-2.4414062,5.79834,0.0,0.0,0.0,-163.19092,67.302246,128.55652
1768030316485,-0.96240234,-0.087890625,-0.26611328,-2.5024414,-2.4414062,5.79834,0.0,0.0,0.0,-166.55273,67.95044,125.33203
1768030316574,-0.9355469,0.018066406,-0.34423828,-7.5683594,-9.58252,5.004883,0.0,0.0,0.0,-166.55273,67.95044,125.33203
1768030316585,-0.9355469,0.018066406,-0.34423828,-7.5683594,-9.58252,5.004883,0.0,0.0,0.0,-167.95349,69.087524,124.541016
1768030316673,-0.9609375,-0.03515625,-0.31884766,-4.1503906,-8.300781,0.4272461,0.0,0.0,0.0,-167.95349,69.087524,124.541016
1768030316685,-0.9609375,-0.03515625,-0.31884766,-4.1503906,-8.300781,0.4272461,0.0,0.0,0.0,-168.68958,69.96094,124.17297
1768030316773,-0.93652344,-0.032226562,-0.3544922,-1.159668,-6.225586,-0.6713867,0.0,0.0,0.0,-168.68958,69.96094,124.17297
1768030316784,-0.93652344,-0.032226562,-0.3544922,-1.159668,-6.225586,-0.6713867,0.0,0.0,0.0,-168.76648,70.669556,124.41467
1768030316873,-0.96972656,-0.041992188,-0.3388672,0.7324219,-0.8544922,-1.7700195,0.0,0.0,0.0,-168.76648,70.669556,124.41467
1768030316884,-0.96972656,-0.041992188,-0.3388672,0.7324219,-0.8544922,-1.7700195,0.0,0.0,0.0,-168.57422,70.927734,124.63989
1768030316973,-0.9511719,-0.061035156,-0.34033203,-7.8125,-11.291504,-1.2207031,0.0,0.0,0.0,-168.57422,70.927734,124.63989
1768030316984,-0.9511719,-0.061035156,-0.34033203,-7.8125,-11.291504,-1.2207031,0.0,0.0,0.0,-168.12927,71.77368,125.17273
1768030317073,-0.95458984,-0.03515625,-0.31835938,-5.126953,-1.159668,-2.5024414,0.0,0.0,0.0,-168.12927,71.77368,125.17273
1768030317084,-0.95458984,-0.03515625,-0.31835938,-5.126953,-1.159668,-2.5024414,0.0,0.0,0.0,-167.72278,71.84509,126.09558
1768030317172,-0.984375,-0.05029297,-0.3798828,-2.1972656,2.9296875,-2.9907227,0.0,0.0,0.0,-167.72278,71.84509,126.09558
1768030317184,-0.984375,-0.05029297,-0.3798828,-2.1972656,2.9296875,-2.9907227,0.0,0.0,0.0,-167.8656,71.674805,126.37024
1768030317272,-0.97753906,-0.07763672,-0.41748047,-0.4272461,-1.3427734,-0.9765625,0.0,0.0,0.0,-167.8656,71.674805,126.37024
1768030317283,-0.97753906,-0.07763672,-0.41748047,-0.4272461,-1.3427734,-0.9765625,0.0,0.0,0.0,-168.07983,71.70776,126.41968
1768030317371,-0.9057617,-0.048339844,-0.4013672,-2.8686523,-4.9438477,0.36621094,0.0,0.0,0.0,-168.07983,71.70776,126.41968
1768030317383,-0.9057617,-0.048339844,-0.4013672,-2.8686523,-4.9438477,0.36621094,0.0,0.0,0.0,-167.87659,71.762695,126.606445
1768030317471,-1.0595703,-0.07080078,-0.4116211,4.211426,14.160156,-5.1879883,0.0,0.0,0.0,-167.87659,71.762695,126.606445
1768030317483,-1.0595703,-0.07080078,-0.4116211,4.211426,14.160156,-5.1879883,0.0,0.0,0.0,-167.33276,70.72449,126.82068
1768030317571,-0.81396484,-0.087402344,-0.25439453,7.019043,4.0893555,-0.8544922,0.0,0.0,0.0,-167.33276,70.72449,126.82068
1768030317582,-0.81396484,-0.087402344,-0.25439453,7.019043,4.0893555,-0.8544922,0.0,0.0,0.0,-166.34949,68.91724,126.59546
1768030317671,-0.95214844,-0.0546875,-0.18652344,-2.2583008,4.0283203,2.0751953,0.0,0.0,0.0,-166.34949,68.91724,126.59546
1768030317682,-0.95214844,-0.0546875,-0.18652344,-2.2583008,4.0283203,2.0751953,0.0,0.0,0.0,-166.5033,68.516235,126.57898
1768030317771,-0.95654297,-0.009277344,-0.3203125,-11.474609,-11.779785,10.253906,0.0,0.0,0.0,-166.5033,68.516235,126.57898
1768030317782,-0.95654297,-0.009277344,-0.3203125,-11.474609,-11.779785,10.253906,0.0,0.0,0.0,-168.96973,69.56543,125.41992
1768030317870,-0.9453125,-0.115234375,-0.3256836,8.728027,-14.038086,14.221191,0.0,0.0,0.0,-168.96973,69.56543,125.41992
1768030317882,-0.9453125,-0.115234375,-0.3256836,8.728027,-14.038086,14.221191,0.0,0.0,0.0,-172.2821,71.76819,121.56372
1768030317970,-0.94677734,-0.037109375,-0.3017578,11.657715,-2.1362305,6.1035156,0.0,0.0,0.0,-172.2821,71.76819,121.56372
1768030317981,-0.94677734,-0.037109375,-0.3017578,11.657715,-2.1362305,6.1035156,0.0,0.0,0.0,-173.05664,72.22412,119.60266
1768030318069,-0.93652344,-0.056152344,-0.35595703,16.113281,6.1035156,5.7373047,0.0,0.0,0.0,-173.05664,72.22412,119.60266
1768030318081,-0.93652344,-0.056152344,-0.35595703,16.113281,6.1035156,5.7373047,0.0,0.0,0.0,-174.18274,72.0813,117.421875
1768030318169,-0.91015625,-0.063964844,-0.31396484,9.887695,0.30517578,1.5869141,0.0,0.0,0.0,-174.18274,72.0813,117.421875
1768030318181,-0.91015625,-0.063964844,-0.31396484,9.887695,0.30517578,1.5869141,0.0,0.0,0.0,-173.74329,71.5979,116.51001
1768030318269,-0.9511719,-0.125,-0.36865234,11.779785,7.9345703,-0.18310547,0.0,0.0,0.0,-173.74329,71.5979,116.51001
1768030318280,-0.9511719,-0.125,-0.36865234,11.779785,7.9345703,-0.18310547,0.0,0.0,0.0,-172.99622,71.152954,116.119995
1768030318369,-1.0180664,-0.15429688,-0.45654297,8.728027,13.122559,-5.126953,0.0,0.0,0.0,-172.99622,71.152954,116.119995
1768030318380,-1.0180664,-0.15429688,-0.45654297,8.728027,13.122559,-5.126953,0.0,0.0,0.0,-171.04065,69.94995,117.11975
1768030318468,-1.1870117,-0.06738281,-0.4868164,13.73291,22.583008,-8.544922,0.0,0.0,0.0,-171.04065,69.94995,117.11975
1768030318480,-1.1870117,-0.06738281,-0.4868164,13.73291,22.583008,-8.544922,0.0,0.0,0.0,-168.49182,67.94495,118.23486
1768030318568,-0.94433594,-0.12011719,-0.39892578,-0.30517578,9.58252,-11.352539,0.0,0.0,0.0,-168.49182,67.94495,118.23486
1768030318580,-0.94433594,-0.12011719,-0.39892578,-0.30517578,9.58252,-11.352539,0.0,0.0,0.0,-166.1847,66.41785,119.68506
1768030318668,-0.9482422,0.048828125,-0.22949219,2.4414062,1.953125,-0.4272461,0.0,0.0,0.0,-166.1847,66.41785,119.68506
1768030318679,-0.9482422,0.048828125,-0.22949219,2.4414062,1.953125,-0.4272461,0.0,0.0,0.0,-164.91577,65.30823,120.86609
1768030318768,-0.9135742,0.0,-0.37695312,-17.028809,-3.6010742,4.333496,0.0,0.0,0.0,-164.91577,65.30823,120.86609
1768030318779,-0.9135742,0.0,-0.37695312,-17.028809,-3.6010742,4.333496,0.0,0.0,0.0,-166.70654,65.97839,120.1355
1768030318867,-0.93115234,0.018554688,-0.31445312,-22.033691,-1.7700195,8.666992,0.0,0.0,0.0,-166.70654,65.97839,120.1355
1768030318879,-0.93115234,0.018554688,-0.31445312,-22.033691,-1.7700195,8.666992,0.0,0.0,0.0,-169.91455,66.74744,118.16345
1768030318967,-0.9370117,-0.0078125,-0.33154297,-13.061523,-5.6762695,6.8359375,0.0,0.0,0.0,-169.91455,66.74744,118.16345
1768030318979,-0.9370117,-0.0078125,-0.33154297,-13.061523,-5.6762695,6.8359375,0.0,0.0,0.0,-174.33655,67.37366,115.58716
1768030319067,-0.8979492,0.015625,-0.40039062,-12.573242,-10.864258,1.4648438,0.0,0.0,0.0,-174.33655,67.37366,115.58716
1768030319078,-0.8979492,0.015625,-0.40039062,-12.573242,-10.864258,1.4648438,0.0,0.0,0.0,-177.13257,68.35144,114.5105
1768030319166,-0.95703125,-0.01171875,-0.43652344,-6.0424805,-3.6010742,-5.065918,0.0,0.0,0.0,-177.13257,68.35144,114.5105
1768030319178,-0.95703125,-0.01171875,-0.43652344,-6.0424805,-3.6010742,-5.065918,0.0,0.0,0.0,-177.87964,69.158936,114.746704
1768030319266,-0.88378906,-0.048828125,-0.37060547,5.6762695,-6.958008,-9.521484,0.0,0.0,0.0,-177.87964,69.158936,114.746704
1768030319278,-0.88378906,-0.048828125,-0.37060547,5.6762695,-6.958008,-9.521484,0.0,0.0,0.0,-176.18774,69.263306,116.537476
1768030319366,-0.91015625,0.0024414062,-0.42382812,0.9765625,-5.6762695,-7.2631836,0.0,0.0,0.0,-176.18774,69.263306,116.537476
1768030319378,-0.91015625,0.0024414062,-0.42382812,0.9765625,-5.6762695,-7.2631836,0.0,0.0,0.0,-173.8147,69.642334,119.174194
1768030319466,-0.9716797,-0.016113281,-0.3959961,-7.751465,-6.8359375,-5.9814453,0.0,0.0,0.0,-173.8147,69.642334,119.174194
1768030319478,-0.9716797,-0.016113281,-0.3959961,-7.751465,-6.8359375,-5.9814453,0.0,0.0,0.0,-172.06787,69.76868,121.00342
1768030319566,-0.96777344,-0.0034179688,-0.39160156,2.8076172,-4.333496,-2.746582,0.0,0.0,0.0,-172.06787,69.76868,121.00342
1768030319577,-0.96777344,-0.0034179688,-0.39160156,2.8076172,-4.333496,-2.746582,0.0,0.0,0.0,-171.4032,69.922485,122.074585
1768030319665,-0.9707031,-0.03857422,-0.43115234,-5.79834,2.6245117,-5.065918,0.0,0.0,0.0,-171.4032,69.922485,122.074585
1768030319676,-0.9707031,-0.03857422,-0.43115234,-5.79834,2.6245117,-5.065918,0.0,0.0,0.0,-170.99121,70.08179,122.717285
1768030319766,-0.9042969,-0.064941406,-0.3017578,-0.4272461,-1.6479492,-2.5024414,0.0,0.0,0.0,-170.99121,70.08179,122.717285
1768030319776,-0.9042969,-0.064941406,-0.3017578,-0.4272461,-1.6479492,-2.5024414,0.0,0.0,0.0,-170.42542,69.697266,123.013916
1768030319865,-0.8564453,-0.033203125,-0.19042969,0.36621094,-4.211426,-4.0893555,0.0,0.0,0.0,-170.42542,69.697266,123.013916
1768030319876,-0.8564453,-0.033203125,-0.19042969,0.36621094,-4.211426,-4.0893555,0.0,0.0,0.0,-169.83215,69.851074,124.052124
1768030319965,-1.0771484,-0.10107422,-0.3701172,-23.31543,6.286621,-12.451172,0.0,0.0,0.0,-169.83215,69.851074,124.052124
1768030319976,-1.0771484,-0.10107422,-0.3701172,-23.31543,6.286621,-12.451172,0.0,0.0,0.0,-169.60693,70.62561,125.76599
1768030320064,-0.91748047,-0.079589844,-0.32666016,-3.9672852,-3.1738281,-0.6713867,0.0,0.0,0.0,-169.60693,70.62561,125.76599
1768030320075,-0.91748047,-0.079589844,-0.32666016,-3.9672852,-3.1738281,-0.6713867,0.0,0.0,0.0,-168.72803,70.74646,127.60071
1768030320164,-0.94677734,-0.118652344,-0.27783203,9.399414,2.5024414,-10.437012,0.0,0.0,0.0,-168.72803,70.74646,127.60071
1768030320175,-0.94677734,-0.118652344,-0.27783203,9.399414,2.5024414,-10.437012,0.0,0.0,0.0,-166.87134,70.68054,129.16077
1768030320263,-0.9238281,-0.09277344,-0.29882812,8.422852,-2.8686523,-1.0375977,0.0,0.0,0.0,-166.87134,70.68054,129.16077
1768030320275,-0.9238281,-0.09277344,-0.29882812,8.422852,-2.8686523,-1.0375977,0.0,0.0,0.0,-163.74573,70.64758,131.31958
1768030320363,-0.92089844,-0.15966797,-0.35546875,14.709473,2.380371,0.61035156,0.0,0.0,0.0,-163.74573,70.64758,131.31958
1768030320375,-0.92089844,-0.15966797,-0.35546875,14.709473,2.380371,0.61035156,0.0,0.0,0.0,-162.59216,70.823364,131.18225
1768030320463,-0.92822266,-0.119140625,-0.35791016,6.4086914,1.5258789,1.6479492,0.0,0.0,0.0,-162.59216,70.823364,131.18225
1768030320475,-0.92822266,-0.119140625,-0.35791016,6.4086914,1.5258789,1.6479492,0.0,0.0,0.0,-161.29028,70.03784,131.17126
1768030320563,-0.9741211,-0.19189453,-0.42041016,5.6762695,3.7231445,3.3569336,0.0,0.0,0.0,-161.29028,70.03784,131.17126
1768030320575,-0.9741211,-0.19189453,-0.42041016,5.6762695,3.7231445,3.3569336,0.0,0.0,0.0,-161.73523,69.6698,129.91882
1768030320662,-0.9404297,-0.21679688,-0.4038086,9.277344,1.2817383,4.5166016,0.0,0.0,0.0,-161.73523,69.6698,129.91882
1768030320674,-0.9404297,-0.21679688,-0.4038086,9.277344,1.2817383,4.5166016,0.0,0.0,0.0,-162.06482,69.142456,128.44666
1768030320762,-1.0610352,-0.16601562,-0.41503906,14.526367,12.023926,-4.8217773,0.0,0.0,0.0,-162.06482,69.142456,128.44666
1768030320774,-1.0610352,-0.16601562,-0.41503906,14.526367,12.023926,-4.8217773,0.0,0.0,0.0,-161.00464,68.37341,128.15002
1768030320862,-0.9453125,-0.11767578,-0.2758789,6.4697266,12.756348,-3.479004,0.0,0.0,0.0,-161.00464,68.37341,128.15002
1768030320873,-0.9453125,-0.11767578,-0.2758789,6.4697266,12.756348,-3.479004,0.0,0.0,0.0,-159.4336,66.450806,128.34778
1768030320961,-0.8666992,0.057617188,-0.17675781,17.333984,-8.7890625,11.962891,0.0,0.0,0.0,-159.4336,66.450806,128.34778
1768030320973,-0.8666992,0.057617188,-0.17675781,17.333984,-8.7890625,11.962891,0.0,0.0,0.0,-159.16992,67.099,127.56775
1768030321061,-0.9824219,-0.13623047,-0.34472656,13.85498,0.79345703,9.094238,0.0,0.0,0.0,-159.16992,67.099,127.56775
1768030321073,-0.9824219,-0.13623047,-0.34472656,13.85498,0.79345703,9.094238,0.0,0.0,0.0,-162.52625,68.340454,123.810425
1768030321161,-0.9248047,-0.017578125,-0.32080078,-13.793945,-8.300781,1.2207031,0.0,0.0,0.0,-162.52625,68.340454,123.810425
1768030321172,-0.9248047,-0.017578125,-0.32080078,-13.793945,-8.300781,1.2207031,0.0,0.0,0.0,-163.03711,69.07654,123.74451
1768030321261,-0.9321289,-0.04736328,-0.28857422,-12.145996,4.0893555,-1.5869141,0.0,0.0,0.0,-163.03711,69.07654,123.74451
1768030321272,-0.9321289,-0.04736328,-0.28857422,-12.145996,4.0893555,-1.5869141,0.0,0.0,0.0,-164.54224,68.93921,123.568726
1768030321360,-0.90966797,-0.022460938,-0.3647461,-15.563965,0.61035156,-0.24414062,0.0,0.0,0.0,-164.54224,68.93921,123.568726
1768030321372,-0.90966797,-0.022460938,-0.3647461,-15.563965,0.61035156,-0.24414062,0.0,0.0,0.0,-166.27808,69.20288,123.62366
1768030321460,-0.94140625,-0.052734375,-0.41210938,-15.441895,0.4272461,-0.12207031,0.0,0.0,0.0,-166.27808,69.20288,123.62366
1768030321472,-0.94140625,-0.052734375,-0.41210938,-15.441895,0.4272461,-0.12207031,0.0,0.0,0.0,-168.23364,69.28528,123.19519
1768030321560,-0.8857422,-0.022460938,-0.35058594,-5.6152344,-4.699707,-1.0986328,0.0,0.0,0.0,-168.23364,69.28528,123.19519
1768030321571,-0.8857422,-0.022460938,-0.35058594,-5.6152344,-4.699707,-1.0986328,0.0,0.0,0.0,-168.68958,69.25232,123.464355
1768030321660,-0.95458984,-0.024902344,-0.3798828,-4.0893555,-3.2348633,-2.2583008,0.0,0.0,0.0,-168.68958,69.25232,123.464355
1768030321671,-0.95458984,-0.024902344,-0.3798828,-4.0893555,-3.2348633,-2.2583008,0.0,0.0,0.0,-168.7555,69.5874,124.019165
1768030321759,-0.94677734,-0.04296875,-0.41992188,-14.587402,-7.5683594,-4.699707,0.0,0.0,0.0,-168.7555,69.5874,124.019165
1768030321771,-0.94677734,-0.04296875,-0.41992188,-14.587402,-7.5683594,-4.699707,0.0,0.0,0.0,-168.9093,69.99939,125.0354
1768030321859,-0.88623047,-0.05126953,-0.46142578,-9.765625,-2.9907227,-5.554199,0.0,0.0,0.0,-168.9093,69.99939,125.0354
1768030321870,-0.88623047,-0.05126953,-0.46142578,-9.765625,-2.9907227,-5.554199,0.0,0.0,0.0,-168.82141,70.21362,126.34827
1768030321959,-0.9394531,-0.029785156,-0.36035156,-8.117676,8.728027,0.4272461,0.0,0.0,0.0,-168.82141,70.21362,126.34827
1768030321970,-0.9394531,-0.029785156,-0.36035156,-8.117676,8.728027,0.4272461,0.0,0.0,0.0,-170.15625,69.14795,126.276855
1768030322058,-0.8457031,-0.0234375,-0.23291016,-9.82666,2.9296875,3.112793,0.0,0.0,0.0,-170.15625,69.14795,126.276855
1768030322070,-0.8457031,-0.0234375,-0.23291016,-9.82666,2.9296875,3.112793,0.0,0.0,0.0,-171.68884,68.52722,125.27161
1768030322158,-1.0068359,-0.032226562,-0.20361328,-12.084961,-9.58252,9.277344,0.0,0.0,0.0,-171.68884,68.52722,125.27161
1768030322170,-1.0068359,-0.032226562,-0.20361328,-12.084961,-9.58252,9.277344,0.0,0.0,0.0,-174.6112,69.5874,123.513794
1768030322260,-0.9511719,-0.06298828,-0.28271484,-1.8310547,-17.944336,4.5166016,0.0,0.0,0.0,-174.6112,69.5874,123.513794
1768030322269,-0.9511719,-0.06298828,-0.28271484,-1.8310547,-17.944336,4.5166016,0.0,0.0,0.0,-177.0282,71.41113,121.70654
1768030322358,-0.94921875,-0.018554688,-0.27734375,13.549805,-9.399414,1.7700195,0.0,0.0,0.0,-177.0282,71.41113,121.70654
1768030322369,-0.94921875,-0.018554688,-0.27734375,13.549805,-9.399414,1.7700195,0.0,0.0,0.0,-176.48987,72.86682,121.448364
1768030322457,-0.9604492,-0.051757812,-0.2734375,11.962891,-1.953125,-0.9765625,0.0,0.0,0.0,-176.48987,72.86682,121.448364
1768030322469,-0.9604492,-0.051757812,-0.2734375,11.962891,-1.953125,-0.9765625,0.0,0.0,0.0,-174.91882,73.322754,121.48682
1768030322558,-0.9321289,-0.05078125,-0.2919922,11.413574,-1.5258789,2.5634766,0.0,0.0,0.0,-174.91882,73.322754,121.48682
1768030322568,-0.9321289,-0.05078125,-0.2919922,11.413574,-1.5258789,2.5634766,0.0,0.0,0.0,-173.75977,73.39966,121.278076
1768030322657,-0.93359375,-0.07470703,-0.30273438,10.559082,2.6855469,2.1362305,0.0,0.0,0.0,-173.75977,73.39966,121.278076
1768030322668,-0.93359375,-0.07470703,-0.30273438,10.559082,2.6855469,2.1362305,0.0,0.0,0.0,-173.34778,73.3667,120.46509
1768030322756,-0.9707031,-0.08105469,-0.3076172,12.939453,2.8686523,2.6245117,0.0,0.0,0.0,-173.34778,73.3667,120.46509
1768030322768,-0.9707031,-0.08105469,-0.3076172,12.939453,2.8686523,2.6245117,0.0,0.0,0.0,-172.73254,72.9657,119.79492
1768030322856,-0.96484375,-0.12060547,-0.36035156,10.681152,7.446289,-5.004883,0.0,0.0,0.0,-172.73254,72.9657,119.79492
1768030322868,-0.96484375,-0.12060547,-0.36035156,10.681152,7.446289,-5.004883,0.0,0.0,0.0,-170.9253,72.27905,120.51453
1768030322956,-1.1000977,-0.11669922,-0.39697266,0.79345703,11.535645,-12.512207,0.0,0.0,0.0,-170.9253,72.27905,120.51453
1768030322968,-1.1000977,-0.11669922,-0.39697266,0.79345703,11.535645,-12.512207,0.0,0.0,0.0,-167.51404,71.224365,123.04138
1768030323056,-0.87158203,-0.056152344,-0.19042969,-5.554199,3.6621094,-7.1411133,0.0,0.0,0.0,-167.51404,71.224365,123.04138
1768030323068,-0.87158203,-0.056152344,-0.19042969,-5.554199,3.6621094,-7.1411133,0.0,0.0,0.0,-164.63562,69.48303,125.55725
1768030323155,-0.9560547,0.048828125,-0.24365234,15.930176,2.6245117,-3.7841797,0.0,0.0,0.0,-164.63562,69.48303,125.55725
1768030323167,-0.9560547,0.048828125,-0.24365234,15.930176,2.6245117,-3.7841797,0.0,0.0,0.0,-162.97668,69.53247,127.03491
1768030323255,-0.96972656,-0.092285156,-0.25683594,-0.8544922,-3.479004,9.338379,0.0,0.0,0.0,-162.97668,69.53247,127.03491
1768030323267,-0.96972656,-0.092285156,-0.25683594,-0.8544922,-3.479004,9.338379,0.0,0.0,0.0,-164.17969,69.89502,124.84863
1768030323355,-0.91845703,0.059570312,-0.32910156,-2.319336,-13.305664,10.925293,0.0,0.0,0.0,-164.17969,69.89502,124.84863
1768030323366,-0.91845703,0.059570312,-0.32910156,-2.319336,-13.305664,10.925293,0.0,0.0,0.0,-166.6571,71.537476,122.72278
1768030323455,-0.9746094,-0.068359375,-0.2915039,-4.9438477,-8.300781,6.1035156,0.0,0.0,0.0,-166.6571,71.537476,122.72278
1768030323466,-0.9746094,-0.068359375,-0.2915039,-4.9438477,-8.300781,6.1035156,0.0,0.0,0.0,-169.65637,72.526245,119.64661
1768030323554,-0.9277344,-0.040039062,-0.35595703,-4.0283203,-5.1879883,-5.6152344,0.0,0.0,0.0,-169.65637,72.526245,119.64661
1768030323566,-0.9277344,-0.040039062,-0.35595703,-4.0283203,-5.1879883,-5.6152344,0.0,0.0,0.0,-169.75525,73.30078,119.9707
1768030323654,-0.9404297,-0.04296875,-0.35009766,-6.7749023,0.0,-8.911133,0.0,0.0,0.0,-169.75525,73.30078,119.9707
1768030323666,-0.9404297,-0.04296875,-0.35009766,-6.7749023,0.0,-8.911133,0.0,0.0,0.0,-168.21716,73.33923,122.15698
1768030323754,-1.0273438,-0.01953125,-0.35595703,-13.061523,-1.7700195,-5.79834,0.0,0.0,0.0,-168.21716,73.33923,122.15698
1768030323765,-1.0273438,-0.01953125,-0.35595703,-13.061523,-1.7700195,-5.79834,0.0,0.0,0.0,-167.17346,73.13599,124.44214
1768030323853,-0.91796875,-0.07324219,-0.37402344,-8.605957,5.3100586,-6.0424805,0.0,0.0,0.0,-167.17346,73.13599,124.44214
1768030323865,-0.91796875,-0.07324219,-0.37402344,-8.605957,5.3100586,-6.0424805,0.0,0.0,0.0,-168.03589,72.74597,125.024414
1768030323953,-1.0053711,-0.037597656,-0.328125,-12.756348,24.414062,-14.526367,0.0,0.0,0.0,-168.03589,72.74597,125.024414
1768030323965,-1.0053711,-0.037597656,-0.328125,-12.756348,24.414062,-14.526367,0.0,0.0,0.0,-166.93726,71.06506,127.562256
1768030324053,-0.9580078,-0.104003906,-0.30273438,0.5493164,13.122559,-2.9296875,0.0,0.0,0.0,-166.93726,71.06506,127.562256
1768030324064,-0.9580078,-0.104003906,-0.30273438,0.5493164,13.122559,-2.9296875,0.0,0.0,0.0,-166.99219,69.43359,127.81494
1768030324153,-0.91259766,-0.107910156,-0.1821289,-5.92041,4.333496,-3.7231445,0.0,0.0,0.0,-166.99219,69.43359,127.81494
1768030324164,-0.91259766,-0.107910156,-0.1821289,-5.92041,4.333496,-3.7231445,0.0,0.0,0.0,-167.01416,68.21411,128.13354
1768030324252,-0.9711914,-0.11669922,-0.23925781,-3.1738281,-2.746582,-1.2817383,0.0,0.0,0.0,-167.01416,68.21411,128.13354
1768030324264,-0.9711914,-0.11669922,-0.23925781,-3.1738281,-2.746582,-1.2817383,0.0,0.0,0.0,-166.99219,68.32947,129.1278
1768030324352,-0.91748047,-0.11035156,-0.31396484,-10.437012,-10.314941,-0.4272461,0.0,0.0,0.0,-166.99219,68.32947,129.1278
1768030324364,-0.91748047,-0.11035156,-0.31396484,-10.437012,-10.314941,-0.4272461,0.0,0.0,0.0,-166.61865,69.01062,130.3418
1768030324452,-0.9448242,-0.09423828,-0.33642578,4.211426,-5.1879883,2.0751953,0.0,0.0,0.0,-166.61865,69.01062,130.3418
1768030324463,-0.9448242,-0.09423828,-0.33642578,4.211426,-5.1879883,2.0751953,0.0,0.0,0.0,-166.23413,69.77417,131.0669
1768030324552,-0.9301758,-0.122558594,-0.37695312,11.84082,-3.8452148,4.760742,0.0,0.0,0.0,-166.23413,69.77417,131.0669
1768030324563,-0.9301758,-0.122558594,-0.37695312,11.84082,-3.8452148,4.760742,0.0,0.0,0.0,-165.75623,70.356445,130.52856
1768030324652,-0.94677734,-0.1381836,-0.36083984,26.916504,-0.061035156,7.6904297,0.0,0.0,0.0,-165.75623,70.356445,130.52856
1768030324663,-0.94677734,-0.1381836,-0.36083984,26.916504,-0.061035156,7.6904297,0.0,0.0,0.0,-164.90479,70.53772,129.07288
1768030324751,-0.94433594,-0.14990234,-0.35839844,25.939941,3.479004,8.666992,0.0,0.0,0.0,-164.90479,70.53772,129.07288
1768030324763,-0.94433594,-0.14990234,-0.35839844,25.939941,3.479004,8.666992,0.0,0.0,0.0,-164.06433,70.42236,126.83716
1768030324851,-0.9394531,-0.07714844,-0.28222656,39.245605,13.366699,1.4648438,0.0,0.0,0.0,-164.06433,70.42236,126.83716
1768030324862,-0.9394531,-0.07714844,-0.28222656,39.245605,13.366699,1.4648438,0.0,0.0,0.0,-163.26233,69.713745,124.62341
1768030324950,-0.8857422,-0.09033203,-0.40283203,13.48877,5.7373047,0.18310547,0.0,0.0,0.0,-163.26233,69.713745,124.62341
1768030324962,-0.8857422,-0.09033203,-0.40283203,13.48877,5.7373047,0.18310547,0.0,0.0,0.0,-162.63062,69.82361,123.51929
1768030325051,-0.9736328,-0.029296875,-0.2680664,-4.272461,6.4086914,-3.4179688,0.0,0.0,0.0,-162.63062,69.82361,123.51929
1768030325062,-0.9736328,-0.029296875,-0.2680664,-4.272461,6.4086914,-3.4179688,0.0,0.0,0.0,-161.90002,68.829346,123.409424
1768030325150,-0.95996094,-0.014160156,-0.31982422,-9.094238,-5.2490234,3.90625,0.0,0.0,0.0,-161.90002,68.829346,123.409424
1768030325162,-0.95996094,-0.014160156,-0.31982422,-9.094238,-5.2490234,3.90625,0.0,0.0,0.0,-162.97119,69.12598,123.22815
1768030325250,-0.9526367,-0.018066406,-0.2578125,-5.065918,-7.873535,6.8969727,0.0,0.0,0.0,-162.97119,69.12598,123.22815
1768030325261,-0.9526367,-0.018066406,-0.2578125,-5.065918,-7.873535,6.8969727,0.0,0.0,0.0,-165.10803,69.96094,121.7395
1768030325350,-0.9423828,0.0073242188,-0.30029297,-8.7890625,-9.399414,5.3710938,0.0,0.0,0.0,-165.10803,69.96094,121.7395
1768030325362,-0.9423828,0.0073242188,-0.30029297,-8.7890625,-9.399414,5.3710938,0.0,0.0,0.0,-167.53052,71.12549,120.43213
1768030325449,-0.95214844,-0.024902344,-0.29248047,-0.7324219,-15.74707,4.3945312,0.0,0.0,0.0,-167.53052,71.12549,120.43213
1768030325461,-0.95214844,-0.024902344,-0.29248047,-0.7324219,-15.74707,4.3945312,0.0,0.0,0.0,-169.23889,72.60315,119.16321
1768030325549,-0.95458984,-0.041503906,-0.31054688,0.48828125,-18.554688,-1.0986328,0.0,0.0,0.0,-169.23889,72.60315,119.16321
1768030325560,-0.95458984,-0.041503906,-0.31054688,0.48828125,-18.554688,-1.0986328,0.0,0.0,0.0,-168.89282,74.366455,119.712524
1768030325648,-0.93115234,-0.061035156,-0.34179688,-4.699707,-14.831543,-7.1411133,0.0,0.0,0.0,-168.89282,74.366455,119.712524
1768030325660,-0.93115234,-0.061035156,-0.34179688,-4.699707,-14.831543,-7.1411133,0.0,0.0,0.0,-166.59119,75.66284,122.53601
1768030325748,-0.9526367,-0.0234375,-0.31591797,-12.329102,-8.544922,-8.850098,0.0,0.0,0.0,-166.59119,75.66284,122.53601
1768030325760,-0.9526367,-0.0234375,-0.31591797,-12.329102,-8.544922,-8.850098,0.0,0.0,0.0,-163.37769,76.2561,126.831665
1768030325848,-1.0161133,-0.025390625,-0.36669922,-15.014648,1.7089844,-6.0424805,0.0,0.0,0.0,-163.37769,76.2561,126.831665
1768030325859,-1.0161133,-0.025390625,-0.36669922,-15.014648,1.7089844,-6.0424805,0.0,0.0,0.0,-162.60315,76.16272,129.0564
1768030325948,-1.159668,-0.07470703,-0.3466797,-14.6484375,16.601562,-3.8452148,0.0,0.0,0.0,-162.60315,76.16272,129.0564
1768030325959,-1.159668,-0.07470703,-0.3466797,-14.6484375,16.601562,-3.8452148,0.0,0.0,0.0,-164.17969,74.69055,129.00696
1768030326047,-0.91552734,-0.07763672,-0.296875,-24.291992,0.4272461,1.8920898,0.0,0.0,0.0,-164.17969,74.69055,129.00696
1768030326059,-0.91552734,-0.07763672,-0.296875,-24.291992,0.4272461,1.8920898,0.0,0.0,0.0,-165.32227,73.861084,128.28735
1768030326147,-0.98535156,-0.11816406,-0.084472656,17.63916,17.028809,2.319336,0.0,0.0,0.0,-165.32227,73.861084,128.28735
1768030326159,-0.98535156,-0.11816406,-0.084472656,17.63916,17.028809,2.319336,0.0,0.0,0.0,-166.5747,72.301025,126.71631
1768030326247,-0.9785156,-0.11425781,-0.32128906,-20.935059,6.164551,-9.58252,0.0,0.0,0.0,-166.5747,72.301025,126.71631
1768030326259,-0.9785156,-0.11425781,-0.32128906,-20.935059,6.164551,-9.58252,0.0,0.0,0.0,-166.78345,72.01538,128.28735
1768030326347,-0.8959961,-0.13671875,-0.19970703,-11.230469,-2.746582,-3.6621094,0.0,0.0,0.0,-166.78345,72.01538,128.28735
1768030326359,-0.8959961,-0.13671875,-0.19970703,-11.230469,-2.746582,-3.6621094,0.0,0.0,0.0,-165.35522,72.004395,130.51208
1768030326446,-0.93310547,-0.08154297,-0.31396484,0.30517578,2.2583008,1.6479492,0.0,0.0,0.0,-165.35522,72.004395,130.51208
1768030326458,-0.93310547,-0.08154297,-0.31396484,0.30517578,2.2583008,1.6479492,0.0,0.0,0.0,-164.86633,72.17468,131.4624
1768030326546,-0.90966797,-0.09375,-0.3305664,7.2631836,0.7324219,5.7373047,0.0,0.0,0.0,-164.86633,72.17468,131.4624
1768030326557,-0.90966797,-0.09375,-0.3305664,7.2631836,0.7324219,5.7373047,0.0,0.0,0.0,-165.42114,72.03735,130.30334
1768030326646,-0.93896484,-0.10888672,-0.33496094,16.601562,6.286621,8.361816,0.0,0.0,0.0,-165.42114,72.03735,130.30334
1768030326657,-0.93896484,-0.10888672,-0.33496094,16.601562,6.286621,8.361816,0.0,0.0,0.0,-166.35498,71.76819,127.81494
1768030326745,-0.99121094,-0.18798828,-0.4267578,27.404785,10.253906,3.0517578,0.0,0.0,0.0,-166.35498,71.76819,127.81494
1768030326757,-0.99121094,-0.18798828,-0.4267578,27.404785,10.253906,3.0517578,0.0,0.0,0.0,-166.31104,71.20239,125.50232
1768030326845,-0.86376953,-0.16259766,-0.35107422,27.404785,6.3476562,0.0,0.0,0.0,0.0,-166.31104,71.20239,125.50232
1768030326857,-0.86376953,-0.16259766,-0.35107422,27.404785,6.3476562,0.0,0.0,0.0,0.0,-163.6853,70.13672,124.93652
1768030326945,-0.90185547,-0.055664062,-0.17382812,15.258789,19.40918,-6.713867,0.0,0.0,0.0,-163.6853,70.13672,124.93652
1768030326956,-0.90185547,-0.055664062,-0.17382812,15.258789,19.40918,-6.713867,0.0,0.0,0.0,-160.64758,67.79114,125.88135
1768030327045,-0.9863281,-0.057617188,-0.31347656,25.268555,2.1362305,-3.3569336,0.0,0.0,0.0,-160.64758,67.79114,125.88135
1768030327056,-0.9863281,-0.057617188,-0.31347656,25.268555,2.1362305,-3.3569336,0.0,0.0,0.0,-159.3457,67.77466,126.430664
1768030327144,-0.9291992,0.036621094,-0.2944336,-2.319336,-14.953613,12.023926,0.0,0.0,0.0,-159.3457,67.77466,126.430664
1768030327156,-0.9291992,0.036621094,-0.2944336,-2.319336,-14.953613,12.023926,0.0,0.0,0.0,-159.11499,68.4613,125.91431
1768030327244,-0.93603516,-0.087402344,-0.21875,6.713867,-0.12207031,7.751465,0.0,0.0,0.0,-159.11499,68.4613,125.91431
1768030327256,-0.93603516,-0.087402344,-0.21875,6.713867,-0.12207031,7.751465,0.0,0.0,0.0,-161.36719,69.45007,123.21716
1768030327344,-0.9511719,-0.025878906,-0.34765625,1.159668,-12.084961,10.498047,0.0,0.0,0.0,-161.36719,69.45007,123.21716
1768030327355,-0.9511719,-0.025878906,-0.34765625,1.159668,-12.084961,10.498047,0.0,0.0,0.0,-163.66882,71.00464,121.431885
1768030327443,-0.921875,-0.038085938,-0.2758789,-6.3476562,-16.967773,8.239746,0.0,0.0,0.0,-163.66882,71.00464,121.431885
1768030327455,-0.921875,-0.038085938,-0.2758789,-6.3476562,-16.967773,8.239746,0.0,0.0,0.0,-165.72876,72.1637,119.58069
1768030327544,-0.9375,-0.080566406,-0.31982422,-4.3945312,-10.131836,-2.8686523,0.0,0.0,0.0,-165.72876,72.1637,119.58069
1768030327555,-0.9375,-0.080566406,-0.31982422,-4.3945312,-10.131836,-2.8686523,0.0,0.0,0.0,-166.39893,73.62488,119.6521
1768030327643,-0.94384766,-0.0703125,-0.34179688,-13.916016,-10.7421875,-6.0424805,0.0,0.0,0.0,-166.39893,73.62488,119.6521
1768030327655,-0.94384766,-0.0703125,-0.34179688,-13.916016,-10.7421875,-6.0424805,0.0,0.0,0.0,-165.47607,74.54224,121.94275
1768030327743,-0.9658203,-0.01953125,-0.32861328,-18.371582,-9.58252,-5.3100586,0.0,0.0,0.0,-165.47607,74.54224,121.94275
1768030327754,-0.9658203,-0.01953125,-0.32861328,-18.371582,-9.58252,-5.3100586,0.0,0.0,0.0,-164.09729,75.1355,125.04089
1768030327843,-1.2290039,-0.0390625,-0.3881836,-14.099121,7.2021484,-2.319336,0.0,0.0,0.0,-164.09729,75.1355,125.04089
1768030327854,-1.2290039,-0.0390625,-0.3881836,-14.099121,7.2021484,-2.319336,0.0,0.0,0.0,-164.36646,74.937744,126.52405
1768030327942,-0.9838867,-0.110839844,-0.2763672,-23.986816,-5.7373047,7.385254,0.0,0.0,0.0,-164.36646,74.937744,126.52405
1768030327953,-0.9838867,-0.110839844,-0.2763672,-23.986816,-5.7373047,7.385254,0.0,0.0,0.0,-166.3385,74.767456,124.63989
1768030328042,-0.91259766,0.008300781,-0.09375,-0.24414062,9.338379,-7.751465,0.0,0.0,0.0,-166.3385,74.767456,124.63989
1768030328053,-0.91259766,0.008300781,-0.09375,-0.24414062,9.338379,-7.751465,0.0,0.0,0.0,-166.14624,73.6084,125.88684
1768030328142,-0.9951172,-0.12109375,-0.22509766,-29.296875,0.61035156,-5.7373047,0.0,0.0,0.0,-166.14624,73.6084,125.88684
1768030328153,-0.9951172,-0.12109375,-0.22509766,-29.296875,0.61035156,-5.7373047,0.0,0.0,0.0,-166.26709,73.707275,127.49634
1768030328241,-0.92089844,-0.032226562,-0.20117188,1.3427734,2.4414062,3.479004,0.0,0.0,0.0,-166.26709,73.707275,127.49634
1768030328253,-0.92089844,-0.032226562,-0.20117188,1.3427734,2.4414062,3.479004,0.0,0.0,0.0,-166.39893,73.306274,128.47961
1768030328341,-0.95410156,-0.14794922,-0.27001953,-2.319336,0.30517578,-2.2583008,0.0,0.0,0.0,-166.39893,73.306274,128.47961
1768030328353,-0.95410156,-0.14794922,-0.27001953,-2.319336,0.30517578,-2.2583008,0.0,0.0,0.0,-167.33276,73.93799,127.88635
1768030328441,-0.93115234,-0.05810547,-0.27783203,3.0517578,2.5634766,3.1738281,0.0,0.0,0.0,-167.33276,73.93799,127.88635
1768030328452,-0.93115234,-0.05810547,-0.27783203,3.0517578,2.5634766,3.1738281,0.0,0.0,0.0,-166.34949,73.67981,128.63892
1768030328540,-0.9223633,-0.09326172,-0.32763672,9.765625,5.126953,5.1879883,0.0,0.0,0.0,-166.34949,73.67981,128.63892
1768030328552,-0.9223633,-0.09326172,-0.32763672,9.765625,5.126953,5.1879883,0.0,0.0,0.0,-167.948,73.4436,126.59546
1768030328640,-0.9370117,-0.14990234,-0.3017578,13.48877,4.638672,0.8544922,0.0,0.0,0.0,-167.948,73.4436,126.59546
1768030328652,-0.9370117,-0.14990234,-0.3017578,13.48877,4.638672,0.8544922,0.0,0.0,0.0,-167.95898,72.74597,125.23865
1768030328740,-0.96484375,-0.111328125,-0.42236328,14.831543,5.6762695,3.479004,0.0,0.0,0.0,-167.95898,72.74597,125.23865
1768030328751,-0.96484375,-0.111328125,-0.42236328,14.831543,5.6762695,3.479004,0.0,0.0,0.0,-166.79993,72.05383,125.095825
1768030328840,-1.1069336,-0.13769531,-0.40234375,15.441895,7.6293945,2.0751953,0.0,0.0,0.0,-166.79993,72.05383,125.095825
1768030328851,-1.1069336,-0.13769531,-0.40234375,15.441895,7.6293945,2.0751953,0.0,0.0,0.0,-166.38794,71.02661,123.60718
1768030328939,-0.9116211,-0.11230469,-0.2578125,-7.9345703,-2.8076172,3.0517578,0.0,0.0,0.0,-166.38794,71.02661,123.60718
1768030328951,-0.9116211,-0.11230469,-0.2578125,-7.9345703,-2.8076172,3.0517578,0.0,0.0,0.0,-165.97046,69.90051,122.87659
1768030329039,-0.89501953,-0.0078125,-0.22949219,12.145996,3.7231445,-3.90625,0.0,0.0,0.0,-165.97046,69.90051,122.87659
1768030329051,-0.89501953,-0.0078125,-0.22949219,12.145996,3.7231445,-3.90625,0.0,0.0,0.0,-165.55847,69.92798,123.36548
1768030329139,-0.98291016,-0.0078125,-0.20166016,-13.244629,-12.6953125,3.112793,0.0,0.0,0.0,-165.55847,69.92798,123.36548
1768030329150,-0.98291016,-0.0078125,-0.20166016,-13.244629,-12.6953125,3.112793,0.0,0.0,0.0,-165.0476,70.85632,123.64014
1768030329238,-0.98046875,0.032714844,-0.26123047,-6.4697266,-9.094238,0.48828125,0.0,0.0,0.0,-165.0476,70.85632,123.64014
1768030329250,-0.98046875,0.032714844,-0.26123047,-6.4697266,-9.094238,0.48828125,0.0,0.0,0.0,-166.0199,72.196655,123.74451
1768030329338,-0.9448242,-0.036132812,-0.2553711,-8.544922,-9.70459,-0.48828125,0.0,0.0,0.0,-166.0199,72.196655,123.74451
1768030329350,-0.9448242,-0.036132812,-0.2553711,-8.544922,-9.70459,-0.48828125,0.0,0.0,0.0,-166.72302,72.82837,123.96973
1768030329438,-0.9296875,-0.0063476562,-0.29492188,0.0,-4.8828125,0.48828125,0.0,0.0,0.0,-166.72302,72.82837,123.96973
1768030329449,-0.9296875,-0.0063476562,-0.29492188,0.0,-4.8828125,0.48828125,0.0,0.0,0.0,-167.04712,73.7677,124.16748
1768030329538,-0.97753906,-0.06347656,-0.27490234,10.620117,-0.61035156,-0.4272461,0.0,0.0,0.0,-167.04712,73.7677,124.16748
1768030329549,-0.97753906,-0.06347656,-0.27490234,10.620117,-0.61035156,-0.4272461,0.0,0.0,0.0,-167.12402,73.828125,123.62915
1768030329637,-0.9165039,-0.053710938,-0.2680664,0.12207031,1.8920898,-7.2021484,0.0,0.0,0.0,-167.12402,73.828125,123.62915
1768030329649,-0.9165039,-0.053710938,-0.2680664,0.12207031,1.8920898,-7.2021484,0.0,0.0,0.0,-165.2124,73.526,125.408936
1768030329737,-0.9433594,-0.075683594,-0.34277344,-17.456055,3.7841797,-6.591797,0.0,0.0,0.0,-165.2124,73.526,125.408936
1768030329749,-0.9433594,-0.075683594,-0.34277344,-17.456055,3.7841797,-6.591797,0.0,0.0,0.0,-164.96521,73.26782,127.08435
1768030329837,-0.9404297,-0.02734375,-0.3623047,-20.935059,1.3427734,-6.652832,0.0,0.0,0.0,-164.96521,73.26782,127.08435
1768030329848,-0.9404297,-0.02734375,-0.3623047,-20.935059,1.3427734,-6.652832,0.0,0.0,0.0,-164.94873,72.69104,129.08936
1768030329936,-0.9765625,-0.047851562,-0.43945312,1.5258789,5.432129,-0.36621094,0.0,0.0,0.0,-164.94873,72.69104,129.08936
1768030329949,-0.9765625,-0.047851562,-0.43945312,1.5258789,5.432129,-0.36621094,0.0,0.0,0.0,-165.89905,72.30652,129.03992
1768030330036,-1.2197266,-0.071777344,-0.34765625,9.643555,6.8969727,3.2348633,0.0,0.0,0.0,-165.89905,72.30652,129.03992
1768030330048,-1.2197266,-0.071777344,-0.34765625,9.643555,6.8969727,3.2348633,0.0,0.0,0.0,-166.38245,71.68579,127.87537
1768030330136,-0.9536133,-0.068847656,-0.45996094,3.7841797,-20.446777,10.009766,0.0,0.0,0.0,-166.38245,71.68579,127.87537
1768030330147,-0.9536133,-0.068847656,-0.45996094,3.7841797,-20.446777,10.009766,0.0,0.0,0.0,-166.52527,73.273315,125.892334
1768030330236,-0.91845703,-0.083984375,-0.18261719,24.658203,15.319824,4.638672,0.0,0.0,0.0,-166.52527,73.273315,125.892334
1768030330247,-0.91845703,-0.083984375,-0.18261719,24.658203,15.319824,4.638672,0.0,0.0,0.0,-166.71753,72.01538,123.22815
1768030330335,-0.94921875,-0.0234375,-0.11767578,-12.145996,-6.225586,7.6293945,0.0,0.0,0.0,-166.71753,72.01538,123.22815
1768030330347,-0.94921875,-0.0234375,-0.11767578,-12.145996,-6.225586,7.6293945,0.0,0.0,0.0,-168.31604,72.26807,121.448364
1768030330435,-1.0522461,-0.095703125,-0.25732422,-14.770508,-2.1362305,4.0283203,0.0,0.0,0.0,-168.31604,72.26807,121.448364
1768030330447,-1.0522461,-0.095703125,-0.25732422,-14.770508,-2.1362305,4.0283203,0.0,0.0,0.0,-171.42517,73.25134,119.65759
1768030330535,-0.8691406,-0.059570312,-0.2607422,-11.352539,-10.009766,4.3945312,0.0,0.0,0.0,-171.42517,73.25134,119.65759
1768030330546,-0.8691406,-0.059570312,-0.2607422,-11.352539,-10.009766,4.3945312,0.0,0.0,0.0,-173.29834,73.83911,118.88855
1768030330635,-0.95410156,-0.030761719,-0.28173828,0.0,2.2583008,-0.7324219,0.0,0.0,0.0,-173.29834,73.83911,118.88855
1768030330646,-0.95410156,-0.030761719,-0.28173828,0.0,2.2583008,-0.7324219,0.0,0.0,0.0,-173.31482,73.83362,119.42688
1768030330734,-0.9316406,-0.08251953,-0.27392578,6.164551,-0.6713867,-3.0517578,0.0,0.0,0.0,-173.31482,73.83362,119.42688
1768030330746,-0.9316406,-0.08251953,-0.27392578,6.164551,-0.6713867,-3.0517578,0.0,0.0,0.0,-172.10083,73.77319,120.08057
1768030330834,-0.92285156,-0.1274414,-0.32958984,13.427734,-4.3945312,-2.1972656,0.0,0.0,0.0,-172.10083,73.77319,120.08057
1768030330846,-0.92285156,-0.1274414,-0.32958984,13.427734,-4.3945312,-2.1972656,0.0,0.0,0.0,-169.83765,73.844604,121.278076
1768030330934,-1.0415039,0.09326172,-0.10498047,41.015625,-2.6855469,0.36621094,0.0,0.0,0.0,-169.83765,73.844604,121.278076
1768030330946,-1.0415039,0.09326172,-0.10498047,41.015625,-2.6855469,0.36621094,0.0,0.0,0.0,-167.23389,73.49304,121.94824
1768030331033,-0.9916992,0.018554688,-0.33007812,12.023926,-8.7890625,2.1362305,0.0,0.0,0.0,-167.23389,73.49304,121.94824
1768030331045,-0.9916992,0.018554688,-0.33007812,12.023926,-8.7890625,2.1362305,0.0,0.0,0.0,-167.40967,74.99817,121.07483
1768030331133,-0.9746094,-0.123535156,-0.12988281,-14.831543,-17.700195,-1.8310547,0.0,0.0,0.0,-167.40967,74.99817,121.07483
1768030331145,-0.9746094,-0.123535156,-0.12988281,-14.831543,-17.700195,-1.8310547,0.0,0.0,0.0,-165.71777,76.2616,121.79993
1768030331233,-0.9711914,0.046875,-0.17822266,-7.1411133,-1.8920898,1.4038086,0.0,0.0,0.0,-165.71777,76.2616,121.79993
1768030331245,-0.9711914,0.046875,-0.17822266,-7.1411133,-1.8920898,1.4038086,0.0,0.0,0.0,-164.9762,76.97571,123.57971
1768030331333,-1.0092773,-0.05126953,-0.19873047,-15.380859,0.30517578,-0.36621094,0.0,0.0,0.0,-164.9762,76.97571,123.57971
1768030331344,-1.0092773,-0.05126953,-0.19873047,-15.380859,0.30517578,-0.36621094,0.0,0.0,0.0,-166.32202,76.84387,123.20068
1768030331432,-1.012207,-0.03125,-0.20898438,-6.591797,5.126953,-4.272461,0.0,0.0,0.0,-166.32202,76.84387,123.20068
1768030331444,-1.012207,-0.03125,-0.20898438,-6.591797,5.126953,-4.272461,0.0,0.0,0.0,-166.36597,76.34949,124.17847
1768030331532,-0.85058594,0.037109375,-0.15283203,7.080078,-10.131836,-0.18310547,0.0,0.0,0.0,-166.36597,76.34949,124.17847
1768030331544,-0.85058594,0.037109375,-0.15283203,7.080078,-10.131836,-0.18310547,0.0,0.0,0.0,-165.03113,76.70105,125.37048
1768030331632,-1.0454102,-0.119628906,-0.2890625,12.573242,10.253906,-5.92041,0.0,0.0,0.0,-165.03113,76.70105,125.37048
1768030331644,-1.0454102,-0.119628906,-0.2890625,12.573242,10.253906,-5.92041,0.0,0.0,0.0,-164.87732,76.86035,125.16174
1768030331732,-0.91796875,-0.044921875,-0.2783203,-2.9296875,-6.3476562,-4.8828125,0.0,0.0,0.0,-164.87732,76.86035,125.16174
1768030331743,-0.91796875,-0.044921875,-0.2783203,-2.9296875,-6.3476562,-4.8828125,0.0,0.0,0.0,-162.25159,76.59668,127.48535
1768030331831,-0.94677734,-0.072753906,-0.2705078,-10.7421875,-0.30517578,-5.6152344,0.0,0.0,0.0,-162.25159,76.59668,127.48535
1768030331843,-0.94677734,-0.072753906,-0.2705078,-10.7421875,-0.30517578,-5.6152344,0.0,0.0,0.0,-160.72998,76.59119,129.8584
1768030331931,-0.95751953,-0.06689453,-0.3076172,-27.34375,0.7324219,-7.5683594,0.0,0.0,0.0,-160.72998,76.59119,129.8584
1768030331943,-0.95751953,-0.06689453,-0.3076172,-27.34375,0.7324219,-7.5683594,0.0,0.0,0.0,-160.36194,76.27258,132.29736
1768030332031,-0.9868164,-0.07763672,-0.40576172,-26.000977,5.065918,-5.1879883,0.0,0.0,0.0,-160.36194,76.27258,132.29736
1768030332042,-0.9868164,-0.07763672,-0.40576172,-26.000977,5.065918,-5.1879883,0.0,0.0,0.0,-161.49902,75.50903,133.90686
1768030332131,-1.2148438,-0.028808594,-0.38916016,-10.803223,21.728516,-7.019043,0.0,0.0,0.0,-161.49902,75.50903,133.90686
1768030332142,-1.2148438,-0.028808594,-0.38916016,-10.803223,21.728516,-7.019043,0.0,0.0,0.0,-163.21838,73.85559,134.34082
1768030332230,-1.0517578,-0.07128906,-0.29345703,7.385254,14.587402,2.0751953,0.0,0.0,0.0,-163.21838,73.85559,134.34082
1768030332242,-1.0517578,-0.07128906,-0.29345703,7.385254,14.587402,2.0751953,0.0,0.0,0.0,-164.84436,72.08679,132.56104
1768030332330,-0.91503906,-0.114746094,-0.045410156,-1.4648438,-14.160156,4.0283203,0.0,0.0,0.0,-164.84436,72.08679,132.56104
1768030332341,-0.91503906,-0.114746094,-0.045410156,-1.4648438,-14.160156,4.0283203,0.0,0.0,0.0,-165.02014,72.14172,131.03943
1768030332430,-1.0292969,-0.125,-0.14501953,11.108398,-6.958008,9.765625,0.0,0.0,0.0,-165.02014,72.14172,131.03943
1768030332441,-1.0292969,-0.125,-0.14501953,11.108398,-6.958008,9.765625,0.0,0.0,0.0,-165.84961,73.03711,129.74304
1768030332530,-0.9819336,-0.07714844,-0.24072266,2.2583008,-4.9438477,-1.8310547,0.0,0.0,0.0,-165.84961,73.03711,129.74304
1768030332541,-0.9819336,-0.07714844,-0.24072266,2.2583008,-4.9438477,-1.8310547,0.0,0.0,0.0,-165.03662,74.21814,130.0946
1768030332629,-0.95458984,-0.079589844,-0.23925781,9.277344,0.9765625,0.0,0.0,0.0,0.0,-165.03662,74.21814,130.0946
1768030332641,-0.95458984,-0.079589844,-0.23925781,9.277344,0.9765625,0.0,0.0,0.0,0.0,-163.30627,74.37195,131.05591
1768030332729,-0.9248047,-0.11035156,-0.27441406,12.329102,1.2207031,7.3242188,0.0,0.0,0.0,-163.30627,74.37195,131.05591
1768030332740,-0.9248047,-0.11035156,-0.27441406,12.329102,1.2207031,7.3242188,0.0,0.0,0.0,-163.67432,74.52026,129.57275
1768030332829,-0.9145508,-0.15625,-0.30419922,5.2490234,8.483887,1.7700195,0.0,0.0,0.0,-163.67432,74.52026,129.57275
1768030332840,-0.9145508,-0.15625,-0.30419922,5.2490234,8.483887,1.7700195,0.0,0.0,0.0,-164.4159,74.053345,127.65564
1768030332929,-0.9428711,-0.055664062,-0.33984375,5.065918,11.230469,5.79834,0.0,0.0,0.0,-164.4159,74.053345,127.65564
1768030332940,-0.9428711,-0.055664062,-0.33984375,5.065918,11.230469,5.79834,0.0,0.0,0.0,-165.20142,72.976685,126.49658
1768030333028,-1.1967773,-0.08300781,-0.37109375,8.605957,8.972168,4.1503906,0.0,0.0,0.0,-165.20142,72.976685,126.49658
1768030333040,-1.1967773,-0.08300781,-0.37109375,8.605957,8.972168,4.1503906,0.0,0.0,0.0,-167.50305,72.26257,123.54126
1768030333128,-0.99365234,-0.10449219,-0.3486328,-17.39502,-13.977051,2.8686523,0.0,0.0,0.0,-167.50305,72.26257,123.54126
1768030333139,-0.99365234,-0.10449219,-0.3486328,-17.39502,-13.977051,2.8686523,0.0,0.0,0.0,-167.96448,72.438354,122.66785
1768030333228,-0.9394531,-0.07470703,-0.11669922,1.0986328,-3.90625,-6.8359375,0.0,0.0,0.0,-167.96448,72.438354,122.66785
1768030333239,-0.9394531,-0.07470703,-0.11669922,1.0986328,-3.90625,-6.8359375,0.0,0.0,0.0,-166.69006,72.89429,123.65662
1768030333327,-1.0063477,-0.0546875,-0.26123047,-17.8833,-4.699707,-12.207031,0.0,0.0,0.0,-166.69006,72.89429,123.65662
1768030333339,-1.0063477,-0.0546875,-0.26123047,-17.8833,-4.699707,-12.207031,0.0,0.0,0.0,-164.05884,73.515015,127.595215
1768030333427,-0.9692383,-0.019042969,-0.2475586,-14.6484375,-2.5634766,-8.239746,0.0,0.0,0.0,-164.05884,73.515015,127.595215
1768030333439,-0.9692383,-0.019042969,-0.2475586,-14.6484375,-2.5634766,-8.239746,0.0,0.0,0.0,-161.57043,73.482056,131.7041
1768030333527,-0.95947266,-0.034179688,-0.20947266,-0.4272461,-7.080078,0.5493164,0.0,0.0,0.0,-161.57043,73.482056,131.7041
1768030333538,-0.95947266,-0.034179688,-0.20947266,-0.4272461,-7.080078,0.5493164,0.0,0.0,0.0,-160.93872,73.83911,133.1543
1768030333626,-0.9633789,-0.068359375,-0.18017578,3.540039,-6.8359375,-0.7324219,0.0,0.0,0.0,-160.93872,73.83911,133.1543
1768030333638,-0.9633789,-0.068359375,-0.18017578,3.540039,-6.8359375,-0.7324219,0.0,0.0,0.0,-160.5487,74.70154,133.67615
1768030333726,-1.0195312,-0.0078125,-0.28759766,9.399414,-0.061035156,4.1503906,0.0,0.0,0.0,-160.5487,74.70154,133.67615
1768030333738,-1.0195312,-0.0078125,-0.28759766,9.399414,-0.061035156,4.1503906,0.0,0.0,0.0,-160.1477,75.55298,133.69263
1768030333826,-0.9711914,-0.056152344,-0.12158203,18.005371,6.1035156,5.2490234,0.0,0.0,0.0,-160.1477,75.55298,133.69263
1768030333837,-0.9711914,-0.056152344,-0.12158203,18.005371,6.1035156,5.2490234,0.0,0.0,0.0,-161.2024,74.99817,130.87463
1768030333926,-0.95751953,0.0024414062,-0.3227539,3.540039,3.3569336,7.6904297,0.0,0.0,0.0,-161.2024,74.99817,130.87463
1768030333937,-0.95751953,0.0024414062,-0.3227539,3.540039,3.3569336,7.6904297,0.0,0.0,0.0,-164.26758,75.2948,127.86987
1768030334025,-0.953125,-0.0625,-0.2241211,-1.4648438,-3.112793,7.507324,0.0,0.0,0.0,-164.26758,75.2948,127.86987
1768030334037,-0.953125,-0.0625,-0.2241211,-1.4648438,-3.112793,7.507324,0.0,0.0,0.0,-166.97021,75.10803,124.62341
1768030334125,-0.9482422,-0.07910156,-0.32666016,1.7089844,-0.48828125,0.5493164,0.0,0.0,0.0,-166.97021,75.10803,124.62341
1768030334137,-0.9482422,-0.07910156,-0.32666016,1.7089844,-0.48828125,0.5493164,0.0,0.0,0.0,-168.44238,75.3772,123.24463
1768030334225,-0.9213867,-0.041503906,-0.32958984,-6.286621,-0.9765625,-1.6479492,0.0,0.0,0.0,-168.44238,75.3772,123.24463
1768030334237,-0.9213867,-0.041503906,-0.32958984,-6.286621,-0.9765625,-1.6479492,0.0,0.0,0.0,-168.17322,75.10254,123.77197
1768030334325,-0.9350586,-0.055664062,-0.32714844,-8.544922,1.159668,-5.7373047,0.0,0.0,0.0,-168.17322,75.10254,123.77197
1768030334336,-0.9350586,-0.055664062,-0.32714844,-8.544922,1.159668,-5.7373047,0.0,0.0,0.0,-167.35474,74.67407,125.1178
1768030334424,-0.9741211,-0.07470703,-0.40429688,-9.399414,1.7089844,-6.3476562,0.0,0.0,0.0,-167.35474,74.67407,125.1178
1768030334436,-0.9741211,-0.07470703,-0.40429688,-9.399414,1.7089844,-6.3476562,0.0,0.0,0.0,-166.53625,74.13574,126.91406
1768030334524,-0.9399414,-0.034179688,-0.3959961,-6.958008,-0.12207031,-1.159668,0.0,0.0,0.0,-166.53625,74.13574,126.91406
1768030334536,-0.9399414,-0.034179688,-0.3959961,-6.958008,-0.12207031,-1.159668,0.0,0.0,0.0,-166.44287,73.59192,127.83142
1768030334624,-0.9970703,-0.04736328,-0.3876953,-4.8828125,13.671875,-6.713867,0.0,0.0,0.0,-166.44287,73.59192,127.83142
1768030334635,-0.9970703,-0.04736328,-0.3876953,-4.8828125,13.671875,-6.713867,0.0,0.0,0.0,-166.33301,72.68555,128.43567
1768030334723,-0.94140625,-0.08496094,-0.37158203,5.92041,10.498047,-0.7324219,0.0,0.0,0.0,-166.33301,72.68555,128.43567
1768030334735,-0.94140625,-0.08496094,-0.37158203,5.92041,10.498047,-0.7324219,0.0,0.0,0.0,-166.55273,71.92749,127.5238
1768030334823,-0.9667969,-0.10107422,0.04736328,-1.7089844,-10.314941,2.0751953,0.0,0.0,0.0,-166.55273,71.92749,127.5238
1768030334835,-0.9667969,-0.10107422,0.04736328,-1.7089844,-10.314941,2.0751953,0.0,0.0,0.0,-165.97595,71.55945,127.47986
1768030334923,-0.9814453,-0.071777344,-0.35888672,3.6621094,-4.0893555,-1.3427734,0.0,0.0,0.0,-165.97595,71.55945,127.47986
1768030334935,-0.9814453,-0.071777344,-0.35888672,3.6621094,-4.0893555,-1.3427734,0.0,0.0,0.0,-167.16248,72.78992,128.32031
1768030335023,-0.9428711,-0.05810547,-0.24169922,1.7700195,0.4272461,-6.3476562,0.0,0.0,0.0,-167.16248,72.78992,128.32031
1768030335034,-0.9428711,-0.05810547,-0.24169922,1.7700195,0.4272461,-6.3476562,0.0,0.0,0.0,-164.66858,72.54822,130.34729
1768030335122,-0.92529297,-0.076171875,-0.22314453,14.099121,2.9907227,0.12207031,0.0,0.0,0.0,-164.66858,72.54822,130.34729
1768030335134,-0.92529297,-0.076171875,-0.22314453,14.099121,2.9907227,0.12207031,0.0,0.0,0.0,-163.07556,72.44934,131.03394
1768030335222,-0.9536133,-0.12011719,-0.2553711,9.887695,5.1879883,-0.7324219,0.0,0.0,0.0,-163.07556,72.44934,131.03394
1768030335234,-0.9536133,-0.12011719,-0.2553711,9.887695,5.1879883,-0.7324219,0.0,0.0,0.0,-162.17468,72.13623,130.88013
1768030335322,-0.921875,-0.1508789,-0.28808594,10.498047,1.5258789,-0.8544922,0.0,0.0,0.0,-162.17468,72.13623,130.88013
1768030335333,-0.921875,-0.1508789,-0.28808594,10.498047,1.5258789,-0.8544922,0.0,0.0,0.0,-160.89478,71.96045,131.12183
1768030335422,-0.93115234,-0.13671875,-0.33154297,6.8359375,3.1738281,1.4648438,0.0,0.0,0.0,-160.89478,71.96045,131.12183
1768030335433,-0.93115234,-0.13671875,-0.33154297,6.8359375,3.1738281,1.4648438,0.0,0.0,0.0,-159.80713,71.80664,131.24817
1768030335521,-0.96728516,-0.16503906,-0.41259766,9.155273,4.5776367,7.080078,0.0,0.0,0.0,-159.80713,71.80664,131.24817
1768030335533,-0.96728516,-0.16503906,-0.41259766,9.155273,4.5776367,7.080078,0.0,0.0,0.0,-160.89478,71.28479,129.27612
1768030335621,-0.9379883,-0.20507812,-0.4296875,12.573242,5.79834,3.7231445,0.0,0.0,0.0,-160.89478,71.28479,129.27612
1768030335632,-0.9379883,-0.20507812,-0.4296875,12.573242,5.79834,3.7231445,0.0,0.0,0.0,-161.51001,70.52673,127.34253
1768030335721,-0.96875,-0.07373047,-0.25146484,9.643555,20.751953,-13.549805,0.0,0.0,0.0,-161.51001,70.52673,127.34253
1768030335732,-0.96875,-0.07373047,-0.25146484,9.643555,20.751953,-13.549805,0.0,0.0,0.0,-159.59839,68.4613,128.13904
1768030335821,-0.9003906,-0.08496094,-0.3544922,-4.9438477,-2.380371,-17.150879,0.0,0.0,0.0,-159.59839,68.4613,128.13904
1768030335832,-0.9003906,-0.08496094,-0.3544922,-4.9438477,-2.380371,-17.150879,0.0,0.0,0.0,-157.4176,68.35693,131.71509
1768030335920,-0.9194336,0.041992188,-0.119140625,2.0141602,-25.08545,7.1411133,0.0,0.0,0.0,-157.4176,68.35693,131.71509
1768030335932,-0.9194336,0.041992188,-0.119140625,2.0141602,-25.08545,7.1411133,0.0,0.0,0.0,-154.10522,69.13696,134.63196
1768030336020,-1.0424805,-0.08300781,-0.21044922,10.192871,-3.2348633,10.070801,0.0,0.0,0.0,-154.10522,69.13696,134.63196
1768030336032,-1.0424805,-0.08300781,-0.21044922,10.192871,-3.2348633,10.070801,0.0,0.0,0.0,-155.39612,71.152954,133.0719
1768030336120,-0.921875,-0.036621094,-0.26611328,-2.380371,-6.225586,4.1503906,0.0,0.0,0.0,-155.39612,71.152954,133.0719
1768030336131,-0.921875,-0.036621094,-0.26611328,-2.380371,-6.225586,4.1503906,0.0,0.0,0.0,-156.88477,72.00989,131.75903
1768030336220,-0.95458984,-0.107421875,-0.2758789,-11.779785,-3.112793,0.6713867,0.0,0.0,0.0,-156.88477,72.00989,131.75903
1768030336231,-0.95458984,-0.107421875,-0.2758789,-11.779785,-3.112793,0.6713867,0.0,0.0,0.0,-158.49976,72.74048,131.02295
1768030336319,-0.92041016,-0.10058594,-0.29736328,-13.73291,-10.070801,-4.8217773,0.0,0.0,0.0,-158.49976,72.74048,131.02295
1768030336331,-0.92041016,-0.10058594,-0.29736328,-13.73291,-10.070801,-4.8217773,0.0,0.0,0.0,-158.53271,73.168945,132.40723
1768030336419,-0.94921875,-0.10253906,-0.38232422,-14.221191,-5.065918,-5.9814453,0.0,0.0,0.0,-158.53271,73.168945,132.40723
1768030336431,-0.94921875,-0.10253906,-0.38232422,-14.221191,-5.065918,-5.9814453,0.0,0.0,0.0,-157.5824,73.8501,135.05493
1768030336519,-0.9584961,-0.07324219,-0.31396484,-12.817383,-7.9956055,-3.1738281,0.0,0.0,0.0,-157.5824,73.8501,135.05493
1768030336530,-0.9584961,-0.07324219,-0.31396484,-12.817383,-7.9956055,-3.1738281,0.0,0.0,0.0,-156.97815,73.97644,136.95007
1768030336618,-1.0371094,-0.05419922,-0.37695312,-10.7421875,-2.4414062,-0.6713867,0.0,0.0,0.0,-156.97815,73.97644,136.95007
1768030336630,-1.0371094,-0.05419922,-0.37695312,-10.7421875,-2.4414062,-0.6713867,0.0,0.0,0.0,-157.78015,74.31152,137.65869
1768030336718,-0.9526367,-0.04638672,-0.30078125,-0.79345703,11.474609,-2.380371,0.0,0.0,0.0,-157.78015,74.31152,137.65869
1768030336730,-0.9526367,-0.04638672,-0.30078125,-0.79345703,11.474609,-2.380371,0.0,0.0,0.0,-158.98315,73.65234,137.32361
1768030336818,-0.9291992,-0.1171875,-0.24169922,8.911133,12.878418,-1.159668,0.0,0.0,0.0,-158.98315,73.65234,137.32361
1768030336829,-0.9291992,-0.1171875,-0.24169922,8.911133,12.878418,-1.159668,0.0,0.0,0.0,-160.29602,73.08655,135.401
1768030336918,-1.0371094,-0.12109375,-0.018066406,-14.038086,-4.333496,5.126953,0.0,0.0,0.0,-160.29602,73.08655,135.401
1768030336929,-1.0371094,-0.12109375,-0.018066406,-14.038086,-4.333496,5.126953,0.0,0.0,0.0,-161.72424,72.99866,133.96179
1768030337017,-0.88427734,-0.10986328,-0.18798828,7.8125,2.9907227,0.30517578,0.0,0.0,0.0,-161.72424,72.99866,133.96179
1768030337029,-0.88427734,-0.10986328,-0.18798828,7.8125,2.9907227,0.30517578,0.0,0.0,0.0,-162.87231,72.75696,133.75854
1768030337117,-0.95947266,-0.11376953,-0.24609375,8.300781,3.8452148,-5.7373047,0.0,0.0,0.0,-162.87231,72.75696,133.75854
1768030337129,-0.95947266,-0.11376953,-0.24609375,8.300781,3.8452148,-5.7373047,0.0,0.0,0.0,-161.54297,72.927246,135.38452
1768030337217,-0.9350586,-0.09326172,-0.27685547,13.000488,5.493164,1.5869141,0.0,0.0,0.0,-161.54297,72.927246,135.38452
1768030337228,-0.9350586,-0.09326172,-0.27685547,13.000488,5.493164,1.5869141,0.0,0.0,0.0,-159.80713,72.559204,136.17554
1768030337317,-0.9057617,-0.12207031,-0.3149414,15.74707,6.713867,5.6152344,0.0,0.0,0.0,-159.80713,72.559204,136.17554
1768030337328,-0.9057617,-0.12207031,-0.3149414,15.74707,6.713867,5.6152344,0.0,0.0,0.0,-160.09827,72.229614,134.44519
1768030337416,-0.9423828,-0.11767578,-0.35498047,16.296387,6.286621,11.352539,0.0,0.0,0.0,-160.09827,72.229614,134.44519
1768030337428,-0.9423828,-0.11767578,-0.35498047,16.296387,6.286621,11.352539,0.0,0.0,0.0,-161.15845,71.922,131.27563
1768030337516,-0.96728516,-0.140625,-0.38427734,14.221191,15.380859,9.277344,0.0,0.0,0.0,-161.15845,71.922,131.27563
1768030337528,-0.96728516,-0.140625,-0.38427734,14.221191,15.380859,9.277344,0.0,0.0,0.0,-163.54248,70.88379,127.10083
1768030337616,-0.97753906,-0.05859375,-0.21728516,7.385254,5.6762695,9.643555,0.0,0.0,0.0,-163.54248,70.88379,127.10083
1768030337627,-0.97753906,-0.05859375,-0.21728516,7.385254,5.6762695,9.643555,0.0,0.0,0.0,-164.95422,69.48303,124.17847
1768030337715,-0.92285156,-0.103027344,-0.33496094,-21.78955,-8.483887,6.5307617,0.0,0.0,0.0,-164.95422,69.48303,124.17847
1768030337727,-0.92285156,-0.103027344,-0.33496094,-21.78955,-8.483887,6.5307617,0.0,0.0,0.0,-168.13477,70.48828,121.94275
1768030337815,-0.9321289,-0.05126953,-0.26367188,-21.057129,-10.131836,-5.493164,0.0,0.0,0.0,-168.13477,70.48828,121.94275
1768030337827,-0.9321289,-0.05126953,-0.26367188,-21.057129,-10.131836,-5.493164,0.0,0.0,0.0,-169.4751,71.69678,122.4646
1768030337915,-1.0102539,-0.049804688,-0.30517578,-31.982422,-20.263672,-8.361816,0.0,0.0,0.0,-169.4751,71.69678,122.4646
1768030337926,-1.0102539,-0.049804688,-0.30517578,-31.982422,-20.263672,-8.361816,0.0,0.0,0.0,-168.37646,73.39966,126.06262
1768030338015,-0.9760742,-0.03955078,-0.28027344,-14.465332,-7.5683594,-2.9907227,0.0,0.0,0.0,-168.37646,73.39966,126.06262
1768030338026,-0.9760742,-0.03955078,-0.28027344,-14.465332,-7.5683594,-2.9907227,0.0,0.0,0.0,-167.50305,74.503784,129.12231
1768030338114,-0.96191406,0.0234375,-0.2319336,6.0424805,1.2817383,0.0,0.0,0.0,0.0,-167.50305,74.503784,129.12231
1768030338126,-0.96191406,0.0234375,-0.2319336,6.0424805,1.2817383,0.0,0.0,0.0,0.0,-167.20093,74.55322,129.97375
1768030338214,-0.97021484,0.017089844,-0.18847656,12.512207,-0.6713867,7.385254,0.0,0.0,0.0,-167.20093,74.55322,129.97375
1768030338226,-0.97021484,0.017089844,-0.18847656,12.512207,-0.6713867,7.385254,0.0,0.0,0.0,-168.23914,74.729004,127.803955
1768030338314,-0.9375,-0.040527344,-0.23632812,6.958008,1.8310547,-0.36621094,0.0,0.0,0.0,-168.23914,74.729004,127.803955
1768030338325,-0.9375,-0.040527344,-0.23632812,6.958008,1.8310547,-0.36621094,0.0,0.0,0.0,-168.25562,74.608154,126.66138
1768030338414,-0.9555664,0.0053710938,-0.31689453,9.94873,9.643555,-1.2817383,0.0,0.0,0.0,-168.25562,74.608154,126.66138
1768030338425,-0.9555664,0.0053710938,-0.31689453,9.94873,9.643555,-1.2817383,0.0,0.0,0.0,-167.92603,74.11926,126.13953
1768030338513,-0.94677734,-0.049804688,-0.3330078,1.159668,0.24414062,1.8310547,0.0,0.0,0.0,-167.92603,74.11926,126.13953
1768030338525,-0.94677734,-0.049804688,-0.3330078,1.159668,0.24414062,1.8310547,0.0,0.0,0.0,-168.43689,73.76221,124.96399
1768030338613,-0.9326172,-0.06591797,-0.30273438,-2.0751953,-0.8544922,-0.18310547,0.0,0.0,0.0,-168.43689,73.76221,124.96399
1768030338625,-0.9326172,-0.06591797,-0.30273438,-2.0751953,-0.8544922,-0.18310547,0.0,0.0,0.0,-168.89282,73.49304,124.41467
1768030338713,-0.9458008,-0.041503906,-0.38964844,-12.451172,4.8828125,-7.446289,0.0,0.0,0.0,-168.89282,73.49304,124.41467
1768030338724,-0.9458008,-0.041503906,-0.38964844,-12.451172,4.8828125,-7.446289,0.0,0.0,0.0,-168.44238,73.17993,125.79346
1768030338812,-0.93896484,-0.015136719,-0.39013672,-4.272461,-2.746582,-2.1972656,0.0,0.0,0.0,-168.44238,73.17993,125.79346
1768030338824,-0.93896484,-0.015136719,-0.39013672,-4.272461,-2.746582,-2.1972656,0.0,0.0,0.0,-168.29956,72.85034,126.815186
1768030338912,-0.93066406,-0.044921875,-0.44433594,-4.699707,-0.30517578,-4.9438477,0.0,0.0,0.0,-168.29956,72.85034,126.815186
1768030338924,-0.93066406,-0.044921875,-0.44433594,-4.699707,-0.30517578,-4.9438477,0.0,0.0,0.0,-167.98645,72.559204,127.57324
1768030339012,-1.1308594,-0.10449219,-0.21582031,4.760742,11.474609,-7.5683594,0.0,0.0,0.0,-167.98645,72.559204,127.57324
1768030339024,-1.1308594,-0.10449219,-0.21582031,4.760742,11.474609,-7.5683594,0.0,0.0,0.0,-167.57446,71.33423,128.29834
1768030339112,-0.921875,-0.009277344,-0.44873047,7.019043,11.230469,-8.483887,0.0,0.0,0.0,-167.57446,71.33423,128.29834
1768030339123,-0.921875,-0.009277344,-0.44873047,7.019043,11.230469,-8.483887,0.0,0.0,0.0,-165.72327,70.83984,130.20996
1768030339211,-0.99316406,-0.16552734,0.0234375,-17.51709,-10.681152,7.2631836,0.0,0.0,0.0,-165.72327,70.83984,130.20996
1768030339223,-0.99316406,-0.16552734,0.0234375,-17.51709,-10.681152,7.2631836,0.0,0.0,0.0,-164.95422,70.64758,130.0177
1768030339311,-0.9741211,-0.021484375,-0.26464844,4.3945312,0.4272461,-2.8076172,0.0,0.0,0.0,-164.95422,70.64758,130.0177
1768030339323,-0.9741211,-0.021484375,-0.26464844,4.3945312,0.4272461,-2.8076172,0.0,0.0,0.0,-164.95422,71.17493,131.11633
1768030339411,-0.9267578,-0.11376953,-0.23730469,3.3569336,-2.1362305,0.36621094,0.0,0.0,0.0,-164.95422,71.17493,131.11633
1768030339422,-0.9267578,-0.11376953,-0.23730469,3.3569336,-2.1362305,0.36621094,0.0,0.0,0.0,-164.55872,71.31775,130.86914
1768030339511,-0.93896484,-0.083496094,-0.28564453,13.73291,5.126953,5.493164,0.0,0.0,0.0,-164.55872,71.31775,130.86914
1768030339522,-0.93896484,-0.083496094,-0.28564453,13.73291,5.126953,5.493164,0.0,0.0,0.0,-164.55322,71.37268,129.83643
1768030339610,-0.9267578,-0.091796875,-0.29882812,8.422852,0.61035156,7.6904297,0.0,0.0,0.0,-164.55322,71.37268,129.83643
1768030339622,-0.9267578,-0.091796875,-0.29882812,8.422852,0.61035156,7.6904297,0.0,0.0,0.0,-165.2179,71.30676,127.595215
1768030339710,-0.91845703,-0.12597656,-0.29589844,10.620117,-1.0986328,5.554199,0.0,0.0,0.0,-165.2179,71.30676,127.595215
1768030339722,-0.91845703,-0.12597656,-0.29589844,10.620117,-1.0986328,5.554199,0.0,0.0,0.0,-165.75073,71.257324,125.650635
1768030339810,-0.9370117,-0.10595703,-0.3413086,5.92041,-1.8920898,4.9438477,0.0,0.0,0.0,-165.75073,71.257324,125.650635
1768030339821,-0.9370117,-0.10595703,-0.3413086,5.92041,-1.8920898,4.9438477,0.0,0.0,0.0,-166.13525,71.14197,124.53552
1768030339910,-1.0678711,-0.09423828,-0.42333984,8.483887,3.6010742,3.7841797,0.0,0.0,0.0,-166.13525,71.14197,124.53552
1768030339921,-1.0678711,-0.09423828,-0.42333984,8.483887,3.6010742,3.7841797,0.0,0.0,0.0,-166.55823,71.07056,123.32703
1768030340009,-0.8876953,-0.14697266,-0.2084961,-14.831543,-19.836426,7.751465,0.0,0.0,0.0,-166.55823,71.07056,123.32703
1768030340021,-0.8876953,-0.14697266,-0.2084961,-14.831543,-19.836426,7.751465,0.0,0.0,0.0,-167.00867,71.21887,121.99768
1768030340109,-0.93408203,-0.06738281,-0.21826172,-2.5634766,-12.145996,1.4038086,0.0,0.0,0.0,-167.00867,71.21887,121.99768
1768030340120,-0.93408203,-0.06738281,-0.21826172,-2.5634766,-12.145996,1.4038086,0.0,0.0,0.0,-167.65137,72.91626,122.22839
1768030340209,-1.0336914,-0.049804688,-0.21533203,-25.634766,-21.42334,-4.5166016,0.0,0.0,0.0,-167.65137,72.91626,122.22839
1768030340221,-1.0336914,-0.049804688,-0.21533203,-25.634766,-21.42334,-4.5166016,0.0,0.0,0.0,-166.94275,74.71802,124.7937
1768030340309,-0.9501953,-0.008300781,-0.2133789,-15.808105,-12.329102,-4.699707,0.0,0.0,0.0,-166.94275,74.71802,124.7937
1768030340320,-0.9501953,-0.008300781,-0.2133789,-15.808105,-12.329102,-4.699707,0.0,0.0,0.0,-164.84985,76.22864,128.83118
1768030340408,-1.0136719,-0.015136719,-0.16015625,-2.2583008,-7.6293945,-2.8076172,0.0,0.0,0.0,-164.84985,76.22864,128.83118
1768030340420,-1.0136719,-0.015136719,-0.16015625,-2.2583008,-7.6293945,-2.8076172,0.0,0.0,0.0,-163.5315,76.95923,131.1438
1768030340508,-0.9638672,-9.765625E-4,-0.17529297,6.958008,-3.8452148,0.24414062,0.0,0.0,0.0,-163.5315,76.95923,131.1438
1768030340519,-0.9638672,-9.765625E-4,-0.17529297,6.958008,-3.8452148,0.24414062,0.0,0.0,0.0,-162.76245,77.53052,132.07764
1768030340608,-1.0527344,-0.025878906,-0.28466797,13.85498,5.92041,6.713867,0.0,0.0,0.0,-162.76245,77.53052,132.07764
1768030340619,-1.0527344,-0.025878906,-0.28466797,13.85498,5.92041,6.713867,0.0,0.0,0.0,-165.48157,78.09631,128.77625
1768030340707,-0.9301758,-0.009277344,-0.2109375,4.3945312,-1.7700195,4.1503906,0.0,0.0,0.0,-165.48157,78.09631,128.77625
1768030340719,-0.9301758,-0.009277344,-0.2109375,4.3945312,-1.7700195,4.1503906,0.0,0.0,0.0,-167.04712,77.40967,125.6781
1768030340807,-0.9638672,-0.03564453,-0.24511719,10.803223,5.7373047,2.6855469,0.0,0.0,0.0,-167.04712,77.40967,125.6781
1768030340819,-0.9638672,-0.03564453,-0.24511719,10.803223,5.7373047,2.6855469,0.0,0.0,0.0,-168.54126,77.0636,123.27759
1768030340907,-0.9638672,-0.072753906,-0.28515625,-0.5493164,-1.5869141,-3.112793,0.0,0.0,0.0,-168.54126,77.0636,123.27759
1768030340918,-0.9638672,-0.072753906,-0.28515625,-0.5493164,-1.5869141,-3.112793,0.0,0.0,0.0,-168.23914,76.865845,123.063354
1768030341007,-0.9394531,-0.022460938,-0.2841797,-6.225586,-3.8452148,-2.2583008,0.0,0.0,0.0,-168.23914,76.865845,123.063354
1768030341018,-0.9394531,-0.022460938,-0.2841797,-6.225586,-3.8452148,-2.2583008,0.0,0.0,0.0,-167.04712,76.99219,124.541016
1768030341106,-1.0043945,-0.052734375,-0.3388672,-11.71875,1.3427734,-5.432129,0.0,0.0,0.0,-167.04712,76.99219,124.541016
1768030341118,-1.0043945,-0.052734375,-0.3388672,-11.71875,1.3427734,-5.432129,0.0,0.0,0.0,-166.69556,76.81091,125.92529
1768030341206,-0.9692383,-0.020507812,-0.4272461,-7.1411133,6.591797,-5.79834,0.0,0.0,0.0,-166.69556,76.81091,125.92529
1768030341218,-0.9692383,-0.020507812,-0.4272461,-7.1411133,6.591797,-5.79834,0.0,0.0,0.0,-165.82764,76.0199,127.75452
1768030341306,-1.2519531,-0.10839844,-0.3466797,-2.5634766,22.705078,-13.183594,0.0,0.0,0.0,-165.82764,76.0199,127.75452
1768030341317,-1.2519531,-0.10839844,-0.3466797,-2.5634766,22.705078,-13.183594,0.0,0.0,0.0,-165.18494,74.33899,128.84216
1768030341406,-0.86816406,-0.059570312,-0.25439453,-8.972168,-1.2207031,-2.4414062,0.0,0.0,0.0,-165.18494,74.33899,128.84216
1768030341417,-0.86816406,-0.059570312,-0.25439453,-8.972168,-1.2207031,-2.4414062,0.0,0.0,0.0,-163.70178,72.71301,130.08362
1768030341505,-1.0844727,-0.14794922,-0.087890625,-12.268066,4.9438477,-2.746582,0.0,0.0,0.0,-163.70178,72.71301,130.08362
1768030341518,-1.0844727,-0.14794922,-0.087890625,-12.268066,4.9438477,-2.746582,0.0,0.0,0.0,-163.86108,72.301025,130.44067
1768030341605,-0.92626953,-0.072265625,-0.25878906,-4.9438477,-1.7700195,-1.3427734,0.0,0.0,0.0,-163.86108,72.301025,130.44067
1768030341617,-0.92626953,-0.072265625,-0.25878906,-4.9438477,-1.7700195,-1.3427734,0.0,0.0,0.0,-163.33374,72.125244,131.64917
1768030341705,-0.9355469,-0.115722656,-0.23388672,9.643555,3.2348633,1.0375977,0.0,0.0,0.0,-163.33374,72.125244,131.64917
1768030341716,-0.9355469,-0.115722656,-0.23388672,9.643555,3.2348633,1.0375977,0.0,0.0,0.0,-163.00964,72.20215,131.74805
1768030341804,-0.9453125,-0.08496094,-0.29296875,14.709473,6.7749023,4.272461,0.0,0.0,0.0,-163.00964,72.20215,131.74805
1768030341816,-0.9453125,-0.08496094,-0.29296875,14.709473,6.7749023,4.272461,0.0,0.0,0.0,-162.61414,71.89453,131.02844
1768030341904,-0.90478516,-0.12695312,-0.29638672,12.329102,1.7089844,3.90625,0.0,0.0,0.0,-162.61414,71.89453,131.02844
1768030341916,-0.90478516,-0.12695312,-0.29638672,12.329102,1.7089844,3.90625,0.0,0.0,0.0,-162.70203,71.83411,129.38599
1768030342004,-0.91064453,-0.15136719,-0.3227539,10.925293,1.953125,1.2207031,0.0,0.0,0.0,-162.70203,71.83411,129.38599
1768030342015,-0.91064453,-0.15136719,-0.3227539,10.925293,1.953125,1.2207031,0.0,0.0,0.0,-162.26257,71.80115,128.55103
1768030342104,-0.9394531,-0.1381836,-0.38671875,1.5869141,4.5166016,0.12207031,0.0,0.0,0.0,-162.26257,71.80115,128.55103
1768030342115,-0.9394531,-0.1381836,-0.38671875,1.5869141,4.5166016,0.12207031,0.0,0.0,0.0,-161.69678,71.449585,128.58398
1768030342203,-0.94189453,-0.18359375,-0.37890625,4.699707,2.2583008,-1.2817383,0.0,0.0,0.0,-161.69678,71.449585,128.58398
1768030342215,-0.94189453,-0.18359375,-0.37890625,4.699707,2.2583008,-1.2817383,0.0,0.0,0.0,-161.24634,71.0376,128.52905
1768030342303,-1.0336914,-0.064941406,-0.26220703,17.333984,11.474609,-1.4038086,0.0,0.0,0.0,-161.24634,71.0376,128.52905
1768030342315,-1.0336914,-0.064941406,-0.26220703,17.333984,11.474609,-1.4038086,0.0,0.0,0.0,-160.24109,70.08179,128.86414
1768030342403,-0.85302734,-0.084472656,-0.44970703,-0.6713867,-3.479004,1.7089844,0.0,0.0,0.0,-160.24109,70.08179,128.86414
1768030342414,-0.85302734,-0.084472656,-0.44970703,-0.6713867,-3.479004,1.7089844,0.0,0.0,0.0,-161.29028,70.64758,128.52356
1768030342503,-0.9785156,-0.07714844,-0.13427734,-10.131836,3.7841797,-2.6855469,0.0,0.0,0.0,-161.29028,70.64758,128.52356
1768030342514,-0.9785156,-0.07714844,-0.13427734,-10.131836,3.7841797,-2.6855469,0.0,0.0,0.0,-161.45508,70.12024,128.34778
1768030342602,-1.0288086,-0.051757812,-0.27441406,-13.183594,-11.59668,-1.5258789,0.0,0.0,0.0,-161.45508,70.12024,128.34778
1768030342614,-1.0288086,-0.051757812,-0.27441406,-13.183594,-11.59668,-1.5258789,0.0,0.0,0.0,-161.07605,71.40564,129.9408
1768030342702,-0.9658203,0.01171875,-0.26708984,-9.765625,-8.300781,8.728027,0.0,0.0,0.0,-161.07605,71.40564,129.9408
1768030342714,-0.9658203,0.01171875,-0.26708984,-9.765625,-8.300781,8.728027,0.0,0.0,0.0,-161.82861,72.25708,129.52332
1768030342802,-0.95751953,-0.041992188,-0.22363281,6.225586,-0.9765625,2.8686523,0.0,0.0,0.0,-161.82861,72.25708,129.52332
1768030342813,-0.95751953,-0.041992188,-0.22363281,6.225586,-0.9765625,2.8686523,0.0,0.0,0.0,-163.125,72.47681,127.79297
1768030342902,-0.9316406,-0.057617188,-0.3017578,3.540039,1.0986328,-1.3427734,0.0,0.0,0.0,-163.125,72.47681,127.79297
1768030342913,-0.9316406,-0.057617188,-0.3017578,3.540039,1.0986328,-1.3427734,0.0,0.0,0.0,-163.14697,72.70203,127.562256
1768030343001,-0.93603516,-0.095214844,-0.34033203,-7.2631836,-3.112793,-2.9907227,0.0,0.0,0.0,-163.14697,72.70203,127.562256
1768030343013,-0.93603516,-0.095214844,-0.34033203,-7.2631836,-3.112793,-2.9907227,0.0,0.0,0.0,-163.0426,72.93274,127.996216
1768030343101,-0.94433594,-0.10986328,-0.375,-10.375977,-9.94873,-6.225586,0.0,0.0,0.0,-163.0426,72.93274,127.996216
1768030343112,-0.94433594,-0.10986328,-0.375,-10.375977,-9.94873,-6.225586,0.0,0.0,0.0,-161.25183,73.2074,130.57251
1768030343201,-0.92871094,-0.07763672,-0.3178711,3.4179688,-2.0751953,-7.6293945,0.0,0.0,0.0,-161.25183,73.2074,130.57251
1768030343212,-0.92871094,-0.07763672,-0.3178711,3.4179688,-2.0751953,-7.6293945,0.0,0.0,0.0,-158.9502,72.65808,133.16528
1768030343300,-1.0117188,-0.051757812,-0.44140625,-7.5683594,-5.3100586,-1.0986328,0.0,0.0,0.0,-158.9502,72.65808,133.16528
1768030343312,-1.0117188,-0.051757812,-0.44140625,-7.5683594,-5.3100586,-1.0986328,0.0,0.0,0.0,-158.0658,73.168945,134.70886
1768030343400,-1.0751953,-0.13330078,-0.4189453,-7.3242188,0.5493164,-2.746582,0.0,0.0,0.0,-158.0658,73.168945,134.70886
1768030343412,-1.0751953,-0.13330078,-0.4189453,-7.3242188,0.5493164,-2.746582,0.0,0.0,0.0,-159.24683,72.85034,134.15955
1768030343500,-0.89160156,-0.14160156,-0.20605469,13.977051,-11.230469,2.6245117,0.0,0.0,0.0,-159.24683,72.85034,134.15955
1768030343511,-0.89160156,-0.14160156,-0.20605469,13.977051,-11.230469,2.6245117,0.0,0.0,0.0,-158.37341,72.59766,133.88489
1768030343600,-0.8173828,-0.023925781,-0.0048828125,0.18310547,-16.845703,3.479004,0.0,0.0,0.0,-158.37341,72.59766,133.88489
1768030343611,-0.8173828,-0.023925781,-0.0048828125,0.18310547,-16.845703,3.479004,0.0,0.0,0.0,-155.91248,73.99841,136.2085
1768030343699,-1.0771484,-0.18945312,-0.21191406,10.009766,6.164551,-1.5869141,0.0,0.0,0.0,-155.91248,73.99841,136.2085
1768030343711,-1.0771484,-0.18945312,-0.21191406,10.009766,6.164551,-1.5869141,0.0,0.0,0.0,-156.56067,75.15747,136.6095
1768030343799,-0.9604492,-0.072753906,-0.2788086,-7.080078,-5.3100586,9.338379,0.0,0.0,0.0,-156.56067,75.15747,136.6095
1768030343811,-0.9604492,-0.072753906,-0.2788086,-7.080078,-5.3100586,9.338379,0.0,0.0,0.0,-157.47803,76.069336,136.2085
1768030343899,-0.94677734,-0.12646484,-0.24414062,8.605957,8.544922,1.5258789,0.0,0.0,0.0,-157.47803,76.069336,136.2085
1768030343910,-0.94677734,-0.12646484,-0.24414062,8.605957,8.544922,1.5258789,0.0,0.0,0.0,-158.84033,75.459595,134.01123
1768030343999,-0.9370117,-0.15917969,-0.25634766,7.3242188,5.9814453,0.7324219,0.0,0.0,0.0,-158.84033,75.459595,134.01123
1768030344011,-0.9370117,-0.15917969,-0.25634766,7.3242188,5.9814453,0.7324219,0.0,0.0,0.0,-158.88977,74.800415,132.57751
1768030344098,-0.93408203,-0.18066406,-0.23046875,7.080078,3.90625,3.4179688,0.0,0.0,0.0,-158.88977,74.800415,132.57751
1768030344110,-0.93408203,-0.18066406,-0.23046875,7.080078,3.90625,3.4179688,0.0,0.0,0.0,-159.16992,74.11926,131.29211
1768030344198,-1.0566406,-0.18261719,-0.36523438,13.916016,14.709473,-5.7373047,0.0,0.0,0.0,-159.16992,74.11926,131.29211
1768030344210,-1.0566406,-0.18261719,-0.36523438,13.916016,14.709473,-5.7373047,0.0,0.0,0.0,-157.9779,73.14697,131.52283
1768030344298,-0.88134766,-0.111816406,-0.028808594,-19.836426,-16.723633,11.352539,0.0,0.0,0.0,-157.9779,73.14697,131.52283
1768030344309,-0.88134766,-0.111816406,-0.028808594,-19.836426,-16.723633,11.352539,0.0,0.0,0.0,-155.91797,72.29004,132.4237
1768030344397,-0.86376953,-0.03466797,-0.18017578,43.70117,5.9814453,-7.6293945,0.0,0.0,0.0,-155.91797,72.29004,132.4237
1768030344409,-0.86376953,-0.03466797,-0.18017578,43.70117,5.9814453,-7.6293945,0.0,0.0,0.0,-156.90674,72.57568,131.83044
1768030344497,-1.0195312,0.026855469,-0.28515625,-24.047852,-3.112793,7.2021484,0.0,0.0,0.0,-156.90674,72.57568,131.83044
1768030344509,-1.0195312,0.026855469,-0.28515625,-24.047852,-3.112793,7.2021484,0.0,0.0,0.0,-157.27478,73.6853,132.07764
1768030344597,-0.8828125,-0.072265625,-0.17871094,-12.390137,-12.268066,4.211426,0.0,0.0,0.0,-157.27478,73.6853,132.07764
1768030344608,-0.8828125,-0.072265625,-0.17871094,-12.390137,-12.268066,4.211426,0.0,0.0,0.0,-159.94995,74.07532,130.11658
1768030344697,-0.9658203,-0.036132812,-0.32666016,-4.638672,3.540039,-2.9296875,0.0,0.0,0.0,-159.94995,74.07532,130.11658
1768030344708,-0.9658203,-0.036132812,-0.32666016,-4.638672,3.540039,-2.9296875,0.0,0.0,0.0,-161.32324,74.47632,130.12207
1768030344796,-0.96484375,-0.068359375,-0.28076172,-21.606445,-3.6010742,-5.92041,0.0,0.0,0.0,-161.32324,74.47632,130.12207
1768030344808,-0.96484375,-0.068359375,-0.28076172,-21.606445,-3.6010742,-5.92041,0.0,0.0,0.0,-161.31775,74.37195,131.24817
1768030344896,-0.93115234,-0.07861328,-0.30566406,-20.324707,4.760742,-11.413574,0.0,0.0,0.0,-161.31775,74.37195,131.24817
1768030344908,-0.93115234,-0.07861328,-0.30566406,-20.324707,4.760742,-11.413574,0.0,0.0,0.0,-160.64209,74.24011,133.86841
1768030344996,-0.92822266,-0.049804688,-0.36914062,-22.094727,12.939453,-10.7421875,0.0,0.0,0.0,-160.64209,74.24011,133.86841
1768030345007,-0.92822266,-0.049804688,-0.36914062,-22.094727,12.939453,-10.7421875,0.0,0.0,0.0,-160.57617,72.976685,136.25244
1768030345096,-0.9951172,0.022949219,-0.16992188,7.5683594,0.061035156,2.1972656,0.0,0.0,0.0,-160.57617,72.976685,136.25244
1768030345107,-0.9951172,0.022949219,-0.16992188,7.5683594,0.061035156,2.1972656,0.0,0.0,0.0,-161.6748,71.345215,136.40625
1768030345195,-0.8852539,-0.16601562,-0.42041016,3.90625,-4.8217773,5.1879883,0.0,0.0,0.0,-161.6748,71.345215,136.40625
1768030345207,-0.8852539,-0.16601562,-0.42041016,3.90625,-4.8217773,5.1879883,0.0,0.0,0.0,-164.7345,72.81738,133.5498
1768030345295,-0.9746094,0.0063476562,-0.3125,12.145996,9.765625,5.065918,0.0,0.0,0.0,-164.7345,72.81738,133.5498
1768030345307,-0.9746094,0.0063476562,-0.3125,12.145996,9.765625,5.065918,0.0,0.0,0.0,-165.13,72.21863,132.182
1768030345395,-0.9980469,-0.083984375,-0.31933594,0.30517578,2.746582,1.953125,0.0,0.0,0.0,-165.13,72.21863,132.182
1768030345406,-0.9980469,-0.083984375,-0.31933594,0.30517578,2.746582,1.953125,0.0,0.0,0.0,-166.39893,71.65283,129.6936
1768030345494,-0.8383789,-0.07519531,-0.10546875,-0.79345703,-7.446289,0.12207031,0.0,0.0,0.0,-166.39893,71.65283,129.6936
1768030345506,-0.8383789,-0.07519531,-0.10546875,-0.79345703,-7.446289,0.12207031,0.0,0.0,0.0,-165.46509,71.416626,130.10559
1768030345595,-1.0869141,-0.03173828,-0.42529297,-13.73291,4.8217773,-4.333496,0.0,0.0,0.0,-165.46509,71.416626,130.10559
1768030345606,-1.0869141,-0.03173828,-0.42529297,-13.73291,4.8217773,-4.333496,0.0,0.0,0.0,-165.76721,72.32849,131.5503
1768030345694,-0.8964844,-0.21582031,-0.2578125,-9.033203,-16.479492,-0.8544922,0.0,0.0,0.0,-165.76721,72.32849,131.5503
1768030345705,-0.8964844,-0.21582031,-0.2578125,-9.033203,-16.479492,-0.8544922,0.0,0.0,0.0,-164.59717,72.993164,132.13257
1768030345794,-0.9580078,-0.10253906,-0.24414062,15.74707,-4.760742,-2.380371,0.0,0.0,0.0,-164.59717,72.993164,132.13257
1768030345806,-0.9580078,-0.10253906,-0.24414062,15.74707,-4.760742,-2.380371,0.0,0.0,0.0,-161.2024,73.63037,134.9176
1768030345893,-0.93896484,-0.114746094,-0.3203125,9.887695,-1.8310547,1.4648438,0.0,0.0,0.0,-161.2024,73.63037,134.9176
1768030345905,-0.93896484,-0.114746094,-0.3203125,9.887695,-1.8310547,1.4648438,0.0,0.0,0.0,-159.09302,74.19617,135.8844
1768030345993,-0.95751953,-0.15234375,-0.3046875,11.108398,-3.6010742,4.3945312,0.0,0.0,0.0,-159.09302,74.19617,135.8844
1768030346005,-0.95751953,-0.15234375,-0.3046875,11.108398,-3.6010742,4.3945312,0.0,0.0,0.0,-158.56018,74.38843,135.01648
1768030346093,-0.9453125,-0.17480469,-0.31835938,13.85498,3.4179688,1.8310547,0.0,0.0,0.0,-158.56018,74.38843,135.01648
1768030346104,-0.9453125,-0.17480469,-0.31835938,13.85498,3.4179688,1.8310547,0.0,0.0,0.0,-158.28003,74.00391,133.82996
1768030346193,-1.1728516,-0.17138672,-0.37109375,9.094238,17.27295,-11.169434,0.0,0.0,0.0,-158.28003,74.00391,133.82996
1768030346205,-1.1728516,-0.17138672,-0.37109375,9.094238,17.27295,-11.169434,0.0,0.0,0.0,-156.84082,72.74597,133.89038
1768030346292,-0.85791016,-0.18701172,-0.23242188,-17.39502,-3.6010742,-6.164551,0.0,0.0,0.0,-156.84082,72.74597,133.89038
1768030346305,-0.85791016,-0.18701172,-0.23242188,-17.39502,-3.6010742,-6.164551,0.0,0.0,0.0,-155.00061,70.911255,135.30212
1768030346392,-0.96972656,0.01953125,-0.09765625,0.48828125,-5.1879883,0.061035156,0.0,0.0,0.0,-155.00061,70.911255,135.30212
1768030346404,-0.96972656,0.01953125,-0.09765625,0.48828125,-5.1879883,0.061035156,0.0,0.0,0.0,-153.35266,70.76294,137.37305
1768030346492,-0.9692383,-0.06347656,-0.23388672,4.0893555,-6.225586,11.291504,0.0,0.0,0.0,-153.35266,70.76294,137.37305
1768030346503,-0.9692383,-0.06347656,-0.23388672,4.0893555,-6.225586,11.291504,0.0,0.0,0.0,-154.51172,71.971436,136.43372
1768030346591,-0.9350586,-0.044921875,-0.2109375,9.277344,5.554199,4.5776367,0.0,0.0,0.0,-154.51172,71.971436,136.43372
1768030346603,-0.9350586,-0.044921875,-0.2109375,9.277344,5.554199,4.5776367,0.0,0.0,0.0,-156.76392,72.42737,134.1211
1768030346691,-0.9477539,-0.032226562,-0.27148438,2.0141602,-1.5869141,8.178711,0.0,0.0,0.0,-156.76392,72.42737,134.1211
1768030346703,-0.9477539,-0.032226562,-0.27148438,2.0141602,-1.5869141,8.178711,0.0,0.0,0.0,-158.89526,72.84485,131.88538
1768030346791,-0.96533203,-0.103027344,-0.265625,-3.1738281,-1.0986328,3.1738281,0.0,0.0,0.0,-158.89526,72.84485,131.88538
1768030346802,-0.96533203,-0.103027344,-0.265625,-3.1738281,-1.0986328,3.1738281,0.0,0.0,0.0,-161.48254,72.98767,129.44092
1768030346891,-0.94189453,-0.09716797,-0.328125,-7.6904297,-4.699707,-3.6010742,0.0,0.0,0.0,-161.48254,72.98767,129.44092
1768030346902,-0.94189453,-0.09716797,-0.328125,-7.6904297,-4.699707,-3.6010742,0.0,0.0,0.0,-161.41663,73.482056,130.0946
1768030346990,-0.92529297,-0.08496094,-0.3413086,-6.286621,1.2207031,-3.4179688,0.0,0.0,0.0,-161.41663,73.482056,130.0946
1768030347002,-0.92529297,-0.08496094,-0.3413086,-6.286621,1.2207031,-3.4179688,0.0,0.0,0.0,-161.16394,73.427124,131.12732
1768030347090,-0.94677734,-0.044921875,-0.3383789,-4.272461,-2.2583008,0.30517578,0.0,0.0,0.0,-161.16394,73.427124,131.12732
1768030347101,-0.94677734,-0.044921875,-0.3383789,-4.272461,-2.2583008,0.30517578,0.0,0.0,0.0,-161.53748,73.21289,131.33606
1768030347190,-0.9916992,-0.08935547,-0.38476562,-2.746582,-1.2207031,-2.8076172,0.0,0.0,0.0,-161.53748,73.21289,131.33606
1768030347202,-0.9916992,-0.08935547,-0.38476562,-2.746582,-1.2207031,-2.8076172,0.0,0.0,0.0,-161.94946,73.17444,131.38
1768030347289,-1.0576172,-0.07470703,-0.37890625,-5.6762695,4.699707,-6.652832,0.0,0.0,0.0,-161.94946,73.17444,131.38
1768030347302,-1.0576172,-0.07470703,-0.37890625,-5.6762695,4.699707,-6.652832,0.0,0.0,0.0,-161.18591,72.630615,132.51709
1768030347389,-0.9741211,-0.08154297,-0.34033203,11.230469,5.493164,3.4179688,0.0,0.0,0.0,-161.18591,72.630615,132.51709
1768030347401,-0.9741211,-0.08154297,-0.34033203,11.230469,5.493164,3.4179688,0.0,0.0,0.0,-161.8396,71.746216,131.20972
1768030347489,-0.8618164,-0.040039062,-0.11767578,5.79834,0.79345703,2.8686523,0.0,0.0,0.0,-161.8396,71.746216,131.20972
1768030347500,-0.8618164,-0.040039062,-0.11767578,5.79834,0.79345703,2.8686523,0.0,0.0,0.0,-161.8451,71.1969,129.95728
1768030347589,-1.0307617,-0.08105469,-0.25878906,-16.357422,0.24414062,7.6293945,0.0,0.0,0.0,-161.8451,71.1969,129.95728
1768030347600,-1.0307617,-0.08105469,-0.25878906,-16.357422,0.24414062,7.6293945,0.0,0.0,0.0,-164.82239,72.438354,128.0127
1768030347688,-0.9277344,-0.15527344,-0.24951172,5.7373047,4.8217773,-2.1972656,0.0,0.0,0.0,-164.82239,72.438354,128.0127
1768030347700,-0.9277344,-0.15527344,-0.24951172,5.7373047,4.8217773,-2.1972656,0.0,0.0,0.0,-165.4541,72.29553,126.97449
1768030347788,-0.94091797,-0.07861328,-0.26904297,11.59668,-2.9907227,0.6713867,0.0,0.0,0.0,-165.4541,72.29553,126.97449
1768030347799,-0.94091797,-0.07861328,-0.26904297,11.59668,-2.9907227,0.6713867,0.0,0.0,0.0,-163.6029,72.41089,127.88635
1768030347888,-0.90771484,-0.11328125,-0.2890625,14.282227,0.61035156,4.760742,0.0,0.0,0.0,-163.6029,72.41089,127.88635
1768030347899,-0.90771484,-0.11328125,-0.2890625,14.282227,0.61035156,4.760742,0.0,0.0,0.0,-163.01514,72.4823,127.073364
1768030347987,-0.91015625,-0.14404297,-0.35009766,11.169434,2.1362305,4.760742,0.0,0.0,0.0,-163.01514,72.4823,127.073364
1768030347999,-0.91015625,-0.14404297,-0.35009766,11.169434,2.1362305,4.760742,0.0,0.0,0.0,-163.39417,72.559204,125.50781
1768030348087,-0.91845703,-0.122558594,-0.32910156,9.460449,5.859375,5.2490234,0.0,0.0,0.0,-163.39417,72.559204,125.50781
1768030348099,-0.91845703,-0.122558594,-0.32910156,9.460449,5.859375,5.2490234,0.0,0.0,0.0,-163.58643,72.03186,124.11804
1768030348187,-1.0322266,-0.15332031,-0.4091797,11.413574,8.972168,7.6904297,0.0,0.0,0.0,-163.58643,72.03186,124.11804
1768030348199,-1.0322266,-0.15332031,-0.4091797,11.413574,8.972168,7.6904297,0.0,0.0,0.0,-164.76746,71.63086,121.640625
1768030348287,-0.90771484,-0.114746094,-0.08691406,-12.756348,-1.7089844,11.474609,0.0,0.0,0.0,-164.76746,71.63086,121.640625
1768030348298,-0.90771484,-0.114746094,-0.08691406,-12.756348,-1.7089844,11.474609,0.0,0.0,0.0,-165.6134,70.29602,119.4928
1768030348386,-0.8613281,-0.01171875,-0.34375,13.305664,15.808105,-2.6245117,0.0,0.0,0.0,-165.6134,70.29602,119.4928
1768030348399,-0.8613281,-0.01171875,-0.34375,13.305664,15.808105,-2.6245117,0.0,0.0,0.0,-167.11304,70.389404,118.53699
1768030348486,-0.9970703,-0.038085938,-0.22070312,-24.475098,1.0986328,-6.164551,0.0,0.0,0.0,-167.11304,70.389404,118.53699
1768030348498,-0.9970703,-0.038085938,-0.22070312,-24.475098,1.0986328,-6.164551,0.0,0.0,0.0,-166.47034,69.45557,119.4928
1768030348586,-0.97216797,0.016601562,-0.31054688,-10.7421875,-7.1411133,-3.2348633,0.0,0.0,0.0,-166.47034,69.45557,119.4928
1768030348598,-0.97216797,0.016601562,-0.31054688,-10.7421875,-7.1411133,-3.2348633,0.0,0.0,0.0,-167.09656,70.114746,121.0968
1768030348686,-0.9243164,0.020507812,-0.34570312,-12.6953125,-7.2021484,0.24414062,0.0,0.0,0.0,-167.09656,70.114746,121.0968
1768030348697,-0.9243164,0.020507812,-0.34570312,-12.6953125,-7.2021484,0.24414062,0.0,0.0,0.0,-168.35449,70.686035,121.70654
1768030348785,-0.94970703,-0.009765625,-0.2915039,-10.131836,-5.7373047,3.8452148,0.0,0.0,0.0,-168.35449,70.686035,121.70654
1768030348797,-0.94970703,-0.009765625,-0.2915039,-10.131836,-5.7373047,3.8452148,0.0,0.0,0.0,-170.34302,71.1969,120.71228
1768030348885,-0.9501953,-0.024414062,-0.33740234,-3.9672852,-5.859375,0.36621094,0.0,0.0,0.0,-170.34302,71.1969,120.71228
1768030348896,-0.9501953,-0.024414062,-0.33740234,-3.9672852,-5.859375,0.36621094,0.0,0.0,0.0,-171.93054,71.82312,119.9707
1768030348985,-0.91503906,-4.8828125E-4,-0.28320312,-13.916016,-8.7890625,-5.79834,0.0,0.0,0.0,-171.93054,71.82312,119.9707
1768030348996,-0.91503906,-4.8828125E-4,-0.28320312,-13.916016,-8.7890625,-5.79834,0.0,0.0,0.0,-171.61194,72.284546,121.327515
1768030349084,-0.9375,-0.022949219,-0.4296875,-7.6904297,3.479004,-7.2021484,0.0,0.0,0.0,-171.61194,72.284546,121.327515
1768030349096,-0.9375,-0.022949219,-0.4296875,-7.6904297,3.479004,-7.2021484,0.0,0.0,0.0,-171.68884,72.92175,122.958984
1768030349184,-0.9711914,-0.041503906,-0.4091797,-13.48877,-3.2348633,-7.507324,0.0,0.0,0.0,-171.68884,72.92175,122.958984
1768030349196,-0.9711914,-0.041503906,-0.4091797,-13.48877,-3.2348633,-7.507324,0.0,0.0,0.0,-170.98022,72.54822,124.77722
1768030349284,-0.96533203,-0.017578125,-0.4326172,-7.9956055,3.2958984,-7.019043,0.0,0.0,0.0,-170.98022,72.54822,124.77722
1768030349295,-0.96533203,-0.017578125,-0.4326172,-7.9956055,3.2958984,-7.019043,0.0,0.0,0.0,-169.90906,72.092285,126.903076
1768030349384,-1.0126953,-0.013183594,-0.37548828,1.6479492,10.559082,3.112793,0.0,0.0,0.0,-169.90906,72.092285,126.903076
1768030349395,-1.0126953,-0.013183594,-0.37548828,1.6479492,10.559082,3.112793,0.0,0.0,0.0,-170.45837,71.032104,126.85913
1768030349483,-0.8754883,-0.040527344,-0.2939453,-8.239746,1.5258789,11.59668,0.0,0.0,0.0,-170.45837,71.032104,126.85913
1768030349495,-0.8754883,-0.040527344,-0.2939453,-8.239746,1.5258789,11.59668,0.0,0.0,0.0,-173.24341,70.389404,123.83789
1768030349583,-0.9614258,-0.048828125,-0.068847656,-6.7749023,-7.5683594,13.671875,0.0,0.0,0.0,-173.24341,70.389404,123.83789
1768030349595,-0.9614258,-0.048828125,-0.068847656,-6.7749023,-7.5683594,13.671875,0.0,0.0,0.0,-176.68213,70.3125,120.46509
1768030349683,-0.98876953,-0.008300781,-0.25683594,1.5869141,-11.779785,2.5024414,0.0,0.0,0.0,-176.68213,70.3125,120.46509
1768030349694,-0.98876953,-0.008300781,-0.25683594,1.5869141,-11.779785,2.5024414,0.0,0.0,0.0,-179.07715,71.63086,118.66882
1768030349782,-0.93896484,-0.021484375,-0.2758789,23.31543,-0.24414062,-5.92041,0.0,0.0,0.0,-179.07715,71.63086,118.66882
1768030349794,-0.93896484,-0.021484375,-0.2758789,23.31543,-0.24414062,-5.92041,0.0,0.0,0.0,-176.57227,72.23511,119.96521
1768030349882,-0.9345703,-0.07373047,-0.31347656,23.620605,0.0,-5.7373047,0.0,0.0,0.0,-176.57227,72.23511,119.96521
1768030349894,-0.9345703,-0.07373047,-0.31347656,23.620605,0.0,-5.7373047,0.0,0.0,0.0,-172.54578,72.53174,121.87134
1768030349982,-0.9350586,-0.08300781,-0.2993164,14.099121,-2.319336,-1.6479492,0.0,0.0,0.0,-172.54578,72.53174,121.87134
1768030349993,-0.9350586,-0.08300781,-0.2993164,14.099121,-2.319336,-1.6479492,0.0,0.0,0.0,-168.98071,72.454834,123.5083
1768030350082,-0.91503906,-0.111328125,-0.3330078,10.864258,1.8310547,1.2207031,0.0,0.0,0.0,-168.98071,72.454834,123.5083
1768030350093,-0.91503906,-0.111328125,-0.3330078,10.864258,1.8310547,1.2207031,0.0,0.0,0.0,-167.51404,72.42737,123.70056
1768030350182,-0.93115234,-0.12939453,-0.3466797,9.643555,6.3476562,0.79345703,0.0,0.0,0.0,-167.51404,72.42737,123.70056
1768030350193,-0.93115234,-0.12939453,-0.3466797,9.643555,6.3476562,0.79345703,0.0,0.0,0.0,-166.70105,71.93848,123.409424
1768030350281,-0.95458984,-0.13427734,-0.3515625,12.268066,2.9907227,5.3710938,0.0,0.0,0.0,-166.70105,71.93848,123.409424
1768030350293,-0.95458984,-0.13427734,-0.3515625,12.268066,2.9907227,5.3710938,0.0,0.0,0.0,-166.2561,71.46057,122.60193
1768030350381,-0.97509766,-0.048828125,-0.18017578,34.79004,11.59668,-5.859375,0.0,0.0,0.0,-166.2561,71.46057,122.60193
1768030350392,-0.97509766,-0.048828125,-0.18017578,34.79004,11.59668,-5.859375,0.0,0.0,0.0,-165.932,70.12573,121.761475
1768030350481,-0.94433594,-0.063964844,-0.5185547,-2.380371,3.90625,-2.6245117,0.0,0.0,0.0,-165.932,70.12573,121.761475
1768030350492,-0.94433594,-0.063964844,-0.5185547,-2.380371,3.90625,-2.6245117,0.0,0.0,0.0,-166.05835,70.86182,122.06909
1768030350580,-0.93310547,0.018554688,-0.11230469,-18.066406,-9.765625,2.0751953,0.0,0.0,0.0,-166.05835,70.86182,122.06909
1768030350592,-0.93310547,0.018554688,-0.11230469,-18.066406,-9.765625,2.0751953,0.0,0.0,0.0,-164.22363,69.88953,122.90405
1768030350680,-1.0644531,0.028320312,-0.29882812,1.953125,-4.8217773,6.225586,0.0,0.0,0.0,-164.22363,69.88953,122.90405
1768030350692,-1.0644531,0.028320312,-0.29882812,1.953125,-4.8217773,6.225586,0.0,0.0,0.0,-166.45935,71.433105,121.865845
1768030350780,-0.9091797,0.033691406,-0.26953125,-14.099121,-10.314941,3.4179688,0.0,0.0,0.0,-166.45935,71.433105,121.865845
1768030350791,-0.9091797,0.033691406,-0.26953125,-14.099121,-10.314941,3.4179688,0.0,0.0,0.0,-167.85461,72.05383,120.95947
1768030350880,-0.9536133,-0.009277344,-0.2680664,-4.699707,-1.8310547,2.5634766,0.0,0.0,0.0,-167.85461,72.05383,120.95947
1768030350891,-0.9536133,-0.009277344,-0.2680664,-4.699707,-1.8310547,2.5634766,0.0,0.0,0.0,-170.6726,72.92175,119.30603
1768030350979,-0.94433594,-0.030273438,-0.29785156,-10.864258,-4.8217773,-3.540039,0.0,0.0,0.0,-170.6726,72.92175,119.30603
1768030350991,-0.94433594,-0.030273438,-0.29785156,-10.864258,-4.8217773,-3.540039,0.0,0.0,0.0,-172.29858,73.27881,118.97095
1768030351079,-0.9213867,-9.765625E-4,-0.33691406,-20.019531,0.9765625,-9.643555,0.0,0.0,0.0,-172.29858,73.27881,118.97095
1768030351090,-0.9213867,-9.765625E-4,-0.33691406,-20.019531,0.9765625,-9.643555,0.0,0.0,0.0,-171.557,73.48755,121.37146
1768030351179,-0.9296875,-0.01953125,-0.3803711,-20.935059,-2.0141602,-6.713867,0.0,0.0,0.0,-171.557,73.48755,121.37146
1768030351190,-0.9296875,-0.01953125,-0.3803711,-20.935059,-2.0141602,-6.713867,0.0,0.0,0.0,-171.18347,73.4491,123.73901
1768030351279,-0.9560547,-0.032714844,-0.2939453,-11.291504,-6.286621,-4.8828125,0.0,0.0,0.0,-171.18347,73.4491,123.73901
1768030351290,-0.9560547,-0.032714844,-0.2939453,-11.291504,-6.286621,-4.8828125,0.0,0.0,0.0,-170.8429,73.33923,125.233154
1768030351378,-1.0009766,-0.0014648438,-0.38330078,-6.164551,-3.1738281,-4.9438477,0.0,0.0,0.0,-170.8429,73.33923,125.233154
1768030351390,-1.0009766,-0.0014648438,-0.38330078,-6.164551,-3.1738281,-4.9438477,0.0,0.0,0.0,-170.5133,73.65784,126.78223
1768030351478,-0.9213867,-0.014160156,-0.3671875,-5.7373047,-3.8452148,-6.1035156,0.0,0.0,0.0,-170.5133,73.65784,126.78223
1768030351489,-0.9213867,-0.014160156,-0.3671875,-5.7373047,-3.8452148,-6.1035156,0.0,0.0,0.0,-169.60144,73.72925,128.32031
1768030351578,-0.93359375,0.0029296875,-0.35498047,12.329102,18.127441,-5.065918,0.0,0.0,0.0,-169.60144,73.72925,128.32031
1768030351589,-0.93359375,0.0029296875,-0.35498047,12.329102,18.127441,-5.065918,0.0,0.0,0.0,-168.89832,72.59766,129.1333
1768030351677,-1.1083984,-0.119140625,-0.35107422,20.812988,10.925293,-4.0893555,0.0,0.0,0.0,-168.89832,72.59766,129.1333
1768030351689,-1.1083984,-0.119140625,-0.35107422,20.812988,10.925293,-4.0893555,0.0,0.0,0.0,-168.69507,71.93848,127.65564
1768030351777,-0.93847656,-0.111328125,-0.04345703,-9.521484,-24.291992,-1.2207031,0.0,0.0,0.0,-168.69507,71.93848,127.65564
1768030351788,-0.93847656,-0.111328125,-0.04345703,-9.521484,-24.291992,-1.2207031,0.0,0.0,0.0,-165.48157,72.6416,129.27063
1768030351877,-0.9560547,-0.04638672,-0.111816406,11.413574,-5.126953,-4.3945312,0.0,0.0,0.0,-165.48157,72.6416,129.27063
1768030351888,-0.9560547,-0.04638672,-0.111816406,11.413574,-5.126953,-4.3945312,0.0,0.0,0.0,-162.36145,73.50403,132.35779
1768030351976,-0.9477539,-0.12792969,-0.20361328,9.094238,-5.7373047,-6.652832,0.0,0.0,0.0,-162.36145,73.50403,132.35779
1768030351988,-0.9477539,-0.12792969,-0.20361328,9.094238,-5.7373047,-6.652832,0.0,0.0,0.0,-159.22485,74.262085,135.12634
1768030352076,-0.95410156,-0.14794922,-0.23339844,11.291504,7.080078,-7.385254,0.0,0.0,0.0,-159.22485,74.262085,135.12634
1768030352088,-0.95410156,-0.14794922,-0.23339844,11.291504,7.080078,-7.385254,0.0,0.0,0.0,-155.46753,74.1687,138.00476
1768030352176,-0.95751953,-0.12988281,-0.2421875,13.122559,7.751465,-0.5493164,0.0,0.0,0.0,-155.46753,74.1687,138.00476
1768030352187,-0.95751953,-0.12988281,-0.2421875,13.122559,7.751465,-0.5493164,0.0,0.0,0.0,-153.84705,73.39966,138.41125
1768030352276,-0.9428711,-0.15039062,-0.31201172,11.169434,13.183594,1.4648438,0.0,0.0,0.0,-153.84705,73.39966,138.41125
1768030352287,-0.9428711,-0.15039062,-0.31201172,11.169434,13.183594,1.4648438,0.0,0.0,0.0,-154.06128,72.663574,137.02698
1768030352375,-0.92333984,-0.14794922,-0.28515625,7.873535,14.892578,1.7700195,0.0,0.0,0.0,-154.06128,72.663574,137.02698
1768030352387,-0.92333984,-0.14794922,-0.28515625,7.873535,14.892578,1.7700195,0.0,0.0,0.0,-155.1709,71.152954,134.60999
1768030352475,-0.92285156,-0.18652344,-0.34765625,7.019043,2.0751953,5.432129,0.0,0.0,0.0,-155.1709,71.152954,134.60999
1768030352487,-0.92285156,-0.18652344,-0.34765625,7.019043,2.0751953,5.432129,0.0,0.0,0.0,-156.19263,70.68054,132.77527
1768030352575,-0.91552734,-0.18310547,-0.39892578,4.1503906,-2.6855469,6.4086914,0.0,0.0,0.0,-156.19263,70.68054,132.77527
1768030352586,-0.91552734,-0.18310547,-0.39892578,4.1503906,-2.6855469,6.4086914,0.0,0.0,0.0,-156.66504,70.8728,131.74805
1768030352675,-0.93115234,-0.19970703,-0.40625,0.91552734,-8.178711,7.9956055,0.0,0.0,0.0,-156.66504,70.8728,131.74805
1768030352686,-0.93115234,-0.19970703,-0.40625,0.91552734,-8.178711,7.9956055,0.0,0.0,0.0,-157.45605,71.54297,130.59448
1768030352774,-1.1010742,-0.1665039,-0.46923828,-1.953125,13.244629,4.0283203,0.0,0.0,0.0,-157.45605,71.54297,130.59448
1768030352786,-1.1010742,-0.1665039,-0.46923828,-1.953125,13.244629,4.0283203,0.0,0.0,0.0,-158.80188,71.20239,128.8971
1768030352874,-0.81933594,-0.22314453,-0.12451172,-17.39502,-15.74707,6.7749023,0.0,0.0,0.0,-158.80188,71.20239,128.8971
1768030352886,-0.81933594,-0.22314453,-0.12451172,-17.39502,-15.74707,6.7749023,0.0,0.0,0.0,-160.46631,69.938965,126.952515
1768030352974,-0.984375,0.057128906,-0.13720703,18.615723,8.605957,-10.925293,0.0,0.0,0.0,-160.46631,69.938965,126.952515
1768030352986,-0.984375,0.057128906,-0.13720703,18.615723,8.605957,-10.925293,0.0,0.0,0.0,-158.13171,70.01587,129.71008
1768030353073,-0.93066406,-0.10839844,-0.24560547,-12.939453,-11.047363,0.061035156,0.0,0.0,0.0,-158.13171,70.01587,129.71008
1768030353086,-0.93066406,-0.10839844,-0.24560547,-12.939453,-11.047363,0.061035156,0.0,0.0,0.0,-157.85706,71.33423,130.95703
1768030353173,-0.9658203,-0.043945312,-0.24511719,1.0986328,1.2207031,-2.9907227,0.0,0.0,0.0,-157.85706,71.33423,130.95703
1768030353185,-0.9658203,-0.043945312,-0.24511719,1.0986328,1.2207031,-2.9907227,0.0,0.0,0.0,-157.97241,72.20764,131.95679
1768030353273,-0.9379883,-0.040527344,-0.26708984,-7.9345703,1.953125,3.90625,0.0,0.0,0.0,-157.97241,72.20764,131.95679
1768030353285,-0.9379883,-0.040527344,-0.26708984,-7.9345703,1.953125,3.90625,0.0,0.0,0.0,-159.80164,72.125244,131.03943
1768030353373,-0.9707031,-0.12207031,-0.31152344,-3.540039,0.6713867,0.12207031,0.0,0.0,0.0,-159.80164,72.125244,131.03943
1768030353384,-0.9707031,-0.12207031,-0.31152344,-3.540039,0.6713867,0.12207031,0.0,0.0,0.0,-161.6748,72.59766,129.6936
1768030353472,-0.9121094,-0.09472656,-0.31396484,-8.605957,-0.5493164,-8.178711,0.0,0.0,0.0,-161.6748,72.59766,129.6936
1768030353484,-0.9121094,-0.09472656,-0.31396484,-8.605957,-0.5493164,-8.178711,0.0,0.0,0.0,-160.78491,72.317505,131.2262
1768030353572,-0.90771484,-0.09277344,-0.3100586,-12.634277,-1.8920898,-5.79834,0.0,0.0,0.0,-160.78491,72.317505,131.2262
1768030353583,-0.90771484,-0.09277344,-0.3100586,-12.634277,-1.8920898,-5.79834,0.0,0.0,0.0,-160.09277,72.09778,133.1543
1768030353672,-0.9794922,-0.068847656,-0.37402344,-7.385254,-2.6855469,-3.2348633,0.0,0.0,0.0,-160.09277,72.09778,133.1543
1768030353683,-0.9794922,-0.068847656,-0.37402344,-7.385254,-2.6855469,-3.2348633,0.0,0.0,0.0,-160.0763,71.954956,134.54407
1768030353771,-0.98583984,-0.07910156,-0.41455078,-3.90625,-2.9907227,-0.6713867,0.0,0.0,0.0,-160.0763,71.954956,134.54407
1768030353783,-0.98583984,-0.07910156,-0.41455078,-3.90625,-2.9907227,-0.6713867,0.0,0.0,0.0,-160.37292,71.88904,134.87915
1768030353871,-0.9892578,-0.08984375,-0.34179688,-1.5258789,10.559082,-8.972168,0.0,0.0,0.0,-160.37292,71.88904,134.87915
1768030353883,-0.9892578,-0.08984375,-0.34179688,-1.5258789,10.559082,-8.972168,0.0,0.0,0.0,-159.96643,71.38916,135.67017
1768030353971,-0.9145508,-0.11816406,-0.33398438,-3.6010742,3.6010742,-4.638672,0.0,0.0,0.0,-159.96643,71.38916,135.67017
1768030353982,-0.9145508,-0.11816406,-0.33398438,-3.6010742,3.6010742,-4.638672,0.0,0.0,0.0,-159.55994,70.911255,136.2799
1768030354071,-0.8935547,-0.06933594,-0.06347656,-3.90625,-0.18310547,2.6855469,0.0,0.0,0.0,-159.55994,70.911255,136.2799
1768030354083,-0.8935547,-0.06933594,-0.06347656,-3.90625,-0.18310547,2.6855469,0.0,0.0,0.0,-159.46106,70.43884,136.4502
1768030354170,-0.9770508,-0.09765625,-0.26513672,-0.48828125,-1.8920898,0.61035156,0.0,0.0,0.0,-159.46106,70.43884,136.4502
1768030354182,-0.9770508,-0.09765625,-0.26513672,-0.48828125,-1.8920898,0.61035156,0.0,0.0,0.0,-160.59814,71.378174,136.71387
1768030354270,-0.9223633,-0.110839844,-0.25976562,4.0893555,-6.7749023,2.5634766,0.0,0.0,0.0,-160.59814,71.378174,136.71387
1768030354281,-0.9223633,-0.110839844,-0.25976562,4.0893555,-6.7749023,2.5634766,0.0,0.0,0.0,-160.46082,72.32849,136.98303
1768030354370,-0.9658203,-0.14501953,-0.24316406,7.507324,-2.746582,-2.9907227,0.0,0.0,0.0,-160.46082,72.32849,136.98303
1768030354381,-0.9658203,-0.14501953,-0.24316406,7.507324,-2.746582,-2.9907227,0.0,0.0,0.0,-158.81836,72.75696,137.94434
1768030354470,-0.9345703,-0.099121094,-0.28076172,8.178711,-2.380371,1.6479492,0.0,0.0,0.0,-158.81836,72.75696,137.94434
1768030354481,-0.9345703,-0.099121094,-0.28076172,8.178711,-2.380371,1.6479492,0.0,0.0,0.0,-156.90674,72.98218,139.05396
1768030354569,-0.92041016,-0.11669922,-0.27246094,8.666992,2.746582,4.8828125,0.0,0.0,0.0,-156.90674,72.98218,139.05396
1768030354581,-0.92041016,-0.11669922,-0.27246094,8.666992,2.746582,4.8828125,0.0,0.0,0.0,-157.1759,72.927246,138.04321
1768030354669,-0.9394531,-0.1586914,-0.29589844,11.108398,3.7231445,5.2490234,0.0,0.0,0.0,-157.1759,72.927246,138.04321
1768030354681,-0.9394531,-0.1586914,-0.29589844,11.108398,3.7231445,5.2490234,0.0,0.0,0.0,-158.23059,72.77893,135.95032
1768030354769,-0.96728516,-0.17333984,-0.37158203,7.751465,6.652832,3.1738281,0.0,0.0,0.0,-158.23059,72.77893,135.95032
1768030354780,-0.96728516,-0.17333984,-0.37158203,7.751465,6.652832,3.1738281,0.0,0.0,0.0,-158.8678,72.46033,134.37927
1768030354870,-1.2207031,-0.106933594,-0.40283203,13.85498,17.8833,1.4648438,0.0,0.0,0.0,-158.8678,72.46033,134.37927
1768030354880,-1.2207031,-0.106933594,-0.40283203,13.85498,17.8833,1.4648438,0.0,0.0,0.0,-159.32373,71.312256,132.79175
1768030354968,-0.9067383,-0.20947266,-0.41748047,-17.150879,-7.080078,10.620117,0.0,0.0,0.0,-159.32373,71.312256,132.79175
1768030354980,-0.9067383,-0.20947266,-0.41748047,-17.150879,-7.080078,10.620117,0.0,0.0,0.0,-162.22961,71.119995,129.52332
1768030355068,-0.9916992,-0.064941406,-0.22460938,-4.638672,8.728027,1.0375977,0.0,0.0,0.0,-162.22961,71.119995,129.52332
1768030355079,-0.9916992,-0.064941406,-0.22460938,-4.638672,8.728027,1.0375977,0.0,0.0,0.0,-163.6908,70.59265,128.12256
1768030355168,-0.9604492,-0.038085938,-0.19824219,-7.2631836,-18.127441,1.5869141,0.0,0.0,0.0,-163.6908,70.59265,128.12256
1768030355179,-0.9604492,-0.038085938,-0.19824219,-7.2631836,-18.127441,1.5869141,0.0,0.0,0.0,-163.66882,70.686035,128.573
1768030355267,-0.99609375,-0.00390625,-0.33447266,-6.4697266,-13.244629,8.605957,0.0,0.0,0.0,-163.66882,70.686035,128.573
1768030355279,-0.99609375,-0.00390625,-0.33447266,-6.4697266,-13.244629,8.605957,0.0,0.0,0.0,-164.09729,72.68555,129.09485
1768030355367,-0.98291016,-0.019042969,-0.24316406,-13.671875,-6.652832,8.239746,0.0,0.0,0.0,-164.09729,72.68555,129.09485
1768030355379,-0.98291016,-0.019042969,-0.24316406,-13.671875,-6.652832,8.239746,0.0,0.0,0.0,-166.94275,73.95996,126.727295
1768030355467,-0.984375,-0.020019531,-0.27294922,-5.065918,-2.8686523,2.1362305,0.0,0.0,0.0,-166.94275,73.95996,126.727295
1768030355479,-0.984375,-0.020019531,-0.27294922,-5.065918,-2.8686523,2.1362305,0.0,0.0,0.0,-169.82666,74.36096,124.76074
1768030355567,-0.9604492,-0.03857422,-0.31982422,-17.333984,-1.6479492,-2.9296875,0.0,0.0,0.0,-169.82666,74.36096,124.76074
1768030355578,-0.9604492,-0.03857422,-0.31982422,-17.333984,-1.6479492,-2.9296875,0.0,0.0,0.0,-170.32104,74.49829,125.47485
1768030355666,-0.9536133,0.0068359375,-0.28271484,-21.78955,-2.746582,-4.9438477,0.0,0.0,0.0,-170.32104,74.49829,125.47485
1768030355678,-0.9536133,0.0068359375,-0.28271484,-21.78955,-2.746582,-4.9438477,0.0,0.0,0.0,-170.52979,74.262085,127.00745
1768030355766,-0.8979492,-0.024414062,-0.2705078,2.9296875,-0.061035156,-9.033203,0.0,0.0,0.0,-170.52979,74.262085,127.00745
1768030355777,-0.8979492,-0.024414062,-0.2705078,2.9296875,-0.061035156,-9.033203,0.0,0.0,0.0,-168.9917,73.88306,129.00696
1768030355866,-0.92089844,-0.0126953125,-0.36279297,4.5166016,-4.699707,-9.338379,0.0,0.0,0.0,-168.9917,73.88306,129.00696
1768030355877,-0.92089844,-0.0126953125,-0.36279297,4.5166016,-4.699707,-9.338379,0.0,0.0,0.0,-166.65161,74.16321,131.66016
1768030355965,-1.012207,-0.029296875,-0.39990234,1.7700195,-3.2958984,-7.9956055,0.0,0.0,0.0,-166.65161,74.16321,131.66016
1768030355977,-1.012207,-0.029296875,-0.39990234,1.7700195,-3.2958984,-7.9956055,0.0,0.0,0.0,-163.93799,74.40491,134.15405
1768030356065,-1.0004883,-0.045898438,-0.27685547,23.254395,-2.2583008,0.36621094,0.0,0.0,0.0,-163.93799,74.40491,134.15405
1768030356077,-1.0004883,-0.045898438,-0.27685547,23.254395,-2.2583008,0.36621094,0.0,0.0,0.0,-162.82837,74.328,134.0332
1768030356165,-0.9291992,-0.09326172,-0.22753906,14.343262,7.8125,-3.6621094,0.0,0.0,0.0,-162.82837,74.328,134.0332
1768030356176,-0.9291992,-0.09326172,-0.22753906,14.343262,7.8125,-3.6621094,0.0,0.0,0.0,-161.96045,74.13025,133.78601
1768030356264,-0.8881836,-0.103515625,-0.053222656,-1.4038086,0.79345703,2.6855469,0.0,0.0,0.0,-161.96045,74.13025,133.78601
1768030356276,-0.8881836,-0.103515625,-0.053222656,-1.4038086,0.79345703,2.6855469,0.0,0.0,0.0,-161.88354,73.71277,133.29163
1768030356364,-1.0366211,-0.05419922,-0.26611328,-3.0517578,11.779785,-1.7700195,0.0,0.0,0.0,-161.88354,73.71277,133.29163
1768030356376,-1.0366211,-0.05419922,-0.26611328,-3.0517578,11.779785,-1.7700195,0.0,0.0,0.0,-162.68005,73.73474,133.68164
1768030356464,-0.9033203,-0.15332031,-0.26660156,-4.5776367,-0.12207031,2.8076172,0.0,0.0,0.0,-162.68005,73.73474,133.68164
1768030356476,-0.9033203,-0.15332031,-0.26660156,-4.5776367,-0.12207031,2.8076172,0.0,0.0,0.0,-163.8446,73.80615,132.68188
1768030356564,-0.9267578,-0.11376953,-0.28466797,9.399414,4.699707,3.2348633,0.0,0.0,0.0,-163.8446,73.80615,132.68188
1768030356575,-0.9267578,-0.11376953,-0.28466797,9.399414,4.699707,3.2348633,0.0,0.0,0.0,-163.88855,73.48755,132.00623
1768030356664,-0.9189453,-0.107421875,-0.34814453,15.380859,7.6904297,5.859375,0.0,0.0,0.0,-163.88855,73.48755,132.00623
1768030356675,-0.9189453,-0.107421875,-0.34814453,15.380859,7.6904297,5.859375,0.0,0.0,0.0,-164.46533,72.75696,130.0946
1768030356764,-0.8964844,-0.15283203,-0.3544922,16.601562,13.427734,2.5634766,0.0,0.0,0.0,-164.46533,72.75696,130.0946
1768030356775,-0.8964844,-0.15283203,-0.3544922,16.601562,13.427734,2.5634766,0.0,0.0,0.0,-164.58618,71.40015,128.00171
1768030356863,-0.9614258,-0.17626953,-0.3720703,18.066406,11.84082,7.080078,0.0,0.0,0.0,-164.58618,71.40015,128.00171
1768030356874,-0.9614258,-0.17626953,-0.3720703,18.066406,11.84082,7.080078,0.0,0.0,0.0,-164.84985,70.12024,125.8374
1768030356963,-1.324707,-0.09765625,-0.45263672,25.817871,18.371582,-1.0986328,0.0,0.0,0.0,-164.84985,70.12024,125.8374
1768030356974,-1.324707,-0.09765625,-0.45263672,25.817871,18.371582,-1.0986328,0.0,0.0,0.0,-163.62488,68.71399,124.645386
1768030357062,-0.8261719,-0.27246094,-0.40429688,-22.033691,-12.573242,8.728027,0.0,0.0,0.0,-163.62488,68.71399,124.645386
1768030357074,-0.8261719,-0.27246094,-0.40429688,-22.033691,-12.573242,8.728027,0.0,0.0,0.0,-163.72375,68.20862,123.480835
1768030357162,-0.93847656,0.06933594,-0.11669922,10.620117,8.178711,-0.18310547,0.0,0.0,0.0,-163.72375,68.20862,123.480835
1768030357174,-0.93847656,0.06933594,-0.11669922,10.620117,8.178711,-0.18310547,0.0,0.0,0.0,-162.9657,67.5,123.585205
1768030357262,-1.0078125,0.00390625,-0.3310547,-9.033203,-7.2021484,6.713867,0.0,0.0,0.0,-162.9657,67.5,123.585205
1768030357274,-1.0078125,0.00390625,-0.3310547,-9.033203,-7.2021484,6.713867,0.0,0.0,0.0,-165.90454,68.57117,121.9043
1768030357361,-0.87939453,0.021484375,-0.29248047,-14.343262,-10.681152,8.544922,0.0,0.0,0.0,-165.90454,68.57117,121.9043
1768030357373,-0.87939453,0.021484375,-0.29248047,-14.343262,-10.681152,8.544922,0.0,0.0,0.0,-169.58496,69.77966,119.921265
1768030357461,-0.9667969,-0.0024414062,-0.29785156,-15.136719,-6.286621,3.540039,0.0,0.0,0.0,-169.58496,69.77966,119.921265
1768030357473,-0.9667969,-0.0024414062,-0.29785156,-15.136719,-6.286621,3.540039,0.0,0.0,0.0,-173.02368,70.80139,118.10303
1768030357561,-0.9433594,-0.009277344,-0.33007812,-22.277832,-4.333496,-6.286621,0.0,0.0,0.0,-173.02368,70.80139,118.10303
1768030357572,-0.9433594,-0.009277344,-0.33007812,-22.277832,-4.333496,-6.286621,0.0,0.0,0.0,-174.4519,71.24634,118.844604
1768030357661,-0.91748047,-0.0029296875,-0.33935547,-17.211914,-4.638672,-8.483887,0.0,0.0,0.0,-174.4519,71.24634,118.844604
1768030357673,-0.91748047,-0.0029296875,-0.33935547,-17.211914,-4.638672,-8.483887,0.0,0.0,0.0,-174.09485,71.65283,121.15173
1768030357760,-0.9243164,-0.0034179688,-0.36523438,-15.625,0.4272461,-6.958008,0.0,0.0,0.0,-174.09485,71.65283,121.15173
1768030357773,-0.9243164,-0.0034179688,-0.36523438,-15.625,0.4272461,-6.958008,0.0,0.0,0.0,-173.79822,71.867065,123.23364
1768030357860,-0.95996094,0.03564453,-0.36669922,-11.291504,-1.8310547,1.0375977,0.0,0.0,0.0,-173.79822,71.867065,123.23364
1768030357872,-0.95996094,0.03564453,-0.36669922,-11.291504,-1.8310547,1.0375977,0.0,0.0,0.0,-174.375,71.57593,124.04663
1768030357960,-0.9453125,0.02734375,-0.36523438,7.5683594,-0.79345703,0.6713867,0.0,0.0,0.0,-174.375,71.57593,124.04663
1768030357971,-0.9453125,0.02734375,-0.36523438,7.5683594,-0.79345703,0.6713867,0.0,0.0,0.0,-175.2649,71.54846,123.272095
1768030358060,-0.9082031,-0.028808594,-0.40722656,4.760742,-4.699707,-4.9438477,0.0,0.0,0.0,-175.2649,71.54846,123.272095
1768030358071,-0.9082031,-0.028808594,-0.40722656,4.760742,-4.699707,-4.9438477,0.0,0.0,0.0,-174.67163,71.922,123.392944
1768030358159,-0.9501953,-0.014160156,-0.33935547,6.4697266,-1.159668,-8.605957,0.0,0.0,0.0,-174.67163,71.922,123.392944
1768030358171,-0.9501953,-0.014160156,-0.33935547,6.4697266,-1.159668,-8.605957,0.0,0.0,0.0,-172.16125,71.8396,125.45288
1768030358259,-0.9902344,-0.09716797,-0.40527344,24.169922,1.8920898,-12.512207,0.0,0.0,0.0,-172.16125,71.8396,125.45288
1768030358270,-0.9902344,-0.09716797,-0.40527344,24.169922,1.8920898,-12.512207,0.0,0.0,0.0,-168.84888,71.61987,127.55676
1768030358359,-0.8779297,-0.026855469,-0.2446289,23.742676,5.92041,-14.404297,0.0,0.0,0.0,-168.84888,71.61987,127.55676
1768030358370,-0.8779297,-0.026855469,-0.2446289,23.742676,5.92041,-14.404297,0.0,0.0,0.0,-162.98767,71.02112,131.55579
1768030358458,-1.0092773,-0.20703125,-0.037597656,-22.033691,-18.798828,-6.4697266,0.0,0.0,0.0,-162.98767,71.02112,131.55579
1768030358470,-1.0092773,-0.20703125,-0.037597656,-22.033691,-18.798828,-6.4697266,0.0,0.0,0.0,-160.28503,71.59241,134.01672
1768030358558,-0.9345703,-0.016113281,-0.23388672,27.22168,6.4086914,-2.9907227,0.0,0.0,0.0,-160.28503,71.59241,134.01672
1768030358570,-0.9345703,-0.016113281,-0.23388672,27.22168,6.4086914,-2.9907227,0.0,0.0,0.0,-158.50525,71.59241,136.7688
1768030358658,-0.95458984,-0.09472656,-0.25585938,13.977051,7.3242188,-1.4038086,0.0,0.0,0.0,-158.50525,71.59241,136.7688
1768030358670,-0.95458984,-0.09472656,-0.25585938,13.977051,7.3242188,-1.4038086,0.0,0.0,0.0,-158.0658,71.74072,136.32385
1768030358758,-0.99316406,-0.16601562,-0.27441406,16.174316,6.713867,2.0141602,0.0,0.0,0.0,-158.0658,71.74072,136.32385
1768030358769,-0.99316406,-0.16601562,-0.27441406,16.174316,6.713867,2.0141602,0.0,0.0,0.0,-157.36267,71.520996,135.28015
1768030358857,-0.9433594,-0.15332031,-0.28955078,12.6953125,10.009766,2.4414062,0.0,0.0,0.0,-157.36267,71.520996,135.28015
1768030358869,-0.9433594,-0.15332031,-0.28955078,12.6953125,10.009766,2.4414062,0.0,0.0,0.0,-157.21436,70.823364,133.83545
1768030358957,-0.89208984,-0.12060547,-0.32910156,21.240234,10.009766,5.79834,0.0,0.0,0.0,-157.21436,70.823364,133.83545
1768030358969,-0.89208984,-0.12060547,-0.32910156,21.240234,10.009766,5.79834,0.0,0.0,0.0,-157.18689,69.9939,132.05566
1768030359057,-0.9506836,-0.1743164,-0.32714844,15.991211,7.2631836,1.5258789,0.0,0.0,0.0,-157.18689,69.9939,132.05566
1768030359068,-0.9506836,-0.1743164,-0.32714844,15.991211,7.2631836,1.5258789,0.0,0.0,0.0,-157.0221,69.12048,130.05066
1768030359157,-0.97216797,-0.140625,-0.34375,12.573242,5.6152344,5.126953,0.0,0.0,0.0,-157.0221,69.12048,130.05066
1768030359168,-0.97216797,-0.140625,-0.34375,12.573242,5.6152344,5.126953,0.0,0.0,0.0,-156.74744,68.620605,128.75977
1768030359256,-0.85498047,-0.1328125,-0.36083984,-2.5024414,-9.82666,12.023926,0.0,0.0,0.0,-156.74744,68.620605,128.75977
1768030359268,-0.85498047,-0.1328125,-0.36083984,-2.5024414,-9.82666,12.023926,0.0,0.0,0.0,-157.85156,69.27429,127.06787
1768030359356,-1.0703125,-0.20703125,-0.19628906,-11.413574,-4.1503906,6.5307617,0.0,0.0,0.0,-157.85156,69.27429,127.06787
1768030359368,-1.0703125,-0.20703125,-0.19628906,-11.413574,-4.1503906,6.5307617,0.0,0.0,0.0,-160.307,70.026855,124.766235
1768030359456,-0.8691406,0.071777344,-0.265625,0.6713867,-23.498535,11.657715,0.0,0.0,0.0,-160.307,70.026855,124.766235
1768030359467,-0.8691406,0.071777344,-0.265625,0.6713867,-23.498535,11.657715,0.0,0.0,0.0,-161.55396,71.9989,124.80469
1768030359555,-1.034668,-0.06640625,-0.18652344,2.8076172,-4.8828125,2.746582,0.0,0.0,0.0,-161.55396,71.9989,124.80469
1768030359567,-1.034668,-0.06640625,-0.18652344,2.8076172,-4.8828125,2.746582,0.0,0.0,0.0,-164.18518,74.036865,122.75574
1768030359655,-1.0004883,-0.060058594,-0.2998047,-11.657715,-7.507324,1.953125,0.0,0.0,0.0,-164.18518,74.036865,122.75574
1768030359667,-1.0004883,-0.060058594,-0.2998047,-11.657715,-7.507324,1.953125,0.0,0.0,0.0,-164.69604,75.23987,122.596436
1768030359755,-0.97558594,-0.034179688,-0.19970703,-1.4648438,1.159668,-2.1972656,0.0,0.0,0.0,-164.69604,75.23987,122.596436
1768030359766,-0.97558594,-0.034179688,-0.19970703,-1.4648438,1.159668,-2.1972656,0.0,0.0,0.0,-165.2124,75.18494,122.596436
1768030359855,-0.9458008,-0.067871094,-0.30126953,-11.779785,-5.065918,-1.6479492,0.0,0.0,0.0,-165.2124,75.18494,122.596436
1768030359866,-0.9458008,-0.067871094,-0.30126953,-11.779785,-5.065918,-1.6479492,0.0,0.0,0.0,-165.531,75.426636,123.25012
1768030359954,-0.9291992,-0.08984375,-0.3022461,-12.756348,-8.300781,3.6621094,0.0,0.0,0.0,-165.531,75.426636,123.25012
1768030359966,-0.9291992,-0.08984375,-0.3022461,-12.756348,-8.300781,3.6621094,0.0,0.0,0.0,-166.75598,75.910034,122.926025
1768030360054,-0.89160156,-0.099609375,-0.45361328,-18.676758,-5.065918,0.8544922,0.0,0.0,0.0,-166.75598,75.910034,122.926025
1768030360066,-0.89160156,-0.099609375,-0.45361328,-18.676758,-5.065918,0.8544922,0.0,0.0,0.0,-168.37097,76.96472,122.93152
1768030360154,-0.92285156,-0.09716797,-0.3486328,-6.0424805,7.080078,4.9438477,0.0,0.0,0.0,-168.37097,76.96472,122.93152
1768030360165,-0.92285156,-0.09716797,-0.3486328,-6.0424805,7.080078,4.9438477,0.0,0.0,0.0,-171.09558,75.99243,120.91553
1768030360254,-1.3974609,-0.19726562,-0.3383789,-23.68164,17.150879,-11.047363,0.0,0.0,0.0,-171.09558,75.99243,120.91553
1768030360265,-1.3974609,-0.19726562,-0.3383789,-23.68164,17.150879,-11.047363,0.0,0.0,0.0,-171.55151,74.75647,121.57471
1768030360353,-0.71484375,0.07714844,-0.22460938,30.334473,-7.1411133,-6.0424805,0.0,0.0,0.0,-171.55151,74.75647,121.57471
1768030360365,-0.71484375,0.07714844,-0.22460938,30.334473,-7.1411133,-6.0424805,0.0,0.0,0.0,-167.05261,74.0863,125.425415
1768030360453,-1.0830078,-0.083496094,-0.1772461,-4.9438477,7.080078,-1.6479492,0.0,0.0,0.0,-167.05261,74.0863,125.425415
1768030360464,-1.0830078,-0.083496094,-0.1772461,-4.9438477,7.080078,-1.6479492,0.0,0.0,0.0,-165.91003,74.871826,124.85962
1768030360553,-0.90966797,0.049804688,-0.29882812,6.164551,-1.8920898,7.446289,0.0,0.0,0.0,-165.91003,74.871826,124.85962
1768030360564,-0.90966797,0.049804688,-0.29882812,6.164551,-1.8920898,7.446289,0.0,0.0,0.0,-166.38794,74.575195,123.81592
1768030360652,-0.9707031,-0.014160156,-0.2866211,4.0893555,3.1738281,5.3100586,0.0,0.0,0.0,-166.38794,74.575195,123.81592
1768030360664,-0.9707031,-0.014160156,-0.2866211,4.0893555,3.1738281,5.3100586,0.0,0.0,0.0,-168.69507,74.11926,120.72876
1768030360752,-0.92822266,-0.06201172,-0.28808594,-5.554199,0.061035156,-6.7749023,0.0,0.0,0.0,-168.69507,74.11926,120.72876
1768030360764,-0.92822266,-0.06201172,-0.28808594,-5.554199,0.061035156,-6.7749023,0.0,0.0,0.0,-168.19519,73.85559,120.9375
1768030360852,-0.89404297,-0.045410156,-0.40478516,-16.723633,-3.2348633,-5.2490234,0.0,0.0,0.0,-168.19519,73.85559,120.9375
1768030360863,-0.89404297,-0.045410156,-0.40478516,-16.723633,-3.2348633,-5.2490234,0.0,0.0,0.0,-167.73376,74.069824,122.71179
1768030360952,-0.9589844,-0.09814453,-0.4091797,-14.831543,0.5493164,-10.437012,0.0,0.0,0.0,-167.73376,74.069824,122.71179
1768030360963,-0.9589844,-0.09814453,-0.4091797,-14.831543,0.5493164,-10.437012,0.0,0.0,0.0,-166.5857,73.77869,125.02991
1768030361051,-0.91845703,-0.016601562,-0.49316406,-15.258789,2.0751953,-10.559082,0.0,0.0,0.0,-166.5857,73.77869,125.02991
1768030361063,-0.91845703,-0.016601562,-0.49316406,-15.258789,2.0751953,-10.559082,0.0,0.0,0.0,-165.0476,73.22388,128.30383
1768030361151,-0.80322266,-0.014160156,-0.17041016,7.5683594,-0.061035156,-5.859375,0.0,0.0,0.0,-165.0476,73.22388,128.30383
1768030361163,-0.80322266,-0.014160156,-0.17041016,7.5683594,-0.061035156,-5.859375,0.0,0.0,0.0,-164.63013,71.224365,128.90808
1768030361251,-1.0629883,-0.041992188,-0.14208984,-10.253906,9.460449,0.36621094,0.0,0.0,0.0,-164.63013,71.224365,128.90808
1768030361262,-1.0629883,-0.041992188,-0.14208984,-10.253906,9.460449,0.36621094,0.0,0.0,0.0,-166.13525,72.3999,128.15002
1768030361350,-0.95654297,-0.140625,-0.17773438,-4.8217773,-8.117676,-1.6479492,0.0,0.0,0.0,-166.13525,72.3999,128.15002
1768030361362,-0.95654297,-0.140625,-0.17773438,-4.8217773,-8.117676,-1.6479492,0.0,0.0,0.0,-165.5365,73.064575,128.01819
1768030361450,-0.9760742,-0.100097656,-0.20898438,9.094238,4.272461,1.7089844,0.0,0.0,0.0,-165.5365,73.064575,128.01819
1768030361462,-0.9760742,-0.100097656,-0.20898438,9.094238,4.272461,1.7089844,0.0,0.0,0.0,-164.77295,73.65784,128.02917
1768030361550,-0.9897461,-0.11669922,-0.2319336,3.9672852,3.2958984,0.0,0.0,0.0,0.0,-164.77295,73.65784,128.02917
1768030361561,-0.9897461,-0.11669922,-0.2319336,3.9672852,3.2958984,0.0,0.0,0.0,0.0,-163.93799,73.45459,127.72156
1768030361650,-0.89941406,-0.09277344,-0.20654297,17.700195,8.544922,1.2817383,0.0,0.0,0.0,-163.93799,73.45459,127.72156
1768030361661,-0.89941406,-0.09277344,-0.20654297,17.700195,8.544922,1.2817383,0.0,0.0,0.0,-162.77344,72.46582,127.46887
1768030361749,-0.91308594,-0.07519531,-0.29003906,4.0893555,2.9907227,8.666992,0.0,0.0,0.0,-162.77344,72.46582,127.46887
1768030361761,-0.91308594,-0.07519531,-0.29003906,4.0893555,2.9907227,8.666992,0.0,0.0,0.0,-163.5315,71.77368,125.875854
1768030361849,-0.94628906,-0.11230469,-0.36865234,9.094238,12.145996,7.446289,0.0,0.0,0.0,-163.5315,71.77368,125.875854
1768030361861,-0.94628906,-0.11230469,-0.36865234,9.094238,12.145996,7.446289,0.0,0.0,0.0,-165.6903,70.91675,123.079834
1768030361949,-1.1577148,-0.107910156,-0.4404297,15.075684,21.362305,3.2348633,0.0,0.0,0.0,-165.6903,70.91675,123.079834
1768030361961,-1.1577148,-0.107910156,-0.4404297,15.075684,21.362305,3.2348633,0.0,0.0,0.0,-166.62415,69.37866,120.64636
1768030362049,-0.8041992,-0.20996094,-0.31103516,-0.061035156,-7.9345703,8.239746,0.0,0.0,0.0,-166.62415,69.37866,120.64636
1768030362060,-0.8041992,-0.20996094,-0.31103516,-0.061035156,-7.9345703,8.239746,0.0,0.0,0.0,-167.37671,68.307495,118.71826
1768030362148,-1.1777344,0.119628906,-0.24169922,2.380371,-15.197754,17.089844,0.0,0.0,0.0,-167.37671,68.307495,118.71826
1768030362160,-1.1777344,0.119628906,-0.24169922,2.380371,-15.197754,17.089844,0.0,0.0,0.0,-168.14575,70.54321,117.075806
1768030362248,-0.8779297,-0.07128906,-0.12890625,-11.962891,-37.29248,4.0893555,0.0,0.0,0.0,-168.14575,70.54321,117.075806
1768030362260,-0.8779297,-0.07128906,-0.12890625,-11.962891,-37.29248,4.0893555,0.0,0.0,0.0,-167.39868,72.70752,116.19141
1768030362348,-0.9946289,0.083496094,-0.2241211,-12.390137,-1.0375977,-7.2021484,0.0,0.0,0.0,-167.39868,72.70752,116.19141
1768030362359,-0.9946289,0.083496094,-0.2241211,-12.390137,-1.0375977,-7.2021484,0.0,0.0,0.0,-166.56921,74.59717,118.99292
1768030362448,-1.0048828,-0.12402344,-0.26171875,-15.014648,11.84082,-19.348145,0.0,0.0,0.0,-166.56921,74.59717,118.99292
1768030362459,-1.0048828,-0.12402344,-0.26171875,-15.014648,11.84082,-19.348145,0.0,0.0,0.0,-164.05884,74.053345,122.98096
1768030362547,-0.9169922,-0.087890625,-0.32861328,-10.070801,15.930176,-14.770508,0.0,0.0,0.0,-164.05884,74.053345,122.98096
1768030362559,-0.9169922,-0.087890625,-0.32861328,-10.070801,15.930176,-14.770508,0.0,0.0,0.0,-161.94397,72.18567,126.91406
1768030362647,-1.0083008,-0.100097656,-0.32910156,-31.25,15.197754,-15.136719,0.0,0.0,0.0,-161.94397,72.18567,126.91406
1768030362659,-1.0083008,-0.100097656,-0.32910156,-31.25,15.197754,-15.136719,0.0,0.0,0.0,-161.62537,71.02661,129.60022
1768030362747,-0.94921875,-0.08496094,-0.32617188,-18.737793,4.5776367,-11.657715,0.0,0.0,0.0,-161.62537,71.02661,129.60022
1768030362758,-0.94921875,-0.08496094,-0.32617188,-18.737793,4.5776367,-11.657715,0.0,0.0,0.0,-160.57068,69.57092,132.59949
1768030362846,-0.96728516,-0.099609375,-0.39501953,-8.605957,0.9765625,-7.385254,0.0,0.0,0.0,-160.57068,69.57092,132.59949
1768030362858,-0.96728516,-0.099609375,-0.39501953,-8.605957,0.9765625,-7.385254,0.0,0.0,0.0,-160.08728,68.950195,134.71985
1768030362946,-0.9008789,-0.053222656,-0.4970703,0.12207031,-4.4555664,-0.061035156,0.0,0.0,0.0,-160.08728,68.950195,134.71985
1768030362958,-0.9008789,-0.053222656,-0.4970703,0.12207031,-4.4555664,-0.061035156,0.0,0.0,0.0,-159.62036,68.5437,135.90637
1768030363046,-0.88427734,-0.09082031,-0.5541992,29.35791,-1.2817383,16.174316,0.0,0.0,0.0,-159.62036,68.5437,135.90637
1768030363057,-0.88427734,-0.09082031,-0.5541992,29.35791,-1.2817383,16.174316,0.0,0.0,0.0,-160.67505,69.06555,133.13232
1768030363146,-0.83154297,-0.13183594,-0.48535156,26.367188,8.422852,14.282227,0.0,0.0,0.0,-160.67505,69.06555,133.13232
1768030363157,-0.83154297,-0.13183594,-0.48535156,26.367188,8.422852,14.282227,0.0,0.0,0.0,-162.14172,68.76343,127.891846
1768030363245,-1.4213867,-0.12011719,-0.087402344,43.823242,12.145996,18.737793,0.0,0.0,0.0,-162.14172,68.76343,127.891846
1768030363257,-1.4213867,-0.12011719,-0.087402344,43.823242,12.145996,18.737793,0.0,0.0,0.0,-164.49829,67.51099,122.60193
1768030363345,-1.0415039,0.07373047,-0.43652344,-61.09619,-34.484863,27.770996,0.0,0.0,0.0,-164.49829,67.51099,122.60193
1768030363357,-1.0415039,0.07373047,-0.43652344,-61.09619,-34.484863,27.770996,0.0,0.0,0.0,-167.34924,68.29651,119.46533
1768030363445,-0.88916016,-0.06347656,-0.048828125,21.972656,16.052246,-1.159668,0.0,0.0,0.0,-167.34924,68.29651,119.46533
1768030363456,-0.88916016,-0.06347656,-0.048828125,21.972656,16.052246,-1.159668,0.0,0.0,0.0,-169.43115,69.104004,118.19641
1768030363545,-0.89404297,-0.03955078,-0.35742188,19.16504,8.178711,-4.211426,0.0,0.0,0.0,-169.43115,69.104004,118.19641
1768030363556,-0.89404297,-0.03955078,-0.35742188,19.16504,8.178711,-4.211426,0.0,0.0,0.0,-168.71155,69.65881,119.70703
1768030363644,-0.9584961,-0.10107422,-0.40771484,6.3476562,4.4555664,-7.446289,0.0,0.0,0.0,-168.71155,69.65881,119.70703
1768030363656,-0.9584961,-0.10107422,-0.40771484,6.3476562,4.4555664,-7.446289,0.0,0.0,0.0,-166.27808,69.71924,120.877075
1768030363744,-0.92333984,-0.15771484,-0.3647461,14.892578,-5.3100586,2.8076172,0.0,0.0,0.0,-166.27808,69.71924,120.877075
1768030363756,-0.92333984,-0.15771484,-0.3647461,14.892578,-5.3100586,2.8076172,0.0,0.0,0.0,-164.89929,70.043335,121.21765
1768030363844,-0.90283203,-0.08642578,-0.40771484,-3.479004,-1.159668,3.0517578,0.0,0.0,0.0,-164.89929,70.043335,121.21765
1768030363855,-0.90283203,-0.08642578,-0.40771484,-3.479004,-1.159668,3.0517578,0.0,0.0,0.0,-164.21265,70.3125,121.3385
1768030363944,-0.94140625,-0.12011719,-0.39746094,-8.483887,-1.2207031,3.3569336,0.0,0.0,0.0,-164.21265,70.3125,121.3385
1768030363955,-0.94140625,-0.12011719,-0.39746094,-8.483887,-1.2207031,3.3569336,0.0,0.0,0.0,-165.62988,70.42786,120.34424
1768030364044,-1.03125,-0.22265625,-0.39892578,-9.155273,5.7373047,-4.211426,0.0,0.0,0.0,-165.62988,70.42786,120.34424
1768030364055,-1.03125,-0.22265625,-0.39892578,-9.155273,5.7373047,-4.211426,0.0,0.0,0.0,-166.65161,70.40588,119.95422
1768030364143,-1.0,-0.071777344,-0.3618164,-10.437012,16.601562,-11.352539,0.0,0.0,0.0,-166.65161,70.40588,119.95422
1768030364155,-1.0,-0.071777344,-0.3618164,-10.437012,16.601562,-11.352539,0.0,0.0,0.0,-165.06409,69.14795,122.41516
1768030364243,-0.73828125,0.05126953,-0.1640625,34.42383,-10.437012,9.521484,0.0,0.0,0.0,-165.06409,69.14795,122.41516
1768030364254,-0.73828125,0.05126953,-0.1640625,34.42383,-10.437012,9.521484,0.0,0.0,0.0,-164.71252,69.09851,121.503296
1768030364342,-1.0268555,-0.14501953,-0.4033203,36.987305,25.08545,17.700195,0.0,0.0,0.0,-164.71252,69.09851,121.503296
1768030364354,-1.0268555,-0.14501953,-0.4033203,36.987305,25.08545,17.700195,0.0,0.0,0.0,-169.68384,68.90625,114.955444
1768030364442,-0.94970703,0.057617188,-0.35205078,-8.361816,5.7373047,16.601562,0.0,0.0,0.0,-169.68384,68.90625,114.955444
1768030364454,-0.94970703,0.057617188,-0.35205078,-8.361816,5.7373047,16.601562,0.0,0.0,0.0,-173.11707,68.59863,110.527954
1768030364542,-0.83251953,0.079589844,-0.18945312,-2.6855469,6.591797,2.746582,0.0,0.0,0.0,-173.11707,68.59863,110.527954
1768030364554,-0.83251953,0.079589844,-0.18945312,-2.6855469,6.591797,2.746582,0.0,0.0,0.0,-177.01172,67.89551,107.924194
1768030364642,-0.8598633,0.07910156,-0.3178711,-14.709473,3.7231445,-11.352539,0.0,0.0,0.0,-177.01172,67.89551,107.924194
1768030364653,-0.8598633,0.07910156,-0.3178711,-14.709473,3.7231445,-11.352539,0.0,0.0,0.0,-177.78625,67.802124,109.346924
