timestamp,accX,accY,accZ,gyroX,gyroY,gyroZ,magX,magY,magZ,roll,pitch,yaw
1768033457583,-0.95458984,-0.01171875,0.21435547,30.395508,1.6479492,-19.28711,0.0,0.0,0.0,-0.18127441,75.39368,-0.19226074
1768033457591,-0.95458984,-0.01171875,0.21435547,30.395508,1.6479492,-19.28711,0.0,0.0,0.0,-2.614746,73.861084,-5.7019043
1768033457681,-0.96484375,-0.029785156,0.2368164,6.591797,-6.3476562,-7.507324,0.0,0.0,0.0,-2.614746,73.861084,-5.7019043
1768033457691,-0.96484375,-0.029785156,0.2368164,6.591797,-6.3476562,-7.507324,0.0,0.0,0.0,-5.454712,73.93799,-10.755615
1768033457779,-1.0151367,-0.056152344,0.19091797,-14.6484375,0.5493164,-1.6479492,0.0,0.0,0.0,-5.454712,73.93799,-10.755615
1768033457791,-1.0151367,-0.056152344,0.19091797,-14.6484375,0.5493164,-1.6479492,0.0,0.0,0.0,-6.6796875,73.07556,-11.508179
1768033457882,-1.0009766,-0.075683594,0.21386719,-35.827637,8.7890625,0.061035156,0.0,0.0,0.0,-6.6796875,73.07556,-11.508179
1768033457890,-1.0009766,-0.075683594,0.21386719,-35.827637,8.7890625,0.061035156,0.0,0.0,0.0,-10.15686,74.11377,-12.755127
1768033457982,-1.0424805,0.012207031,0.25048828,-42.419434,6.225586,5.554199,0.0,0.0,0.0,-10.15686,74.11377,-12.755127
1768033457990,-1.0424805,0.012207031,0.25048828,-42.419434,6.225586,5.554199,0.0,0.0,0.0,-14.326172,75.130005,-12.722168
1768033458078,-1.0166016,-0.033691406,0.20947266,-30.151367,-4.5776367,10.314941,0.0,0.0,0.0,-14.326172,75.130005,-12.722168
1768033458090,-1.0166016,-0.033691406,0.20947266,-30.151367,-4.5776367,10.314941,0.0,0.0,0.0,-14.897461,75.65735,-9.887695
1768033458178,-0.83935547,-0.11816406,0.22851562,-24.108887,16.906738,0.5493164,0.0,0.0,0.0,-14.897461,75.65735,-9.887695
1768033458189,-0.83935547,-0.11816406,0.22851562,-24.108887,16.906738,0.5493164,0.0,0.0,0.0,-14.551392,76.58569,-7.0147705
1768033458278,-0.9580078,-0.19580078,0.3017578,-16.235352,14.892578,-6.8969727,0.0,0.0,0.0,-14.551392,76.58569,-7.0147705
1768033458289,-0.9580078,-0.19580078,0.3017578,-16.235352,14.892578,-6.8969727,0.0,0.0,0.0,-23.686523,77.98645,-14.831543
1768033458377,-0.9301758,-0.06347656,0.22363281,-38.085938,-43.518066,13.122559,0.0,0.0,0.0,-23.686523,77.98645,-14.831543
1768033458389,-0.9301758,-0.06347656,0.22363281,-38.085938,-43.518066,13.122559,0.0,0.0,0.0,-21.18164,75.74524,-8.728638
1768033458477,-0.94433594,-0.15625,0.2607422,-8.483887,8.7890625,-6.225586,0.0,0.0,0.0,-21.18164,75.74524,-8.728638
1768033458489,-0.94433594,-0.15625,0.2607422,-8.483887,8.7890625,-6.225586,0.0,0.0,0.0,-22.197876,74.91028,-8.701172
1768033458577,-0.9682617,-0.072753906,0.2763672,-11.901855,-17.27295,-5.554199,0.0,0.0,0.0,-22.197876,74.91028,-8.701172
1768033458588,-0.9682617,-0.072753906,0.2763672,-11.901855,-17.27295,-5.554199,0.0,0.0,0.0,-25.153198,74.17969,-10.870972
1768033458677,-0.9838867,-0.118652344,0.24414062,-0.5493164,-3.7841797,-5.2490234,0.0,0.0,0.0,-25.153198,74.17969,-10.870972
1768033458688,-0.9838867,-0.118652344,0.24414062,-0.5493164,-3.7841797,-5.2490234,0.0,0.0,0.0,-24.592896,72.77893,-9.931641
1768033458776,-0.97998047,-0.1352539,0.22705078,-2.5634766,-2.1362305,-6.7749023,0.0,0.0,0.0,-24.592896,72.77893,-9.931641
1768033458788,-0.97998047,-0.1352539,0.22705078,-2.5634766,-2.1362305,-6.7749023,0.0,0.0,0.0,-26.47705,72.421875,-12.260742
1768033458876,-0.9902344,-0.19726562,0.24609375,-6.8359375,13.793945,-2.1972656,0.0,0.0,0.0,-26.47705,72.421875,-12.260742
1768033458887,-0.9902344,-0.19726562,0.24609375,-6.8359375,13.793945,-2.1972656,0.0,0.0,0.0,-28.894043,72.72949,-14.798584
1768033458976,-1.0039062,-0.12988281,0.23242188,-8.422852,-4.0283203,0.91552734,0.0,0.0,0.0,-28.894043,72.72949,-14.798584
1768033458987,-1.0039062,-0.12988281,0.23242188,-8.422852,-4.0283203,0.91552734,0.0,0.0,0.0,-32.44812,73.4436,-17.957153
1768033459075,-0.8598633,-0.1743164,0.26708984,12.756348,29.47998,-12.145996,0.0,0.0,0.0,-32.44812,73.4436,-17.957153
1768033459087,-0.8598633,-0.1743164,0.26708984,12.756348,29.47998,-12.145996,0.0,0.0,0.0,-34.595947,73.740234,-19.940186
1768033459175,-0.9711914,-0.17822266,0.3173828,8.300781,-3.7841797,-8.361816,0.0,0.0,0.0,-34.595947,73.740234,-19.940186
1768033459187,-0.9711914,-0.17822266,0.3173828,8.300781,-3.7841797,-8.361816,0.0,0.0,0.0,-42.478638,74.65759,-29.866333
1768033459275,-0.94873047,-0.14794922,0.16357422,16.296387,-45.34912,1.7700195,0.0,0.0,0.0,-42.478638,74.65759,-29.866333
1768033459287,-0.94873047,-0.14794922,0.16357422,16.296387,-45.34912,1.7700195,0.0,0.0,0.0,-33.706055,71.586914,-20.066528
1768033459375,-0.9033203,-0.15917969,0.2680664,13.244629,24.475098,-0.6713867,0.0,0.0,0.0,-33.706055,71.586914,-20.066528
1768033459386,-0.9033203,-0.15917969,0.2680664,13.244629,24.475098,-0.6713867,0.0,0.0,0.0,-32.947998,71.82312,-21.307983
1768033459474,-0.9667969,-0.17919922,0.24169922,-1.8310547,-14.526367,2.4414062,0.0,0.0,0.0,-32.947998,71.82312,-21.307983
1768033459486,-0.9667969,-0.17919922,0.24169922,-1.8310547,-14.526367,2.4414062,0.0,0.0,0.0,-33.771973,72.63611,-23.741455
1768033459574,-0.99365234,-0.1743164,0.2133789,5.859375,9.70459,-0.48828125,0.0,0.0,0.0,-33.771973,72.63611,-23.741455
1768033459585,-0.99365234,-0.1743164,0.2133789,5.859375,9.70459,-0.48828125,0.0,0.0,0.0,-31.744995,71.87256,-21.785889
1768033459674,-0.95703125,-0.14794922,0.23730469,-2.9296875,4.272461,6.8969727,0.0,0.0,0.0,-31.744995,71.87256,-21.785889
1768033459685,-0.95703125,-0.14794922,0.23730469,-2.9296875,4.272461,6.8969727,0.0,0.0,0.0,-32.783203,72.839355,-23.170166
1768033459774,-0.9941406,-0.083984375,0.26757812,4.760742,3.1738281,7.9345703,0.0,0.0,0.0,-32.783203,72.839355,-23.170166
1768033459786,-0.9941406,-0.083984375,0.26757812,4.760742,3.1738281,7.9345703,0.0,0.0,0.0,-31.338501,73.602905,-21.912231
1768033459873,-1.0053711,-0.05126953,0.23388672,21.30127,1.0375977,10.192871,0.0,0.0,0.0,-31.338501,73.602905,-21.912231
1768033459885,-1.0053711,-0.05126953,0.23388672,21.30127,1.0375977,10.192871,0.0,0.0,0.0,-26.652832,73.92151,-18.605347
1768033459973,-0.9013672,-0.1665039,0.26367188,30.700684,9.82666,7.8125,0.0,0.0,0.0,-26.652832,73.92151,-18.605347
1768033459985,-0.9013672,-0.1665039,0.26367188,30.700684,9.82666,7.8125,0.0,0.0,0.0,-22.016602,75.16846,-16.726685
1768033460072,-0.9321289,-0.17041016,0.27246094,12.634277,-5.493164,6.652832,0.0,0.0,0.0,-22.016602,75.16846,-16.726685
1768033460084,-0.9321289,-0.17041016,0.27246094,12.634277,-5.493164,6.652832,0.0,0.0,0.0,-18.034058,75.6134,-14.842529
1768033460172,-1.0224609,0.00390625,0.22460938,14.099121,-23.19336,13.061523,0.0,0.0,0.0,-18.034058,75.6134,-14.842529
1768033460184,-1.0224609,0.00390625,0.22460938,14.099121,-23.19336,13.061523,0.0,0.0,0.0,-12.540894,73.33923,-9.717407
1768033460272,-0.8847656,-0.16210938,0.26660156,24.658203,20.874023,-10.986328,0.0,0.0,0.0,-12.540894,73.33923,-9.717407
1768033460284,-0.8847656,-0.16210938,0.26660156,24.658203,20.874023,-10.986328,0.0,0.0,0.0,-12.678223,74.278564,-12.095947
1768033460372,-0.94873047,-0.033691406,0.2836914,-0.18310547,-23.254395,-1.159668,0.0,0.0,0.0,-12.678223,74.278564,-12.095947
1768033460383,-0.94873047,-0.033691406,0.2836914,-0.18310547,-23.254395,-1.159668,0.0,0.0,0.0,-13.705444,74.14673,-14.397583
1768033460471,-1.0039062,-0.08544922,0.203125,14.160156,-2.8076172,-3.540039,0.0,0.0,0.0,-13.705444,74.14673,-14.397583
1768033460483,-1.0039062,-0.08544922,0.203125,14.160156,-2.8076172,-3.540039,0.0,0.0,0.0,-11.425781,72.04834,-12.88147
1768033460571,-0.96435547,-0.08544922,0.29541016,11.474609,11.474609,-7.385254,0.0,0.0,0.0,-11.425781,72.04834,-12.88147
1768033460583,-0.96435547,-0.08544922,0.29541016,11.474609,11.474609,-7.385254,0.0,0.0,0.0,-13.29895,73.152466,-15.908203
1768033460671,-1.0097656,-0.087402344,0.23339844,5.79834,2.5024414,-3.7231445,0.0,0.0,0.0,-13.29895,73.152466,-15.908203
1768033460682,-1.0097656,-0.087402344,0.23339844,5.79834,2.5024414,-3.7231445,0.0,0.0,0.0,-14.320679,73.00415,-17.297974
1768033460771,-1.0327148,-0.04638672,0.30371094,4.699707,11.352539,-4.638672,0.0,0.0,0.0,-14.320679,73.00415,-17.297974
1768033460783,-1.0327148,-0.04638672,0.30371094,4.699707,11.352539,-4.638672,0.0,0.0,0.0,-17.611084,74.503784,-21.291504
1768033460870,-0.90234375,-0.07519531,0.2446289,18.920898,13.61084,-10.803223,0.0,0.0,0.0,-17.611084,74.503784,-21.291504
1768033460882,-0.90234375,-0.07519531,0.2446289,18.920898,13.61084,-10.803223,0.0,0.0,0.0,-18.105469,74.46533,-22.824097
1768033460970,-0.90234375,-0.07763672,0.32177734,29.47998,18.798828,-12.817383,0.0,0.0,0.0,-18.105469,74.46533,-22.824097
1768033460982,-0.90234375,-0.07763672,0.32177734,29.47998,18.798828,-12.817383,0.0,0.0,0.0,-23.483276,76.014404,-31.085815
1768033461070,-1.03125,-0.03955078,0.24365234,-4.760742,-51.086426,2.8076172,0.0,0.0,0.0,-23.483276,76.014404,-31.085815
1768033461081,-1.03125,-0.03955078,0.24365234,-4.760742,-51.086426,2.8076172,0.0,0.0,0.0,-20.132446,73.94348,-28.22937
1768033461169,-0.93066406,-0.05810547,0.20166016,19.89746,15.014648,-4.3945312,0.0,0.0,0.0,-20.132446,73.94348,-28.22937
1768033461181,-0.93066406,-0.05810547,0.20166016,19.89746,15.014648,-4.3945312,0.0,0.0,0.0,-16.473999,72.44385,-26.152954
1768033461269,-0.95751953,-0.09863281,0.27490234,6.4086914,-0.30517578,-1.7700195,0.0,0.0,0.0,-16.473999,72.44385,-26.152954
1768033461280,-0.95751953,-0.09863281,0.27490234,6.4086914,-0.30517578,-1.7700195,0.0,0.0,0.0,-16.929932,73.56445,-28.185425
1768033461369,-0.9946289,-0.05419922,0.22167969,-5.3710938,-13.000488,6.8359375,0.0,0.0,0.0,-16.929932,73.56445,-28.185425
1768033461380,-0.9946289,-0.05419922,0.22167969,-5.3710938,-13.000488,6.8359375,0.0,0.0,0.0,-14.91394,72.213135,-25.197144
1768033461468,-1.0141602,-0.080078125,0.26904297,-10.070801,15.197754,8.850098,0.0,0.0,0.0,-14.91394,72.213135,-25.197144
1768033461481,-1.0141602,-0.080078125,0.26904297,-10.070801,15.197754,8.850098,0.0,0.0,0.0,-14.408569,73.50952,-23.955688
1768033461568,-1.0126953,0.0029296875,0.27783203,-8.361816,2.1362305,14.526367,0.0,0.0,0.0,-14.408569,73.50952,-23.955688
1768033461580,-1.0126953,0.0029296875,0.27783203,-8.361816,2.1362305,14.526367,0.0,0.0,0.0,-12.34314,74.6521,-20.753174
1768033461668,-1.0239258,-0.0234375,0.23632812,-5.6152344,1.7700195,13.85498,0.0,0.0,0.0,-12.34314,74.6521,-20.753174
1768033461680,-1.0239258,-0.0234375,0.23632812,-5.6152344,1.7700195,13.85498,0.0,0.0,0.0,-8.02002,74.9707,-15.611572
1768033461769,-0.8330078,-0.06689453,0.2602539,6.958008,-0.12207031,7.080078,0.0,0.0,0.0,-8.02002,74.9707,-15.611572
1768033461779,-0.8330078,-0.06689453,0.2602539,6.958008,-0.12207031,7.080078,0.0,0.0,0.0,-3.9660645,75.36072,-11.211548
1768033461868,-1.0039062,-0.024414062,0.31640625,2.0751953,-13.671875,-1.4648438,0.0,0.0,0.0,-3.9660645,75.36072,-11.211548
1768033461879,-1.0039062,-0.024414062,0.31640625,2.0751953,-13.671875,-1.4648438,0.0,0.0,0.0,-3.5705566,74.83887,-11.255493
1768033461967,-0.9243164,0.015625,0.24658203,12.451172,-14.343262,-1.0986328,0.0,0.0,0.0,-3.5705566,74.83887,-11.255493
1768033461978,-0.9243164,0.015625,0.24658203,12.451172,-14.343262,-1.0986328,0.0,0.0,0.0,-0.6427002,71.900024,-7.9211426
1768033462067,-0.9536133,-0.061035156,0.3017578,11.535645,8.422852,-6.591797,0.0,0.0,0.0,-0.6427002,71.900024,-7.9211426
1768033462078,-0.9536133,-0.061035156,0.3017578,11.535645,8.422852,-6.591797,0.0,0.0,0.0,-1.9555664,72.60315,-11.14563
1768033462166,-0.94970703,-0.0034179688,0.29052734,-1.2207031,-15.625,-3.2348633,0.0,0.0,0.0,-1.9555664,72.60315,-11.14563
1768033462178,-0.94970703,-0.0034179688,0.29052734,-1.2207031,-15.625,-3.2348633,0.0,0.0,0.0,-2.9882812,71.954956,-12.3046875
1768033462266,-0.9707031,-0.041015625,0.27978516,1.2817383,14.6484375,-3.0517578,0.0,0.0,0.0,-2.9882812,71.954956,-12.3046875
1768033462278,-0.9707031,-0.041015625,0.27978516,1.2817383,14.6484375,-3.0517578,0.0,0.0,0.0,-3.5266113,71.83411,-12.98584
1768033462366,-0.99609375,-0.040039062,0.2890625,-2.2583008,7.446289,-3.7231445,0.0,0.0,0.0,-3.5266113,71.83411,-12.98584
1768033462378,-0.99609375,-0.040039062,0.2890625,-2.2583008,7.446289,-3.7231445,0.0,0.0,0.0,-5.29541,73.19641,-14.985352
1768033462466,-0.96972656,-0.07470703,0.2631836,-11.413574,7.385254,-3.7841797,0.0,0.0,0.0,-5.29541,73.19641,-14.985352
1768033462477,-0.96972656,-0.07470703,0.2631836,-11.413574,7.385254,-3.7841797,0.0,0.0,0.0,-7.426758,73.78418,-16.523438
1768033462565,-1.0273438,-0.0234375,0.22314453,-6.8359375,3.0517578,-1.6479492,0.0,0.0,0.0,-7.426758,73.78418,-16.523438
1768033462577,-1.0273438,-0.0234375,0.22314453,-6.8359375,3.0517578,-1.6479492,0.0,0.0,0.0,-9.442749,74.11377,-17.682495
1768033462665,-0.9091797,-0.029785156,0.30664062,9.521484,9.643555,-11.59668,0.0,0.0,0.0,-9.442749,74.11377,-17.682495
1768033462677,-0.9091797,-0.029785156,0.30664062,9.521484,9.643555,-11.59668,0.0,0.0,0.0,-12.392578,75.03662,-20.819092
1768033462765,-0.90283203,-0.044921875,0.3359375,10.7421875,-1.0986328,-9.70459,0.0,0.0,0.0,-12.392578,75.03662,-20.819092
1768033462776,-0.90283203,-0.044921875,0.3359375,10.7421875,-1.0986328,-9.70459,0.0,0.0,0.0,-15.012817,74.871826,-24.521484
1768033462864,-0.9580078,-0.029296875,0.24121094,-4.638672,-33.203125,1.8310547,0.0,0.0,0.0,-15.012817,74.871826,-24.521484
1768033462876,-0.9580078,-0.029296875,0.24121094,-4.638672,-33.203125,1.8310547,0.0,0.0,0.0,-13.557129,72.839355,-23.043823
1768033462964,-0.9223633,-0.061035156,0.27148438,18.127441,11.71875,-8.972168,0.0,0.0,0.0,-13.557129,72.839355,-23.043823
1768033462976,-0.9223633,-0.061035156,0.27148438,18.127441,11.71875,-8.972168,0.0,0.0,0.0,-13.134155,72.06482,-23.917236
1768033463064,-0.9667969,-0.04248047,0.2866211,-0.48828125,-9.399414,0.48828125,0.0,0.0,0.0,-13.134155,72.06482,-23.917236
1768033463076,-0.9667969,-0.04248047,0.2866211,-0.48828125,-9.399414,0.48828125,0.0,0.0,0.0,-13.551636,72.4823,-25.197144
1768033463163,-0.9770508,-0.09033203,0.21875,3.0517578,10.986328,-0.8544922,0.0,0.0,0.0,-13.551636,72.4823,-25.197144
1768033463175,-0.9770508,-0.09033203,0.21875,3.0517578,10.986328,-0.8544922,0.0,0.0,0.0,-12.617798,71.954956,-24.13147
1768033463263,-0.9995117,-0.041503906,0.25976562,-8.850098,11.84082,3.7231445,0.0,0.0,0.0,-12.617798,71.954956,-24.13147
1768033463275,-0.9995117,-0.041503906,0.25976562,-8.850098,11.84082,3.7231445,0.0,0.0,0.0,-13.903198,73.56445,-25.22461
1768033463363,-0.98779297,-0.008300781,0.28125,-0.6713867,6.652832,7.2021484,0.0,0.0,0.0,-13.903198,73.56445,-25.22461
1768033463374,-0.98779297,-0.008300781,0.28125,-0.6713867,6.652832,7.2021484,0.0,0.0,0.0,-13.425293,74.608154,-23.983154
1768033463463,-1.003418,-0.034179688,0.26708984,-1.3427734,-3.9672852,8.728027,0.0,0.0,0.0,-13.425293,74.608154,-23.983154
1768033463474,-1.003418,-0.034179688,0.26708984,-1.3427734,-3.9672852,8.728027,0.0,0.0,0.0,-10.887451,75.0531,-21.28601
1768033463562,-0.8847656,-0.049804688,0.26708984,13.61084,-4.760742,4.638672,0.0,0.0,0.0,-10.887451,75.0531,-21.28601
1768033463574,-0.8847656,-0.049804688,0.26708984,13.61084,-4.760742,4.638672,0.0,0.0,0.0,-6.9104004,74.783936,-17.281494
1768033463662,-0.9609375,-0.103515625,0.32373047,5.7373047,-2.8686523,-2.6855469,0.0,0.0,0.0,-6.9104004,74.783936,-17.281494
1768033463673,-0.9609375,-0.103515625,0.32373047,5.7373047,-2.8686523,-2.6855469,0.0,0.0,0.0,-5.597534,74.19617,-17.023315
1768033463762,-0.9394531,0.024414062,0.3022461,-0.18310547,-32.77588,7.2631836,0.0,0.0,0.0,-5.597534,74.19617,-17.023315
1768033463773,-0.9394531,0.024414062,0.3022461,-0.18310547,-32.77588,7.2631836,0.0,0.0,0.0,-3.9440918,72.25708,-15.292969
1768033463861,-0.9428711,-0.11230469,0.27197266,15.808105,8.666992,-10.131836,0.0,0.0,0.0,-3.9440918,72.25708,-15.292969
1768033463873,-0.9428711,-0.11230469,0.27197266,15.808105,8.666992,-10.131836,0.0,0.0,0.0,-3.619995,71.13098,-16.463013
1768033463961,-0.96240234,-0.008300781,0.32421875,0.91552734,-2.6245117,0.61035156,0.0,0.0,0.0,-3.619995,71.13098,-16.463013
1768033463973,-0.96240234,-0.008300781,0.32421875,0.91552734,-2.6245117,0.61035156,0.0,0.0,0.0,-4.6966553,71.66931,-18.061523
1768033464061,-0.96484375,-0.049316406,0.25878906,2.6245117,1.8920898,-2.1362305,0.0,0.0,0.0,-4.6966553,71.66931,-18.061523
1768033464075,-0.96484375,-0.049316406,0.25878906,2.6245117,1.8920898,-2.1362305,0.0,0.0,0.0,-4.6966553,71.240845,-18.38562
1768033464161,-0.9658203,-0.0390625,0.3017578,2.380371,16.052246,-5.6762695,0.0,0.0,0.0,-4.6966553,71.240845,-18.38562
1768033464172,-0.9658203,-0.0390625,0.3017578,2.380371,16.052246,-5.6762695,0.0,0.0,0.0,-6.234741,72.663574,-20.13794
1768033464260,-1.012207,-0.1015625,0.23144531,-1.4648438,10.070801,-5.554199,0.0,0.0,0.0,-6.234741,72.663574,-20.13794
1768033464272,-1.012207,-0.1015625,0.23144531,-1.4648438,10.070801,-5.554199,0.0,0.0,0.0,-8.382568,73.47107,-22.280273
1768033464360,-1.0307617,-0.040039062,0.25,5.79834,14.6484375,-10.681152,0.0,0.0,0.0,-8.382568,73.47107,-22.280273
1768033464372,-1.0307617,-0.040039062,0.25,5.79834,14.6484375,-10.681152,0.0,0.0,0.0,-12.617798,74.558716,-26.603394
1768033464460,-0.94921875,-0.099609375,0.2890625,12.084961,6.4697266,-14.770508,0.0,0.0,0.0,-12.617798,74.558716,-26.603394
1768033464471,-0.94921875,-0.099609375,0.2890625,12.084961,6.4697266,-14.770508,0.0,0.0,0.0,-16.836548,75.16846,-31.953735
1768033464559,-0.8051758,-0.030761719,0.28027344,5.554199,-4.4555664,-11.962891,0.0,0.0,0.0,-16.836548,75.16846,-31.953735
1768033464571,-0.8051758,-0.030761719,0.28027344,5.554199,-4.4555664,-11.962891,0.0,0.0,0.0,-21.291504,74.72351,-37.51831
1768033464659,-1.078125,-0.087890625,0.27441406,-9.643555,-27.648926,5.004883,0.0,0.0,0.0,-21.291504,74.72351,-37.51831
1768033464671,-1.078125,-0.087890625,0.27441406,-9.643555,-27.648926,5.004883,0.0,0.0,0.0,-20.280762,73.80615,-36.117554
1768033464759,-0.88720703,0.029785156,0.22949219,12.512207,6.5307617,-9.338379,0.0,0.0,0.0,-20.280762,73.80615,-36.117554
1768033464770,-0.88720703,0.029785156,0.22949219,12.512207,6.5307617,-9.338379,0.0,0.0,0.0,-16.831055,70.99365,-32.15149
1768033464858,-0.9951172,-0.12597656,0.29052734,7.751465,2.1972656,-3.4179688,0.0,0.0,0.0,-16.831055,70.99365,-32.15149
1768033464870,-0.9951172,-0.12597656,0.29052734,7.751465,2.1972656,-3.4179688,0.0,0.0,0.0,-18.374634,72.25708,-35.6781
1768033464958,-0.9814453,-0.052734375,0.21826172,-6.5307617,-8.7890625,9.216309,0.0,0.0,0.0,-18.374634,72.25708,-35.6781
1768033464970,-0.9814453,-0.052734375,0.21826172,-6.5307617,-8.7890625,9.216309,0.0,0.0,0.0,-16.594849,71.13098,-32.140503
1768033465058,-0.99609375,-0.075683594,0.28125,5.554199,22.827148,1.4038086,0.0,0.0,0.0,-16.594849,71.13098,-32.140503
1768033465069,-0.99609375,-0.075683594,0.28125,5.554199,22.827148,1.4038086,0.0,0.0,0.0,-17.32544,73.02612,-33.046875
1768033465158,-1.0185547,-0.10498047,0.23095703,-5.6152344,3.90625,9.338379,0.0,0.0,0.0,-17.32544,73.02612,-33.046875
1768033465169,-1.0185547,-0.10498047,0.23095703,-5.6152344,3.90625,9.338379,0.0,0.0,0.0,-16.270752,74.366455,-31.89331
1768033465257,-0.9667969,-0.059570312,0.28857422,6.8359375,11.657715,8.728027,0.0,0.0,0.0,-16.270752,74.366455,-31.89331
1768033465269,-0.9667969,-0.059570312,0.28857422,6.8359375,11.657715,8.728027,0.0,0.0,0.0,-14.249268,75.8551,-29.77295
1768033465357,-0.79248047,-0.12109375,0.20458984,-6.164551,-8.605957,10.131836,0.0,0.0,0.0,-14.249268,75.8551,-29.77295
1768033465368,-0.79248047,-0.12109375,0.20458984,-6.164551,-8.605957,10.131836,0.0,0.0,0.0,-10.189819,75.67932,-25.466309
1768033465457,-1.0361328,-0.0234375,0.3154297,0.18310547,-6.8359375,6.286621,0.0,0.0,0.0,-10.189819,75.67932,-25.466309
1768033465468,-1.0361328,-0.0234375,0.3154297,0.18310547,-6.8359375,6.286621,0.0,0.0,0.0,-7.8112793,75.39368,-21.934204
1768033465556,-0.8979492,-0.052246094,0.24609375,0.6713867,-27.404785,6.652832,0.0,0.0,0.0,-7.8112793,75.39368,-21.934204
1768033465568,-0.8979492,-0.052246094,0.24609375,0.6713867,-27.404785,6.652832,0.0,0.0,0.0,-4.42749,73.41614,-18.253784
1768033465656,-1.0146484,-0.02734375,0.2553711,-13.85498,3.540039,7.080078,0.0,0.0,0.0,-4.42749,73.41614,-18.253784
1768033465668,-1.0146484,-0.02734375,0.2553711,-13.85498,3.540039,7.080078,0.0,0.0,0.0,-3.1640625,72.46033,-16.001587
1768033465756,-0.9526367,0.022460938,0.32421875,7.507324,3.6010742,-3.2958984,0.0,0.0,0.0,-3.1640625,72.46033,-16.001587
1768033465767,-0.9526367,0.022460938,0.32421875,7.507324,3.6010742,-3.2958984,0.0,0.0,0.0,-3.5375977,73.49304,-16.572876
1768033465855,-1.0019531,-0.059570312,0.22998047,-8.911133,-7.6293945,6.225586,0.0,0.0,0.0,-3.5375977,73.49304,-16.572876
1768033465867,-1.0019531,-0.059570312,0.22998047,-8.911133,-7.6293945,6.225586,0.0,0.0,0.0,-2.6312256,72.718506,-15.281982
1768033465955,-1.0439453,0.032226562,0.24169922,4.1503906,28.198242,-8.850098,0.0,0.0,0.0,-2.6312256,72.718506,-15.281982
1768033465967,-1.0439453,0.032226562,0.24169922,4.1503906,28.198242,-8.850098,0.0,0.0,0.0,-4.152832,73.25134,-16.479492
1768033466055,-1.0283203,-0.13916016,0.29736328,13.183594,12.634277,-16.235352,0.0,0.0,0.0,-4.152832,73.25134,-16.479492
1768033466066,-1.0283203,-0.13916016,0.29736328,13.183594,12.634277,-16.235352,0.0,0.0,0.0,-10.178833,76.45935,-24.158936
1768033466155,-1.0454102,-0.05517578,0.15771484,-5.126953,-9.033203,0.7324219,0.0,0.0,0.0,-10.178833,76.45935,-24.158936
1768033466166,-1.0454102,-0.05517578,0.15771484,-5.126953,-9.033203,0.7324219,0.0,0.0,0.0,-11.640015,75.01465,-24.257812
1768033466254,-0.85498047,-0.0048828125,0.35742188,35.095215,41.809082,-23.132324,0.0,0.0,0.0,-11.640015,75.01465,-24.257812
1768033466266,-0.85498047,-0.0048828125,0.35742188,35.095215,41.809082,-23.132324,0.0,0.0,0.0,-19.489746,77.51953,-33.546753
1768033466354,-0.8964844,-0.059570312,0.27246094,1.7089844,-26.611328,2.6855469,0.0,0.0,0.0,-19.489746,77.51953,-33.546753
1768033466366,-0.8964844,-0.059570312,0.27246094,1.7089844,-26.611328,2.6855469,0.0,0.0,0.0,-24.038086,77.65137,-40.512085
1768033466454,-0.9316406,-0.0029296875,0.18603516,8.728027,-18.859863,-0.91552734,0.0,0.0,0.0,-24.038086,77.65137,-40.512085
1768033466465,-0.9316406,-0.0029296875,0.18603516,8.728027,-18.859863,-0.91552734,0.0,0.0,0.0,-15.8203125,72.8064,-30.789185
1768033466564,-0.96484375,-0.063964844,0.27539062,28.320312,15.197754,-10.375977,0.0,0.0,0.0,-15.8203125,72.8064,-30.789185
1768033466565,-0.96484375,-0.063964844,0.27539062,28.320312,15.197754,-10.375977,0.0,0.0,0.0,-20.192871,74.45984,-37.886353
1768033466653,-0.9980469,-0.11035156,0.14892578,-12.878418,-21.728516,4.699707,0.0,0.0,0.0,-20.192871,74.45984,-37.886353
1768033466664,-0.9980469,-0.11035156,0.14892578,-12.878418,-21.728516,4.699707,0.0,0.0,0.0,-18.083496,73.064575,-35.343018
1768033466753,-0.9194336,-0.08154297,0.25048828,12.451172,25.45166,-4.3945312,0.0,0.0,0.0,-18.083496,73.064575,-35.343018
1768033466764,-0.9194336,-0.08154297,0.25048828,12.451172,25.45166,-4.3945312,0.0,0.0,0.0,-19.940186,74.26758,-37.078857
1768033466852,-1.0141602,-0.12695312,0.16210938,-9.58252,-10.7421875,9.033203,0.0,0.0,0.0,-19.940186,74.26758,-37.078857
1768033466864,-1.0141602,-0.12695312,0.16210938,-9.58252,-10.7421875,9.033203,0.0,0.0,0.0,-19.385376,74.54773,-36.11206
1768033466952,-0.99072266,0.025878906,0.28271484,1.5869141,21.66748,10.681152,0.0,0.0,0.0,-19.385376,74.54773,-36.11206
1768033466964,-0.99072266,0.025878906,0.28271484,1.5869141,21.66748,10.681152,0.0,0.0,0.0,-18.621826,76.398926,-34.628906
1768033467052,-0.99609375,-0.078125,0.23144531,-3.8452148,-9.399414,9.216309,0.0,0.0,0.0,-18.621826,76.398926,-34.628906
1768033467064,-0.99609375,-0.078125,0.23144531,-3.8452148,-9.399414,9.216309,0.0,0.0,0.0,-15.770874,77.10205,-31.755981
1768033467152,-0.8071289,-0.08886719,0.25097656,11.047363,4.0893555,2.5634766,0.0,0.0,0.0,-15.770874,77.10205,-31.755981
1768033467163,-0.8071289,-0.08886719,0.25097656,11.047363,4.0893555,2.5634766,0.0,0.0,0.0,-12.958374,77.11853,-28.921509
1768033467251,-1.0410156,-0.056640625,0.30273438,-9.399414,-22.216797,6.8359375,0.0,0.0,0.0,-12.958374,77.11853,-28.921509
1768033467263,-1.0410156,-0.056640625,0.30273438,-9.399414,-22.216797,6.8359375,0.0,0.0,0.0,-12.041016,76.91528,-28.31726
1768033467351,-0.9067383,-0.020019531,0.17822266,6.8359375,-17.333984,1.5869141,0.0,0.0,0.0,-12.041016,76.91528,-28.31726
1768033467363,-0.9067383,-0.020019531,0.17822266,6.8359375,-17.333984,1.5869141,0.0,0.0,0.0,-6.2731934,73.09204,-21.258545
1768033467451,-0.9902344,-0.05078125,0.31347656,7.1411133,8.361816,-1.5869141,0.0,0.0,0.0,-6.2731934,73.09204,-21.258545
1768033467462,-0.9902344,-0.05078125,0.31347656,7.1411133,8.361816,-1.5869141,0.0,0.0,0.0,-6.663208,73.85559,-22.609863
1768033467550,-0.96777344,-0.034179688,0.25341797,4.1503906,-11.474609,0.8544922,0.0,0.0,0.0,-6.663208,73.85559,-22.609863
1768033467562,-0.96777344,-0.034179688,0.25341797,4.1503906,-11.474609,0.8544922,0.0,0.0,0.0,-5.8721924,73.33923,-21.934204
1768033467650,-0.9819336,-0.055664062,0.2524414,5.432129,19.958496,-3.9672852,0.0,0.0,0.0,-5.8721924,73.33923,-21.934204
1768033467662,-0.9819336,-0.055664062,0.2524414,5.432129,19.958496,-3.9672852,0.0,0.0,0.0,-6.1468506,73.723755,-22.972412
1768033467750,-1.0214844,-0.05419922,0.24121094,-1.159668,1.5258789,-4.0283203,0.0,0.0,0.0,-6.1468506,73.723755,-22.972412
1768033467761,-1.0214844,-0.05419922,0.24121094,-1.159668,1.5258789,-4.0283203,0.0,0.0,0.0,-8.360596,75.025635,-25.647583
1768033467849,-0.9614258,-0.071777344,0.24951172,-0.7324219,0.12207031,-9.521484,0.0,0.0,0.0,-8.360596,75.025635,-25.647583
1768033467861,-0.9614258,-0.071777344,0.24951172,-0.7324219,0.12207031,-9.521484,0.0,0.0,0.0,-11.453247,75.338745,-28.734741
1768033467949,-0.99853516,-0.092285156,0.18945312,1.4648438,10.131836,-10.7421875,0.0,0.0,0.0,-11.453247,75.338745,-28.734741
1768033467961,-0.99853516,-0.092285156,0.18945312,1.4648438,10.131836,-10.7421875,0.0,0.0,0.0,-14.776611,75.201416,-32.162476
1768033468049,-0.9682617,-0.060546875,0.28710938,6.1035156,17.333984,-14.465332,0.0,0.0,0.0,-14.776611,75.201416,-32.162476
1768033468060,-0.9682617,-0.060546875,0.28710938,6.1035156,17.333984,-14.465332,0.0,0.0,0.0,-21.66504,76.38794,-39.46289
1768033468149,-0.8510742,-0.0043945312,0.22314453,10.314941,-11.901855,-8.911133,0.0,0.0,0.0,-21.66504,76.38794,-39.46289
1768033468160,-0.8510742,-0.0043945312,0.22314453,10.314941,-11.901855,-8.911133,0.0,0.0,0.0,-23.790894,75.72327,-42.20398
1768033468248,-1.0180664,-0.07373047,0.265625,14.587402,2.2583008,-8.056641,0.0,0.0,0.0,-23.790894,75.72327,-42.20398
1768033468260,-1.0180664,-0.07373047,0.265625,14.587402,2.2583008,-8.056641,0.0,0.0,0.0,-24.422607,75.443115,-44.159546
1768033468348,-0.92041016,-0.10449219,0.16748047,7.1411133,-10.009766,-5.493164,0.0,0.0,0.0,-24.422607,75.443115,-44.159546
1768033468359,-0.92041016,-0.10449219,0.16748047,7.1411133,-10.009766,-5.493164,0.0,0.0,0.0,-22.576904,73.98743,-42.648926
1768033468448,-0.9790039,-0.11816406,0.24853516,3.1738281,2.2583008,-5.126953,0.0,0.0,0.0,-22.576904,73.98743,-42.648926
1768033468459,-0.9790039,-0.11816406,0.24853516,3.1738281,2.2583008,-5.126953,0.0,0.0,0.0,-24.697266,74.16321,-45.41748
1768033468547,-0.9926758,-0.12451172,0.2241211,-7.080078,-4.8217773,3.7841797,0.0,0.0,0.0,-24.697266,74.16321,-45.41748
1768033468559,-0.9926758,-0.12451172,0.2241211,-7.080078,-4.8217773,3.7841797,0.0,0.0,0.0,-24.494019,73.93799,-44.560547
1768033468647,-1.0317383,-0.11230469,0.18896484,-11.352539,5.6762695,5.92041,0.0,0.0,0.0,-24.494019,73.93799,-44.560547
1768033468659,-1.0317383,-0.11230469,0.18896484,-11.352539,5.6762695,5.92041,0.0,0.0,0.0,-24.109497,74.46533,-42.962036
1768033468747,-0.96777344,-0.037109375,0.22167969,-10.070801,9.94873,8.666992,0.0,0.0,0.0,-24.109497,74.46533,-42.962036
1768033468758,-0.96777344,-0.037109375,0.22167969,-10.070801,9.94873,8.666992,0.0,0.0,0.0,-24.46106,75.91553,-41.99524
1768033468846,-0.9926758,-0.07519531,0.20263672,-4.760742,-1.5869141,7.9345703,0.0,0.0,0.0,-24.46106,75.91553,-41.99524
1768033468858,-0.9926758,-0.07519531,0.20263672,-4.760742,-1.5869141,7.9345703,0.0,0.0,0.0,-21.637573,76.278076,-38.4906
1768033468946,-0.94628906,-0.06542969,0.2758789,-8.178711,11.413574,7.8125,0.0,0.0,0.0,-21.637573,76.278076,-38.4906
1768033468958,-0.94628906,-0.06542969,0.2758789,-8.178711,11.413574,7.8125,0.0,0.0,0.0,-20.302734,77.36023,-36.12854
1768033469046,-0.8564453,-0.12109375,0.25,-10.131836,-11.535645,13.244629,0.0,0.0,0.0,-20.302734,77.36023,-36.12854
1768033469058,-0.8564453,-0.12109375,0.25,-10.131836,-11.535645,13.244629,0.0,0.0,0.0,-16.19934,77.387695,-31.26709
1768033469146,-1.0039062,0.0234375,0.26220703,-2.8686523,-28.686523,13.000488,0.0,0.0,0.0,-16.19934,77.387695,-31.26709
1768033469157,-1.0039062,0.0234375,0.26220703,-2.8686523,-28.686523,13.000488,0.0,0.0,0.0,-10.942383,75.426636,-24.75769
1768033469245,-0.94628906,-0.078125,0.25439453,7.1411133,-6.4697266,2.746582,0.0,0.0,0.0,-10.942383,75.426636,-24.75769
1768033469257,-0.94628906,-0.078125,0.25439453,7.1411133,-6.4697266,2.746582,0.0,0.0,0.0,-6.295166,73.6853,-20.192871
1768033469345,-0.9946289,-0.03466797,0.25927734,-2.9296875,-6.5307617,5.126953,0.0,0.0,0.0,-6.295166,73.6853,-20.192871
1768033469356,-0.9946289,-0.03466797,0.25927734,-2.9296875,-6.5307617,5.126953,0.0,0.0,0.0,-5.559082,73.45459,-19.863281
1768033469445,-0.9746094,-0.07080078,0.19824219,0.12207031,6.225586,1.4648438,0.0,0.0,0.0,-5.559082,73.45459,-19.863281
1768033469456,-0.9746094,-0.07080078,0.19824219,0.12207031,6.225586,1.4648438,0.0,0.0,0.0,-4.8339844,73.47107,-19.209595
1768033469544,-0.9951172,-0.060058594,0.23730469,-6.8359375,13.305664,-1.0986328,0.0,0.0,0.0,-4.8339844,73.47107,-19.209595
1768033469556,-0.9951172,-0.060058594,0.23730469,-6.8359375,13.305664,-1.0986328,0.0,0.0,0.0,-5.888672,74.86084,-19.852295
1768033469644,-1.0087891,-0.08496094,0.22363281,-10.437012,11.474609,-2.6245117,0.0,0.0,0.0,-5.888672,74.86084,-19.852295
1768033469656,-1.0087891,-0.08496094,0.22363281,-10.437012,11.474609,-2.6245117,0.0,0.0,0.0,-8.613281,76.07483,-21.906738
1768033469744,-1.0043945,-0.06298828,0.18652344,-10.314941,6.225586,-3.479004,0.0,0.0,0.0,-8.613281,76.07483,-21.906738
1768033469755,-1.0043945,-0.06298828,0.18652344,-10.314941,6.225586,-3.479004,0.0,0.0,0.0,-11.651001,76.673584,-23.845825
1768033469844,-0.953125,-0.033203125,0.2626953,-4.760742,11.71875,-6.713867,0.0,0.0,0.0,-11.651001,76.673584,-23.845825
1768033469855,-0.953125,-0.033203125,0.2626953,-4.760742,11.71875,-6.713867,0.0,0.0,0.0,-16.116943,77.53052,-27.608643
1768033469943,-0.84716797,0.0014648438,0.26123047,-0.91552734,-9.887695,-7.5683594,0.0,0.0,0.0,-16.116943,77.53052,-27.608643
1768033469955,-0.84716797,0.0014648438,0.26123047,-0.91552734,-9.887695,-7.5683594,0.0,0.0,0.0,-18.967896,77.091064,-30.59143
1768033470043,-1.0224609,-0.047851562,0.25830078,-0.6713867,-18.432617,-1.8310547,0.0,0.0,0.0,-18.967896,77.091064,-30.59143
1768033470054,-1.0224609,-0.047851562,0.25830078,-0.6713867,-18.432617,-1.8310547,0.0,0.0,0.0,-18.220825,75.88257,-29.822388
1768033470143,-0.9248047,-0.040527344,0.19140625,7.8125,2.746582,-6.958008,0.0,0.0,0.0,-18.220825,75.88257,-29.822388
1768033470154,-0.9248047,-0.040527344,0.19140625,7.8125,2.746582,-6.958008,0.0,0.0,0.0,-16.243286,74.11926,-27.850342
1768033470242,-0.9946289,-0.056640625,0.25976562,-3.8452148,-5.3710938,1.2207031,0.0,0.0,0.0,-16.243286,74.11926,-27.850342
1768033470254,-0.9946289,-0.056640625,0.25976562,-3.8452148,-5.3710938,1.2207031,0.0,0.0,0.0,-17.600098,74.39392,-29.811401
1768033470342,-1.0009766,-0.06591797,0.19677734,-2.5024414,8.361816,1.7700195,0.0,0.0,0.0,-17.600098,74.39392,-29.811401
1768033470354,-1.0009766,-0.06591797,0.19677734,-2.5024414,8.361816,1.7700195,0.0,0.0,0.0,-16.44104,74.333496,-28.223877
1768033470442,-0.99365234,-0.104003906,0.17138672,-8.117676,10.620117,3.1738281,0.0,0.0,0.0,-16.44104,74.333496,-28.223877
1768033470454,-0.99365234,-0.104003906,0.17138672,-8.117676,10.620117,3.1738281,0.0,0.0,0.0,-17.402344,75.52551,-28.806152
1768033470542,-1.0263672,0.021972656,0.22265625,-4.8217773,13.73291,8.7890625,0.0,0.0,0.0,-17.402344,75.52551,-28.806152
1768033470554,-1.0263672,0.021972656,0.22265625,-4.8217773,13.73291,8.7890625,0.0,0.0,0.0,-18.484497,77.266846,-28.965454
1768033470641,-1.0556641,-0.044921875,0.19140625,4.211426,-2.6855469,4.8217773,0.0,0.0,0.0,-18.484497,77.266846,-28.965454
1768033470653,-1.0556641,-0.044921875,0.19140625,4.211426,-2.6855469,4.8217773,0.0,0.0,0.0,-15.501709,77.96448,-25.900269
1768033470741,-0.8310547,-0.07373047,0.24169922,9.033203,2.6855469,1.8310547,0.0,0.0,0.0,-15.501709,77.96448,-25.900269
1768033470752,-0.8310547,-0.07373047,0.24169922,9.033203,2.6855469,1.8310547,0.0,0.0,0.0,-13.068237,78.25012,-23.878784
1768033470841,-0.9790039,-0.10253906,0.26611328,-0.8544922,-18.981934,1.6479492,0.0,0.0,0.0,-13.068237,78.25012,-23.878784
1768033470852,-0.9790039,-0.10253906,0.26611328,-0.8544922,-18.981934,1.6479492,0.0,0.0,0.0,-11.953125,77.61841,-23.323975
1768033470940,-0.921875,0.022949219,0.2084961,4.211426,-14.6484375,6.3476562,0.0,0.0,0.0,-11.953125,77.61841,-23.323975
1768033470952,-0.921875,0.022949219,0.2084961,4.211426,-14.6484375,6.3476562,0.0,0.0,0.0,-6.723633,74.63013,-17.545166
1768033471040,-0.98583984,-0.07421875,0.28857422,13.427734,-2.6855469,-2.380371,0.0,0.0,0.0,-6.723633,74.63013,-17.545166
1768033471052,-0.98583984,-0.07421875,0.28857422,13.427734,-2.6855469,-2.380371,0.0,0.0,0.0,-5.998535,74.69055,-18.083496
1768033471140,-0.96728516,-0.013183594,0.21533203,11.352539,-5.2490234,-2.8076172,0.0,0.0,0.0,-5.998535,74.69055,-18.083496
1768033471151,-0.96728516,-0.013183594,0.21533203,11.352539,-5.2490234,-2.8076172,0.0,0.0,0.0,-4.817505,73.427124,-17.391357
1768033471239,-0.984375,-0.0703125,0.2524414,3.2958984,15.930176,-3.6621094,0.0,0.0,0.0,-4.817505,73.427124,-17.391357
1768033471251,-0.984375,-0.0703125,0.2524414,3.2958984,15.930176,-3.6621094,0.0,0.0,0.0,-5.855713,74.37744,-19.616089
1768033471339,-0.98046875,-0.045898438,0.16699219,0.18310547,5.126953,-0.24414062,0.0,0.0,0.0,-5.855713,74.37744,-19.616089
1768033471351,-0.98046875,-0.045898438,0.16699219,0.18310547,5.126953,-0.24414062,0.0,0.0,0.0,-7.201538,75.355225,-20.945435
1768033471439,-1.0341797,-0.16503906,0.25195312,-0.12207031,19.592285,-12.268066,0.0,0.0,0.0,-7.201538,75.355225,-20.945435
1768033471450,-1.0341797,-0.16503906,0.25195312,-0.12207031,19.592285,-12.268066,0.0,0.0,0.0,-9.0802,76.937256,-23.076782
1768033471539,-1.0522461,-0.0043945312,0.1538086,1.953125,4.3945312,-6.8359375,0.0,0.0,0.0,-9.0802,76.937256,-23.076782
1768033471550,-1.0522461,-0.0043945312,0.1538086,1.953125,4.3945312,-6.8359375,0.0,0.0,0.0,-14.309692,77.51404,-28.119507
1768033471638,-0.91259766,-0.060546875,0.25048828,11.84082,15.197754,-15.380859,0.0,0.0,0.0,-14.309692,77.51404,-28.119507
1768033471650,-0.91259766,-0.060546875,0.25048828,11.84082,15.197754,-15.380859,0.0,0.0,0.0,-21.066284,78.585205,-35.463867
1768033471738,-0.8833008,-0.017089844,0.25878906,-0.5493164,-11.230469,-6.652832,0.0,0.0,0.0,-21.066284,78.585205,-35.463867
1768033471750,-0.8833008,-0.017089844,0.25878906,-0.5493164,-11.230469,-6.652832,0.0,0.0,0.0,-25.795898,78.06885,-40.962524
1768033471838,-0.97265625,-0.103515625,0.20458984,-5.6762695,-34.118652,-0.5493164,0.0,0.0,0.0,-25.795898,78.06885,-40.962524
1768033471849,-0.97265625,-0.103515625,0.20458984,-5.6762695,-34.118652,-0.5493164,0.0,0.0,0.0,-21.461792,75.893555,-36.05713
1768033471937,-0.96972656,-0.024902344,0.22265625,-2.9907227,1.6479492,-3.2958984,0.0,0.0,0.0,-21.461792,75.893555,-36.05713
1768033471950,-0.96972656,-0.024902344,0.22265625,-2.9907227,1.6479492,-3.2958984,0.0,0.0,0.0,-20.440063,74.366455,-34.623413
1768033472037,-0.9902344,-0.07519531,0.20410156,-1.2817383,-6.713867,2.0751953,0.0,0.0,0.0,-20.440063,74.366455,-34.623413
1768033472049,-0.9902344,-0.07519531,0.20410156,-1.2817383,-6.713867,2.0751953,0.0,0.0,0.0,-19.522705,74.0863,-33.458862
1768033472137,-0.9892578,-0.079589844,0.21533203,-2.5024414,7.751465,0.4272461,0.0,0.0,0.0,-19.522705,74.0863,-33.458862
1768033472148,-0.9892578,-0.079589844,0.21533203,-2.5024414,7.751465,0.4272461,0.0,0.0,0.0,-19.638062,74.399414,-33.392944
1768033472236,-1.0131836,-0.06640625,0.22558594,-2.6245117,6.4697266,1.5869141,0.0,0.0,0.0,-19.638062,74.399414,-33.392944
1768033472248,-1.0131836,-0.06640625,0.22558594,-2.6245117,6.4697266,1.5869141,0.0,0.0,0.0,-20.621338,75.250854,-34.13452
1768033472336,-0.9838867,-9.765625E-4,0.19580078,-1.8310547,1.953125,4.638672,0.0,0.0,0.0,-20.621338,75.250854,-34.13452
1768033472348,-0.9838867,-9.765625E-4,0.19580078,-1.8310547,1.953125,4.638672,0.0,0.0,0.0,-20.445557,76.06384,-33.673096
1768033472436,-0.99609375,-0.110839844,0.21777344,-2.0751953,9.58252,4.9438477,0.0,0.0,0.0,-20.445557,76.06384,-33.673096
1768033472447,-0.99609375,-0.110839844,0.21777344,-2.0751953,9.58252,4.9438477,0.0,0.0,0.0,-18.69873,76.70654,-31.887817
1768033472536,-1.0024414,-0.020996094,0.24902344,-5.493164,2.1362305,10.375977,0.0,0.0,0.0,-18.69873,76.70654,-31.887817
1768033472547,-1.0024414,-0.020996094,0.24902344,-5.493164,2.1362305,10.375977,0.0,0.0,0.0,-16.067505,77.48108,-28.322754
1768033472635,-0.828125,-0.11376953,0.23779297,6.7749023,-6.713867,2.9907227,0.0,0.0,0.0,-16.067505,77.48108,-28.322754
1768033472647,-0.828125,-0.11376953,0.23779297,6.7749023,-6.713867,2.9907227,0.0,0.0,0.0,-12.892456,77.23938,-25.52124
1768033472735,-1.0219727,-0.044433594,0.27148438,-7.751465,-24.658203,7.507324,0.0,0.0,0.0,-12.892456,77.23938,-25.52124
1768033472755,-1.0219727,-0.044433594,0.27148438,-7.751465,-24.658203,7.507324,0.0,0.0,0.0,-10.420532,75.93201,-22.719727
1768033472835,-0.9423828,-0.057617188,0.19970703,5.7373047,1.5258789,1.7700195,0.0,0.0,0.0,-10.420532,75.93201,-22.719727
1768033472846,-0.9423828,-0.057617188,0.19970703,5.7373047,1.5258789,1.7700195,0.0,0.0,0.0,-6.8060303,74.23462,-19.083252
1768033472934,-0.97021484,-0.03955078,0.265625,0.30517578,-1.4648438,1.3427734,0.0,0.0,0.0,-6.8060303,74.23462,-19.083252
1768033472946,-0.97021484,-0.03955078,0.265625,0.30517578,-1.4648438,1.3427734,0.0,0.0,0.0,-6.92688,74.66858,-19.6875
1768033473034,-0.99121094,-0.06347656,0.21240234,1.2207031,9.94873,-0.18310547,0.0,0.0,0.0,-6.92688,74.66858,-19.6875
1768033473046,-0.99121094,-0.06347656,0.21240234,1.2207031,9.94873,-0.18310547,0.0,0.0,0.0,-6.789551,75.02014,-19.786377
1768033473134,-0.9916992,-0.05419922,0.2290039,-6.225586,9.460449,-1.159668,0.0,0.0,0.0,-6.789551,75.02014,-19.786377
1768033473145,-0.9916992,-0.05419922,0.2290039,-6.225586,9.460449,-1.159668,0.0,0.0,0.0,-8.360596,76.27258,-21.154175
1768033473234,-1.0400391,-0.0703125,0.18261719,-4.8828125,15.991211,-4.272461,0.0,0.0,0.0,-8.360596,76.27258,-21.154175
1768033473245,-1.0400391,-0.0703125,0.18261719,-4.8828125,15.991211,-4.272461,0.0,0.0,0.0,-10.739136,77.074585,-23.087769
1768033473333,-0.97314453,-0.078125,0.19384766,-4.4555664,1.159668,-7.2021484,0.0,0.0,0.0,-10.739136,77.074585,-23.087769
1768033473345,-0.97314453,-0.078125,0.19384766,-4.4555664,1.159668,-7.2021484,0.0,0.0,0.0,-15.314941,77.71179,-27.174683
1768033473433,-0.9794922,-0.063964844,0.20263672,-3.6010742,14.465332,-8.422852,0.0,0.0,0.0,-15.314941,77.71179,-27.174683
1768033473445,-0.9794922,-0.063964844,0.20263672,-3.6010742,14.465332,-8.422852,0.0,0.0,0.0,-20.187378,78.19519,-31.635132
1768033473533,-0.89404297,-0.005859375,0.24951172,4.638672,-1.7700195,-9.70459,0.0,0.0,0.0,-20.187378,78.19519,-31.635132
1768033473544,-0.89404297,-0.005859375,0.24951172,4.638672,-1.7700195,-9.70459,0.0,0.0,0.0,-25.675049,78.62915,-37.177734
1768033473632,-0.99658203,-0.030273438,0.22363281,7.751465,-7.9956055,-4.4555664,0.0,0.0,0.0,-25.675049,78.62915,-37.177734
1768033473644,-0.99658203,-0.030273438,0.22363281,7.751465,-7.9956055,-4.4555664,0.0,0.0,0.0,-24.373169,77.41516,-36.45813
1768033473732,-0.93603516,-0.08105469,0.1694336,6.286621,-14.831543,-4.211426,0.0,0.0,0.0,-24.373169,77.41516,-36.45813
1768033473744,-0.93603516,-0.08105469,0.1694336,6.286621,-14.831543,-4.211426,0.0,0.0,0.0,-20.978394,75.67383,-33.546753
1768033473832,-0.9868164,-0.08251953,0.23144531,5.7373047,-8.605957,-2.8686523,0.0,0.0,0.0,-20.978394,75.67383,-33.546753
1768033473843,-0.9868164,-0.08251953,0.23144531,5.7373047,-8.605957,-2.8686523,0.0,0.0,0.0,-20.9729,75.07507,-34.453125
1768033473932,-0.98583984,-0.087890625,0.1977539,-3.8452148,3.6010742,1.4038086,0.0,0.0,0.0,-20.9729,75.07507,-34.453125
1768033473943,-0.98583984,-0.087890625,0.1977539,-3.8452148,3.6010742,1.4038086,0.0,0.0,0.0,-20.03357,74.77844,-33.431396
1768033474031,-1.0043945,-0.109375,0.20214844,-5.126953,-1.6479492,1.5258789,0.0,0.0,0.0,-20.03357,74.77844,-33.431396
1768033474043,-1.0043945,-0.109375,0.20214844,-5.126953,-1.6479492,1.5258789,0.0,0.0,0.0,-20.236816,75.12451,-33.19519
1768033474131,-1.0205078,-0.087890625,0.19238281,-8.300781,14.221191,3.3569336,0.0,0.0,0.0,-20.236816,75.12451,-33.19519
1768033474143,-1.0205078,-0.087890625,0.19238281,-8.300781,14.221191,3.3569336,0.0,0.0,0.0,-21.148682,75.83313,-33.502808
1768033474231,-0.9589844,-0.056152344,0.2446289,2.2583008,-0.4272461,4.0283203,0.0,0.0,0.0,-21.148682,75.83313,-33.502808
1768033474243,-0.9589844,-0.056152344,0.2446289,2.2583008,-0.4272461,4.0283203,0.0,0.0,0.0,-20.429077,76.744995,-32.508545
1768033474330,-1.0693359,-0.07421875,0.1899414,-1.159668,5.126953,6.0424805,0.0,0.0,0.0,-20.429077,76.744995,-32.508545
1768033474342,-1.0693359,-0.07421875,0.1899414,-1.159668,5.126953,6.0424805,0.0,0.0,0.0,-18.121948,76.777954,-30.272827
1768033474431,-0.82910156,-0.08642578,0.25146484,8.911133,0.30517578,2.8076172,0.0,0.0,0.0,-18.121948,76.777954,-30.272827
1768033474442,-0.82910156,-0.08642578,0.25146484,8.911133,0.30517578,2.8076172,0.0,0.0,0.0,-16.435547,77.4646,-28.652344
1768033474530,-0.9824219,-0.07861328,0.30371094,-9.643555,-14.892578,7.385254,0.0,0.0,0.0,-16.435547,77.4646,-28.652344
1768033474541,-0.9824219,-0.07861328,0.30371094,-9.643555,-14.892578,7.385254,0.0,0.0,0.0,-14.144897,76.953735,-26.449585
1768033474629,-0.9350586,-0.011230469,0.20214844,2.9907227,-24.108887,4.0283203,0.0,0.0,0.0,-14.144897,76.953735,-26.449585
1768033474641,-0.9350586,-0.011230469,0.20214844,2.9907227,-24.108887,4.0283203,0.0,0.0,0.0,-8.250732,73.66333,-19.528198
1768033474729,-0.97021484,-0.07080078,0.27929688,4.333496,5.6762695,0.0,0.0,0.0,0.0,-8.250732,73.66333,-19.528198
1768033474741,-0.97021484,-0.07080078,0.27929688,4.333496,5.6762695,0.0,0.0,0.0,0.0,-7.7124023,73.81714,-19.80835
1768033474829,-0.9770508,-0.04296875,0.24707031,1.5869141,-5.92041,2.5024414,0.0,0.0,0.0,-7.7124023,73.81714,-19.80835
1768033474840,-0.9770508,-0.04296875,0.24707031,1.5869141,-5.92041,2.5024414,0.0,0.0,0.0,-6.5148926,73.427124,-18.500977
1768033474929,-0.9824219,-0.047851562,0.25048828,-1.8920898,12.390137,0.30517578,0.0,0.0,0.0,-6.5148926,73.427124,-18.500977
1768033474940,-0.9824219,-0.047851562,0.25048828,-1.8920898,12.390137,0.30517578,0.0,0.0,0.0,-6.6412354,73.99841,-18.830566
1768033475028,-1.0522461,-0.053222656,0.18847656,-0.7324219,5.7373047,-0.91552734,0.0,0.0,0.0,-6.6412354,73.99841,-18.830566
1768033475040,-1.0522461,-0.053222656,0.18847656,-0.7324219,5.7373047,-0.91552734,0.0,0.0,0.0,-7.300415,74.82788,-19.434814
1768033475128,-0.9716797,-0.107421875,0.25390625,-5.2490234,15.380859,-8.422852,0.0,0.0,0.0,-7.300415,74.82788,-19.434814
1768033475140,-0.9716797,-0.107421875,0.25390625,-5.2490234,15.380859,-8.422852,0.0,0.0,0.0,-11.140137,76.59119,-23.120728
1768033475228,-1.0356445,-0.03515625,0.15673828,-4.1503906,8.666992,-5.79834,0.0,0.0,0.0,-11.140137,76.59119,-23.120728
1768033475239,-1.0356445,-0.03515625,0.15673828,-4.1503906,8.666992,-5.79834,0.0,0.0,0.0,-14.60083,76.90979,-25.801392
1768033475327,-0.89501953,-0.029296875,0.26660156,7.6293945,12.023926,-11.291504,0.0,0.0,0.0,-14.60083,76.90979,-25.801392
1768033475339,-0.89501953,-0.029296875,0.26660156,7.6293945,12.023926,-11.291504,0.0,0.0,0.0,-20.86853,78.33252,-32.107544
1768033475427,-0.92871094,-0.037109375,0.2788086,5.859375,-8.300781,-5.2490234,0.0,0.0,0.0,-20.86853,78.33252,-32.107544
1768033475439,-0.92871094,-0.037109375,0.2788086,5.859375,-8.300781,-5.2490234,0.0,0.0,0.0,-23.329468,77.7832,-35.26062
1768033475527,-0.9482422,-0.091796875,0.18164062,-1.7089844,-20.568848,-1.7700195,0.0,0.0,0.0,-23.329468,77.7832,-35.26062
1768033475538,-0.9482422,-0.091796875,0.18164062,-1.7089844,-20.568848,-1.7700195,0.0,0.0,0.0,-20.099487,75.83313,-31.992188
1768033475627,-0.95458984,-0.03955078,0.24267578,1.7700195,-2.746582,-2.8076172,0.0,0.0,0.0,-20.099487,75.83313,-31.992188
1768033475638,-0.95458984,-0.03955078,0.24267578,1.7700195,-2.746582,-2.8076172,0.0,0.0,0.0,-20.64331,75.2124,-32.788696
1768033475726,-0.98339844,-0.08496094,0.17871094,-4.5776367,-1.3427734,4.0283203,0.0,0.0,0.0,-20.64331,75.2124,-32.788696
1768033475738,-0.98339844,-0.08496094,0.17871094,-4.5776367,-1.3427734,4.0283203,0.0,0.0,0.0,-18.720703,74.63013,-30.574951
1768033475826,-0.99316406,-0.080078125,0.20263672,-4.638672,9.643555,-0.36621094,0.0,0.0,0.0,-18.720703,74.63013,-30.574951
1768033475838,-0.99316406,-0.080078125,0.20263672,-4.638672,9.643555,-0.36621094,0.0,0.0,0.0,-19.561157,75.4541,-30.932007
1768033475926,-1.0317383,-0.103027344,0.15136719,-4.5776367,15.319824,-1.8310547,0.0,0.0,0.0,-19.561157,75.4541,-30.932007
1768033475937,-1.0317383,-0.103027344,0.15136719,-4.5776367,15.319824,-1.8310547,0.0,0.0,0.0,-21.818848,76.37695,-32.79419
1768033476025,-0.98583984,-0.0390625,0.22753906,0.5493164,20.751953,1.2207031,0.0,0.0,0.0,-21.818848,76.37695,-32.79419
1768033476037,-0.98583984,-0.0390625,0.22753906,0.5493164,20.751953,1.2207031,0.0,0.0,0.0,-26.586914,78.37097,-37.13379
1768033476125,-1.0678711,-0.10644531,0.15820312,3.2348633,-7.080078,3.2348633,0.0,0.0,0.0,-26.586914,78.37097,-37.13379
1768033476137,-1.0678711,-0.10644531,0.15820312,3.2348633,-7.080078,3.2348633,0.0,0.0,0.0,-25.977173,78.87634,-36.7218
1768033476225,-0.8666992,-0.083496094,0.25146484,13.549805,-2.1972656,1.2207031,0.0,0.0,0.0,-25.977173,78.87634,-36.7218
1768033476236,-0.8666992,-0.083496094,0.25146484,13.549805,-2.1972656,1.2207031,0.0,0.0,0.0,-23.318481,78.85437,-34.475098
1768033476324,-0.8588867,-0.1538086,0.27197266,3.8452148,-13.366699,3.6010742,0.0,0.0,0.0,-23.318481,78.85437,-34.475098
1768033476336,-0.8588867,-0.1538086,0.27197266,3.8452148,-13.366699,3.6010742,0.0,0.0,0.0,-19.528198,77.98645,-31.481323
1768033476425,-1.0219727,-0.055664062,0.23388672,-7.9956055,-43.5791,15.258789,0.0,0.0,0.0,-19.528198,77.98645,-31.481323
1768033476436,-1.0219727,-0.055664062,0.23388672,-7.9956055,-43.5791,15.258789,0.0,0.0,0.0,-13.480225,75.25635,-24.384155
1768033476524,-0.91748047,-0.07421875,0.2421875,12.207031,8.483887,-0.5493164,0.0,0.0,0.0,-13.480225,75.25635,-24.384155
1768033476535,-0.91748047,-0.07421875,0.2421875,12.207031,8.483887,-0.5493164,0.0,0.0,0.0,-10.343628,74.50928,-21.84082
1768033476624,-0.98535156,-0.045410156,0.27001953,2.319336,-8.850098,1.7089844,0.0,0.0,0.0,-10.343628,74.50928,-21.84082
1768033476635,-0.98535156,-0.045410156,0.27001953,2.319336,-8.850098,1.7089844,0.0,0.0,0.0,-10.283203,74.49829,-22.609863
1768033476723,-0.9663086,-0.08105469,0.19824219,3.9672852,6.8969727,-3.2348633,0.0,0.0,0.0,-10.283203,74.49829,-22.609863
1768033476735,-0.9663086,-0.08105469,0.19824219,3.9672852,6.8969727,-3.2348633,0.0,0.0,0.0,-10.48645,74.43237,-23.510742
1768033476823,-1.0078125,-0.08105469,0.22705078,-1.8920898,9.338379,-2.5634766,0.0,0.0,0.0,-10.48645,74.43237,-23.510742
1768033476834,-1.0078125,-0.08105469,0.22705078,-1.8920898,9.338379,-2.5634766,0.0,0.0,0.0,-12.612305,75.50354,-25.74646
1768033476922,-0.9902344,-0.09472656,0.22460938,-8.7890625,5.004883,-3.8452148,0.0,0.0,0.0,-12.612305,75.50354,-25.74646
1768033476934,-0.9902344,-0.09472656,0.22460938,-8.7890625,5.004883,-3.8452148,0.0,0.0,0.0,-15.600586,76.39343,-28.31726
1768033477022,-1.0390625,-0.06982422,0.16601562,2.2583008,1.5869141,-5.92041,0.0,0.0,0.0,-15.600586,76.39343,-28.31726
1768033477034,-1.0390625,-0.06982422,0.16601562,2.2583008,1.5869141,-5.92041,0.0,0.0,0.0,-17.693481,76.40442,-30.17395
1768033477122,-1.019043,-0.06542969,0.23583984,7.9956055,14.099121,-9.277344,0.0,0.0,0.0,-17.693481,76.40442,-30.17395
1768033477134,-1.019043,-0.06542969,0.23583984,7.9956055,14.099121,-9.277344,0.0,0.0,0.0,-22.164917,77.2229,-35.343018
1768033477222,-0.8515625,-0.034179688,0.21923828,19.40918,-6.8969727,-11.535645,0.0,0.0,0.0,-22.164917,77.2229,-35.343018
1768033477233,-0.8515625,-0.034179688,0.21923828,19.40918,-6.8969727,-11.535645,0.0,0.0,0.0,-24.559937,76.80542,-39.19922
1768033477321,-0.97265625,-0.08251953,0.28027344,16.662598,-1.8920898,-8.544922,0.0,0.0,0.0,-24.559937,76.80542,-39.19922
1768033477333,-0.97265625,-0.08251953,0.28027344,16.662598,-1.8920898,-8.544922,0.0,0.0,0.0,-25.389404,76.14624,-41.934814
1768033477421,-0.9345703,-0.095703125,0.1616211,-0.8544922,-21.42334,-0.30517578,0.0,0.0,0.0,-25.389404,76.14624,-41.934814
1768033477433,-0.9345703,-0.095703125,0.1616211,-0.8544922,-21.42334,-0.30517578,0.0,0.0,0.0,-21.577148,73.87207,-38.204956
1768033477521,-0.97998047,-0.09082031,0.24707031,-0.30517578,-2.1972656,-0.4272461,0.0,0.0,0.0,-21.577148,73.87207,-38.204956
1768033477532,-0.97998047,-0.09082031,0.24707031,-0.30517578,-2.1972656,-0.4272461,0.0,0.0,0.0,-21.879272,73.94348,-38.71582
1768033477620,-0.9897461,-0.12158203,0.21582031,-6.7749023,6.3476562,0.0,0.0,0.0,0.0,-21.879272,73.94348,-38.71582
1768033477632,-0.9897461,-0.12158203,0.21582031,-6.7749023,6.3476562,0.0,0.0,0.0,0.0,-21.813354,73.83362,-38.139038
1768033477720,-1.0009766,-0.106933594,0.18457031,-7.019043,6.5307617,0.18310547,0.0,0.0,0.0,-21.813354,73.83362,-38.139038
1768033477732,-1.0009766,-0.106933594,0.18457031,-7.019043,6.5307617,0.18310547,0.0,0.0,0.0,-23.587646,74.53125,-39.210205
1768033477820,-1.0083008,-0.03564453,0.19433594,-10.498047,15.563965,2.380371,0.0,0.0,0.0,-23.587646,74.53125,-39.210205
1768033477831,-1.0083008,-0.03564453,0.19433594,-10.498047,15.563965,2.380371,0.0,0.0,0.0,-26.894531,75.997925,-41.66565
1768033477920,-1.0307617,-0.092285156,0.20703125,-6.713867,9.216309,4.4555664,0.0,0.0,0.0,-26.894531,75.997925,-41.66565
1768033477931,-1.0307617,-0.092285156,0.20703125,-6.713867,9.216309,4.4555664,0.0,0.0,0.0,-28.201904,77.195435,-42.297363
1768033478019,-0.92871094,-0.08300781,0.22167969,-3.2348633,-0.30517578,8.728027,0.0,0.0,0.0,-28.201904,77.195435,-42.297363
1768033478031,-0.92871094,-0.08300781,0.22167969,-3.2348633,-0.30517578,8.728027,0.0,0.0,0.0,-25.482788,77.805176,-38.80371
1768033478119,-0.81347656,-0.12548828,0.27685547,0.7324219,1.0375977,8.178711,0.0,0.0,0.0,-25.482788,77.805176,-38.80371
1768033478131,-0.81347656,-0.12548828,0.27685547,0.7324219,1.0375977,8.178711,0.0,0.0,0.0,-22.06604,78.10181,-35.41992
1768033478219,-1.0566406,-0.032226562,0.2548828,-8.361816,-41.44287,18.066406,0.0,0.0,0.0,-22.06604,78.10181,-35.41992
1768033478230,-1.0566406,-0.032226562,0.2548828,-8.361816,-41.44287,18.066406,0.0,0.0,0.0,-15.397339,76.1792,-27.295532
1768033478319,-0.91015625,-0.08886719,0.21777344,8.422852,5.432129,5.065918,0.0,0.0,0.0,-15.397339,76.1792,-27.295532
1768033478331,-0.91015625,-0.08886719,0.21777344,8.422852,5.432129,5.065918,0.0,0.0,0.0,-10.041504,75.28931,-22.164917
1768033478418,-0.9819336,-0.071777344,0.25097656,-2.8686523,-8.056641,7.080078,0.0,0.0,0.0,-10.041504,75.28931,-22.164917
1768033478430,-0.9819336,-0.071777344,0.25097656,-2.8686523,-8.056641,7.080078,0.0,0.0,0.0,-8.849487,75.547485,-21.43982
1768033478518,-0.9819336,-0.06640625,0.20898438,2.0751953,7.751465,0.4272461,0.0,0.0,0.0,-8.849487,75.547485,-21.43982
1768033478529,-0.9819336,-0.06640625,0.20898438,2.0751953,7.751465,0.4272461,0.0,0.0,0.0,-7.5585938,75.49805,-20.308228
1768033478618,-0.99560547,-0.057128906,0.22070312,-1.5258789,4.638672,-1.0375977,0.0,0.0,0.0,-7.5585938,75.49805,-20.308228
1768033478629,-0.99560547,-0.057128906,0.22070312,-1.5258789,4.638672,-1.0375977,0.0,0.0,0.0,-8.591309,76.21765,-21.384888
1768033478717,-1.0419922,-0.044433594,0.19970703,2.319336,10.7421875,-5.2490234,0.0,0.0,0.0,-8.591309,76.21765,-21.384888
1768033478729,-1.0419922,-0.044433594,0.19970703,2.319336,10.7421875,-5.2490234,0.0,0.0,0.0,-10.535889,76.79443,-23.477783
1768033478817,-0.96533203,-0.07714844,0.19238281,0.18310547,-5.859375,-7.385254,0.0,0.0,0.0,-10.535889,76.79443,-23.477783
1768033478828,-0.96533203,-0.07714844,0.19238281,0.18310547,-5.859375,-7.385254,0.0,0.0,0.0,-13.936157,77.03613,-27.004395
1768033478916,-1.0200195,-0.08544922,0.17333984,0.79345703,16.784668,-10.803223,0.0,0.0,0.0,-13.936157,77.03613,-27.004395
1768033478928,-1.0200195,-0.08544922,0.17333984,0.79345703,16.784668,-10.803223,0.0,0.0,0.0,-18.270264,77.316284,-31.5802
1768033479016,-0.984375,-0.036621094,0.2553711,6.4697266,4.8217773,-10.498047,0.0,0.0,0.0,-18.270264,77.316284,-31.5802
1768033479028,-0.984375,-0.036621094,0.2553711,6.4697266,4.8217773,-10.498047,0.0,0.0,0.0,-25.812378,78.39844,-39.484863
1768033479116,-0.86083984,-0.0043945312,0.23095703,10.559082,2.5634766,-8.666992,0.0,0.0,0.0,-25.812378,78.39844,-39.484863
1768033479127,-0.86083984,-0.0043945312,0.23095703,10.559082,2.5634766,-8.666992,0.0,0.0,0.0,-27.39441,77.51953,-41.764526
1768033479216,-1.0068359,-0.15332031,0.2211914,-2.8686523,-28.381348,-1.5258789,0.0,0.0,0.0,-27.39441,77.51953,-41.764526
1768033479227,-1.0068359,-0.15332031,0.2211914,-2.8686523,-28.381348,-1.5258789,0.0,0.0,0.0,-27.053833,76.79993,-42.15454
1768033479315,-0.95751953,-0.049804688,0.18066406,3.112793,2.5024414,-3.9672852,0.0,0.0,0.0,-27.053833,76.79993,-42.15454
1768033479327,-0.95751953,-0.049804688,0.18066406,3.112793,2.5024414,-3.9672852,0.0,0.0,0.0,-24.614868,75.097046,-39.5343
1768033479415,-0.99072266,-0.111816406,0.19433594,-3.540039,-8.056641,1.4038086,0.0,0.0,0.0,-24.614868,75.097046,-39.5343
1768033479427,-0.99072266,-0.111816406,0.19433594,-3.540039,-8.056641,1.4038086,0.0,0.0,0.0,-24.136963,74.904785,-38.913574
1768033479515,-0.99121094,-0.111816406,0.1977539,-4.8828125,5.2490234,1.2207031,0.0,0.0,0.0,-24.136963,74.904785,-38.913574
1768033479526,-0.99121094,-0.111816406,0.1977539,-4.8828125,5.2490234,1.2207031,0.0,0.0,0.0,-24.395142,75.146484,-38.770752
1768033479615,-1.0507812,-0.10839844,0.14648438,-4.699707,3.7231445,2.380371,0.0,0.0,0.0,-24.395142,75.146484,-38.770752
1768033479626,-1.0507812,-0.10839844,0.14648438,-4.699707,3.7231445,2.380371,0.0,0.0,0.0,-24.89502,75.531006,-38.86963
1768033479714,-0.9536133,-0.010253906,0.21533203,-1.159668,17.333984,5.493164,0.0,0.0,0.0,-24.89502,75.531006,-38.86963
1768033479726,-0.9536133,-0.010253906,0.21533203,-1.159668,17.333984,5.493164,0.0,0.0,0.0,-27.218628,77.08008,-40.76477
1768033479814,-1.0097656,-0.107421875,0.19580078,0.8544922,-4.1503906,7.507324,0.0,0.0,0.0,-27.218628,77.08008,-40.76477
1768033479825,-1.0097656,-0.107421875,0.19580078,0.8544922,-4.1503906,7.507324,0.0,0.0,0.0,-25.845337,77.942505,-39.473877
1768033479914,-0.94189453,-0.06689453,0.2529297,-1.0986328,11.962891,9.033203,0.0,0.0,0.0,-25.845337,77.942505,-39.473877
1768033479925,-0.94189453,-0.06689453,0.2529297,-1.0986328,11.962891,9.033203,0.0,0.0,0.0,-23.28003,78.881836,-36.502075
1768033480013,-0.88427734,-0.11621094,0.23632812,-5.6762695,-15.319824,12.390137,0.0,0.0,0.0,-23.28003,78.881836,-36.502075
1768033480025,-0.88427734,-0.11621094,0.23632812,-5.6762695,-15.319824,12.390137,0.0,0.0,0.0,-18.566895,79.00818,-31.646118
1768033480113,-1.0322266,-0.0053710938,0.18896484,-2.8686523,-18.920898,11.779785,0.0,0.0,0.0,-18.566895,79.00818,-31.646118
1768033480125,-1.0322266,-0.0053710938,0.18896484,-2.8686523,-18.920898,11.779785,0.0,0.0,0.0,-11.810303,77.162476,-23.807373
1768033480213,-0.9355469,-0.071777344,0.21386719,5.9814453,-4.211426,2.1362305,0.0,0.0,0.0,-11.810303,77.162476,-23.807373
1768033480224,-0.9355469,-0.071777344,0.21386719,5.9814453,-4.211426,2.1362305,0.0,0.0,0.0,-7.9156494,76.32202,-19.945679
1768033480312,-1.003418,-0.025878906,0.19384766,4.9438477,1.5258789,-0.24414062,0.0,0.0,0.0,-7.9156494,76.32202,-19.945679
1768033480324,-1.003418,-0.025878906,0.19384766,4.9438477,1.5258789,-0.24414062,0.0,0.0,0.0,-6.9433594,75.84961,-19.4458
1768033480412,-0.9892578,-0.061523438,0.20947266,3.4179688,5.493164,-2.8076172,0.0,0.0,0.0,-6.9433594,75.84961,-19.4458
1768033480424,-0.9892578,-0.061523438,0.20947266,3.4179688,5.493164,-2.8076172,0.0,0.0,0.0,-7.8881836,76.48682,-20.978394
1768033480512,-0.99316406,-0.024902344,0.2055664,-1.5258789,13.671875,-2.0751953,0.0,0.0,0.0,-7.8881836,76.48682,-20.978394
1768033480524,-0.99316406,-0.024902344,0.2055664,-1.5258789,13.671875,-2.0751953,0.0,0.0,0.0,-9.42627,77.25037,-22.538452
1768033480612,-1.0322266,-0.052246094,0.20947266,2.4414062,10.253906,-3.8452148,0.0,0.0,0.0,-9.42627,77.25037,-22.538452
1768033480623,-1.0322266,-0.052246094,0.20947266,2.4414062,10.253906,-3.8452148,0.0,0.0,0.0,-12.057495,78.45886,-25.356445
1768033480711,-0.9663086,-0.06640625,0.14648438,0.61035156,0.0,-5.3710938,0.0,0.0,0.0,-12.057495,78.45886,-25.356445
1768033480723,-0.9663086,-0.06640625,0.14648438,0.61035156,0.0,-5.3710938,0.0,0.0,0.0,-15.419312,78.4314,-28.745728
1768033480811,-1.0458984,-0.10205078,0.15283203,0.91552734,6.8969727,-7.9956055,0.0,0.0,0.0,-15.419312,78.4314,-28.745728
1768033480823,-1.0458984,-0.10205078,0.15283203,0.91552734,6.8969727,-7.9956055,0.0,0.0,0.0,-19.720459,78.76099,-33.112793
1768033480911,-0.9448242,-0.057617188,0.23388672,1.2817383,-1.8920898,-8.483887,0.0,0.0,0.0,-19.720459,78.76099,-33.112793
1768033480922,-0.9448242,-0.057617188,0.23388672,1.2817383,-1.8920898,-8.483887,0.0,0.0,0.0,-24.993896,79.019165,-38.29834
1768033481010,-0.85058594,-0.015136719,0.23046875,8.605957,-6.1035156,-10.375977,0.0,0.0,0.0,-24.993896,79.019165,-38.29834
1768033481022,-0.85058594,-0.015136719,0.23046875,8.605957,-6.1035156,-10.375977,0.0,0.0,0.0,-27.086792,77.717285,-40.907593
1768033481110,-1.0224609,-0.13378906,0.234375,-6.286621,-26.855469,0.0,0.0,0.0,0.0,-27.086792,77.717285,-40.907593
1768033481122,-1.0224609,-0.13378906,0.234375,-6.286621,-26.855469,0.0,0.0,0.0,0.0,-25.307007,76.36597,-39.089355
1768033481210,-0.94628906,-0.052734375,0.2133789,2.9907227,-3.90625,-5.493164,0.0,0.0,0.0,-25.307007,76.36597,-39.089355
1768033481221,-0.94628906,-0.052734375,0.2133789,2.9907227,-3.90625,-5.493164,0.0,0.0,0.0,-23.823853,74.94324,-37.474365
1768033481310,-0.98779297,-0.10058594,0.21142578,0.0,-9.033203,-0.79345703,0.0,0.0,0.0,-23.823853,74.94324,-37.474365
1768033481321,-0.98779297,-0.10058594,0.21142578,0.0,-9.033203,-0.79345703,0.0,0.0,0.0,-22.72522,74.02588,-36.557007
1768033481409,-0.9824219,-0.063964844,0.22265625,-2.4414062,-0.061035156,1.4648438,0.0,0.0,0.0,-22.72522,74.02588,-36.557007
1768033481421,-0.9824219,-0.063964844,0.22265625,-2.4414062,-0.061035156,1.4648438,0.0,0.0,0.0,-22.653809,74.20166,-36.375732
1768033481509,-1.0380859,-0.08496094,0.15820312,3.8452148,8.300781,-0.30517578,0.0,0.0,0.0,-22.653809,74.20166,-36.375732
1768033481521,-1.0380859,-0.08496094,0.15820312,3.8452148,8.300781,-0.30517578,0.0,0.0,0.0,-22.033081,74.35547,-36.02417
1768033481609,-0.9711914,-0.056152344,0.24853516,3.4179688,17.700195,1.0375977,0.0,0.0,0.0,-22.033081,74.35547,-36.02417
1768033481620,-0.9711914,-0.056152344,0.24853516,3.4179688,17.700195,1.0375977,0.0,0.0,0.0,-24.89502,76.39343,-39.292603
1768033481708,-1.0229492,-0.10449219,0.19140625,-2.2583008,0.0,7.080078,0.0,0.0,0.0,-24.89502,76.39343,-39.292603
1768033481720,-1.0229492,-0.10449219,0.19140625,-2.2583008,0.0,7.080078,0.0,0.0,0.0,-24.169922,77.16797,-38.76526
1768033481808,-0.91015625,-0.07861328,0.26171875,3.479004,3.6621094,7.1411133,0.0,0.0,0.0,-24.169922,77.16797,-38.76526
1768033481820,-0.91015625,-0.07861328,0.26171875,3.479004,3.6621094,7.1411133,0.0,0.0,0.0,-21.64856,77.82715,-35.875854
1768033481908,-0.89453125,-0.14990234,0.26171875,-9.82666,-18.798828,15.808105,0.0,0.0,0.0,-21.64856,77.82715,-35.875854
1768033481919,-0.89453125,-0.14990234,0.26171875,-9.82666,-18.798828,15.808105,0.0,0.0,0.0,-15.814819,77.28882,-30.020142
1768033482008,-1.0112305,0.021972656,0.21484375,-5.126953,-37.04834,16.235352,0.0,0.0,0.0,-15.814819,77.28882,-30.020142
1768033482019,-1.0112305,0.021972656,0.21484375,-5.126953,-37.04834,16.235352,0.0,0.0,0.0,-9.063721,74.470825,-21.593628
1768033482107,-0.9501953,-0.0703125,0.2861328,0.24414062,6.0424805,4.0283203,0.0,0.0,0.0,-9.063721,74.470825,-21.593628
1768033482119,-0.9501953,-0.0703125,0.2861328,0.24414062,6.0424805,4.0283203,0.0,0.0,0.0,-5.4327393,73.92151,-17.764893
1768033482207,-0.9824219,9.765625E-4,0.25732422,-0.91552734,-3.7841797,5.9814453,0.0,0.0,0.0,-5.4327393,73.92151,-17.764893
1768033482219,-0.9824219,9.765625E-4,0.25732422,-0.91552734,-3.7841797,5.9814453,0.0,0.0,0.0,-4.1638184,73.756714,-16.468506
1768033482307,-0.9790039,-0.03466797,0.2548828,6.4086914,14.099121,-5.2490234,0.0,0.0,0.0,-4.1638184,73.756714,-16.468506
1768033482318,-0.9790039,-0.03466797,0.2548828,6.4086914,14.099121,-5.2490234,0.0,0.0,0.0,-4.7076416,74.86084,-17.96814
1768033482406,-1.0161133,-0.045898438,0.2055664,7.019043,8.728027,-5.9814453,0.0,0.0,0.0,-4.7076416,74.86084,-17.96814
1768033482419,-1.0161133,-0.045898438,0.2055664,7.019043,8.728027,-5.9814453,0.0,0.0,0.0,-6.399536,75.78369,-20.45105
1768033482506,-0.98046875,-0.11230469,0.20898438,-1.0986328,18.310547,-12.878418,0.0,0.0,0.0,-6.399536,75.78369,-20.45105
1768033482518,-0.98046875,-0.11230469,0.20898438,-1.0986328,18.310547,-12.878418,0.0,0.0,0.0,-11.02478,77.508545,-25.740967
1768033482606,-1.0175781,-0.084472656,0.1640625,-4.0893555,9.643555,-8.300781,0.0,0.0,0.0,-11.02478,77.508545,-25.740967
1768033482618,-1.0175781,-0.084472656,0.1640625,-4.0893555,9.643555,-8.300781,0.0,0.0,0.0,-17.341919,78.239136,-31.712036
1768033482705,-0.9477539,-0.056152344,0.21044922,-1.8310547,12.512207,-10.986328,0.0,0.0,0.0,-17.341919,78.239136,-31.712036
1768033482717,-0.9477539,-0.056152344,0.21044922,-1.8310547,12.512207,-10.986328,0.0,0.0,0.0,-24.96643,78.931274,-38.930054
1768033482805,-0.8852539,-0.005859375,0.22216797,6.286621,-10.559082,-7.751465,0.0,0.0,0.0,-24.96643,78.931274,-38.930054
1768033482817,-0.8852539,-0.005859375,0.22216797,6.286621,-10.559082,-7.751465,0.0,0.0,0.0,-29.064331,78.50281,-43.269653
1768033482905,-1.0048828,-0.11328125,0.20361328,2.8686523,-16.601562,-0.8544922,0.0,0.0,0.0,-29.064331,78.50281,-43.269653
1768033482917,-1.0048828,-0.11328125,0.20361328,2.8686523,-16.601562,-0.8544922,0.0,0.0,0.0,-25.839844,77.18994,-40.424194
1768033483005,-0.9301758,-0.080078125,0.19238281,0.12207031,-4.272461,-2.4414062,0.0,0.0,0.0,-25.839844,77.18994,-40.424194
1768033483016,-0.9301758,-0.080078125,0.19238281,0.12207031,-4.272461,-2.4414062,0.0,0.0,0.0,-24.34021,76.16821,-38.880615
1768033483104,-0.98583984,-0.09472656,0.20898438,-8.483887,-4.4555664,3.2348633,0.0,0.0,0.0,-24.34021,76.16821,-38.880615
1768033483116,-0.98583984,-0.09472656,0.20898438,-8.483887,-4.4555664,3.2348633,0.0,0.0,0.0,-23.829346,75.7782,-37.803955
1768033483204,-0.9975586,-0.080566406,0.19726562,-7.1411133,-2.8076172,4.760742,0.0,0.0,0.0,-23.829346,75.7782,-37.803955
1768033483215,-0.9975586,-0.080566406,0.19726562,-7.1411133,-2.8076172,4.760742,0.0,0.0,0.0,-23.098755,75.97046,-36.19995
1768033483304,-1.0380859,-0.096191406,0.14013672,-5.79834,6.8359375,2.8686523,0.0,0.0,0.0,-23.098755,75.97046,-36.19995
1768033483315,-1.0380859,-0.096191406,0.14013672,-5.79834,6.8359375,2.8686523,0.0,0.0,0.0,-21.912231,76.16821,-34.44763
1768033483403,-0.97265625,0.018066406,0.19482422,-6.958008,9.765625,7.507324,0.0,0.0,0.0,-21.912231,76.16821,-34.44763
1768033483415,-0.97265625,0.018066406,0.19482422,-6.958008,9.765625,7.507324,0.0,0.0,0.0,-23.69751,77.750244,-35.54077
1768033483503,-0.9902344,-0.07128906,0.171875,1.0375977,2.1362305,6.4086914,0.0,0.0,0.0,-23.69751,77.750244,-35.54077
1768033483515,-0.9902344,-0.07128906,0.171875,1.0375977,2.1362305,6.4086914,0.0,0.0,0.0,-20.742188,78.5907,-32.36023
1768033483603,-0.98046875,-0.025390625,0.22607422,-5.6762695,13.73291,8.361816,0.0,0.0,0.0,-20.742188,78.5907,-32.36023
1768033483614,-0.98046875,-0.025390625,0.22607422,-5.6762695,13.73291,8.361816,0.0,0.0,0.0,-18.61084,79.75525,-29.696045
1768033483702,-0.87109375,-0.110839844,0.21582031,0.4272461,-7.873535,4.9438477,0.0,0.0,0.0,-18.61084,79.75525,-29.696045
1768033483714,-0.87109375,-0.110839844,0.21582031,0.4272461,-7.873535,4.9438477,0.0,0.0,0.0,-15.523682,80.13428,-26.455078
1768033483802,-1.0791016,-0.026855469,0.17626953,-1.2817383,-8.056641,4.5166016,0.0,0.0,0.0,-15.523682,80.13428,-26.455078
1768033483814,-1.0791016,-0.026855469,0.17626953,-1.2817383,-8.056641,4.5166016,0.0,0.0,0.0,-12.700195,79.29382,-23.225098
1768033483902,-0.9116211,-0.02734375,0.16308594,6.652832,-3.6010742,3.6621094,0.0,0.0,0.0,-12.700195,79.29382,-23.225098
1768033483913,-0.9116211,-0.02734375,0.16308594,6.652832,-3.6010742,3.6621094,0.0,0.0,0.0,-9.091187,78.77197,-19.539185
1768033484001,-1.0073242,-0.040527344,0.18017578,3.6621094,1.2207031,-1.0375977,0.0,0.0,0.0,-9.091187,78.77197,-19.539185
1768033484013,-1.0073242,-0.040527344,0.18017578,3.6621094,1.2207031,-1.0375977,0.0,0.0,0.0,-8.162842,78.73352,-19.16565
1768033484101,-0.9838867,-0.033203125,0.16503906,7.080078,0.7324219,-3.8452148,0.0,0.0,0.0,-8.162842,78.73352,-19.16565
1768033484113,-0.9838867,-0.033203125,0.16503906,7.080078,0.7324219,-3.8452148,0.0,0.0,0.0,-8.970337,78.947754,-20.401611
1768033484201,-1.0102539,-0.043945312,0.15722656,1.6479492,9.216309,-2.6245117,0.0,0.0,0.0,-8.970337,78.947754,-20.401611
1768033484212,-1.0102539,-0.043945312,0.15722656,1.6479492,9.216309,-2.6245117,0.0,0.0,0.0,-10.958862,79.41467,-22.763672
1768033484301,-1.074707,-0.051757812,0.10986328,2.380371,15.808105,-3.7231445,0.0,0.0,0.0,-10.958862,79.41467,-22.763672
1768033484312,-1.074707,-0.051757812,0.10986328,2.380371,15.808105,-3.7231445,0.0,0.0,0.0,-13.738403,80.17273,-25.702515
1768033484400,-0.9355469,-0.09423828,0.1850586,-10.253906,-0.9765625,-2.9907227,0.0,0.0,0.0,-13.738403,80.17273,-25.702515
1768033484412,-0.9355469,-0.09423828,0.1850586,-10.253906,-0.9765625,-2.9907227,0.0,0.0,0.0,-21.884766,81.66138,-33.464355
1768033484500,-1.0458984,-0.06738281,0.099121094,-5.92041,6.713867,-4.211426,0.0,0.0,0.0,-21.884766,81.66138,-33.464355
1768033484512,-1.0458984,-0.06738281,0.099121094,-5.92041,6.713867,-4.211426,0.0,0.0,0.0,-22.879028,81.11755,-33.33252
1768033484600,-0.96972656,-0.01171875,0.19091797,0.9765625,2.9296875,-8.056641,0.0,0.0,0.0,-22.879028,81.11755,-33.33252
1768033484611,-0.96972656,-0.01171875,0.19091797,0.9765625,2.9296875,-8.056641,0.0,0.0,0.0,-29.404907,81.58447,-39.385986
1768033484699,-0.91845703,0.0063476562,0.20117188,16.174316,-15.625,-10.437012,0.0,0.0,0.0,-29.404907,81.58447,-39.385986
1768033484711,-0.91845703,0.0063476562,0.20117188,16.174316,-15.625,-10.437012,0.0,0.0,0.0,-28.21289,79.98047,-39.089355
1768033484799,-1.0126953,-0.11425781,0.13623047,7.385254,-23.742676,-3.479004,0.0,0.0,0.0,-28.21289,79.98047,-39.089355
1768033484811,-1.0126953,-0.11425781,0.13623047,7.385254,-23.742676,-3.479004,0.0,0.0,0.0,-23.411865,77.84912,-35.178223
1768033484899,-0.91748047,-0.022460938,0.18701172,11.657715,-5.493164,-3.7841797,0.0,0.0,0.0,-23.411865,77.84912,-35.178223
1768033484910,-0.91748047,-0.022460938,0.18701172,11.657715,-5.493164,-3.7841797,0.0,0.0,0.0,-23.653564,77.11304,-36.348267
1768033484998,-0.9975586,-0.114746094,0.20117188,0.5493164,-7.446289,0.5493164,0.0,0.0,0.0,-23.653564,77.11304,-36.348267
1768033485010,-0.9975586,-0.114746094,0.20117188,0.5493164,-7.446289,0.5493164,0.0,0.0,0.0,-21.071777,76.10779,-34.32129
1768033485098,-1.0112305,-0.09082031,0.14648438,-3.6621094,-1.2817383,1.3427734,0.0,0.0,0.0,-21.071777,76.10779,-34.32129
1768033485110,-1.0112305,-0.09082031,0.14648438,-3.6621094,-1.2817383,1.3427734,0.0,0.0,0.0,-20.654297,76.0968,-33.601685
1768033485198,-1.0449219,-0.1171875,0.14697266,-9.155273,9.82666,-2.380371,0.0,0.0,0.0,-20.654297,76.0968,-33.601685
1768033485209,-1.0449219,-0.1171875,0.14697266,-9.155273,9.82666,-2.380371,0.0,0.0,0.0,-23.225098,76.777954,-35.771484
1768033485298,-0.97216797,0.017089844,0.23876953,2.380371,9.643555,-0.12207031,0.0,0.0,0.0,-23.225098,76.777954,-35.771484
1768033485309,-0.97216797,0.017089844,0.23876953,2.380371,9.643555,-0.12207031,0.0,0.0,0.0,-26.674805,78.00842,-38.671875
1768033485398,-1.046875,-0.119628906,0.18798828,0.48828125,3.479004,5.79834,0.0,0.0,0.0,-26.674805,78.00842,-38.671875
1768033485409,-1.046875,-0.119628906,0.18798828,0.48828125,3.479004,5.79834,0.0,0.0,0.0,-26.010132,78.42041,-38.52356
1768033485497,-0.88378906,-0.07519531,0.23925781,7.9956055,-0.061035156,5.3100586,0.0,0.0,0.0,-26.010132,78.42041,-38.52356
1768033485508,-0.88378906,-0.07519531,0.23925781,7.9956055,-0.061035156,5.3100586,0.0,0.0,0.0,-22.862549,79.00818,-35.337524
1768033485597,-0.97314453,-0.12988281,0.27294922,0.18310547,-11.962891,7.385254,0.0,0.0,0.0,-22.862549,79.00818,-35.337524
1768033485608,-0.97314453,-0.12988281,0.27294922,0.18310547,-11.962891,7.385254,0.0,0.0,0.0,-18.693237,78.359985,-31.657104
1768033485696,-0.98046875,-0.030273438,0.15673828,4.8828125,-22.155762,6.1035156,0.0,0.0,0.0,-18.693237,78.359985,-31.657104
1768033485708,-0.98046875,-0.030273438,0.15673828,4.8828125,-22.155762,6.1035156,0.0,0.0,0.0,-11.04126,75.73425,-23.389893
1768033485796,-0.9433594,-0.09765625,0.21923828,5.9814453,0.12207031,-2.0751953,0.0,0.0,0.0,-11.04126,75.73425,-23.389893
1768033485807,-0.9433594,-0.09765625,0.21923828,5.9814453,0.12207031,-2.0751953,0.0,0.0,0.0,-10.283203,75.5365,-23.439331
1768033485896,-0.9711914,-0.040527344,0.23388672,1.0375977,2.8686523,-0.061035156,0.0,0.0,0.0,-10.283203,75.5365,-23.439331
1768033485907,-0.9711914,-0.040527344,0.23388672,1.0375977,2.8686523,-0.061035156,0.0,0.0,0.0,-10.244751,75.43762,-23.516235
1768033485996,-0.9848633,-0.05810547,0.23291016,-4.699707,9.58252,-0.91552734,0.0,0.0,0.0,-10.244751,75.43762,-23.516235
1768033486007,-0.9848633,-0.05810547,0.23291016,-4.699707,9.58252,-0.91552734,0.0,0.0,0.0,-11.651001,76.12976,-25.081787
1768033486095,-1.0180664,-0.032714844,0.17333984,0.0,8.056641,-0.4272461,0.0,0.0,0.0,-11.651001,76.12976,-25.081787
1768033486107,-1.0180664,-0.032714844,0.17333984,0.0,8.056641,-0.4272461,0.0,0.0,0.0,-13.029785,76.94275,-26.16394
1768033486195,-0.9458008,-0.104003906,0.22558594,3.0517578,5.92041,-7.6293945,0.0,0.0,0.0,-13.029785,76.94275,-26.16394
1768033486206,-0.9458008,-0.104003906,0.22558594,3.0517578,5.92041,-7.6293945,0.0,0.0,0.0,-16.122437,78.2666,-29.53125
1768033486295,-1.0566406,-0.084472656,0.13330078,3.4179688,3.2348633,-5.859375,0.0,0.0,0.0,-16.122437,78.2666,-29.53125
1768033486306,-1.0566406,-0.084472656,0.13330078,3.4179688,3.2348633,-5.859375,0.0,0.0,0.0,-18.061523,77.84912,-31.68457
1768033486395,-0.9555664,-0.064453125,0.26464844,6.1035156,9.277344,-10.559082,0.0,0.0,0.0,-18.061523,77.84912,-31.68457
1768033486406,-0.9555664,-0.064453125,0.26464844,6.1035156,9.277344,-10.559082,0.0,0.0,0.0,-24.439087,78.61267,-38.45215
1768033486494,-0.84521484,-0.024414062,0.20019531,0.61035156,-20.385742,-5.1879883,0.0,0.0,0.0,-24.439087,78.61267,-38.45215
1768033486506,-0.84521484,-0.024414062,0.20019531,0.61035156,-20.385742,-5.1879883,0.0,0.0,0.0,-25.180664,77.28882,-39.545288
1768033486594,-1.0385742,-0.078125,0.25683594,2.319336,-19.89746,0.4272461,0.0,0.0,0.0,-25.180664,77.28882,-39.545288
1768033486605,-1.0385742,-0.078125,0.25683594,2.319336,-19.89746,0.4272461,0.0,0.0,0.0,-22.582397,76.014404,-37.210693
1768033486694,-0.93310547,-0.07861328,0.19042969,3.3569336,-7.751465,-3.2958984,0.0,0.0,0.0,-22.582397,76.014404,-37.210693
1768033486705,-0.93310547,-0.07861328,0.19042969,3.3569336,-7.751465,-3.2958984,0.0,0.0,0.0,-19.352417,74.020386,-34.118042
1768033486793,-0.9980469,-0.107421875,0.24511719,-6.3476562,-6.652832,1.953125,0.0,0.0,0.0,-19.352417,74.020386,-34.118042
1768033486805,-0.9980469,-0.107421875,0.24511719,-6.3476562,-6.652832,1.953125,0.0,0.0,0.0,-19.467773,73.73474,-34.28833
1768033486893,-0.9819336,-0.072753906,0.21728516,-5.92041,4.4555664,0.6713867,0.0,0.0,0.0,-19.467773,73.73474,-34.28833
1768033486904,-0.9819336,-0.072753906,0.21728516,-5.92041,4.4555664,0.6713867,0.0,0.0,0.0,-19.511719,73.78418,-33.865356
1768033486993,-0.9902344,-0.092285156,0.20507812,-3.540039,4.211426,-3.112793,0.0,0.0,0.0,-19.511719,73.78418,-33.865356
1768033487005,-0.9902344,-0.092285156,0.20507812,-3.540039,4.211426,-3.112793,0.0,0.0,0.0,-20.791626,74.17969,-34.991455
1768033487092,-1.0073242,-0.076171875,0.1953125,-4.699707,16.174316,-0.061035156,0.0,0.0,0.0,-20.791626,74.17969,-34.991455
1768033487104,-1.0073242,-0.076171875,0.1953125,-4.699707,16.174316,-0.061035156,0.0,0.0,0.0,-23.120728,75.250854,-37.106323
1768033487192,-0.99316406,-0.05126953,0.22705078,7.507324,3.2958984,-0.6713867,0.0,0.0,0.0,-23.120728,75.250854,-37.106323
1768033487203,-0.99316406,-0.05126953,0.22705078,7.507324,3.2958984,-0.6713867,0.0,0.0,0.0,-23.7854,76.14624,-37.990723
1768033487292,-1.0488281,-0.10498047,0.21142578,-3.4179688,19.40918,5.065918,0.0,0.0,0.0,-23.7854,76.14624,-37.990723
1768033487303,-1.0488281,-0.10498047,0.21142578,-3.4179688,19.40918,5.065918,0.0,0.0,0.0,-23.499756,77.06909,-38.133545
1768033487391,-0.9140625,-0.10644531,0.25390625,-2.8076172,-3.7231445,7.9345703,0.0,0.0,0.0,-23.499756,77.06909,-38.133545
1768033487403,-0.9140625,-0.10644531,0.25390625,-2.8076172,-3.7231445,7.9345703,0.0,0.0,0.0,-22.81311,78.239136,-37.08435
1768033487491,-0.8769531,-0.09765625,0.25732422,-11.291504,-17.700195,13.73291,0.0,0.0,0.0,-22.81311,78.239136,-37.08435
1768033487503,-0.8769531,-0.09765625,0.25732422,-11.291504,-17.700195,13.73291,0.0,0.0,0.0,-16.298218,77.32727,-29.613647
1768033487591,-0.9951172,-0.028808594,0.21289062,-2.8686523,-19.53125,10.498047,0.0,0.0,0.0,-16.298218,77.32727,-29.613647
1768033487602,-0.9951172,-0.028808594,0.21289062,-2.8686523,-19.53125,10.498047,0.0,0.0,0.0,-10.431519,75.30029,-22.840576
1768033487690,-0.91503906,-0.049804688,0.29785156,6.164551,5.3710938,-0.18310547,0.0,0.0,0.0,-10.431519,75.30029,-22.840576
1768033487702,-0.91503906,-0.049804688,0.29785156,6.164551,5.3710938,-0.18310547,0.0,0.0,0.0,-8.470459,75.097046,-20.88501
1768033487790,-1.0039062,-0.047851562,0.21142578,3.3569336,-13.305664,1.0986328,0.0,0.0,0.0,-8.470459,75.097046,-20.88501
1768033487802,-1.0039062,-0.047851562,0.21142578,3.3569336,-13.305664,1.0986328,0.0,0.0,0.0,-6.9433594,74.14673,-19.67102
1768033487890,-0.9770508,-0.0390625,0.25585938,1.5869141,15.563965,-4.8828125,0.0,0.0,0.0,-6.9433594,74.14673,-19.67102
1768033487901,-0.9770508,-0.0390625,0.25585938,1.5869141,15.563965,-4.8828125,0.0,0.0,0.0,-8.201294,74.816895,-21.593628
1768033487990,-0.9760742,-0.028808594,0.23291016,0.36621094,2.8686523,-0.9765625,0.0,0.0,0.0,-8.201294,74.816895,-21.593628
1768033488001,-0.9760742,-0.028808594,0.23291016,0.36621094,2.8686523,-0.9765625,0.0,0.0,0.0,-9.552612,75.60791,-23.1427
1768033488089,-1.0146484,-0.061035156,0.22363281,2.746582,7.1411133,-3.479004,0.0,0.0,0.0,-9.552612,75.60791,-23.1427
1768033488101,-1.0146484,-0.061035156,0.22363281,2.746582,7.1411133,-3.479004,0.0,0.0,0.0,-10.557861,75.95398,-24.543457
1768033488189,-0.9472656,-0.07080078,0.2109375,0.7324219,-7.9345703,-5.79834,0.0,0.0,0.0,-10.557861,75.95398,-24.543457
1768033488200,-0.9472656,-0.07080078,0.2109375,0.7324219,-7.9345703,-5.79834,0.0,0.0,0.0,-12.930908,75.65735,-27.158203
1768033488289,-0.9975586,-0.09326172,0.21875,-0.4272461,3.8452148,-7.080078,0.0,0.0,0.0,-12.930908,75.65735,-27.158203
1768033488300,-0.9975586,-0.09326172,0.21875,-0.4272461,3.8452148,-7.080078,0.0,0.0,0.0,-15.430298,75.443115,-29.976196
1768033488388,-1.0214844,-0.076660156,0.20361328,-4.3945312,8.544922,-7.2631836,0.0,0.0,0.0,-15.430298,75.443115,-29.976196
1768033488400,-1.0214844,-0.076660156,0.20361328,-4.3945312,8.544922,-7.2631836,0.0,0.0,0.0,-19.594116,75.94849,-34.00818
1768033488488,-0.8828125,-0.041992188,0.28222656,4.5166016,13.244629,-9.70459,0.0,0.0,0.0,-19.594116,75.94849,-34.00818
1768033488500,-0.8828125,-0.041992188,0.28222656,4.5166016,13.244629,-9.70459,0.0,0.0,0.0,-24.664307,76.94824,-38.85315
1768033488588,-0.96435547,-0.07373047,0.28027344,1.5258789,-8.483887,-3.7841797,0.0,0.0,0.0,-24.664307,76.94824,-38.85315
1768033488600,-0.96435547,-0.07373047,0.28027344,1.5258789,-8.483887,-3.7841797,0.0,0.0,0.0,-27.658081,76.97571,-42.698364
1768033488687,-0.97509766,-0.13623047,0.15625,-6.5307617,-28.808594,1.2207031,0.0,0.0,0.0,-27.658081,76.97571,-42.698364
1768033488699,-0.97509766,-0.13623047,0.15625,-6.5307617,-28.808594,1.2207031,0.0,0.0,0.0,-22.63733,74.63562,-36.7218
1768033488787,-0.93847656,-0.067871094,0.2265625,-0.9765625,1.8920898,-1.3427734,0.0,0.0,0.0,-22.63733,74.63562,-36.7218
1768033488799,-0.93847656,-0.067871094,0.2265625,-0.9765625,1.8920898,-1.3427734,0.0,0.0,0.0,-23.911743,74.70703,-37.76001
1768033488887,-0.9863281,-0.103027344,0.20263672,-4.0283203,0.0,2.2583008,0.0,0.0,0.0,-23.911743,74.70703,-37.76001
1768033488898,-0.9863281,-0.103027344,0.20263672,-4.0283203,0.0,2.2583008,0.0,0.0,0.0,-22.81311,74.37744,-36.30432
1768033488987,-1.0112305,-0.10253906,0.20800781,-2.9296875,0.9765625,3.2348633,0.0,0.0,0.0,-22.81311,74.37744,-36.30432
1768033488998,-1.0112305,-0.10253906,0.20800781,-2.9296875,0.9765625,3.2348633,0.0,0.0,0.0,-23.285522,75.113525,-36.447144
1768033489086,-1.0688477,-0.11376953,0.14501953,-4.0893555,18.493652,-0.30517578,0.0,0.0,0.0,-23.285522,75.113525,-36.447144
1768033489098,-1.0688477,-0.11376953,0.14501953,-4.0893555,18.493652,-0.30517578,0.0,0.0,0.0,-24.318237,75.84412,-37.35901
1768033489186,-0.93066406,-0.018554688,0.2709961,0.4272461,8.300781,5.92041,0.0,0.0,0.0,-24.318237,75.84412,-37.35901
1768033489198,-0.93066406,-0.018554688,0.2709961,0.4272461,8.300781,5.92041,0.0,0.0,0.0,-28.377686,77.958984,-41.18225
1768033489286,-0.9848633,-0.100097656,0.14111328,0.18310547,-6.8359375,5.6762695,0.0,0.0,0.0,-28.377686,77.958984,-41.18225
1768033489297,-0.9848633,-0.100097656,0.14111328,0.18310547,-6.8359375,5.6762695,0.0,0.0,0.0,-23.972168,77.31079,-36.66687
1768033489386,-0.9609375,-0.05078125,0.25439453,0.30517578,3.9672852,6.5307617,0.0,0.0,0.0,-23.972168,77.31079,-36.66687
1768033489397,-0.9609375,-0.05078125,0.25439453,0.30517578,3.9672852,6.5307617,0.0,0.0,0.0,-23.131714,78.35449,-35.233154
1768033489485,-0.9272461,-0.111328125,0.19677734,0.36621094,-8.7890625,7.2021484,0.0,0.0,0.0,-23.131714,78.35449,-35.233154
1768033489497,-0.9272461,-0.111328125,0.19677734,0.36621094,-8.7890625,7.2021484,0.0,0.0,0.0,-18.116455,77.77771,-30.15747
1768033489585,-0.99365234,-0.08642578,0.27539062,-0.91552734,-5.432129,4.4555664,0.0,0.0,0.0,-18.116455,77.77771,-30.15747
1768033489596,-0.99365234,-0.08642578,0.27539062,-0.91552734,-5.432129,4.4555664,0.0,0.0,0.0,-15.111694,77.547,-26.82312
1768033489684,-0.9394531,-0.021972656,0.16796875,-2.4414062,-22.216797,8.666992,0.0,0.0,0.0,-15.111694,77.547,-26.82312
1768033489696,-0.9394531,-0.021972656,0.16796875,-2.4414062,-22.216797,8.666992,0.0,0.0,0.0,-10.096436,75.19592,-21.483765
1768033489784,-0.9902344,-0.06298828,0.26220703,-2.1362305,-3.0517578,2.0141602,0.0,0.0,0.0,-10.096436,75.19592,-21.483765
1768033489795,-0.9902344,-0.06298828,0.26220703,-2.1362305,-3.0517578,2.0141602,0.0,0.0,0.0,-8.734131,74.904785,-20.110474
1768033489885,-0.9921875,-0.018554688,0.22509766,-1.5869141,-2.5024414,2.746582,0.0,0.0,0.0,-8.734131,74.904785,-20.110474
1768033489895,-0.9921875,-0.018554688,0.22509766,-1.5869141,-2.5024414,2.746582,0.0,0.0,0.0,-7.536621,74.366455,-18.682251
1768033489983,-0.9433594,-0.059570312,0.25732422,-4.638672,9.155273,4.333496,0.0,0.0,0.0,-7.536621,74.366455,-18.682251
1768033489995,-0.9433594,-0.059570312,0.25732422,-4.638672,9.155273,4.333496,0.0,0.0,0.0,-7.229004,75.146484,-18.391113
1768033490083,-1.0239258,-0.03955078,0.21533203,-1.8310547,-2.746582,1.4648438,0.0,0.0,0.0,-7.229004,75.146484,-18.391113
1768033490095,-1.0239258,-0.03955078,0.21533203,-1.8310547,-2.746582,1.4648438,0.0,0.0,0.0,-6.7785645,75.43213,-17.671509
1768033490183,-0.9921875,-0.047851562,0.1928711,-1.0986328,20.324707,-2.9296875,0.0,0.0,0.0,-6.7785645,75.43213,-17.671509
1768033490194,-0.9921875,-0.047851562,0.1928711,-1.0986328,20.324707,-2.9296875,0.0,0.0,0.0,-7.67395,76.431885,-18.73169
1768033490283,-0.9970703,-0.057128906,0.1953125,-0.91552734,-6.1035156,-3.7841797,0.0,0.0,0.0,-7.67395,76.431885,-18.73169
1768033490294,-0.9970703,-0.057128906,0.1953125,-0.91552734,-6.1035156,-3.7841797,0.0,0.0,0.0,-9.645996,76.81091,-20.76416
1768033490382,-1.027832,-0.07861328,0.16894531,-0.9765625,20.690918,-10.314941,0.0,0.0,0.0,-9.645996,76.81091,-20.76416
1768033490394,-1.027832,-0.07861328,0.16894531,-0.9765625,20.690918,-10.314941,0.0,0.0,0.0,-13.480225,77.22839,-24.708252
1768033490482,-0.92041016,-0.013671875,0.26171875,8.850098,9.94873,-14.831543,0.0,0.0,0.0,-13.480225,77.22839,-24.708252
1768033490494,-0.92041016,-0.013671875,0.26171875,8.850098,9.94873,-14.831543,0.0,0.0,0.0,-21.912231,78.69507,-33.651123
1768033490582,-0.91796875,-0.036621094,0.2631836,12.451172,-3.6621094,-8.666992,0.0,0.0,0.0,-21.912231,78.69507,-33.651123
1768033490593,-0.91796875,-0.036621094,0.2631836,12.451172,-3.6621094,-8.666992,0.0,0.0,0.0,-25.40039,77.96448,-38.270874
1768033490681,-0.94873047,-0.11279297,0.15722656,3.8452148,-19.89746,-3.0517578,0.0,0.0,0.0,-25.40039,77.96448,-38.270874
1768033490693,-0.94873047,-0.11279297,0.15722656,3.8452148,-19.89746,-3.0517578,0.0,0.0,0.0,-21.599121,76.18469,-34.58496
1768033490781,-0.9536133,-0.03564453,0.2368164,8.239746,2.319336,-5.3710938,0.0,0.0,0.0,-21.599121,76.18469,-34.58496
1768033490793,-0.9536133,-0.03564453,0.2368164,8.239746,2.319336,-5.3710938,0.0,0.0,0.0,-23.214111,75.86609,-36.886597
1768033490881,-1.0097656,-0.107421875,0.18066406,2.6245117,-2.8686523,1.2207031,0.0,0.0,0.0,-23.214111,75.86609,-36.886597
1768033490892,-1.0097656,-0.107421875,0.18066406,2.6245117,-2.8686523,1.2207031,0.0,0.0,0.0,-21.912231,75.459595,-35.947266
1768033490980,-1.0112305,-0.10253906,0.18603516,-1.6479492,7.385254,0.18310547,0.0,0.0,0.0,-21.912231,75.459595,-35.947266
1768033490992,-1.0112305,-0.10253906,0.18603516,-1.6479492,7.385254,0.18310547,0.0,0.0,0.0,-23.016357,76.21216,-37.139282
1768033491080,-1.0307617,-0.104003906,0.1538086,-3.0517578,12.817383,3.4179688,0.0,0.0,0.0,-23.016357,76.21216,-37.139282
1768033491092,-1.0307617,-0.104003906,0.1538086,-3.0517578,12.817383,3.4179688,0.0,0.0,0.0,-23.76892,76.953735,-37.754517
1768033491180,-0.9375,-0.03173828,0.20605469,-3.9672852,2.5634766,8.7890625,0.0,0.0,0.0,-23.76892,76.953735,-37.754517
1768033491191,-0.9375,-0.03173828,0.20605469,-3.9672852,2.5634766,8.7890625,0.0,0.0,0.0,-24.801636,78.33801,-38.150024
1768033491280,-0.99609375,-0.10205078,0.19628906,-5.92041,-8.483887,9.643555,0.0,0.0,0.0,-24.801636,78.33801,-38.150024
1768033491292,-0.99609375,-0.10205078,0.19628906,-5.92041,-8.483887,9.643555,0.0,0.0,0.0,-20.341187,78.36548,-33.200684
1768033491379,-0.98876953,-0.033691406,0.22314453,-3.90625,-3.112793,9.277344,0.0,0.0,0.0,-20.341187,78.36548,-33.200684
1768033491391,-0.98876953,-0.033691406,0.22314453,-3.90625,-3.112793,9.277344,0.0,0.0,0.0,-15.880737,78.33252,-27.89978
1768033491479,-0.8959961,-0.104003906,0.21240234,0.0,-10.681152,4.8217773,0.0,0.0,0.0,-15.880737,78.33252,-27.89978
1768033491491,-0.8959961,-0.104003906,0.21240234,0.0,-10.681152,4.8217773,0.0,0.0,0.0,-11.705933,77.547,-23.505249
1768033491579,-1.0141602,-0.064941406,0.26757812,-1.8310547,-5.3710938,1.0375977,0.0,0.0,0.0,-11.705933,77.547,-23.505249
1768033491590,-1.0141602,-0.064941406,0.26757812,-1.8310547,-5.3710938,1.0375977,0.0,0.0,0.0,-9.838257,76.78894,-21.23108
1768033491678,-0.93603516,-0.001953125,0.17480469,8.239746,-7.2021484,-2.8076172,0.0,0.0,0.0,-9.838257,76.78894,-21.23108
1768033491690,-0.93603516,-0.001953125,0.17480469,8.239746,-7.2021484,-2.8076172,0.0,0.0,0.0,-8.635254,75.44861,-20.10498
1768033491779,-0.9658203,-0.057128906,0.2578125,2.8076172,5.6762695,-4.4555664,0.0,0.0,0.0,-8.635254,75.44861,-20.10498
1768033491790,-0.9658203,-0.057128906,0.2578125,2.8076172,5.6762695,-4.4555664,0.0,0.0,0.0,-9.777832,75.83862,-22.225342
1768033491878,-0.9921875,-0.0053710938,0.20751953,4.1503906,-2.0141602,-2.6245117,0.0,0.0,0.0,-9.777832,75.83862,-22.225342
1768033491889,-0.9921875,-0.0053710938,0.20751953,4.1503906,-2.0141602,-2.6245117,0.0,0.0,0.0,-10.041504,75.701294,-22.670288
1768033491978,-0.9824219,-0.044433594,0.21826172,0.12207031,7.2021484,-1.5258789,0.0,0.0,0.0,-10.041504,75.701294,-22.670288
1768033491989,-0.9824219,-0.044433594,0.21826172,0.12207031,7.2021484,-1.5258789,0.0,0.0,0.0,-10.728149,76.04187,-23.774414
1768033492077,-1.046875,-0.033691406,0.17675781,3.9672852,2.2583008,-2.746582,0.0,0.0,0.0,-10.728149,76.04187,-23.774414
1768033492089,-1.046875,-0.033691406,0.17675781,3.9672852,2.2583008,-2.746582,0.0,0.0,0.0,-11.420288,76.4978,-24.614868
1768033492177,-0.9604492,-0.10986328,0.23535156,2.319336,-1.0375977,-7.446289,0.0,0.0,0.0,-11.420288,76.4978,-24.614868
1768033492188,-0.9604492,-0.10986328,0.23535156,2.319336,-1.0375977,-7.446289,0.0,0.0,0.0,-13.551636,77.09656,-27.207642
1768033492277,-1.0253906,-0.08691406,0.13183594,0.0,2.380371,-4.333496,0.0,0.0,0.0,-13.551636,77.09656,-27.207642
1768033492289,-1.0253906,-0.08691406,0.13183594,0.0,2.380371,-4.333496,0.0,0.0,0.0,-15.172119,76.552734,-28.937988
1768033492376,-0.96435547,-0.06640625,0.2758789,2.8686523,20.019531,-9.399414,0.0,0.0,0.0,-15.172119,76.552734,-28.937988
1768033492388,-0.96435547,-0.06640625,0.2758789,2.8686523,20.019531,-9.399414,0.0,0.0,0.0,-20.692749,78.046875,-34.44214
1768033492476,-0.875,-0.024414062,0.2763672,2.1362305,-8.544922,-7.2021484,0.0,0.0,0.0,-20.692749,78.046875,-34.44214
1768033492487,-0.875,-0.024414062,0.2763672,2.1362305,-8.544922,-7.2021484,0.0,0.0,0.0,-25.680542,78.23364,-39.891357
1768033492576,-1.003418,-0.111816406,0.20117188,-2.1972656,-26.184082,2.0141602,0.0,0.0,0.0,-25.680542,78.23364,-39.891357
1768033492587,-1.003418,-0.111816406,0.20117188,-2.1972656,-26.184082,2.0141602,0.0,0.0,0.0,-22.686768,76.61316,-36.809692
1768033492676,-0.92529297,-0.064941406,0.2084961,4.0283203,-2.0751953,-5.432129,0.0,0.0,0.0,-22.686768,76.61316,-36.809692
1768033492687,-0.92529297,-0.064941406,0.2084961,4.0283203,-2.0751953,-5.432129,0.0,0.0,0.0,-21.115723,75.097046,-35.321045
1768033492775,-0.9951172,-0.08544922,0.22998047,-2.8076172,-13.366699,2.6245117,0.0,0.0,0.0,-21.115723,75.097046,-35.321045
1768033492787,-0.9951172,-0.08544922,0.22998047,-2.8076172,-13.366699,2.6245117,0.0,0.0,0.0,-20.357666,74.44336,-34.66736
1768033492875,-1.0,-0.075683594,0.18945312,-2.746582,6.4697266,-0.12207031,0.0,0.0,0.0,-20.357666,74.44336,-34.66736
1768033492886,-1.0,-0.075683594,0.18945312,-2.746582,6.4697266,-0.12207031,0.0,0.0,0.0,-19.978638,74.44336,-34.04663
1768033492974,-1.0136719,-0.10839844,0.20996094,-0.18310547,5.6152344,0.061035156,0.0,0.0,0.0,-19.978638,74.44336,-34.04663
1768033492986,-1.0136719,-0.10839844,0.20996094,-0.18310547,5.6152344,0.061035156,0.0,0.0,0.0,-21.203613,75.2948,-35.299072
1768033493074,-0.97314453,-0.07373047,0.18310547,-9.70459,12.512207,3.112793,0.0,0.0,0.0,-21.203613,75.2948,-35.299072
1768033493086,-0.97314453,-0.07373047,0.18310547,-9.70459,12.512207,3.112793,0.0,0.0,0.0,-22.802124,76.45935,-36.430664
1768033493174,-0.96777344,-0.049804688,0.20605469,-1.2817383,-7.3242188,5.004883,0.0,0.0,0.0,-22.802124,76.45935,-36.430664
1768033493186,-0.96777344,-0.049804688,0.20605469,-1.2817383,-7.3242188,5.004883,0.0,0.0,0.0,-20.473022,76.60217,-33.458862
1768033493274,-0.9951172,-0.05419922,0.19921875,-4.8217773,13.549805,6.4697266,0.0,0.0,0.0,-20.473022,76.60217,-33.458862
1768033493285,-0.9951172,-0.05419922,0.19921875,-4.8217773,13.549805,6.4697266,0.0,0.0,0.0,-18.358154,77.03613,-31.047363
1768033493373,-0.96435547,-0.08642578,0.26904297,0.9765625,0.0,6.3476562,0.0,0.0,0.0,-18.358154,77.03613,-31.047363
1768033493385,-0.96435547,-0.08642578,0.26904297,0.9765625,0.0,6.3476562,0.0,0.0,0.0,-16.935425,78.030396,-29.498291
1768033493473,-0.87109375,-0.11279297,0.2607422,-3.6010742,1.5258789,6.164551,0.0,0.0,0.0,-16.935425,78.030396,-29.498291
1768033493485,-0.87109375,-0.11279297,0.2607422,-3.6010742,1.5258789,6.164551,0.0,0.0,0.0,-13.919678,77.82715,-26.119995
1768033493573,-1.0209961,-0.005859375,0.20214844,-4.333496,-24.597168,11.291504,0.0,0.0,0.0,-13.919678,77.82715,-26.119995
1768033493585,-1.0209961,-0.005859375,0.20214844,-4.333496,-24.597168,11.291504,0.0,0.0,0.0,-10.673218,76.65161,-22.302246
1768033493672,-0.91748047,-0.068359375,0.2446289,6.4086914,3.2348633,2.380371,0.0,0.0,0.0,-10.673218,76.65161,-22.302246
1768033493684,-0.91748047,-0.068359375,0.2446289,6.4086914,3.2348633,2.380371,0.0,0.0,0.0,-7.4432373,76.448364,-19.248047
1768033493772,-1.0117188,-0.033691406,0.19335938,2.2583008,-5.9814453,2.746582,0.0,0.0,0.0,-7.4432373,76.448364,-19.248047
1768033493784,-1.0117188,-0.033691406,0.19335938,2.2583008,-5.9814453,2.746582,0.0,0.0,0.0,-5.652466,75.4541,-17.633057
1768033493872,-0.97265625,-0.033691406,0.22167969,3.112793,7.507324,-1.6479492,0.0,0.0,0.0,-5.652466,75.4541,-17.633057
1768033493883,-0.97265625,-0.033691406,0.22167969,3.112793,7.507324,-1.6479492,0.0,0.0,0.0,-6.0809326,76.223145,-18.47351
1768033493972,-1.0244141,-0.04638672,0.19140625,1.2207031,5.3100586,-1.8920898,0.0,0.0,0.0,-6.0809326,76.223145,-18.47351
1768033493983,-1.0244141,-0.04638672,0.19140625,1.2207031,5.3100586,-1.8920898,0.0,0.0,0.0,-7.196045,76.87683,-19.731445
1768033494071,-0.9838867,-0.06933594,0.18359375,1.159668,16.723633,-5.6152344,0.0,0.0,0.0,-7.196045,76.87683,-19.731445
1768033494083,-0.9838867,-0.06933594,0.18359375,1.159668,16.723633,-5.6152344,0.0,0.0,0.0,-10.030518,78.030396,-22.802124
1768033494171,-1.0053711,-0.08154297,0.16601562,-0.24414062,-6.713867,-4.5166016,0.0,0.0,0.0,-10.030518,78.030396,-22.802124
1768033494183,-1.0053711,-0.08154297,0.16601562,-0.24414062,-6.713867,-4.5166016,0.0,0.0,0.0,-12.436523,77.91504,-24.988403
1768033494271,-1.0058594,-0.061035156,0.1850586,-5.126953,18.676758,-8.422852,0.0,0.0,0.0,-12.436523,77.91504,-24.988403
1768033494282,-1.0058594,-0.061035156,0.1850586,-5.126953,18.676758,-8.422852,0.0,0.0,0.0,-17.611084,78.57422,-29.904785
1768033494371,-0.9506836,-0.0126953125,0.21679688,0.0,4.8217773,-9.216309,0.0,0.0,0.0,-17.611084,78.57422,-29.904785
1768033494382,-0.9506836,-0.0126953125,0.21679688,0.0,4.8217773,-9.216309,0.0,0.0,0.0,-24.730225,79.50256,-36.765747
1768033494470,-0.90722656,-0.018554688,0.2211914,11.108398,1.6479492,-10.070801,0.0,0.0,0.0,-24.730225,79.50256,-36.765747
1768033494482,-0.90722656,-0.018554688,0.2211914,11.108398,1.6479492,-10.070801,0.0,0.0,0.0,-28.33374,79.151,-40.979004
1768033494570,-0.96728516,-0.09667969,0.1459961,9.094238,-17.63916,-5.554199,0.0,0.0,0.0,-28.33374,79.151,-40.979004
1768033494582,-0.96728516,-0.09667969,0.1459961,9.094238,-17.63916,-5.554199,0.0,0.0,0.0,-25.664062,77.64038,-38.902588
1768033494670,-0.9458008,-0.0859375,0.19873047,6.591797,-8.728027,-6.164551,0.0,0.0,0.0,-25.664062,77.64038,-38.902588
1768033494681,-0.9458008,-0.0859375,0.19873047,6.591797,-8.728027,-6.164551,0.0,0.0,0.0,-25.944214,76.69006,-39.973755
1768033494769,-0.99560547,-0.09716797,0.18945312,-2.746582,-11.657715,1.2817383,0.0,0.0,0.0,-25.944214,76.69006,-39.973755
1768033494781,-0.99560547,-0.09716797,0.18945312,-2.746582,-11.657715,1.2817383,0.0,0.0,0.0,-23.757935,75.55298,-37.496338
1768033494869,-0.9946289,-0.099121094,0.20605469,-4.211426,1.159668,1.0986328,0.0,0.0,0.0,-23.757935,75.55298,-37.496338
1768033494880,-0.9946289,-0.099121094,0.20605469,-4.211426,1.159668,1.0986328,0.0,0.0,0.0,-23.153687,75.38269,-36.535034
1768033494969,-1.0302734,-0.10107422,0.17285156,-3.2348633,-0.7324219,3.1738281,0.0,0.0,0.0,-23.153687,75.38269,-36.535034
1768033494980,-1.0302734,-0.10107422,0.17285156,-3.2348633,-0.7324219,3.1738281,0.0,0.0,0.0,-22.884521,75.563965,-35.87036
1768033495068,-0.9458008,-0.024414062,0.20605469,-2.8686523,11.230469,1.8920898,0.0,0.0,0.0,-22.884521,75.563965,-35.87036
1768033495080,-0.9458008,-0.024414062,0.20605469,-2.8686523,11.230469,1.8920898,0.0,0.0,0.0,-24.301758,76.640625,-37.023926
1768033495168,-1.0297852,-0.075683594,0.21142578,4.211426,-4.699707,2.746582,0.0,0.0,0.0,-24.301758,76.640625,-37.023926
1768033495179,-1.0297852,-0.075683594,0.21142578,4.211426,-4.699707,2.746582,0.0,0.0,0.0,-23.823853,77.03064,-36.63391
1768033495268,-1.0214844,-0.052734375,0.21240234,-1.6479492,9.460449,7.080078,0.0,0.0,0.0,-23.823853,77.03064,-36.63391
1768033495279,-1.0214844,-0.052734375,0.21240234,-1.6479492,9.460449,7.080078,0.0,0.0,0.0,-22.016602,77.717285,-34.744263
1768033495367,-0.85498047,-0.111816406,0.22460938,4.8828125,-9.277344,4.699707,0.0,0.0,0.0,-22.016602,77.717285,-34.744263
1768033495379,-0.85498047,-0.111816406,0.22460938,4.8828125,-9.277344,4.699707,0.0,0.0,0.0,-18.588867,77.854614,-31.497803
1768033495467,-0.96533203,-0.091308594,0.28076172,-4.1503906,-14.038086,8.972168,0.0,0.0,0.0,-18.588867,77.854614,-31.497803
1768033495479,-0.96533203,-0.091308594,0.28076172,-4.1503906,-14.038086,8.972168,0.0,0.0,0.0,-14.117432,76.986694,-26.921997
1768033495567,-0.9604492,-0.03173828,0.20898438,2.9907227,-23.620605,5.859375,0.0,0.0,0.0,-14.117432,76.986694,-26.921997
1768033495579,-0.9604492,-0.03173828,0.20898438,2.9907227,-23.620605,5.859375,0.0,0.0,0.0,-8.805542,74.19617,-21.428833
1768033495666,-0.9663086,-0.071777344,0.28222656,1.6479492,2.8686523,-0.36621094,0.0,0.0,0.0,-8.805542,74.19617,-21.428833
1768033495678,-0.9663086,-0.071777344,0.28222656,1.6479492,2.8686523,-0.36621094,0.0,0.0,0.0,-7.9870605,74.020386,-21.236572
1768033495766,-0.9770508,-0.021972656,0.24365234,2.380371,-3.4179688,0.12207031,0.0,0.0,0.0,-7.9870605,74.020386,-21.236572
1768033495778,-0.9770508,-0.021972656,0.24365234,2.380371,-3.4179688,0.12207031,0.0,0.0,0.0,-7.6574707,73.69629,-20.906982
1768033495866,-0.9785156,-0.03955078,0.27001953,-0.5493164,12.145996,-2.4414062,0.0,0.0,0.0,-7.6574707,73.69629,-20.906982
1768033495877,-0.9785156,-0.03955078,0.27001953,-0.5493164,12.145996,-2.4414062,0.0,0.0,0.0,-8.415527,74.31702,-22.120972
1768033495966,-1.0498047,-0.051757812,0.19580078,4.0283203,5.1879883,-4.760742,0.0,0.0,0.0,-8.415527,74.31702,-22.120972
1768033495977,-1.0498047,-0.051757812,0.19580078,4.0283203,5.1879883,-4.760742,0.0,0.0,0.0,-9.772339,75.08057,-23.741455
1768033496065,-0.9628906,-0.109375,0.22998047,2.5024414,11.657715,-9.338379,0.0,0.0,0.0,-9.772339,75.08057,-23.741455
1768033496077,-0.9628906,-0.109375,0.22998047,2.5024414,11.657715,-9.338379,0.0,0.0,0.0,-13.29895,76.3385,-27.93274
1768033496165,-1.0043945,-0.09667969,0.16796875,0.48828125,3.6010742,-7.8125,0.0,0.0,0.0,-13.29895,76.3385,-27.93274
1768033496176,-1.0043945,-0.09667969,0.16796875,0.48828125,3.6010742,-7.8125,0.0,0.0,0.0,-16.825562,76.61865,-31.706543
1768033496265,-0.9580078,-0.075683594,0.2602539,-1.0375977,19.836426,-9.460449,0.0,0.0,0.0,-16.825562,76.61865,-31.706543
1768033496276,-0.9580078,-0.075683594,0.2602539,-1.0375977,19.836426,-9.460449,0.0,0.0,0.0,-22.681274,77.56897,-37.545776
1768033496364,-0.8774414,-0.020507812,0.23779297,-0.61035156,-6.591797,-5.126953,0.0,0.0,0.0,-22.681274,77.56897,-37.545776
1768033496376,-0.8774414,-0.020507812,0.23779297,-0.61035156,-6.591797,-5.126953,0.0,0.0,0.0,-27.147217,77.76672,-41.951294
1768033496464,-1.0151367,-0.087890625,0.23779297,0.6713867,-14.465332,0.91552734,0.0,0.0,0.0,-27.147217,77.76672,-41.951294
1768033496475,-1.0151367,-0.087890625,0.23779297,0.6713867,-14.465332,0.91552734,0.0,0.0,0.0,-25.933228,77.03064,-40.951538
1768033496564,-0.92822266,-0.09814453,0.14892578,-1.0375977,-3.0517578,-2.9296875,0.0,0.0,0.0,-25.933228,77.03064,-40.951538
1768033496575,-0.92822266,-0.09814453,0.14892578,-1.0375977,-3.0517578,-2.9296875,0.0,0.0,0.0,-22.131958,75.305786,-36.749268
1768033496664,-1.0053711,-0.095703125,0.2265625,-6.591797,-7.080078,0.4272461,0.0,0.0,0.0,-22.131958,75.305786,-36.749268
1768033496675,-1.0053711,-0.095703125,0.2265625,-6.591797,-7.080078,0.4272461,0.0,0.0,0.0,-23.48877,75.38818,-37.886353
1768033496763,-0.9794922,-0.08544922,0.16308594,-5.2490234,7.507324,-1.0375977,0.0,0.0,0.0,-23.48877,75.38818,-37.886353
1768033496775,-0.9794922,-0.08544922,0.16308594,-5.2490234,7.507324,-1.0375977,0.0,0.0,0.0,-23.170166,75.15747,-36.89209
1768033496863,-1.0288086,-0.072265625,0.22265625,-3.7231445,9.094238,-1.4038086,0.0,0.0,0.0,-23.170166,75.15747,-36.89209
1768033496874,-1.0288086,-0.072265625,0.22265625,-3.7231445,9.094238,-1.4038086,0.0,0.0,0.0,-25.72998,76.05835,-39.006958
1768033496963,-1.0200195,-0.10888672,0.1538086,-3.540039,18.859863,0.0,0.0,0.0,0.0,-25.72998,76.05835,-39.006958
1768033496974,-1.0200195,-0.10888672,0.1538086,-3.540039,18.859863,0.0,0.0,0.0,0.0,-28.125,77.10205,-41.275635
1768033497062,-0.9165039,-0.061523438,0.2421875,-0.9765625,12.145996,5.6762695,0.0,0.0,0.0,-28.125,77.10205,-41.275635
1768033497074,-0.9165039,-0.061523438,0.2421875,-0.9765625,12.145996,5.6762695,0.0,0.0,0.0,-30.739746,79.035645,-43.50586
1768033497162,-1.0488281,-0.087890625,0.09277344,-8.056641,-6.1035156,12.023926,0.0,0.0,0.0,-30.739746,79.035645,-43.50586
1768033497173,-1.0488281,-0.087890625,0.09277344,-8.056641,-6.1035156,12.023926,0.0,0.0,0.0,-23.076782,78.40393,-34.865112
1768033497262,-0.92822266,-0.041992188,0.23095703,-2.6245117,3.3569336,10.681152,0.0,0.0,0.0,-23.076782,78.40393,-34.865112
1768033497273,-0.92822266,-0.041992188,0.23095703,-2.6245117,3.3569336,10.681152,0.0,0.0,0.0,-20.368652,79.749756,-31.338501
1768033497362,-0.87890625,-0.095703125,0.20507812,-2.5024414,-18.310547,11.169434,0.0,0.0,0.0,-20.368652,79.749756,-31.338501
1768033497373,-0.87890625,-0.095703125,0.20507812,-2.5024414,-18.310547,11.169434,0.0,0.0,0.0,-13.062744,78.76648,-23.71399
1768033497461,-1.0825195,-0.030273438,0.23242188,3.0517578,-12.329102,3.112793,0.0,0.0,0.0,-13.062744,78.76648,-23.71399
1768033497473,-1.0825195,-0.030273438,0.23242188,3.0517578,-12.329102,3.112793,0.0,0.0,0.0,-9.321899,77.629395,-19.82483
1768033497561,-0.91845703,-0.037109375,0.1953125,9.216309,-9.58252,0.61035156,0.0,0.0,0.0,-9.321899,77.629395,-19.82483
1768033497572,-0.91845703,-0.037109375,0.1953125,9.216309,-9.58252,0.61035156,0.0,0.0,0.0,-6.1523438,76.15723,-17.20459
1768033497660,-1.0141602,-0.037109375,0.22802734,5.554199,-0.36621094,-2.6245117,0.0,0.0,0.0,-6.1523438,76.15723,-17.20459
1768033497672,-1.0141602,-0.037109375,0.22802734,5.554199,-0.36621094,-2.6245117,0.0,0.0,0.0,-6.762085,75.99243,-18.918457
1768033497760,-0.9863281,-0.036132812,0.203125,9.70459,5.432129,-6.0424805,0.0,0.0,0.0,-6.762085,75.99243,-18.918457
1768033497772,-0.9863281,-0.036132812,0.203125,9.70459,5.432129,-6.0424805,0.0,0.0,0.0,-8.074951,76.28906,-21.115723
1768033497860,-1.0126953,-0.05810547,0.21240234,5.3710938,10.620117,-5.3710938,0.0,0.0,0.0,-8.074951,76.28906,-21.115723
1768033497871,-1.0126953,-0.05810547,0.21240234,5.3710938,10.620117,-5.3710938,0.0,0.0,0.0,-10.6073,77.211914,-24.417114
1768033497960,-1.0283203,-0.063964844,0.15625,3.0517578,4.5166016,-6.0424805,0.0,0.0,0.0,-10.6073,77.211914,-24.417114
1768033497972,-1.0283203,-0.063964844,0.15625,3.0517578,4.5166016,-6.0424805,0.0,0.0,0.0,-13.771362,77.75574,-28.026123
1768033498059,-0.97509766,-0.08886719,0.16259766,-2.0141602,0.6713867,-6.225586,0.0,0.0,0.0,-13.771362,77.75574,-28.026123
1768033498071,-0.97509766,-0.08886719,0.16259766,-2.0141602,0.6713867,-6.225586,0.0,0.0,0.0,-17.32544,78.17322,-31.541748
1768033498159,-0.96533203,-0.1015625,0.15820312,-7.446289,10.131836,-7.507324,0.0,0.0,0.0,-17.32544,78.17322,-31.541748
1768033498170,-0.96533203,-0.1015625,0.15820312,-7.446289,10.131836,-7.507324,0.0,0.0,0.0,-22.302246,78.48633,-36.123047
1768033498259,-0.98876953,-0.05908203,0.20361328,-12.756348,9.460449,-3.112793,0.0,0.0,0.0,-22.302246,78.48633,-36.123047
1768033498270,-0.98876953,-0.05908203,0.20361328,-12.756348,9.460449,-3.112793,0.0,0.0,0.0,-28.130493,79.151,-40.742798
1768033498358,-0.8588867,0.0087890625,0.24658203,-0.6713867,9.094238,-6.164551,0.0,0.0,0.0,-28.130493,79.151,-40.742798
1768033498370,-0.8588867,0.0087890625,0.24658203,-0.6713867,9.094238,-6.164551,0.0,0.0,0.0,-32.772217,79.59595,-44.626465
1768033498458,-1.0703125,-0.091796875,0.23925781,-1.8310547,-24.780273,3.2958984,0.0,0.0,0.0,-32.772217,79.59595,-44.626465
1768033498470,-1.0703125,-0.091796875,0.23925781,-1.8310547,-24.780273,3.2958984,0.0,0.0,0.0,-30.333252,79.04663,-42.32483
1768033498558,-0.93847656,-0.07470703,0.119628906,1.7089844,7.2021484,-5.92041,0.0,0.0,0.0,-30.333252,79.04663,-42.32483
1768033498569,-0.93847656,-0.07470703,0.119628906,1.7089844,7.2021484,-5.92041,0.0,0.0,0.0,-26.18042,77.55249,-37.990723
1768033498658,-0.9970703,-0.07128906,0.1796875,5.9814453,-12.756348,0.36621094,0.0,0.0,0.0,-26.18042,77.55249,-37.990723
1768033498669,-0.9970703,-0.07128906,0.1796875,5.9814453,-12.756348,0.36621094,0.0,0.0,0.0,-26.570435,77.547,-38.78174
1768033498757,-0.9760742,-0.10546875,0.16455078,-0.061035156,8.178711,-2.380371,0.0,0.0,0.0,-26.570435,77.547,-38.78174
1768033498769,-0.9760742,-0.10546875,0.16455078,-0.061035156,8.178711,-2.380371,0.0,0.0,0.0,-26.185913,77.420654,-38.69934
1768033498857,-1.0297852,-0.09082031,0.15820312,1.7089844,-4.211426,2.4414062,0.0,0.0,0.0,-26.185913,77.420654,-38.69934
1768033498869,-1.0297852,-0.09082031,0.15820312,1.7089844,-4.211426,2.4414062,0.0,0.0,0.0,-26.466064,77.612915,-38.935547
1768033498957,-1.003418,-0.10107422,0.16455078,-2.5634766,6.164551,2.9296875,0.0,0.0,0.0,-26.466064,77.612915,-38.935547
1768033498969,-1.003418,-0.10107422,0.16455078,-2.5634766,6.164551,2.9296875,0.0,0.0,0.0,-27.44934,78.27759,-39.940796
1768033499056,-0.9428711,-0.0546875,0.19091797,0.6713867,-8.666992,6.286621,0.0,0.0,0.0,-27.44934,78.27759,-39.940796
1768033499068,-0.9428711,-0.0546875,0.19091797,0.6713867,-8.666992,6.286621,0.0,0.0,0.0,-24.993896,78.343506,-37.128296
1768033499156,-1.0019531,-0.076660156,0.17041016,-3.0517578,-3.7841797,7.6904297,0.0,0.0,0.0,-24.993896,78.343506,-37.128296
1768033499167,-1.0019531,-0.076660156,0.17041016,-3.0517578,-3.7841797,7.6904297,0.0,0.0,0.0,-20.725708,77.92053,-32.695312
1768033499256,-0.9765625,-0.040039062,0.20410156,-3.2348633,3.1738281,7.873535,0.0,0.0,0.0,-20.725708,77.92053,-32.695312
1768033499267,-0.9765625,-0.040039062,0.20410156,-3.2348633,3.1738281,7.873535,0.0,0.0,0.0,-18.182373,78.480835,-29.6521
1768033499356,-0.95947266,-0.08300781,0.19677734,-1.7089844,2.9907227,5.554199,0.0,0.0,0.0,-18.182373,78.480835,-29.6521
1768033499367,-0.95947266,-0.08300781,0.19677734,-1.7089844,2.9907227,5.554199,0.0,0.0,0.0,-15.36438,78.826904,-26.488037
1768033499455,-0.97021484,-0.08251953,0.26660156,-1.2817383,-2.2583008,3.1738281,0.0,0.0,0.0,-15.36438,78.826904,-26.488037
1768033499467,-0.97021484,-0.08251953,0.26660156,-1.2817383,-2.2583008,3.1738281,0.0,0.0,0.0,-13.183594,78.986206,-24.038086
1768033499555,-0.94677734,0.00390625,0.13867188,2.6245117,-17.211914,5.6762695,0.0,0.0,0.0,-13.183594,78.986206,-24.038086
1768033499566,-0.94677734,0.00390625,0.13867188,2.6245117,-17.211914,5.6762695,0.0,0.0,0.0,-9.453735,77.266846,-20.214844
1768033499654,-0.9638672,-0.05517578,0.22607422,4.211426,1.8310547,-3.7841797,0.0,0.0,0.0,-9.453735,77.266846,-20.214844
1768033499666,-0.9638672,-0.05517578,0.22607422,4.211426,1.8310547,-3.7841797,0.0,0.0,0.0,-8.54187,77.0636,-19.82483
1768033499754,-0.98828125,-0.0107421875,0.19384766,5.79834,-0.91552734,-0.9765625,0.0,0.0,0.0,-8.54187,77.0636,-19.82483
1768033499766,-0.98828125,-0.0107421875,0.19384766,5.79834,-0.91552734,-0.9765625,0.0,0.0,0.0,-8.448486,76.66809,-20.12146
1768033499854,-0.9873047,-0.022949219,0.2397461,2.2583008,-0.24414062,-0.61035156,0.0,0.0,0.0,-8.448486,76.66809,-20.12146
1768033499865,-0.9873047,-0.022949219,0.2397461,2.2583008,-0.24414062,-0.61035156,0.0,0.0,0.0,-9.376831,77.1405,-21.599121
1768033499954,-1.0410156,-0.05810547,0.1616211,5.6152344,-0.5493164,-3.479004,0.0,0.0,0.0,-9.376831,77.1405,-21.599121
1768033499965,-1.0410156,-0.05810547,0.1616211,5.6152344,-0.5493164,-3.479004,0.0,0.0,0.0,-9.146118,76.92627,-21.741943
1768033500054,-0.9765625,-0.087890625,0.2163086,1.7700195,-5.004883,-4.638672,0.0,0.0,0.0,-9.146118,76.92627,-21.741943
1768033500065,-0.9765625,-0.087890625,0.2163086,1.7700195,-5.004883,-4.638672,0.0,0.0,0.0,-10.673218,77.23389,-23.812866
1768033500153,-0.9785156,-0.09863281,0.16845703,-3.2958984,-0.48828125,-3.6010742,0.0,0.0,0.0,-10.673218,77.23389,-23.812866
1768033500165,-0.9785156,-0.09863281,0.16845703,-3.2958984,-0.48828125,-3.6010742,0.0,0.0,0.0,-11.694946,76.327515,-24.845581
1768033500253,-0.96777344,-0.06640625,0.24169922,-4.760742,10.375977,-7.019043,0.0,0.0,0.0,-11.694946,76.327515,-24.845581
1768033500264,-0.96777344,-0.06640625,0.24169922,-4.760742,10.375977,-7.019043,0.0,0.0,0.0,-15.408325,76.95923,-28.251343
1768033500352,-0.92822266,-0.027832031,0.26416016,0.5493164,3.0517578,-8.972168,0.0,0.0,0.0,-15.408325,76.95923,-28.251343
1768033500364,-0.92822266,-0.027832031,0.26416016,0.5493164,3.0517578,-8.972168,0.0,0.0,0.0,-20.297241,77.3822,-33.145752
1768033500452,-0.9453125,-0.020996094,0.29736328,6.164551,5.554199,-6.3476562,0.0,0.0,0.0,-20.297241,77.3822,-33.145752
1768033500464,-0.9453125,-0.020996094,0.29736328,6.164551,5.554199,-6.3476562,0.0,0.0,0.0,-23.131714,77.178955,-36.37024
1768033500552,-0.9682617,-0.11376953,0.16699219,0.48828125,-26.428223,2.4414062,0.0,0.0,0.0,-23.131714,77.178955,-36.37024
1768033500583,-0.9682617,-0.11376953,0.16699219,0.48828125,-26.428223,2.4414062,0.0,0.0,0.0,-20.159912,75.91553,-33.519287
1768033500651,-0.9638672,-0.051757812,0.22314453,1.5258789,3.9672852,-1.3427734,0.0,0.0,0.0,-20.159912,75.91553,-33.519287
1768033500663,-0.9638672,-0.051757812,0.22314453,1.5258789,3.9672852,-1.3427734,0.0,0.0,0.0,-19.698486,75.322266,-33.222656
1768033500751,-0.9868164,-0.08496094,0.18164062,-0.8544922,-2.380371,0.061035156,0.0,0.0,0.0,-19.698486,75.322266,-33.222656
1768033500763,-0.9868164,-0.08496094,0.18164062,-0.8544922,-2.380371,0.061035156,0.0,0.0,0.0,-19.281006,75.09155,-32.887573
1768033500851,-0.9946289,-0.087402344,0.23583984,-3.540039,2.0141602,0.18310547,0.0,0.0,0.0,-19.281006,75.09155,-32.887573
1768033500862,-0.9946289,-0.087402344,0.23583984,-3.540039,2.0141602,0.18310547,0.0,0.0,0.0,-20.126953,75.59143,-33.607178
1768033500951,-1.0263672,-0.08496094,0.17578125,-1.0375977,4.8828125,0.0,0.0,0.0,0.0,-20.126953,75.59143,-33.607178
1768033500962,-1.0263672,-0.08496094,0.17578125,-1.0375977,4.8828125,0.0,0.0,0.0,0.0,-20.55542,75.78369,-33.953247
1768033501050,-0.96777344,-0.03173828,0.21972656,-4.333496,12.878418,0.48828125,0.0,0.0,0.0,-20.55542,75.78369,-33.953247
1768033501062,-0.96777344,-0.03173828,0.21972656,-4.333496,12.878418,0.48828125,0.0,0.0,0.0,-23.12622,77.18994,-36.205444
1768033501150,-0.9902344,-0.07910156,0.19921875,1.2817383,-9.887695,4.760742,0.0,0.0,0.0,-23.12622,77.18994,-36.205444
1768033501161,-0.9902344,-0.07910156,0.19921875,1.2817383,-9.887695,4.760742,0.0,0.0,0.0,-19.813843,76.970215,-32.766724
1768033501250,-1.0009766,-0.038085938,0.19580078,-3.3569336,7.751465,6.4086914,0.0,0.0,0.0,-19.813843,76.970215,-32.766724
1768033501261,-1.0009766,-0.038085938,0.19580078,-3.3569336,7.751465,6.4086914,0.0,0.0,0.0,-17.30896,77.195435,-30.108032
1768033501349,-0.9111328,-0.084472656,0.23779297,2.9907227,-4.4555664,4.0283203,0.0,0.0,0.0,-17.30896,77.195435,-30.108032
1768033501361,-0.9111328,-0.084472656,0.23779297,2.9907227,-4.4555664,4.0283203,0.0,0.0,0.0,-15.270996,77.44263,-28.256836
1768033501449,-0.9633789,-0.103515625,0.27294922,-6.7749023,-5.432129,5.3100586,0.0,0.0,0.0,-15.270996,77.44263,-28.256836
1768033501460,-0.9633789,-0.103515625,0.27294922,-6.7749023,-5.432129,5.3100586,0.0,0.0,0.0,-12.952881,76.8988,-25.620117
1768033501549,-0.9584961,-4.8828125E-4,0.18652344,-0.7324219,-13.061523,4.699707,0.0,0.0,0.0,-12.952881,76.8988,-25.620117
1768033501560,-0.9584961,-4.8828125E-4,0.18652344,-0.7324219,-13.061523,4.699707,0.0,0.0,0.0,-10.063477,75.44861,-22.39563
1768033501648,-0.9663086,-0.0546875,0.24609375,-0.061035156,-2.0751953,0.61035156,0.0,0.0,0.0,-10.063477,75.44861,-22.39563
1768033501660,-0.9663086,-0.0546875,0.24609375,-0.061035156,-2.0751953,0.61035156,0.0,0.0,0.0,-9.558105,75.33325,-22.159424
1768033501748,-0.9770508,-0.040039062,0.23535156,2.746582,4.638672,0.18310547,0.0,0.0,0.0,-9.558105,75.33325,-22.159424
1768033501760,-0.9770508,-0.040039062,0.23535156,2.746582,4.638672,0.18310547,0.0,0.0,0.0,-9.036255,75.38269,-21.846313
1768033501848,-0.9746094,-0.048828125,0.2578125,-0.61035156,7.6904297,0.7324219,0.0,0.0,0.0,-9.036255,75.38269,-21.846313
1768033501859,-0.9746094,-0.048828125,0.2578125,-0.61035156,7.6904297,0.7324219,0.0,0.0,0.0,-9.415283,76.00891,-22.609863
1768033501948,-1.0209961,-0.04638672,0.18945312,-1.5258789,-4.3945312,1.159668,0.0,0.0,0.0,-9.415283,76.00891,-22.609863
1768033501959,-1.0209961,-0.04638672,0.18945312,-1.5258789,-4.3945312,1.159668,0.0,0.0,0.0,-9.338379,76.069336,-22.428589
1768033502047,-1.0205078,-0.07519531,0.19091797,-3.8452148,4.638672,-0.91552734,0.0,0.0,0.0,-9.338379,76.069336,-22.428589
1768033502059,-1.0205078,-0.07519531,0.19091797,-3.8452148,4.638672,-0.91552734,0.0,0.0,0.0,-9.810791,76.54724,-22.763672
1768033502147,-0.96972656,-0.10058594,0.1772461,-3.9672852,2.9907227,-4.638672,0.0,0.0,0.0,-9.810791,76.54724,-22.763672
1768033502159,-0.96972656,-0.10058594,0.1772461,-3.9672852,2.9907227,-4.638672,0.0,0.0,0.0,-11.727905,76.6626,-24.483032
1768033502247,-0.9589844,-0.05859375,0.23876953,-8.544922,16.296387,-7.507324,0.0,0.0,0.0,-11.727905,76.6626,-24.483032
1768033502259,-0.9589844,-0.05859375,0.23876953,-8.544922,16.296387,-7.507324,0.0,0.0,0.0,-17.001343,77.64038,-29.207153
1768033502346,-0.88427734,-0.008300781,0.28857422,0.24414062,3.7841797,-8.422852,0.0,0.0,0.0,-17.001343,77.64038,-29.207153
1768033502358,-0.88427734,-0.008300781,0.28857422,0.24414062,3.7841797,-8.422852,0.0,0.0,0.0,-22.434082,78.359985,-34.348755
1768033502446,-1.0400391,-0.03466797,0.25341797,1.4038086,-14.892578,-2.9296875,0.0,0.0,0.0,-22.434082,78.359985,-34.348755
1768033502457,-1.0400391,-0.03466797,0.25341797,1.4038086,-14.892578,-2.9296875,0.0,0.0,0.0,-22.758179,77.43164,-34.903564
1768033502546,-0.92333984,-0.09863281,0.14697266,6.652832,1.0986328,-8.056641,0.0,0.0,0.0,-22.758179,77.43164,-34.903564
1768033502557,-0.92333984,-0.09863281,0.14697266,6.652832,1.0986328,-8.056641,0.0,0.0,0.0,-20.714722,75.99243,-33.26111
1768033502645,-0.99121094,-0.06689453,0.21582031,1.0986328,-6.3476562,-0.24414062,0.0,0.0,0.0,-20.714722,75.99243,-33.26111
1768033502657,-0.99121094,-0.06689453,0.21582031,1.0986328,-6.3476562,-0.24414062,0.0,0.0,0.0,-22.450562,76.03638,-35.64514
1768033502745,-0.97998047,-0.10644531,0.1899414,-1.6479492,6.7749023,1.0986328,0.0,0.0,0.0,-22.450562,76.03638,-35.64514
1768033502757,-0.97998047,-0.10644531,0.1899414,-1.6479492,6.7749023,1.0986328,0.0,0.0,0.0,-21.813354,76.06384,-34.920044
1768033502845,-0.99560547,-0.103515625,0.20703125,-3.6621094,-1.7089844,2.5024414,0.0,0.0,0.0,-21.813354,76.06384,-34.920044
1768033502856,-0.99560547,-0.103515625,0.20703125,-3.6621094,-1.7089844,2.5024414,0.0,0.0,0.0,-22.005615,76.45935,-34.766235
1768033502945,-1.0307617,-0.08544922,0.16113281,-8.361816,2.5024414,3.7841797,0.0,0.0,0.0,-22.005615,76.45935,-34.766235
1768033502956,-1.0307617,-0.08544922,0.16113281,-8.361816,2.5024414,3.7841797,0.0,0.0,0.0,-21.956177,76.59668,-33.980713
1768033503044,-0.95654297,-0.024414062,0.23046875,-2.1972656,-0.8544922,4.760742,0.0,0.0,0.0,-21.956177,76.59668,-33.980713
1768033503056,-0.95654297,-0.024414062,0.23046875,-2.1972656,-0.8544922,4.760742,0.0,0.0,0.0,-21.725464,77.21741,-33.00293
1768033503144,-1.0385742,-0.08935547,0.17626953,-3.9672852,0.0,5.2490234,0.0,0.0,0.0,-21.725464,77.21741,-33.00293
1768033503155,-1.0385742,-0.08935547,0.17626953,-3.9672852,0.0,5.2490234,0.0,0.0,0.0,-19.06128,77.003174,-30.058594
1768033503244,-0.9682617,-0.0546875,0.22460938,-6.8359375,7.2021484,5.9814453,0.0,0.0,0.0,-19.06128,77.003174,-30.058594
1768033503255,-0.9682617,-0.0546875,0.22460938,-6.8359375,7.2021484,5.9814453,0.0,0.0,0.0,-18.391113,78.07434,-28.624878
1768033503343,-0.8544922,-0.09423828,0.2290039,-2.6245117,-2.9907227,5.004883,0.0,0.0,0.0,-18.391113,78.07434,-28.624878
1768033503355,-0.8544922,-0.09423828,0.2290039,-2.6245117,-2.9907227,5.004883,0.0,0.0,0.0,-16.177368,78.33252,-25.878296
1768033503443,-1.0546875,-0.010253906,0.24267578,1.159668,-14.038086,2.5634766,0.0,0.0,0.0,-16.177368,78.33252,-25.878296
1768033503455,-1.0546875,-0.010253906,0.24267578,1.159668,-14.038086,2.5634766,0.0,0.0,0.0,-14.177856,77.76123,-23.532715
1768033503543,-0.90771484,-0.03564453,0.20117188,10.498047,-4.0283203,0.0,0.0,0.0,0.0,-14.177856,77.76123,-23.532715
1768033503554,-0.90771484,-0.03564453,0.20117188,10.498047,-4.0283203,0.0,0.0,0.0,0.0,-10.27771,76.3385,-20.132446
1768033503643,-1.0063477,-0.05126953,0.25097656,4.0283203,-9.216309,0.61035156,0.0,0.0,0.0,-10.27771,76.3385,-20.132446
1768033503654,-1.0063477,-0.05126953,0.25097656,4.0283203,-9.216309,0.61035156,0.0,0.0,0.0,-10.546875,76.05835,-21.54419
1768033503742,-0.97216797,-0.05859375,0.19824219,6.3476562,5.126953,-1.3427734,0.0,0.0,0.0,-10.546875,76.05835,-21.54419
1768033503754,-0.97216797,-0.05859375,0.19824219,6.3476562,5.126953,-1.3427734,0.0,0.0,0.0,-9.277954,75.65735,-20.983887
1768033503842,-1.0009766,-0.072265625,0.234375,-3.7841797,5.126953,4.333496,0.0,0.0,0.0,-9.277954,75.65735,-20.983887
1768033503854,-1.0009766,-0.072265625,0.234375,-3.7841797,5.126953,4.333496,0.0,0.0,0.0,-9.195557,76.49231,-21.022339
1768033503942,-1.0258789,-0.045898438,0.15136719,-2.9296875,3.479004,4.0893555,0.0,0.0,0.0,-9.195557,76.49231,-21.022339
1768033503953,-1.0258789,-0.045898438,0.15136719,-2.9296875,3.479004,4.0893555,0.0,0.0,0.0,-8.168335,76.76697,-19.682007
1768033504041,-0.99902344,-0.056152344,0.20458984,-7.5683594,-4.5776367,4.1503906,0.0,0.0,0.0,-8.168335,76.76697,-19.682007
1768033504053,-0.99902344,-0.056152344,0.20458984,-7.5683594,-4.5776367,4.1503906,0.0,0.0,0.0,-7.602539,77.420654,-18.737183
1768033504141,-0.9663086,-0.07519531,0.1821289,-5.92041,0.24414062,-2.5024414,0.0,0.0,0.0,-7.602539,77.420654,-18.737183
1768033504153,-0.9663086,-0.07519531,0.1821289,-5.92041,0.24414062,-2.5024414,0.0,0.0,0.0,-7.761841,77.178955,-18.341675
1768033504241,-0.984375,-0.044433594,0.22363281,-6.3476562,9.765625,-6.652832,0.0,0.0,0.0,-7.761841,77.178955,-18.341675
1768033504252,-0.984375,-0.044433594,0.22363281,-6.3476562,9.765625,-6.652832,0.0,0.0,0.0,-11.453247,77.684326,-21.494751
1768033504341,-0.92529297,-0.018554688,0.27929688,-3.0517578,4.5776367,-6.591797,0.0,0.0,0.0,-11.453247,77.684326,-21.494751
1768033504353,-0.92529297,-0.018554688,0.27929688,-3.0517578,4.5776367,-6.591797,0.0,0.0,0.0,-15.946655,78.272095,-25.631104
1768033504440,-0.94189453,-0.009277344,0.27441406,9.887695,-1.2817383,-7.019043,0.0,0.0,0.0,-15.946655,78.272095,-25.631104
1768033504452,-0.94189453,-0.009277344,0.27441406,9.887695,-1.2817383,-7.019043,0.0,0.0,0.0,-18.308716,77.88208,-28.465576
1768033504540,-0.9848633,-0.08984375,0.16259766,5.9814453,-13.793945,-5.1879883,0.0,0.0,0.0,-18.308716,77.88208,-28.465576
1768033504551,-0.9848633,-0.08984375,0.16259766,5.9814453,-13.793945,-5.1879883,0.0,0.0,0.0,-17.127686,76.61316,-27.767944
1768033504640,-0.94921875,-0.034179688,0.22167969,9.094238,2.2583008,-7.446289,0.0,0.0,0.0,-17.127686,76.61316,-27.767944
1768033504651,-0.94921875,-0.034179688,0.22167969,9.094238,2.2583008,-7.446289,0.0,0.0,0.0,-19.033813,76.311035,-30.514526
1768033504739,-0.9868164,-0.072265625,0.19677734,1.5869141,1.7089844,-0.48828125,0.0,0.0,0.0,-19.033813,76.311035,-30.514526
1768033504751,-0.9868164,-0.072265625,0.19677734,1.5869141,1.7089844,-0.48828125,0.0,0.0,0.0,-19.017334,76.06384,-30.986938
1768033504839,-0.9941406,-0.07714844,0.19335938,-2.9296875,3.112793,2.0141602,0.0,0.0,0.0,-19.017334,76.06384,-30.986938
1768033504851,-0.9941406,-0.07714844,0.19335938,-2.9296875,3.112793,2.0141602,0.0,0.0,0.0,-19.143677,76.503296,-31.173706
1768033504939,-1.0073242,-0.060058594,0.1899414,-4.272461,8.911133,2.319336,0.0,0.0,0.0,-19.143677,76.503296,-31.173706
1768033504950,-1.0073242,-0.060058594,0.1899414,-4.272461,8.911133,2.319336,0.0,0.0,0.0,-19.758911,77.31079,-31.552734
1768033505038,-0.9707031,0.001953125,0.18310547,-2.5634766,3.540039,3.6010742,0.0,0.0,0.0,-19.758911,77.31079,-31.552734
1768033505050,-0.9707031,0.001953125,0.18310547,-2.5634766,3.540039,3.6010742,0.0,0.0,0.0,-20.03357,78.16223,-31.442871
1768033505138,-1.0078125,-0.05859375,0.17089844,5.859375,-3.1738281,1.7089844,0.0,0.0,0.0,-20.03357,78.16223,-31.442871
1768033505150,-1.0078125,-0.05859375,0.17089844,5.859375,-3.1738281,1.7089844,0.0,0.0,0.0,-16.902466,77.975464,-28.547974
1768033505238,-1.0131836,-0.04248047,0.1796875,3.7231445,6.958008,3.0517578,0.0,0.0,0.0,-16.902466,77.975464,-28.547974
1768033505249,-1.0131836,-0.04248047,0.1796875,3.7231445,6.958008,3.0517578,0.0,0.0,0.0,-15.7873535,78.4259,-27.77893
1768033505338,-0.93652344,-0.099609375,0.2084961,10.681152,-4.760742,-0.6713867,0.0,0.0,0.0,-15.7873535,78.4259,-27.77893
1768033505349,-0.93652344,-0.099609375,0.2084961,10.681152,-4.760742,-0.6713867,0.0,0.0,0.0,-14.551392,78.4259,-27.27356
1768033505437,-0.94921875,-0.10888672,0.24267578,-5.79834,-2.6245117,5.065918,0.0,0.0,0.0,-14.551392,78.4259,-27.27356
1768033505449,-0.94921875,-0.10888672,0.24267578,-5.79834,-2.6245117,5.065918,0.0,0.0,0.0,-14.0625,78.04138,-26.905518
1768033505537,-0.9355469,0.001953125,0.18017578,-4.5776367,-22.277832,7.385254,0.0,0.0,0.0,-14.0625,78.04138,-26.905518
1768033505548,-0.9355469,0.001953125,0.18017578,-4.5776367,-22.277832,7.385254,0.0,0.0,0.0,-10.673218,76.294556,-22.769165
1768033505637,-0.97265625,-0.053710938,0.24853516,-6.1035156,-3.1738281,1.8920898,0.0,0.0,0.0,-10.673218,76.294556,-22.769165
1768033505648,-0.97265625,-0.053710938,0.24853516,-6.1035156,-3.1738281,1.8920898,0.0,0.0,0.0,-9.420776,75.95398,-21.022339
1768033505736,-0.99121094,0.0063476562,0.2397461,-0.18310547,0.0,3.8452148,0.0,0.0,0.0,-9.420776,75.95398,-21.022339
1768033505748,-0.99121094,0.0063476562,0.2397461,-0.18310547,0.0,3.8452148,0.0,0.0,0.0,-7.3223877,75.58594,-18.50647
1768033505836,-0.97314453,-0.03125,0.2397461,-0.4272461,2.380371,2.380371,0.0,0.0,0.0,-7.3223877,75.58594,-18.50647
1768033505848,-0.97314453,-0.03125,0.2397461,-0.4272461,2.380371,2.380371,0.0,0.0,0.0,-6.2786865,75.79468,-17.803345
1768033505936,-1.0092773,-0.04736328,0.2290039,2.9907227,-3.7231445,0.0,0.0,0.0,0.0,-6.2786865,75.79468,-17.803345
1768033505947,-1.0092773,-0.04736328,0.2290039,2.9907227,-3.7231445,0.0,0.0,0.0,0.0,-5.6414795,75.88806,-17.407837
1768033506035,-1.0039062,-0.047851562,0.22070312,0.061035156,5.554199,-1.7089844,0.0,0.0,0.0,-5.6414795,75.88806,-17.407837
1768033506047,-1.0039062,-0.047851562,0.22070312,0.061035156,5.554199,-1.7089844,0.0,0.0,0.0,-6.0809326,76.08032,-18.204346
1768033506135,-0.96435547,-0.07519531,0.19921875,0.48828125,-5.432129,-3.90625,0.0,0.0,0.0,-6.0809326,76.08032,-18.204346
1768033506147,-0.96435547,-0.07519531,0.19921875,0.48828125,-5.432129,-3.90625,0.0,0.0,0.0,-6.9104004,75.67932,-19.099731
1768033506235,-0.98876953,-0.041015625,0.22509766,-0.61035156,10.131836,-7.385254,0.0,0.0,0.0,-6.9104004,75.67932,-19.099731
1768033506246,-0.98876953,-0.041015625,0.22509766,-0.61035156,10.131836,-7.385254,0.0,0.0,0.0,-9.975586,76.06384,-22.318726
1768033506335,-0.94873047,-0.055664062,0.27001953,2.0141602,10.253906,-9.765625,0.0,0.0,0.0,-9.975586,76.06384,-22.318726
1768033506346,-0.94873047,-0.055664062,0.27001953,2.0141602,10.253906,-9.765625,0.0,0.0,0.0,-14.622803,76.94824,-27.235107
1768033506434,-0.88134766,-9.765625E-4,0.28710938,5.004883,3.9672852,-7.3242188,0.0,0.0,0.0,-14.622803,76.94824,-27.235107
1768033506446,-0.88134766,-9.765625E-4,0.28710938,5.004883,3.9672852,-7.3242188,0.0,0.0,0.0,-17.929688,76.94275,-30.893555
1768033506534,-1.0258789,-0.0859375,0.2109375,-4.3945312,-27.58789,1.4648438,0.0,0.0,0.0,-17.929688,76.94275,-30.893555
1768033506545,-1.0258789,-0.0859375,0.2109375,-4.3945312,-27.58789,1.4648438,0.0,0.0,0.0,-17.297974,75.964966,-30.59143
1768033506634,-0.9458008,-0.049804688,0.22070312,6.652832,9.58252,-7.8125,0.0,0.0,0.0,-17.297974,75.964966,-30.59143
1768033506646,-0.9458008,-0.049804688,0.22070312,6.652832,9.58252,-7.8125,0.0,0.0,0.0,-17.70996,75.22339,-31.486816
1768033506733,-0.9863281,-0.056640625,0.22460938,-1.7700195,-1.4648438,0.91552734,0.0,0.0,0.0,-17.70996,75.22339,-31.486816
