timestamp,accX,accY,accZ,gyroX,gyroY,gyroZ,magX,magY,magZ,roll,pitch,yaw
1765377824337,-0.8173828,-0.60009766,0.2607422,-53.16162,-14.953613,11.230469,0.0,0.0,0.0,-63.43506,51.43799,-32.36023
1765377824351,-0.8173828,-0.60009766,0.2607422,-53.16162,-14.953613,11.230469,0.0,0.0,0.0,-69.971924,51.015015,-37.128296
1765377824437,-0.69921875,-0.3466797,0.28564453,7.446289,-44.98291,17.150879,0.0,0.0,0.0,-69.971924,51.015015,-37.128296
1765377824448,-0.69921875,-0.3466797,0.28564453,7.446289,-44.98291,17.150879,0.0,0.0,0.0,-66.5332,51.416016,-29.190674
1765377824536,-0.92871094,-0.68115234,0.3383789,15.563965,-3.2958984,-33.447266,0.0,0.0,0.0,-66.5332,51.416016,-29.190674
1765377824548,-0.92871094,-0.68115234,0.3383789,15.563965,-3.2958984,-33.447266,0.0,0.0,0.0,-63.36914,49.987793,-26.867065
1765377824636,-0.73046875,-0.45898438,0.12841797,13.671875,45.22705,-4.4555664,0.0,0.0,0.0,-63.36914,49.987793,-26.867065
1765377824648,-0.73046875,-0.45898438,0.12841797,13.671875,45.22705,-4.4555664,0.0,0.0,0.0,-63.36914,48.966064,-30.536499
1765377824737,-0.84033203,-0.6113281,0.22314453,-23.864746,-33.325195,8.666992,0.0,0.0,0.0,-63.36914,48.966064,-30.536499
1765377824748,-0.84033203,-0.6113281,0.22314453,-23.864746,-33.325195,8.666992,0.0,0.0,0.0,-65.00061,50.218506,-32.08008
1765377824836,-0.9941406,-0.78271484,0.41503906,-31.799316,31.982422,9.643555,0.0,0.0,0.0,-65.00061,50.218506,-32.08008
1765377824847,-0.9941406,-0.78271484,0.41503906,-31.799316,31.982422,9.643555,0.0,0.0,0.0,-67.961426,51.33362,-31.959229
1765377824935,-0.43945312,-0.32226562,0.16308594,30.334473,-24.841309,8.605957,0.0,0.0,0.0,-67.961426,51.33362,-31.959229
1765377824947,-0.43945312,-0.32226562,0.16308594,30.334473,-24.841309,8.605957,0.0,0.0,0.0,-67.1814,52.097168,-32.43164
1765377825035,-1.0112305,-0.80029297,0.3046875,-9.521484,-27.09961,23.07129,0.0,0.0,0.0,-67.1814,52.097168,-32.43164
1765377825046,-1.0112305,-0.80029297,0.3046875,-9.521484,-27.09961,23.07129,0.0,0.0,0.0,-62.44629,52.30591,-26.674805
1765377825135,-0.7216797,-0.54052734,0.2578125,0.9765625,12.023926,0.12207031,0.0,0.0,0.0,-62.44629,52.30591,-26.674805
1765377825146,-0.7216797,-0.54052734,0.2578125,0.9765625,12.023926,0.12207031,0.0,0.0,0.0,-60.91919,52.28943,-24.702759
1765377825235,-0.75634766,-0.6538086,0.18847656,-14.6484375,9.94873,-11.901855,0.0,0.0,0.0,-60.91919,52.28943,-24.702759
1765377825246,-0.75634766,-0.6538086,0.18847656,-14.6484375,9.94873,-11.901855,0.0,0.0,0.0,-63.808594,52.51465,-27.888794
1765377825334,-0.86865234,-0.6479492,0.36035156,-29.23584,-8.483887,-2.0751953,0.0,0.0,0.0,-63.808594,52.51465,-27.888794
1765377825346,-0.86865234,-0.6479492,0.36035156,-29.23584,-8.483887,-2.0751953,0.0,0.0,0.0,-66.868286,51.635742,-28.718262
1765377825434,-0.5498047,-0.32861328,0.24902344,19.470215,-44.6167,-5.6152344,0.0,0.0,0.0,-66.868286,51.635742,-28.718262
1765377825446,-0.5498047,-0.32861328,0.24902344,19.470215,-44.6167,-5.6152344,0.0,0.0,0.0,-63.4021,50.108643,-24.082031
1765377825534,-1.012207,-0.60839844,0.42822266,-4.1503906,-16.235352,-6.4697266,0.0,0.0,0.0,-63.4021,50.108643,-24.082031
1765377825545,-1.012207,-0.60839844,0.42822266,-4.1503906,-16.235352,-6.4697266,0.0,0.0,0.0,-61.045532,48.048706,-21.099243
1765377825633,-0.7661133,-0.4038086,0.234375,13.793945,17.456055,-7.5683594,0.0,0.0,0.0,-61.045532,48.048706,-21.099243
1765377825645,-0.7661133,-0.4038086,0.234375,13.793945,17.456055,-7.5683594,0.0,0.0,0.0,-59.60083,47.77954,-22.368164
1765377825733,-0.80859375,-0.5419922,0.40039062,4.8217773,13.122559,6.8359375,0.0,0.0,0.0,-59.60083,47.77954,-22.368164
1765377825745,-0.80859375,-0.5419922,0.40039062,4.8217773,13.122559,6.8359375,0.0,0.0,0.0,-60.655518,49.608765,-25.136719
1765377825833,-0.5522461,-0.51123047,0.30419922,7.507324,8.7890625,9.58252,0.0,0.0,0.0,-60.655518,49.608765,-25.136719
1765377825844,-0.5522461,-0.51123047,0.30419922,7.507324,8.7890625,9.58252,0.0,0.0,0.0,-60.441284,50.251465,-25.817871
1765377825933,-0.8496094,-0.7631836,0.5151367,-8.056641,-54.56543,19.89746,0.0,0.0,0.0,-60.441284,50.251465,-25.817871
1765377825944,-0.8496094,-0.7631836,0.5151367,-8.056641,-54.56543,19.89746,0.0,0.0,0.0,-58.513184,50.767822,-19.830322
1765377826032,-0.8515625,-0.44433594,0.1821289,18.005371,25.32959,24.658203,0.0,0.0,0.0,-58.513184,50.767822,-19.830322
1765377826044,-0.8515625,-0.44433594,0.1821289,18.005371,25.32959,24.658203,0.0,0.0,0.0,-54.448242,50.663452,-14.276733
1765377826133,-0.6015625,-0.7246094,0.4165039,15.197754,34.5459,-28.442383,0.0,0.0,0.0,-54.448242,50.663452,-14.276733
1765377826144,-0.6015625,-0.7246094,0.4165039,15.197754,34.5459,-28.442383,0.0,0.0,0.0,-57.211304,52.608032,-19.973145
1765377826232,-0.9501953,-0.57666016,0.06347656,-15.319824,58.22754,-17.089844,0.0,0.0,0.0,-57.211304,52.608032,-19.973145
1765377826243,-0.9501953,-0.57666016,0.06347656,-15.319824,58.22754,-17.089844,0.0,0.0,0.0,-65.0061,51.833496,-29.745483
1765377826332,-0.7285156,-0.49804688,0.49169922,-5.859375,-51.757812,15.014648,0.0,0.0,0.0,-65.0061,51.833496,-29.745483
1765377826343,-0.7285156,-0.49804688,0.49169922,-5.859375,-51.757812,15.014648,0.0,0.0,0.0,-64.03381,52.52014,-25.60913
1765377826431,-0.7446289,-0.4428711,0.20410156,6.286621,4.699707,-31.677246,0.0,0.0,0.0,-64.03381,52.52014,-25.60913
1765377826443,-0.7446289,-0.4428711,0.20410156,6.286621,4.699707,-31.677246,0.0,0.0,0.0,-61.309204,49.954834,-24.603882
1765377826531,-0.7475586,-0.671875,0.2763672,41.870117,34.240723,-31.433105,0.0,0.0,0.0,-61.309204,49.954834,-24.603882
1765377826543,-0.7475586,-0.671875,0.2763672,41.870117,34.240723,-31.433105,0.0,0.0,0.0,-61.446533,48.75183,-28.520508
1765377826631,-0.8066406,-0.52246094,0.22802734,-4.8828125,15.258789,-13.61084,0.0,0.0,0.0,-61.446533,48.75183,-28.520508
1765377826642,-0.8066406,-0.52246094,0.22802734,-4.8828125,15.258789,-13.61084,0.0,0.0,0.0,-65.52246,47.872925,-36.07361
1765377826730,-0.8642578,-0.64941406,0.21777344,-56.030273,-33.935547,46.691895,0.0,0.0,0.0,-65.52246,47.872925,-36.07361
1765377826742,-0.8642578,-0.64941406,0.21777344,-56.030273,-33.935547,46.691895,0.0,0.0,0.0,-64.53369,49.46045,-29.432373
1765377826830,-0.64208984,-0.44433594,0.34814453,15.380859,-30.578613,20.324707,0.0,0.0,0.0,-64.53369,49.46045,-29.432373
1765377826842,-0.64208984,-0.44433594,0.34814453,15.380859,-30.578613,20.324707,0.0,0.0,0.0,-64.39636,51.56433,-25.845337
1765377826930,-0.7553711,-0.6118164,0.27441406,4.5166016,-24.353027,2.5634766,0.0,0.0,0.0,-64.39636,51.56433,-25.845337
1765377826941,-0.7553711,-0.6118164,0.27441406,4.5166016,-24.353027,2.5634766,0.0,0.0,0.0,-57.81555,50.85022,-20.011597
1765377827030,-0.80615234,-0.5234375,0.23242188,1.159668,12.390137,4.699707,0.0,0.0,0.0,-57.81555,50.85022,-20.011597
1765377827041,-0.80615234,-0.5234375,0.23242188,1.159668,12.390137,4.699707,0.0,0.0,0.0,-57.04651,50.663452,-19.967651
1765377827129,-0.7475586,-0.6503906,0.27734375,19.89746,22.827148,-11.657715,0.0,0.0,0.0,-57.04651,50.663452,-19.967651
1765377827141,-0.7475586,-0.6503906,0.27734375,19.89746,22.827148,-11.657715,0.0,0.0,0.0,-58.36487,51.2677,-23.016357
1765377827230,-0.7871094,-0.5917969,0.39013672,-13.73291,43.640137,-9.460449,0.0,0.0,0.0,-58.36487,51.2677,-23.016357
1765377827241,-0.7871094,-0.5917969,0.39013672,-13.73291,43.640137,-9.460449,0.0,0.0,0.0,-64.35242,51.860962,-31.135254
1765377827329,-0.5307617,-0.4555664,0.23095703,10.070801,-31.555176,-4.8217773,0.0,0.0,0.0,-64.35242,51.860962,-31.135254
1765377827340,-0.5307617,-0.4555664,0.23095703,10.070801,-31.555176,-4.8217773,0.0,0.0,0.0,-62.528687,51.32263,-27.921753
1765377827429,-1.0273438,-0.7089844,0.4638672,23.31543,-1.7700195,-24.108887,0.0,0.0,0.0,-62.528687,51.32263,-27.921753
1765377827440,-1.0273438,-0.7089844,0.4638672,23.31543,-1.7700195,-24.108887,0.0,0.0,0.0,-63.588867,48.482666,-29.245605
1765377827528,-0.6743164,-0.4296875,0.16210938,-22.888184,-8.178711,14.221191,0.0,0.0,0.0,-63.588867,48.482666,-29.245605
1765377827540,-0.6743164,-0.4296875,0.16210938,-22.888184,-8.178711,14.221191,0.0,0.0,0.0,-62.072754,47.993774,-28.839111
1765377827628,-0.8881836,-0.47998047,0.26953125,-33.447266,-21.1792,33.325195,0.0,0.0,0.0,-62.072754,47.993774,-28.839111
1765377827639,-0.8881836,-0.47998047,0.26953125,-33.447266,-21.1792,33.325195,0.0,0.0,0.0,-61.419067,49.37805,-23.90625
1765377827728,-0.71972656,-0.5751953,0.32617188,-9.70459,20.446777,9.58252,0.0,0.0,0.0,-61.419067,49.37805,-23.90625
1765377827739,-0.71972656,-0.5751953,0.32617188,-9.70459,20.446777,9.58252,0.0,0.0,0.0,-63.533936,52.388306,-23.510742
1765377827827,-0.58935547,-0.34960938,0.17871094,31.61621,-25.57373,-8.7890625,0.0,0.0,0.0,-63.533936,52.388306,-23.510742
1765377827839,-0.58935547,-0.34960938,0.17871094,31.61621,-25.57373,-8.7890625,0.0,0.0,0.0,-62.391357,51.95984,-23.620605
1765377827927,-1.0253906,-0.7011719,0.34326172,19.470215,-26.794434,13.549805,0.0,0.0,0.0,-62.391357,51.95984,-23.620605
1765377827939,-1.0253906,-0.7011719,0.34326172,19.470215,-26.794434,13.549805,0.0,0.0,0.0,-56.173096,50.83374,-18.308716
1765377828027,-0.6352539,-0.54541016,0.2705078,11.413574,29.541016,-13.61084,0.0,0.0,0.0,-56.173096,50.83374,-18.308716
1765377828038,-0.6352539,-0.54541016,0.2705078,11.413574,29.541016,-13.61084,0.0,0.0,0.0,-54.805298,50.339355,-19.676514
1765377828127,-0.69873047,-0.640625,0.27490234,-5.3100586,32.104492,-21.118164,0.0,0.0,0.0,-54.805298,50.339355,-19.676514
1765377828138,-0.69873047,-0.640625,0.27490234,-5.3100586,32.104492,-21.118164,0.0,0.0,0.0,-59.974365,50.89966,-26.548462
1765377828226,-0.9873047,-0.5332031,0.48388672,9.033203,-33.081055,1.2207031,0.0,0.0,0.0,-59.974365,50.89966,-26.548462
1765377828239,-0.9873047,-0.5332031,0.48388672,9.033203,-33.081055,1.2207031,0.0,0.0,0.0,-62.319946,49.663696,-27.46582
1765377828327,-0.67285156,-0.3696289,0.2446289,21.362305,10.437012,-17.76123,0.0,0.0,0.0,-62.319946,49.663696,-27.46582
1765377828338,-0.67285156,-0.3696289,0.2446289,21.362305,10.437012,-17.76123,0.0,0.0,0.0,-58.61206,48.718872,-26.136475
1765377828427,-0.73779297,-0.69384766,0.4404297,53.527832,20.812988,-38.024902,0.0,0.0,0.0,-58.61206,48.718872,-26.136475
1765377828438,-0.73779297,-0.69384766,0.4404297,53.527832,20.812988,-38.024902,0.0,0.0,0.0,-57.18933,47.444458,-29.696045
1765377828526,-0.8461914,-0.46484375,0.22021484,-6.4086914,38.45215,-12.451172,0.0,0.0,0.0,-57.18933,47.444458,-29.696045
1765377828538,-0.8461914,-0.46484375,0.22021484,-6.4086914,38.45215,-12.451172,0.0,0.0,0.0,-60.00183,47.03247,-36.238403
1765377828626,-0.8120117,-0.8798828,0.36132812,-46.63086,-9.277344,23.742676,0.0,0.0,0.0,-60.00183,47.03247,-36.238403
1765377828637,-0.8120117,-0.8798828,0.36132812,-46.63086,-9.277344,23.742676,0.0,0.0,0.0,-61.875,49.004517,-34.057617
1765377828725,-0.39208984,-0.34960938,0.24072266,-31.00586,-15.075684,15.808105,0.0,0.0,0.0,-61.875,49.004517,-34.057617
1765377828736,-0.39208984,-0.34960938,0.24072266,-31.00586,-15.075684,15.808105,0.0,0.0,0.0,-64.78638,49.39453,-32.459106
1765377828825,-0.96533203,-0.5888672,0.37060547,-12.939453,-98.14453,36.315918,0.0,0.0,0.0,-64.78638,49.39453,-32.459106
1765377828836,-0.96533203,-0.5888672,0.37060547,-12.939453,-98.14453,36.315918,0.0,0.0,0.0,-60.402832,49.5813,-22.115479
1765377828924,-0.7626953,-0.56103516,0.2890625,-1.6479492,21.54541,8.666992,0.0,0.0,0.0,-60.402832,49.5813,-22.115479
1765377828937,-0.7626953,-0.56103516,0.2890625,-1.6479492,21.54541,8.666992,0.0,0.0,0.0,-55.755615,48.356323,-15.490723
1765377829024,-0.6298828,-0.578125,0.25830078,4.699707,39.55078,-11.291504,0.0,0.0,0.0,-55.755615,48.356323,-15.490723
1765377829036,-0.6298828,-0.578125,0.25830078,4.699707,39.55078,-11.291504,0.0,0.0,0.0,-59.61731,50.707397,-20.802612
1765377829124,-1.1367188,-0.60009766,0.49804688,11.84082,16.967773,-6.225586,0.0,0.0,0.0,-59.61731,50.707397,-20.802612
1765377829135,-1.1367188,-0.60009766,0.49804688,11.84082,16.967773,-6.225586,0.0,0.0,0.0,-65.269775,50.50415,-28.674316
1765377829224,-0.39697266,-0.31152344,0.1821289,44.189453,5.3710938,-12.207031,0.0,0.0,0.0,-65.269775,50.50415,-28.674316
1765377829235,-0.39697266,-0.31152344,0.1821289,44.189453,5.3710938,-12.207031,0.0,0.0,0.0,-60.84778,51.207275,-28.092041
1765377829323,-1.0063477,-0.85498047,0.48291016,48.706055,3.7231445,-34.42383,0.0,0.0,0.0,-60.84778,51.207275,-28.092041
1765377829335,-1.0063477,-0.85498047,0.48291016,48.706055,3.7231445,-34.42383,0.0,0.0,0.0,-59.02954,49.29016,-30.250854
1765377829423,-0.7680664,-0.46289062,0.12646484,-34.301758,24.780273,9.70459,0.0,0.0,0.0,-59.02954,49.29016,-30.250854
1765377829435,-0.7680664,-0.46289062,0.12646484,-34.301758,24.780273,9.70459,0.0,0.0,0.0,-60.474243,48.169556,-34.2334
1765377829523,-0.72216797,-0.6933594,0.40771484,-31.37207,-36.621094,19.226074,0.0,0.0,0.0,-60.474243,48.169556,-34.2334
1765377829535,-0.72216797,-0.6933594,0.40771484,-31.37207,-36.621094,19.226074,0.0,0.0,0.0,-62.14966,49.87793,-31.854858
1765377829623,-0.6435547,-0.61035156,0.47802734,-45.837402,-43.884277,22.338867,0.0,0.0,0.0,-62.14966,49.87793,-31.854858
1765377829634,-0.6435547,-0.61035156,0.47802734,-45.837402,-43.884277,22.338867,0.0,0.0,0.0,-61.17737,49.361572,-24.845581
1765377829722,-0.9589844,-0.3774414,0.15234375,-32.104492,-94.72656,36.743164,0.0,0.0,0.0,-61.17737,49.361572,-24.845581
1765377829735,-0.9589844,-0.3774414,0.15234375,-32.104492,-94.72656,36.743164,0.0,0.0,0.0,-55.66223,47.82898,-12.293701
1765377829822,-0.8510742,-0.61035156,0.37304688,15.625,18.981934,22.277832,0.0,0.0,0.0,-55.66223,47.82898,-12.293701
1765377829834,-0.8510742,-0.61035156,0.37304688,15.625,18.981934,22.277832,0.0,0.0,0.0,-53.184814,50.289917,-7.668457
1765377829922,-0.54589844,-0.60546875,0.1977539,40.34424,53.527832,-42.053223,0.0,0.0,0.0,-53.184814,50.289917,-7.668457
1765377829933,-0.54589844,-0.60546875,0.1977539,40.34424,53.527832,-42.053223,0.0,0.0,0.0,-54.552612,50.114136,-14.60083
1765377830022,-1.269043,-0.7504883,0.4814453,26.428223,67.26074,-32.470703,0.0,0.0,0.0,-54.552612,50.114136,-14.60083
1765377830033,-1.269043,-0.7504883,0.4814453,26.428223,67.26074,-32.470703,0.0,0.0,0.0,-64.02832,51.135864,-29.33899
1765377830121,-0.3720703,-0.27685547,0.26464844,29.35791,-42.48047,1.4648438,0.0,0.0,0.0,-64.02832,51.135864,-29.33899
1765377830133,-0.3720703,-0.27685547,0.26464844,29.35791,-42.48047,1.4648438,0.0,0.0,0.0,-57.370605,49.751587,-23.307495
1765377830221,-1.0458984,-0.64453125,0.4350586,9.643555,5.3100586,-5.004883,0.0,0.0,0.0,-57.370605,49.751587,-23.307495
1765377830233,-1.0458984,-0.64453125,0.4350586,9.643555,5.3100586,-5.004883,0.0,0.0,0.0,-57.50244,48.636475,-24.889526
1765377830321,-0.67578125,-0.50390625,0.28515625,10.986328,47.60742,-27.160645,0.0,0.0,0.0,-57.50244,48.636475,-24.889526
1765377830333,-0.67578125,-0.50390625,0.28515625,10.986328,47.60742,-27.160645,0.0,0.0,0.0,-58.233032,48.103638,-29.893799
1765377830420,-0.8535156,-0.5805664,0.234375,-14.587402,12.084961,2.5024414,0.0,0.0,0.0,-58.233032,48.103638,-29.893799
1765377830432,-0.8535156,-0.5805664,0.234375,-14.587402,12.084961,2.5024414,0.0,0.0,0.0,-63.78662,49.37256,-36.480103
1765377830520,-0.7416992,-0.6953125,0.39794922,-73.48633,-49.743652,29.846191,0.0,0.0,0.0,-63.78662,49.37256,-36.480103
1765377830532,-0.7416992,-0.6953125,0.39794922,-73.48633,-49.743652,29.846191,0.0,0.0,0.0,-64.764404,50.042725,-29.130249
1765377830620,-0.37939453,-0.29638672,0.21289062,-39.245605,-76.66016,34.118652,0.0,0.0,0.0,-64.764404,50.042725,-29.130249
1765377830631,-0.37939453,-0.29638672,0.21289062,-39.245605,-76.66016,34.118652,0.0,0.0,0.0,-60.62805,49.888916,-16.726685
1765377830720,-1.2397461,-0.6616211,0.4892578,16.418457,-44.25049,7.080078,0.0,0.0,0.0,-60.62805,49.888916,-16.726685
1765377830731,-1.2397461,-0.6616211,0.4892578,16.418457,-44.25049,7.080078,0.0,0.0,0.0,-55.66223,48.50464,-8.179321
1765377830820,-0.5649414,-0.56689453,0.2578125,16.174316,56.030273,-7.446289,0.0,0.0,0.0,-55.66223,48.50464,-8.179321
1765377830836,-0.5649414,-0.56689453,0.2578125,16.174316,56.030273,-7.446289,0.0,0.0,0.0,-54.887695,49.943848,-11.228027
1765377830920,-0.93359375,-0.5205078,0.2783203,26.306152,69.03076,-37.17041,0.0,0.0,0.0,-54.887695,49.943848,-11.228027
1765377830931,-0.93359375,-0.5205078,0.2783203,26.306152,69.03076,-37.17041,0.0,0.0,0.0,-61.655273,50.822754,-22.335205
1765377831020,-0.7504883,-0.49365234,0.4506836,55.05371,-1.5258789,-0.9765625,0.0,0.0,0.0,-61.655273,50.822754,-22.335205
1765377831031,-0.7504883,-0.49365234,0.4506836,55.05371,-1.5258789,-0.9765625,0.0,0.0,0.0,-61.468506,51.45996,-25.85083
1765377831119,-0.6850586,-0.6777344,0.2788086,33.996582,23.4375,-52.91748,0.0,0.0,0.0,-61.468506,51.45996,-25.85083
1765377831131,-0.6850586,-0.6777344,0.2788086,33.996582,23.4375,-52.91748,0.0,0.0,0.0,-59.716187,49.240723,-29.21814
1765377831219,-0.79003906,-0.5371094,0.20117188,-3.112793,43.518066,-6.652832,0.0,0.0,0.0,-59.716187,49.240723,-29.21814
1765377831230,-0.79003906,-0.5371094,0.20117188,-3.112793,43.518066,-6.652832,0.0,0.0,0.0,-63.099976,48.31787,-36.381226
1765377831318,-0.74121094,-0.6767578,0.10986328,-50.720215,-45.22705,14.6484375,0.0,0.0,0.0,-63.099976,48.31787,-36.381226
1765377831330,-0.74121094,-0.6767578,0.10986328,-50.720215,-45.22705,14.6484375,0.0,0.0,0.0,-64.07776,48.916626,-32.140503
1765377831418,-0.8276367,-0.6850586,0.35595703,-47.668457,13.183594,9.82666,0.0,0.0,0.0,-64.07776,48.916626,-32.140503
1765377831429,-0.8276367,-0.6850586,0.35595703,-47.668457,13.183594,9.82666,0.0,0.0,0.0,-70.08728,50.147095,-32.2229
1765377831517,-0.5019531,-0.37890625,0.25097656,-2.9907227,-76.72119,11.291504,0.0,0.0,0.0,-70.08728,50.147095,-32.2229
1765377831529,-0.5019531,-0.37890625,0.25097656,-2.9907227,-76.72119,11.291504,0.0,0.0,0.0,-66.5387,48.773804,-25.350952
1765377831617,-0.94384766,-0.68066406,0.2006836,-14.709473,-25.756836,27.648926,0.0,0.0,0.0,-66.5387,48.773804,-25.350952
1765377831629,-0.94384766,-0.68066406,0.2006836,-14.709473,-25.756836,27.648926,0.0,0.0,0.0,-60.72693,48.894653,-15.540161
1765377831717,-0.7192383,-0.6459961,0.34570312,27.832031,17.76123,-18.371582,0.0,0.0,0.0,-60.72693,48.894653,-15.540161
1765377831728,-0.7192383,-0.6459961,0.34570312,27.832031,17.76123,-18.371582,0.0,0.0,0.0,-60.864258,49.125366,-17.330933
1765377831817,-0.7729492,-0.61865234,0.06201172,14.404297,61.157227,-15.197754,0.0,0.0,0.0,-60.864258,49.125366,-17.330933
1765377831828,-0.7729492,-0.61865234,0.06201172,14.404297,61.157227,-15.197754,0.0,0.0,0.0,-63.53943,49.004517,-24.603882
1765377831916,-0.95751953,-0.57714844,0.45410156,3.2958984,12.084961,13.122559,0.0,0.0,0.0,-63.53943,49.004517,-24.603882
1765377831928,-0.95751953,-0.57714844,0.45410156,3.2958984,12.084961,13.122559,0.0,0.0,0.0,-68.703,50.80078,-32.025146
1765377832016,-0.4951172,-0.5083008,0.2241211,57.434082,-9.216309,-14.770508,0.0,0.0,0.0,-68.703,50.80078,-32.025146
1765377832028,-0.4951172,-0.5083008,0.2241211,57.434082,-9.216309,-14.770508,0.0,0.0,0.0,-63.841553,51.135864,-30.514526
1765377832116,-1.0327148,-0.6098633,0.31152344,28.686523,27.832031,-30.151367,0.0,0.0,0.0,-63.841553,51.135864,-30.514526
1765377832127,-1.0327148,-0.6098633,0.31152344,28.686523,27.832031,-30.151367,0.0,0.0,0.0,-62.418823,48.42224,-34.161987
1765377832216,-0.7011719,-0.5805664,0.25341797,-21.911621,12.817383,8.7890625,0.0,0.0,0.0,-62.418823,48.42224,-34.161987
1765377832227,-0.7011719,-0.5805664,0.25341797,-21.911621,12.817383,8.7890625,0.0,0.0,0.0,-65.99487,49.68567,-39.413452
1765377832315,-0.8432617,-0.64697266,0.22314453,-46.203613,-25.024414,10.009766,0.0,0.0,0.0,-65.99487,49.68567,-39.413452
1765377832327,-0.8432617,-0.64697266,0.22314453,-46.203613,-25.024414,10.009766,0.0,0.0,0.0,-66.588135,49.614258,-35.925293
1765377832415,-0.77783203,-0.7675781,0.39453125,-69.51904,-32.958984,19.958496,0.0,0.0,0.0,-66.588135,49.614258,-35.925293
1765377832427,-0.77783203,-0.7675781,0.39453125,-69.51904,-32.958984,19.958496,0.0,0.0,0.0,-70.36743,50.421753,-32.72827
1765377832515,-0.38867188,-0.31835938,0.20947266,-57.128906,-98.93799,25.146484,0.0,0.0,0.0,-70.36743,50.421753,-32.72827
1765377832526,-0.38867188,-0.31835938,0.20947266,-57.128906,-98.93799,25.146484,0.0,0.0,0.0,-66.25305,49.72412,-19.753418
1765377832615,-1.2480469,-0.67822266,0.4560547,10.375977,-42.785645,5.9814453,0.0,0.0,0.0,-66.25305,49.72412,-19.753418
1765377832626,-1.2480469,-0.67822266,0.4560547,10.375977,-42.785645,5.9814453,0.0,0.0,0.0,-61.16089,48.50464,-8.426514
1765377832714,-0.5834961,-0.4609375,0.16796875,32.592773,58.898926,-4.4555664,0.0,0.0,0.0,-61.16089,48.50464,-8.426514
1765377832726,-0.5834961,-0.4609375,0.16796875,32.592773,58.898926,-4.4555664,0.0,0.0,0.0,-60.95215,50.1416,-12.392578
1765377832814,-0.9448242,-0.7368164,0.15527344,45.166016,81.970215,-45.166016,0.0,0.0,0.0,-60.95215,50.1416,-12.392578
1765377832825,-0.9448242,-0.7368164,0.15527344,45.166016,81.970215,-45.166016,0.0,0.0,0.0,-65.11047,50.81726,-23.99414
1765377832914,-0.7636719,-0.5473633,0.34716797,-7.5683594,30.944824,17.39502,0.0,0.0,0.0,-65.11047,50.81726,-23.99414
1765377832926,-0.7636719,-0.5473633,0.34716797,-7.5683594,30.944824,17.39502,0.0,0.0,0.0,-71.361694,52.16858,-34.475098
1765377833013,-0.5703125,-0.5727539,0.21679688,26.000977,-1.0375977,-13.000488,0.0,0.0,0.0,-71.361694,52.16858,-34.475098
1765377833025,-0.5703125,-0.5727539,0.21679688,26.000977,-1.0375977,-13.000488,0.0,0.0,0.0,-70.389404,53.547363,-34.02466
1765377833113,-1.1074219,-0.71191406,0.30029297,24.963379,9.521484,-19.592285,0.0,0.0,0.0,-70.389404,53.547363,-34.02466
1765377833125,-1.1074219,-0.71191406,0.30029297,24.963379,9.521484,-19.592285,0.0,0.0,0.0,-70.85632,51.201782,-36.101074
1765377833213,-0.63720703,-0.49658203,0.1484375,-24.780273,-14.343262,12.084961,0.0,0.0,0.0,-70.85632,51.201782,-36.101074
1765377833224,-0.63720703,-0.49658203,0.1484375,-24.780273,-14.343262,12.084961,0.0,0.0,0.0,-69.746704,51.069946,-35.194702
1765377833313,-0.9926758,-0.49804688,0.09423828,-47.302246,-11.901855,28.930664,0.0,0.0,0.0,-69.746704,51.069946,-35.194702
1765377833324,-0.9926758,-0.49804688,0.09423828,-47.302246,-11.901855,28.930664,0.0,0.0,0.0,-70.46631,52.179565,-31.854858
1765377833412,-0.75683594,-0.6464844,0.3071289,-0.9765625,36.499023,-9.338379,0.0,0.0,0.0,-70.46631,52.179565,-31.854858
1765377833424,-0.75683594,-0.6464844,0.3071289,-0.9765625,36.499023,-9.338379,0.0,0.0,0.0,-75.596924,54.316406,-35.612183
1765377833512,-0.7397461,-0.5185547,0.07128906,18.981934,-5.554199,-2.4414062,0.0,0.0,0.0,-75.596924,54.316406,-35.612183
1765377833524,-0.7397461,-0.5185547,0.07128906,18.981934,-5.554199,-2.4414062,0.0,0.0,0.0,-75.162964,53.415527,-38.150024
1765377833612,-0.91064453,-0.640625,0.18603516,24.536133,12.817383,6.4086914,0.0,0.0,0.0,-75.162964,53.415527,-38.150024
1765377833623,-0.91064453,-0.640625,0.18603516,24.536133,12.817383,6.4086914,0.0,0.0,0.0,-74.190674,54.299927,-39.017944
1765377833711,-0.6152344,-0.66796875,-0.0043945312,36.56006,41.3208,-31.12793,0.0,0.0,0.0,-74.190674,54.299927,-39.017944
1765377833723,-0.6152344,-0.66796875,-0.0043945312,36.56006,41.3208,-31.12793,0.0,0.0,0.0,-75.26184,53.530884,-45.28015
1765377833811,-0.7607422,-0.7270508,0.0546875,-36.376953,-10.009766,-3.9672852,0.0,0.0,0.0,-75.26184,53.530884,-45.28015
1765377833823,-0.7607422,-0.7270508,0.0546875,-36.376953,-10.009766,-3.9672852,0.0,0.0,0.0,-78.85986,51.65222,-50.548096
1765377833911,-0.8095703,-0.51123047,0.110839844,-26.611328,7.446289,11.413574,0.0,0.0,0.0,-78.85986,51.65222,-50.548096
1765377833923,-0.8095703,-0.51123047,0.110839844,-26.611328,7.446289,11.413574,0.0,0.0,0.0,-81.93054,51.970825,-50.526123
1765377834011,-0.77685547,-0.6621094,0.2368164,13.549805,1.7089844,-7.1411133,0.0,0.0,0.0,-81.93054,51.970825,-50.526123
1765377834022,-0.77685547,-0.6621094,0.2368164,13.549805,1.7089844,-7.1411133,0.0,0.0,0.0,-83.31482,52.487183,-51.95984
1765377834110,-1.0166016,-0.6582031,0.059570312,-18.554688,-3.2348633,-15.441895,0.0,0.0,0.0,-83.31482,52.487183,-51.95984
1765377834122,-1.0166016,-0.6582031,0.059570312,-18.554688,-3.2348633,-15.441895,0.0,0.0,0.0,-82.34253,50.180054,-51.635742
1765377834210,-0.6118164,-0.6196289,0.064453125,-10.192871,-23.68164,5.1879883,0.0,0.0,0.0,-82.34253,50.180054,-51.635742
1765377834222,-0.6118164,-0.6196289,0.064453125,-10.192871,-23.68164,5.1879883,0.0,0.0,0.0,-80.963745,50.795288,-48.94409
1765377834310,-0.9580078,-0.4555664,-0.07519531,-46.75293,-28.503418,31.12793,0.0,0.0,0.0,-80.963745,50.795288,-48.94409
1765377834321,-0.9580078,-0.4555664,-0.07519531,-46.75293,-28.503418,31.12793,0.0,0.0,0.0,-80.57373,51.61377,-45.494385
1765377834410,-0.8300781,-0.49658203,0.026855469,-11.413574,29.724121,10.131836,0.0,0.0,0.0,-80.57373,51.61377,-45.494385
1765377834421,-0.8300781,-0.49658203,0.026855469,-11.413574,29.724121,10.131836,0.0,0.0,0.0,-84.38049,55.08545,-47.79602
1765377834509,-0.796875,-0.62646484,0.20507812,34.362793,18.066406,-17.822266,0.0,0.0,0.0,-84.38049,55.08545,-47.79602
1765377834521,-0.796875,-0.62646484,0.20507812,34.362793,18.066406,-17.822266,0.0,0.0,0.0,-86.171265,53.9209,-53.970337
1765377834609,-1.034668,-0.73339844,0.10595703,34.42383,1.8920898,4.333496,0.0,0.0,0.0,-86.171265,53.9209,-53.970337
1765377834621,-1.034668,-0.73339844,0.10595703,34.42383,1.8920898,4.333496,0.0,0.0,0.0,-81.952515,53.519897,-53.26172
1765377834709,-0.65283203,-0.5415039,0.040039062,49.926758,13.549805,-10.7421875,0.0,0.0,0.0,-81.952515,53.519897,-53.26172
1765377834721,-0.65283203,-0.5415039,0.040039062,49.926758,13.549805,-10.7421875,0.0,0.0,0.0,-79.19495,53.22876,-55.755615
1765377834809,-0.7324219,-0.7944336,0.056640625,19.89746,12.756348,-18.188477,0.0,0.0,0.0,-79.19495,53.22876,-55.755615
1765377834820,-0.7324219,-0.7944336,0.056640625,19.89746,12.756348,-18.188477,0.0,0.0,0.0,-77.93152,51.866455,-58.809814
1765377834908,-0.68652344,-0.7050781,0.06689453,-20.812988,30.456543,-17.27295,0.0,0.0,0.0,-77.93152,51.866455,-58.809814
1765377834920,-0.68652344,-0.7050781,0.06689453,-20.812988,30.456543,-17.27295,0.0,0.0,0.0,-82.39746,49.487915,-64.281006
1765377835008,-0.6665039,-0.46240234,0.22802734,-37.109375,-50.964355,21.362305,0.0,0.0,0.0,-82.39746,49.487915,-64.281006
1765377835020,-0.6665039,-0.46240234,0.22802734,-37.109375,-50.964355,21.362305,0.0,0.0,0.0,-83.87512,49.94934,-61.138916
1765377835108,-0.95214844,-0.83691406,0.10498047,-23.31543,-26.550293,-26.611328,0.0,0.0,0.0,-83.87512,49.94934,-61.138916
1765377835119,-0.95214844,-0.83691406,0.10498047,-23.31543,-26.550293,-26.611328,0.0,0.0,0.0,-79.94751,49.075928,-52.30591
1765377835208,-0.6855469,-0.53466797,0.07861328,-8.728027,-22.827148,17.211914,0.0,0.0,0.0,-79.94751,49.075928,-52.30591
1765377835219,-0.6855469,-0.53466797,0.07861328,-8.728027,-22.827148,17.211914,0.0,0.0,0.0,-78.92029,48.548584,-48.83423
1765377835307,-0.8261719,-0.5678711,0.060546875,9.70459,-5.79834,-10.437012,0.0,0.0,0.0,-78.92029,48.548584,-48.83423
1765377835319,-0.8261719,-0.5678711,0.060546875,9.70459,-5.79834,-10.437012,0.0,0.0,0.0,-76.15723,48.389282,-47.263184
1765377835407,-0.8129883,-0.5415039,0.07373047,-54.6875,25.08545,42.297363,0.0,0.0,0.0,-76.15723,48.389282,-47.263184
1765377835418,-0.8129883,-0.5415039,0.07373047,-54.6875,25.08545,42.297363,0.0,0.0,0.0,-80.04639,50.7843,-49.432983
1765377835507,-0.8149414,-0.48583984,0.28027344,35.461426,-9.643555,1.5258789,0.0,0.0,0.0,-80.04639,50.7843,-49.432983
1765377835518,-0.8149414,-0.48583984,0.28027344,35.461426,-9.643555,1.5258789,0.0,0.0,0.0,-82.50183,53.234253,-51.25122
1765377835606,-0.87939453,-0.8652344,0.053222656,11.535645,56.762695,-13.366699,0.0,0.0,0.0,-82.50183,53.234253,-51.25122
1765377835618,-0.87939453,-0.8652344,0.053222656,11.535645,56.762695,-13.366699,0.0,0.0,0.0,-79.486084,53.135376,-52.64099
1765377835706,-0.64404297,-0.5214844,0.020507812,5.6762695,-11.779785,6.225586,0.0,0.0,0.0,-79.486084,53.135376,-52.64099
1765377835718,-0.64404297,-0.5214844,0.020507812,5.6762695,-11.779785,6.225586,0.0,0.0,0.0,-80.76599,51.87195,-57.947388
1765377835806,-0.7792969,-0.7763672,-0.018554688,11.108398,2.746582,-15.869141,0.0,0.0,0.0,-80.76599,51.87195,-57.947388
1765377835817,-0.7792969,-0.7763672,-0.018554688,11.108398,2.746582,-15.869141,0.0,0.0,0.0,-78.01941,52.06421,-55.93689
1765377835906,-0.7050781,-0.7080078,0.05908203,8.544922,36.8042,-32.65381,0.0,0.0,0.0,-78.01941,52.06421,-55.93689
1765377835917,-0.7050781,-0.7080078,0.05908203,8.544922,36.8042,-32.65381,0.0,0.0,0.0,-82.16675,49.015503,-63.90747
1765377836005,-0.60058594,-0.4921875,0.123046875,-9.216309,-49.987793,16.662598,0.0,0.0,0.0,-82.16675,49.015503,-63.90747
1765377836017,-0.60058594,-0.4921875,0.123046875,-9.216309,-49.987793,16.662598,0.0,0.0,0.0,-81.968994,48.587036,-62.369385
1765377836105,-0.5786133,-0.7265625,0.2685547,8.483887,-38.208008,-10.681152,0.0,0.0,0.0,-81.968994,48.587036,-62.369385
1765377836117,-0.5786133,-0.7265625,0.2685547,8.483887,-38.208008,-10.681152,0.0,0.0,0.0,-75.59143,48.098145,-53.739624
1765377836205,-1.019043,-0.6538086,0.1459961,-12.634277,-68.90869,31.066895,0.0,0.0,0.0,-75.59143,48.098145,-53.739624
1765377836217,-1.019043,-0.6538086,0.1459961,-12.634277,-68.90869,31.066895,0.0,0.0,0.0,-70.29053,46.115112,-44.329834
1765377836305,-0.66845703,-0.49365234,0.23046875,13.183594,8.239746,-6.4697266,0.0,0.0,0.0,-70.29053,46.115112,-44.329834
1765377836316,-0.66845703,-0.49365234,0.23046875,13.183594,8.239746,-6.4697266,0.0,0.0,0.0,-67.45056,47.400513,-40.79773
1765377836404,-0.8696289,-0.56884766,0.21142578,-16.479492,-3.479004,28.930664,0.0,0.0,0.0,-67.45056,47.400513,-40.79773
1765377836416,-0.8696289,-0.56884766,0.21142578,-16.479492,-3.479004,28.930664,0.0,0.0,0.0,-66.92322,48.224487,-40.880127
1765377836504,-0.89160156,-0.69677734,0.33496094,-38.513184,4.699707,15.808105,0.0,0.0,0.0,-66.92322,48.224487,-40.880127
1765377836516,-0.89160156,-0.69677734,0.33496094,-38.513184,4.699707,15.808105,0.0,0.0,0.0,-69.88953,50.828247,-40.45166
1765377836604,-0.36914062,-0.31884766,0.2055664,-7.3242188,-46.75293,24.780273,0.0,0.0,0.0,-69.88953,50.828247,-40.45166
1765377836616,-0.36914062,-0.31884766,0.2055664,-7.3242188,-46.75293,24.780273,0.0,0.0,0.0,-67.60437,51.95984,-34.8761
1765377836703,-1.3876953,-0.82421875,0.48388672,10.803223,-42.60254,-8.605957,0.0,0.0,0.0,-67.60437,51.95984,-34.8761
1765377836715,-1.3876953,-0.82421875,0.48388672,10.803223,-42.60254,-8.605957,0.0,0.0,0.0,-62.435303,51.383057,-27.174683
1765377836803,-0.59228516,-0.45507812,0.19140625,18.005371,59.265137,-7.751465,0.0,0.0,0.0,-62.435303,51.383057,-27.174683
1765377836815,-0.59228516,-0.45507812,0.19140625,18.005371,59.265137,-7.751465,0.0,0.0,0.0,-62.25403,52.261963,-30.025635
1765377836903,-0.8066406,-0.7866211,0.057617188,22.949219,55.664062,-40.527344,0.0,0.0,0.0,-62.25403,52.261963,-30.025635
1765377836915,-0.8066406,-0.7866211,0.057617188,22.949219,55.664062,-40.527344,0.0,0.0,0.0,-67.351685,51.696167,-39.5343
1765377837003,-0.6254883,-0.45361328,0.30859375,-43.45703,21.1792,9.399414,0.0,0.0,0.0,-67.351685,51.696167,-39.5343
1765377837015,-0.6254883,-0.45361328,0.30859375,-43.45703,21.1792,9.399414,0.0,0.0,0.0,-75.66284,51.569824,-47.702637
1765377837102,-0.6557617,-0.62890625,0.1430664,14.953613,-36.987305,-5.79834,0.0,0.0,0.0,-75.66284,51.569824,-47.702637
1765377837114,-0.6557617,-0.62890625,0.1430664,14.953613,-36.987305,-5.79834,0.0,0.0,0.0,-71.72974,52.245483,-40.6604
1765377837202,-1.0107422,-0.72998047,0.32080078,-10.314941,8.544922,-6.0424805,0.0,0.0,0.0,-71.72974,52.245483,-40.6604
1765377837214,-1.0107422,-0.72998047,0.32080078,-10.314941,8.544922,-6.0424805,0.0,0.0,0.0,-72.943726,49.850464,-41.18225
1765377837302,-0.69628906,-0.43798828,0.04345703,-36.132812,-60.60791,35.52246,0.0,0.0,0.0,-72.943726,49.850464,-41.18225
1765377837313,-0.69628906,-0.43798828,0.04345703,-36.132812,-60.60791,35.52246,0.0,0.0,0.0,-69.851074,50.498657,-33.07434
1765377837402,-0.9970703,-0.47216797,0.11425781,-35.217285,10.498047,15.136719,0.0,0.0,0.0,-69.851074,50.498657,-33.07434
1765377837413,-0.9970703,-0.47216797,0.11425781,-35.217285,10.498047,15.136719,0.0,0.0,0.0,-69.367676,52.29492,-28.773193
1765377837501,-0.82666016,-0.65478516,0.26171875,-8.483887,50.354004,-6.4086914,0.0,0.0,0.0,-69.367676,52.29492,-28.773193
1765377837513,-0.82666016,-0.65478516,0.26171875,-8.483887,50.354004,-6.4086914,0.0,0.0,0.0,-76.28357,54.60205,-35.496826
1765377837601,-0.5800781,-0.31201172,0.041015625,45.959473,-5.554199,-3.6621094,0.0,0.0,0.0,-76.28357,54.60205,-35.496826
1765377837612,-0.5800781,-0.31201172,0.041015625,45.959473,-5.554199,-3.6621094,0.0,0.0,0.0,-76.59668,53.95935,-40.319824
1765377837701,-0.9746094,-0.75390625,0.30615234,75.37842,30.639648,-25.146484,0.0,0.0,0.0,-76.59668,53.95935,-40.319824
1765377837712,-0.9746094,-0.75390625,0.30615234,75.37842,30.639648,-25.146484,0.0,0.0,0.0,-74.84985,54.28894,-44.04419
1765377837801,-0.6879883,-0.77490234,0.10644531,68.359375,36.92627,-54.870605,0.0,0.0,0.0,-74.84985,54.28894,-44.04419
1765377837812,-0.6879883,-0.77490234,0.10644531,68.359375,36.92627,-54.870605,0.0,0.0,0.0,-70.999146,50.531616,-49.334106
1765377837900,-0.60058594,-0.7529297,0.075683594,-8.666992,31.433105,-5.1879883,0.0,0.0,0.0,-70.999146,50.531616,-49.334106
1765377837912,-0.60058594,-0.7529297,0.075683594,-8.666992,31.433105,-5.1879883,0.0,0.0,0.0,-73.38867,48.52112,-56.56311
1765377838000,-0.7128906,-0.5698242,0.24511719,-45.288086,0.8544922,4.8217773,0.0,0.0,0.0,-73.38867,48.52112,-56.56311
1765377838011,-0.7128906,-0.5698242,0.24511719,-45.288086,0.8544922,4.8217773,0.0,0.0,0.0,-78.22266,48.27942,-58.00232
1765377838100,-0.71435547,-0.6503906,0.2421875,-11.71875,-61.88965,7.3242188,0.0,0.0,0.0,-78.22266,48.27942,-58.00232
1765377838111,-0.71435547,-0.6503906,0.2421875,-11.71875,-61.88965,7.3242188,0.0,0.0,0.0,-76.76697,49.16382,-50.07019
1765377838199,-0.8881836,-0.6738281,0.1977539,-9.58252,3.9672852,-13.061523,0.0,0.0,0.0,-76.76697,49.16382,-50.07019
1765377838211,-0.8881836,-0.6738281,0.1977539,-9.58252,3.9672852,-13.061523,0.0,0.0,0.0,-76.39343,46.80725,-47.087402
1765377838299,-0.734375,-0.49365234,0.03564453,-9.094238,-42.297363,30.578613,0.0,0.0,0.0,-76.39343,46.80725,-47.087402
1765377838311,-0.734375,-0.49365234,0.03564453,-9.094238,-42.297363,30.578613,0.0,0.0,0.0,-74.44336,47.455444,-42.681885
1765377838399,-0.8510742,-0.59277344,0.056640625,-6.8359375,21.606445,26.062012,0.0,0.0,0.0,-74.44336,47.455444,-42.681885
1765377838410,-0.8510742,-0.59277344,0.056640625,-6.8359375,21.606445,26.062012,0.0,0.0,0.0,-73.43262,50.421753,-41.259155
1765377838499,-0.7885742,-0.6401367,0.17626953,-19.40918,20.874023,12.817383,0.0,0.0,0.0,-73.43262,50.421753,-41.259155
1765377838510,-0.7885742,-0.6401367,0.17626953,-19.40918,20.874023,12.817383,0.0,0.0,0.0,-78.59619,53.118896,-46.85669
1765377838598,-0.6459961,-0.3984375,0.16601562,45.166016,-28.259277,-2.380371,0.0,0.0,0.0,-78.59619,53.118896,-46.85669
1765377838610,-0.6459961,-0.3984375,0.16601562,45.166016,-28.259277,-2.380371,0.0,0.0,0.0,-76.657104,53.10791,-45.802002
1765377838698,-1.050293,-0.7138672,0.2211914,32.104492,11.352539,2.5634766,0.0,0.0,0.0,-76.657104,53.10791,-45.802002
1765377838710,-1.050293,-0.7138672,0.2211914,32.104492,11.352539,2.5634766,0.0,0.0,0.0,-71.30127,52.98706,-43.780518
1765377838798,-0.57128906,-0.61328125,0.05810547,29.968262,31.921387,-36.92627,0.0,0.0,0.0,-71.30127,52.98706,-43.780518
1765377838809,-0.57128906,-0.61328125,0.05810547,29.968262,31.921387,-36.92627,0.0,0.0,0.0,-69.25232,50.152588,-47.67517
1765377838898,-0.6533203,-0.74853516,0.16015625,-26.489258,-1.7700195,-2.6855469,0.0,0.0,0.0,-69.25232,50.152588,-47.67517
1765377838909,-0.6533203,-0.74853516,0.16015625,-26.489258,-1.7700195,-2.6855469,0.0,0.0,0.0,-73.08655,49.471436,-51.11389
1765377838998,-0.73095703,-0.59472656,0.17236328,-38.879395,4.5166016,0.36621094,0.0,0.0,0.0,-73.08655,49.471436,-51.11389
1765377839009,-0.73095703,-0.59472656,0.17236328,-38.879395,4.5166016,0.36621094,0.0,0.0,0.0,-76.448364,48.66394,-49.80652
1765377839097,-0.796875,-0.55615234,0.30810547,-3.4179688,-39.489746,18.798828,0.0,0.0,0.0,-76.448364,48.66394,-49.80652
1765377839109,-0.796875,-0.55615234,0.30810547,-3.4179688,-39.489746,18.798828,0.0,0.0,0.0,-75.82214,49.84497,-45.43396
1765377839199,-0.9926758,-0.6694336,0.17919922,19.592285,20.629883,-34.362793,0.0,0.0,0.0,-75.82214,49.84497,-45.43396
1765377839209,-0.9926758,-0.6694336,0.17919922,19.592285,20.629883,-34.362793,0.0,0.0,0.0,-74.09729,47.686157,-44.681396
1765377839297,-0.61816406,-0.59375,0.16455078,5.126953,-14.099121,5.3100586,0.0,0.0,0.0,-74.09729,47.686157,-44.681396
1765377839308,-0.61816406,-0.59375,0.16455078,5.126953,-14.099121,5.3100586,0.0,0.0,0.0,-73.306274,47.477417,-45.170288
1765377839396,-0.88671875,-0.5595703,0.08935547,-37.17041,-9.887695,29.785156,0.0,0.0,0.0,-73.306274,47.477417,-45.170288
1765377839408,-0.88671875,-0.5595703,0.08935547,-37.17041,-9.887695,29.785156,0.0,0.0,0.0,-72.62512,48.75183,-41.77002
1765377839496,-0.73876953,-0.6298828,0.20166016,-15.380859,19.714355,10.864258,0.0,0.0,0.0,-72.62512,48.75183,-41.77002
1765377839508,-0.73876953,-0.6298828,0.20166016,-15.380859,19.714355,10.864258,0.0,0.0,0.0,-76.431885,51.54236,-43.52234
1765377839596,-0.69628906,-0.4633789,0.22314453,21.54541,-37.41455,15.380859,0.0,0.0,0.0,-76.431885,51.54236,-43.52234
1765377839608,-0.69628906,-0.4633789,0.22314453,21.54541,-37.41455,15.380859,0.0,0.0,0.0,-74.679565,51.740112,-42.34131
1765377839696,-0.7109375,-0.6088867,0.1538086,22.399902,3.9672852,17.089844,0.0,0.0,0.0,-74.679565,51.740112,-42.34131
1765377839707,-0.7109375,-0.6088867,0.1538086,22.399902,3.9672852,17.089844,0.0,0.0,0.0,-69.59839,53.38257,-37.996216
1765377839795,-0.8364258,-0.68652344,0.24658203,44.799805,-37.17041,-20.996094,0.0,0.0,0.0,-69.59839,53.38257,-37.996216
1765377839807,-0.8364258,-0.68652344,0.24658203,44.799805,-37.17041,-20.996094,0.0,0.0,0.0,-63.44055,50.795288,-36.188965
1765377839895,-0.6381836,-0.66552734,0.20458984,-13.73291,26.245117,2.746582,0.0,0.0,0.0,-63.44055,50.795288,-36.188965
1765377839906,-0.6381836,-0.66552734,0.20458984,-13.73291,26.245117,2.746582,0.0,0.0,0.0,-65.01709,50.927124,-38.463135
1765377839995,-0.74121094,-0.5703125,0.27685547,-30.761719,-1.8310547,-7.2021484,0.0,0.0,0.0,-65.01709,50.927124,-38.463135
1765377840006,-0.74121094,-0.5703125,0.27685547,-30.761719,-1.8310547,-7.2021484,0.0,0.0,0.0,-68.565674,50.24597,-39.001465
1765377840095,-0.70751953,-0.50927734,0.32128906,5.6762695,-15.380859,16.723633,0.0,0.0,0.0,-68.565674,50.24597,-39.001465
1765377840106,-0.70751953,-0.50927734,0.32128906,5.6762695,-15.380859,16.723633,0.0,0.0,0.0,-67.977905,50.943604,-35.216675
1765377840194,-0.8955078,-0.67041016,0.3876953,0.061035156,18.676758,-30.639648,0.0,0.0,0.0,-67.977905,50.943604,-35.216675
1765377840206,-0.8955078,-0.67041016,0.3876953,0.061035156,18.676758,-30.639648,0.0,0.0,0.0,-68.90625,49.449463,-35.897827
1765377840294,-0.7265625,-0.42382812,0.10058594,-21.362305,-21.42334,26.794434,0.0,0.0,0.0,-68.90625,49.449463,-35.897827
1765377840305,-0.7265625,-0.42382812,0.10058594,-21.362305,-21.42334,26.794434,0.0,0.0,0.0,-69.09851,49.801025,-35.716553
1765377840394,-0.8544922,-0.6196289,0.13916016,-9.277344,16.479492,3.7841797,0.0,0.0,0.0,-69.09851,49.801025,-35.716553
1765377840405,-0.8544922,-0.6196289,0.13916016,-9.277344,16.479492,3.7841797,0.0,0.0,0.0,-68.58215,51.383057,-34.09607
1765377840493,-0.79296875,-0.6064453,0.30029297,-39.978027,6.958008,-1.2817383,0.0,0.0,0.0,-68.58215,51.383057,-34.09607
1765377840505,-0.79296875,-0.6064453,0.30029297,-39.978027,6.958008,-1.2817383,0.0,0.0,0.0,-74.14673,52.1521,-38.80371
1765377840593,-0.57910156,-0.3071289,0.21582031,29.846191,-26.062012,18.493652,0.0,0.0,0.0,-74.14673,52.1521,-38.80371
1765377840605,-0.57910156,-0.3071289,0.21582031,29.846191,-26.062012,18.493652,0.0,0.0,0.0,-71.15845,52.608032,-34.67285
1765377840693,-1.1674805,-0.9667969,0.3881836,43.762207,20.751953,-27.34375,0.0,0.0,0.0,-71.15845,52.608032,-34.67285
1765377840704,-1.1674805,-0.9667969,0.3881836,43.762207,20.751953,-27.34375,0.0,0.0,0.0,-69.44458,53.113403,-35.425415
1765377840793,-0.56347656,-0.51708984,0.018554688,36.499023,70.373535,-19.042969,0.0,0.0,0.0,-69.44458,53.113403,-35.425415
1765377840804,-0.56347656,-0.51708984,0.018554688,36.499023,70.373535,-19.042969,0.0,0.0,0.0,-69.94995,51.61377,-43.077393
1765377840892,-0.65527344,-0.875,0.1743164,3.90625,-15.319824,-19.470215,0.0,0.0,0.0,-69.94995,51.61377,-43.077393
1765377840904,-0.65527344,-0.875,0.1743164,3.90625,-15.319824,-19.470215,0.0,0.0,0.0,-72.11975,50.877686,-48.098145
1765377840992,-0.6743164,-0.55908203,0.21533203,-62.927246,-17.089844,17.333984,0.0,0.0,0.0,-72.11975,50.877686,-48.098145
1765377841004,-0.6743164,-0.55908203,0.21533203,-62.927246,-17.089844,17.333984,0.0,0.0,0.0,-74.62463,49.27368,-45.021973
1765377841092,-0.8510742,-0.62646484,0.32226562,-50.109863,-71.71631,33.813477,0.0,0.0,0.0,-74.62463,49.27368,-45.021973
1765377841103,-0.8510742,-0.62646484,0.32226562,-50.109863,-71.71631,33.813477,0.0,0.0,0.0,-73.53699,50.877686,-35.062866
1765377841192,-1.1264648,-0.4873047,0.10546875,-26.733398,11.71875,-7.446289,0.0,0.0,0.0,-73.53699,50.877686,-35.062866
1765377841203,-1.1264648,-0.4873047,0.10546875,-26.733398,11.71875,-7.446289,0.0,0.0,0.0,-72.229614,50.256958,-30.212402
1765377841291,-0.6694336,-0.5776367,0.12548828,46.38672,24.719238,-16.052246,0.0,0.0,0.0,-72.229614,50.256958,-30.212402
1765377841303,-0.6694336,-0.5776367,0.12548828,46.38672,24.719238,-16.052246,0.0,0.0,0.0,-73.39966,51.328125,-34.788208
1765377841391,-0.8588867,-0.47070312,0.053222656,-9.155273,12.878418,10.620117,0.0,0.0,0.0,-73.39966,51.328125,-34.788208
1765377841403,-0.8588867,-0.47070312,0.053222656,-9.155273,12.878418,10.620117,0.0,0.0,0.0,-73.77869,50.718384,-39.07837
1765377841491,-0.85253906,-0.71728516,0.28955078,-11.230469,9.94873,19.714355,0.0,0.0,0.0,-73.77869,50.718384,-39.07837
1765377841502,-0.85253906,-0.71728516,0.28955078,-11.230469,9.94873,19.714355,0.0,0.0,0.0,-76.68457,54.13513,-40.73181
1765377841591,-0.49414062,-0.4008789,0.016113281,33.447266,-24.841309,-10.131836,0.0,0.0,0.0,-76.68457,54.13513,-40.73181
1765377841602,-0.49414062,-0.4008789,0.016113281,33.447266,-24.841309,-10.131836,0.0,0.0,0.0,-71.26282,52.93213,-37.787476
1765377841690,-1.1088867,-0.6279297,0.2631836,39.245605,-14.343262,9.399414,0.0,0.0,0.0,-71.26282,52.93213,-37.787476
1765377841702,-1.1088867,-0.6279297,0.2631836,39.245605,-14.343262,9.399414,0.0,0.0,0.0,-67.79114,52.943115,-36.78772
1765377841791,-0.51123047,-0.7392578,0.19238281,27.282715,47.24121,-54.07715,0.0,0.0,0.0,-67.79114,52.943115,-36.78772
1765377841802,-0.51123047,-0.7392578,0.19238281,27.282715,47.24121,-54.07715,0.0,0.0,0.0,-65.077515,51.05896,-40.53955
1765377841890,-0.73828125,-0.7236328,0.09814453,-36.193848,30.273438,-6.7749023,0.0,0.0,0.0,-65.077515,51.05896,-40.53955
1765377841902,-0.73828125,-0.7236328,0.09814453,-36.193848,30.273438,-6.7749023,0.0,0.0,0.0,-74.37744,49.520874,-50.81726
1765377841989,-0.7861328,-0.4501953,0.31689453,-23.864746,-53.95508,20.446777,0.0,0.0,0.0,-74.37744,49.520874,-50.81726
1765377842001,-0.7861328,-0.4501953,0.31689453,-23.864746,-53.95508,20.446777,0.0,0.0,0.0,-77.87659,49.05945,-48.773804
1765377842089,-0.68359375,-0.71728516,0.11621094,-6.4086914,-16.418457,-10.070801,0.0,0.0,0.0,-77.87659,49.05945,-48.773804
1765377842101,-0.68359375,-0.71728516,0.11621094,-6.4086914,-16.418457,-10.070801,0.0,0.0,0.0,-71.57593,49.9823,-38.638916
1765377842189,-0.94970703,-0.6196289,0.1796875,15.563965,15.136719,2.5024414,0.0,0.0,0.0,-71.57593,49.9823,-38.638916
1765377842201,-0.94970703,-0.6196289,0.1796875,15.563965,15.136719,2.5024414,0.0,0.0,0.0,-73.33374,48.587036,-40.18799
1765377842289,-0.640625,-0.49316406,0.12890625,-4.638672,-15.075684,-0.061035156,0.0,0.0,0.0,-73.33374,48.587036,-40.18799
1765377842300,-0.640625,-0.49316406,0.12890625,-4.638672,-15.075684,-0.061035156,0.0,0.0,0.0,-72.61963,49.174805,-40.0177
1765377842388,-0.90771484,-0.60009766,0.1171875,-41.19873,12.451172,35.52246,0.0,0.0,0.0,-72.61963,49.174805,-40.0177
1765377842400,-0.90771484,-0.60009766,0.1171875,-41.19873,12.451172,35.52246,0.0,0.0,0.0,-73.47656,50.515137,-38.649902
1765377842488,-0.8486328,-0.7138672,0.44628906,11.59668,0.91552734,-3.9672852,0.0,0.0,0.0,-73.47656,50.515137,-38.649902
1765377842500,-0.8486328,-0.7138672,0.44628906,11.59668,0.91552734,-3.9672852,0.0,0.0,0.0,-78.376465,52.84424,-42.022705
1765377842588,-0.6333008,-0.38964844,-0.052734375,-15.74707,-18.981934,21.728516,0.0,0.0,0.0,-78.376465,52.84424,-42.022705
1765377842599,-0.6333008,-0.38964844,-0.052734375,-15.74707,-18.981934,21.728516,0.0,0.0,0.0,-73.306274,52.888184,-36.496582
1765377842688,-0.88720703,-0.6582031,0.2709961,69.82422,0.7324219,-26.489258,0.0,0.0,0.0,-73.306274,52.888184,-36.496582
1765377842699,-0.88720703,-0.6582031,0.2709961,69.82422,0.7324219,-26.489258,0.0,0.0,0.0,-71.18591,53.267212,-36.82617
1765377842787,-0.6743164,-0.69091797,0.034179688,23.986816,61.340332,-21.972656,0.0,0.0,0.0,-71.18591,53.267212,-36.82617
1765377842799,-0.6743164,-0.69091797,0.034179688,23.986816,61.340332,-21.972656,0.0,0.0,0.0,-71.6803,51.17981,-44.54956
1765377842887,-0.67626953,-0.71972656,0.040039062,-12.451172,31.00586,-20.874023,0.0,0.0,0.0,-71.6803,51.17981,-44.54956
1765377842899,-0.67626953,-0.71972656,0.040039062,-12.451172,31.00586,-20.874023,0.0,0.0,0.0,-78.24463,50.48767,-53.52539
1765377842987,-0.8461914,-0.46044922,0.33935547,-12.329102,-34.973145,14.953613,0.0,0.0,0.0,-78.24463,50.48767,-53.52539
1765377842998,-0.8461914,-0.46044922,0.33935547,-12.329102,-34.973145,14.953613,0.0,0.0,0.0,-80.079346,49.92737,-52.575073
1765377843087,-0.8334961,-0.9501953,0.13964844,0.8544922,4.272461,-40.649414,0.0,0.0,0.0,-80.079346,49.92737,-52.575073
1765377843098,-0.8334961,-0.9501953,0.13964844,0.8544922,4.272461,-40.649414,0.0,0.0,0.0,-76.777954,49.32312,-47.576294
1765377843186,-0.73828125,-0.4736328,-0.022949219,-13.183594,27.954102,4.272461,0.0,0.0,0.0,-76.777954,49.32312,-47.576294
1765377843198,-0.73828125,-0.4736328,-0.022949219,-13.183594,27.954102,4.272461,0.0,0.0,0.0,-79.694824,46.609497,-51.427002
1765377843286,-0.8457031,-0.7319336,-0.026367188,-25.57373,-28.503418,37.04834,0.0,0.0,0.0,-79.694824,46.609497,-51.427002
1765377843297,-0.8457031,-0.7319336,-0.026367188,-25.57373,-28.503418,37.04834,0.0,0.0,0.0,-80.45288,49.960327,-49.987793
1765377843386,-0.80078125,-0.484375,0.032226562,-29.052734,13.000488,9.887695,0.0,0.0,0.0,-80.45288,49.960327,-49.987793
1765377843397,-0.80078125,-0.484375,0.032226562,-29.052734,13.000488,9.887695,0.0,0.0,0.0,-83.33679,51.416016,-50.90515
1765377843486,-0.8979492,-0.72509766,0.22314453,-3.9672852,12.023926,-1.2207031,0.0,0.0,0.0,-83.33679,51.416016,-50.90515
1765377843497,-0.8979492,-0.72509766,0.22314453,-3.9672852,12.023926,-1.2207031,0.0,0.0,0.0,-85.92407,52.16858,-54.11316
1765377843585,-0.77978516,-0.73046875,0.037109375,30.517578,43.273926,-5.7373047,0.0,0.0,0.0,-85.92407,52.16858,-54.11316
1765377843597,-0.77978516,-0.73046875,0.037109375,30.517578,43.273926,-5.7373047,0.0,0.0,0.0,-85.374756,52.003784,-57.348633
1765377843685,-0.7128906,-0.55322266,-0.10644531,11.413574,27.648926,6.8359375,0.0,0.0,0.0,-85.374756,52.003784,-57.348633
1765377843696,-0.7128906,-0.55322266,-0.10644531,11.413574,27.648926,6.8359375,0.0,0.0,0.0,-89.90112,51.9104,-65.05554
1765377843785,-0.70410156,-0.7558594,-0.08642578,26.245117,-15.686035,-6.8359375,0.0,0.0,0.0,-89.90112,51.9104,-65.05554
1765377843797,-0.70410156,-0.7558594,-0.08642578,26.245117,-15.686035,-6.8359375,0.0,0.0,0.0,-87.37976,52.058716,-66.61011
1765377843884,-0.640625,-0.7158203,0.020996094,-1.7089844,16.479492,-23.986816,0.0,0.0,0.0,-87.37976,52.058716,-66.61011
1765377843896,-0.640625,-0.7158203,0.020996094,-1.7089844,16.479492,-23.986816,0.0,0.0,0.0,-87.30835,49.674683,-70.97717
1765377843984,-0.7783203,-0.4296875,0.20361328,-8.056641,-58.10547,20.141602,0.0,0.0,0.0,-87.30835,49.674683,-70.97717
1765377843996,-0.7783203,-0.4296875,0.20361328,-8.056641,-58.10547,20.141602,0.0,0.0,0.0,-87.231445,49.229736,-69.65881
1765377844084,-0.93115234,-1.0458984,0.19335938,6.652832,-45.043945,-19.40918,0.0,0.0,0.0,-87.231445,49.229736,-69.65881
1765377844096,-0.93115234,-1.0458984,0.19335938,6.652832,-45.043945,-19.40918,0.0,0.0,0.0,-78.63464,49.54834,-59.04602
1765377844184,-0.7089844,-0.4296875,-0.00390625,-15.686035,-15.930176,21.972656,0.0,0.0,0.0,-78.63464,49.54834,-59.04602
1765377844195,-0.7089844,-0.4296875,-0.00390625,-15.686035,-15.930176,21.972656,0.0,0.0,0.0,-76.37146,48.240967,-54.645996
1765377844283,-0.79785156,-0.5864258,0.1694336,-9.643555,2.5024414,10.192871,0.0,0.0,0.0,-76.37146,48.240967,-54.645996
1765377844295,-0.79785156,-0.5864258,0.1694336,-9.643555,2.5024414,10.192871,0.0,0.0,0.0,-76.91528,50.114136,-54.49768
1765377844383,-0.90625,-0.6694336,0.17480469,-42.785645,1.5869141,28.930664,0.0,0.0,0.0,-76.91528,50.114136,-54.49768
1765377844396,-0.90625,-0.6694336,0.17480469,-42.785645,1.5869141,28.930664,0.0,0.0,0.0,-80.04089,52.212524,-54.678955
1765377844483,-0.46777344,-0.31445312,0.09667969,28.686523,-40.527344,11.108398,0.0,0.0,0.0,-80.04089,52.212524,-54.678955
1765377844494,-0.46777344,-0.31445312,0.09667969,28.686523,-40.527344,11.108398,0.0,0.0,0.0,-74.59717,53.811035,-48.378296
1765377844583,-1.1479492,-0.7241211,0.26611328,57.250977,20.324707,-21.118164,0.0,0.0,0.0,-74.59717,53.811035,-48.378296
1765377844594,-1.1479492,-0.7241211,0.26611328,57.250977,20.324707,-21.118164,0.0,0.0,0.0,-71.795654,53.118896,-49.108887
1765377844682,-0.5961914,-0.7285156,0.09423828,21.66748,27.770996,-25.57373,0.0,0.0,0.0,-71.795654,53.118896,-49.108887
1765377844694,-0.5961914,-0.7285156,0.09423828,21.66748,27.770996,-25.57373,0.0,0.0,0.0,-70.32349,51.740112,-52.772827
1765377844782,-0.74609375,-0.6621094,0.049804688,-25.268555,20.324707,-7.019043,0.0,0.0,0.0,-70.32349,51.740112,-52.772827
1765377844794,-0.74609375,-0.6621094,0.049804688,-25.268555,20.324707,-7.019043,0.0,0.0,0.0,-75.86609,50.718384,-57.804565
1765377844882,-0.84375,-0.5019531,0.296875,-16.906738,-26.550293,15.625,0.0,0.0,0.0,-75.86609,50.718384,-57.804565
1765377844893,-0.84375,-0.5019531,0.296875,-16.906738,-26.550293,15.625,0.0,0.0,0.0,-78.61267,50.77881,-57.194824
1765377844982,-0.63378906,-0.65478516,0.140625,0.4272461,-23.742676,-15.014648,0.0,0.0,0.0,-78.61267,50.77881,-57.194824
1765377844993,-0.63378906,-0.65478516,0.140625,0.4272461,-23.742676,-15.014648,0.0,0.0,0.0,-72.61963,50.67444,-48.867188
1765377845081,-0.94970703,-0.62109375,0.17529297,-4.3945312,5.004883,11.291504,0.0,0.0,0.0,-72.61963,50.67444,-48.867188
1765377845093,-0.94970703,-0.62109375,0.17529297,-4.3945312,5.004883,11.291504,0.0,0.0,0.0,-74.61914,48.966064,-50.114136
1765377845181,-0.6713867,-0.4794922,0.1772461,-20.446777,-13.244629,10.986328,0.0,0.0,0.0,-74.61914,48.966064,-50.114136
1765377845193,-0.6713867,-0.4794922,0.1772461,-20.446777,-13.244629,10.986328,0.0,0.0,0.0,-74.77295,50.39978,-48.12561
1765377845281,-0.88720703,-0.546875,0.075683594,-61.035156,20.507812,51.818848,0.0,0.0,0.0,-74.77295,50.39978,-48.12561
1765377845292,-0.88720703,-0.546875,0.075683594,-61.035156,20.507812,51.818848,0.0,0.0,0.0,-77.87659,53.59131,-47.158813
1765377845381,-0.82714844,-0.48339844,0.2578125,2.6245117,-13.48877,16.540527,0.0,0.0,0.0,-77.87659,53.59131,-47.158813
1765377845392,-0.82714844,-0.48339844,0.2578125,2.6245117,-13.48877,16.540527,0.0,0.0,0.0,-82.06787,57.260742,-48.372803
1765377845480,-0.85546875,-0.55322266,0.044433594,42.419434,7.9345703,-9.094238,0.0,0.0,0.0,-82.06787,57.260742,-48.372803
1765377845492,-0.85546875,-0.55322266,0.044433594,42.419434,7.9345703,-9.094238,0.0,0.0,0.0,-76.503296,57.79358,-45.532837
1765377845580,-0.8564453,-0.6582031,0.12402344,59.32617,12.451172,-18.676758,0.0,0.0,0.0,-76.503296,57.79358,-45.532837
1765377845591,-0.8564453,-0.6582031,0.12402344,59.32617,12.451172,-18.676758,0.0,0.0,0.0,-73.635864,56.414795,-49.01001
1765377845680,-0.61865234,-0.6821289,0.026855469,-3.2348633,27.58789,-34.66797,0.0,0.0,0.0,-73.635864,56.414795,-49.01001
1765377845691,-0.61865234,-0.6821289,0.026855469,-3.2348633,27.58789,-34.66797,0.0,0.0,0.0,-75.03113,54.228516,-55.145874
1765377845780,-0.8881836,-0.5292969,0.1875,-30.090332,-6.3476562,3.8452148,0.0,0.0,0.0,-75.03113,54.228516,-55.145874
1765377845791,-0.8881836,-0.5292969,0.1875,-30.090332,-6.3476562,3.8452148,0.0,0.0,0.0,-80.25513,52.756348,-59.11743
1765377845879,-0.68896484,-0.4921875,0.26171875,32.348633,-5.493164,-6.164551,0.0,0.0,0.0,-80.25513,52.756348,-59.11743
1765377845891,-0.68896484,-0.4921875,0.26171875,32.348633,-5.493164,-6.164551,0.0,0.0,0.0,-78.5083,53.38257,-56.0083
1765377845979,-0.9472656,-0.77490234,0.28466797,-6.8969727,17.944336,-42.419434,0.0,0.0,0.0,-78.5083,53.38257,-56.0083
1765377845990,-0.9472656,-0.77490234,0.28466797,-6.8969727,17.944336,-42.419434,0.0,0.0,0.0,-79.24988,50.44922,-58.16162
1765377846079,-0.6479492,-0.484375,-0.0024414062,-25.817871,4.272461,5.554199,0.0,0.0,0.0,-79.24988,50.44922,-58.16162
1765377846090,-0.6479492,-0.484375,-0.0024414062,-25.817871,4.272461,5.554199,0.0,0.0,0.0,-83.85864,49.284668,-63.407593
1765377846178,-0.8964844,-0.62841797,-0.049804688,-36.621094,-51.635742,16.174316,0.0,0.0,0.0,-83.85864,49.284668,-63.407593
1765377846190,-0.8964844,-0.62841797,-0.049804688,-36.621094,-51.635742,16.174316,0.0,0.0,0.0,-81.69983,50.097656,-57.491455
1765377846279,-0.6767578,-0.5131836,0.09814453,-37.17041,22.766113,9.70459,0.0,0.0,0.0,-81.69983,50.097656,-57.491455
1765377846290,-0.6767578,-0.5131836,0.09814453,-37.17041,22.766113,9.70459,0.0,0.0,0.0,-84.27612,51.828003,-57.288208
1765377846378,-0.68408203,-0.45410156,0.14355469,24.597168,-22.705078,6.164551,0.0,0.0,0.0,-84.27612,51.828003,-57.288208
1765377846389,-0.68408203,-0.45410156,0.14355469,24.597168,-22.705078,6.164551,0.0,0.0,0.0,-87.03369,52.355347,-58.99109
1765377846478,-1.078125,-0.8022461,0.14746094,38.69629,24.108887,1.7700195,0.0,0.0,0.0,-87.03369,52.355347,-58.99109
1765377846490,-1.078125,-0.8022461,0.14746094,38.69629,24.108887,1.7700195,0.0,0.0,0.0,-83.86963,53.14087,-58.29895
1765377846577,-0.5751953,-0.59228516,-0.061035156,31.860352,37.353516,-13.305664,0.0,0.0,0.0,-83.86963,53.14087,-58.29895
1765377846589,-0.5751953,-0.59228516,-0.061035156,31.860352,37.353516,-13.305664,0.0,0.0,0.0,-83.95203,53.063965,-63.303223
1765377846677,-0.7685547,-0.7675781,-0.05126953,14.709473,10.7421875,-24.597168,0.0,0.0,0.0,-83.95203,53.063965,-63.303223
1765377846689,-0.7685547,-0.7675781,-0.05126953,14.709473,10.7421875,-24.597168,0.0,0.0,0.0,-85.704346,50.949097,-69.29077
1765377846777,-0.6425781,-0.5292969,0.060546875,-14.221191,3.90625,-0.6713867,0.0,0.0,0.0,-85.704346,50.949097,-69.29077
1765377846788,-0.6425781,-0.5292969,0.060546875,-14.221191,3.90625,-0.6713867,0.0,0.0,0.0,-87.41821,49.416504,-72.65808
1765377846877,-0.7836914,-0.6411133,0.2548828,23.68164,-54.80957,8.117676,0.0,0.0,0.0,-87.41821,49.416504,-72.65808
1765377846889,-0.7836914,-0.6411133,0.2548828,23.68164,-54.80957,8.117676,0.0,0.0,0.0,-85.479126,49.960327,-69.400635
1765377846977,-1.1030273,-0.8286133,0.19140625,-4.5776367,-11.413574,-17.211914,0.0,0.0,0.0,-85.479126,49.960327,-69.400635
1765377846988,-1.1030273,-0.8286133,0.19140625,-4.5776367,-11.413574,-17.211914,0.0,0.0,0.0,-79.2334,48.59253,-61.781616
1765377847076,-0.63134766,-0.59228516,0.033203125,-13.977051,-14.892578,10.437012,0.0,0.0,0.0,-79.2334,48.59253,-61.781616
1765377847088,-0.63134766,-0.59228516,0.033203125,-13.977051,-14.892578,10.437012,0.0,0.0,0.0,-78.61267,48.99353,-59.210815
1765377847176,-0.9145508,-0.5390625,-0.06933594,-35.52246,-17.51709,27.09961,0.0,0.0,0.0,-78.61267,48.99353,-59.210815
1765377847187,-0.9145508,-0.5390625,-0.06933594,-35.52246,-17.51709,27.09961,0.0,0.0,0.0,-79.20593,50.064697,-56.486206
1765377847276,-0.8173828,-0.5107422,0.040039062,-18.310547,27.648926,10.559082,0.0,0.0,0.0,-79.20593,50.064697,-56.486206
1765377847287,-0.8173828,-0.5107422,0.040039062,-18.310547,27.648926,10.559082,0.0,0.0,0.0,-83.0896,52.60254,-58.859253
1765377847375,-0.46777344,-0.35205078,0.21972656,61.21826,6.164551,-14.526367,0.0,0.0,0.0,-83.0896,52.60254,-58.859253
1765377847387,-0.46777344,-0.35205078,0.21972656,61.21826,6.164551,-14.526367,0.0,0.0,0.0,-81.58447,52.196045,-61.92993
1765377847475,-1.1723633,-1.0600586,0.2602539,66.345215,15.258789,-26.062012,0.0,0.0,0.0,-81.58447,52.196045,-61.92993
1765377847486,-1.1723633,-1.0600586,0.2602539,66.345215,15.258789,-26.062012,0.0,0.0,0.0,-76.744995,50.57007,-63.182373
1765377847575,-0.5131836,-0.5463867,0.125,3.1738281,5.493164,22.644043,0.0,0.0,0.0,-76.744995,50.57007,-63.182373
1765377847586,-0.5131836,-0.5463867,0.125,3.1738281,5.493164,22.644043,0.0,0.0,0.0,-76.986694,51.569824,-64.42383
1765377847675,-0.7739258,-0.8222656,0.05908203,-17.822266,-52.978516,-10.375977,0.0,0.0,0.0,-76.986694,51.569824,-64.42383
1765377847686,-0.7739258,-0.8222656,0.05908203,-17.822266,-52.978516,-10.375977,0.0,0.0,0.0,-72.20215,50.41626,-56.376343
1765377847774,-0.69970703,-0.6098633,0.24072266,-38.81836,2.8686523,3.8452148,0.0,0.0,0.0,-72.20215,50.41626,-56.376343
1765377847786,-0.69970703,-0.6098633,0.24072266,-38.81836,2.8686523,3.8452148,0.0,0.0,0.0,-73.98743,49.108887,-53.59131
1765377847874,-1.0576172,-0.6723633,0.28564453,-32.65381,21.362305,18.127441,0.0,0.0,0.0,-73.98743,49.108887,-53.59131
1765377847886,-1.0576172,-0.6723633,0.28564453,-32.65381,21.362305,18.127441,0.0,0.0,0.0,-79.140015,50.839233,-54.992065
1765377847974,-0.5991211,-0.5214844,0.171875,7.446289,-12.512207,-9.216309,0.0,0.0,0.0,-79.140015,50.839233,-54.992065
1765377847985,-0.5991211,-0.5214844,0.171875,7.446289,-12.512207,-9.216309,0.0,0.0,0.0,-75.83862,51.35559,-51.619263
1765377848073,-0.8515625,-0.6166992,0.13330078,-1.0986328,-6.286621,-0.36621094,0.0,0.0,0.0,-75.83862,51.35559,-51.619263
1765377848085,-0.8515625,-0.6166992,0.13330078,-1.0986328,-6.286621,-0.36621094,0.0,0.0,0.0,-77.49756,50.372314,-52.646484
1765377848173,-0.76464844,-0.46826172,0.03466797,-27.46582,-25.634766,22.827148,0.0,0.0,0.0,-77.49756,50.372314,-52.646484
1765377848185,-0.76464844,-0.46826172,0.03466797,-27.46582,-25.634766,22.827148,0.0,0.0,0.0,-76.28357,51.07544,-48.806763
1765377848273,-0.9375,-0.5551758,-0.012207031,-34.851074,26.000977,12.451172,0.0,0.0,0.0,-76.28357,51.07544,-48.806763
1765377848284,-0.9375,-0.5551758,-0.012207031,-34.851074,26.000977,12.451172,0.0,0.0,0.0,-79.678345,53.552856,-49.66919
1765377848373,-0.73535156,-0.5488281,0.24511719,29.60205,18.005371,-19.958496,0.0,0.0,0.0,-79.678345,53.552856,-49.66919
1765377848384,-0.73535156,-0.5488281,0.24511719,29.60205,18.005371,-19.958496,0.0,0.0,0.0,-84.105835,53.250732,-55.964355
1765377848472,-0.82910156,-0.66845703,0.080566406,32.958984,11.291504,-4.211426,0.0,0.0,0.0,-84.105835,53.250732,-55.964355
1765377848484,-0.82910156,-0.66845703,0.080566406,32.958984,11.291504,-4.211426,0.0,0.0,0.0,-79.60693,51.954346,-55.700684
1765377848572,-0.72998047,-0.6225586,0.115722656,26.184082,7.080078,-13.48877,0.0,0.0,0.0,-79.60693,51.954346,-55.700684
1765377848584,-0.72998047,-0.6225586,0.115722656,26.184082,7.080078,-13.48877,0.0,0.0,0.0,-78.97522,51.17981,-58.59558
1765377848672,-0.6611328,-0.7705078,0.056152344,30.578613,28.320312,-16.723633,0.0,0.0,0.0,-78.97522,51.17981,-58.59558
1765377848683,-0.6611328,-0.7705078,0.056152344,30.578613,28.320312,-16.723633,0.0,0.0,0.0,-78.25012,50.29541,-60.74341
1765377848772,-0.6196289,-0.81103516,0.08300781,1.3427734,31.433105,-27.34375,0.0,0.0,0.0,-78.25012,50.29541,-60.74341
1765377848783,-0.6196289,-0.81103516,0.08300781,1.3427734,31.433105,-27.34375,0.0,0.0,0.0,-80.70007,47.719116,-65.857544
1765377848871,-0.7529297,-0.40722656,0.2006836,-23.986816,-39.001465,8.728027,0.0,0.0,0.0,-80.70007,47.719116,-65.857544
1765377848883,-0.7529297,-0.40722656,0.2006836,-23.986816,-39.001465,8.728027,0.0,0.0,0.0,-83.05664,46.51062,-64.07776
1765377848971,-0.7817383,-0.9692383,0.1430664,3.0517578,-20.446777,-18.920898,0.0,0.0,0.0,-83.05664,46.51062,-64.07776
1765377848983,-0.7817383,-0.9692383,0.1430664,3.0517578,-20.446777,-18.920898,0.0,0.0,0.0,-76.937256,46.801758,-55.10742
1765377849071,-0.70458984,-0.5839844,0.00390625,-22.155762,15.014648,-0.48828125,0.0,0.0,0.0,-76.937256,46.801758,-55.10742
1765377849082,-0.70458984,-0.5839844,0.00390625,-22.155762,15.014648,-0.48828125,0.0,0.0,0.0,-78.673096,44.18152,-57.035522
1765377849171,-0.7524414,-0.62890625,0.049804688,-12.634277,-19.226074,14.6484375,0.0,0.0,0.0,-78.673096,44.18152,-57.035522
1765377849182,-0.7524414,-0.62890625,0.049804688,-12.634277,-19.226074,14.6484375,0.0,0.0,0.0,-79.70032,45.582275,-56.870728
1765377849270,-0.73291016,-0.66845703,0.0703125,-56.762695,-0.4272461,23.31543,0.0,0.0,0.0,-79.70032,45.582275,-56.870728
1765377849282,-0.73291016,-0.66845703,0.0703125,-56.762695,-0.4272461,23.31543,0.0,0.0,0.0,-82.194214,47.21924,-56.04126
1765377849370,-0.6269531,-0.36767578,0.10253906,-6.5307617,-54.138184,19.77539,0.0,0.0,0.0,-82.194214,47.21924,-56.04126
1765377849382,-0.6269531,-0.36767578,0.10253906,-6.5307617,-54.138184,19.77539,0.0,0.0,0.0,-82.337036,48.773804,-51.63025
1765377849470,-0.8745117,-0.7910156,0.08251953,27.34375,14.770508,6.652832,0.0,0.0,0.0,-82.337036,48.773804,-51.63025
1765377849482,-0.8745117,-0.7910156,0.08251953,27.34375,14.770508,6.652832,0.0,0.0,0.0,-77.98096,50.85022,-47.477417
1765377849570,-0.64501953,-0.5864258,-0.0034179688,32.104492,13.305664,-8.239746,0.0,0.0,0.0,-77.98096,50.85022,-47.477417
1765377849581,-0.64501953,-0.5864258,-0.0034179688,32.104492,13.305664,-8.239746,0.0,0.0,0.0,-74.49829,48.966064,-49.60327
1765377849669,-0.7504883,-0.76416016,0.09814453,9.521484,12.634277,-3.2348633,0.0,0.0,0.0,-74.49829,48.966064,-49.60327
1765377849681,-0.7504883,-0.76416016,0.09814453,9.521484,12.634277,-3.2348633,0.0,0.0,0.0,-75.28381,49.696655,-53.377075
1765377849769,-0.63671875,-0.62402344,0.14355469,-4.4555664,44.128418,-23.986816,0.0,0.0,0.0,-75.28381,49.696655,-53.377075
1765377849780,-0.63671875,-0.62402344,0.14355469,-4.4555664,44.128418,-23.986816,0.0,0.0,0.0,-78.31055,48.07068,-58.07373
1765377849869,-0.71435547,-0.5522461,0.34814453,15.380859,-41.625977,20.812988,0.0,0.0,0.0,-78.31055,48.07068,-58.07373
1765377849880,-0.71435547,-0.5522461,0.34814453,15.380859,-41.625977,20.812988,0.0,0.0,0.0,-80.96924,48.218994,-58.815308
1765377849969,-0.96191406,-0.9140625,0.11669922,-10.009766,10.620117,-39.123535,0.0,0.0,0.0,-80.96924,48.218994,-58.815308
1765377849980,-0.96191406,-0.9140625,0.11669922,-10.009766,10.620117,-39.123535,0.0,0.0,0.0,-75.47058,46.7688,-51.729126
1765377850068,-0.5878906,-0.50341797,0.14404297,-31.677246,-24.475098,20.751953,0.0,0.0,0.0,-75.47058,46.7688,-51.729126
1765377850080,-0.5878906,-0.50341797,0.14404297,-31.677246,-24.475098,20.751953,0.0,0.0,0.0,-77.48657,46.290894,-50.756836
1765377850168,-0.8383789,-0.58251953,0.12646484,-32.470703,-29.541016,21.118164,0.0,0.0,0.0,-77.48657,46.290894,-50.756836
1765377850180,-0.8383789,-0.58251953,0.12646484,-32.470703,-29.541016,21.118164,0.0,0.0,0.0,-75.74524,47.53784,-44.599
1765377850268,-0.9038086,-0.6743164,0.22607422,-26.428223,-4.5166016,29.60205,0.0,0.0,0.0,-75.74524,47.53784,-44.599
1765377850280,-0.9038086,-0.6743164,0.22607422,-26.428223,-4.5166016,29.60205,0.0,0.0,0.0,-77.12402,50.41626,-42.544556
1765377850367,-0.55029297,-0.34326172,0.20361328,33.569336,-42.48047,9.70459,0.0,0.0,0.0,-77.12402,50.41626,-42.544556
1765377850379,-0.55029297,-0.34326172,0.20361328,33.569336,-42.48047,9.70459,0.0,0.0,0.0,-72.91077,51.256714,-38.034668
1765377850467,-1.0556641,-1.0620117,0.2993164,48.76709,7.2021484,-23.010254,0.0,0.0,0.0,-72.91077,51.256714,-38.034668
1765377850479,-1.0556641,-1.0620117,0.2993164,48.76709,7.2021484,-23.010254,0.0,0.0,0.0,-67.27478,51.020508,-34.189453
1765377850567,-0.5986328,-0.5185547,0.15820312,4.272461,6.591797,1.8310547,0.0,0.0,0.0,-67.27478,51.020508,-34.189453
1765377850578,-0.5986328,-0.5185547,0.15820312,4.272461,6.591797,1.8310547,0.0,0.0,0.0,-66.780396,49.48242,-36.452637
1765377850667,-0.7919922,-0.7885742,0.1303711,-7.446289,9.155273,-10.986328,0.0,0.0,0.0,-66.780396,49.48242,-36.452637
1765377850678,-0.7919922,-0.7885742,0.1303711,-7.446289,9.155273,-10.986328,0.0,0.0,0.0,-65.56641,48.949585,-35.5188
1765377850766,-0.9355469,-0.5756836,0.34570312,-13.977051,46.99707,-6.713867,0.0,0.0,0.0,-65.56641,48.949585,-35.5188
1765377850778,-0.9355469,-0.5756836,0.34570312,-13.977051,46.99707,-6.713867,0.0,0.0,0.0,-72.37244,49.125366,-42.6709
1765377850866,-0.41503906,-0.3779297,0.20800781,60.48584,-12.634277,1.7700195,0.0,0.0,0.0,-72.37244,49.125366,-42.6709
1765377850878,-0.41503906,-0.3779297,0.20800781,60.48584,-12.634277,1.7700195,0.0,0.0,0.0,-68.47229,49.487915,-41.451416
1765377850966,-1.0888672,-1.1132812,0.60498047,8.544922,54.19922,-49.926758,0.0,0.0,0.0,-68.47229,49.487915,-41.451416
1765377850978,-1.0888672,-1.1132812,0.60498047,8.544922,54.19922,-49.926758,0.0,0.0,0.0,-69.63684,48.059692,-44.631958
1765377851066,-0.5722656,-0.38134766,-0.04638672,-36.743164,-20.141602,39.245605,0.0,0.0,0.0,-69.63684,48.059692,-44.631958
1765377851077,-0.5722656,-0.38134766,-0.04638672,-36.743164,-20.141602,39.245605,0.0,0.0,0.0,-71.90552,47.279663,-44.87915
1765377851165,-0.95214844,-0.6850586,0.22216797,-25.146484,-25.878906,5.859375,0.0,0.0,0.0,-71.90552,47.279663,-44.87915
1765377851177,-0.95214844,-0.6850586,0.22216797,-25.146484,-25.878906,5.859375,0.0,0.0,0.0,-69.81262,48.99353,-40.896606
1765377851265,-0.7133789,-0.7631836,0.2783203,-43.5791,54.80957,-4.760742,0.0,0.0,0.0,-69.81262,48.99353,-40.896606
1765377851277,-0.7133789,-0.7631836,0.2783203,-43.5791,54.80957,-4.760742,0.0,0.0,0.0,-74.95422,49.152832,-44.29138
1765377851365,-0.6669922,-0.24658203,0.06298828,24.475098,-39.855957,22.949219,0.0,0.0,0.0,-74.95422,49.152832,-44.29138
1765377851377,-0.6669922,-0.24658203,0.06298828,24.475098,-39.855957,22.949219,0.0,0.0,0.0,-76.67908,49.586792,-45.01648
1765377851464,-0.90234375,-1.0571289,0.37695312,59.387207,39.123535,-20.690918,0.0,0.0,0.0,-76.67908,49.586792,-45.01648
1765377851476,-0.90234375,-1.0571289,0.37695312,59.387207,39.123535,-20.690918,0.0,0.0,0.0,-74.20166,51.89392,-45.37903
1765377851564,-0.6381836,-0.5673828,-0.01953125,0.18310547,16.601562,0.9765625,0.0,0.0,0.0,-74.20166,51.89392,-45.37903
1765377851576,-0.6381836,-0.5673828,-0.01953125,0.18310547,16.601562,0.9765625,0.0,0.0,0.0,-73.11951,48.900146,-49.66919
1765377851664,-0.7128906,-0.81591797,0.12939453,-18.859863,3.6010742,-7.9956055,0.0,0.0,0.0,-73.11951,48.900146,-49.66919
1765377851676,-0.7128906,-0.81591797,0.12939453,-18.859863,3.6010742,-7.9956055,0.0,0.0,0.0,-75.62988,49.850464,-51.273193
1765377851764,-0.72021484,-0.5209961,0.09472656,-25.08545,32.226562,-15.991211,0.0,0.0,0.0,-75.62988,49.850464,-51.273193
1765377851776,-0.72021484,-0.5209961,0.09472656,-25.08545,32.226562,-15.991211,0.0,0.0,0.0,-80.10681,48.2135,-53.948364
1765377851863,-0.6826172,-0.66308594,0.26416016,24.963379,-39.733887,2.380371,0.0,0.0,0.0,-80.10681,48.2135,-53.948364
1765377851875,-0.6826172,-0.66308594,0.26416016,24.963379,-39.733887,2.380371,0.0,0.0,0.0,-79.92554,48.394775,-52.772827
1765377851963,-0.9921875,-0.8334961,0.067871094,-34.240723,22.155762,-14.221191,0.0,0.0,0.0,-79.92554,48.394775,-52.772827
1765377851975,-0.9921875,-0.8334961,0.067871094,-34.240723,22.155762,-14.221191,0.0,0.0,0.0,-79.98047,46.642456,-51.63025
1765377852063,-0.59716797,-0.484375,0.018554688,-18.188477,-35.40039,22.888184,0.0,0.0,0.0,-79.98047,46.642456,-51.63025
1765377852074,-0.59716797,-0.484375,0.018554688,-18.188477,-35.40039,22.888184,0.0,0.0,0.0,-80.10681,47.647705,-49.328613
1765377852163,-0.8466797,-0.6352539,0.057617188,-26.428223,-18.310547,18.249512,0.0,0.0,0.0,-80.10681,47.647705,-49.328613
1765377852174,-0.8466797,-0.6352539,0.057617188,-26.428223,-18.310547,18.249512,0.0,0.0,0.0,-79.29932,49.11438,-46.42273
1765377852262,-0.8178711,-0.6455078,0.123535156,-47.668457,-0.7324219,31.982422,0.0,0.0,0.0,-79.29932,49.11438,-46.42273
1765377852274,-0.8178711,-0.6455078,0.123535156,-47.668457,-0.7324219,31.982422,0.0,0.0,0.0,-82.46338,52.250977,-45.373535
1765377852362,-0.6645508,-0.3779297,0.2084961,41.625977,-54.80957,10.986328,0.0,0.0,0.0,-82.46338,52.250977,-45.373535
1765377852374,-0.6645508,-0.3779297,0.2084961,41.625977,-54.80957,10.986328,0.0,0.0,0.0,-78.19519,53.009033,-40.803223
1765377852462,-0.8466797,-0.56347656,0.030273438,21.118164,25.268555,12.878418,0.0,0.0,0.0,-78.19519,53.009033,-40.803223
1765377852474,-0.8466797,-0.56347656,0.030273438,21.118164,25.268555,12.878418,0.0,0.0,0.0,-72.54822,54.420776,-37.996216
1765377852562,-0.72558594,-0.6933594,0.115722656,44.25049,30.700684,-39.001465,0.0,0.0,0.0,-72.54822,54.420776,-37.996216
1765377852573,-0.72558594,-0.6933594,0.115722656,44.25049,30.700684,-39.001465,0.0,0.0,0.0,-72.542725,52.338867,-45.472412
1765377852661,-0.6245117,-0.7402344,0.07763672,-20.812988,11.71875,-2.746582,0.0,0.0,0.0,-72.542725,52.338867,-45.472412
1765377852673,-0.6245117,-0.7402344,0.07763672,-20.812988,11.71875,-2.746582,0.0,0.0,0.0,-76.04736,51.487427,-50.05371
1765377852761,-0.95458984,-0.6699219,0.24365234,-56.884766,-29.174805,8.056641,0.0,0.0,0.0,-76.04736,51.487427,-50.05371
1765377852772,-0.95458984,-0.6699219,0.24365234,-56.884766,-29.174805,8.056641,0.0,0.0,0.0,-79.24988,50.69641,-47.69165
1765377852861,-0.42382812,-0.3930664,0.21142578,20.080566,-48.095703,8.605957,0.0,0.0,0.0,-79.24988,50.69641,-47.69165
1765377852872,-0.42382812,-0.3930664,0.21142578,20.080566,-48.095703,8.605957,0.0,0.0,0.0,-73.15796,50.949097,-38.067627
1765377852961,-1.5073242,-0.89697266,0.20507812,-43.09082,-9.033203,-16.601562,0.0,0.0,0.0,-73.15796,50.949097,-38.067627
1765377852972,-1.5073242,-0.89697266,0.20507812,-43.09082,-9.033203,-16.601562,0.0,0.0,0.0,-73.07556,49.389038,-35.634155
1765377853060,-0.53466797,-0.38867188,0.025878906,-9.70459,14.709473,23.19336,0.0,0.0,0.0,-73.07556,49.389038,-35.634155
1765377853072,-0.53466797,-0.38867188,0.025878906,-9.70459,14.709473,23.19336,0.0,0.0,0.0,-75.162964,50.169067,-37.65564
1765377853160,-0.9067383,-0.42382812,0.12548828,3.1738281,-27.22168,8.972168,0.0,0.0,0.0,-75.162964,50.169067,-37.65564
1765377853171,-0.9067383,-0.42382812,0.12548828,3.1738281,-27.22168,8.972168,0.0,0.0,0.0,-73.15796,50.76233,-36.886597
1765377853260,-0.9213867,-0.62109375,0.24658203,-4.272461,36.56006,19.592285,0.0,0.0,0.0,-73.15796,50.76233,-36.886597
1765377853271,-0.9213867,-0.62109375,0.24658203,-4.272461,36.56006,19.592285,0.0,0.0,0.0,-74.79492,54.11316,-38.24341
1765377853359,-0.6010742,-0.43066406,0.24560547,60.302734,-13.793945,-11.84082,0.0,0.0,0.0,-74.79492,54.11316,-38.24341
1765377853371,-0.6010742,-0.43066406,0.24560547,60.302734,-13.793945,-11.84082,0.0,0.0,0.0,-72.08679,53.651733,-40.177002
1765377853459,-0.9082031,-0.7402344,0.26757812,38.085938,10.131836,-8.056641,0.0,0.0,0.0,-72.08679,53.651733,-40.177002
1765377853471,-0.9082031,-0.7402344,0.26757812,38.085938,10.131836,-8.056641,0.0,0.0,0.0,-67.18689,52.86621,-39.869385
1765377853559,-0.640625,-0.68115234,0.14160156,36.743164,20.751953,-12.817383,0.0,0.0,0.0,-67.18689,52.86621,-39.869385
1765377853570,-0.640625,-0.68115234,0.14160156,36.743164,20.751953,-12.817383,0.0,0.0,0.0,-62.38037,51.09192,-39.413452
1765377853659,-0.7216797,-0.71972656,0.20507812,-13.916016,42.297363,-20.141602,0.0,0.0,0.0,-62.38037,51.09192,-39.413452
1765377853670,-0.7216797,-0.71972656,0.20507812,-13.916016,42.297363,-20.141602,0.0,0.0,0.0,-69.61487,51.119385,-48.51013
1765377853758,-0.8330078,-0.6298828,0.23291016,-50.842285,1.7089844,-9.94873,0.0,0.0,0.0,-69.61487,51.119385,-48.51013
1765377853770,-0.8330078,-0.6298828,0.23291016,-50.842285,1.7089844,-9.94873,0.0,0.0,0.0,-75.03113,49.60327,-50.460205
1765377853858,-0.62597656,-0.5102539,0.25048828,1.5258789,-27.954102,16.357422,0.0,0.0,0.0,-75.03113,49.60327,-50.460205
1765377853870,-0.62597656,-0.5102539,0.25048828,1.5258789,-27.954102,16.357422,0.0,0.0,0.0,-73.811646,50.03723,-45.170288
1765377853958,-0.9916992,-0.7753906,0.27539062,19.592285,36.132812,-49.804688,0.0,0.0,0.0,-73.811646,50.03723,-45.170288
1765377853969,-0.9916992,-0.7753906,0.27539062,19.592285,36.132812,-49.804688,0.0,0.0,0.0,-73.55896,48.153076,-46.02173
1765377854058,-0.59814453,-0.5126953,0.08203125,-7.6293945,-3.8452148,14.160156,0.0,0.0,0.0,-73.55896,48.153076,-46.02173
1765377854069,-0.59814453,-0.5126953,0.08203125,-7.6293945,-3.8452148,14.160156,0.0,0.0,0.0,-74.382935,47.263184,-49.361572
1765377854157,-0.83496094,-0.6386719,0.16259766,-27.160645,-16.479492,19.714355,0.0,0.0,0.0,-74.382935,47.263184,-49.361572
1765377854169,-0.83496094,-0.6386719,0.16259766,-27.160645,-16.479492,19.714355,0.0,0.0,0.0,-74.40491,48.614502,-46.82373
1765377854257,-0.77978516,-0.8066406,0.34814453,-13.549805,-12.390137,9.094238,0.0,0.0,0.0,-74.40491,48.614502,-46.82373
1765377854269,-0.77978516,-0.8066406,0.34814453,-13.549805,-12.390137,9.094238,0.0,0.0,0.0,-75.07507,50.15808,-44.604492
1765377854357,-0.5415039,-0.36621094,0.15234375,-0.48828125,-69.33594,24.841309,0.0,0.0,0.0,-75.07507,50.15808,-44.604492
1765377854368,-0.5415039,-0.36621094,0.15234375,-0.48828125,-69.33594,24.841309,0.0,0.0,0.0,-69.400635,49.866943,-36.12854
1765377854457,-1.0273438,-0.73876953,0.23632812,4.3945312,-12.573242,10.681152,0.0,0.0,0.0,-69.400635,49.866943,-36.12854
1765377854468,-1.0273438,-0.73876953,0.23632812,4.3945312,-12.573242,10.681152,0.0,0.0,0.0,-63.154907,50.306396,-27.69104
1765377854556,-0.56396484,-0.5727539,0.1586914,18.310547,56.396484,-26.794434,0.0,0.0,0.0,-63.154907,50.306396,-27.69104
1765377854568,-0.56396484,-0.5727539,0.1586914,18.310547,56.396484,-26.794434,0.0,0.0,0.0,-64.19861,50.075684,-32.717285
1765377854656,-1.0380859,-0.71728516,0.34765625,-32.470703,13.183594,6.1035156,0.0,0.0,0.0,-64.19861,50.075684,-32.717285
1765377854667,-1.0380859,-0.71728516,0.34765625,-32.470703,13.183594,6.1035156,0.0,0.0,0.0,-71.015625,50.789795,-39.803467
1765377854757,-0.58935547,-0.3955078,0.19921875,34.851074,-21.118164,-3.6010742,0.0,0.0,0.0,-71.015625,50.789795,-39.803467
1765377854768,-0.58935547,-0.3955078,0.19921875,34.851074,-21.118164,-3.6010742,0.0,0.0,0.0,-65.9729,50.50415,-33.55774
1765377854855,-0.9135742,-0.7397461,0.36132812,24.963379,11.291504,-37.353516,0.0,0.0,0.0,-65.9729,50.50415,-33.55774
1765377854867,-0.9135742,-0.7397461,0.36132812,24.963379,11.291504,-37.353516,0.0,0.0,0.0,-64.78638,48.537598,-34.854126
1765377854955,-0.7807617,-0.38623047,0.12988281,-1.4648438,43.640137,5.004883,0.0,0.0,0.0,-64.78638,48.537598,-34.854126
1765377854967,-0.7807617,-0.38623047,0.12988281,-1.4648438,43.640137,5.004883,0.0,0.0,0.0,-67.302246,48.202515,-40.858154
1765377855055,-0.8144531,-0.68652344,0.2368164,2.1362305,-26.367188,6.7749023,0.0,0.0,0.0,-67.302246,48.202515,-40.858154
1765377855066,-0.8144531,-0.68652344,0.2368164,2.1362305,-26.367188,6.7749023,0.0,0.0,0.0,-66.395874,49.872437,-40.012207
1765377855155,-0.78271484,-0.5371094,0.19873047,-23.68164,21.66748,0.48828125,0.0,0.0,0.0,-66.395874,49.872437,-40.012207
1765377855166,-0.78271484,-0.5371094,0.19873047,-23.68164,21.66748,0.48828125,0.0,0.0,0.0,-69.2688,50.43274,-41.77002
1765377855255,-0.64208984,-0.47460938,0.25634766,-4.211426,-28.259277,20.141602,0.0,0.0,0.0,-69.2688,50.43274,-41.77002
1765377855266,-0.64208984,-0.47460938,0.25634766,-4.211426,-28.259277,20.141602,0.0,0.0,0.0,-70.05432,51.102905,-40.308838
1765377855354,-0.8515625,-1.0947266,0.33398438,-22.827148,12.634277,3.112793,0.0,0.0,0.0,-70.05432,51.102905,-40.308838
1765377855366,-0.8515625,-1.0947266,0.33398438,-22.827148,12.634277,3.112793,0.0,0.0,0.0,-67.263794,52.30591,-35.54077
1765377855454,-0.7651367,-0.35742188,0.010253906,-7.5683594,-45.288086,43.945312,0.0,0.0,0.0,-67.263794,52.30591,-35.54077
1765377855465,-0.7651367,-0.35742188,0.010253906,-7.5683594,-45.288086,43.945312,0.0,0.0,0.0,-66.2146,50.965576,-31.618652
1765377855554,-0.64208984,-0.60595703,0.25976562,3.6621094,8.300781,-5.1879883,0.0,0.0,0.0,-66.2146,50.965576,-31.618652
1765377855565,-0.64208984,-0.60595703,0.25976562,3.6621094,8.300781,-5.1879883,0.0,0.0,0.0,-64.49524,53.206787,-29.102783
1765377855653,-0.8413086,-0.5800781,0.18115234,29.174805,66.345215,-41.68701,0.0,0.0,0.0,-64.49524,53.206787,-29.102783
1765377855665,-0.8413086,-0.5800781,0.18115234,29.174805,66.345215,-41.68701,0.0,0.0,0.0,-68.76343,51.053467,-37.468872
1765377855753,-0.7363281,-0.5371094,0.34960938,24.108887,0.0,16.418457,0.0,0.0,0.0,-68.76343,51.053467,-37.468872
1765377855765,-0.7363281,-0.5371094,0.34960938,24.108887,0.0,16.418457,0.0,0.0,0.0,-75.46509,51.481934,-48.740845
1765377855853,-0.6020508,-0.50634766,0.21582031,15.014648,-16.601562,-22.766113,0.0,0.0,0.0,-75.46509,51.481934,-48.740845
1765377855865,-0.6020508,-0.50634766,0.21582031,15.014648,-16.601562,-22.766113,0.0,0.0,0.0,-66.676025,50.630493,-41.660156
1765377855953,-0.84277344,-0.6513672,0.29345703,38.757324,9.399414,-7.9956055,0.0,0.0,0.0,-66.676025,50.630493,-41.660156
1765377855964,-0.84277344,-0.6513672,0.29345703,38.757324,9.399414,-7.9956055,0.0,0.0,0.0,-66.84082,48.982544,-43.253174
1765377856052,-0.7338867,-0.64697266,0.22949219,-29.052734,-9.94873,-2.8686523,0.0,0.0,0.0,-66.84082,48.982544,-43.253174
1765377856064,-0.7338867,-0.64697266,0.22949219,-29.052734,-9.94873,-2.8686523,0.0,0.0,0.0,-66.59363,49.020996,-43.97827
1765377856152,-0.8461914,-0.59716797,0.17333984,-81.17676,-18.920898,33.38623,0.0,0.0,0.0,-66.59363,49.020996,-43.97827
1765377856164,-0.8461914,-0.59716797,0.17333984,-81.17676,-18.920898,33.38623,0.0,0.0,0.0,-69.6698,49.61975,-40.127563
1765377856252,-0.8383789,-0.7915039,0.4946289,-35.40039,-36.743164,6.8359375,0.0,0.0,0.0,-69.6698,49.61975,-40.127563
1765377856263,-0.8383789,-0.7915039,0.4946289,-35.40039,-36.743164,6.8359375,0.0,0.0,0.0,-72.76245,51.256714,-35.71106
1765377856351,-0.68603516,-0.2290039,0.021484375,-28.625488,-62.683105,38.269043,0.0,0.0,0.0,-72.76245,51.256714,-35.71106
1765377856363,-0.68603516,-0.2290039,0.021484375,-28.625488,-62.683105,38.269043,0.0,0.0,0.0,-65.736694,50.806274,-24.09851
1765377856451,-0.90283203,-0.74121094,0.30810547,30.88379,1.3427734,-0.30517578,0.0,0.0,0.0,-65.736694,50.806274,-24.09851
1765377856463,-0.90283203,-0.74121094,0.30810547,30.88379,1.3427734,-0.30517578,0.0,0.0,0.0,-62.072754,52.93213,-20.731201
1765377856551,-0.65478516,-0.60546875,0.18798828,24.475098,47.24121,-31.433105,0.0,0.0,0.0,-62.072754,52.93213,-20.731201
1765377856563,-0.65478516,-0.60546875,0.18798828,24.475098,47.24121,-31.433105,0.0,0.0,0.0,-61.331177,50.872192,-25.801392
1765377856651,-0.79345703,-0.64501953,0.22753906,-26.733398,15.319824,10.131836,0.0,0.0,0.0,-61.331177,50.872192,-25.801392
1765377856662,-0.79345703,-0.64501953,0.22753906,-26.733398,15.319824,10.131836,0.0,0.0,0.0,-67.95593,52.575073,-32.546997
1765377856751,-0.9038086,-0.41992188,0.40576172,39.0625,-6.958008,3.7231445,0.0,0.0,0.0,-67.95593,52.575073,-32.546997
1765377856762,-0.9038086,-0.41992188,0.40576172,39.0625,-6.958008,3.7231445,0.0,0.0,0.0,-66.346436,52.25647,-30.234375
1765377856850,-0.6484375,-0.47558594,0.29541016,10.314941,31.37207,-31.921387,0.0,0.0,0.0,-66.346436,52.25647,-30.234375
1765377856862,-0.6484375,-0.47558594,0.29541016,10.314941,31.37207,-31.921387,0.0,0.0,0.0,-65.52246,51.575317,-33.82141
1765377856950,-0.7446289,-0.6298828,0.296875,35.461426,15.319824,-47.668457,0.0,0.0,0.0,-65.52246,51.575317,-33.82141
1765377856961,-0.7446289,-0.6298828,0.296875,35.461426,15.319824,-47.668457,0.0,0.0,0.0,-65.69824,48.66394,-38.43567
1765377857050,-0.76660156,-0.5498047,0.1743164,-48.40088,0.8544922,24.291992,0.0,0.0,0.0,-65.69824,48.66394,-38.43567
1765377857061,-0.76660156,-0.5498047,0.1743164,-48.40088,0.8544922,24.291992,0.0,0.0,0.0,-72.49878,49.7406,-44.09912
1765377857149,-0.87402344,-0.5292969,0.099121094,-41.3208,-65.979004,37.53662,0.0,0.0,0.0,-72.49878,49.7406,-44.09912
1765377857161,-0.87402344,-0.5292969,0.099121094,-41.3208,-65.979004,37.53662,0.0,0.0,0.0,-68.97766,51.036987,-32.332764
1765377857249,-0.66015625,-0.70947266,0.4267578,-12.573242,-32.714844,11.291504,0.0,0.0,0.0,-68.97766,51.036987,-32.332764
1765377857261,-0.66015625,-0.70947266,0.4267578,-12.573242,-32.714844,11.291504,0.0,0.0,0.0,-67.59338,52.73987,-26.213379
1765377857349,-0.9638672,-0.32226562,0.028320312,7.8125,-30.761719,11.59668,0.0,0.0,0.0,-67.59338,52.73987,-26.213379
1765377857361,-0.9638672,-0.32226562,0.028320312,7.8125,-30.761719,11.59668,0.0,0.0,0.0,-61.688232,50.7843,-20.275269
1765377857449,-0.79003906,-0.77685547,0.37158203,55.358887,18.798828,-16.784668,0.0,0.0,0.0,-61.688232,50.7843,-20.275269
1765377857461,-0.79003906,-0.77685547,0.37158203,55.358887,18.798828,-16.784668,0.0,0.0,0.0,-59.02954,52.94861,-22.252808
1765377857548,-0.62939453,-0.6171875,0.0859375,14.160156,47.302246,-31.799316,0.0,0.0,0.0,-59.02954,52.94861,-22.252808
1765377857560,-0.62939453,-0.6171875,0.0859375,14.160156,47.302246,-31.799316,0.0,0.0,0.0,-61.045532,50.795288,-30.17395
1765377857648,-1.0039062,-0.6152344,0.42578125,-47.302246,0.30517578,14.465332,0.0,0.0,0.0,-61.045532,50.795288,-30.17395
1765377857660,-1.0039062,-0.6152344,0.42578125,-47.302246,0.30517578,14.465332,0.0,0.0,0.0,-68.74695,51.94336,-35.980225
1765377857748,-0.6035156,-0.52685547,0.30273438,6.8969727,-37.04834,-2.9296875,0.0,0.0,0.0,-68.74695,51.94336,-35.980225
1765377857759,-0.6035156,-0.52685547,0.30273438,6.8969727,-37.04834,-2.9296875,0.0,0.0,0.0,-64.14917,51.87195,-28.168945
1765377857848,-1.0498047,-0.6020508,0.37890625,1.4648438,0.18310547,-20.751953,0.0,0.0,0.0,-64.14917,51.87195,-28.168945
1765377857859,-1.0498047,-0.6020508,0.37890625,1.4648438,0.18310547,-20.751953,0.0,0.0,0.0,-65.20935,49.240723,-28.43811
1765377857947,-0.7265625,-0.3696289,0.14111328,7.507324,-7.3242188,8.178711,0.0,0.0,0.0,-65.20935,49.240723,-28.43811
1765377857959,-0.7265625,-0.3696289,0.14111328,7.507324,-7.3242188,8.178711,0.0,0.0,0.0,-64.401855,49.08142,-29.086304
1765377858047,-0.91552734,-0.51660156,0.31445312,-7.385254,-0.91552734,9.094238,0.0,0.0,0.0,-64.401855,49.08142,-29.086304
1765377858059,-0.91552734,-0.51660156,0.31445312,-7.385254,-0.91552734,9.094238,0.0,0.0,0.0,-61.836548,49.77356,-25.72998
1765377858147,-0.58935547,-0.6323242,0.37646484,35.095215,26.428223,-14.892578,0.0,0.0,0.0,-61.836548,49.77356,-25.72998
1765377858158,-0.58935547,-0.6323242,0.37646484,35.095215,26.428223,-14.892578,0.0,0.0,0.0,-63.484497,50.872192,-28.97644
1765377858247,-0.7192383,-0.4243164,0.14892578,30.151367,12.145996,-10.559082,0.0,0.0,0.0,-63.484497,50.872192,-28.97644
1765377858258,-0.7192383,-0.4243164,0.14892578,30.151367,12.145996,-10.559082,0.0,0.0,0.0,-63.325195,49.79004,-32.244873
1765377858346,-1.0048828,-0.8100586,0.43164062,44.067383,-39.123535,13.793945,0.0,0.0,0.0,-63.325195,49.79004,-32.244873
1765377858358,-1.0048828,-0.8100586,0.43164062,44.067383,-39.123535,13.793945,0.0,0.0,0.0,-56.645508,50.559082,-26.471558
1765377858446,-0.4423828,-0.5566406,0.1694336,9.94873,57.617188,-24.169922,0.0,0.0,0.0,-56.645508,50.559082,-26.471558
1765377858457,-0.4423828,-0.5566406,0.1694336,9.94873,57.617188,-24.169922,0.0,0.0,0.0,-56.398315,48.806763,-30.388184
1765377858546,-0.7583008,-0.73876953,0.3227539,-38.024902,18.127441,-0.4272461,0.0,0.0,0.0,-56.398315,48.806763,-30.388184
1765377858557,-0.7583008,-0.73876953,0.3227539,-38.024902,18.127441,-0.4272461,0.0,0.0,0.0,-64.643555,50.4657,-37.836914
1765377858646,-0.8901367,-0.38916016,0.49804688,-26.97754,-102.29492,43.518066,0.0,0.0,0.0,-64.643555,50.4657,-37.836914
1765377858657,-0.8901367,-0.38916016,0.49804688,-26.97754,-102.29492,43.518066,0.0,0.0,0.0,-63.47351,49.295654,-28.372192
1765377858745,-0.7832031,-0.53271484,0.26708984,-25.57373,6.4086914,-4.1503906,0.0,0.0,0.0,-63.47351,49.295654,-28.372192
1765377858757,-0.7832031,-0.53271484,0.26708984,-25.57373,6.4086914,-4.1503906,0.0,0.0,0.0,-60.578613,49.02649,-23.153687
1765377858845,-0.74560547,-0.45507812,0.30615234,36.499023,8.300781,-16.540527,0.0,0.0,0.0,-60.578613,49.02649,-23.153687
1765377858856,-0.74560547,-0.45507812,0.30615234,36.499023,8.300781,-16.540527,0.0,0.0,0.0,-60.007324,48.674927,-24.312744
1765377858945,-0.80126953,-0.51171875,0.36865234,-21.1792,52.55127,3.6621094,0.0,0.0,0.0,-60.007324,48.674927,-24.312744
1765377858956,-0.80126953,-0.51171875,0.36865234,-21.1792,52.55127,3.6621094,0.0,0.0,0.0,-61.85852,50.092163,-29.21814
1765377859044,-0.73291016,-0.6723633,0.2709961,-33.26416,-6.5307617,13.61084,0.0,0.0,0.0,-61.85852,50.092163,-29.21814
1765377859057,-0.73291016,-0.6723633,0.2709961,-33.26416,-6.5307617,13.61084,0.0,0.0,0.0,-68.307495,52.509155,-34.535522
1765377859144,-0.64697266,-0.44970703,0.27148438,-16.540527,-63.964844,9.521484,0.0,0.0,0.0,-68.307495,52.509155,-34.535522
1765377859156,-0.64697266,-0.44970703,0.27148438,-16.540527,-63.964844,9.521484,0.0,0.0,0.0,-66.18164,51.860962,-27.619629
1765377859244,-1.0361328,-0.55078125,0.2397461,1.159668,-13.48877,23.010254,0.0,0.0,0.0,-66.18164,51.860962,-27.619629
1765377859255,-1.0361328,-0.55078125,0.2397461,1.159668,-13.48877,23.010254,0.0,0.0,0.0,-60.12268,51.311646,-18.95691
1765377859344,-0.63964844,-0.5913086,0.19970703,39.978027,44.433594,-27.160645,0.0,0.0,0.0,-60.12268,51.311646,-18.95691
1765377859355,-0.63964844,-0.5913086,0.19970703,39.978027,44.433594,-27.160645,0.0,0.0,0.0,-58.562622,51.82251,-21.763916
1765377859443,-0.8022461,-0.66845703,0.24121094,12.512207,78.97949,-23.864746,0.0,0.0,0.0,-58.562622,51.82251,-21.763916
1765377859455,-0.8022461,-0.66845703,0.24121094,12.512207,78.97949,-23.864746,0.0,0.0,0.0,-66.033325,52.34436,-33.936768
1765377859543,-0.7705078,-0.4765625,0.25439453,2.9296875,-49.865723,34.118652,0.0,0.0,0.0,-66.033325,52.34436,-33.936768
1765377859555,-0.7705078,-0.4765625,0.25439453,2.9296875,-49.865723,34.118652,0.0,0.0,0.0,-66.95618,52.734375,-34.431152
1765377859643,-0.71875,-0.4892578,0.28857422,2.9296875,7.3242188,-22.277832,0.0,0.0,0.0,-66.95618,52.734375,-34.431152
1765377859654,-0.71875,-0.4892578,0.28857422,2.9296875,7.3242188,-22.277832,0.0,0.0,0.0,-65.22034,52.322388,-34.365234
1765377859743,-0.77441406,-0.48388672,0.16552734,19.470215,19.042969,-21.54541,0.0,0.0,0.0,-65.22034,52.322388,-34.365234
1765377859754,-0.77441406,-0.48388672,0.16552734,19.470215,19.042969,-21.54541,0.0,0.0,0.0,-65.23682,50.515137,-37.249146
1765377859842,-0.8354492,-0.6064453,0.18847656,-31.066895,-10.131836,14.160156,0.0,0.0,0.0,-65.23682,50.515137,-37.249146
1765377859854,-0.8354492,-0.6064453,0.18847656,-31.066895,-10.131836,14.160156,0.0,0.0,0.0,-68.703,51.17981,-41.121826
1765377859942,-0.8510742,-0.7807617,0.3466797,-52.18506,-18.859863,11.413574,0.0,0.0,0.0,-68.703,51.17981,-41.121826
1765377859954,-0.8510742,-0.7807617,0.3466797,-52.18506,-18.859863,11.413574,0.0,0.0,0.0,-70.356445,51.954346,-37.216187
1765377860042,-0.47314453,-0.22607422,0.11669922,-9.460449,-70.251465,29.174805,0.0,0.0,0.0,-70.356445,51.954346,-37.216187
1765377860053,-0.47314453,-0.22607422,0.11669922,-9.460449,-70.251465,29.174805,0.0,0.0,0.0,-67.94495,52.03125,-29.761963
1765377860142,-1.1054688,-0.7241211,0.2705078,7.507324,-15.075684,9.58252,0.0,0.0,0.0,-67.94495,52.03125,-29.761963
1765377860153,-1.1054688,-0.7241211,0.2705078,7.507324,-15.075684,9.58252,0.0,0.0,0.0,-61.951904,52.11914,-21.060791
1765377860241,-0.6411133,-0.5444336,0.16259766,39.733887,45.532227,-18.676758,0.0,0.0,0.0,-61.951904,52.11914,-21.060791
1765377860253,-0.6411133,-0.5444336,0.16259766,39.733887,45.532227,-18.676758,0.0,0.0,0.0,-59.172363,51.575317,-23.318481
1765377860341,-0.71972656,-0.68652344,0.2626953,9.399414,46.63086,-14.404297,0.0,0.0,0.0,-59.172363,51.575317,-23.318481
1765377860353,-0.71972656,-0.68652344,0.2626953,9.399414,46.63086,-14.404297,0.0,0.0,0.0,-65.165405,52.73987,-33.689575
1765377860441,-1.0039062,-0.53125,0.40625,13.122559,-41.44287,18.188477,0.0,0.0,0.0,-65.165405,52.73987,-33.689575
1765377860452,-1.0039062,-0.53125,0.40625,13.122559,-41.44287,18.188477,0.0,0.0,0.0,-66.26404,52.058716,-33.94226
1765377860540,-0.43798828,-0.29052734,0.1694336,43.45703,19.958496,-13.85498,0.0,0.0,0.0,-66.26404,52.058716,-33.94226
1765377860552,-0.43798828,-0.29052734,0.1694336,43.45703,19.958496,-13.85498,0.0,0.0,0.0,-61.75415,52.49817,-33.305054
1765377860640,-1.0244141,-0.9111328,0.5361328,57.678223,-19.042969,-35.27832,0.0,0.0,0.0,-61.75415,52.49817,-33.305054
1765377860652,-1.0244141,-0.9111328,0.5361328,57.678223,-19.042969,-35.27832,0.0,0.0,0.0,-59.595337,50.531616,-34.161987
1765377860740,-0.73876953,-0.35058594,0.24609375,-43.823242,75.56152,-7.3242188,0.0,0.0,0.0,-59.595337,50.531616,-34.161987
1765377860751,-0.73876953,-0.35058594,0.24609375,-43.823242,75.56152,-7.3242188,0.0,0.0,0.0,-62.495728,48.861694,-38.946533
1765377860840,-0.83740234,-0.5810547,0.1850586,-56.57959,-24.475098,22.033691,0.0,0.0,0.0,-62.495728,48.861694,-38.946533
1765377860851,-0.83740234,-0.5810547,0.1850586,-56.57959,-24.475098,22.033691,0.0,0.0,0.0,-69.054565,52.058716,-41.676636
1765377860939,-0.76416016,-0.69189453,0.44677734,-47.729492,-37.109375,23.864746,0.0,0.0,0.0,-69.054565,52.058716,-41.676636
1765377860951,-0.76416016,-0.69189453,0.44677734,-47.729492,-37.109375,23.864746,0.0,0.0,0.0,-67.71973,52.70691,-33.684082
1765377861039,-0.78759766,-0.27294922,0.07128906,5.3710938,-29.663086,11.962891,0.0,0.0,0.0,-67.71973,52.70691,-33.684082
1765377861051,-0.78759766,-0.27294922,0.07128906,5.3710938,-29.663086,11.962891,0.0,0.0,0.0,-62.57263,52.58606,-26.28479
1765377861139,-0.8408203,-0.62353516,0.29638672,52.91748,18.554688,0.0,0.0,0.0,0.0,-62.57263,52.58606,-26.28479
1765377861150,-0.8408203,-0.62353516,0.29638672,52.91748,18.554688,0.0,0.0,0.0,0.0,-59.3042,53.739624,-26.91101
1765377861239,-0.6508789,-0.6953125,0.1743164,41.870117,38.146973,-34.79004,0.0,0.0,0.0,-59.3042,53.739624,-26.91101
1765377861251,-0.6508789,-0.6953125,0.1743164,41.870117,38.146973,-34.79004,0.0,0.0,0.0,-59.282227,53.009033,-33.376465
1765377861338,-0.9633789,-0.6557617,0.30273438,-54.992676,-0.9765625,7.3242188,0.0,0.0,0.0,-59.282227,53.009033,-33.376465
1765377861350,-0.9633789,-0.6557617,0.30273438,-54.992676,-0.9765625,7.3242188,0.0,0.0,0.0,-65.15442,52.684937,-37.77649
1765377861438,-0.84277344,-0.4555664,0.30859375,-0.79345703,-9.094238,8.7890625,0.0,0.0,0.0,-65.15442,52.684937,-37.77649
1765377861450,-0.84277344,-0.4555664,0.30859375,-0.79345703,-9.094238,8.7890625,0.0,0.0,0.0,-63.48999,53.519897,-31.239624
1765377861538,-0.7758789,-0.52783203,0.35839844,12.512207,9.033203,-31.61621,0.0,0.0,0.0,-63.48999,53.519897,-31.239624
1765377861549,-0.7758789,-0.52783203,0.35839844,12.512207,9.033203,-31.61621,0.0,0.0,0.0,-64.0448,51.992798,-33.876343
1765377861638,-0.7348633,-0.3959961,0.21386719,59.509277,31.311035,-27.770996,0.0,0.0,0.0,-64.0448,51.992798,-33.876343
1765377861649,-0.7348633,-0.3959961,0.21386719,59.509277,31.311035,-27.770996,0.0,0.0,0.0,-62.1167,50.059204,-37.71057
1765377861737,-0.90234375,-0.59521484,0.3017578,11.230469,26.184082,3.90625,0.0,0.0,0.0,-62.1167,50.059204,-37.71057
1765377861749,-0.90234375,-0.59521484,0.3017578,11.230469,26.184082,3.90625,0.0,0.0,0.0,-63.95691,50.949097,-43.2312
1765377861837,-0.8149414,-0.69384766,0.2241211,-48.88916,0.8544922,2.1362305,0.0,0.0,0.0,-63.95691,50.949097,-43.2312
1765377861849,-0.8149414,-0.69384766,0.2241211,-48.88916,0.8544922,2.1362305,0.0,0.0,0.0,-65.703735,51.696167,-42.32483
1765377861937,-0.7192383,-0.53515625,0.3696289,-36.254883,-33.87451,19.40918,0.0,0.0,0.0,-65.703735,51.696167,-42.32483
1765377861948,-0.7192383,-0.53515625,0.3696289,-36.254883,-33.87451,19.40918,0.0,0.0,0.0,-70.510254,52.712402,-40.325317
1765377862037,-0.59521484,-0.46923828,0.12597656,-23.254395,-30.88379,-1.159668,0.0,0.0,0.0,-70.510254,52.712402,-40.325317
1765377862048,-0.59521484,-0.46923828,0.12597656,-23.254395,-30.88379,-1.159668,0.0,0.0,0.0,-65.181885,51.800537,-31.690063
1765377862136,-1.0380859,-0.5913086,0.24511719,44.37256,7.1411133,15.625,0.0,0.0,0.0,-65.181885,51.800537,-31.690063
1765377862148,-1.0380859,-0.5913086,0.24511719,44.37256,7.1411133,15.625,0.0,0.0,0.0,-63.03955,51.679688,-30.289307
1765377862236,-0.46923828,-0.66308594,0.2475586,28.381348,50.476074,-35.217285,0.0,0.0,0.0,-63.03955,51.679688,-30.289307
1765377862247,-0.46923828,-0.66308594,0.2475586,28.381348,50.476074,-35.217285,0.0,0.0,0.0,-64.34143,52.695923,-37.798462
1765377862336,-0.76660156,-0.75341797,0.19384766,-20.935059,23.31543,-20.751953,0.0,0.0,0.0,-64.34143,52.695923,-37.798462
1765377862347,-0.76660156,-0.75341797,0.19384766,-20.935059,23.31543,-20.751953,0.0,0.0,0.0,-70.806885,51.1084,-46.384277
1765377862435,-0.9003906,-0.4404297,0.28808594,-6.8359375,-91.73584,36.43799,0.0,0.0,0.0,-70.806885,51.1084,-46.384277
1765377862447,-0.9003906,-0.4404297,0.28808594,-6.8359375,-91.73584,36.43799,0.0,0.0,0.0,-67.994385,50.020752,-38.545532
1765377862535,-0.60839844,-0.5073242,0.21435547,-2.9907227,4.8217773,-17.333984,0.0,0.0,0.0,-67.994385,50.020752,-38.545532
1765377862547,-0.60839844,-0.5073242,0.21435547,-2.9907227,4.8217773,-17.333984,0.0,0.0,0.0,-65.077515,50.026245,-35.72754
1765377862635,-0.890625,-0.60302734,0.25585938,45.532227,9.94873,-17.211914,0.0,0.0,0.0,-65.077515,50.026245,-35.72754
1765377862646,-0.890625,-0.60302734,0.25585938,45.532227,9.94873,-17.211914,0.0,0.0,0.0,-64.19861,48.598022,-36.798706
1765377862735,-0.890625,-0.5541992,0.28173828,-4.5776367,-5.6762695,8.605957,0.0,0.0,0.0,-64.19861,48.598022,-36.798706
1765377862746,-0.890625,-0.5541992,0.28173828,-4.5776367,-5.6762695,8.605957,0.0,0.0,0.0,-64.77539,48.911133,-39.770508
1765377862834,-0.73779297,-0.6044922,0.25878906,-34.606934,-11.169434,9.643555,0.0,0.0,0.0,-64.77539,48.911133,-39.770508
1765377862846,-0.73779297,-0.6044922,0.25878906,-34.606934,-11.169434,9.643555,0.0,0.0,0.0,-63.08899,49.389038,-34.815674
1765377862934,-0.71972656,-0.43408203,0.15625,-53.833008,1.3427734,9.277344,0.0,0.0,0.0,-63.08899,49.389038,-34.815674
1765377862946,-0.71972656,-0.43408203,0.15625,-53.833008,1.3427734,9.277344,0.0,0.0,0.0,-67.43408,49.92737,-34.612427
1765377863034,-0.5229492,-0.45751953,0.29003906,2.2583008,-31.311035,23.19336,0.0,0.0,0.0,-67.43408,49.92737,-34.612427
1765377863045,-0.5229492,-0.45751953,0.29003906,2.2583008,-31.311035,23.19336,0.0,0.0,0.0,-68.64807,51.531372,-31.437378
1765377863133,-1.1704102,-0.8847656,0.37109375,-2.8076172,-5.554199,1.3427734,0.0,0.0,0.0,-68.64807,51.531372,-31.437378
1765377863145,-1.1704102,-0.8847656,0.37109375,-2.8076172,-5.554199,1.3427734,0.0,0.0,0.0,-65.91797,51.44348,-27.416382
1765377863233,-0.5888672,-0.45263672,0.119628906,14.465332,24.902344,22.216797,0.0,0.0,0.0,-65.91797,51.44348,-27.416382
1765377863245,-0.5888672,-0.45263672,0.119628906,14.465332,24.902344,22.216797,0.0,0.0,0.0,-65.03906,53.327637,-27.372437
1765377863333,-0.7709961,-0.6894531,0.21435547,23.010254,1.7700195,-30.395508,0.0,0.0,0.0,-65.03906,53.327637,-27.372437
1765377863345,-0.7709961,-0.6894531,0.21435547,23.010254,1.7700195,-30.395508,0.0,0.0,0.0,-64.6875,52.893677,-30.531006
1765377863433,-0.8339844,-0.54785156,0.14941406,15.075684,25.32959,2.4414062,0.0,0.0,0.0,-64.6875,52.893677,-30.531006
1765377863444,-0.8339844,-0.54785156,0.14941406,15.075684,25.32959,2.4414062,0.0,0.0,0.0,-65.88501,51.98181,-34.53003
1765377863532,-0.7050781,-0.6386719,0.1694336,32.287598,20.935059,-11.962891,0.0,0.0,0.0,-65.88501,51.98181,-34.53003
1765377863544,-0.7050781,-0.6386719,0.1694336,32.287598,20.935059,-11.962891,0.0,0.0,0.0,-66.59912,52.662964,-39.056396
1765377863632,-0.88378906,-0.6328125,0.37646484,-15.625,9.82666,-3.0517578,0.0,0.0,0.0,-66.59912,52.662964,-39.056396
1765377863644,-0.88378906,-0.6328125,0.37646484,-15.625,9.82666,-3.0517578,0.0,0.0,0.0,-69.89502,52.10266,-43.92334
1765377863732,-0.7182617,-0.6118164,0.21679688,-9.58252,1.5258789,-13.122559,0.0,0.0,0.0,-69.89502,52.10266,-43.92334
1765377863743,-0.7182617,-0.6118164,0.21679688,-9.58252,1.5258789,-13.122559,0.0,0.0,0.0,-70.2301,51.932373,-41.401978
1765377863832,-0.7866211,-0.42382812,0.28173828,-1.3427734,19.348145,-13.977051,0.0,0.0,0.0,-70.2301,51.932373,-41.401978
1765377863843,-0.7866211,-0.42382812,0.28173828,-1.3427734,19.348145,-13.977051,0.0,0.0,0.0,-72.50427,50.36133,-44.016724
1765377863931,-0.78271484,-0.74609375,0.22216797,7.873535,5.065918,-11.352539,0.0,0.0,0.0,-72.50427,50.36133,-44.016724
1765377863943,-0.78271484,-0.74609375,0.22216797,7.873535,5.065918,-11.352539,0.0,0.0,0.0,-73.02612,50.29541,-44.813232
1765377864031,-0.7324219,-0.48779297,0.13574219,-18.981934,-19.104004,0.0,0.0,0.0,0.0,-73.02612,50.29541,-44.813232
1765377864042,-0.7324219,-0.48779297,0.13574219,-18.981934,-19.104004,0.0,0.0,0.0,0.0,-73.33374,48.999023,-44.593506
1765377864131,-0.8574219,-0.6738281,0.17236328,-23.376465,-23.742676,13.122559,0.0,0.0,0.0,-73.33374,48.999023,-44.593506
1765377864142,-0.8574219,-0.6738281,0.17236328,-23.376465,-23.742676,13.122559,0.0,0.0,0.0,-71.922,49.641724,-39.786987
1765377864231,-0.73828125,-0.57666016,0.17138672,-11.230469,-12.207031,-1.8310547,0.0,0.0,0.0,-71.922,49.641724,-39.786987
1765377864242,-0.73828125,-0.57666016,0.17138672,-11.230469,-12.207031,-1.8310547,0.0,0.0,0.0,-72.333984,49.658203,-38.551025
1765377864330,-0.81591797,-0.5703125,0.20166016,-16.479492,-21.484375,9.643555,0.0,0.0,0.0,-72.333984,49.658203,-38.551025
1765377864342,-0.81591797,-0.5703125,0.20166016,-16.479492,-21.484375,9.643555,0.0,0.0,0.0,-71.26282,49.37805,-35.617676
1765377864430,-0.8457031,-0.63964844,0.2006836,4.760742,-2.0751953,-0.4272461,0.0,0.0,0.0,-71.26282,49.37805,-35.617676
1765377864441,-0.8457031,-0.63964844,0.2006836,4.760742,-2.0751953,-0.4272461,0.0,0.0,0.0,-70.38391,49.779053,-34.21692
1765377864530,-0.7504883,-0.59277344,0.123535156,-9.58252,-8.117676,3.3569336,0.0,0.0,0.0,-70.38391,49.779053,-34.21692
1765377864541,-0.7504883,-0.59277344,0.123535156,-9.58252,-8.117676,3.3569336,0.0,0.0,0.0,-70.10376,49.75708,-34.370728
1765377864629,-0.7373047,-0.49121094,0.110839844,-16.235352,-4.638672,13.061523,0.0,0.0,0.0,-70.10376,49.75708,-34.370728
1765377864641,-0.7373047,-0.49121094,0.110839844,-16.235352,-4.638672,13.061523,0.0,0.0,0.0,-70.58716,50.421753,-33.513794
1765377864729,-0.8222656,-0.5546875,0.25390625,11.108398,3.479004,3.0517578,0.0,0.0,0.0,-70.58716,50.421753,-33.513794
1765377864741,-0.8222656,-0.5546875,0.25390625,11.108398,3.479004,3.0517578,0.0,0.0,0.0,-71.53198,51.49292,-34.56299
1765377864829,-0.65966797,-0.5292969,0.22363281,31.311035,5.065918,6.1035156,0.0,0.0,0.0,-71.53198,51.49292,-34.56299
1765377864840,-0.65966797,-0.5292969,0.22363281,31.311035,5.065918,6.1035156,0.0,0.0,0.0,-69.21936,52.003784,-35.145264
1765377864929,-0.63134766,-0.8359375,0.35253906,4.760742,2.746582,-8.178711,0.0,0.0,0.0,-69.21936,52.003784,-35.145264
1765377864940,-0.63134766,-0.8359375,0.35253906,4.760742,2.746582,-8.178711,0.0,0.0,0.0,-67.74719,52.003784,-35.6781
1765377865028,-0.86279297,-0.50146484,0.1640625,-15.50293,-66.95557,22.583008,0.0,0.0,0.0,-67.74719,52.003784,-35.6781
1765377865040,-0.86279297,-0.50146484,0.1640625,-15.50293,-66.95557,22.583008,0.0,0.0,0.0,-63.73169,49.888916,-28.35022
1765377865128,-0.74853516,-0.57958984,0.23779297,13.977051,2.8076172,1.953125,0.0,0.0,0.0,-63.73169,49.888916,-28.35022
1765377865140,-0.74853516,-0.57958984,0.23779297,13.977051,2.8076172,1.953125,0.0,0.0,0.0,-61.693726,50.839233,-25.675049
1765377865228,-0.7392578,-0.6118164,0.2548828,34.240723,37.65869,-26.855469,0.0,0.0,0.0,-61.693726,50.839233,-25.675049
1765377865239,-0.7392578,-0.6118164,0.2548828,34.240723,37.65869,-26.855469,0.0,0.0,0.0,-62.061768,49.850464,-30.629883
1765377865328,-0.9086914,-0.73779297,0.27392578,-8.728027,29.541016,1.3427734,0.0,0.0,0.0,-62.061768,49.850464,-30.629883
1765377865339,-0.9086914,-0.73779297,0.27392578,-8.728027,29.541016,1.3427734,0.0,0.0,0.0,-66.56616,50.77881,-38.034668
1765377865427,-0.77734375,-0.54003906,0.3486328,10.925293,10.314941,2.8686523,0.0,0.0,0.0,-66.56616,50.77881,-38.034668
1765377865439,-0.77734375,-0.54003906,0.3486328,10.925293,10.314941,2.8686523,0.0,0.0,0.0,-67.29675,51.828003,-37.419434
1765377865527,-0.5288086,-0.24609375,0.24609375,22.338867,41.870117,-30.822754,0.0,0.0,0.0,-67.29675,51.828003,-37.419434
1765377865539,-0.5288086,-0.24609375,0.24609375,22.338867,41.870117,-30.822754,0.0,0.0,0.0,-68.58765,50.993042,-42.039185
1765377865627,-0.95214844,-0.9741211,0.3696289,64.208984,20.568848,-54.44336,0.0,0.0,0.0,-68.58765,50.993042,-42.039185
1765377865638,-0.95214844,-0.9741211,0.3696289,64.208984,20.568848,-54.44336,0.0,0.0,0.0,-68.23059,48.795776,-46.241455
1765377865726,-0.58691406,-0.52197266,0.061035156,-17.700195,64.819336,-6.652832,0.0,0.0,0.0,-68.23059,48.795776,-46.241455
1765377865738,-0.58691406,-0.52197266,0.061035156,-17.700195,64.819336,-6.652832,0.0,0.0,0.0,-75.130005,47.62024,-55.03601
1765377865826,-0.85498047,-0.65283203,0.14208984,-51.452637,-80.68848,15.380859,0.0,0.0,0.0,-75.130005,47.62024,-55.03601
1765377865839,-0.85498047,-0.65283203,0.14208984,-51.452637,-80.68848,15.380859,0.0,0.0,0.0,-75.805664,47.69165,-50.44922
1765377865926,-0.7426758,-0.6118164,0.14111328,-53.649902,-39.489746,19.89746,0.0,0.0,0.0,-75.805664,47.69165,-50.44922
1765377865938,-0.7426758,-0.6118164,0.14111328,-53.649902,-39.489746,19.89746,0.0,0.0,0.0,-73.26782,47.938843,-40.286865
1765377866026,-1.0224609,-0.89501953,0.27685547,-34.729004,3.1738281,2.4414062,0.0,0.0,0.0,-73.26782,47.938843,-40.286865
1765377866038,-1.0224609,-0.89501953,0.27685547,-34.729004,3.1738281,2.4414062,0.0,0.0,0.0,-76.970215,48.773804,-39.765015
1765377866125,-0.62158203,-0.40771484,0.11621094,-25.08545,-51.452637,24.230957,0.0,0.0,0.0,-76.970215,48.773804,-39.765015
1765377866137,-0.62158203,-0.40771484,0.11621094,-25.08545,-51.452637,24.230957,0.0,0.0,0.0,-75.41565,49.23523,-34.75525
1765377866225,-0.6118164,-0.4482422,0.21142578,-14.160156,-29.11377,43.45703,0.0,0.0,0.0,-75.41565,49.23523,-34.75525
1765377866236,-0.6118164,-0.4482422,0.21142578,-14.160156,-29.11377,43.45703,0.0,0.0,0.0,-71.433105,52.036743,-27.350464
1765377866325,-1.0546875,-0.7792969,0.40820312,32.165527,-14.831543,-15.441895,0.0,0.0,0.0,-71.433105,52.036743,-27.350464
1765377866336,-1.0546875,-0.7792969,0.40820312,32.165527,-14.831543,-15.441895,0.0,0.0,0.0,-67.91199,52.591553,-24.21936
1765377866425,-0.6191406,-0.47509766,0.122558594,18.371582,13.244629,10.986328,0.0,0.0,0.0,-67.91199,52.591553,-24.21936
1765377866436,-0.6191406,-0.47509766,0.122558594,18.371582,13.244629,10.986328,0.0,0.0,0.0,-65.791626,52.67395,-25.0708
1765377866524,-0.7402344,-0.68310547,0.23535156,6.1035156,-33.081055,-10.437012,0.0,0.0,0.0,-65.791626,52.67395,-25.0708
1765377866536,-0.7402344,-0.68310547,0.23535156,6.1035156,-33.081055,-10.437012,0.0,0.0,0.0,-63.52295,52.075195,-24.109497
1765377866624,-0.8886719,-0.5571289,0.25,4.9438477,-41.992188,-2.9296875,0.0,0.0,0.0,-63.52295,52.075195,-24.109497
1765377866635,-0.8886719,-0.5571289,0.25,4.9438477,-41.992188,-2.9296875,0.0,0.0,0.0,-59.924927,49.334106,-19.544678
1765377866724,-0.7504883,-0.52978516,0.20800781,22.827148,9.643555,-10.192871,0.0,0.0,0.0,-59.924927,49.334106,-19.544678
1765377866735,-0.7504883,-0.52978516,0.20800781,22.827148,9.643555,-10.192871,0.0,0.0,0.0,-57.782593,48.59253,-19.25354
1765377866823,-0.7363281,-0.6459961,0.25683594,25.20752,40.039062,-18.798828,0.0,0.0,0.0,-57.782593,48.59253,-19.25354
1765377866835,-0.7363281,-0.6459961,0.25683594,25.20752,40.039062,-18.798828,0.0,0.0,0.0,-59.249268,48.718872,-25.543213
1765377866923,-1.0478516,-0.5629883,0.5541992,-9.82666,18.127441,19.226074,0.0,0.0,0.0,-59.249268,48.718872,-25.543213
1765377866935,-1.0478516,-0.5629883,0.5541992,-9.82666,18.127441,19.226074,0.0,0.0,0.0,-63.73169,50.355835,-31.322021
1765377867023,-0.53515625,-0.6972656,0.42138672,14.465332,4.4555664,-10.681152,0.0,0.0,0.0,-63.73169,50.355835,-31.322021
1765377867034,-0.53515625,-0.6972656,0.42138672,14.465332,4.4555664,-10.681152,0.0,0.0,0.0,-63.479004,52.18506,-31.113281
1765377867123,-0.9682617,-0.49072266,0.29736328,25.20752,37.65869,-34.057617,0.0,0.0,0.0,-63.479004,52.18506,-31.113281
1765377867134,-0.9682617,-0.49072266,0.29736328,25.20752,37.65869,-34.057617,0.0,0.0,0.0,-64.819336,49.18579,-35.41443
1765377867222,-0.62353516,-0.53466797,0.16455078,34.79004,62.25586,-16.906738,0.0,0.0,0.0,-64.819336,49.18579,-35.41443
1765377867234,-0.62353516,-0.53466797,0.16455078,34.79004,62.25586,-16.906738,0.0,0.0,0.0,-67.472534,49.91089,-42.945557
1765377867322,-0.7817383,-0.63183594,0.18408203,5.6152344,-34.851074,0.12207031,0.0,0.0,0.0,-67.472534,49.91089,-42.945557
1765377867333,-0.7817383,-0.63183594,0.18408203,5.6152344,-34.851074,0.12207031,0.0,0.0,0.0,-67.26929,49.312134,-44.63745
1765377867422,-0.7553711,-0.6098633,0.20507812,-22.216797,-38.757324,13.000488,0.0,0.0,0.0,-67.26929,49.312134,-44.63745
1765377867433,-0.7553711,-0.6098633,0.20507812,-22.216797,-38.757324,13.000488,0.0,0.0,0.0,-64.16565,48.581543,-37.820435
1765377867521,-0.79833984,-0.5371094,0.24902344,-10.7421875,-20.080566,10.498047,0.0,0.0,0.0,-64.16565,48.581543,-37.820435
1765377867533,-0.79833984,-0.5371094,0.24902344,-10.7421875,-20.080566,10.498047,0.0,0.0,0.0,-63.094482,48.477173,-34.04663
1765377867621,-0.8251953,-0.6640625,0.29052734,0.24414062,-5.432129,-3.7231445,0.0,0.0,0.0,-63.094482,48.477173,-34.04663
1765377867633,-0.8251953,-0.6640625,0.29052734,0.24414062,-5.432129,-3.7231445,0.0,0.0,0.0,-61.92444,48.460693,-31.904297
1765377867721,-0.94384766,-0.78222656,0.38085938,-48.15674,-2.319336,21.54541,0.0,0.0,0.0,-61.92444,48.460693,-31.904297
1765377867733,-0.94384766,-0.78222656,0.38085938,-48.15674,-2.319336,21.54541,0.0,0.0,0.0,-64.81384,49.108887,-32.514038
1765377867821,-0.5932617,-0.34765625,0.24365234,-31.738281,-28.808594,22.583008,0.0,0.0,0.0,-64.81384,49.108887,-32.514038
1765377867832,-0.5932617,-0.34765625,0.24365234,-31.738281,-28.808594,22.583008,0.0,0.0,0.0,-64.78088,50.064697,-27.202148
1765377867920,-0.6723633,-0.58251953,0.32910156,-19.77539,7.2631836,16.479492,0.0,0.0,0.0,-64.78088,50.064697,-27.202148
1765377867932,-0.6723633,-0.58251953,0.32910156,-19.77539,7.2631836,16.479492,0.0,0.0,0.0,-65.1709,52.025757,-24.175415
1765377868020,-0.84472656,-0.48339844,0.32617188,5.9814453,6.0424805,-13.061523,0.0,0.0,0.0,-65.1709,52.025757,-24.175415
1765377868032,-0.84472656,-0.48339844,0.32617188,5.9814453,6.0424805,-13.061523,0.0,0.0,0.0,-65.56641,50.90515,-25.076294
1765377868120,-0.6665039,-0.58984375,0.25878906,8.972168,-5.9814453,7.6293945,0.0,0.0,0.0,-65.56641,50.90515,-25.076294
1765377868132,-0.6665039,-0.58984375,0.25878906,8.972168,-5.9814453,7.6293945,0.0,0.0,0.0,-65.25879,52.058716,-25.41687
1765377868220,-0.76953125,-0.5732422,0.22705078,19.40918,-6.4086914,-18.798828,0.0,0.0,0.0,-65.25879,52.058716,-25.41687
1765377868231,-0.76953125,-0.5732422,0.22705078,19.40918,-6.4086914,-18.798828,0.0,0.0,0.0,-63.5614,50.13611,-25.460815
1765377868319,-0.78515625,-0.5751953,0.21435547,13.61084,2.9296875,5.79834,0.0,0.0,0.0,-63.5614,50.13611,-25.460815
1765377868331,-0.78515625,-0.5751953,0.21435547,13.61084,2.9296875,5.79834,0.0,0.0,0.0,-61.814575,49.630737,-25.378418
1765377868419,-0.7734375,-0.578125,0.24365234,15.563965,11.230469,-0.24414062,0.0,0.0,0.0,-61.814575,49.630737,-25.378418
1765377868430,-0.7734375,-0.578125,0.24365234,15.563965,11.230469,-0.24414062,0.0,0.0,0.0,-61.468506,50.43274,-27.251587
1765377868519,-0.80371094,-0.6152344,0.16748047,13.916016,21.362305,-2.319336,0.0,0.0,0.0,-61.468506,50.43274,-27.251587
1765377868530,-0.80371094,-0.6152344,0.16748047,13.916016,21.362305,-2.319336,0.0,0.0,0.0,-61.688232,50.98755,-29.63562
1765377868618,-0.9057617,-0.6879883,0.44433594,2.2583008,34.973145,7.1411133,0.0,0.0,0.0,-61.688232,50.98755,-29.63562
1765377868630,-0.9057617,-0.6879883,0.44433594,2.2583008,34.973145,7.1411133,0.0,0.0,0.0,-65.22034,52.51465,-35.26062
1765377868718,-0.6347656,-0.49121094,0.30126953,14.709473,0.0,-15.258789,0.0,0.0,0.0,-65.22034,52.51465,-35.26062
1765377868730,-0.6347656,-0.49121094,0.30126953,14.709473,0.0,-15.258789,0.0,0.0,0.0,-66.54968,52.88269,-36.82617
1765377868818,-0.9501953,-0.35595703,0.28808594,-13.977051,31.738281,2.0141602,0.0,0.0,0.0,-66.54968,52.88269,-36.82617
1765377868829,-0.9501953,-0.35595703,0.28808594,-13.977051,31.738281,2.0141602,0.0,0.0,0.0,-67.96692,52.333374,-38.897095
1765377868918,-0.63623047,-0.62890625,0.265625,16.540527,13.793945,-39.55078,0.0,0.0,0.0,-67.96692,52.333374,-38.897095
1765377868929,-0.63623047,-0.62890625,0.265625,16.540527,13.793945,-39.55078,0.0,0.0,0.0,-69.86206,52.36084,-42.868652
1765377869017,-0.8100586,-0.4189453,0.09667969,-19.226074,-13.977051,16.296387,0.0,0.0,0.0,-69.86206,52.36084,-42.868652
1765377869029,-0.8100586,-0.4189453,0.09667969,-19.226074,-13.977051,16.296387,0.0,0.0,0.0,-71.8396,51.015015,-44.813232
1765377869117,-0.8027344,-0.6694336,0.24023438,0.5493164,-27.893066,-3.1738281,0.0,0.0,0.0,-71.8396,51.015015,-44.813232
1765377869129,-0.8027344,-0.6694336,0.24023438,0.5493164,-27.893066,-3.1738281,0.0,0.0,0.0,-68.499756,51.56433,-39.589233
1765377869217,-0.78808594,-0.57421875,0.12695312,-2.8686523,-0.9765625,-5.065918,0.0,0.0,0.0,-68.499756,51.56433,-39.589233
1765377869228,-0.78808594,-0.57421875,0.12695312,-2.8686523,-0.9765625,-5.065918,0.0,0.0,0.0,-67.785645,50.60852,-39.127808
1765377869317,-0.8256836,-0.6669922,0.3623047,-20.080566,-46.691895,3.7231445,0.0,0.0,0.0,-67.785645,50.60852,-39.127808
1765377869328,-0.8256836,-0.6669922,0.3623047,-20.080566,-46.691895,3.7231445,0.0,0.0,0.0,-66.51123,49.735107,-35.612183
1765377869416,-0.82910156,-0.64697266,0.27246094,-29.968262,-17.578125,2.5634766,0.0,0.0,0.0,-66.51123,49.735107,-35.612183
1765377869428,-0.82910156,-0.64697266,0.27246094,-29.968262,-17.578125,2.5634766,0.0,0.0,0.0,-65.165405,48.50464,-30.151978
1765377869516,-0.5786133,-0.34033203,0.08984375,-44.677734,-3.7231445,16.540527,0.0,0.0,0.0,-65.165405,48.50464,-30.151978
1765377869528,-0.5786133,-0.34033203,0.08984375,-44.677734,-3.7231445,16.540527,0.0,0.0,0.0,-68.79089,49.471436,-30.009155
1765377869616,-0.8046875,-0.6176758,0.25927734,-39.67285,-5.065918,25.6958,0.0,0.0,0.0,-68.79089,49.471436,-30.009155
1765377869627,-0.8046875,-0.6176758,0.25927734,-39.67285,-5.065918,25.6958,0.0,0.0,0.0,-69.55994,51.641235,-27.03186
1765377869716,-0.5708008,-0.3359375,0.21679688,27.09961,-22.094727,-1.3427734,0.0,0.0,0.0,-69.55994,51.641235,-27.03186
1765377869727,-0.5708008,-0.3359375,0.21679688,27.09961,-22.094727,-1.3427734,0.0,0.0,0.0,-65.83008,50.685425,-24.713745
1765377869815,-1.0898438,-0.89208984,0.30664062,13.61084,13.793945,17.39502,0.0,0.0,0.0,-65.83008,50.685425,-24.713745
1765377869827,-1.0898438,-0.89208984,0.30664062,13.61084,13.793945,17.39502,0.0,0.0,0.0,-64.35242,52.580566,-24.68628
1765377869915,-0.57958984,-0.46875,0.18261719,32.65381,-0.36621094,-5.3100586,0.0,0.0,0.0,-64.35242,52.580566,-24.68628
1765377869927,-0.57958984,-0.46875,0.18261719,32.65381,-0.36621094,-5.3100586,0.0,0.0,0.0,-62.06726,52.069702,-25.32898
1765377870015,-0.8120117,-0.6948242,0.19482422,12.023926,2.1972656,-8.7890625,0.0,0.0,0.0,-62.06726,52.069702,-25.32898
1765377870027,-0.8120117,-0.6948242,0.19482422,12.023926,2.1972656,-8.7890625,0.0,0.0,0.0,-60.79834,51.481934,-26.619873
1765377870115,-0.8461914,-0.578125,0.2524414,15.441895,4.760742,-6.4086914,0.0,0.0,0.0,-60.79834,51.481934,-26.619873
1765377870126,-0.8461914,-0.578125,0.2524414,15.441895,4.760742,-6.4086914,0.0,0.0,0.0,-60.79834,50.71289,-28.26233
1765377870214,-0.7504883,-0.6616211,0.27148438,13.366699,21.30127,-7.446289,0.0,0.0,0.0,-60.79834,50.71289,-28.26233
1765377870226,-0.7504883,-0.6616211,0.27148438,13.366699,21.30127,-7.446289,0.0,0.0,0.0,-61.59485,50.993042,-31.343994
1765377870314,-0.9375,-0.6826172,0.34570312,-42.23633,20.019531,15.075684,0.0,0.0,0.0,-61.59485,50.993042,-31.343994
1765377870325,-0.9375,-0.6826172,0.34570312,-42.23633,20.019531,15.075684,0.0,0.0,0.0,-66.41235,52.130127,-34.579468
1765377870414,-0.5878906,-0.42578125,0.34277344,11.169434,-13.122559,-5.493164,0.0,0.0,0.0,-66.41235,52.130127,-34.579468
1765377870425,-0.5878906,-0.42578125,0.34277344,11.169434,-13.122559,-5.493164,0.0,0.0,0.0,-68.43933,52.833252,-33.97522
1765377870513,-0.92529297,-0.51123047,0.33251953,-8.7890625,15.625,-19.042969,0.0,0.0,0.0,-68.43933,52.833252,-33.97522
1765377870525,-0.92529297,-0.51123047,0.33251953,-8.7890625,15.625,-19.042969,0.0,0.0,0.0,-68.14819,51.25122,-33.79944
1765377870613,-0.6669922,-0.49414062,0.18701172,27.404785,29.60205,-20.202637,0.0,0.0,0.0,-68.14819,51.25122,-33.79944
1765377870625,-0.6669922,-0.49414062,0.18701172,27.404785,29.60205,-20.202637,0.0,0.0,0.0,-68.4668,50.34485,-37.716064
1765377870713,-0.77197266,-0.5527344,0.18408203,9.643555,0.30517578,-10.437012,0.0,0.0,0.0,-68.4668,50.34485,-37.716064
1765377870724,-0.77197266,-0.5527344,0.18408203,9.643555,0.30517578,-10.437012,0.0,0.0,0.0,-69.906006,49.75708,-42.13806
1765377870813,-0.796875,-0.6582031,0.21240234,-12.634277,-34.362793,2.1362305,0.0,0.0,0.0,-69.906006,49.75708,-42.13806
1765377870824,-0.796875,-0.6582031,0.21240234,-12.634277,-34.362793,2.1362305,0.0,0.0,0.0,-67.67029,48.99353,-37.80945
1765377870912,-0.82470703,-0.5942383,0.18896484,6.8969727,16.235352,-14.465332,0.0,0.0,0.0,-67.67029,48.99353,-37.80945
1765377870924,-0.82470703,-0.5942383,0.18896484,6.8969727,16.235352,-14.465332,0.0,0.0,0.0,-67.86804,48.169556,-38.045654
1765377871012,-0.765625,-0.64990234,0.31298828,4.760742,7.9956055,-13.305664,0.0,0.0,0.0,-67.86804,48.169556,-38.045654
1765377871024,-0.765625,-0.64990234,0.31298828,4.760742,7.9956055,-13.305664,0.0,0.0,0.0,-69.39514,47.592773,-40.929565
1765377871112,-0.7685547,-0.6010742,0.13720703,-10.559082,8.850098,-4.5776367,0.0,0.0,0.0,-69.39514,47.592773,-40.929565
1765377871123,-0.7685547,-0.6010742,0.13720703,-10.559082,8.850098,-4.5776367,0.0,0.0,0.0,-70.20813,46.91162,-41.627197
1765377871212,-0.6386719,-0.4741211,0.11767578,-18.493652,15.991211,9.216309,0.0,0.0,0.0,-70.20813,46.91162,-41.627197
1765377871223,-0.6386719,-0.4741211,0.11767578,-18.493652,15.991211,9.216309,0.0,0.0,0.0,-73.40515,47.88391,-43.676147
1765377871311,-0.61328125,-0.6796875,0.32861328,10.375977,14.709473,-6.713867,0.0,0.0,0.0,-73.40515,47.88391,-43.676147
1765377871323,-0.61328125,-0.6796875,0.32861328,10.375977,14.709473,-6.713867,0.0,0.0,0.0,-75.563965,48.894653,-45.686646
1765377871411,-0.8339844,-0.52246094,0.2133789,8.972168,-26.855469,34.362793,0.0,0.0,0.0,-75.563965,48.894653,-45.686646
1765377871423,-0.8339844,-0.52246094,0.2133789,8.972168,-26.855469,34.362793,0.0,0.0,0.0,-72.63611,49.42749,-42.48413
1765377871511,-0.7060547,-0.66503906,0.2944336,5.7373047,-5.1879883,14.953613,0.0,0.0,0.0,-72.63611,49.42749,-42.48413
1765377871522,-0.7060547,-0.66503906,0.2944336,5.7373047,-5.1879883,14.953613,0.0,0.0,0.0,-68.983154,51.83899,-38.7323
1765377871611,-0.73535156,-0.6142578,0.20507812,-17.76123,-48.339844,25.20752,0.0,0.0,0.0,-68.983154,51.83899,-38.7323
1765377871622,-0.73535156,-0.6142578,0.20507812,-17.76123,-48.339844,25.20752,0.0,0.0,0.0,-64.57764,52.06421,-31.90979
1765377871710,-0.74902344,-0.59814453,0.26171875,-5.3100586,-37.231445,3.540039,0.0,0.0,0.0,-64.57764,52.06421,-31.90979
1765377871722,-0.74902344,-0.59814453,0.26171875,-5.3100586,-37.231445,3.540039,0.0,0.0,0.0,-60.85327,51.470947,-25.40039
1765377871810,-0.8095703,-0.5830078,0.20703125,-18.432617,-31.982422,13.916016,0.0,0.0,0.0,-60.85327,51.470947,-25.40039
1765377871822,-0.8095703,-0.5830078,0.20703125,-18.432617,-31.982422,13.916016,0.0,0.0,0.0,-57.908936,49.987793,-20.456543
1765377871910,-0.8251953,-0.5078125,0.22558594,-2.2583008,-0.91552734,4.0893555,0.0,0.0,0.0,-57.908936,49.987793,-20.456543
1765377871921,-0.8251953,-0.5078125,0.22558594,-2.2583008,-0.91552734,4.0893555,0.0,0.0,0.0,-57.453003,50.224,-18.847046
1765377872010,-0.8129883,-0.6230469,0.25048828,13.916016,32.348633,1.8310547,0.0,0.0,0.0,-57.453003,50.224,-18.847046
1765377872021,-0.8129883,-0.6230469,0.25048828,13.916016,32.348633,1.8310547,0.0,0.0,0.0,-58.46924,51.56433,-22.027588
1765377872109,-1.0307617,-0.71533203,0.39990234,-20.019531,39.55078,5.7373047,0.0,0.0,0.0,-58.46924,51.56433,-22.027588
1765377872121,-1.0307617,-0.71533203,0.39990234,-20.019531,39.55078,5.7373047,0.0,0.0,0.0,-63.814087,53.673706,-29.031372
1765377872209,-0.52685547,-0.4345703,0.33984375,13.000488,-5.1879883,-9.460449,0.0,0.0,0.0,-63.814087,53.673706,-29.031372
1765377872221,-0.52685547,-0.4345703,0.33984375,13.000488,-5.1879883,-9.460449,0.0,0.0,0.0,-65.88501,54.21753,-30.39917
1765377872309,-0.95751953,-0.3779297,0.35351562,-16.418457,8.728027,-12.084961,0.0,0.0,0.0,-65.88501,54.21753,-30.39917
1765377872321,-0.95751953,-0.3779297,0.35351562,-16.418457,8.728027,-12.084961,0.0,0.0,0.0,-65.62134,52.52014,-30.322266
1765377872408,-0.61035156,-0.49169922,0.27246094,42.541504,35.217285,-31.921387,0.0,0.0,0.0,-65.62134,52.52014,-30.322266
1765377872420,-0.61035156,-0.49169922,0.27246094,42.541504,35.217285,-31.921387,0.0,0.0,0.0,-65.74219,52.108154,-34.057617
1765377872508,-0.8129883,-0.5283203,0.17138672,26.489258,6.0424805,-9.765625,0.0,0.0,0.0,-65.74219,52.108154,-34.057617
1765377872520,-0.8129883,-0.5283203,0.17138672,26.489258,6.0424805,-9.765625,0.0,0.0,0.0,-66.32446,50.548096,-38.259888
1765377872608,-0.77197266,-0.5834961,0.265625,-15.075684,-47.058105,6.4697266,0.0,0.0,0.0,-66.32446,50.548096,-38.259888
1765377872619,-0.77197266,-0.5834961,0.265625,-15.075684,-47.058105,6.4697266,0.0,0.0,0.0,-64.39087,50.36133,-35.672607
1765377872708,-0.8105469,-0.55029297,0.26708984,7.446289,-37.963867,-0.12207031,0.0,0.0,0.0,-64.39087,50.36133,-35.672607
1765377872719,-0.8105469,-0.55029297,0.26708984,7.446289,-37.963867,-0.12207031,0.0,0.0,0.0,-59.100952,48.31787,-28.081055
1765377872807,-0.80615234,-0.58740234,0.30029297,21.42334,-4.5166016,-5.1879883,0.0,0.0,0.0,-59.100952,48.31787,-28.081055
1765377872820,-0.80615234,-0.58740234,0.30029297,21.42334,-4.5166016,-5.1879883,0.0,0.0,0.0,-56.019287,47.318115,-26.015625
1765377872907,-0.7915039,-0.55078125,0.27783203,-11.59668,-0.8544922,4.4555664,0.0,0.0,0.0,-56.019287,47.318115,-26.015625
1765377872919,-0.7915039,-0.55078125,0.27783203,-11.59668,-0.8544922,4.4555664,0.0,0.0,0.0,-55.480957,47.351074,-26.790161
1765377873007,-0.6176758,-0.48339844,0.484375,-14.282227,-4.3945312,13.427734,0.0,0.0,0.0,-55.480957,47.351074,-26.790161
1765377873018,-0.6176758,-0.48339844,0.484375,-14.282227,-4.3945312,13.427734,0.0,0.0,0.0,-57.112427,48.268433,-25.713501
1765377873107,-0.76708984,-0.5024414,0.5595703,-10.559082,-21.606445,25.756836,0.0,0.0,0.0,-57.112427,48.268433,-25.713501
1765377873118,-0.76708984,-0.5024414,0.5595703,-10.559082,-21.606445,25.756836,0.0,0.0,0.0,-56.552124,49.136353,-22.027588
1765377873206,-0.6230469,-0.5341797,0.375,-10.009766,25.32959,-13.916016,0.0,0.0,0.0,-56.552124,49.136353,-22.027588
1765377873218,-0.6230469,-0.5341797,0.375,-10.009766,25.32959,-13.916016,0.0,0.0,0.0,-55.980835,49.4989,-20.10498
1765377873306,-0.7895508,-0.54785156,0.34716797,4.333496,-9.277344,0.24414062,0.0,0.0,0.0,-55.980835,49.4989,-20.10498
1765377873317,-0.7895508,-0.54785156,0.34716797,4.333496,-9.277344,0.24414062,0.0,0.0,0.0,-58.996582,49.647217,-22.439575
1765377873406,-0.71191406,-0.55322266,0.32666016,-4.5776367,-19.714355,5.493164,0.0,0.0,0.0,-58.996582,49.647217,-22.439575
1765377873417,-0.71191406,-0.55322266,0.32666016,-4.5776367,-19.714355,5.493164,0.0,0.0,0.0,-56.348877,48.83972,-18.654785
1765377873505,-0.75146484,-0.5761719,0.27685547,14.282227,-4.638672,-4.272461,0.0,0.0,0.0,-56.348877,48.83972,-18.654785
1765377873517,-0.75146484,-0.5761719,0.27685547,14.282227,-4.638672,-4.272461,0.0,0.0,0.0,-55.06897,48.290405,-17.265015
1765377873605,-0.76416016,-0.57373047,0.29541016,7.9345703,9.216309,-0.4272461,0.0,0.0,0.0,-55.06897,48.290405,-17.265015
1765377873617,-0.76416016,-0.57373047,0.29541016,7.9345703,9.216309,-0.4272461,0.0,0.0,0.0,-54.79431,48.120117,-18.918457
1765377873705,-0.7651367,-0.60058594,0.29541016,-2.6245117,3.540039,8.056641,0.0,0.0,0.0,-54.79431,48.120117,-18.918457
1765377873716,-0.7651367,-0.60058594,0.29541016,-2.6245117,3.540039,8.056641,0.0,0.0,0.0,-55.17334,48.900146,-19.665527
1765377873805,-0.90625,-0.6333008,0.30859375,-26.000977,26.794434,9.155273,0.0,0.0,0.0,-55.17334,48.900146,-19.665527
1765377873816,-0.90625,-0.6333008,0.30859375,-26.000977,26.794434,9.155273,0.0,0.0,0.0,-58.04077,50.39978,-21.807861
