timestamp,accX,accY,accZ,gyroX,gyroY,gyroZ,magX,magY,magZ,roll,pitch,yaw
1766903564034,-1.015625,0.13134766,0.2319336,-24.230957,16.540527,8.361816,0.0,0.0,0.0,21.851807,75.201416,66.154175
1766903564046,-1.015625,0.13134766,0.2319336,-24.230957,16.540527,8.361816,0.0,0.0,0.0,21.967163,76.102295,68.63159
1766903564134,-0.9741211,0.019042969,0.22753906,-24.597168,9.82666,26.367188,0.0,0.0,0.0,21.967163,76.102295,68.63159
1766903564146,-0.9741211,0.019042969,0.22753906,-24.597168,9.82666,26.367188,0.0,0.0,0.0,30.443115,76.45935,79.51904
1766903564234,-0.9169922,0.12841797,0.22363281,-40.34424,8.544922,13.366699,0.0,0.0,0.0,30.443115,76.45935,79.51904
1766903564245,-0.9169922,0.12841797,0.22363281,-40.34424,8.544922,13.366699,0.0,0.0,0.0,34.414673,76.294556,86.951294
1766903564333,-0.953125,0.18603516,0.2758789,-25.512695,7.8125,2.0751953,0.0,0.0,0.0,34.414673,76.294556,86.951294
1766903564345,-0.953125,0.18603516,0.2758789,-25.512695,7.8125,2.0751953,0.0,0.0,0.0,35.50232,76.327515,91.00525
1766903564434,-0.93603516,0.22705078,0.27441406,0.79345703,10.437012,-6.3476562,0.0,0.0,0.0,35.50232,76.327515,91.00525
1766903564445,-0.93603516,0.22705078,0.27441406,0.79345703,10.437012,-6.3476562,0.0,0.0,0.0,33.046875,77.0636,89.000244
1766903564533,-1.0205078,0.12646484,0.15625,18.920898,15.991211,-15.808105,0.0,0.0,0.0,33.046875,77.0636,89.000244
1766903564544,-1.0205078,0.12646484,0.15625,18.920898,15.991211,-15.808105,0.0,0.0,0.0,33.22815,78.14575,87.37976
1766903564633,-0.91259766,0.16357422,0.14404297,14.709473,-2.0751953,-8.361816,0.0,0.0,0.0,33.22815,78.14575,87.37976
1766903564644,-0.91259766,0.16357422,0.14404297,14.709473,-2.0751953,-8.361816,0.0,0.0,0.0,31.486816,79.51904,82.69409
1766903564732,-0.98583984,0.107421875,0.11767578,22.399902,-0.61035156,-7.9345703,0.0,0.0,0.0,31.486816,79.51904,82.69409
1766903564743,-0.98583984,0.107421875,0.11767578,22.399902,-0.61035156,-7.9345703,0.0,0.0,0.0,30.83313,79.24988,80.183716
1766903564832,-0.98291016,0.099609375,0.087402344,10.253906,-8.056641,-3.7841797,0.0,0.0,0.0,30.83313,79.24988,80.183716
1766903564843,-0.98291016,0.099609375,0.087402344,10.253906,-8.056641,-3.7841797,0.0,0.0,0.0,29.28955,79.3103,76.56372
1766903564931,-0.97753906,0.061523438,0.05810547,1.6479492,-15.197754,-1.2817383,0.0,0.0,0.0,29.28955,79.3103,76.56372
1766903564943,-0.97753906,0.061523438,0.05810547,1.6479492,-15.197754,-1.2817383,0.0,0.0,0.0,27.15271,78.359985,73.41614
1766903565031,-1.0083008,0.11767578,0.076171875,0.18310547,1.3427734,-3.112793,0.0,0.0,0.0,27.15271,78.359985,73.41614
1766903565043,-1.0083008,0.11767578,0.076171875,0.18310547,1.3427734,-3.112793,0.0,0.0,0.0,24.702759,77.99744,70.702515
1766903565131,-1.0908203,0.11816406,0.19970703,5.6152344,2.6855469,-8.972168,0.0,0.0,0.0,24.702759,77.99744,70.702515
1766903565142,-1.0908203,0.11816406,0.19970703,5.6152344,2.6855469,-8.972168,0.0,0.0,0.0,23.626099,78.85986,68.90076
1766903565231,-0.99853516,0.087402344,0.20898438,14.038086,-0.79345703,-10.437012,0.0,0.0,0.0,23.626099,78.85986,68.90076
1766903565242,-0.99853516,0.087402344,0.20898438,14.038086,-0.79345703,-10.437012,0.0,0.0,0.0,18.319702,79.453125,61.331177
1766903565330,-0.9057617,0.057617188,0.23730469,11.352539,0.8544922,-4.9438477,0.0,0.0,0.0,18.319702,79.453125,61.331177
1766903565342,-0.9057617,0.057617188,0.23730469,11.352539,0.8544922,-4.9438477,0.0,0.0,0.0,16.243286,79.43115,58.150635
1766903565430,-0.9663086,0.06298828,0.25585938,-3.90625,-8.422852,9.643555,0.0,0.0,0.0,16.243286,79.43115,58.150635
1766903565442,-0.9663086,0.06298828,0.25585938,-3.90625,-8.422852,9.643555,0.0,0.0,0.0,17.698975,78.931274,59.699707
1766903565530,-0.9838867,0.084472656,0.20117188,0.48828125,-14.404297,12.390137,0.0,0.0,0.0,17.698975,78.931274,59.699707
1766903565542,-0.9838867,0.084472656,0.20117188,0.48828125,-14.404297,12.390137,0.0,0.0,0.0,20.604858,76.91528,63.451538
1766903565630,-0.9428711,0.02734375,0.23486328,-0.79345703,-11.962891,6.958008,0.0,0.0,0.0,20.604858,76.91528,63.451538
1766903565641,-0.9428711,0.02734375,0.23486328,-0.79345703,-11.962891,6.958008,0.0,0.0,0.0,23.203125,75.67383,65.95093
1766903565729,-0.9536133,0.08544922,0.21142578,-8.7890625,-10.620117,9.887695,0.0,0.0,0.0,23.203125,75.67383,65.95093
1766903565741,-0.9536133,0.08544922,0.21142578,-8.7890625,-10.620117,9.887695,0.0,0.0,0.0,22.571411,74.07532,66.07727
1766903565829,-1.0654297,0.0078125,0.17285156,-15.869141,-2.0141602,10.559082,0.0,0.0,0.0,22.571411,74.07532,66.07727
1766903565840,-1.0654297,0.0078125,0.17285156,-15.869141,-2.0141602,10.559082,0.0,0.0,0.0,24.554443,73.097534,68.55469
1766903565929,-0.95947266,0.07324219,0.22363281,-19.348145,10.009766,3.90625,0.0,0.0,0.0,24.554443,73.097534,68.55469
1766903565940,-0.95947266,0.07324219,0.22363281,-19.348145,10.009766,3.90625,0.0,0.0,0.0,24.63684,73.88855,70.0708
1766903566028,-1.0351562,0.103027344,0.16845703,-20.141602,10.681152,11.230469,0.0,0.0,0.0,24.63684,73.88855,70.0708
1766903566040,-1.0351562,0.103027344,0.16845703,-20.141602,10.681152,11.230469,0.0,0.0,0.0,26.04309,74.37744,73.53699
1766903566128,-1.0639648,0.12548828,0.3046875,-7.751465,23.68164,7.2631836,0.0,0.0,0.0,26.04309,74.37744,73.53699
1766903566140,-1.0639648,0.12548828,0.3046875,-7.751465,23.68164,7.2631836,0.0,0.0,0.0,31.47583,76.12976,79.74426
1766903566228,-0.8647461,0.13476562,0.14160156,-26.062012,5.1879883,8.117676,0.0,0.0,0.0,31.47583,76.12976,79.74426
1766903566239,-0.8647461,0.13476562,0.14160156,-26.062012,5.1879883,8.117676,0.0,0.0,0.0,34.34326,76.38245,84.06738
1766903566328,-0.953125,0.13867188,0.2397461,5.9814453,22.216797,-1.953125,0.0,0.0,0.0,34.34326,76.38245,84.06738
1766903566339,-0.953125,0.13867188,0.2397461,5.9814453,22.216797,-1.953125,0.0,0.0,0.0,38.809204,77.44263,89.39026
1766903566427,-0.8979492,0.18408203,0.21972656,-9.033203,0.79345703,0.12207031,0.0,0.0,0.0,38.809204,77.44263,89.39026
1766903566439,-0.8979492,0.18408203,0.21972656,-9.033203,0.79345703,0.12207031,0.0,0.0,0.0,41.363525,78.28308,91.8457
1766903566527,-1.0131836,0.18115234,0.2055664,0.4272461,-5.004883,2.5634766,0.0,0.0,0.0,41.363525,78.28308,91.8457
1766903566539,-1.0131836,0.18115234,0.2055664,0.4272461,-5.004883,2.5634766,0.0,0.0,0.0,39.797974,77.65686,90.631714
1766903566627,-0.9379883,0.18554688,0.110839844,7.9345703,-2.2583008,-14.6484375,0.0,0.0,0.0,39.797974,77.65686,90.631714
1766903566638,-0.9379883,0.18554688,0.110839844,7.9345703,-2.2583008,-14.6484375,0.0,0.0,0.0,36.97998,77.612915,86.781006
1766903566726,-0.99658203,0.13183594,0.13867188,9.338379,-10.375977,0.61035156,0.0,0.0,0.0,36.97998,77.612915,86.781006
1766903566738,-0.99658203,0.13183594,0.13867188,9.338379,-10.375977,0.61035156,0.0,0.0,0.0,35.06836,77.37671,83.05115
1766903566826,-0.97216797,0.15820312,0.10595703,6.7749023,-7.8125,-0.5493164,0.0,0.0,0.0,35.06836,77.37671,83.05115
1766903566838,-0.97216797,0.15820312,0.10595703,6.7749023,-7.8125,-0.5493164,0.0,0.0,0.0,33.914795,76.61316,80.95276
1766903566926,-0.9926758,0.13574219,0.07763672,-2.380371,-6.958008,1.4038086,0.0,0.0,0.0,33.914795,76.61316,80.95276
1766903566938,-0.9926758,0.13574219,0.07763672,-2.380371,-6.958008,1.4038086,0.0,0.0,0.0,33.980713,76.135254,80.5188
1766903567026,-0.99072266,0.119140625,0.111816406,-9.155273,3.479004,-5.6762695,0.0,0.0,0.0,33.980713,76.135254,80.5188
1766903567037,-0.99072266,0.119140625,0.111816406,-9.155273,3.479004,-5.6762695,0.0,0.0,0.0,33.40393,76.657104,80.00244
1766903567125,-1.097168,0.18701172,0.21777344,-13.183594,11.901855,-5.859375,0.0,0.0,0.0,33.40393,76.657104,80.00244
1766903567137,-1.097168,0.18701172,0.21777344,-13.183594,11.901855,-5.859375,0.0,0.0,0.0,32.546997,77.67334,80.80994
1766903567225,-0.98095703,0.087402344,0.27294922,5.6762695,-2.6245117,3.0517578,0.0,0.0,0.0,32.546997,77.67334,80.80994
1766903567237,-0.98095703,0.087402344,0.27294922,5.6762695,-2.6245117,3.0517578,0.0,0.0,0.0,32.574463,78.43689,79.61243
1766903567325,-0.8803711,0.07470703,0.24316406,3.8452148,-6.286621,4.9438477,0.0,0.0,0.0,32.574463,78.43689,79.61243
1766903567336,-0.8803711,0.07470703,0.24316406,3.8452148,-6.286621,4.9438477,0.0,0.0,0.0,30.684814,77.18994,77.750244
1766903567425,-1.0117188,0.123535156,0.25878906,9.58252,-1.3427734,3.8452148,0.0,0.0,0.0,30.684814,77.18994,77.750244
1766903567436,-1.0117188,0.123535156,0.25878906,9.58252,-1.3427734,3.8452148,0.0,0.0,0.0,31.92627,76.75049,77.87109
1766903567524,-0.91503906,0.114746094,0.19189453,24.047852,-1.0986328,-6.225586,0.0,0.0,0.0,31.92627,76.75049,77.87109
1766903567536,-0.91503906,0.114746094,0.19189453,24.047852,-1.0986328,-6.225586,0.0,0.0,0.0,31.662598,76.624146,75.73425
1766903567624,-0.97558594,0.026855469,0.22851562,6.958008,-25.32959,7.873535,0.0,0.0,0.0,31.662598,76.624146,75.73425
1766903567635,-0.97558594,0.026855469,0.22851562,6.958008,-25.32959,7.873535,0.0,0.0,0.0,30.915527,75.40466,72.68555
1766903567724,-0.9536133,0.13427734,0.1796875,7.507324,-17.63916,0.8544922,0.0,0.0,0.0,30.915527,75.40466,72.68555
1766903567735,-0.9536133,0.13427734,0.1796875,7.507324,-17.63916,0.8544922,0.0,0.0,0.0,27.317505,73.185425,69.263306
1766903567823,-1.0200195,0.046875,0.1977539,10.192871,2.5634766,0.36621094,0.0,0.0,0.0,27.317505,73.185425,69.263306
1766903567835,-1.0200195,0.046875,0.1977539,10.192871,2.5634766,0.36621094,0.0,0.0,0.0,28.844604,72.57568,69.175415
1766903567923,-0.95654297,0.08935547,0.18359375,-4.8217773,-0.91552734,-4.0893555,0.0,0.0,0.0,28.844604,72.57568,69.175415
1766903567935,-0.95654297,0.08935547,0.18359375,-4.8217773,-0.91552734,-4.0893555,0.0,0.0,0.0,28.075562,73.37219,67.6593
1766903568023,-1.065918,0.12158203,0.22802734,6.1035156,17.76123,-3.6621094,0.0,0.0,0.0,28.075562,73.37219,67.6593
1766903568035,-1.065918,0.12158203,0.22802734,6.1035156,17.76123,-3.6621094,0.0,0.0,0.0,27.762451,74.295044,67.099
1766903568122,-1.0273438,0.10205078,0.23632812,-0.91552734,23.19336,2.5634766,0.0,0.0,0.0,27.762451,74.295044,67.099
1766903568134,-1.0273438,0.10205078,0.23632812,-0.91552734,23.19336,2.5634766,0.0,0.0,0.0,32.124023,76.448364,71.31775
1766903568223,-0.92578125,0.07714844,0.18847656,-10.7421875,30.517578,0.8544922,0.0,0.0,0.0,32.124023,76.448364,71.31775
1766903568237,-0.92578125,0.07714844,0.18847656,-10.7421875,30.517578,0.8544922,0.0,0.0,0.0,39.375,78.50281,80.06287
1766903568322,-0.9472656,0.16455078,0.15917969,-21.30127,22.705078,3.9672852,0.0,0.0,0.0,39.375,78.50281,80.06287
1766903568334,-0.9472656,0.16455078,0.15917969,-21.30127,22.705078,3.9672852,0.0,0.0,0.0,46.428223,80.15076,89.62097
1766903568423,-0.88183594,0.17871094,0.17089844,-9.216309,3.7841797,-1.2207031,0.0,0.0,0.0,46.428223,80.15076,89.62097
1766903568434,-0.88183594,0.17871094,0.17089844,-9.216309,3.7841797,-1.2207031,0.0,0.0,0.0,50.72937,80.72754,95.493164
1766903568521,-1.0639648,0.16455078,0.12158203,-1.8920898,-2.746582,2.4414062,0.0,0.0,0.0,50.72937,80.72754,95.493164
1766903568533,-1.0639648,0.16455078,0.12158203,-1.8920898,-2.746582,2.4414062,0.0,0.0,0.0,49.696655,80.21118,95.597534
1766903568621,-0.91064453,0.18652344,0.08886719,6.958008,-17.63916,-7.6293945,0.0,0.0,0.0,49.696655,80.21118,95.597534
1766903568633,-0.91064453,0.18652344,0.08886719,6.958008,-17.63916,-7.6293945,0.0,0.0,0.0,43.76953,79.84863,89.0332
1766903568721,-1.027832,0.14111328,0.0703125,10.7421875,-14.526367,-3.7841797,0.0,0.0,0.0,43.76953,79.84863,89.0332
1766903568732,-1.027832,0.14111328,0.0703125,10.7421875,-14.526367,-3.7841797,0.0,0.0,0.0,37.578735,78.67859,82.023926
1766903568821,-0.98583984,0.12402344,0.076171875,12.878418,-10.314941,-8.666992,0.0,0.0,0.0,37.578735,78.67859,82.023926
1766903568832,-0.98583984,0.12402344,0.076171875,12.878418,-10.314941,-8.666992,0.0,0.0,0.0,34.61792,78.27759,78.079834
1766903568920,-0.99658203,0.122558594,0.056640625,6.7749023,-12.451172,-6.5307617,0.0,0.0,0.0,34.61792,78.27759,78.079834
1766903568932,-0.99658203,0.122558594,0.056640625,6.7749023,-12.451172,-6.5307617,0.0,0.0,0.0,30.426636,77.909546,72.71301
1766903569020,-1.1113281,0.1274414,0.05126953,8.178711,11.169434,-14.404297,0.0,0.0,0.0,30.426636,77.909546,72.71301
1766903569032,-1.1113281,0.1274414,0.05126953,8.178711,11.169434,-14.404297,0.0,0.0,0.0,27.471313,78.45886,68.63159
1766903569120,-0.8720703,0.048339844,0.29833984,23.498535,7.5683594,-14.160156,0.0,0.0,0.0,27.471313,78.45886,68.63159
1766903569131,-0.8720703,0.048339844,0.29833984,23.498535,7.5683594,-14.160156,0.0,0.0,0.0,26.1969,80.45288,65.374146
1766903569219,-0.98339844,0.04638672,0.18261719,-11.59668,-6.4086914,7.9345703,0.0,0.0,0.0,26.1969,80.45288,65.374146
1766903569231,-0.98339844,0.04638672,0.18261719,-11.59668,-6.4086914,7.9345703,0.0,0.0,0.0,21.868286,80.39795,61.221313
1766903569319,-0.88916016,0.07080078,0.23925781,-11.047363,-6.1035156,11.84082,0.0,0.0,0.0,21.868286,80.39795,61.221313
1766903569331,-0.88916016,0.07080078,0.23925781,-11.047363,-6.1035156,11.84082,0.0,0.0,0.0,26.559448,79.51355,67.44507
1766903569419,-1.0410156,0.04296875,0.1796875,-27.893066,-28.320312,16.174316,0.0,0.0,0.0,26.559448,79.51355,67.44507
1766903569431,-1.0410156,0.04296875,0.1796875,-27.893066,-28.320312,16.174316,0.0,0.0,0.0,26.91101,76.78345,69.35669
1766903569519,-0.9165039,0.088378906,0.24804688,2.746582,-11.962891,2.5634766,0.0,0.0,0.0,26.91101,76.78345,69.35669
1766903569530,-0.9165039,0.088378906,0.24804688,2.746582,-11.962891,2.5634766,0.0,0.0,0.0,25.823364,75.10803,69.23584
1766903569618,-1.0341797,0.123046875,0.18847656,3.479004,-10.131836,4.3945312,0.0,0.0,0.0,25.823364,75.10803,69.23584
1766903569630,-1.0341797,0.123046875,0.18847656,3.479004,-10.131836,4.3945312,0.0,0.0,0.0,24.521484,73.322754,68.19763
1766903569718,-0.96191406,0.05517578,0.17529297,23.620605,6.4086914,-4.211426,0.0,0.0,0.0,24.521484,73.322754,68.19763
1766903569730,-0.96191406,0.05517578,0.17529297,23.620605,6.4086914,-4.211426,0.0,0.0,0.0,26.05957,73.861084,67.08252
1766903569818,-1.0219727,0.064453125,0.18457031,8.056641,4.5776367,-4.333496,0.0,0.0,0.0,26.05957,73.861084,67.08252
1766903569829,-1.0219727,0.064453125,0.18457031,8.056641,4.5776367,-4.333496,0.0,0.0,0.0,27.141724,74.85535,66.467285
1766903569917,-1.0327148,0.11621094,0.17822266,16.662598,16.845703,-1.7700195,0.0,0.0,0.0,27.141724,74.85535,66.467285
1766903569930,-1.0327148,0.11621094,0.17822266,16.662598,16.845703,-1.7700195,0.0,0.0,0.0,28.482056,76.1792,66.94519
1766903570017,-1.0581055,0.05517578,0.28222656,24.780273,29.907227,5.6762695,0.0,0.0,0.0,28.482056,76.1792,66.94519
1766903570029,-1.0581055,0.05517578,0.28222656,24.780273,29.907227,5.6762695,0.0,0.0,0.0,37.529297,77.63489,75.49805
1766903570117,-0.8544922,0.010253906,0.123535156,-25.32959,10.253906,1.7700195,0.0,0.0,0.0,37.529297,77.63489,75.49805
1766903570129,-0.8544922,0.010253906,0.123535156,-25.32959,10.253906,1.7700195,0.0,0.0,0.0,44.604492,78.85437,82.70508
1766903570217,-0.9970703,0.19238281,0.19921875,-22.460938,9.765625,0.9765625,0.0,0.0,0.0,44.604492,78.85437,82.70508
1766903570228,-0.9970703,0.19238281,0.19921875,-22.460938,9.765625,0.9765625,0.0,0.0,0.0,45.15381,79.7113,86.83594
1766903570316,-0.88427734,0.20996094,0.18847656,-2.746582,4.1503906,-4.8828125,0.0,0.0,0.0,45.15381,79.7113,86.83594
1766903570328,-0.88427734,0.20996094,0.18847656,-2.746582,4.1503906,-4.8828125,0.0,0.0,0.0,44.989014,80.47485,88.36853
1766903570416,-1.0615234,0.12402344,0.13623047,-6.8359375,-6.591797,0.18310547,0.0,0.0,0.0,44.989014,80.47485,88.36853
1766903570428,-1.0615234,0.12402344,0.13623047,-6.8359375,-6.591797,0.18310547,0.0,0.0,0.0,43.093872,79.65088,88.00049
1766903570516,-0.8984375,0.19628906,0.125,-4.0893555,-13.549805,-2.380371,0.0,0.0,0.0,43.093872,79.65088,88.00049
1766903570527,-0.8984375,0.19628906,0.125,-4.0893555,-13.549805,-2.380371,0.0,0.0,0.0,38.605957,79.3103,83.95203
1766903570615,-1.0429688,0.15283203,0.11279297,-3.3569336,-14.160156,0.8544922,0.0,0.0,0.0,38.605957,79.3103,83.95203
1766903570627,-1.0429688,0.15283203,0.11279297,-3.3569336,-14.160156,0.8544922,0.0,0.0,0.0,35.43091,77.838135,81.276855
1766903570715,-0.9790039,0.1538086,0.09326172,4.0283203,-6.958008,-2.8686523,0.0,0.0,0.0,35.43091,77.838135,81.276855
1766903570727,-0.9790039,0.1538086,0.09326172,4.0283203,-6.958008,-2.8686523,0.0,0.0,0.0,32.96997,77.162476,78.184204
1766903570815,-0.9794922,0.12207031,0.064453125,4.211426,-5.9814453,-3.2348633,0.0,0.0,0.0,32.96997,77.162476,78.184204
1766903570827,-0.9794922,0.12207031,0.064453125,4.211426,-5.9814453,-3.2348633,0.0,0.0,0.0,31.92627,76.89331,76.2561
1766903570915,-1.0356445,0.107910156,0.078125,-1.8310547,6.286621,-7.2631836,0.0,0.0,0.0,31.92627,76.89331,76.2561
1766903570927,-1.0356445,0.107910156,0.078125,-1.8310547,6.286621,-7.2631836,0.0,0.0,0.0,31.832886,77.44263,75.83862
1766903571016,-0.94091797,0.16259766,0.24023438,19.226074,4.760742,-19.226074,0.0,0.0,0.0,31.832886,77.44263,75.83862
1766903571026,-0.94091797,0.16259766,0.24023438,19.226074,4.760742,-19.226074,0.0,0.0,0.0,29.663086,78.881836,73.13049
1766903571114,-1.0927734,0.037109375,0.22753906,9.70459,3.7841797,0.0,0.0,0.0,0.0,29.663086,78.881836,73.13049
1766903571126,-1.0927734,0.037109375,0.22753906,9.70459,3.7841797,0.0,0.0,0.0,0.0,31.25061,79.53003,72.65259
1766903571214,-0.8847656,0.100097656,0.19384766,13.916016,-3.7841797,-6.7749023,0.0,0.0,0.0,31.25061,79.53003,72.65259
1766903571225,-0.8847656,0.100097656,0.19384766,13.916016,-3.7841797,-6.7749023,0.0,0.0,0.0,27.042847,79.77722,68.291016
1766903571313,-1.0014648,0.03857422,0.2680664,15.686035,-11.047363,7.446289,0.0,0.0,0.0,27.042847,79.77722,68.291016
1766903571325,-1.0014648,0.03857422,0.2680664,15.686035,-11.047363,7.446289,0.0,0.0,0.0,28.295288,78.95874,68.53821
1766903571413,-0.8696289,0.05419922,0.22265625,10.681152,-9.216309,4.211426,0.0,0.0,0.0,28.295288,78.95874,68.53821
1766903571425,-0.8696289,0.05419922,0.22265625,10.681152,-9.216309,4.211426,0.0,0.0,0.0,27.279053,77.24487,67.51099
1766903571513,-1.0004883,0.041015625,0.18798828,-7.446289,-16.235352,7.385254,0.0,0.0,0.0,27.279053,77.24487,67.51099
1766903571524,-1.0004883,0.041015625,0.18798828,-7.446289,-16.235352,7.385254,0.0,0.0,0.0,26.707764,75.27832,67.022095
1766903571613,-0.99316406,0.07910156,0.2006836,6.713867,-10.7421875,4.0893555,0.0,0.0,0.0,26.707764,75.27832,67.022095
1766903571624,-0.99316406,0.07910156,0.2006836,6.713867,-10.7421875,4.0893555,0.0,0.0,0.0,25.83435,74.295044,66.10474
1766903571712,-0.98779297,0.08154297,0.15429688,-1.7700195,-6.225586,-1.0986328,0.0,0.0,0.0,25.83435,74.295044,66.10474
1766903571724,-0.98779297,0.08154297,0.15429688,-1.7700195,-6.225586,-1.0986328,0.0,0.0,0.0,24.75769,73.635864,65.148926
1766903571812,-1.0014648,0.06689453,0.19628906,4.4555664,5.6762695,-1.5869141,0.0,0.0,0.0,24.75769,73.635864,65.148926
1766903571824,-1.0014648,0.06689453,0.19628906,4.4555664,5.6762695,-1.5869141,0.0,0.0,0.0,24.609375,74.262085,64.610596
1766903571912,-1.125,0.1430664,0.24658203,2.4414062,24.780273,7.385254,0.0,0.0,0.0,24.609375,74.262085,64.610596
1766903571923,-1.125,0.1430664,0.24658203,2.4414062,24.780273,7.385254,0.0,0.0,0.0,28.064575,75.322266,68.35144
1766903572012,-0.92871094,0.017089844,0.21191406,-15.319824,15.686035,10.498047,0.0,0.0,0.0,28.064575,75.322266,68.35144
1766903572023,-0.92871094,0.017089844,0.21191406,-15.319824,15.686035,10.498047,0.0,0.0,0.0,36.57898,76.8988,77.629395
1766903572112,-0.8989258,0.15722656,0.22216797,-38.024902,20.874023,6.8969727,0.0,0.0,0.0,36.57898,76.8988,77.629395
1766903572123,-0.8989258,0.15722656,0.22216797,-38.024902,20.874023,6.8969727,0.0,0.0,0.0,40.22644,77.838135,85.46814
1766903572211,-0.9086914,0.21582031,0.13574219,-26.855469,13.73291,6.3476562,0.0,0.0,0.0,40.22644,77.838135,85.46814
1766903572222,-0.9086914,0.21582031,0.13574219,-26.855469,13.73291,6.3476562,0.0,0.0,0.0,43.346558,77.89307,92.647705
1766903572311,-0.98046875,0.25732422,0.22949219,6.4697266,-1.6479492,0.4272461,0.0,0.0,0.0,43.346558,77.89307,92.647705
1766903572322,-0.98046875,0.25732422,0.22949219,6.4697266,-1.6479492,0.4272461,0.0,0.0,0.0,47.06543,78.65112,96.04248
1766903572411,-0.94140625,0.10888672,0.07080078,11.413574,-10.253906,-14.221191,0.0,0.0,0.0,47.06543,78.65112,96.04248
1766903572422,-0.94140625,0.10888672,0.07080078,11.413574,-10.253906,-14.221191,0.0,0.0,0.0,42.24243,77.08008,91.09863
1766903572510,-0.94921875,0.21289062,0.1586914,9.94873,-18.310547,-2.746582,0.0,0.0,0.0,42.24243,77.08008,91.09863
1766903572521,-0.94921875,0.21289062,0.1586914,9.94873,-18.310547,-2.746582,0.0,0.0,0.0,37.70508,77.058105,85.20447
1766903572610,-1.0498047,0.13916016,0.017578125,34.240723,20.385742,-28.503418,0.0,0.0,0.0,37.70508,77.058105,85.20447
1766903572621,-1.0498047,0.13916016,0.017578125,34.240723,20.385742,-28.503418,0.0,0.0,0.0,35.48584,77.645874,80.48584
1766903572709,-0.9941406,0.115234375,0.009277344,-0.30517578,-0.79345703,-5.1879883,0.0,0.0,0.0,35.48584,77.645874,80.48584
1766903572721,-0.9941406,0.115234375,0.009277344,-0.30517578,-0.79345703,-5.1879883,0.0,0.0,0.0,35.024414,79.53552,77.56348
1766903572809,-1.1518555,0.15185547,0.14794922,17.578125,22.338867,-16.967773,0.0,0.0,0.0,35.024414,79.53552,77.56348
1766903572821,-1.1518555,0.15185547,0.14794922,17.578125,22.338867,-16.967773,0.0,0.0,0.0,36.82068,81.73828,78.70056
1766903572909,-0.9248047,-0.04638672,0.3154297,-6.8359375,-21.118164,-10.314941,0.0,0.0,0.0,36.82068,81.73828,78.70056
1766903572920,-0.9248047,-0.04638672,0.3154297,-6.8359375,-21.118164,-10.314941,0.0,0.0,0.0,31.47583,81.848145,73.66333
1766903573009,-0.8330078,0.10839844,0.22949219,23.07129,17.028809,4.699707,0.0,0.0,0.0,31.47583,81.848145,73.66333
1766903573021,-0.8330078,0.10839844,0.22949219,23.07129,17.028809,4.699707,0.0,0.0,0.0,33.16223,80.73303,77.21741
1766903573108,-1.0307617,-9.765625E-4,0.19921875,-13.977051,-18.371582,19.958496,0.0,0.0,0.0,33.16223,80.73303,77.21741
1766903573120,-1.0307617,-9.765625E-4,0.19921875,-13.977051,-18.371582,19.958496,0.0,0.0,0.0,37.83142,79.59595,81.52954
1766903573208,-0.9086914,0.06738281,0.18945312,3.7231445,-15.258789,5.554199,0.0,0.0,0.0,37.83142,79.59595,81.52954
1766903573220,-0.9086914,0.06738281,0.18945312,3.7231445,-15.258789,5.554199,0.0,0.0,0.0,33.936768,77.7832,78.62366
1766903573308,-1.0219727,0.047851562,0.20410156,-10.009766,-23.132324,5.9814453,0.0,0.0,0.0,33.936768,77.7832,78.62366
1766903573319,-1.0219727,0.047851562,0.20410156,-10.009766,-23.132324,5.9814453,0.0,0.0,0.0,31.420898,75.9375,76.327515
1766903573407,-0.99072266,0.09667969,0.18066406,7.8125,-7.3242188,0.79345703,0.0,0.0,0.0,31.420898,75.9375,76.327515
1766903573419,-0.99072266,0.09667969,0.18066406,7.8125,-7.3242188,0.79345703,0.0,0.0,0.0,28.80066,74.69055,74.17969
1766903573507,-0.9970703,0.06640625,0.18408203,1.8920898,-1.7700195,-1.8310547,0.0,0.0,0.0,28.80066,74.69055,74.17969
1766903573519,-0.9970703,0.06640625,0.18408203,1.8920898,-1.7700195,-1.8310547,0.0,0.0,0.0,28.322754,74.487305,73.0426
1766903573607,-1.0341797,0.10449219,0.14746094,2.1362305,7.9345703,1.2207031,0.0,0.0,0.0,28.322754,74.487305,73.0426
1766903573618,-1.0341797,0.10449219,0.14746094,2.1362305,7.9345703,1.2207031,0.0,0.0,0.0,28.42163,75.15747,72.718506
1766903573707,-1.1455078,0.119628906,0.25097656,1.159668,31.188965,5.3100586,0.0,0.0,0.0,28.42163,75.15747,72.718506
1766903573718,-1.1455078,0.119628906,0.25097656,1.159668,31.188965,5.3100586,0.0,0.0,0.0,34.628906,77.145996,78.68408
1766903573806,-0.91845703,0.051757812,0.12890625,-18.371582,19.226074,7.080078,0.0,0.0,0.0,34.628906,77.145996,78.68408
1766903573818,-0.91845703,0.051757812,0.12890625,-18.371582,19.226074,7.080078,0.0,0.0,0.0,41.940308,78.51929,87.43469
1766903573906,-0.9194336,0.1484375,0.1899414,-28.198242,13.977051,5.065918,0.0,0.0,0.0,41.940308,78.51929,87.43469
1766903573918,-0.9194336,0.1484375,0.1899414,-28.198242,13.977051,5.065918,0.0,0.0,0.0,48.674927,79.62891,97.06421
1766903574006,-0.8984375,0.1977539,0.13330078,-13.061523,14.343262,-2.5024414,0.0,0.0,0.0,48.674927,79.62891,97.06421
1766903574017,-0.8984375,0.1977539,0.13330078,-13.061523,14.343262,-2.5024414,0.0,0.0,0.0,50.564575,79.524536,101.90918
1766903574106,-1.0244141,0.22753906,0.20605469,-14.587402,-16.113281,1.2817383,0.0,0.0,0.0,50.564575,79.524536,101.90918
1766903574117,-1.0244141,0.22753906,0.20605469,-14.587402,-16.113281,1.2817383,0.0,0.0,0.0,51.157837,79.974976,102.145386
1766903574205,-0.93603516,0.16015625,0.10546875,20.812988,-3.1738281,-14.465332,0.0,0.0,0.0,51.157837,79.974976,102.145386
1766903574217,-0.93603516,0.16015625,0.10546875,20.812988,-3.1738281,-14.465332,0.0,0.0,0.0,44.296875,78.777466,95.74585
1766903574305,-0.96191406,0.1821289,0.12451172,-5.065918,-18.554688,2.2583008,0.0,0.0,0.0,44.296875,78.777466,95.74585
1766903574316,-0.96191406,0.1821289,0.12451172,-5.065918,-18.554688,2.2583008,0.0,0.0,0.0,39.56726,78.46985,89.714355
1766903574405,-0.9794922,0.15625,0.111328125,8.544922,-5.6152344,-8.728027,0.0,0.0,0.0,39.56726,78.46985,89.714355
1766903574416,-0.9794922,0.15625,0.111328125,8.544922,-5.6152344,-8.728027,0.0,0.0,0.0,36.331787,77.612915,85.78125
1766903574504,-0.9897461,0.12890625,0.06982422,-2.2583008,-6.652832,-0.24414062,0.0,0.0,0.0,36.331787,77.612915,85.78125
1766903574516,-0.9897461,0.12890625,0.06982422,-2.2583008,-6.652832,-0.24414062,0.0,0.0,0.0,34.161987,77.3822,82.66113
1766903574604,-1.0019531,0.10595703,0.09423828,-0.5493164,2.9907227,-7.080078,0.0,0.0,0.0,34.161987,77.3822,82.66113
1766903574616,-1.0019531,0.10595703,0.09423828,-0.5493164,2.9907227,-7.080078,0.0,0.0,0.0,33.75,77.596436,81.77124
1766903574704,-1.0029297,0.13964844,0.19384766,10.986328,6.8359375,-15.380859,0.0,0.0,0.0,33.75,77.596436,81.77124
1766903574715,-1.0029297,0.13964844,0.19384766,10.986328,6.8359375,-15.380859,0.0,0.0,0.0,31.190186,78.618164,78.92578
1766903574803,-1.0244141,0.13427734,0.25976562,-0.061035156,-5.432129,2.6245117,0.0,0.0,0.0,31.190186,78.618164,78.92578
1766903574815,-1.0244141,0.13427734,0.25976562,-0.061035156,-5.432129,2.6245117,0.0,0.0,0.0,29.602661,79.68384,75.6134
1766903574903,-0.8798828,0.08251953,0.20703125,10.131836,-1.6479492,4.333496,0.0,0.0,0.0,29.602661,79.68384,75.6134
1766903574915,-0.8798828,0.08251953,0.20703125,10.131836,-1.6479492,4.333496,0.0,0.0,0.0,30.646362,78.52478,76.849365
1766903575003,-0.95751953,0.11035156,0.27001953,6.225586,-12.756348,5.554199,0.0,0.0,0.0,30.646362,78.52478,76.849365
1766903575014,-0.95751953,0.11035156,0.27001953,6.225586,-12.756348,5.554199,0.0,0.0,0.0,31.382446,77.629395,76.76697
1766903575103,-0.9741211,0.08984375,0.1850586,22.949219,-4.699707,0.0,0.0,0.0,0.0,31.382446,77.629395,76.76697
1766903575114,-0.9741211,0.08984375,0.1850586,22.949219,-4.699707,0.0,0.0,0.0,0.0,31.278076,76.22864,75.3772
1766903575203,-0.96777344,0.056640625,0.2211914,9.399414,-17.822266,1.3427734,0.0,0.0,0.0,31.278076,76.22864,75.3772
1766903575214,-0.96777344,0.056640625,0.2211914,9.399414,-17.822266,1.3427734,0.0,0.0,0.0,29.761963,75.355225,72.07031
1766903575302,-0.99365234,0.1171875,0.19091797,22.094727,-2.9296875,-5.3100586,0.0,0.0,0.0,29.761963,75.355225,72.07031
1766903575314,-0.99365234,0.1171875,0.19091797,22.094727,-2.9296875,-5.3100586,0.0,0.0,0.0,28.608398,74.77295,69.609375
1766903575402,-1.015625,0.044921875,0.13476562,13.48877,-1.0986328,-1.6479492,0.0,0.0,0.0,28.608398,74.77295,69.609375
1766903575413,-1.015625,0.044921875,0.13476562,13.48877,-1.0986328,-1.6479492,0.0,0.0,0.0,29.553223,75.31677,68.5437
1766903575502,-1.0078125,0.056152344,0.12597656,13.85498,8.728027,-7.2021484,0.0,0.0,0.0,29.553223,75.31677,68.5437
1766903575513,-1.0078125,0.056152344,0.12597656,13.85498,8.728027,-7.2021484,0.0,0.0,0.0,29.058838,76.069336,67.35718
1766903575601,-0.99072266,0.072265625,0.12548828,3.7231445,12.512207,-1.8310547,0.0,0.0,0.0,29.058838,76.069336,67.35718
1766903575613,-0.99072266,0.072265625,0.12548828,3.7231445,12.512207,-1.8310547,0.0,0.0,0.0,30.250854,77.51953,68.33496
1766903575701,-1.0551758,0.10253906,0.2446289,1.953125,18.188477,0.6713867,0.0,0.0,0.0,30.250854,77.51953,68.33496
1766903575713,-1.0551758,0.10253906,0.2446289,1.953125,18.188477,0.6713867,0.0,0.0,0.0,35.10132,79.32678,73.531494
1766903575801,-0.9248047,0.08105469,0.1430664,-20.568848,1.0986328,7.9345703,0.0,0.0,0.0,35.10132,79.32678,73.531494
1766903575812,-0.9248047,0.08105469,0.1430664,-20.568848,1.0986328,7.9345703,0.0,0.0,0.0,36.551514,79.48059,77.266846
1766903575900,-0.9765625,0.1171875,0.15478516,-11.779785,10.070801,4.4555664,0.0,0.0,0.0,36.551514,79.48059,77.266846
1766903575912,-0.9765625,0.1171875,0.15478516,-11.779785,10.070801,4.4555664,0.0,0.0,0.0,38.78723,79.51355,81.85364
1766903576000,-0.921875,0.19433594,0.22265625,-23.376465,-6.286621,7.2631836,0.0,0.0,0.0,38.78723,79.51355,81.85364
1766903576012,-0.921875,0.19433594,0.22265625,-23.376465,-6.286621,7.2631836,0.0,0.0,0.0,40.97351,79.89807,86.09985
1766903576100,-1.0512695,0.17480469,0.17041016,8.300781,5.9814453,-8.117676,0.0,0.0,0.0,40.97351,79.89807,86.09985
1766903576112,-1.0512695,0.17480469,0.17041016,8.300781,5.9814453,-8.117676,0.0,0.0,0.0,38.50708,79.43115,85.177
1766903576200,-0.89697266,0.12451172,0.111328125,-5.3710938,-10.437012,-7.507324,0.0,0.0,0.0,38.50708,79.43115,85.177
1766903576211,-0.89697266,0.12451172,0.111328125,-5.3710938,-10.437012,-7.507324,0.0,0.0,0.0,35.013428,79.56299,81.397705
1766903576299,-1.0195312,0.12548828,0.12158203,-0.7324219,-10.7421875,1.159668,0.0,0.0,0.0,35.013428,79.56299,81.397705
1766903576311,-1.0195312,0.12548828,0.12158203,-0.7324219,-10.7421875,1.159668,0.0,0.0,0.0,31.409912,78.29407,78.288574
1766903576399,-1.0087891,0.104003906,0.099121094,-2.6245117,-4.9438477,-3.1738281,0.0,0.0,0.0,31.409912,78.29407,78.288574
1766903576410,-1.0087891,0.104003906,0.099121094,-2.6245117,-4.9438477,-3.1738281,0.0,0.0,0.0,29.470825,78.1897,76.02539
1766903576499,-0.97021484,0.100097656,0.044433594,2.0751953,6.225586,0.30517578,0.0,0.0,0.0,29.470825,78.1897,76.02539
1766903576510,-0.97021484,0.100097656,0.044433594,2.0751953,6.225586,0.30517578,0.0,0.0,0.0,30.426636,78.41492,77.27234
1766903576598,-1.015625,0.079589844,0.0703125,-4.5776367,4.8828125,-1.953125,0.0,0.0,0.0,30.426636,78.41492,77.27234
1766903576610,-1.015625,0.079589844,0.0703125,-4.5776367,4.8828125,-1.953125,0.0,0.0,0.0,32.34375,79.381714,79.17847
1766903576698,-1.0224609,0.08154297,0.18945312,-4.333496,-0.12207031,-20.019531,0.0,0.0,0.0,32.34375,79.381714,79.17847
1766903576710,-1.0224609,0.08154297,0.18945312,-4.333496,-0.12207031,-20.019531,0.0,0.0,0.0,29.130249,80.74951,76.39343
1766903576798,-1.0224609,0.1586914,0.17382812,8.117676,-0.61035156,-3.1738281,0.0,0.0,0.0,29.130249,80.74951,76.39343
1766903576810,-1.0224609,0.1586914,0.17382812,8.117676,-0.61035156,-3.1738281,0.0,0.0,0.0,21.549683,80.59021,69.054565
1766903576898,-0.8276367,-9.765625E-4,0.25585938,-4.3945312,6.652832,-0.30517578,0.0,0.0,0.0,21.549683,80.59021,69.054565
1766903576909,-0.8276367,-9.765625E-4,0.25585938,-4.3945312,6.652832,-0.30517578,0.0,0.0,0.0,24.993896,80.7605,71.96594
1766903576997,-1.0507812,0.08935547,0.25341797,-9.765625,-8.850098,2.8076172,0.0,0.0,0.0,24.993896,80.7605,71.96594
1766903577009,-1.0507812,0.08935547,0.25341797,-9.765625,-8.850098,2.8076172,0.0,0.0,0.0,23.499756,80.68909,70.73547
1766903577097,-0.9370117,0.100097656,0.15771484,17.51709,1.5869141,0.79345703,0.0,0.0,0.0,23.499756,80.68909,70.73547
1766903577109,-0.9370117,0.100097656,0.15771484,17.51709,1.5869141,0.79345703,0.0,0.0,0.0,23.48877,79.903564,70.85632
1766903577197,-0.9057617,0.012207031,0.1586914,18.859863,-15.136719,6.0424805,0.0,0.0,0.0,23.48877,79.903564,70.85632
1766903577208,-0.9057617,0.012207031,0.1586914,18.859863,-15.136719,6.0424805,0.0,0.0,0.0,26.119995,79.211426,71.72424
1766903577297,-1.0556641,0.045898438,0.20507812,0.8544922,-10.253906,6.4697266,0.0,0.0,0.0,26.119995,79.211426,71.72424
1766903577308,-1.0556641,0.045898438,0.20507812,0.8544922,-10.253906,6.4697266,0.0,0.0,0.0,27.196655,77.45361,72.317505
1766903577396,-0.9394531,0.12695312,0.16064453,0.5493164,-8.544922,4.1503906,0.0,0.0,0.0,27.196655,77.45361,72.317505
1766903577408,-0.9394531,0.12695312,0.16064453,0.5493164,-8.544922,4.1503906,0.0,0.0,0.0,25.614624,76.40442,71.01013
1766903577496,-1.0175781,0.028320312,0.12939453,22.155762,0.7324219,0.6713867,0.0,0.0,0.0,25.614624,76.40442,71.01013
1766903577507,-1.0175781,0.028320312,0.12939453,22.155762,0.7324219,0.6713867,0.0,0.0,0.0,26.784668,76.77246,69.680786
1766903577596,-0.9916992,0.12597656,0.107421875,-8.239746,-5.554199,3.4179688,0.0,0.0,0.0,26.784668,76.77246,69.680786
1766903577608,-0.9916992,0.12597656,0.107421875,-8.239746,-5.554199,3.4179688,0.0,0.0,0.0,26.998901,76.04187,71.1145
1766903577695,-1.0834961,0.110839844,0.16552734,10.437012,3.2958984,8.483887,0.0,0.0,0.0,26.998901,76.04187,71.1145
1766903577707,-1.0834961,0.110839844,0.16552734,10.437012,3.2958984,8.483887,0.0,0.0,0.0,29.822388,75.83862,74.10278
1766903577795,-1.0083008,0.044921875,0.29296875,-14.587402,8.422852,15.258789,0.0,0.0,0.0,29.822388,75.83862,74.10278
1766903577807,-1.0083008,0.044921875,0.29296875,-14.587402,8.422852,15.258789,0.0,0.0,0.0,34.25537,76.15173,78.31055
1766903577895,-1.0039062,0.1538086,0.2055664,-37.17041,-4.8217773,7.2021484,0.0,0.0,0.0,34.25537,76.15173,78.31055
1766903577906,-1.0039062,0.1538086,0.2055664,-37.17041,-4.8217773,7.2021484,0.0,0.0,0.0,34.486084,75.82764,81.84265
1766903577994,-0.8925781,0.1274414,0.23291016,6.8359375,26.306152,2.746582,0.0,0.0,0.0,34.486084,75.82764,81.84265
1766903578006,-0.8925781,0.1274414,0.23291016,6.8359375,26.306152,2.746582,0.0,0.0,0.0,36.974487,76.30554,86.32507
1766903578094,-0.96240234,0.12890625,0.21826172,-34.66797,-2.380371,11.535645,0.0,0.0,0.0,36.974487,76.30554,86.32507
1766903578106,-0.96240234,0.12890625,0.21826172,-34.66797,-2.380371,11.535645,0.0,0.0,0.0,41.171265,76.86035,91.39526
1766903578194,-0.8935547,0.21044922,0.22021484,-8.117676,6.958008,-5.126953,0.0,0.0,0.0,41.171265,76.86035,91.39526
1766903578205,-0.8935547,0.21044922,0.22021484,-8.117676,6.958008,-5.126953,0.0,0.0,0.0,40.479126,76.77246,92.91138
1766903578294,-0.97021484,0.22753906,0.24316406,-9.94873,-9.033203,3.112793,0.0,0.0,0.0,40.479126,76.77246,92.91138
1766903578306,-0.97021484,0.22753906,0.24316406,-9.94873,-9.033203,3.112793,0.0,0.0,0.0,39.364014,76.55823,91.99951
1766903578394,-0.9511719,0.13085938,0.171875,5.7373047,-9.094238,-7.9956055,0.0,0.0,0.0,39.364014,76.55823,91.99951
1766903578405,-0.9511719,0.13085938,0.171875,5.7373047,-9.094238,-7.9956055,0.0,0.0,0.0,37.32605,75.250854,89.313354
1766903578493,-0.94091797,0.20458984,0.21044922,-2.319336,-20.446777,0.91552734,0.0,0.0,0.0,37.32605,75.250854,89.313354
1766903578505,-0.94091797,0.20458984,0.21044922,-2.319336,-20.446777,0.91552734,0.0,0.0,0.0,33.063354,74.4104,84.01245
1766903578593,-1.0078125,0.1616211,0.16601562,6.5307617,-9.94873,-4.0283203,0.0,0.0,0.0,33.063354,74.4104,84.01245
1766903578604,-1.0078125,0.1616211,0.16601562,6.5307617,-9.94873,-4.0283203,0.0,0.0,0.0,30.596924,72.98767,80.26062
1766903578693,-0.9770508,0.17382812,0.1484375,7.507324,-4.760742,-2.9296875,0.0,0.0,0.0,30.596924,72.98767,80.26062
1766903578705,-0.9770508,0.17382812,0.1484375,7.507324,-4.760742,-2.9296875,0.0,0.0,0.0,29.745483,72.8064,77.750244
1766903578792,-1.0004883,0.11816406,0.14404297,15.014648,12.817383,-11.779785,0.0,0.0,0.0,29.745483,72.8064,77.750244
1766903578804,-1.0004883,0.11816406,0.14404297,15.014648,12.817383,-11.779785,0.0,0.0,0.0,30.360718,73.65234,76.15723
1766903578892,-1.0473633,0.15625,0.13916016,-6.286621,8.117676,-16.601562,0.0,0.0,0.0,30.360718,73.65234,76.15723
1766903578904,-1.0473633,0.15625,0.13916016,-6.286621,8.117676,-16.601562,0.0,0.0,0.0,28.668823,75.32776,73.13049
1766903578992,-0.99609375,0.15185547,0.25,28.381348,12.939453,-23.925781,0.0,0.0,0.0,28.668823,75.32776,73.13049
1766903579004,-0.99609375,0.15185547,0.25,28.381348,12.939453,-23.925781,0.0,0.0,0.0,26.26831,77.7887,69.04907
1766903579091,-0.86035156,0.095214844,0.21533203,8.911133,8.361816,0.30517578,0.0,0.0,0.0,26.26831,77.7887,69.04907
1766903579103,-0.86035156,0.095214844,0.21533203,8.911133,8.361816,0.30517578,0.0,0.0,0.0,25.054321,78.76648,66.14319
1766903579191,-0.9692383,-0.0034179688,0.28222656,10.131836,5.6762695,-2.1362305,0.0,0.0,0.0,25.054321,78.76648,66.14319
1766903579203,-0.9692383,-0.0034179688,0.28222656,10.131836,5.6762695,-2.1362305,0.0,0.0,0.0,26.921997,79.61792,67.30774
1766903579291,-1.0698242,0.12109375,0.2163086,6.1035156,2.8686523,1.7089844,0.0,0.0,0.0,26.921997,79.61792,67.30774
1766903579302,-1.0698242,0.12109375,0.2163086,6.1035156,2.8686523,1.7089844,0.0,0.0,0.0,25.669556,79.62341,66.275024
1766903579390,-0.8886719,0.056640625,0.1274414,15.014648,-1.7089844,11.59668,0.0,0.0,0.0,25.669556,79.62341,66.275024
1766903579402,-0.8886719,0.056640625,0.1274414,15.014648,-1.7089844,11.59668,0.0,0.0,0.0,29.33899,78.84888,69.384155
1766903579490,-1.0175781,0.0073242188,0.16796875,8.544922,-3.2348633,3.7231445,0.0,0.0,0.0,29.33899,78.84888,69.384155
1766903579502,-1.0175781,0.0073242188,0.16796875,8.544922,-3.2348633,3.7231445,0.0,0.0,0.0,32.799683,78.673096,72.00989
1766903579590,-1.0,0.05908203,0.1352539,5.7373047,-2.5024414,1.6479492,0.0,0.0,0.0,32.799683,78.673096,72.00989
1766903579601,-1.0,0.05908203,0.1352539,5.7373047,-2.5024414,1.6479492,0.0,0.0,0.0,32.651367,78.497314,71.66931
1766903579690,-0.9819336,0.05859375,0.087402344,5.1879883,4.5776367,0.6713867,0.0,0.0,0.0,32.651367,78.497314,71.66931
1766903579702,-0.9819336,0.05859375,0.087402344,5.1879883,4.5776367,0.6713867,0.0,0.0,0.0,33.354492,78.585205,72.49878
1766903579789,-0.98779297,0.041503906,0.11328125,2.4414062,0.61035156,-3.6621094,0.0,0.0,0.0,33.354492,78.585205,72.49878
1766903579801,-0.98779297,0.041503906,0.11328125,2.4414062,0.61035156,-3.6621094,0.0,0.0,0.0,33.200684,79.035645,72.93823
1766903579889,-1.0180664,0.05810547,0.08544922,5.126953,9.216309,0.4272461,0.0,0.0,0.0,33.200684,79.035645,72.93823
1766903579901,-1.0180664,0.05810547,0.08544922,5.126953,9.216309,0.4272461,0.0,0.0,0.0,33.760986,79.62891,73.83362
1766903579989,-1.0874023,0.06933594,0.20996094,-0.61035156,8.239746,-1.7089844,0.0,0.0,0.0,33.760986,79.62891,73.83362
1766903580001,-1.0874023,0.06933594,0.20996094,-0.61035156,8.239746,-1.7089844,0.0,0.0,0.0,36.61194,80.859375,77.20093
1766903580089,-0.9213867,0.04638672,0.12939453,-32.043457,-7.507324,5.859375,0.0,0.0,0.0,36.61194,80.859375,77.20093
1766903580100,-0.9213867,0.04638672,0.12939453,-32.043457,-7.507324,5.859375,0.0,0.0,0.0,33.52478,80.31006,77.211914
1766903580188,-0.98046875,0.16064453,0.14160156,-18.310547,13.183594,5.79834,0.0,0.0,0.0,33.52478,80.31006,77.211914
1766903580200,-0.98046875,0.16064453,0.14160156,-18.310547,13.183594,5.79834,0.0,0.0,0.0,35.930786,80.43091,82.97424
1766903580288,-0.96533203,0.114746094,0.16113281,-28.686523,4.272461,9.521484,0.0,0.0,0.0,35.930786,80.43091,82.97424
1766903580299,-0.96533203,0.114746094,0.16113281,-28.686523,4.272461,9.521484,0.0,0.0,0.0,41.64917,80.57922,91.104126
1766903580388,-0.93896484,0.19384766,0.19091797,-21.911621,-7.3242188,6.225586,0.0,0.0,0.0,41.64917,80.57922,91.104126
1766903580399,-0.93896484,0.19384766,0.19091797,-21.911621,-7.3242188,6.225586,0.0,0.0,0.0,42.357788,79.74426,94.49341
1766903580487,-0.8959961,0.24902344,0.17382812,13.305664,-5.6762695,-5.7373047,0.0,0.0,0.0,42.357788,79.74426,94.49341
1766903580499,-0.8959961,0.24902344,0.17382812,13.305664,-5.6762695,-5.7373047,0.0,0.0,0.0,40.270386,78.92578,92.51587
1766903580587,-1.0366211,0.060546875,0.14697266,6.1035156,-14.343262,-6.4086914,0.0,0.0,0.0,40.270386,78.92578,92.51587
1766903580599,-1.0366211,0.060546875,0.14697266,6.1035156,-14.343262,-6.4086914,0.0,0.0,0.0,39.193726,77.84363,89.14856
1766903580687,-0.9433594,0.18457031,0.12402344,-0.18310547,-14.221191,0.0,0.0,0.0,0.0,39.193726,77.84363,89.14856
1766903580698,-0.9433594,0.18457031,0.12402344,-0.18310547,-14.221191,0.0,0.0,0.0,0.0,32.420654,76.99219,82.16675
1766903580787,-1.0444336,0.11279297,0.095214844,12.756348,-4.8217773,-7.3242188,0.0,0.0,0.0,32.420654,76.99219,82.16675
1766903580798,-1.0444336,0.11279297,0.095214844,12.756348,-4.8217773,-7.3242188,0.0,0.0,0.0,31.679077,76.83838,79.32129
1766903580886,-0.97753906,0.08691406,0.021484375,5.9814453,3.9672852,-5.3100586,0.0,0.0,0.0,31.679077,76.83838,79.32129
1766903580898,-0.97753906,0.08691406,0.021484375,5.9814453,3.9672852,-5.3100586,0.0,0.0,0.0,30.322266,77.21741,76.95923
1766903580986,-1.0,0.123046875,0.08935547,-4.9438477,9.033203,-3.479004,0.0,0.0,0.0,30.322266,77.21741,76.95923
1766903580998,-1.0,0.123046875,0.08935547,-4.9438477,9.033203,-3.479004,0.0,0.0,0.0,32.019653,78.39844,78.55774
1766903581086,-1.1225586,0.10644531,0.12841797,12.390137,26.550293,-17.150879,0.0,0.0,0.0,32.019653,78.39844,78.55774
1766903581097,-1.1225586,0.10644531,0.12841797,12.390137,26.550293,-17.150879,0.0,0.0,0.0,33.931274,80.78247,80.26611
1766903581185,-1.0200195,0.119628906,0.14794922,25.756836,5.92041,-14.953613,0.0,0.0,0.0,33.931274,80.78247,80.26611
1766903581197,-1.0200195,0.119628906,0.14794922,25.756836,5.92041,-14.953613,0.0,0.0,0.0,30.223389,82.74353,74.833374
1766903581285,-0.80859375,0.03466797,0.22460938,13.183594,10.314941,-8.422852,0.0,0.0,0.0,30.223389,82.74353,74.833374
1766903581297,-0.80859375,0.03466797,0.22460938,13.183594,10.314941,-8.422852,0.0,0.0,0.0,33.431396,83.83667,76.86035
1766903581385,-1.0551758,0.0078125,0.20751953,-6.591797,-31.25,14.038086,0.0,0.0,0.0,33.431396,83.83667,76.86035
1766903581396,-1.0551758,0.0078125,0.20751953,-6.591797,-31.25,14.038086,0.0,0.0,0.0,27.696533,82.55676,71.586914
1766903581485,-0.9614258,0.08544922,0.13964844,-26.97754,-27.09961,25.390625,0.0,0.0,0.0,27.696533,82.55676,71.586914
1766903581496,-0.9614258,0.08544922,0.13964844,-26.97754,-27.09961,25.390625,0.0,0.0,0.0,25.383911,78.29407,72.30652
1766903581584,-0.9741211,0.02734375,0.22558594,6.225586,-8.117676,5.3100586,0.0,0.0,0.0,25.383911,78.29407,72.30652
1766903581596,-0.9741211,0.02734375,0.22558594,6.225586,-8.117676,5.3100586,0.0,0.0,0.0,27.79541,77.33826,74.608154
1766903581684,-1.0024414,0.096191406,0.1616211,-10.375977,-17.700195,9.765625,0.0,0.0,0.0,27.79541,77.33826,74.608154
1766903581696,-1.0024414,0.096191406,0.1616211,-10.375977,-17.700195,9.765625,0.0,0.0,0.0,25.290527,75.64636,73.097534
1766903581784,-0.9838867,0.091796875,0.1303711,0.7324219,-3.0517578,1.2207031,0.0,0.0,0.0,25.290527,75.64636,73.097534
1766903581795,-0.9838867,0.091796875,0.1303711,0.7324219,-3.0517578,1.2207031,0.0,0.0,0.0,25.230103,74.871826,73.07556
1766903581884,-0.9951172,0.048339844,0.20019531,3.3569336,10.192871,0.6713867,0.0,0.0,0.0,25.230103,74.871826,73.07556
1766903581895,-0.9951172,0.048339844,0.20019531,3.3569336,10.192871,0.6713867,0.0,0.0,0.0,26.850586,75.58594,73.965454
1766903581983,-1.0478516,0.07519531,0.15332031,-7.507324,19.470215,2.319336,0.0,0.0,0.0,26.850586,75.58594,73.965454
1766903581995,-1.0478516,0.07519531,0.15332031,-7.507324,19.470215,2.319336,0.0,0.0,0.0,28.921509,76.61316,76.09131
1766903582083,-1.0102539,0.045898438,0.26708984,-12.512207,15.625,12.329102,0.0,0.0,0.0,28.921509,76.61316,76.09131
1766903582094,-1.0102539,0.045898438,0.26708984,-12.512207,15.625,12.329102,0.0,0.0,0.0,35.39795,78.22266,83.46863
1766903582183,-0.9042969,0.084472656,0.14648438,-29.052734,14.038086,4.5166016,0.0,0.0,0.0,35.39795,78.22266,83.46863
1766903582194,-0.9042969,0.084472656,0.14648438,-29.052734,14.038086,4.5166016,0.0,0.0,0.0,38.111572,78.37097,89.00574
1766903582282,-0.93847656,0.20800781,0.20996094,-28.320312,2.5024414,13.183594,0.0,0.0,0.0,38.111572,78.37097,89.00574
1766903582294,-0.93847656,0.20800781,0.20996094,-28.320312,2.5024414,13.183594,0.0,0.0,0.0,41.000977,78.86536,93.99902
1766903582382,-0.92041016,0.17382812,0.21240234,-4.272461,6.5307617,-4.0893555,0.0,0.0,0.0,41.000977,78.86536,93.99902
1766903582394,-0.92041016,0.17382812,0.21240234,-4.272461,6.5307617,-4.0893555,0.0,0.0,0.0,42.5885,78.464355,96.96533
1766903582482,-0.9814453,0.2602539,0.19091797,-10.375977,-13.916016,5.493164,0.0,0.0,0.0,42.5885,78.464355,96.96533
1766903582493,-0.9814453,0.2602539,0.19091797,-10.375977,-13.916016,5.493164,0.0,0.0,0.0,40.578003,78.05786,94.67468
1766903582582,-0.9741211,0.15234375,0.16455078,12.756348,-1.3427734,-11.474609,0.0,0.0,0.0,40.578003,78.05786,94.67468
1766903582593,-0.9741211,0.15234375,0.16455078,12.756348,-1.3427734,-11.474609,0.0,0.0,0.0,38.880615,77.1405,91.96106
1766903582681,-0.96240234,0.19824219,0.13769531,0.48828125,-11.901855,2.8076172,0.0,0.0,0.0,38.880615,77.1405,91.96106
1766903582693,-0.96240234,0.19824219,0.13769531,0.48828125,-11.901855,2.8076172,0.0,0.0,0.0,36.26587,76.73401,88.36853
1766903582781,-0.99121094,0.13867188,0.1171875,6.3476562,-11.474609,-1.953125,0.0,0.0,0.0,36.26587,76.73401,88.36853
1766903582792,-0.99121094,0.13867188,0.1171875,6.3476562,-11.474609,-1.953125,0.0,0.0,0.0,35.392456,75.90454,86.27014
1766903582881,-0.9667969,0.16015625,0.09472656,1.8310547,-9.033203,0.0,0.0,0.0,0.0,35.392456,75.90454,86.27014
1766903582892,-0.9667969,0.16015625,0.09472656,1.8310547,-9.033203,0.0,0.0,0.0,0.0,33.579712,74.98718,83.71582
1766903582980,-0.9814453,0.12158203,0.09814453,-1.2817383,-2.9907227,-1.0375977,0.0,0.0,0.0,33.579712,74.98718,83.71582
1766903582992,-0.9814453,0.12158203,0.09814453,-1.2817383,-2.9907227,-1.0375977,0.0,0.0,0.0,33.22815,74.64661,82.337036
1766903583080,-1.0546875,0.13134766,0.083496094,-15.258789,9.82666,-8.300781,0.0,0.0,0.0,33.22815,74.64661,82.337036
1766903583092,-1.0546875,0.13134766,0.083496094,-15.258789,9.82666,-8.300781,0.0,0.0,0.0,32.958984,75.250854,81.79321
1766903583180,-0.98291016,0.15185547,0.2626953,14.160156,11.59668,-20.812988,0.0,0.0,0.0,32.958984,75.250854,81.79321
1766903583191,-0.98291016,0.15185547,0.2626953,14.160156,11.59668,-20.812988,0.0,0.0,0.0,31.585693,77.404175,80.01892
1766903583280,-0.93603516,0.19433594,0.24121094,0.18310547,-8.972168,4.0283203,0.0,0.0,0.0,31.585693,77.404175,80.01892
1766903583292,-0.93603516,0.19433594,0.24121094,0.18310547,-8.972168,4.0283203,0.0,0.0,0.0,29.190674,78.22266,75.72327
1766903583379,-0.9370117,0.034179688,0.27392578,18.493652,6.0424805,-1.7700195,0.0,0.0,0.0,29.190674,78.22266,75.72327
1766903583391,-0.9370117,0.034179688,0.27392578,18.493652,6.0424805,-1.7700195,0.0,0.0,0.0,32.04712,77.48657,77.81067
1766903583479,-1.0083008,0.1508789,0.2841797,-15.014648,-24.291992,5.3710938,0.0,0.0,0.0,32.04712,77.48657,77.81067
1766903583491,-1.0083008,0.1508789,0.2841797,-15.014648,-24.291992,5.3710938,0.0,0.0,0.0,30.668335,76.970215,76.2616
1766903583579,-0.94189453,0.033691406,0.16503906,6.3476562,-5.6152344,3.90625,0.0,0.0,0.0,30.668335,76.970215,76.2616
1766903583591,-0.94189453,0.033691406,0.16503906,6.3476562,-5.6152344,3.90625,0.0,0.0,0.0,28.377686,74.84436,74.61365
1766903583678,-0.9355469,0.078125,0.2607422,-9.094238,-10.7421875,-1.953125,0.0,0.0,0.0,28.377686,74.84436,74.61365
1766903583690,-0.9355469,0.078125,0.2607422,-9.094238,-10.7421875,-1.953125,0.0,0.0,0.0,27.630615,74.800415,73.55896
1766903583778,-1.0126953,0.11621094,0.14208984,-4.8828125,-17.8833,7.507324,0.0,0.0,0.0,27.630615,74.800415,73.55896
1766903583790,-1.0126953,0.11621094,0.14208984,-4.8828125,-17.8833,7.507324,0.0,0.0,0.0,24.834595,72.69653,71.58142
1766903583878,-0.96875,0.05517578,0.22851562,8.178711,5.432129,-0.6713867,0.0,0.0,0.0,24.834595,72.69653,71.58142
1766903583889,-0.96875,0.05517578,0.22851562,8.178711,5.432129,-0.6713867,0.0,0.0,0.0,26.542969,73.09204,71.641846
1766903583978,-1.003418,0.11376953,0.18847656,-16.357422,-7.019043,5.6152344,0.0,0.0,0.0,26.542969,73.09204,71.641846
1766903583989,-1.003418,0.11376953,0.18847656,-16.357422,-7.019043,5.6152344,0.0,0.0,0.0,25.620117,72.8064,71.207886
1766903584077,-1.0522461,0.12695312,0.26464844,8.666992,18.615723,0.5493164,0.0,0.0,0.0,25.620117,72.8064,71.207886
1766903584089,-1.0522461,0.12695312,0.26464844,8.666992,18.615723,0.5493164,0.0,0.0,0.0,28.114014,73.635864,73.125
1766903584177,-0.9711914,0.072265625,0.2788086,-11.535645,1.0986328,16.967773,0.0,0.0,0.0,28.114014,73.635864,73.125
1766903584188,-0.9711914,0.072265625,0.2788086,-11.535645,1.0986328,16.967773,0.0,0.0,0.0,33.29956,74.0094,78.31604
1766903584277,-0.90966797,0.12597656,0.25830078,-10.986328,10.925293,-0.6713867,0.0,0.0,0.0,33.29956,74.0094,78.31604
1766903584288,-0.90966797,0.12597656,0.25830078,-10.986328,10.925293,-0.6713867,0.0,0.0,0.0,34.45862,73.97095,81.12854
1766903584377,-0.95703125,0.19824219,0.20898438,-1.2207031,30.334473,-10.375977,0.0,0.0,0.0,34.45862,73.97095,81.12854
1766903584388,-0.95703125,0.19824219,0.20898438,-1.2207031,30.334473,-10.375977,0.0,0.0,0.0,36.28784,75.81116,83.567505
1766903584476,-0.91015625,0.1821289,0.2626953,-8.544922,1.5258789,-2.4414062,0.0,0.0,0.0,36.28784,75.81116,83.567505
1766903584488,-0.91015625,0.1821289,0.2626953,-8.544922,1.5258789,-2.4414062,0.0,0.0,0.0,37.683105,77.541504,84.64966
1766903584576,-1.012207,0.25830078,0.18017578,4.272461,4.0893555,-6.4697266,0.0,0.0,0.0,37.683105,77.541504,84.64966
1766903584589,-1.012207,0.25830078,0.18017578,4.272461,4.0893555,-6.4697266,0.0,0.0,0.0,36.29883,77.36023,83.75427
1766903584676,-0.91503906,0.12402344,0.21044922,29.11377,-5.432129,-8.117676,0.0,0.0,0.0,36.29883,77.36023,83.75427
1766903584688,-0.91503906,0.12402344,0.21044922,29.11377,-5.432129,-8.117676,0.0,0.0,0.0,36.7218,77.67334,81.78772
1766903584775,-0.9736328,0.15673828,0.13769531,-14.892578,-14.770508,7.385254,0.0,0.0,0.0,36.7218,77.67334,81.78772
1766903584787,-0.9736328,0.15673828,0.13769531,-14.892578,-14.770508,7.385254,0.0,0.0,0.0,33.38745,76.04187,78.50281
1766903584875,-0.97509766,0.16015625,0.122558594,9.70459,-4.0893555,-7.2021484,0.0,0.0,0.0,33.38745,76.04187,78.50281
1766903584887,-0.97509766,0.16015625,0.122558594,9.70459,-4.0893555,-7.2021484,0.0,0.0,0.0,32.58545,75.84961,76.87683
1766903584975,-0.9995117,0.1381836,0.057128906,6.8359375,-4.0893555,-2.319336,0.0,0.0,0.0,32.58545,75.84961,76.87683
1766903584986,-0.9995117,0.1381836,0.057128906,6.8359375,-4.0893555,-2.319336,0.0,0.0,0.0,32.113037,75.910034,75.42114
1766903585075,-0.98339844,0.14355469,0.08154297,14.587402,6.958008,-6.713867,0.0,0.0,0.0,32.113037,75.910034,75.42114
1766903585086,-0.98339844,0.14355469,0.08154297,14.587402,6.958008,-6.713867,0.0,0.0,0.0,33.00293,76.79993,74.937744
1766903585174,-1.0888672,0.119140625,0.095214844,-2.1362305,9.399414,-6.5307617,0.0,0.0,0.0,33.00293,76.79993,74.937744
1766903585186,-1.0888672,0.119140625,0.095214844,-2.1362305,9.399414,-6.5307617,0.0,0.0,0.0,33.36548,77.8656,74.64661
1766903585274,-0.9682617,0.14208984,0.26660156,9.94873,3.6010742,-16.235352,0.0,0.0,0.0,33.36548,77.8656,74.64661
1766903585286,-0.9682617,0.14208984,0.26660156,9.94873,3.6010742,-16.235352,0.0,0.0,0.0,31.212158,79.51355,71.56494
1766903585374,-0.8647461,0.106933594,0.19335938,3.9672852,1.4038086,-0.061035156,0.0,0.0,0.0,31.212158,79.51355,71.56494
1766903585386,-0.8647461,0.106933594,0.19335938,3.9672852,1.4038086,-0.061035156,0.0,0.0,0.0,28.597412,79.08508,68.91174
1766903585474,-0.97998047,-0.008300781,0.27246094,2.8076172,-5.7373047,4.4555664,0.0,0.0,0.0,28.597412,79.08508,68.91174
1766903585485,-0.97998047,-0.008300781,0.27246094,2.8076172,-5.7373047,4.4555664,0.0,0.0,0.0,29.630127,79.17847,68.57666
1766903585573,-1.003418,0.13574219,0.24316406,-2.1362305,-13.73291,1.3427734,0.0,0.0,0.0,29.630127,79.17847,68.57666
1766903585585,-1.003418,0.13574219,0.24316406,-2.1362305,-13.73291,1.3427734,0.0,0.0,0.0,25.164185,77.81616,65.24231
1766903585673,-0.90966797,0.04638672,0.19628906,12.512207,-7.5683594,6.5307617,0.0,0.0,0.0,25.164185,77.81616,65.24231
1766903585684,-0.90966797,0.04638672,0.19628906,12.512207,-7.5683594,6.5307617,0.0,0.0,0.0,25.60913,76.61316,64.86328
1766903585773,-0.97802734,0.068847656,0.23388672,-4.9438477,-14.831543,6.958008,0.0,0.0,0.0,25.60913,76.61316,64.86328
1766903585785,-0.97802734,0.068847656,0.23388672,-4.9438477,-14.831543,6.958008,0.0,0.0,0.0,25.88379,75.31128,65.29724
1766903585873,-1.0083008,0.095214844,0.15185547,7.2631836,-9.277344,6.591797,0.0,0.0,0.0,25.88379,75.31128,65.29724
1766903585884,-1.0083008,0.095214844,0.15185547,7.2631836,-9.277344,6.591797,0.0,0.0,0.0,26.037598,73.64136,65.912476
1766903585972,-0.9790039,0.05029297,0.20117188,14.465332,3.7231445,0.18310547,0.0,0.0,0.0,26.037598,73.64136,65.912476
1766903585984,-0.9790039,0.05029297,0.20117188,14.465332,3.7231445,0.18310547,0.0,0.0,0.0,27.608643,73.78418,66.11572
1766903586072,-1.0146484,0.078125,0.19140625,-5.6152344,7.9345703,2.319336,0.0,0.0,0.0,27.608643,73.78418,66.11572
1766903586083,-1.0146484,0.078125,0.19140625,-5.6152344,7.9345703,2.319336,0.0,0.0,0.0,28.504028,74.278564,67.093506
1766903586172,-1.0976562,0.16015625,0.27294922,2.9907227,21.66748,5.79834,0.0,0.0,0.0,28.504028,74.278564,67.093506
1766903586183,-1.0976562,0.16015625,0.27294922,2.9907227,21.66748,5.79834,0.0,0.0,0.0,31.536255,75.76721,70.57068
1766903586271,-0.9423828,0.015625,0.19042969,-15.930176,14.221191,4.272461,0.0,0.0,0.0,31.536255,75.76721,70.57068
1766903586283,-0.9423828,0.015625,0.19042969,-15.930176,14.221191,4.272461,0.0,0.0,0.0,38.254395,77.04712,77.95349
1766903586371,-0.9482422,0.16210938,0.18115234,-23.498535,22.155762,3.112793,0.0,0.0,0.0,38.254395,77.04712,77.95349
1766903586382,-0.9482422,0.16210938,0.18115234,-23.498535,22.155762,3.112793,0.0,0.0,0.0,40.52307,78.046875,83.792725
1766903586471,-0.9082031,0.16699219,0.19726562,-20.751953,14.526367,3.6010742,0.0,0.0,0.0,40.52307,78.046875,83.792725
1766903586482,-0.9082031,0.16699219,0.19726562,-20.751953,14.526367,3.6010742,0.0,0.0,0.0,46.955566,79.211426,92.631226
1766903586570,-0.9194336,0.20361328,0.1694336,-9.887695,-1.159668,2.319336,0.0,0.0,0.0,46.955566,79.211426,92.631226
1766903586582,-0.9194336,0.20361328,0.1694336,-9.887695,-1.159668,2.319336,0.0,0.0,0.0,47.889404,79.11255,95.493164
1766903586670,-1.0234375,0.17578125,0.19726562,11.413574,-1.159668,-3.112793,0.0,0.0,0.0,47.889404,79.11255,95.493164
1766903586682,-1.0234375,0.17578125,0.19726562,11.413574,-1.159668,-3.112793,0.0,0.0,0.0,47.334595,78.75549,95.21301
1766903586770,-0.92871094,0.17041016,0.087402344,0.48828125,-16.357422,-6.225586,0.0,0.0,0.0,47.334595,78.75549,95.21301
1766903586782,-0.92871094,0.17041016,0.087402344,0.48828125,-16.357422,-6.225586,0.0,0.0,0.0,43.286133,78.61267,89.818726
1766903586870,-1.0214844,0.18554688,0.08300781,26.550293,-8.666992,-8.7890625,0.0,0.0,0.0,43.286133,78.61267,89.818726
1766903586882,-1.0214844,0.18554688,0.08300781,26.550293,-8.666992,-8.7890625,0.0,0.0,0.0,38.41919,77.805176,84.314575
1766903586969,-1.0180664,0.13085938,0.072753906,28.381348,-3.2958984,-14.343262,0.0,0.0,0.0,38.41919,77.805176,84.314575
1766903586981,-1.0180664,0.13085938,0.072753906,28.381348,-3.2958984,-14.343262,0.0,0.0,0.0,35.95276,78.63464,78.376465
1766903587069,-0.99560547,0.095703125,0.011230469,4.0893555,-0.18310547,-3.1738281,0.0,0.0,0.0,35.95276,78.63464,78.376465
1766903587081,-0.99560547,0.095703125,0.011230469,4.0893555,-0.18310547,-3.1738281,0.0,0.0,0.0,34.469604,78.94226,75.563965
1766903587169,-1.003418,0.099121094,0.027832031,-0.5493164,6.8969727,-1.7089844,0.0,0.0,0.0,34.469604,78.94226,75.563965
1766903587180,-1.003418,0.099121094,0.027832031,-0.5493164,6.8969727,-1.7089844,0.0,0.0,0.0,35.985718,79.7113,77.21741
1766903587268,-1.1220703,0.09667969,0.053222656,3.540039,20.385742,-17.150879,0.0,0.0,0.0,35.985718,79.7113,77.21741
1766903587280,-1.1220703,0.09667969,0.053222656,3.540039,20.385742,-17.150879,0.0,0.0,0.0,37.15576,81.13953,78.78296
1766903587368,-0.93603516,0.100097656,0.21386719,16.845703,-8.483887,-15.74707,0.0,0.0,0.0,37.15576,81.13953,78.78296
1766903587380,-0.93603516,0.100097656,0.21386719,16.845703,-8.483887,-15.74707,0.0,0.0,0.0,30.569458,83.61145,70.83984
1766903587468,-0.92626953,0.049804688,0.17578125,-10.559082,4.8217773,6.4086914,0.0,0.0,0.0,30.569458,83.61145,70.83984
1766903587479,-0.92626953,0.049804688,0.17578125,-10.559082,4.8217773,6.4086914,0.0,0.0,0.0,26.438599,82.74353,67.20886
1766903587568,-0.92871094,0.032714844,0.19238281,-6.3476562,-7.8125,4.3945312,0.0,0.0,0.0,26.438599,82.74353,67.20886
1766903587579,-0.92871094,0.032714844,0.19238281,-6.3476562,-7.8125,4.3945312,0.0,0.0,0.0,27.740479,82.63367,69.25781
1766903587667,-1.0546875,0.1303711,0.18554688,10.925293,-15.136719,-0.91552734,0.0,0.0,0.0,27.740479,82.63367,69.25781
1766903587679,-1.0546875,0.1303711,0.18554688,10.925293,-15.136719,-0.91552734,0.0,0.0,0.0,24.86206,81.26587,67.65381
1766903587767,-0.89746094,-0.018554688,0.16015625,8.361816,-11.230469,4.8828125,0.0,0.0,0.0,24.86206,81.26587,67.65381
1766903587779,-0.89746094,-0.018554688,0.16015625,8.361816,-11.230469,4.8828125,0.0,0.0,0.0,25.394897,79.77722,67.23633
1766903587867,-0.98828125,0.037109375,0.16113281,2.1362305,-17.63916,1.2207031,0.0,0.0,0.0,25.394897,79.77722,67.23633
1766903587879,-0.98828125,0.037109375,0.16113281,2.1362305,-17.63916,1.2207031,0.0,0.0,0.0,23.955688,78.167725,66.18713
1766903587967,-1.0288086,0.08642578,0.15966797,1.2817383,-21.30127,6.4697266,0.0,0.0,0.0,23.955688,78.167725,66.18713
1766903587978,-1.0288086,0.08642578,0.15966797,1.2817383,-21.30127,6.4697266,0.0,0.0,0.0,21.242065,76.294556,63.621826
1766903588066,-0.99121094,0.018066406,0.16699219,2.746582,-0.6713867,-2.5634766,0.0,0.0,0.0,21.242065,76.294556,63.621826
1766903588078,-0.99121094,0.018066406,0.16699219,2.746582,-0.6713867,-2.5634766,0.0,0.0,0.0,21.071777,75.62439,63.20984
1766903588166,-1.0205078,0.06738281,0.17285156,2.9907227,5.004883,-0.7324219,0.0,0.0,0.0,21.071777,75.62439,63.20984
1766903588178,-1.0205078,0.06738281,0.17285156,2.9907227,5.004883,-0.7324219,0.0,0.0,0.0,20.324707,76.085815,62.336426
1766903588266,-1.1020508,0.09814453,0.203125,4.638672,27.160645,-0.4272461,0.0,0.0,0.0,20.324707,76.085815,62.336426
1766903588278,-1.1020508,0.09814453,0.203125,4.638672,27.160645,-0.4272461,0.0,0.0,0.0,23.59314,77.88757,65.45105
1766903588366,-1.0141602,-0.03564453,0.23486328,-17.456055,13.916016,6.286621,0.0,0.0,0.0,23.59314,77.88757,65.45105
1766903588377,-1.0141602,-0.03564453,0.23486328,-17.456055,13.916016,6.286621,0.0,0.0,0.0,28.383179,79.94751,70.88928
1766903588465,-0.9135742,0.08154297,0.10449219,-16.418457,27.770996,6.4086914,0.0,0.0,0.0,28.383179,79.94751,70.88928
1766903588477,-0.9135742,0.08154297,0.10449219,-16.418457,27.770996,6.4086914,0.0,0.0,0.0,34.678345,81.4032,79.80469
1766903588565,-0.94140625,0.083984375,0.15429688,-20.080566,27.09961,0.0,0.0,0.0,0.0,34.678345,81.4032,79.80469
1766903588576,-0.94140625,0.083984375,0.15429688,-20.080566,27.09961,0.0,0.0,0.0,0.0,47.301636,83.270874,95.21301
1766903588665,-0.8828125,0.18896484,0.12939453,-24.047852,-11.901855,4.3945312,0.0,0.0,0.0,47.301636,83.270874,95.21301
1766903588676,-0.8828125,0.18896484,0.12939453,-24.047852,-11.901855,4.3945312,0.0,0.0,0.0,46.829224,83.172,97.04773
1766903588764,-1.1000977,0.17919922,0.07861328,22.277832,11.291504,-11.047363,0.0,0.0,0.0,46.829224,83.172,97.04773
1766903588776,-1.1000977,0.17919922,0.07861328,22.277832,11.291504,-11.047363,0.0,0.0,0.0,45.604248,82.99072,96.05896
1766903588864,-0.9111328,0.061523438,0.0859375,-1.4038086,-21.54541,-3.6621094,0.0,0.0,0.0,45.604248,82.99072,96.05896
1766903588876,-0.9111328,0.061523438,0.0859375,-1.4038086,-21.54541,-3.6621094,0.0,0.0,0.0,38.616943,83.029175,87.55554
1766903588964,-1.0424805,0.11816406,0.057617188,8.728027,-6.225586,-3.3569336,0.0,0.0,0.0,38.616943,83.029175,87.55554
1766903588975,-1.0424805,0.11816406,0.057617188,8.728027,-6.225586,-3.3569336,0.0,0.0,0.0,33.134766,82.10632,81.82068
1766903589064,-0.99902344,0.080566406,0.0063476562,-1.4648438,-6.958008,-3.6010742,0.0,0.0,0.0,33.134766,82.10632,81.82068
1766903589075,-0.99902344,0.080566406,0.0063476562,-1.4648438,-6.958008,-3.6010742,0.0,0.0,0.0,30.552979,82.13379,78.62915
1766903589163,-0.97314453,0.04736328,-0.037597656,-1.2817383,-0.18310547,-3.6621094,0.0,0.0,0.0,30.552979,82.13379,78.62915
1766903589175,-0.97314453,0.04736328,-0.037597656,-1.2817383,-0.18310547,-3.6621094,0.0,0.0,0.0,28.520508,82.31506,76.56372
1766903589263,-1.0317383,0.071777344,-0.025390625,-1.6479492,5.6152344,-7.6904297,0.0,0.0,0.0,28.520508,82.31506,76.56372
1766903589275,-1.0317383,0.071777344,-0.025390625,-1.6479492,5.6152344,-7.6904297,0.0,0.0,0.0,28.075562,83.117065,76.4209
1766903589363,-1.0561523,0.029785156,0.14160156,5.493164,10.498047,-20.446777,0.0,0.0,0.0,28.075562,83.117065,76.4209
1766903589374,-1.0561523,0.029785156,0.14160156,5.493164,10.498047,-20.446777,0.0,0.0,0.0,22.30774,85.41321,70.13672
1766903589462,-1.0600586,0.07324219,0.1171875,9.521484,-0.79345703,-10.681152,0.0,0.0,0.0,22.30774,85.41321,70.13672
1766903589474,-1.0600586,0.07324219,0.1171875,9.521484,-0.79345703,-10.681152,0.0,0.0,0.0,0.4284668,85.69885,47.54883
1766903589562,-0.87890625,0.032714844,0.17773438,3.7841797,-3.112793,6.958008,0.0,0.0,0.0,0.4284668,85.69885,47.54883
1766903589574,-0.87890625,0.032714844,0.17773438,3.7841797,-3.112793,6.958008,0.0,0.0,0.0,5.2734375,85.616455,52.267456
1766903589662,-1.0795898,0.016601562,0.15966797,5.7373047,-1.8310547,6.7749023,0.0,0.0,0.0,5.2734375,85.616455,52.267456
1766903589673,-1.0795898,0.016601562,0.15966797,5.7373047,-1.8310547,6.7749023,0.0,0.0,0.0,12.392578,85.166016,59.694214
1766903589761,-0.9038086,-0.015625,0.12841797,8.544922,-16.662598,10.803223,0.0,0.0,0.0,12.392578,85.166016,59.694214
1766903589773,-0.9038086,-0.015625,0.12841797,8.544922,-16.662598,10.803223,0.0,0.0,0.0,20.143433,83.6499,67.35718
1766903589861,-1.0117188,0.008300781,0.115722656,9.887695,-14.709473,0.79345703,0.0,0.0,0.0,20.143433,83.6499,67.35718
1766903589873,-1.0117188,0.008300781,0.115722656,9.887695,-14.709473,0.79345703,0.0,0.0,0.0,18.28125,81.69983,65.22583
1766903589961,-1.0058594,0.019042969,0.119140625,12.756348,-9.033203,6.958008,0.0,0.0,0.0,18.28125,81.69983,65.22583
1766903589972,-1.0058594,0.019042969,0.119140625,12.756348,-9.033203,6.958008,0.0,0.0,0.0,19.182129,80.7605,65.23682
1766903590061,-0.99072266,-0.011230469,0.083984375,6.7749023,-6.3476562,5.432129,0.0,0.0,0.0,19.182129,80.7605,65.23682
1766903590072,-0.99072266,-0.011230469,0.083984375,6.7749023,-6.3476562,5.432129,0.0,0.0,0.0,21.340942,79.920044,66.9397
1766903590160,-1.0175781,0.027832031,0.08691406,-0.061035156,-1.2817383,-0.79345703,0.0,0.0,0.0,21.340942,79.920044,66.9397
1766903590173,-1.0175781,0.027832031,0.08691406,-0.061035156,-1.2817383,-0.79345703,0.0,0.0,0.0,21.044312,79.84314,66.78589
1766903590260,-1.0922852,0.06201172,0.118652344,6.652832,22.094727,-0.12207031,0.0,0.0,0.0,21.044312,79.84314,66.78589
1766903590272,-1.0922852,0.06201172,0.118652344,6.652832,22.094727,-0.12207031,0.0,0.0,0.0,22.802124,80.81543,68.5437
1766903590360,-0.99072266,0.0034179688,0.19873047,-16.662598,5.92041,6.652832,0.0,0.0,0.0,22.802124,80.81543,68.5437
1766903590372,-0.99072266,0.0034179688,0.19873047,-16.662598,5.92041,6.652832,0.0,0.0,0.0,28.608398,81.968994,75.36072
1766903590460,-1.0126953,0.08105469,0.12841797,-13.549805,8.422852,2.1972656,0.0,0.0,0.0,28.608398,81.968994,75.36072
1766903590471,-1.0126953,0.08105469,0.12841797,-13.549805,8.422852,2.1972656,0.0,0.0,0.0,29.6521,82.18323,78.810425
1766903590559,-0.93066406,0.07763672,0.16796875,-13.061523,14.587402,3.7841797,0.0,0.0,0.0,29.6521,82.18323,78.810425
1766903590571,-0.93066406,0.07763672,0.16796875,-13.061523,14.587402,3.7841797,0.0,0.0,0.0,34.34326,82.95227,84.973755
1766903590659,-0.9399414,0.17138672,0.1508789,-20.202637,-1.5258789,9.82666,0.0,0.0,0.0,34.34326,82.95227,84.973755
1766903590671,-0.9399414,0.17138672,0.1508789,-20.202637,-1.5258789,9.82666,0.0,0.0,0.0,38.336792,82.91382,90.98877
1766903590759,-0.9916992,0.16699219,0.11230469,-7.507324,6.958008,2.5634766,0.0,0.0,0.0,38.336792,82.91382,90.98877
1766903590770,-0.9916992,0.16699219,0.11230469,-7.507324,6.958008,2.5634766,0.0,0.0,0.0,41.292114,82.27661,95.597534
1766903590858,-0.95703125,0.09765625,0.10058594,-7.446289,-2.1972656,0.6713867,0.0,0.0,0.0,41.292114,82.27661,95.597534
1766903590870,-0.95703125,0.09765625,0.10058594,-7.446289,-2.1972656,0.6713867,0.0,0.0,0.0,44.802246,82.23816,99.574585
1766903590958,-0.9741211,0.17626953,0.045898438,-12.268066,-15.441895,4.333496,0.0,0.0,0.0,44.802246,82.23816,99.574585
1766903590970,-0.9741211,0.17626953,0.045898438,-12.268066,-15.441895,4.333496,0.0,0.0,0.0,39.995728,81.1615,95.57556
1766903591058,-1.0039062,0.119140625,0.061035156,8.483887,-6.7749023,-3.112793,0.0,0.0,0.0,39.995728,81.1615,95.57556
1766903591069,-1.0039062,0.119140625,0.061035156,8.483887,-6.7749023,-3.112793,0.0,0.0,0.0,38.512573,80.36499,93.38928
1766903591158,-0.9946289,0.10498047,0.0068359375,3.1738281,-9.765625,-4.3945312,0.0,0.0,0.0,38.512573,80.36499,93.38928
1766903591169,-0.9946289,0.10498047,0.0068359375,3.1738281,-9.765625,-4.3945312,0.0,0.0,0.0,35.22766,80.05188,89.09363
1766903591257,-1.0078125,0.10986328,0.010253906,3.1738281,3.540039,-4.9438477,0.0,0.0,0.0,35.22766,80.05188,89.09363
1766903591269,-1.0078125,0.10986328,0.010253906,3.1738281,3.540039,-4.9438477,0.0,0.0,0.0,33.728027,80.01343,86.89636
1766903591357,-1.1191406,0.080566406,0.06347656,-0.7324219,11.71875,-15.136719,0.0,0.0,0.0,33.728027,80.01343,86.89636
1766903591369,-1.1191406,0.080566406,0.06347656,-0.7324219,11.71875,-15.136719,0.0,0.0,0.0,32.947998,81.47461,85.12756
1766903591457,-0.9584961,0.08154297,0.17138672,11.047363,-1.6479492,-12.329102,0.0,0.0,0.0,32.947998,81.47461,85.12756
1766903591469,-0.9584961,0.08154297,0.17138672,11.047363,-1.6479492,-12.329102,0.0,0.0,0.0,26.938477,83.00171,77.942505
1766903591556,-0.8754883,0.123046875,0.21142578,6.4697266,-5.3100586,2.6855469,0.0,0.0,0.0,26.938477,83.00171,77.942505
1766903591568,-0.8754883,0.123046875,0.21142578,6.4697266,-5.3100586,2.6855469,0.0,0.0,0.0,23.05481,82.64465,73.2074
1766903591656,-1.0112305,-0.05029297,0.17626953,-1.159668,-8.728027,3.1738281,0.0,0.0,0.0,23.05481,82.64465,73.2074
1766903591668,-1.0112305,-0.05029297,0.17626953,-1.159668,-8.728027,3.1738281,0.0,0.0,0.0,27.350464,81.45813,76.28906
1766903591756,-1.0004883,0.12597656,0.20410156,6.4086914,-20.874023,7.2631836,0.0,0.0,0.0,27.350464,81.45813,76.28906
1766903591767,-1.0004883,0.12597656,0.20410156,6.4086914,-20.874023,7.2631836,0.0,0.0,0.0,24.290771,80.31006,73.31177
1766903591856,-0.9863281,-0.022460938,0.15576172,10.437012,-13.549805,14.282227,0.0,0.0,0.0,24.290771,80.31006,73.31177
1766903591867,-0.9863281,-0.022460938,0.15576172,10.437012,-13.549805,14.282227,0.0,0.0,0.0,27.745972,78.06885,75.49805
1766903591955,-0.9638672,0.10644531,0.21240234,5.432129,-13.366699,0.91552734,0.0,0.0,0.0,27.745972,78.06885,75.49805
1766903591967,-0.9638672,0.10644531,0.21240234,5.432129,-13.366699,0.91552734,0.0,0.0,0.0,27.196655,76.87683,75.00366
1766903592055,-1.0092773,0.068359375,0.13183594,16.662598,-10.7421875,7.2021484,0.0,0.0,0.0,27.196655,76.87683,75.00366
1766903592067,-1.0092773,0.068359375,0.13183594,16.662598,-10.7421875,7.2021484,0.0,0.0,0.0,26.817627,75.57495,73.80066
1766903592155,-0.9707031,0.022460938,0.1796875,6.591797,4.272461,-3.2348633,0.0,0.0,0.0,26.817627,75.57495,73.80066
1766903592166,-0.9707031,0.022460938,0.1796875,6.591797,4.272461,-3.2348633,0.0,0.0,0.0,28.432617,75.92651,74.2511
1766903592254,-1.0200195,0.09082031,0.14501953,-0.18310547,7.385254,-1.0375977,0.0,0.0,0.0,28.432617,75.92651,74.2511
1766903592266,-1.0200195,0.09082031,0.14501953,-0.18310547,7.385254,-1.0375977,0.0,0.0,0.0,28.432617,76.53076,74.79492
1766903592354,-1.0668945,0.09375,0.23046875,6.4086914,24.169922,2.1362305,0.0,0.0,0.0,28.432617,76.53076,74.79492
1766903592366,-1.0668945,0.09375,0.23046875,6.4086914,24.169922,2.1362305,0.0,0.0,0.0,32.920532,78.16223,79.26636
1766903592454,-0.95166016,0.040039062,0.17041016,-33.203125,0.9765625,12.390137,0.0,0.0,0.0,32.920532,78.16223,79.26636
1766903592466,-0.95166016,0.040039062,0.17041016,-33.203125,0.9765625,12.390137,0.0,0.0,0.0,37.364502,78.84338,85.24841
1766903592554,-0.9428711,0.12548828,0.16210938,-2.319336,27.770996,-1.8920898,0.0,0.0,0.0,37.364502,78.84338,85.24841
1766903592566,-0.9428711,0.12548828,0.16210938,-2.319336,27.770996,-1.8920898,0.0,0.0,0.0,42.06665,80.01343,92.36206
1766903592653,-0.95947266,0.1538086,0.16210938,-25.08545,11.962891,1.159668,0.0,0.0,0.0,42.06665,80.01343,92.36206
1766903592665,-0.95947266,0.1538086,0.16210938,-25.08545,11.962891,1.159668,0.0,0.0,0.0,48.916626,81.37573,100.876465
1766903592753,-0.91796875,0.20214844,0.16894531,-6.5307617,0.8544922,-1.7089844,0.0,0.0,0.0,48.916626,81.37573,100.876465
1766903592765,-0.91796875,0.20214844,0.16894531,-6.5307617,0.8544922,-1.7089844,0.0,0.0,0.0,49.092407,81.67236,102.370605
1766903592853,-1.0493164,0.1796875,0.11328125,8.056641,6.3476562,-5.859375,0.0,0.0,0.0,49.092407,81.67236,102.370605
1766903592864,-1.0493164,0.1796875,0.11328125,8.056641,6.3476562,-5.859375,0.0,0.0,0.0,47.9718,81.34827,101.66199
1766903592953,-0.92822266,0.083984375,0.10449219,1.7700195,-11.474609,-4.8828125,0.0,0.0,0.0,47.9718,81.34827,101.66199
1766903592964,-0.92822266,0.083984375,0.10449219,1.7700195,-11.474609,-4.8828125,0.0,0.0,0.0,45.093384,81.90857,97.09717
1766903593052,-1.0195312,0.16210938,0.048828125,0.91552734,-4.9438477,-1.953125,0.0,0.0,0.0,45.093384,81.90857,97.09717
1766903593064,-1.0195312,0.16210938,0.048828125,0.91552734,-4.9438477,-1.953125,0.0,0.0,0.0,40.0177,81.07361,92.58728
1766903593152,-0.9941406,0.09375,0.041992188,5.92041,-3.9672852,-3.2348633,0.0,0.0,0.0,40.0177,81.07361,92.58728
1766903593163,-0.9941406,0.09375,0.041992188,5.92041,-3.9672852,-3.2348633,0.0,0.0,0.0,38.842163,81.31531,90.285645
1766903593252,-0.9692383,0.09814453,-0.0063476562,-0.061035156,-5.79834,-0.9765625,0.0,0.0,0.0,38.842163,81.31531,90.285645
1766903593263,-0.9692383,0.09814453,-0.0063476562,-0.061035156,-5.79834,-0.9765625,0.0,0.0,0.0,36.94153,80.930786,88.33008
1766903593351,-1.0229492,0.080078125,0.0107421875,1.7700195,3.6621094,-2.4414062,0.0,0.0,0.0,36.94153,80.930786,88.33008
1766903593363,-1.0229492,0.080078125,0.0107421875,1.7700195,3.6621094,-2.4414062,0.0,0.0,0.0,37.83142,81.06262,88.758545
1766903593451,-1.1225586,0.092285156,0.008300781,4.760742,19.53125,-16.662598,0.0,0.0,0.0,37.83142,81.06262,88.758545
1766903593463,-1.1225586,0.092285156,0.008300781,4.760742,19.53125,-16.662598,0.0,0.0,0.0,38.007202,82.803955,88.26965
1766903593551,-0.95654297,0.072753906,0.16601562,13.793945,-0.9765625,-16.479492,0.0,0.0,0.0,38.007202,82.803955,88.26965
1766903593562,-0.95654297,0.072753906,0.16601562,13.793945,-0.9765625,-16.479492,0.0,0.0,0.0,32.60742,84.77051,81.11755
1766903593651,-0.9370117,0.06201172,0.15039062,16.967773,1.3427734,-5.859375,0.0,0.0,0.0,32.60742,84.77051,81.11755
1766903593662,-0.9370117,0.06201172,0.15039062,16.967773,1.3427734,-5.859375,0.0,0.0,0.0,25.153198,85.36377,71.78467
1766903593750,-0.93603516,-0.04736328,0.15917969,1.0986328,-2.9296875,0.7324219,0.0,0.0,0.0,25.153198,85.36377,71.78467
1766903593762,-0.93603516,-0.04736328,0.15917969,1.0986328,-2.9296875,0.7324219,0.0,0.0,0.0,23.197632,84.97925,69.88403
1766903593850,-1.0356445,0.037109375,0.15039062,-6.652832,-13.244629,9.765625,0.0,0.0,0.0,23.197632,84.97925,69.88403
1766903593862,-1.0356445,0.037109375,0.15039062,-6.652832,-13.244629,9.765625,0.0,0.0,0.0,23.950195,83.87512,71.70227
1766903593950,-0.93408203,0.018554688,0.103515625,-9.94873,-18.310547,16.967773,0.0,0.0,0.0,23.950195,83.87512,71.70227
1766903593961,-0.93408203,0.018554688,0.103515625,-9.94873,-18.310547,16.967773,0.0,0.0,0.0,26.872559,81.639404,76.04187
1766903594050,-1.0083008,0.022460938,0.14501953,-5.92041,-11.779785,8.7890625,0.0,0.0,0.0,26.872559,81.639404,76.04187
1766903594061,-1.0083008,0.022460938,0.14501953,-5.92041,-11.779785,8.7890625,0.0,0.0,0.0,27.998657,79.73328,78.20068
1766903594149,-1.0258789,0.08203125,0.10546875,-0.61035156,-5.7373047,5.493164,0.0,0.0,0.0,27.998657,79.73328,78.20068
1766903594161,-1.0258789,0.08203125,0.10546875,-0.61035156,-5.7373047,5.493164,0.0,0.0,0.0,27.993164,78.69507,78.480835
1766903594249,-1.0,0.028808594,0.13720703,4.4555664,6.5307617,-1.0986328,0.0,0.0,0.0,27.993164,78.69507,78.480835
1766903594260,-1.0,0.028808594,0.13720703,4.4555664,6.5307617,-1.0986328,0.0,0.0,0.0,29.75647,79.16199,79.43115
1766903594349,-1.0380859,0.053710938,0.09033203,5.7373047,14.038086,-1.8310547,0.0,0.0,0.0,29.75647,79.16199,79.43115
1766903594360,-1.0380859,0.053710938,0.09033203,5.7373047,14.038086,-1.8310547,0.0,0.0,0.0,32.574463,80.18921,82.01843
1766903594448,-1.105957,0.088378906,0.17236328,15.563965,26.794434,-2.746582,0.0,0.0,0.0,32.574463,80.18921,82.01843
1766903594460,-1.105957,0.088378906,0.17236328,15.563965,26.794434,-2.746582,0.0,0.0,0.0,40.495605,82.18872,89.42871
1766903594548,-0.8911133,0.0053710938,0.07373047,-20.446777,4.0283203,1.7700195,0.0,0.0,0.0,40.495605,82.18872,89.42871
1766903594560,-0.8911133,0.0053710938,0.07373047,-20.446777,4.0283203,1.7700195,0.0,0.0,0.0,43.61023,83.0072,93.603516
1766903594648,-0.98828125,0.09716797,0.11230469,-17.578125,13.85498,-2.0751953,0.0,0.0,0.0,43.61023,83.0072,93.603516
1766903594660,-0.98828125,0.09716797,0.11230469,-17.578125,13.85498,-2.0751953,0.0,0.0,0.0,45.653687,83.85864,97.959595
1766903594748,-0.9458008,0.16357422,0.12109375,-21.66748,4.699707,3.1738281,0.0,0.0,0.0,45.653687,83.85864,97.959595
1766903594759,-0.9458008,0.16357422,0.12109375,-21.66748,4.699707,3.1738281,0.0,0.0,0.0,51.09192,84.55078,105.633545
1766903594847,-0.9296875,0.17333984,0.08935547,-4.9438477,-0.30517578,-0.79345703,0.0,0.0,0.0,51.09192,84.55078,105.633545
1766903594859,-0.9296875,0.17333984,0.08935547,-4.9438477,-0.30517578,-0.79345703,0.0,0.0,0.0,50.723877,84.03992,106.693726
1766903594947,-1.0737305,0.11767578,0.08544922,19.40918,7.5683594,-6.8359375,0.0,0.0,0.0,50.723877,84.03992,106.693726
1766903594959,-1.0737305,0.11767578,0.08544922,19.40918,7.5683594,-6.8359375,0.0,0.0,0.0,53.294678,84.02344,108.71521
1766903595047,-0.9189453,0.11279297,0.053222656,-8.605957,-21.972656,2.0751953,0.0,0.0,0.0,53.294678,84.02344,108.71521
1766903595058,-0.9189453,0.11279297,0.053222656,-8.605957,-21.972656,2.0751953,0.0,0.0,0.0,46.862183,83.73779,100.81055
1766903595146,-1.0263672,0.11328125,0.014160156,17.211914,-0.4272461,-1.159668,0.0,0.0,0.0,46.862183,83.73779,100.81055
1766903595158,-1.0263672,0.11328125,0.014160156,17.211914,-0.4272461,-1.159668,0.0,0.0,0.0,43.500366,82.6886,97.19055
1766903595246,-1.0029297,0.08105469,-0.0029296875,-3.112793,-5.004883,-0.5493164,0.0,0.0,0.0,43.500366,82.6886,97.19055
1766903595258,-1.0029297,0.08105469,-0.0029296875,-3.112793,-5.004883,-0.5493164,0.0,0.0,0.0,44.467163,82.67761,97.45422
1766903595346,-0.9838867,0.091308594,-0.06738281,-6.286621,-2.4414062,-0.4272461,0.0,0.0,0.0,44.467163,82.67761,97.45422
1766903595358,-0.9838867,0.091308594,-0.06738281,-6.286621,-2.4414062,-0.4272461,0.0,0.0,0.0,43.41797,82.56775,96.63025
1766903595446,-1.0078125,0.10498047,-0.03515625,-3.540039,1.7700195,-0.7324219,0.0,0.0,0.0,43.41797,82.56775,96.63025
1766903595457,-1.0078125,0.10498047,-0.03515625,-3.540039,1.7700195,-0.7324219,0.0,0.0,0.0,45.461426,82.70508,99.10217
1766903595545,-1.1088867,0.053710938,0.027832031,14.526367,15.869141,-19.40918,0.0,0.0,0.0,45.461426,82.70508,99.10217
1766903595557,-1.1088867,0.053710938,0.027832031,14.526367,15.869141,-19.40918,0.0,0.0,0.0,48.032227,83.95203,101.10718
1766903595645,-1.0458984,0.08251953,0.12451172,15.625,-5.2490234,-11.962891,0.0,0.0,0.0,48.032227,83.95203,101.10718
1766903595657,-1.0458984,0.08251953,0.12451172,15.625,-5.2490234,-11.962891,0.0,0.0,0.0,39.1333,85.30884,90.928345
1766903595745,-0.8491211,0.05810547,0.16015625,-3.540039,1.5869141,4.5166016,0.0,0.0,0.0,39.1333,85.30884,90.928345
1766903595756,-0.8491211,0.05810547,0.16015625,-3.540039,1.5869141,4.5166016,0.0,0.0,0.0,34.502563,85.65491,85.02869
1766903595845,-1.0522461,0.0014648438,0.1459961,-0.9765625,-4.333496,-0.12207031,0.0,0.0,0.0,34.502563,85.65491,85.02869
1766903595856,-1.0522461,0.0014648438,0.1459961,-0.9765625,-4.333496,-0.12207031,0.0,0.0,0.0,32.387695,85.045166,83.56201
1766903595944,-0.94873047,0.076171875,0.13183594,-1.2817383,-12.573242,10.437012,0.0,0.0,0.0,32.387695,85.045166,83.56201
1766903595956,-0.94873047,0.076171875,0.13183594,-1.2817383,-12.573242,10.437012,0.0,0.0,0.0,30.371704,84.2926,81.89209
1766903596044,-0.9921875,-0.016113281,0.08300781,0.48828125,-14.953613,6.225586,0.0,0.0,0.0,30.371704,84.2926,81.89209
1766903596056,-0.9921875,-0.016113281,0.08300781,0.48828125,-14.953613,6.225586,0.0,0.0,0.0,30.393677,82.03491,82.3645
1766903596144,-1.0,0.03857422,0.13916016,6.8969727,-5.6762695,4.5776367,0.0,0.0,0.0,30.393677,82.03491,82.3645
1766903596156,-1.0,0.03857422,0.13916016,6.8969727,-5.6762695,4.5776367,0.0,0.0,0.0,30.17395,81.47461,81.94702
1766903596243,-1.0195312,0.05126953,0.08544922,0.0,-17.211914,10.498047,0.0,0.0,0.0,30.17395,81.47461,81.94702
1766903596255,-1.0195312,0.05126953,0.08544922,0.0,-17.211914,10.498047,0.0,0.0,0.0,29.371948,79.88159,80.980225
1766903596343,-0.9926758,0.033691406,0.14111328,0.8544922,-1.2817383,-0.7324219,0.0,0.0,0.0,29.371948,79.88159,80.980225
1766903596355,-0.9926758,0.033691406,0.14111328,0.8544922,-1.2817383,-0.7324219,0.0,0.0,0.0,30.020142,79.18396,81.67236
1766903596443,-1.0317383,0.05029297,0.11230469,-5.065918,3.0517578,3.3569336,0.0,0.0,0.0,30.020142,79.18396,81.67236
1766903596454,-1.0317383,0.05029297,0.11230469,-5.065918,3.0517578,3.3569336,0.0,0.0,0.0,29.816895,79.32129,81.798706
1766903596543,-1.0913086,0.09765625,0.21289062,-1.0375977,15.380859,1.5258789,0.0,0.0,0.0,29.816895,79.32129,81.798706
1766903596554,-1.0913086,0.09765625,0.21289062,-1.0375977,15.380859,1.5258789,0.0,0.0,0.0,33.859863,80.48035,86.18225
1766903596642,-0.92285156,0.025390625,0.11279297,-19.53125,12.512207,1.8920898,0.0,0.0,0.0,33.859863,80.48035,86.18225
1766903596654,-0.92285156,0.025390625,0.11279297,-19.53125,12.512207,1.8920898,0.0,0.0,0.0,36.90857,81.364746,90.45593
1766903596742,-0.9458008,0.114746094,0.12402344,-18.676758,13.244629,5.1879883,0.0,0.0,0.0,36.90857,81.364746,90.45593
1766903596754,-0.9458008,0.114746094,0.12402344,-18.676758,13.244629,5.1879883,0.0,0.0,0.0,42.835693,82.27661,98.42102
1766903596842,-0.91796875,0.15966797,0.15185547,-13.85498,4.5776367,0.9765625,0.0,0.0,0.0,42.835693,82.27661,98.42102
1766903596854,-0.91796875,0.15966797,0.15185547,-13.85498,4.5776367,0.9765625,0.0,0.0,0.0,47.51587,82.55127,104.97986
1766903596942,-0.9301758,0.22216797,0.14941406,-10.437012,-7.6904297,2.380371,0.0,0.0,0.0,47.51587,82.55127,104.97986
1766903596953,-0.9301758,0.22216797,0.14941406,-10.437012,-7.6904297,2.380371,0.0,0.0,0.0,44.818726,81.82068,103.16162
1766903597041,-1.0551758,0.103027344,0.14111328,16.906738,-0.61035156,-4.9438477,0.0,0.0,0.0,44.818726,81.82068,103.16162
1766903597053,-1.0551758,0.103027344,0.14111328,16.906738,-0.61035156,-4.9438477,0.0,0.0,0.0,44.08264,81.17798,101.744385
1766903597141,-0.9404297,0.18554688,0.07714844,-6.8969727,-16.967773,2.1362305,0.0,0.0,0.0,44.08264,81.17798,101.744385
1766903597153,-0.9404297,0.18554688,0.07714844,-6.8969727,-16.967773,2.1362305,0.0,0.0,0.0,38.26538,80.441895,95.09216
1766903597241,-1.0507812,0.09814453,0.07421875,12.451172,-3.112793,0.18310547,0.0,0.0,0.0,38.26538,80.441895,95.09216
1766903597252,-1.0507812,0.09814453,0.07421875,12.451172,-3.112793,0.18310547,0.0,0.0,0.0,39.02893,79.51355,94.80652
1766903597340,-0.9892578,0.11035156,0.040527344,1.8920898,-6.3476562,-5.3100586,0.0,0.0,0.0,39.02893,79.51355,94.80652
1766903597352,-0.9892578,0.11035156,0.040527344,1.8920898,-6.3476562,-5.3100586,0.0,0.0,0.0,36.1615,79.766235,90.53284
1766903597440,-0.9970703,0.11621094,-0.0034179688,13.549805,2.1972656,-9.216309,0.0,0.0,0.0,36.1615,79.766235,90.53284
1766903597452,-0.9970703,0.11621094,-0.0034179688,13.549805,2.1972656,-9.216309,0.0,0.0,0.0,34.557495,80.233154,87.69287
1766903597540,-1.0366211,0.0625,0.018554688,4.3945312,5.432129,-8.911133,0.0,0.0,0.0,34.557495,80.233154,87.69287
1766903597552,-1.0366211,0.0625,0.018554688,4.3945312,5.432129,-8.911133,0.0,0.0,0.0,34.920044,81.38672,86.45691
1766903597640,-1.0332031,0.119140625,0.11279297,16.113281,13.305664,-22.094727,0.0,0.0,0.0,34.920044,81.38672,86.45691
1766903597652,-1.0332031,0.119140625,0.11279297,16.113281,13.305664,-22.094727,0.0,0.0,0.0,31.5802,83.743286,81.968994
1766903597739,-1.0302734,0.036621094,0.16992188,21.728516,11.230469,-14.953613,0.0,0.0,0.0,31.5802,83.743286,81.968994
1766903597751,-1.0302734,0.036621094,0.16992188,21.728516,11.230469,-14.953613,0.0,0.0,0.0,22.241821,85.56702,70.48828
1766903597839,-0.8779297,0.026367188,0.15576172,3.2348633,-1.7089844,-2.6855469,0.0,0.0,0.0,22.241821,85.56702,70.48828
1766903597851,-0.8779297,0.026367188,0.15576172,3.2348633,-1.7089844,-2.6855469,0.0,0.0,0.0,16.671753,85.7428,64.59412
1766903597939,-1.0742188,0.011230469,0.16503906,5.3100586,-3.6621094,0.12207031,0.0,0.0,0.0,16.671753,85.7428,64.59412
1766903597950,-1.0742188,0.011230469,0.16503906,5.3100586,-3.6621094,0.12207031,0.0,0.0,0.0,14.463501,85.28137,62.682495
1766903598038,-0.9248047,0.020019531,0.106933594,3.540039,-15.808105,11.962891,0.0,0.0,0.0,14.463501,85.28137,62.682495
1766903598050,-0.9248047,0.020019531,0.106933594,3.540039,-15.808105,11.962891,0.0,0.0,0.0,17.687988,83.62793,66.08276
1766903598138,-1.0087891,-0.013671875,0.10839844,7.5683594,-6.958008,0.6713867,0.0,0.0,0.0,17.687988,83.62793,66.08276
1766903598150,-1.0087891,-0.013671875,0.10839844,7.5683594,-6.958008,0.6713867,0.0,0.0,0.0,19.335938,82.13928,67.63733
1766903598238,-0.9316406,0.03857422,0.078125,11.413574,-15.319824,5.126953,0.0,0.0,0.0,19.335938,82.13928,67.63733
1766903598249,-0.9316406,0.03857422,0.078125,11.413574,-15.319824,5.126953,0.0,0.0,0.0,18.028564,81.35376,65.44556
1766903598338,-1.0249023,-0.044433594,0.09667969,2.9296875,0.30517578,0.5493164,0.0,0.0,0.0,18.028564,81.35376,65.44556
1766903598349,-1.0249023,-0.044433594,0.09667969,2.9296875,0.30517578,0.5493164,0.0,0.0,0.0,21.621094,79.75525,69.625854
1766903598437,-0.98779297,0.053710938,0.12890625,-3.2958984,1.0375977,5.432129,0.0,0.0,0.0,21.621094,79.75525,69.625854
1766903598449,-0.98779297,0.053710938,0.12890625,-3.2958984,1.0375977,5.432129,0.0,0.0,0.0,21.373901,80.06836,69.417114
1766903598537,-1.1479492,0.04296875,0.11230469,-0.061035156,22.277832,0.30517578,0.0,0.0,0.0,21.373901,80.06836,69.417114
1766903598549,-1.1479492,0.04296875,0.11230469,-0.061035156,22.277832,0.30517578,0.0,0.0,0.0,26.647339,81.188965,75.09155
1766903598637,-0.9902344,0.016113281,0.18066406,-22.888184,0.18310547,10.192871,0.0,0.0,0.0,26.647339,81.188965,75.09155
1766903598648,-0.9902344,0.016113281,0.18066406,-22.888184,0.18310547,10.192871,0.0,0.0,0.0,32.60193,82.353516,82.39746
1766903598737,-0.9316406,0.083984375,0.10498047,-14.892578,19.348145,5.6152344,0.0,0.0,0.0,32.60193,82.353516,82.39746
1766903598748,-0.9316406,0.083984375,0.10498047,-14.892578,19.348145,5.6152344,0.0,0.0,0.0,38.358765,82.58972,90.81848
1766903598836,-0.9736328,0.107421875,0.14941406,-21.1792,15.930176,4.333496,0.0,0.0,0.0,38.358765,82.58972,90.81848
1766903598848,-0.9736328,0.107421875,0.14941406,-21.1792,15.930176,4.333496,0.0,0.0,0.0,49.691162,83.62244,103.930664
1766903598936,-0.88916016,0.15820312,0.14160156,-13.977051,2.8076172,0.5493164,0.0,0.0,0.0,49.691162,83.62244,103.930664
1766903598948,-0.88916016,0.15820312,0.14160156,-13.977051,2.8076172,0.5493164,0.0,0.0,0.0,56.173096,83.62793,112.55493
1766903599036,-1.1010742,0.20800781,0.07861328,-8.056641,5.126953,1.7700195,0.0,0.0,0.0,56.173096,83.62793,112.55493
1766903599047,-1.1010742,0.20800781,0.07861328,-8.056641,5.126953,1.7700195,0.0,0.0,0.0,55.97534,83.09509,113.91174
1766903599135,-0.9042969,0.1171875,0.057617188,3.6010742,-5.126953,-5.7373047,0.0,0.0,0.0,55.97534,83.09509,113.91174
1766903599147,-0.9042969,0.1171875,0.057617188,3.6010742,-5.126953,-5.7373047,0.0,0.0,0.0,57.716675,83.8916,114.16992
1766903599235,-1.0244141,0.12890625,0.012207031,0.4272461,-4.9438477,0.79345703,0.0,0.0,0.0,57.716675,83.8916,114.16992
1766903599247,-1.0244141,0.12890625,0.012207031,0.4272461,-4.9438477,0.79345703,0.0,0.0,0.0,50.976562,82.941284,108.10547
1766903599335,-1.0126953,0.080078125,-0.010253906,5.432129,-6.7749023,-2.8686523,0.0,0.0,0.0,50.976562,82.941284,108.10547
1766903599346,-1.0126953,0.080078125,-0.010253906,5.432129,-6.7749023,-2.8686523,0.0,0.0,0.0,49.768066,82.7655,105.963135
1766903599435,-0.9765625,0.10107422,-0.041015625,1.2817383,-4.1503906,-2.6855469,0.0,0.0,0.0,49.768066,82.7655,105.963135
1766903599447,-0.9765625,0.10107422,-0.041015625,1.2817383,-4.1503906,-2.6855469,0.0,0.0,0.0,46.087646,82.562256,101.43677
1766903599534,-1.0366211,0.096191406,-0.008300781,6.8359375,3.6621094,-8.056641,0.0,0.0,0.0,46.087646,82.562256,101.43677
1766903599546,-1.0366211,0.096191406,-0.008300781,6.8359375,3.6621094,-8.056641,0.0,0.0,0.0,46.104126,83.15552,100.37659
1766903599634,-1.0444336,0.07470703,0.03125,21.850586,15.258789,-20.874023,0.0,0.0,0.0,46.104126,83.15552,100.37659
1766903599646,-1.0444336,0.07470703,0.03125,21.850586,15.258789,-20.874023,0.0,0.0,0.0,47.21924,84.97925,99.975586
1766903599734,-1.0039062,0.057128906,0.11279297,27.526855,7.5683594,-15.319824,0.0,0.0,0.0,47.21924,84.97925,99.975586
1766903599745,-1.0039062,0.057128906,0.11279297,27.526855,7.5683594,-15.319824,0.0,0.0,0.0,38.062134,86.901855,88.220215
1766903599833,-0.92333984,0.053222656,0.12109375,13.244629,3.1738281,-6.164551,0.0,0.0,0.0,38.062134,86.901855,88.220215
1766903599845,-0.92333984,0.053222656,0.12109375,13.244629,3.1738281,-6.164551,0.0,0.0,0.0,23.296509,88.06091,71.74072
1766903599933,-0.99853516,-0.028320312,0.104003906,2.1972656,-6.7749023,4.5166016,0.0,0.0,0.0,23.296509,88.06091,71.74072
1766903599945,-0.99853516,-0.028320312,0.104003906,2.1972656,-6.7749023,4.5166016,0.0,0.0,0.0,23.461304,87.68738,71.779175
1766903600033,-0.95654297,0.029785156,0.109375,7.2631836,-17.333984,11.230469,0.0,0.0,0.0,23.461304,87.68738,71.779175
1766903600044,-0.95654297,0.029785156,0.109375,7.2631836,-17.333984,11.230469,0.0,0.0,0.0,24.120483,86.484375,72.50427
1766903600133,-0.99365234,-0.06933594,0.05859375,0.4272461,-21.606445,8.422852,0.0,0.0,0.0,24.120483,86.484375,72.50427
1766903600144,-0.99365234,-0.06933594,0.05859375,0.4272461,-21.606445,8.422852,0.0,0.0,0.0,25.86731,83.73779,74.833374
1766903600232,-1.0141602,0.032226562,0.10595703,3.540039,-12.756348,5.79834,0.0,0.0,0.0,25.86731,83.73779,74.833374
1766903600244,-1.0141602,0.032226562,0.10595703,3.540039,-12.756348,5.79834,0.0,0.0,0.0,23.746948,82.57324,73.14697
1766903600332,-1.0102539,0.01953125,0.026855469,1.5258789,-16.235352,8.605957,0.0,0.0,0.0,23.746948,82.57324,73.14697
1766903600344,-1.0102539,0.01953125,0.026855469,1.5258789,-16.235352,8.605957,0.0,0.0,0.0,23.692017,80.92529,73.39966
1766903600432,-0.9868164,0.005859375,0.10253906,-3.0517578,-4.272461,6.286621,0.0,0.0,0.0,23.692017,80.92529,73.39966
1766903600443,-0.9868164,0.005859375,0.10253906,-3.0517578,-4.272461,6.286621,0.0,0.0,0.0,24.988403,80.441895,74.98169
1766903600532,-1.0825195,0.064453125,0.12939453,-6.591797,8.361816,5.859375,0.0,0.0,0.0,24.988403,80.441895,74.98169
1766903600543,-1.0825195,0.064453125,0.12939453,-6.591797,8.361816,5.859375,0.0,0.0,0.0,28.031616,80.24963,78.85986
1766903600631,-1.0581055,0.07714844,0.24023438,-19.104004,6.286621,10.986328,0.0,0.0,0.0,28.031616,80.24963,78.85986
1766903600643,-1.0581055,0.07714844,0.24023438,-19.104004,6.286621,10.986328,0.0,0.0,0.0,33.535767,80.64514,85.858154
1766903600731,-0.96875,0.096191406,0.12939453,-19.836426,14.831543,5.859375,0.0,0.0,0.0,33.535767,80.64514,85.858154
1766903600742,-0.96875,0.096191406,0.12939453,-19.836426,14.831543,5.859375,0.0,0.0,0.0,36.66687,80.73303,91.52161
1766903600831,-0.92333984,0.111816406,0.20800781,-20.080566,16.723633,6.4086914,0.0,0.0,0.0,36.66687,80.73303,91.52161
1766903600842,-0.92333984,0.111816406,0.20800781,-20.080566,16.723633,6.4086914,0.0,0.0,0.0,45.78003,81.727295,101.85974
1766903600930,-0.91796875,0.20605469,0.14550781,-17.944336,7.385254,1.7700195,0.0,0.0,0.0,45.78003,81.727295,101.85974
1766903600942,-0.91796875,0.20605469,0.14550781,-17.944336,7.385254,1.7700195,0.0,0.0,0.0,49.141846,81.67236,107.25952
1766903601030,-1.050293,0.1586914,0.15332031,-7.446289,2.746582,0.12207031,0.0,0.0,0.0,49.141846,81.67236,107.25952
1766903601042,-1.050293,0.1586914,0.15332031,-7.446289,2.746582,0.12207031,0.0,0.0,0.0,50.333862,81.743774,108.82507
1766903601130,-0.95458984,0.10546875,0.10205078,-13.549805,-4.4555664,-6.713867,0.0,0.0,0.0,50.333862,81.743774,108.82507
1766903601141,-0.95458984,0.10546875,0.10205078,-13.549805,-4.4555664,-6.713867,0.0,0.0,0.0,47.131348,81.73279,106.073
1766903601230,-0.9921875,0.17529297,0.0703125,-13.366699,-3.7841797,3.6010742,0.0,0.0,0.0,47.131348,81.73279,106.073
1766903601241,-0.9921875,0.17529297,0.0703125,-13.366699,-3.7841797,3.6010742,0.0,0.0,0.0,42.720337,81.09009,103.046265
1766903601329,-0.99609375,0.14648438,0.029785156,0.5493164,-1.3427734,-3.2348633,0.0,0.0,0.0,42.720337,81.09009,103.046265
1766903601341,-0.99609375,0.14648438,0.029785156,0.5493164,-1.3427734,-3.2348633,0.0,0.0,0.0,42.225952,80.947266,102.073975
1766903601429,-0.9941406,0.09716797,-0.024902344,16.967773,0.12207031,-5.2490234,0.0,0.0,0.0,42.225952,80.947266,102.073975
1766903601441,-0.9941406,0.09716797,-0.024902344,16.967773,0.12207031,-5.2490234,0.0,0.0,0.0,43.148804,81.31531,101.1676
1766903601529,-0.9814453,0.12158203,-0.023925781,9.765625,1.159668,-0.24414062,0.0,0.0,0.0,43.148804,81.31531,101.1676
1766903601540,-0.9814453,0.12158203,-0.023925781,9.765625,1.159668,-0.24414062,0.0,0.0,0.0,45.148315,81.727295,101.49719
1766903601628,-1.0771484,0.07519531,-0.0073242188,23.986816,15.930176,-11.474609,0.0,0.0,0.0,45.148315,81.727295,101.49719
1766903601640,-1.0771484,0.07519531,-0.0073242188,23.986816,15.930176,-11.474609,0.0,0.0,0.0,51.37207,82.84241,105.545654
1766903601728,-0.9584961,0.060058594,0.14453125,22.705078,0.0,-20.935059,0.0,0.0,0.0,51.37207,82.84241,105.545654
1766903601740,-0.9584961,0.060058594,0.14453125,22.705078,0.0,-20.935059,0.0,0.0,0.0,49.976807,84.869385,101.57959
1766903601828,-1.1025391,0.071777344,0.11767578,18.005371,8.056641,-15.014648,0.0,0.0,0.0,49.976807,84.869385,101.57959
1766903601840,-1.1025391,0.071777344,0.11767578,18.005371,8.056641,-15.014648,0.0,0.0,0.0,36.084595,86.49536,85.74829
1766903601927,-0.8647461,0.018066406,0.15039062,2.380371,-1.5869141,-5.7373047,0.0,0.0,0.0,36.084595,86.49536,85.74829
1766903601940,-0.8647461,0.018066406,0.15039062,2.380371,-1.5869141,-5.7373047,0.0,0.0,0.0,27.965698,86.76453,77.57446
1766903602027,-1.1010742,0.014160156,0.11767578,-0.6713867,0.5493164,-1.2207031,0.0,0.0,0.0,27.965698,86.76453,77.57446
1766903602039,-1.1010742,0.014160156,0.11767578,-0.6713867,0.5493164,-1.2207031,0.0,0.0,0.0,25.697021,86.34155,76.102295
1766903602127,-0.9042969,0.0107421875,0.10595703,-8.300781,-13.61084,9.887695,0.0,0.0,0.0,25.697021,86.34155,76.102295
1766903602139,-0.9042969,0.0107421875,0.10595703,-8.300781,-13.61084,9.887695,0.0,0.0,0.0,25.828857,85.391235,76.937256
1766903602227,-1.0107422,0.028320312,0.045898438,-1.6479492,-12.573242,3.3569336,0.0,0.0,0.0,25.828857,85.391235,76.937256
1766903602239,-1.0107422,0.028320312,0.045898438,-1.6479492,-12.573242,3.3569336,0.0,0.0,0.0,24.521484,83.655396,76.85486
1766903602326,-1.0019531,0.07080078,0.05908203,4.8217773,-15.136719,13.85498,0.0,0.0,0.0,24.521484,83.655396,76.85486
1766903602338,-1.0019531,0.07080078,0.05908203,4.8217773,-15.136719,13.85498,0.0,0.0,0.0,25.993652,82.369995,78.063354
1766903602426,-1.0087891,0.0024414062,0.051757812,4.5776367,-9.58252,6.958008,0.0,0.0,0.0,25.993652,82.369995,78.063354
1766903602438,-1.0087891,0.0024414062,0.051757812,4.5776367,-9.58252,6.958008,0.0,0.0,0.0,29.77295,80.94177,81.430664
1766903602526,-1.0009766,0.047851562,0.08203125,1.8310547,-1.7700195,1.5258789,0.0,0.0,0.0,29.77295,80.94177,81.430664
1766903602537,-1.0009766,0.047851562,0.08203125,1.8310547,-1.7700195,1.5258789,0.0,0.0,0.0,29.855347,80.68909,81.39221
1766903602626,-1.1069336,0.09033203,0.05810547,1.159668,11.901855,2.4414062,0.0,0.0,0.0,29.855347,80.68909,81.39221
1766903602637,-1.1069336,0.09033203,0.05810547,1.159668,11.901855,2.4414062,0.0,0.0,0.0,32.942505,81.21643,84.506836
1766903602725,-1.0454102,0.001953125,0.19433594,-10.864258,17.089844,4.272461,0.0,0.0,0.0,32.942505,81.21643,84.506836
1766903602737,-1.0454102,0.001953125,0.19433594,-10.864258,17.089844,4.272461,0.0,0.0,0.0,43.69812,82.55676,95.60852
1766903602825,-0.95654297,0.10449219,0.06738281,-18.676758,10.7421875,7.5683594,0.0,0.0,0.0,43.69812,82.55676,95.60852
1766903602837,-0.95654297,0.10449219,0.06738281,-18.676758,10.7421875,7.5683594,0.0,0.0,0.0,49.04297,82.95776,103.430786
1766903602925,-0.9482422,0.080566406,0.1616211,-16.723633,14.953613,7.2631836,0.0,0.0,0.0,49.04297,82.95776,103.430786
1766903602936,-0.9482422,0.080566406,0.1616211,-16.723633,14.953613,7.2631836,0.0,0.0,0.0,62.42981,83.430176,118.427124
1766903603025,-0.94921875,0.16552734,0.087402344,-26.489258,-5.79834,10.803223,0.0,0.0,0.0,62.42981,83.430176,118.427124
1766903603036,-0.94921875,0.16552734,0.087402344,-26.489258,-5.79834,10.803223,0.0,0.0,0.0,61.210327,82.33154,119.783936
1766903603124,-0.9550781,0.21826172,0.1381836,-3.6621094,-4.760742,2.8076172,0.0,0.0,0.0,61.210327,82.33154,119.783936
1766903603136,-0.9550781,0.21826172,0.1381836,-3.6621094,-4.760742,2.8076172,0.0,0.0,0.0,58.826294,81.73828,117.97119
1766903603224,-1.0058594,0.12109375,0.10595703,12.023926,-2.8686523,-7.2631836,0.0,0.0,0.0,58.826294,81.73828,117.97119
1766903603236,-1.0058594,0.12109375,0.10595703,12.023926,-2.8686523,-7.2631836,0.0,0.0,0.0,56.865234,81.39221,115.510254
1766903603324,-0.9399414,0.16552734,0.048339844,-6.286621,-10.620117,-4.4555664,0.0,0.0,0.0,56.865234,81.39221,115.510254
1766903603335,-0.9399414,0.16552734,0.048339844,-6.286621,-10.620117,-4.4555664,0.0,0.0,0.0,48.587036,81.15051,106.5564
1766903603424,-1.0322266,0.125,0.06347656,3.6621094,-7.446289,-6.958008,0.0,0.0,0.0,48.587036,81.15051,106.5564
1766903603435,-1.0322266,0.125,0.06347656,3.6621094,-7.446289,-6.958008,0.0,0.0,0.0,43.53882,80.72754,100.772095
1766903603523,-0.97753906,0.10498047,0.016113281,-1.7089844,-6.8359375,-6.7749023,0.0,0.0,0.0,43.53882,80.72754,100.772095
1766903603535,-0.97753906,0.10498047,0.016113281,-1.7089844,-6.8359375,-6.7749023,0.0,0.0,0.0,38.254395,80.80444,94.58679
1766903603623,-0.9770508,0.10205078,4.8828125E-4,1.2817383,1.2817383,-3.6621094,0.0,0.0,0.0,38.254395,80.80444,94.58679
1766903603634,-0.9770508,0.10205078,4.8828125E-4,1.2817383,1.2817383,-3.6621094,0.0,0.0,0.0,35.892334,80.92529,91.658936
1766903603723,-1.0605469,0.07128906,0.021972656,-0.061035156,5.065918,-11.230469,0.0,0.0,0.0,35.892334,80.92529,91.658936
1766903603734,-1.0605469,0.07128906,0.021972656,-0.061035156,5.065918,-11.230469,0.0,0.0,0.0,35.9198,81.760254,90.88989
1766903603822,-1.0180664,0.09082031,0.140625,13.427734,9.887695,-23.80371,0.0,0.0,0.0,35.9198,81.760254,90.88989
1766903603834,-1.0180664,0.09082031,0.140625,13.427734,9.887695,-23.80371,0.0,0.0,0.0,29.086304,84.0564,82.77649
1766903603922,-0.9838867,0.10644531,0.12451172,21.484375,10.009766,-10.7421875,0.0,0.0,0.0,29.086304,84.0564,82.77649
1766903603934,-0.9838867,0.10644531,0.12451172,21.484375,10.009766,-10.7421875,0.0,0.0,0.0,17.957153,85.42969,69.834595
1766903604022,-0.89160156,-0.028808594,0.17480469,0.30517578,1.2817383,-0.9765625,0.0,0.0,0.0,17.957153,85.42969,69.834595
1766903604033,-0.89160156,-0.028808594,0.17480469,0.30517578,1.2817383,-0.9765625,0.0,0.0,0.0,19.088745,85.87463,69.92798
1766903604121,-1.1064453,0.041015625,0.13232422,-0.61035156,-2.2583008,5.126953,0.0,0.0,0.0,19.088745,85.87463,69.92798
1766903604133,-1.1064453,0.041015625,0.13232422,-0.61035156,-2.2583008,5.126953,0.0,0.0,0.0,18.962402,85.60547,70.27954
1766903604221,-0.89746094,0.05810547,0.10107422,5.432129,-15.380859,15.136719,0.0,0.0,0.0,18.962402,85.60547,70.27954
1766903604233,-0.89746094,0.05810547,0.10107422,5.432129,-15.380859,15.136719,0.0,0.0,0.0,25.394897,84.523315,76.28906
1766903604321,-1.0166016,-0.009765625,0.08886719,13.549805,-13.671875,3.9672852,0.0,0.0,0.0,25.394897,84.523315,76.28906
1766903604332,-1.0166016,-0.009765625,0.08886719,13.549805,-13.671875,3.9672852,0.0,0.0,0.0,28.361206,82.60071,78.70056
1766903604421,-1.0151367,0.05029297,0.12939453,14.282227,-15.380859,3.8452148,0.0,0.0,0.0,28.361206,82.60071,78.70056
1766903604432,-1.0151367,0.05029297,0.12939453,14.282227,-15.380859,3.8452148,0.0,0.0,0.0,26.323242,81.25488,75.41016
1766903604522,-0.98779297,0.009765625,0.0703125,10.864258,-3.479004,-0.61035156,0.0,0.0,0.0,26.323242,81.25488,75.41016
1766903604532,-0.98779297,0.009765625,0.0703125,10.864258,-3.479004,-0.61035156,0.0,0.0,0.0,25.817871,80.23865,73.948975
1766903604620,-1.0151367,0.0048828125,0.09277344,2.319336,7.507324,-5.004883,0.0,0.0,0.0,25.817871,80.23865,73.948975
1766903604632,-1.0151367,0.0048828125,0.09277344,2.319336,7.507324,-5.004883,0.0,0.0,0.0,24.54895,80.5957,72.29553
1766903604720,-1.0791016,0.092285156,0.103515625,3.9672852,20.263672,-0.24414062,0.0,0.0,0.0,24.54895,80.5957,72.29553
1766903604731,-1.0791016,0.092285156,0.103515625,3.9672852,20.263672,-0.24414062,0.0,0.0,0.0,25.427856,81.90857,73.22937
1766903604820,-1.0351562,-0.03857422,0.17138672,-15.869141,10.864258,6.5307617,0.0,0.0,0.0,25.427856,81.90857,73.22937
1766903604831,-1.0351562,-0.03857422,0.17138672,-15.869141,10.864258,6.5307617,0.0,0.0,0.0,35.66162,83.221436,84.451904
1766903604919,-0.9433594,0.034179688,0.07519531,-18.676758,11.657715,2.5634766,0.0,0.0,0.0,35.66162,83.221436,84.451904
1766903604931,-0.9433594,0.034179688,0.07519531,-18.676758,11.657715,2.5634766,0.0,0.0,0.0,38.408203,83.63342,89.7583
1766903605019,-0.9667969,0.12158203,0.13085938,-21.057129,13.244629,8.178711,0.0,0.0,0.0,38.408203,83.63342,89.7583
1766903605030,-0.9667969,0.12158203,0.13085938,-21.057129,13.244629,8.178711,0.0,0.0,0.0,48.59253,84.27063,102.39258
1766903605119,-0.88916016,0.122558594,0.095214844,8.483887,7.6293945,-2.1972656,0.0,0.0,0.0,48.59253,84.27063,102.39258
1766903605130,-0.88916016,0.122558594,0.095214844,8.483887,7.6293945,-2.1972656,0.0,0.0,0.0,58.5791,84.6991,113.25256
1766903605218,-1.0332031,0.13867188,0.107421875,-28.015137,-16.540527,6.164551,0.0,0.0,0.0,58.5791,84.6991,113.25256
1766903605230,-1.0332031,0.13867188,0.107421875,-28.015137,-16.540527,6.164551,0.0,0.0,0.0,51.921387,83.2489,108.39661
1766903605318,-0.98779297,0.115722656,0.12451172,24.902344,6.5307617,-13.61084,0.0,0.0,0.0,51.921387,83.2489,108.39661
1766903605330,-0.98779297,0.115722656,0.12451172,24.902344,6.5307617,-13.61084,0.0,0.0,0.0,49.031982,83.375244,105.232544
1766903605418,-1.0356445,0.05859375,0.05078125,-21.240234,-33.569336,10.986328,0.0,0.0,0.0,49.031982,83.375244,105.232544
1766903605430,-1.0356445,0.05859375,0.05078125,-21.240234,-33.569336,10.986328,0.0,0.0,0.0,38.3313,83.08411,93.67493
1766903605518,-0.95947266,0.13574219,0.0546875,14.404297,0.6713867,-14.221191,0.0,0.0,0.0,38.3313,83.08411,93.67493
1766903605529,-0.95947266,0.13574219,0.0546875,14.404297,0.6713867,-14.221191,0.0,0.0,0.0,33.068848,82.38098,88.797
1766903605617,-1.0097656,0.063964844,0.0390625,-12.145996,-13.305664,4.8217773,0.0,0.0,0.0,33.068848,82.38098,88.797
1766903605629,-1.0097656,0.063964844,0.0390625,-12.145996,-13.305664,4.8217773,0.0,0.0,0.0,30.62439,82.08435,85.95154
1766903605717,-0.9892578,0.084472656,-0.048339844,-2.6245117,1.6479492,1.7700195,0.0,0.0,0.0,30.62439,82.08435,85.95154
1766903605729,-0.9892578,0.084472656,-0.048339844,-2.6245117,1.6479492,1.7700195,0.0,0.0,0.0,31.761475,81.93054,87.247925
1766903605817,-1.0234375,0.06640625,0.024902344,-9.460449,2.6245117,-2.0141602,0.0,0.0,0.0,31.761475,81.93054,87.247925
1766903605828,-1.0234375,0.06640625,0.024902344,-9.460449,2.6245117,-2.0141602,0.0,0.0,0.0,35.36499,82.41943,90.84595
1766903605916,-1.0737305,0.08251953,0.111328125,22.338867,16.296387,-22.338867,0.0,0.0,0.0,35.36499,82.41943,90.84595
1766903605928,-1.0737305,0.08251953,0.111328125,22.338867,16.296387,-22.338867,0.0,0.0,0.0,34.23889,84.57825,88.78052
1766903606016,-1.0175781,0.088378906,0.09863281,22.277832,3.1738281,-20.080566,0.0,0.0,0.0,34.23889,84.57825,88.78052
1766903606028,-1.0175781,0.088378906,0.09863281,22.277832,3.1738281,-20.080566,0.0,0.0,0.0,16.435547,85.38025,69.11499
1766903606116,-0.8911133,0.016601562,0.15820312,3.3569336,-3.6621094,-2.9296875,0.0,0.0,0.0,16.435547,85.38025,69.11499
1766903606127,-0.8911133,0.016601562,0.15820312,3.3569336,-3.6621094,-2.9296875,0.0,0.0,0.0,7.800293,85.56702,59.243774
1766903606216,-1.0463867,0.026855469,0.171875,6.286621,-0.24414062,0.9765625,0.0,0.0,0.0,7.800293,85.56702,59.243774
1766903606227,-1.0463867,0.026855469,0.171875,6.286621,-0.24414062,0.9765625,0.0,0.0,0.0,6.322632,85.22095,57.562866
1766903606315,-0.9394531,0.0546875,0.12890625,11.047363,-11.84082,10.681152,0.0,0.0,0.0,6.322632,85.22095,57.562866
1766903606327,-0.9394531,0.0546875,0.12890625,11.047363,-11.84082,10.681152,0.0,0.0,0.0,12.244263,84.314575,62.68799
1766903606415,-0.98339844,-0.04248047,0.10888672,7.385254,-18.737793,7.507324,0.0,0.0,0.0,12.244263,84.314575,62.68799
1766903606427,-0.98339844,-0.04248047,0.10888672,7.385254,-18.737793,7.507324,0.0,0.0,0.0,18.962402,82.2876,68.8678
1766903606515,-0.99853516,0.026855469,0.13330078,14.099121,-15.075684,2.9296875,0.0,0.0,0.0,18.962402,82.2876,68.8678
1766903606526,-0.99853516,0.026855469,0.13330078,14.099121,-15.075684,2.9296875,0.0,0.0,0.0,18.649292,80.90881,67.64282
1766903606615,-1.0112305,0.0126953125,0.057617188,10.437012,-11.230469,2.2583008,0.0,0.0,0.0,18.649292,80.90881,67.64282
1766903606626,-1.0112305,0.0126953125,0.057617188,10.437012,-11.230469,2.2583008,0.0,0.0,0.0,18.781128,79.48059,66.92871
1766903606714,-1.012207,-0.0053710938,0.13427734,4.9438477,2.6855469,-0.12207031,0.0,0.0,0.0,18.781128,79.48059,66.92871
1766903606726,-1.012207,-0.0053710938,0.13427734,4.9438477,2.6855469,-0.12207031,0.0,0.0,0.0,18.682251,79.60144,66.18164
1766903606814,-1.0439453,0.025390625,0.11621094,4.3945312,19.16504,-6.4697266,0.0,0.0,0.0,18.682251,79.60144,66.18164
1766903606826,-1.0439453,0.025390625,0.11621094,4.3945312,19.16504,-6.4697266,0.0,0.0,0.0,18.73169,80.78247,66.30798
1766903606914,-1.019043,0.011230469,0.2529297,-15.869141,11.230469,4.211426,0.0,0.0,0.0,18.73169,80.78247,66.30798
1766903606925,-1.019043,0.011230469,0.2529297,-15.869141,11.230469,4.211426,0.0,0.0,0.0,21.472778,82.95227,69.54346
1766903607014,-0.9609375,-9.765625E-4,0.072753906,-17.456055,20.507812,1.3427734,0.0,0.0,0.0,21.472778,82.95227,69.54346
1766903607025,-0.9609375,-9.765625E-4,0.072753906,-17.456055,20.507812,1.3427734,0.0,0.0,0.0,25.394897,83.573,76.25061
1766903607113,-0.95703125,0.095214844,0.10498047,-25.756836,23.55957,6.958008,0.0,0.0,0.0,25.394897,83.573,76.25061
1766903607125,-0.95703125,0.095214844,0.10498047,-25.756836,23.55957,6.958008,0.0,0.0,0.0,38.99048,85.41321,92.52136
1766903607213,-0.91259766,0.13574219,0.111328125,-9.643555,9.765625,2.746582,0.0,0.0,0.0,38.99048,85.41321,92.52136
1766903607224,-0.91259766,0.13574219,0.111328125,-9.643555,9.765625,2.746582,0.0,0.0,0.0,59.820557,86.033936,115.54321
1766903607313,-1.0385742,0.1694336,0.027832031,-3.7231445,0.36621094,8.361816,0.0,0.0,0.0,59.820557,86.033936,115.54321
1766903607324,-1.0385742,0.1694336,0.027832031,-3.7231445,0.36621094,8.361816,0.0,0.0,0.0,63.067017,85.08362,119.86084
1766903607412,-0.93066406,0.045410156,0.09423828,-1.7089844,-20.141602,-1.8920898,0.0,0.0,0.0,63.067017,85.08362,119.86084
1766903607424,-0.93066406,0.045410156,0.09423828,-1.7089844,-20.141602,-1.8920898,0.0,0.0,0.0,62.30896,85.22095,117.57019
1766903607512,-0.99853516,0.10546875,0.013671875,7.6904297,-10.803223,-2.380371,0.0,0.0,0.0,62.30896,85.22095,117.57019
1766903607523,-0.99853516,0.10546875,0.013671875,7.6904297,-10.803223,-2.380371,0.0,0.0,0.0,44.18701,84.16077,99.228516
1766903607612,-1.015625,0.06201172,0.020996094,3.90625,-5.3710938,-5.126953,0.0,0.0,0.0,44.18701,84.16077,99.228516
1766903607623,-1.015625,0.06201172,0.020996094,3.90625,-5.3710938,-5.126953,0.0,0.0,0.0,39.006958,83.84216,93.24097
1766903607712,-0.9951172,0.04296875,-0.04248047,-2.5634766,-3.6621094,-5.126953,0.0,0.0,0.0,39.006958,83.84216,93.24097
1766903607723,-0.9951172,0.04296875,-0.04248047,-2.5634766,-3.6621094,-5.126953,0.0,0.0,0.0,33.222656,83.78723,87.37976
1766903607811,-0.9975586,0.0703125,-0.025390625,-1.7089844,6.5307617,-2.9907227,0.0,0.0,0.0,33.222656,83.78723,87.37976
1766903607823,-0.9975586,0.0703125,-0.025390625,-1.7089844,6.5307617,-2.9907227,0.0,0.0,0.0,33.321533,84.435425,87.593994
1766903607911,-1.0849609,0.020507812,-0.048828125,3.112793,22.521973,-11.84082,0.0,0.0,0.0,33.321533,84.435425,87.593994
1766903607923,-1.0849609,0.020507812,-0.048828125,3.112793,22.521973,-11.84082,0.0,0.0,0.0,38.43567,85.99548,92.406006
1766903608011,-0.96728516,0.072265625,0.15673828,14.221191,0.24414062,-15.075684,0.0,0.0,0.0,38.43567,85.99548,92.406006
1766903608022,-0.96728516,0.072265625,0.15673828,14.221191,0.24414062,-15.075684,0.0,0.0,0.0,38.589478,88.64868,91.3678
1766903608110,-0.94189453,0.06201172,0.09375,-2.746582,3.479004,0.18310547,0.0,0.0,0.0,38.589478,88.64868,91.3678
1766903608122,-0.94189453,0.06201172,0.09375,-2.746582,3.479004,0.18310547,0.0,0.0,0.0,5.6030273,88.73657,57.947388
1766903608210,-0.9370117,-0.06542969,0.09765625,-7.6904297,-4.0283203,2.6245117,0.0,0.0,0.0,5.6030273,88.73657,57.947388
1766903608222,-0.9370117,-0.06542969,0.09765625,-7.6904297,-4.0283203,2.6245117,0.0,0.0,0.0,25.878296,88.37952,79.019165
1766903608310,-1.078125,0.04736328,0.09082031,-3.479004,-8.056641,7.2631836,0.0,0.0,0.0,25.878296,88.37952,79.019165
1766903608321,-1.078125,0.04736328,0.09082031,-3.479004,-8.056641,7.2631836,0.0,0.0,0.0,30.19043,87.819214,84.27063
1766903608410,-0.92626953,-0.03125,0.05029297,-4.0893555,-23.07129,14.404297,0.0,0.0,0.0,30.19043,87.819214,84.27063
1766903608421,-0.92626953,-0.03125,0.05029297,-4.0893555,-23.07129,14.404297,0.0,0.0,0.0,32.77771,85.67688,87.53906
1766903608509,-1.0356445,0.020507812,0.071777344,-0.36621094,-17.211914,7.751465,0.0,0.0,0.0,32.77771,85.67688,87.53906
1766903608521,-1.0356445,0.020507812,0.071777344,-0.36621094,-17.211914,7.751465,0.0,0.0,0.0,28.99292,83.66089,84.16077
1766903608609,-1.0214844,0.052246094,0.057128906,-5.7373047,-10.131836,7.9956055,0.0,0.0,0.0,28.99292,83.66089,84.16077
1766903608621,-1.0214844,0.052246094,0.057128906,-5.7373047,-10.131836,7.9956055,0.0,0.0,0.0,28.861084,81.83716,84.42993
1766903608709,-0.9868164,0.0034179688,0.0546875,7.080078,13.183594,-0.91552734,0.0,0.0,0.0,28.861084,81.83716,84.42993
1766903608720,-0.9868164,0.0034179688,0.0546875,7.080078,13.183594,-0.91552734,0.0,0.0,0.0,31.948242,81.73279,87.473145
1766903608808,-1.0517578,0.044433594,0.029296875,-3.112793,23.010254,-0.30517578,0.0,0.0,0.0,31.948242,81.73279,87.473145
1766903608821,-1.0517578,0.044433594,0.029296875,-3.112793,23.010254,-0.30517578,0.0,0.0,0.0,37.27661,83.25989,92.631226
1766903608908,-1.1762695,0.08642578,0.09375,7.080078,34.42383,-1.0375977,0.0,0.0,0.0,37.27661,83.25989,92.631226
1766903608921,-1.1762695,0.08642578,0.09375,7.080078,34.42383,-1.0375977,0.0,0.0,0.0,64.313965,85.6604,119.72351
1766903609008,-0.8730469,0.0078125,0.009765625,-11.413574,6.652832,3.1738281,0.0,0.0,0.0,64.313965,85.6604,119.72351
1766903609019,-0.8730469,0.0078125,0.009765625,-11.413574,6.652832,3.1738281,0.0,0.0,0.0,82.86438,85.9845,139.021
1766903609108,-0.93847656,0.10107422,0.036621094,-10.864258,14.526367,-2.9907227,0.0,0.0,0.0,82.86438,85.9845,139.021
1766903609120,-0.93847656,0.10107422,0.036621094,-10.864258,14.526367,-2.9907227,0.0,0.0,0.0,100.079956,86.259155,157.40662
1766903609208,-0.9667969,0.13134766,0.057617188,-5.92041,6.1035156,-0.61035156,0.0,0.0,0.0,100.079956,86.259155,157.40662
1766903609219,-0.9667969,0.13134766,0.057617188,-5.92041,6.1035156,-0.61035156,0.0,0.0,0.0,114.38965,85.88013,173.20496
1766903609307,-0.9404297,0.16992188,0.016601562,-5.7373047,-8.911133,0.61035156,0.0,0.0,0.0,114.38965,85.88013,173.20496
1766903609319,-0.9404297,0.16992188,0.016601562,-5.7373047,-8.911133,0.61035156,0.0,0.0,0.0,102.98035,85.95703,162.30103
1766903609407,-1.0795898,0.05078125,0.05126953,23.376465,4.272461,-18.371582,0.0,0.0,0.0,102.98035,85.95703,162.30103
1766903609418,-1.0795898,0.05078125,0.05126953,23.376465,4.272461,-18.371582,0.0,0.0,0.0,110.79712,86.7041,168.11829
1766903609507,-0.9116211,0.09423828,-0.036621094,-1.6479492,-20.874023,-2.380371,0.0,0.0,0.0,110.79712,86.7041,168.11829
1766903609518,-0.9116211,0.09423828,-0.036621094,-1.6479492,-20.874023,-2.380371,0.0,0.0,0.0,67.62085,87.23694,124.920044
1766903609606,-1.027832,0.061523438,0.018554688,-0.24414062,-17.822266,1.8310547,0.0,0.0,0.0,67.62085,87.23694,124.920044
1766903609618,-1.027832,0.061523438,0.018554688,-0.24414062,-17.822266,1.8310547,0.0,0.0,0.0,43.599243,85.69885,101.28296
1766903609706,-1.0273438,0.053710938,-0.022460938,-9.521484,-17.150879,0.48828125,0.0,0.0,0.0,43.599243,85.69885,101.28296
1766903609717,-1.0273438,0.053710938,-0.022460938,-9.521484,-17.150879,0.48828125,0.0,0.0,0.0,32.277832,84.47937,90.197754
1766903609806,-1.0151367,0.103027344,-0.047851562,-5.3710938,-1.6479492,6.164551,0.0,0.0,0.0,32.277832,84.47937,90.197754
1766903609817,-1.0151367,0.103027344,-0.047851562,-5.3710938,-1.6479492,6.164551,0.0,0.0,0.0,33.145752,83.86963,91.48865
1766903609905,-1.0390625,0.060546875,-0.04296875,7.446289,6.7749023,-1.4648438,0.0,0.0,0.0,33.145752,83.86963,91.48865
1766903609917,-1.0390625,0.060546875,-0.04296875,7.446289,6.7749023,-1.4648438,0.0,0.0,0.0,41.99524,84.402466,99.30542
1766903610005,-1.0009766,0.0703125,0.03564453,26.855469,7.446289,-8.300781,0.0,0.0,0.0,41.99524,84.402466,99.30542
1766903610017,-1.0009766,0.0703125,0.03564453,26.855469,7.446289,-8.300781,0.0,0.0,0.0,50.95459,85.69336,106.49597
1766903610105,-0.9458008,0.0,0.122558594,25.20752,4.1503906,-10.559082,0.0,0.0,0.0,50.95459,85.69336,106.49597
1766903610116,-0.9458008,0.0,0.122558594,25.20752,4.1503906,-10.559082,0.0,0.0,0.0,48.36731,86.68213,101.40381
1766903610205,-1.0400391,0.087890625,0.08886719,2.746582,9.155273,-14.770508,0.0,0.0,0.0,48.36731,86.68213,101.40381
1766903610216,-1.0400391,0.087890625,0.08886719,2.746582,9.155273,-14.770508,0.0,0.0,0.0,29.075317,88.30261,81.78223
1766903610304,-0.91748047,-0.053710938,0.099609375,-13.977051,-9.155273,7.9956055,0.0,0.0,0.0,29.075317,88.30261,81.78223
1766903610316,-0.91748047,-0.053710938,0.099609375,-13.977051,-9.155273,7.9956055,0.0,0.0,0.0,32.854614,88.03894,86.48987
1766903610404,-1.0112305,0.060546875,0.067871094,-1.7089844,-8.300781,6.958008,0.0,0.0,0.0,32.854614,88.03894,86.48987
1766903610416,-1.0112305,0.060546875,0.067871094,-1.7089844,-8.300781,6.958008,0.0,0.0,0.0,31.052856,86.96228,85.825195
1766903610504,-0.95214844,-0.052246094,0.072753906,-6.5307617,-19.89746,9.399414,0.0,0.0,0.0,31.052856,86.96228,85.825195
1766903610515,-0.95214844,-0.052246094,0.072753906,-6.5307617,-19.89746,9.399414,0.0,0.0,0.0,30.371704,84.88037,85.69336
1766903610603,-0.9926758,0.04296875,0.08691406,0.12207031,-14.526367,3.7841797,0.0,0.0,0.0,30.371704,84.88037,85.69336
1766903610615,-0.9926758,0.04296875,0.08691406,0.12207031,-14.526367,3.7841797,0.0,0.0,0.0,26.130981,83.133545,81.74927
1766903610703,-1.0146484,0.04248047,0.05078125,-4.3945312,-11.962891,8.972168,0.0,0.0,0.0,26.130981,83.133545,81.74927
1766903610715,-1.0146484,0.04248047,0.05078125,-4.3945312,-11.962891,8.972168,0.0,0.0,0.0,25.65857,81.6449,81.12854
1766903610803,-1.0131836,-0.0087890625,0.11767578,-3.479004,0.91552734,0.6713867,0.0,0.0,0.0,25.65857,81.6449,81.12854
1766903610815,-1.0131836,-0.0087890625,0.11767578,-3.479004,0.91552734,0.6713867,0.0,0.0,0.0,27.438354,81.37573,82.91931
1766903610903,-1.0634766,0.09277344,0.07470703,-6.4086914,5.554199,-1.5258789,0.0,0.0,0.0,27.438354,81.37573,82.91931
1766903610914,-1.0634766,0.09277344,0.07470703,-6.4086914,5.554199,-1.5258789,0.0,0.0,0.0,24.268799,81.67236,79.65088
1766903611002,-1.0595703,0.024902344,0.19580078,-9.887695,-0.61035156,10.009766,0.0,0.0,0.0,24.268799,81.67236,79.65088
1766903611014,-1.0595703,0.024902344,0.19580078,-9.887695,-0.61035156,10.009766,0.0,0.0,0.0,27.817383,81.952515,83.638916
1766903611102,-0.9375,0.06982422,0.12207031,-12.939453,7.2631836,6.4086914,0.0,0.0,0.0,27.817383,81.952515,83.638916
1766903611113,-0.9375,0.06982422,0.12207031,-12.939453,7.2631836,6.4086914,0.0,0.0,0.0,30.95398,81.66687,88.48389
1766903611202,-0.9838867,0.110839844,0.17041016,-13.61084,11.108398,8.178711,0.0,0.0,0.0,30.95398,81.66687,88.48389
1766903611214,-0.9838867,0.110839844,0.17041016,-13.61084,11.108398,8.178711,0.0,0.0,0.0,37.545776,82.49634,95.597534
1766903611302,-0.91259766,0.10058594,0.114746094,-0.61035156,11.352539,8.911133,0.0,0.0,0.0,37.545776,82.49634,95.597534
1766903611313,-0.91259766,0.10058594,0.114746094,-0.61035156,11.352539,8.911133,0.0,0.0,0.0,46.730347,82.37549,105.946655
1766903611401,-0.9526367,0.15722656,0.15820312,-27.09961,-7.2021484,6.286621,0.0,0.0,0.0,46.730347,82.37549,105.946655
1766903611413,-0.9526367,0.15722656,0.15820312,-27.09961,-7.2021484,6.286621,0.0,0.0,0.0,51.37207,81.5625,112.038574
1766903611501,-1.0541992,0.2553711,0.14404297,-3.6010742,1.0375977,7.019043,0.0,0.0,0.0,51.37207,81.5625,112.038574
1766903611512,-1.0541992,0.2553711,0.14404297,-3.6010742,1.0375977,7.019043,0.0,0.0,0.0,49.526367,80.53528,111.500244
1766903611601,-0.9453125,0.122558594,0.07080078,3.4179688,-5.6762695,-0.6713867,0.0,0.0,0.0,49.526367,80.53528,111.500244
1766903611612,-0.9453125,0.122558594,0.07080078,3.4179688,-5.6762695,-0.6713867,0.0,0.0,0.0,53.81653,80.40344,113.49426
1766903611700,-1.0219727,0.20751953,0.040039062,-8.483887,-19.40918,2.8076172,0.0,0.0,0.0,53.81653,80.40344,113.49426
1766903611712,-1.0219727,0.20751953,0.040039062,-8.483887,-19.40918,2.8076172,0.0,0.0,0.0,44.785767,78.62366,105.858765
1766903611800,-0.9790039,0.1381836,0.09814453,1.3427734,-8.178711,-5.6762695,0.0,0.0,0.0,44.785767,78.62366,105.858765
1766903611812,-0.9790039,0.1381836,0.09814453,1.3427734,-8.178711,-5.6762695,0.0,0.0,0.0,42.75879,78.464355,101.84326
1766903611900,-1.0068359,0.17041016,0.008300781,10.620117,-5.065918,-9.643555,0.0,0.0,0.0,42.75879,78.464355,101.84326
1766903611911,-1.0068359,0.17041016,0.008300781,10.620117,-5.065918,-9.643555,0.0,0.0,0.0,37.452393,77.99194,95.39978
1766903612000,-1.0449219,0.11328125,0.064941406,20.080566,14.953613,-24.414062,0.0,0.0,0.0,37.452393,77.99194,95.39978
1766903612011,-1.0449219,0.11328125,0.064941406,20.080566,14.953613,-24.414062,0.0,0.0,0.0,36.919556,79.49707,91.884155
1766903612099,-1.0078125,0.10595703,0.13232422,35.15625,25.878906,-33.38623,0.0,0.0,0.0,36.919556,79.49707,91.884155
1766903612111,-1.0078125,0.10595703,0.13232422,35.15625,25.878906,-33.38623,0.0,0.0,0.0,33.21167,83.36975,84.715576
1766903612199,-0.9663086,0.052734375,0.19677734,4.5776367,-13.671875,0.36621094,0.0,0.0,0.0,33.21167,83.36975,84.715576
1766903612211,-0.9663086,0.052734375,0.19677734,4.5776367,-13.671875,0.36621094,0.0,0.0,0.0,24.680786,85.01221,73.61389
1766903612299,-0.8803711,-0.0053710938,0.18652344,-2.0141602,-7.385254,12.878418,0.0,0.0,0.0,24.680786,85.01221,73.61389
1766903612310,-0.8803711,-0.0053710938,0.18652344,-2.0141602,-7.385254,12.878418,0.0,0.0,0.0,27.636108,82.95227,77.98096
1766903612399,-1.0498047,0.06738281,0.20361328,-2.319336,-14.770508,7.1411133,0.0,0.0,0.0,27.636108,82.95227,77.98096
1766903612410,-1.0498047,0.06738281,0.20361328,-2.319336,-14.770508,7.1411133,0.0,0.0,0.0,29.855347,81.89758,79.65088
1766903612499,-0.95947266,0.016601562,0.15039062,10.620117,-16.540527,11.474609,0.0,0.0,0.0,29.855347,81.89758,79.65088
1766903612510,-0.95947266,0.016601562,0.15039062,10.620117,-16.540527,11.474609,0.0,0.0,0.0,29.064331,79.573975,79.002686
1766903612598,-0.9760742,0.05517578,0.17675781,3.7231445,-15.50293,5.432129,0.0,0.0,0.0,29.064331,79.573975,79.002686
1766903612610,-0.9760742,0.05517578,0.17675781,3.7231445,-15.50293,5.432129,0.0,0.0,0.0,28.278809,77.93152,78.19519
1766903612698,-1.0454102,0.053710938,0.15039062,4.8217773,-8.056641,4.638672,0.0,0.0,0.0,28.278809,77.93152,78.19519
1766903612709,-1.0454102,0.053710938,0.15039062,4.8217773,-8.056641,4.638672,0.0,0.0,0.0,27.575684,76.79993,77.0636
1766903612797,-0.9995117,0.020996094,0.14941406,5.065918,6.3476562,-3.90625,0.0,0.0,0.0,27.575684,76.79993,77.0636
1766903612809,-0.9995117,0.020996094,0.14941406,5.065918,6.3476562,-3.90625,0.0,0.0,0.0,27.762451,77.16797,76.536255
1766903612897,-1.0073242,0.080566406,0.088378906,3.0517578,7.9345703,-0.48828125,0.0,0.0,0.0,27.762451,77.16797,76.536255
1766903612909,-1.0073242,0.080566406,0.088378906,3.0517578,7.9345703,-0.48828125,0.0,0.0,0.0,26.531982,78.00293,75.48157
1766903612997,-1.0932617,0.07324219,0.22558594,-6.164551,17.700195,4.5166016,0.0,0.0,0.0,26.531982,78.00293,75.48157
1766903613008,-1.0932617,0.07324219,0.22558594,-6.164551,17.700195,4.5166016,0.0,0.0,0.0,31.23413,79.21692,80.24963
1766903613097,-0.953125,0.06640625,0.15332031,-16.784668,2.0751953,9.765625,0.0,0.0,0.0,31.23413,79.21692,80.24963
1766903613108,-0.953125,0.06640625,0.15332031,-16.784668,2.0751953,9.765625,0.0,0.0,0.0,35.458374,79.73328,85.70984
1766903613196,-0.91259766,0.13330078,0.13574219,5.554199,14.404297,1.2207031,0.0,0.0,0.0,35.458374,79.73328,85.70984
1766903613208,-0.91259766,0.13330078,0.13574219,5.554199,14.404297,1.2207031,0.0,0.0,0.0,39.940796,80.23865,91.21399
1766903613296,-0.9995117,0.11328125,0.17138672,-15.136719,14.099121,8.850098,0.0,0.0,0.0,39.940796,80.23865,91.21399
1766903613308,-0.9995117,0.11328125,0.17138672,-15.136719,14.099121,8.850098,0.0,0.0,0.0,48.059692,80.74402,99.90967
1766903613396,-0.8515625,0.19726562,0.14160156,3.540039,-10.131836,-3.2958984,0.0,0.0,0.0,48.059692,80.74402,99.90967
1766903613407,-0.8515625,0.19726562,0.14160156,3.540039,-10.131836,-3.2958984,0.0,0.0,0.0,49.16931,81.27136,101.78833
1766903613496,-1.0991211,0.08203125,0.17626953,-6.713867,-5.92041,2.5634766,0.0,0.0,0.0,49.16931,81.27136,101.78833
1766903613507,-1.0991211,0.08203125,0.17626953,-6.713867,-5.92041,2.5634766,0.0,0.0,0.0,46.917114,79.140015,101.43677
1766903613596,-0.87646484,0.16796875,0.18554688,-20.935059,-13.183594,-5.92041,0.0,0.0,0.0,46.917114,79.140015,101.43677
1766903613607,-0.87646484,0.16796875,0.18554688,-20.935059,-13.183594,-5.92041,0.0,0.0,0.0,40.83069,78.95325,95.92163
1766903613695,-0.97998047,0.18603516,0.083496094,7.385254,-12.817383,-1.5258789,0.0,0.0,0.0,40.83069,78.95325,95.92163
1766903613707,-0.97998047,0.18603516,0.083496094,7.385254,-12.817383,-1.5258789,0.0,0.0,0.0,35.62317,77.57446,91.33484
1766903613795,-1.0380859,0.10595703,0.12646484,-0.9765625,-0.24414062,-10.7421875,0.0,0.0,0.0,35.62317,77.57446,91.33484
1766903613806,-1.0380859,0.10595703,0.12646484,-0.9765625,-0.24414062,-10.7421875,0.0,0.0,0.0,34.118042,77.88208,88.86841
1766903613894,-0.9199219,0.12451172,0.06591797,-9.216309,0.9765625,-4.5776367,0.0,0.0,0.0,34.118042,77.88208,88.86841
1766903613906,-0.9199219,0.12451172,0.06591797,-9.216309,0.9765625,-4.5776367,0.0,0.0,0.0,30.986938,78.01941,85.95703
1766903613994,-1.0732422,0.12060547,0.07080078,-4.0283203,0.12207031,-0.48828125,0.0,0.0,0.0,30.986938,78.01941,85.95703
1766903614006,-1.0732422,0.12060547,0.07080078,-4.0283203,0.12207031,-0.48828125,0.0,0.0,0.0,31.794434,78.376465,86.1438
1766903614094,-1.0957031,0.07128906,0.07470703,7.2631836,24.780273,-21.362305,0.0,0.0,0.0,31.794434,78.376465,86.1438
1766903614105,-1.0957031,0.07128906,0.07470703,7.2631836,24.780273,-21.362305,0.0,0.0,0.0,30.48706,80.13977,83.880615
1766903614194,-0.97216797,0.15429688,0.17529297,11.413574,11.962891,-19.042969,0.0,0.0,0.0,30.48706,80.13977,83.880615
1766903614205,-0.97216797,0.15429688,0.17529297,11.413574,11.962891,-19.042969,0.0,0.0,0.0,24.433594,83.11157,75.756226
1766903614294,-0.94384766,0.068359375,0.12890625,14.221191,10.559082,-5.554199,0.0,0.0,0.0,24.433594,83.11157,75.756226
1766903614305,-0.94384766,0.068359375,0.12890625,14.221191,10.559082,-5.554199,0.0,0.0,0.0,25.317993,84.138794,75.2124
1766903614393,-0.88671875,0.00390625,0.18115234,13.427734,8.117676,-3.112793,0.0,0.0,0.0,25.317993,84.138794,75.2124
1766903614405,-0.88671875,0.00390625,0.18115234,13.427734,8.117676,-3.112793,0.0,0.0,0.0,27.130737,84.73755,76.311035
1766903614493,-1.1137695,0.068847656,0.1381836,15.50293,0.48828125,1.5869141,0.0,0.0,0.0,27.130737,84.73755,76.311035
