timestamp,accX,accY,accZ,gyroX,gyroY,gyroZ,magX,magY,magZ,roll,pitch,yaw
1768031465093,-0.86279297,-0.005859375,0.26660156,-6.286621,29.47998,0.36621094,0.0,0.0,0.0,-19.434814,76.832886,-36.37024
1768031465104,-0.86279297,-0.005859375,0.26660156,-6.286621,29.47998,0.36621094,0.0,0.0,0.0,-26.295776,77.404175,-40.40222
1768031465192,-0.98046875,0.099121094,0.43115234,-0.36621094,12.634277,1.8310547,0.0,0.0,0.0,-26.295776,77.404175,-40.40222
1768031465204,-0.98046875,0.099121094,0.43115234,-0.36621094,12.634277,1.8310547,0.0,0.0,0.0,-32.876587,79.44763,-46.99951
1768031465292,-0.88671875,-0.22998047,-0.28271484,-6.5307617,16.784668,-19.042969,0.0,0.0,0.0,-32.876587,79.44763,-46.99951
1768031465305,-0.88671875,-0.22998047,-0.28271484,-6.5307617,16.784668,-19.042969,0.0,0.0,0.0,-27.34497,78.82141,-41.434937
1768031465392,-0.90527344,-0.07421875,0.13476562,-1.8310547,-23.132324,11.535645,0.0,0.0,0.0,-27.34497,78.82141,-41.434937
1768031465403,-0.90527344,-0.07421875,0.13476562,-1.8310547,-23.132324,11.535645,0.0,0.0,0.0,-34.661865,79.052124,-52.322388
1768031465491,-0.9291992,-0.0126953125,0.5786133,-74.8291,39.30664,23.864746,0.0,0.0,0.0,-34.661865,79.052124,-52.322388
1768031465503,-0.9291992,-0.0126953125,0.5786133,-74.8291,39.30664,23.864746,0.0,0.0,0.0,-29.921265,79.13452,-46.25244
1768031465591,-1.105957,-0.0859375,-0.5463867,-96.43555,-28.9917,51.574707,0.0,0.0,0.0,-29.921265,79.13452,-46.25244
1768031465604,-1.105957,-0.0859375,-0.5463867,-96.43555,-28.9917,51.574707,0.0,0.0,0.0,-14.859009,79.73328,-24.829102
1768031465691,-0.9897461,0.13378906,0.44873047,5.1879883,-30.029297,-7.2021484,0.0,0.0,0.0,-14.859009,79.73328,-24.829102
1768031465702,-0.9897461,0.13378906,0.44873047,5.1879883,-30.029297,-7.2021484,0.0,0.0,0.0,-15.413818,78.55774,-30.888062
1768031465791,-1.0864258,-0.08154297,0.07519531,-38.879395,-15.197754,24.658203,0.0,0.0,0.0,-15.413818,78.55774,-30.888062
1768031465802,-1.0864258,-0.08154297,0.07519531,-38.879395,-15.197754,24.658203,0.0,0.0,0.0,-12.32666,78.32703,-26.04309
1768031465890,-0.8359375,0.08544922,0.24853516,25.57373,40.34424,-32.043457,0.0,0.0,0.0,-12.32666,78.32703,-26.04309
1768031465903,-0.8359375,0.08544922,0.24853516,25.57373,40.34424,-32.043457,0.0,0.0,0.0,-18.874512,80.13977,-31.937256
1768031465990,-1.1430664,0.08105469,0.421875,-2.9296875,-52.91748,33.38623,0.0,0.0,0.0,-18.874512,80.13977,-31.937256
1768031466002,-1.1430664,0.08105469,0.421875,-2.9296875,-52.91748,33.38623,0.0,0.0,0.0,-14.963379,79.815674,-30.992432
1768031466090,-0.9003906,-0.106933594,0.18017578,18.676758,21.606445,-1.7089844,0.0,0.0,0.0,-14.963379,79.815674,-30.992432
1768031466102,-0.9003906,-0.106933594,0.18017578,18.676758,21.606445,-1.7089844,0.0,0.0,0.0,-3.0212402,77.74475,-17.660522
1768031466189,-0.94384766,0.024902344,0.39501953,-12.329102,-20.385742,12.451172,0.0,0.0,0.0,-3.0212402,77.74475,-17.660522
1768031466201,-0.94384766,0.024902344,0.39501953,-12.329102,-20.385742,12.451172,0.0,0.0,0.0,-1.7358398,77.98645,-13.919678
1768031466289,-1.0244141,-0.072265625,0.072753906,-28.869629,-17.822266,15.991211,0.0,0.0,0.0,-1.7358398,77.98645,-13.919678
1768031466301,-1.0244141,-0.072265625,0.072753906,-28.869629,-17.822266,15.991211,0.0,0.0,0.0,1.6973877,74.333496,-9.069214
1768031466389,-0.84765625,0.15185547,0.34033203,67.993164,5.493164,-36.56006,0.0,0.0,0.0,1.6973877,74.333496,-9.069214
1768031466400,-0.84765625,0.15185547,0.34033203,67.993164,5.493164,-36.56006,0.0,0.0,0.0,1.4611816,74.68506,-13.134155
1768031466489,-1.0571289,-0.35986328,-0.040527344,-113.342285,-1.953125,5.6762695,0.0,0.0,0.0,1.4611816,74.68506,-13.134155
1768031466500,-1.0571289,-0.35986328,-0.040527344,-113.342285,-1.953125,5.6762695,0.0,0.0,0.0,-6.8170166,73.90503,-18.220825
1768031466588,-1.3291016,0.20458984,0.296875,27.282715,-6.164551,-0.18310547,0.0,0.0,0.0,-6.8170166,73.90503,-18.220825
1768031466600,-1.3291016,0.20458984,0.296875,27.282715,-6.164551,-0.18310547,0.0,0.0,0.0,2.1588135,73.65784,-9.470215
1768031466688,-0.5629883,0.07861328,0.23144531,45.10498,53.649902,-58.71582,0.0,0.0,0.0,2.1588135,73.65784,-9.470215
1768031466700,-0.5629883,0.07861328,0.23144531,45.10498,53.649902,-58.71582,0.0,0.0,0.0,-16.913452,77.20642,-33.689575
1768031466788,-1.2802734,-0.0625,0.7089844,8.422852,-43.151855,21.1792,0.0,0.0,0.0,-16.913452,77.20642,-33.689575
1768031466800,-1.2802734,-0.0625,0.7089844,8.422852,-43.151855,21.1792,0.0,0.0,0.0,-16.160889,78.88733,-34.002686
1768031466887,-1.0581055,-0.16015625,-0.12402344,6.5307617,-3.2348633,8.483887,0.0,0.0,0.0,-16.160889,78.88733,-34.002686
1768031466899,-1.0581055,-0.16015625,-0.12402344,6.5307617,-3.2348633,8.483887,0.0,0.0,0.0,-3.4442139,73.602905,-18.045044
1768031466987,-0.8466797,0.00390625,0.2993164,17.028809,13.366699,-8.850098,0.0,0.0,0.0,-3.4442139,73.602905,-18.045044
1768031466999,-0.8466797,0.00390625,0.2993164,17.028809,13.366699,-8.850098,0.0,0.0,0.0,-9.036255,75.52002,-26.52649
1768031467087,-1.0351562,0.018066406,0.18847656,-38.57422,-32.65381,24.169922,0.0,0.0,0.0,-9.036255,75.52002,-26.52649
1768031467098,-1.0351562,0.018066406,0.18847656,-38.57422,-32.65381,24.169922,0.0,0.0,0.0,-4.345093,75.15747,-19.418335
1768031467187,-0.95166016,-0.015136719,0.28173828,29.60205,23.010254,-19.348145,0.0,0.0,0.0,-4.345093,75.15747,-19.418335
1768031467198,-0.95166016,-0.015136719,0.28173828,29.60205,23.010254,-19.348145,0.0,0.0,0.0,-4.2407227,74.68506,-20.198364
1768031467286,-1.0053711,-0.13964844,0.12207031,-32.65381,-23.80371,32.165527,0.0,0.0,0.0,-4.2407227,74.68506,-20.198364
1768031467298,-1.0053711,-0.13964844,0.12207031,-32.65381,-23.80371,32.165527,0.0,0.0,0.0,-0.5767822,73.98743,-15.963135
1768031467386,-1.0883789,0.13330078,0.4013672,-4.5166016,23.986816,2.8686523,0.0,0.0,0.0,-0.5767822,73.98743,-15.963135
1768031467398,-1.0883789,0.13330078,0.4013672,-4.5166016,23.986816,2.8686523,0.0,0.0,0.0,1.9171143,74.8114,-10.634766
1768031467486,-0.81152344,0.15283203,0.29736328,9.216309,7.9345703,-5.126953,0.0,0.0,0.0,1.9171143,74.8114,-10.634766
1768031467498,-0.81152344,0.15283203,0.29736328,9.216309,7.9345703,-5.126953,0.0,0.0,0.0,2.246704,75.146484,-11.085205
1768031467586,-0.9477539,0.0048828125,0.29833984,16.174316,-31.49414,7.9345703,0.0,0.0,0.0,2.246704,75.146484,-11.085205
1768031467597,-0.9477539,0.0048828125,0.29833984,16.174316,-31.49414,7.9345703,0.0,0.0,0.0,5.185547,74.75098,-10.409546
1768031467686,-0.85302734,0.018554688,0.31933594,-16.174316,10.131836,5.2490234,0.0,0.0,0.0,5.185547,74.75098,-10.409546
1768031467697,-0.85302734,0.018554688,0.31933594,-16.174316,10.131836,5.2490234,0.0,0.0,0.0,6.5039062,73.53699,-7.9925537
1768031467785,-0.9892578,-0.0078125,0.18554688,-17.456055,-29.296875,1.5869141,0.0,0.0,0.0,6.5039062,73.53699,-7.9925537
1768031467797,-0.9892578,-0.0078125,0.18554688,-17.456055,-29.296875,1.5869141,0.0,0.0,0.0,5.7403564,72.180176,-7.0092773
1768031467885,-0.97509766,0.140625,0.35839844,39.0625,-21.362305,-2.5024414,0.0,0.0,0.0,5.7403564,72.180176,-7.0092773
1768031467897,-0.97509766,0.140625,0.35839844,39.0625,-21.362305,-2.5024414,0.0,0.0,0.0,6.795044,70.44983,-8.426514
1768031467984,-0.84472656,0.025390625,0.36572266,10.803223,-30.639648,10.192871,0.0,0.0,0.0,6.795044,70.44983,-8.426514
1768031467996,-0.84472656,0.025390625,0.36572266,10.803223,-30.639648,10.192871,0.0,0.0,0.0,8.135376,67.87903,-11.239014
1768031468084,-1.1132812,-0.072265625,0.09375,-5.1879883,-27.770996,8.850098,0.0,0.0,0.0,8.135376,67.87903,-11.239014
1768031468096,-1.1132812,-0.072265625,0.09375,-5.1879883,-27.770996,8.850098,0.0,0.0,0.0,10.838013,64.07776,-6.7126465
1768031468184,-0.8564453,0.08935547,0.24951172,68.29834,56.21338,-84.41162,0.0,0.0,0.0,10.838013,64.07776,-6.7126465
1768031468196,-0.8564453,0.08935547,0.24951172,68.29834,56.21338,-84.41162,0.0,0.0,0.0,6.49292,66.884766,-16.732178
1768031468284,-1.0620117,-0.10888672,0.6455078,41.992188,102.72217,-63.354492,0.0,0.0,0.0,6.49292,66.884766,-16.732178
1768031468295,-1.0620117,-0.10888672,0.6455078,41.992188,102.72217,-63.354492,0.0,0.0,0.0,-14.864502,75.95947,-43.225708
1768031468383,-0.80859375,0.14257812,0.47753906,14.892578,-79.58984,5.6152344,0.0,0.0,0.0,-14.864502,75.95947,-43.225708
1768031468395,-0.80859375,0.14257812,0.47753906,14.892578,-79.58984,5.6152344,0.0,0.0,0.0,-27.246094,74.7345,-61.73767
1768031468483,-0.96240234,-0.14746094,0.115234375,-22.338867,-79.58984,45.34912,0.0,0.0,0.0,-27.246094,74.7345,-61.73767
1768031468494,-0.96240234,-0.14746094,0.115234375,-22.338867,-79.58984,45.34912,0.0,0.0,0.0,-5.9490967,65.615845,-37.166748
1768031468583,-0.9321289,-0.075683594,0.4033203,6.225586,49.987793,-10.7421875,0.0,0.0,0.0,-5.9490967,65.615845,-37.166748
1768031468594,-0.9321289,-0.075683594,0.4033203,6.225586,49.987793,-10.7421875,0.0,0.0,0.0,-3.746338,65.91797,-36.63391
1768031468683,-0.9550781,-0.114746094,0.45996094,-14.709473,-22.033691,10.009766,0.0,0.0,0.0,-3.746338,65.91797,-36.63391
1768031468694,-0.9550781,-0.114746094,0.45996094,-14.709473,-22.033691,10.009766,0.0,0.0,0.0,-3.9660645,67.901,-35.667114
1768031468782,-0.9194336,-0.1430664,0.34423828,-38.69629,23.620605,0.61035156,0.0,0.0,0.0,-3.9660645,67.901,-35.667114
1768031468794,-0.9194336,-0.1430664,0.34423828,-38.69629,23.620605,0.61035156,0.0,0.0,0.0,-5.125122,66.97815,-33.623657
1768031468882,-0.70654297,0.15234375,0.30029297,7.507324,43.640137,-38.879395,0.0,0.0,0.0,-5.125122,66.97815,-33.623657
1768031468893,-0.70654297,0.15234375,0.30029297,7.507324,43.640137,-38.879395,0.0,0.0,0.0,-13.936157,69.48303,-42.165527
1768031468982,-0.9980469,-0.019042969,0.55078125,-15.869141,-35.705566,15.563965,0.0,0.0,0.0,-13.936157,69.48303,-42.165527
1768031468993,-0.9980469,-0.019042969,0.55078125,-15.869141,-35.705566,15.563965,0.0,0.0,0.0,-17.918701,71.70776,-46.554565
1768031469082,-0.921875,-0.22070312,0.16357422,-13.48877,37.902832,7.6904297,0.0,0.0,0.0,-17.918701,71.70776,-46.554565
1768031469098,-0.921875,-0.22070312,0.16357422,-13.48877,37.902832,7.6904297,0.0,0.0,0.0,-13.31543,69.18091,-36.639404
1768031469182,-0.94433594,0.032714844,0.48046875,-50.78125,6.652832,38.391113,0.0,0.0,0.0,-13.31543,69.18091,-36.639404
1768031469194,-0.94433594,0.032714844,0.48046875,-50.78125,6.652832,38.391113,0.0,0.0,0.0,-13.83728,73.69629,-33.651123
1768031469283,-1.0673828,-0.19921875,-0.016113281,-74.523926,3.2958984,42.541504,0.0,0.0,0.0,-13.83728,73.69629,-33.651123
1768031469292,-1.0673828,-0.19921875,-0.016113281,-74.523926,3.2958984,42.541504,0.0,0.0,0.0,-2.5213623,72.855835,-14.249268
1768031469381,-0.91748047,0.09423828,0.32666016,-18.005371,-31.433105,8.300781,0.0,0.0,0.0,-2.5213623,72.855835,-14.249268
1768031469392,-0.91748047,0.09423828,0.32666016,-18.005371,-31.433105,8.300781,0.0,0.0,0.0,0.2746582,72.87781,-9.519653
1768031469480,-1.2163086,0.099609375,0.13964844,28.503418,-32.592773,22.033691,0.0,0.0,0.0,0.2746582,72.87781,-9.519653
1768031469492,-1.2163086,0.099609375,0.13964844,28.503418,-32.592773,22.033691,0.0,0.0,0.0,3.6309814,69.02161,-4.5043945
1768031469580,-0.8623047,0.07128906,0.23828125,74.95117,24.902344,-53.894043,0.0,0.0,0.0,3.6309814,69.02161,-4.5043945
1768031469591,-0.8623047,0.07128906,0.23828125,74.95117,24.902344,-53.894043,0.0,0.0,0.0,2.7301025,69.8291,-11.68396
1768031469680,-1.0205078,0.021972656,0.53564453,19.53125,28.747559,-1.7700195,0.0,0.0,0.0,2.7301025,69.8291,-11.68396
1768031469691,-1.0205078,0.021972656,0.53564453,19.53125,28.747559,-1.7700195,0.0,0.0,0.0,-1.5765381,73.87756,-20.654297
1768031469779,-0.8989258,-0.19433594,0.07714844,30.517578,-14.953613,-20.507812,0.0,0.0,0.0,-1.5765381,73.87756,-20.654297
1768031469791,-0.8989258,-0.19433594,0.07714844,30.517578,-14.953613,-20.507812,0.0,0.0,0.0,-1.3787842,73.45459,-22.747192
1768031469879,-0.9394531,-0.022460938,0.29638672,27.70996,-5.92041,-11.84082,0.0,0.0,0.0,-1.3787842,73.45459,-22.747192
1768031469891,-0.9394531,-0.022460938,0.29638672,27.70996,-5.92041,-11.84082,0.0,0.0,0.0,-3.8946533,73.05359,-28.355713
1768031469979,-0.91259766,-0.07373047,0.3466797,21.240234,-16.479492,-2.380371,0.0,0.0,0.0,-3.8946533,73.05359,-28.355713
1768031469990,-0.91259766,-0.07373047,0.3466797,21.240234,-16.479492,-2.380371,0.0,0.0,0.0,-4.1693115,71.9989,-32.200928
1768031470079,-1.0146484,-0.03857422,0.27783203,26.245117,-19.28711,-3.7841797,0.0,0.0,0.0,-4.1693115,71.9989,-32.200928
1768031470091,-1.0146484,-0.03857422,0.27783203,26.245117,-19.28711,-3.7841797,0.0,0.0,0.0,-2.4334717,70.03784,-31.964722
1768031470179,-1.1079102,-0.122558594,0.24316406,27.648926,-4.5166016,-7.019043,0.0,0.0,0.0,-2.4334717,70.03784,-31.964722
1768031470190,-1.1079102,-0.122558594,0.24316406,27.648926,-4.5166016,-7.019043,0.0,0.0,0.0,-1.8786621,69.3512,-34.387207
1768031470278,-1.0024414,-0.099609375,0.2915039,-45.532227,31.49414,-10.192871,0.0,0.0,0.0,-1.8786621,69.3512,-34.387207
1768031470289,-1.0024414,-0.099609375,0.2915039,-45.532227,31.49414,-10.192871,0.0,0.0,0.0,-7.5091553,71.0376,-37.46338
1768031470378,-0.765625,0.06689453,0.27392578,-7.2631836,47.058105,-20.629883,0.0,0.0,0.0,-7.5091553,71.0376,-37.46338
1768031470390,-0.765625,0.06689453,0.27392578,-7.2631836,47.058105,-20.629883,0.0,0.0,0.0,-17.814331,74.16321,-45.08789
1768031470477,-0.95751953,0.12646484,0.6074219,-9.58252,38.94043,-4.5166016,0.0,0.0,0.0,-17.814331,74.16321,-45.08789
1768031470489,-0.95751953,0.12646484,0.6074219,-9.58252,38.94043,-4.5166016,0.0,0.0,0.0,-31.832886,78.013916,-61.452026
1768031470577,-0.9379883,-0.09082031,0.19873047,-89.538574,-104.12598,80.200195,0.0,0.0,0.0,-31.832886,78.013916,-61.452026
1768031470589,-0.9379883,-0.09082031,0.19873047,-89.538574,-104.12598,80.200195,0.0,0.0,0.0,-8.778076,73.4491,-34.3927
1768031470677,-1.0102539,-0.048828125,0.24951172,23.925781,34.851074,-17.089844,0.0,0.0,0.0,-8.778076,73.4491,-34.3927
1768031470689,-1.0102539,-0.048828125,0.24951172,23.925781,34.851074,-17.089844,0.0,0.0,0.0,-0.68115234,72.93823,-20.813599
1768031470777,-0.9267578,-0.026367188,0.12109375,12.329102,-7.751465,6.713867,0.0,0.0,0.0,-0.68115234,72.93823,-20.813599
1768031470788,-0.9267578,-0.026367188,0.12109375,12.329102,-7.751465,6.713867,0.0,0.0,0.0,-2.5927734,73.515015,-25.076294
1768031470876,-0.98095703,-0.20800781,0.27001953,23.742676,31.860352,-35.88867,0.0,0.0,0.0,-2.5927734,73.515015,-25.076294
1768031470888,-0.98095703,-0.20800781,0.27001953,23.742676,31.860352,-35.88867,0.0,0.0,0.0,-6.4874268,74.88281,-30.83313
1768031470976,-1.1464844,0.020019531,0.24853516,-13.916016,0.91552734,-8.117676,0.0,0.0,0.0,-6.4874268,74.88281,-30.83313
1768031470987,-1.1464844,0.020019531,0.24853516,-13.916016,0.91552734,-8.117676,0.0,0.0,0.0,-16.847534,76.35498,-40.336304
1768031471076,-0.83984375,0.1328125,0.35253906,-22.460938,21.911621,17.211914,0.0,0.0,0.0,-16.847534,76.35498,-40.336304
1768031471087,-0.83984375,0.1328125,0.35253906,-22.460938,21.911621,17.211914,0.0,0.0,0.0,-23.302002,77.041626,-45.856934
1768031471175,-1.0532227,0.041015625,0.57128906,82.82471,-31.066895,-3.3569336,0.0,0.0,0.0,-23.302002,77.041626,-45.856934
1768031471187,-1.0532227,0.041015625,0.57128906,82.82471,-31.066895,-3.3569336,0.0,0.0,0.0,-18.336182,78.65112,-41.42395
1768031471275,-1.0102539,-0.27392578,0.091308594,20.507812,-8.361816,0.9765625,0.0,0.0,0.0,-18.336182,78.65112,-41.42395
1768031471287,-1.0102539,-0.27392578,0.091308594,20.507812,-8.361816,0.9765625,0.0,0.0,0.0,-6.3720703,74.17969,-32.178955
1768031471375,-1.0400391,0.04248047,0.29589844,4.638672,-33.38623,8.422852,0.0,0.0,0.0,-6.3720703,74.17969,-32.178955
1768031471387,-1.0400391,0.04248047,0.29589844,4.638672,-33.38623,8.422852,0.0,0.0,0.0,-4.6307373,73.619385,-31.212158
1768031471475,-0.9277344,-0.11230469,0.34716797,19.104004,23.620605,-22.644043,0.0,0.0,0.0,-4.6307373,73.619385,-31.212158
1768031471486,-0.9277344,-0.11230469,0.34716797,19.104004,23.620605,-22.644043,0.0,0.0,0.0,-5.751343,73.4491,-33.865356
1768031471575,-1.0214844,-0.021484375,0.2998047,-41.56494,-42.297363,22.521973,0.0,0.0,0.0,-5.751343,73.4491,-33.865356
1768031471586,-1.0214844,-0.021484375,0.2998047,-41.56494,-42.297363,22.521973,0.0,0.0,0.0,-6.9213867,72.60315,-32.39868
1768031471674,-0.8339844,-0.0048828125,0.29785156,-11.474609,4.0283203,-1.4648438,0.0,0.0,0.0,-6.9213867,72.60315,-32.39868
1768031471686,-0.8339844,-0.0048828125,0.29785156,-11.474609,4.0283203,-1.4648438,0.0,0.0,0.0,-6.097412,70.86731,-28.998413
1768031471774,-1.0302734,-0.15283203,0.24707031,-21.911621,-17.76123,8.361816,0.0,0.0,0.0,-6.097412,70.86731,-28.998413
1768031471785,-1.0302734,-0.15283203,0.24707031,-21.911621,-17.76123,8.361816,0.0,0.0,0.0,-5.965576,70.26306,-28.190918
1768031471873,-0.96240234,-0.110839844,0.33496094,-32.77588,-12.084961,10.498047,0.0,0.0,0.0,-5.965576,70.26306,-28.190918
1768031471885,-0.96240234,-0.110839844,0.33496094,-32.77588,-12.084961,10.498047,0.0,0.0,0.0,-5.9161377,69.15344,-24.631348
1768031471973,-1.0883789,-0.005859375,0.45751953,-47.912598,31.311035,2.8076172,0.0,0.0,0.0,-5.9161377,69.15344,-24.631348
1768031471985,-1.0883789,-0.005859375,0.45751953,-47.912598,31.311035,2.8076172,0.0,0.0,0.0,-8.530884,69.35669,-24.856567
1768031472073,-0.7084961,0.20019531,0.23046875,14.770508,-22.216797,-8.605957,0.0,0.0,0.0,-8.530884,69.35669,-24.856567
1768031472084,-0.7084961,0.20019531,0.23046875,14.770508,-22.216797,-8.605957,0.0,0.0,0.0,-11.618042,70.16968,-30.146484
1768031472173,-0.9506836,-0.07421875,0.27685547,-8.850098,-2.0751953,18.127441,0.0,0.0,0.0,-11.618042,70.16968,-30.146484
1768031472184,-0.9506836,-0.07421875,0.27685547,-8.850098,-2.0751953,18.127441,0.0,0.0,0.0,-7.827759,69.5874,-25.543213
1768031472272,-1.105957,-0.32373047,-0.06933594,-20.751953,5.9814453,5.7373047,0.0,0.0,0.0,-7.827759,69.5874,-25.543213
1768031472284,-1.105957,-0.32373047,-0.06933594,-20.751953,5.9814453,5.7373047,0.0,0.0,0.0,-2.0544434,67.88452,-17.946167
1768031472372,-0.8691406,0.14404297,0.34423828,-3.9672852,5.3100586,-18.371582,0.0,0.0,0.0,-2.0544434,67.88452,-17.946167
1768031472384,-0.8691406,0.14404297,0.34423828,-3.9672852,5.3100586,-18.371582,0.0,0.0,0.0,-10.585327,69.97742,-28.685303
1768031472472,-0.80126953,-0.0043945312,0.55371094,69.64111,-17.211914,-19.28711,0.0,0.0,0.0,-10.585327,69.97742,-28.685303
1768031472484,-0.80126953,-0.0043945312,0.55371094,69.64111,-17.211914,-19.28711,0.0,0.0,0.0,-9.569092,70.59265,-27.388916
1768031472571,-1.5297852,-0.041015625,0.5,-8.850098,-12.6953125,19.958496,0.0,0.0,0.0,-9.569092,70.59265,-27.388916
1768031472583,-1.5297852,-0.041015625,0.5,-8.850098,-12.6953125,19.958496,0.0,0.0,0.0,-10.338135,72.60315,-30.146484
1768031472671,-0.8461914,0.03955078,0.47851562,54.138184,26.000977,-8.728027,0.0,0.0,0.0,-10.338135,72.60315,-30.146484
1768031472684,-0.8461914,0.03955078,0.47851562,54.138184,26.000977,-8.728027,0.0,0.0,0.0,-10.535889,71.922,-33.48633
1768031472771,-0.9741211,-0.17480469,0.18017578,-9.277344,-42.663574,34.606934,0.0,0.0,0.0,-10.535889,71.922,-33.48633
1768031472783,-0.9741211,-0.17480469,0.18017578,-9.277344,-42.663574,34.606934,0.0,0.0,0.0,-2.6971436,70.19714,-25.817871
1768031472871,-0.9316406,-0.001953125,0.34765625,13.000488,6.3476562,-2.5634766,0.0,0.0,0.0,-2.6971436,70.19714,-25.817871
1768031472882,-0.9316406,-0.001953125,0.34765625,13.000488,6.3476562,-2.5634766,0.0,0.0,0.0,-0.8129883,69.21936,-25.037842
1768031472970,-1.0478516,0.03564453,0.46679688,3.1738281,-25.268555,10.559082,0.0,0.0,0.0,-0.8129883,69.21936,-25.037842
1768031472982,-1.0478516,0.03564453,0.46679688,3.1738281,-25.268555,10.559082,0.0,0.0,0.0,0.2142334,68.45032,-24.526978
1768031473070,-0.95410156,-0.032226562,0.26171875,10.314941,-9.70459,-0.48828125,0.0,0.0,0.0,0.2142334,68.45032,-24.526978
1768031473082,-0.95410156,-0.032226562,0.26171875,10.314941,-9.70459,-0.48828125,0.0,0.0,0.0,1.2524414,66.74744,-22.758179
1768031473170,-0.93066406,0.06542969,0.4189453,17.822266,-1.3427734,-6.4086914,0.0,0.0,0.0,1.2524414,66.74744,-22.758179
1768031473181,-0.93066406,0.06542969,0.4189453,17.822266,-1.3427734,-6.4086914,0.0,0.0,0.0,0.9613037,65.81909,-26.356201
1768031473269,-0.9316406,-0.028320312,0.4482422,33.02002,-15.991211,-36.68213,0.0,0.0,0.0,0.9613037,65.81909,-26.356201
1768031473281,-0.9316406,-0.028320312,0.4482422,33.02002,-15.991211,-36.68213,0.0,0.0,0.0,-2.0874023,66.82434,-32.41516
1768031473369,-0.8642578,-0.05419922,0.2861328,-16.113281,20.935059,-27.70996,0.0,0.0,0.0,-2.0874023,66.82434,-32.41516
1768031473381,-0.8642578,-0.05419922,0.2861328,-16.113281,20.935059,-27.70996,0.0,0.0,0.0,-6.4489746,65.64331,-36.798706
1768031473469,-0.8339844,0.36914062,0.42382812,68.78662,38.513184,-55.908203,0.0,0.0,0.0,-6.4489746,65.64331,-36.798706
1768031473480,-0.8339844,0.36914062,0.42382812,68.78662,38.513184,-55.908203,0.0,0.0,0.0,-18.495483,68.53821,-53.475952
1768031473569,-0.8901367,-0.23242188,0.58935547,6.591797,-23.31543,36.56006,0.0,0.0,0.0,-18.495483,68.53821,-53.475952
1768031473580,-0.8901367,-0.23242188,0.58935547,6.591797,-23.31543,36.56006,0.0,0.0,0.0,-16.259766,69.592896,-52.77832
1768031473668,-0.99853516,-0.3466797,0.23242188,-66.101074,-51.635742,41.137695,0.0,0.0,0.0,-16.259766,69.592896,-52.77832
1768031473680,-0.99853516,-0.3466797,0.23242188,-66.101074,-51.635742,41.137695,0.0,0.0,0.0,-6.558838,65.23682,-41.36902
1768031473768,-0.80078125,0.072265625,0.34960938,72.20459,49.194336,-50.1709,0.0,0.0,0.0,-6.558838,65.23682,-41.36902
1768031473779,-0.80078125,0.072265625,0.34960938,72.20459,49.194336,-50.1709,0.0,0.0,0.0,-5.1031494,65.37964,-39.60022
1768031473868,-1.0664062,0.12890625,0.6796875,27.22168,-15.74707,9.155273,0.0,0.0,0.0,-5.1031494,65.37964,-39.60022
1768031473879,-1.0664062,0.12890625,0.6796875,27.22168,-15.74707,9.155273,0.0,0.0,0.0,-8.640747,68.395386,-50.71289
1768031473967,-0.98046875,-0.4765625,-0.040527344,-140.13672,-54.138184,12.084961,0.0,0.0,0.0,-8.640747,68.395386,-50.71289
1768031473979,-0.98046875,-0.4765625,-0.040527344,-140.13672,-54.138184,12.084961,0.0,0.0,0.0,-6.569824,61.19934,-44.40674
1768031474067,-0.95214844,0.037597656,0.51904297,13.73291,64.086914,-37.109375,0.0,0.0,0.0,-6.569824,61.19934,-44.40674
1768031474079,-0.95214844,0.037597656,0.51904297,13.73291,64.086914,-37.109375,0.0,0.0,0.0,-8.278198,64.072266,-45.12085
1768031474167,-0.94189453,0.07519531,0.58935547,-3.540039,-2.5024414,21.78955,0.0,0.0,0.0,-8.278198,64.072266,-45.12085
1768031474178,-0.94189453,0.07519531,0.58935547,-3.540039,-2.5024414,21.78955,0.0,0.0,0.0,-13.013306,67.456055,-51.344604
1768031474267,-0.92285156,-0.15332031,0.23730469,-19.836426,-53.710938,37.841797,0.0,0.0,0.0,-13.013306,67.456055,-51.344604
1768031474278,-0.92285156,-0.15332031,0.23730469,-19.836426,-53.710938,37.841797,0.0,0.0,0.0,-5.2130127,63.38562,-39.951782
1768031474367,-0.9272461,-0.08300781,0.32958984,30.395508,8.239746,-19.836426,0.0,0.0,0.0,-5.2130127,63.38562,-39.951782
1768031474378,-0.9272461,-0.08300781,0.32958984,30.395508,8.239746,-19.836426,0.0,0.0,0.0,-3.1365967,62.089233,-38.325806
1768031474466,-0.86865234,-0.048339844,0.4970703,22.949219,12.756348,-9.155273,0.0,0.0,0.0,-3.1365967,62.089233,-38.325806
1768031474478,-0.86865234,-0.048339844,0.4970703,22.949219,12.756348,-9.155273,0.0,0.0,0.0,-3.312378,63.76465,-41.341553
1768031474566,-0.91845703,0.038085938,0.6040039,38.269043,4.333496,-22.888184,0.0,0.0,0.0,-3.312378,63.76465,-41.341553
1768031474577,-0.91845703,0.038085938,0.6040039,38.269043,4.333496,-22.888184,0.0,0.0,0.0,-4.4769287,64.56116,-46.290894
1768031474665,-0.9067383,-0.008300781,0.54003906,-8.117676,-48.52295,21.54541,0.0,0.0,0.0,-4.4769287,64.56116,-46.290894
1768031474677,-0.9067383,-0.008300781,0.54003906,-8.117676,-48.52295,21.54541,0.0,0.0,0.0,-2.746582,61.468506,-45.31311
1768031474765,-0.8647461,-0.052246094,0.33447266,-2.5634766,-24.414062,12.451172,0.0,0.0,0.0,-2.746582,61.468506,-45.31311
1768031474777,-0.8647461,-0.052246094,0.33447266,-2.5634766,-24.414062,12.451172,0.0,0.0,0.0,-0.005493164,56.94214,-41.242676
1768031474865,-0.8857422,-0.030273438,0.5107422,6.713867,32.89795,-16.845703,0.0,0.0,0.0,-0.005493164,56.94214,-41.242676
1768031474876,-0.8857422,-0.030273438,0.5107422,6.713867,32.89795,-16.845703,0.0,0.0,0.0,-0.5548096,58.914185,-42.79724
1768031474965,-0.8574219,0.01953125,0.5654297,-15.50293,3.540039,5.004883,0.0,0.0,0.0,-0.5548096,58.914185,-42.79724
1768031474977,-0.8574219,0.01953125,0.5654297,-15.50293,3.540039,5.004883,0.0,0.0,0.0,-2.1807861,60.968628,-44.37378
1768031475064,-0.91796875,-0.011230469,0.50341797,-36.865234,-31.799316,28.198242,0.0,0.0,0.0,-2.1807861,60.968628,-44.37378
1768031475076,-0.91796875,-0.011230469,0.50341797,-36.865234,-31.799316,28.198242,0.0,0.0,0.0,-1.2304688,58.897705,-40.18799
1768031475164,-0.89941406,-0.03564453,0.42871094,-6.164551,17.150879,1.953125,0.0,0.0,0.0,-1.2304688,58.897705,-40.18799
1768031475176,-0.89941406,-0.03564453,0.42871094,-6.164551,17.150879,1.953125,0.0,0.0,0.0,-0.8239746,58.24402,-37.51831
1768031475264,-0.97314453,-0.17578125,0.6801758,-15.991211,-17.578125,13.122559,0.0,0.0,0.0,-0.8239746,58.24402,-37.51831
1768031475275,-0.97314453,-0.17578125,0.6801758,-15.991211,-17.578125,13.122559,0.0,0.0,0.0,-1.8786621,60.161133,-38.012695
1768031475363,-0.5185547,-0.4482422,0.2006836,-155.0293,3.0517578,11.71875,0.0,0.0,0.0,-1.8786621,60.161133,-38.012695
1768031475375,-0.5185547,-0.4482422,0.2006836,-155.0293,3.0517578,11.71875,0.0,0.0,0.0,-9.975586,57.50244,-31.569214
1768031475463,-1.012207,0.060058594,0.51953125,119.99512,82.76367,-80.62744,0.0,0.0,0.0,-9.975586,57.50244,-31.569214
1768031475475,-1.012207,0.060058594,0.51953125,119.99512,82.76367,-80.62744,0.0,0.0,0.0,-17.495728,62.67151,-38.62793
1768031475563,-1.5786133,0.23583984,0.69433594,-71.47217,-29.907227,120.788574,0.0,0.0,0.0,-17.495728,62.67151,-38.62793
1768031475574,-1.5786133,0.23583984,0.69433594,-71.47217,-29.907227,120.788574,0.0,0.0,0.0,-14.908447,62.81433,-35.86487
1768031475663,-0.4946289,-0.53466797,0.13085938,-47.24121,-83.43506,-5.3710938,0.0,0.0,0.0,-14.908447,62.81433,-35.86487
1768031475674,-0.4946289,-0.53466797,0.13085938,-47.24121,-83.43506,-5.3710938,0.0,0.0,0.0,-1.2908936,57.18933,-18.742676
1768031475762,-0.7114258,-0.15820312,0.22460938,21.1792,134.21631,-6.4697266,0.0,0.0,0.0,-1.2908936,57.18933,-18.742676
1768031475774,-0.7114258,-0.15820312,0.22460938,21.1792,134.21631,-6.4697266,0.0,0.0,0.0,-13.029785,58.83728,-25.999146
1768031475862,-1.2299805,0.44335938,0.6948242,115.66162,-1.0986328,-69.64111,0.0,0.0,0.0,-13.029785,58.83728,-25.999146
1768031475873,-1.2299805,0.44335938,0.6948242,115.66162,-1.0986328,-69.64111,0.0,0.0,0.0,-16.627808,68.757935,-43.86841
1768031475962,-0.5332031,0.0029296875,0.36865234,-28.808594,-65.06348,79.10156,0.0,0.0,0.0,-16.627808,68.757935,-43.86841
1768031475973,-0.5332031,0.0029296875,0.36865234,-28.808594,-65.06348,79.10156,0.0,0.0,0.0,-1.3568115,65.24231,-34.227905
1768031476061,-0.69873047,-0.57666016,-0.09667969,20.080566,-4.8217773,-11.59668,0.0,0.0,0.0,-1.3568115,65.24231,-34.227905
1768031476073,-0.69873047,-0.57666016,-0.09667969,20.080566,-4.8217773,-11.59668,0.0,0.0,0.0,0.99975586,60.715942,-27.130737
1768031476161,-1.418457,0.71972656,0.66503906,133.36182,54.56543,-83.92334,0.0,0.0,0.0,0.99975586,60.715942,-27.130737
1768031476173,-1.418457,0.71972656,0.66503906,133.36182,54.56543,-83.92334,0.0,0.0,0.0,4.5098877,68.49426,-43.3136
1768031476261,-0.8310547,0.026367188,0.5151367,29.47998,16.418457,42.84668,0.0,0.0,0.0,4.5098877,68.49426,-43.3136
1768031476272,-0.8310547,0.026367188,0.5151367,29.47998,16.418457,42.84668,0.0,0.0,0.0,12.288208,71.87256,-40.028687
1768031476361,-0.56396484,-0.6123047,-0.21142578,-149.04785,-63.964844,45.410156,0.0,0.0,0.0,12.288208,71.87256,-40.028687
1768031476372,-0.56396484,-0.6123047,-0.21142578,-149.04785,-63.964844,45.410156,0.0,0.0,0.0,5.256958,66.51123,-41.385498
1768031476460,-1.9736328,0.27294922,0.9238281,-8.728027,121.64307,-60.97412,0.0,0.0,0.0,5.256958,66.51123,-41.385498
1768031476472,-1.9736328,0.27294922,0.9238281,-8.728027,121.64307,-60.97412,0.0,0.0,0.0,8.10791,68.236084,-28.432617
1768031476560,-0.67285156,0.53759766,0.39160156,16.601562,87.09717,-36.193848,0.0,0.0,0.0,8.10791,68.236084,-28.432617
1768031476572,-0.67285156,0.53759766,0.39160156,16.601562,87.09717,-36.193848,0.0,0.0,0.0,-14.150391,77.48657,-54.343872
1768031476660,-0.44921875,-0.076171875,0.43945312,-48.583984,0.12207031,28.930664,0.0,0.0,0.0,-14.150391,77.48657,-54.343872
1768031476671,-0.44921875,-0.076171875,0.43945312,-48.583984,0.12207031,28.930664,0.0,0.0,0.0,-10.673218,83.32031,-50.943604
1768031476759,-0.80810547,-0.22509766,0.34375,-66.223145,-100.5249,30.395508,0.0,0.0,0.0,-10.673218,83.32031,-50.943604
1768031476771,-0.80810547,-0.22509766,0.34375,-66.223145,-100.5249,30.395508,0.0,0.0,0.0,8.448486,74.37744,-25.41687
1768031476860,-1.4697266,0.27685547,0.2524414,-78.91846,-82.458496,23.254395,0.0,0.0,0.0,8.448486,74.37744,-25.41687
1768031476871,-1.4697266,0.27685547,0.2524414,-78.91846,-82.458496,23.254395,0.0,0.0,0.0,7.0422363,67.69226,-25.905762
1768031476959,-0.59521484,0.1274414,0.29003906,24.353027,-7.507324,-14.038086,0.0,0.0,0.0,7.0422363,67.69226,-25.905762
1768031476970,-0.59521484,0.1274414,0.29003906,24.353027,-7.507324,-14.038086,0.0,0.0,0.0,3.9935303,63.68225,-25.86731
1768031477059,-1.2900391,0.3486328,0.5673828,-19.16504,-65.73486,75.8667,0.0,0.0,0.0,3.9935303,63.68225,-25.86731
1768031477070,-1.2900391,0.3486328,0.5673828,-19.16504,-65.73486,75.8667,0.0,0.0,0.0,3.3947754,59.77661,-24.224854
1768031477158,-0.57421875,0.0126953125,0.29785156,91.18652,26.916504,-64.7583,0.0,0.0,0.0,3.3947754,59.77661,-24.224854
1768031477170,-0.57421875,0.0126953125,0.29785156,91.18652,26.916504,-64.7583,0.0,0.0,0.0,6.2512207,61.688232,-22.966919
1768031477258,-0.76123047,-0.041992188,0.51953125,-31.25,68.66455,22.460938,0.0,0.0,0.0,6.2512207,61.688232,-22.966919
1768031477270,-0.76123047,-0.041992188,0.51953125,-31.25,68.66455,22.460938,0.0,0.0,0.0,5.196533,65.9729,-28.157959
1768031477358,-0.86621094,0.20751953,0.48486328,6.225586,-31.311035,3.3569336,0.0,0.0,0.0,5.196533,65.9729,-28.157959
1768031477369,-0.86621094,0.20751953,0.48486328,6.225586,-31.311035,3.3569336,0.0,0.0,0.0,6.2512207,65.59387,-26.729736
1768031477457,-0.9711914,0.15722656,0.61376953,-6.3476562,-13.366699,11.71875,0.0,0.0,0.0,6.2512207,65.59387,-26.729736
1768031477470,-0.9711914,0.15722656,0.61376953,-6.3476562,-13.366699,11.71875,0.0,0.0,0.0,8.481445,64.209595,-24.494019
1768031477557,-0.8881836,-0.06591797,0.5996094,-9.82666,-34.240723,19.104004,0.0,0.0,0.0,8.481445,64.209595,-24.494019
1768031477569,-0.8881836,-0.06591797,0.5996094,-9.82666,-34.240723,19.104004,0.0,0.0,0.0,9.162598,60.8313,-22.873535
1768031477657,-0.8623047,0.0073242188,0.40234375,-17.028809,-59.387207,4.3945312,0.0,0.0,0.0,9.162598,60.8313,-22.873535
1768031477668,-0.8623047,0.0073242188,0.40234375,-17.028809,-59.387207,4.3945312,0.0,0.0,0.0,7.739868,55.17334,-23.900757
1768031477757,-0.8964844,0.047851562,0.39990234,1.7089844,41.503906,-23.925781,0.0,0.0,0.0,7.739868,55.17334,-23.900757
1768031477768,-0.8964844,0.047851562,0.39990234,1.7089844,41.503906,-23.925781,0.0,0.0,0.0,5.328369,53.970337,-25.334473
1768031477856,-0.85546875,0.048339844,0.5991211,-3.540039,74.279785,-22.094727,0.0,0.0,0.0,5.328369,53.970337,-25.334473
1768031477868,-0.85546875,0.048339844,0.5991211,-3.540039,74.279785,-22.094727,0.0,0.0,0.0,1.8347168,61.14441,-30.223389
1768031477956,-0.8588867,0.063964844,0.6333008,-6.225586,-12.390137,2.2583008,0.0,0.0,0.0,1.8347168,61.14441,-30.223389
1768031477968,-0.8588867,0.063964844,0.6333008,-6.225586,-12.390137,2.2583008,0.0,0.0,0.0,-0.9063721,64.63806,-33.5083
1768031478056,-0.92089844,0.11279297,0.5229492,-32.409668,-81.78711,41.137695,0.0,0.0,0.0,-0.9063721,64.63806,-33.5083
1768031478067,-0.92089844,0.11279297,0.5229492,-32.409668,-81.78711,41.137695,0.0,0.0,0.0,1.5710449,59.243774,-29.08081
1768031478155,-0.87646484,-0.020996094,0.32470703,11.779785,-11.413574,5.6762695,0.0,0.0,0.0,1.5710449,59.243774,-29.08081
1768031478167,-0.87646484,-0.020996094,0.32470703,11.779785,-11.413574,5.6762695,0.0,0.0,0.0,5.059204,53.410034,-23.670044
1768031478255,-0.8647461,0.1015625,0.4790039,55.908203,41.259766,-29.541016,0.0,0.0,0.0,5.059204,53.410034,-23.670044
1768031478267,-0.8647461,0.1015625,0.4790039,55.908203,41.259766,-29.541016,0.0,0.0,0.0,6.795044,56.079712,-26.367188
1768031478355,-0.8095703,0.09863281,0.5527344,59.020996,24.169922,-25.756836,0.0,0.0,0.0,6.795044,56.079712,-26.367188
1768031478366,-0.8095703,0.09863281,0.5527344,59.020996,24.169922,-25.756836,0.0,0.0,0.0,8.503418,60.05127,-32.03064
1768031478455,-0.8457031,0.07421875,0.5756836,6.958008,-46.63086,29.846191,0.0,0.0,0.0,8.503418,60.05127,-32.03064
1768031478466,-0.8457031,0.07421875,0.5756836,6.958008,-46.63086,29.846191,0.0,0.0,0.0,12.277222,59.82605,-32.76123
1768031478554,-0.9355469,0.06640625,0.3876953,6.8969727,-73.54736,27.770996,0.0,0.0,0.0,12.277222,59.82605,-32.76123
1768031478566,-0.9355469,0.06640625,0.3876953,6.8969727,-73.54736,27.770996,0.0,0.0,0.0,15.029297,52.717896,-30.778198
1768031478654,-0.77734375,0.18945312,0.35791016,49.316406,16.784668,-6.164551,0.0,0.0,0.0,15.029297,52.717896,-30.778198
1768031478666,-0.77734375,0.18945312,0.35791016,49.316406,16.784668,-6.164551,0.0,0.0,0.0,17.303467,50.31189,-30.794678
1768031478754,-0.9819336,0.32763672,0.5776367,76.416016,34.79004,14.099121,0.0,0.0,0.0,17.303467,50.31189,-30.794678
1768031478765,-0.9819336,0.32763672,0.5776367,76.416016,34.79004,14.099121,0.0,0.0,0.0,25.647583,55.57434,-27.531738
1768031478854,-0.8222656,0.26464844,0.47314453,-9.216309,-5.126953,57.86133,0.0,0.0,0.0,25.647583,55.57434,-27.531738
1768031478865,-0.8222656,0.26464844,0.47314453,-9.216309,-5.126953,57.86133,0.0,0.0,0.0,34.12903,52.712402,-23.389893
1768031478953,-0.8808594,-0.037597656,0.5151367,-7.019043,1.4038086,-0.91552734,0.0,0.0,0.0,34.12903,52.712402,-23.389893
1768031478965,-0.8808594,-0.037597656,0.5151367,-7.019043,1.4038086,-0.91552734,0.0,0.0,0.0,37.216187,52.201538,-20.588379
1768031479053,-0.81884766,0.34033203,0.43652344,-4.8828125,80.68848,-18.615723,0.0,0.0,0.0,37.216187,52.201538,-20.588379
1768031479064,-0.81884766,0.34033203,0.43652344,-4.8828125,80.68848,-18.615723,0.0,0.0,0.0,38.600464,56.173096,-18.995361
1768031479153,-1.15625,0.78222656,0.7988281,-3.6621094,82.88574,-69.82422,0.0,0.0,0.0,38.600464,56.173096,-18.995361
1768031479164,-1.15625,0.78222656,0.7988281,-3.6621094,82.88574,-69.82422,0.0,0.0,0.0,38.10608,67.59338,-20.20935
1768031479252,-0.9169922,0.1538086,0.3251953,-71.22803,-74.46289,27.46582,0.0,0.0,0.0,38.10608,67.59338,-20.20935
1768031479264,-0.9169922,0.1538086,0.3251953,-71.22803,-74.46289,27.46582,0.0,0.0,0.0,34.832153,65.269775,-23.411865
1768031479352,-0.56591797,0.3491211,0.2709961,5.3100586,-47.851562,54.6875,0.0,0.0,0.0,34.832153,65.269775,-23.411865
1768031479364,-0.56591797,0.3491211,0.2709961,5.3100586,-47.851562,54.6875,0.0,0.0,0.0,33.321533,57.667236,-25.812378
1768031479452,-0.9975586,0.107421875,0.5488281,-64.94141,-39.30664,-26.489258,0.0,0.0,0.0,33.321533,57.667236,-25.812378
1768031479464,-0.9975586,0.107421875,0.5488281,-64.94141,-39.30664,-26.489258,0.0,0.0,0.0,25.724487,54.266968,-28.778687
1768031479552,-1.0097656,0.32958984,0.5390625,-8.483887,5.432129,-15.319824,0.0,0.0,0.0,25.724487,54.266968,-28.778687
1768031479563,-1.0097656,0.32958984,0.5390625,-8.483887,5.432129,-15.319824,0.0,0.0,0.0,22.82959,54.332886,-35.31006
1768031479651,-0.6176758,0.09277344,0.38134766,15.625,13.61084,-32.65381,0.0,0.0,0.0,22.82959,54.332886,-35.31006
1768031479663,-0.6176758,0.09277344,0.38134766,15.625,13.61084,-32.65381,0.0,0.0,0.0,21.851807,56.381836,-38.35327
1768031479751,-0.984375,0.011230469,0.31640625,-34.729004,-25.32959,-29.846191,0.0,0.0,0.0,21.851807,56.381836,-38.35327
1768031479763,-0.984375,0.011230469,0.31640625,-34.729004,-25.32959,-29.846191,0.0,0.0,0.0,15.1501465,56.799316,-44.906616
1768031479851,-0.9379883,0.06933594,0.53222656,28.9917,136.71875,-59.99756,0.0,0.0,0.0,15.1501465,56.799316,-44.906616
1768031479862,-0.9379883,0.06933594,0.53222656,28.9917,136.71875,-59.99756,0.0,0.0,0.0,8.069458,63.858032,-48.63098
1768031479951,-1.0429688,0.50878906,0.7265625,62.561035,44.25049,-48.15674,0.0,0.0,0.0,8.069458,63.858032,-48.63098
1768031479962,-1.0429688,0.50878906,0.7265625,62.561035,44.25049,-48.15674,0.0,0.0,0.0,-10.046997,75.2948,-76.61865
1768031480050,-1.0004883,-0.030761719,0.5126953,-137.02393,-188.84277,108.64258,0.0,0.0,0.0,-10.046997,75.2948,-76.61865
1768031480062,-1.0004883,-0.030761719,0.5126953,-137.02393,-188.84277,108.64258,0.0,0.0,0.0,5.1361084,63.511963,-53.860474
1768031480150,-0.7133789,-0.25,-0.4501953,-37.65869,19.28711,-7.2021484,0.0,0.0,0.0,5.1361084,63.511963,-53.860474
1768031480161,-0.7133789,-0.25,-0.4501953,-37.65869,19.28711,-7.2021484,0.0,0.0,0.0,-5.5096436,53.519897,-45.455933
1768031480250,-1.0361328,0.18652344,0.53271484,53.466797,130.61523,-89.660645,0.0,0.0,0.0,-5.5096436,53.519897,-45.455933
1768031480261,-1.0361328,0.18652344,0.53271484,53.466797,130.61523,-89.660645,0.0,0.0,0.0,-6.668701,64.27551,-53.70117
1768031480349,-1.2084961,0.30908203,0.8354492,77.45361,76.35498,-24.414062,0.0,0.0,0.0,-6.668701,64.27551,-53.70117
1768031480361,-1.2084961,0.30908203,0.8354492,77.45361,76.35498,-24.414062,0.0,0.0,0.0,-27.108765,74.10278,-83.83118
1768031480449,-1.0649414,-0.1430664,0.56884766,-100.40283,-197.3877,87.40234,0.0,0.0,0.0,-27.108765,74.10278,-83.83118
1768031480460,-1.0649414,-0.1430664,0.56884766,-100.40283,-197.3877,87.40234,0.0,0.0,0.0,-0.86242676,64.85779,-54.206543
1768031480549,-0.66845703,-0.24414062,-0.32910156,-70.19043,-44.555664,35.461426,0.0,0.0,0.0,-0.86242676,64.85779,-54.206543
1768031480561,-0.66845703,-0.24414062,-0.32910156,-70.19043,-44.555664,35.461426,0.0,0.0,0.0,2.1203613,51.053467,-40.97351
1768031480649,-0.84033203,-0.013671875,0.38964844,36.743164,103.08838,-67.93213,0.0,0.0,0.0,2.1203613,51.053467,-40.97351
1768031480660,-0.84033203,-0.013671875,0.38964844,36.743164,103.08838,-67.93213,0.0,0.0,0.0,0.8294678,58.754883,-45.582275
1768031480748,-1.0854492,-0.12792969,0.65234375,-7.8125,91.97998,-30.517578,0.0,0.0,0.0,0.8294678,58.754883,-45.582275
1768031480760,-1.0854492,-0.12792969,0.65234375,-7.8125,91.97998,-30.517578,0.0,0.0,0.0,-10.546875,67.79114,-57.123413
1768031480848,-1.2480469,0.36035156,0.8066406,-13.85498,26.794434,-25.024414,0.0,0.0,0.0,-10.546875,67.79114,-57.123413
1768031480859,-1.2480469,0.36035156,0.8066406,-13.85498,26.794434,-25.024414,0.0,0.0,0.0,-20.786133,70.98816,-72.71301
1768031480948,-0.92871094,0.052734375,0.68408203,1.5258789,-86.54785,64.63623,0.0,0.0,0.0,-20.786133,70.98816,-72.71301
1768031480959,-0.92871094,0.052734375,0.68408203,1.5258789,-86.54785,64.63623,0.0,0.0,0.0,-9.316406,69.472046,-59.468994
1768031481048,-0.4868164,-0.109375,0.06347656,-109.00879,-198.24219,116.39404,0.0,0.0,0.0,-9.316406,69.472046,-59.468994
1768031481059,-0.4868164,-0.109375,0.06347656,-109.00879,-198.24219,116.39404,0.0,0.0,0.0,9.228516,54.82727,-38.3313
1768031481147,-0.7788086,0.12548828,0.4428711,302.063,108.52051,-10.559082,0.0,0.0,0.0,9.228516,54.82727,-38.3313
1768031481159,-0.7788086,0.12548828,0.4428711,302.063,108.52051,-10.559082,0.0,0.0,0.0,3.9550781,51.036987,-32.283325
1768031481247,-1.2480469,0.45458984,0.78027344,134.8877,200.07324,-136.77979,0.0,0.0,0.0,3.9550781,51.036987,-32.283325
1768031481258,-1.2480469,0.45458984,0.78027344,134.8877,200.07324,-136.77979,0.0,0.0,0.0,-9.354858,73.795166,-62.056274
1768031481347,-1.2338867,-0.09033203,0.86816406,-61.401367,-145.56885,95.27588,0.0,0.0,0.0,-9.354858,73.795166,-62.056274
1768031481358,-1.2338867,-0.09033203,0.86816406,-61.401367,-145.56885,95.27588,0.0,0.0,0.0,1.5710449,76.1792,-53.063965
1768031481446,-0.42089844,-0.060546875,0.12646484,-33.569336,-155.2124,87.1582,0.0,0.0,0.0,1.5710449,76.1792,-53.063965
1768031481458,-0.42089844,-0.060546875,0.12646484,-33.569336,-155.2124,87.1582,0.0,0.0,0.0,13.952637,55.97534,-36.452637
1768031481546,-0.98291016,0.049316406,0.5805664,224.06006,139.64844,-74.21875,0.0,0.0,0.0,13.952637,55.97534,-36.452637
1768031481558,-0.98291016,0.049316406,0.5805664,224.06006,139.64844,-74.21875,0.0,0.0,0.0,9.904175,55.64026,-35.914307
1768031481646,-1.5297852,0.41259766,0.8955078,115.05127,179.5044,-116.08887,0.0,0.0,0.0,9.904175,55.64026,-35.914307
1768031481658,-1.5297852,0.41259766,0.8955078,115.05127,179.5044,-116.08887,0.0,0.0,0.0,-8.492432,76.28906,-64.6875
1768031481746,-1.4228516,0.23291016,0.8564453,-76.47705,-147.3999,98.02246,0.0,0.0,0.0,-8.492432,76.28906,-64.6875
1768031481757,-1.4228516,0.23291016,0.8564453,-76.47705,-147.3999,98.02246,0.0,0.0,0.0,-8.503418,76.190186,-69.4281
1768031481846,-0.31103516,-0.037597656,0.0107421875,-20.019531,-170.59326,99.975586,0.0,0.0,0.0,-8.503418,76.190186,-69.4281
1768031481858,-0.31103516,-0.037597656,0.0107421875,-20.019531,-170.59326,99.975586,0.0,0.0,0.0,14.7821045,56.541138,-40.962524
1768031481945,-0.8383789,-0.08496094,-0.41992188,124.45068,87.70752,-29.418945,0.0,0.0,0.0,14.7821045,56.541138,-40.962524
1768031481956,-0.8383789,-0.08496094,-0.41992188,124.45068,87.70752,-29.418945,0.0,0.0,0.0,-1.2908936,51.19629,-37.0459
1768031482045,-1.4018555,0.35253906,0.76464844,61.584473,215.20996,-113.40332,0.0,0.0,0.0,-1.2908936,51.19629,-37.0459
1768031482056,-1.4018555,0.35253906,0.76464844,61.584473,215.20996,-113.40332,0.0,0.0,0.0,1.2359619,68.26904,-48.949585
1768031482144,-0.82714844,0.4189453,1.1166992,9.033203,-5.3710938,48.88916,0.0,0.0,0.0,1.2359619,68.26904,-48.949585
1768031482156,-0.82714844,0.4189453,1.1166992,9.033203,-5.3710938,48.88916,0.0,0.0,0.0,-41.363525,81.47461,-103.24402
1768031482244,-1.2919922,0.07128906,0.6489258,-58.898926,-269.34814,127.197266,0.0,0.0,0.0,-41.363525,81.47461,-103.24402
1768031482255,-1.2919922,0.07128906,0.6489258,-58.898926,-269.34814,127.197266,0.0,0.0,0.0,9.146118,66.41235,-47.285156
1768031482344,-1.1533203,-0.37353516,-1.2495117,-3.6621094,130.67627,-20.935059,0.0,0.0,0.0,9.146118,66.41235,-47.285156
1768031482355,-1.1533203,-0.37353516,-1.2495117,-3.6621094,130.67627,-20.935059,0.0,0.0,0.0,12.041016,49.191284,-34.942017
1768031482443,-0.7871094,0.20117188,0.4765625,127.50244,140.56396,-142.63916,0.0,0.0,0.0,12.041016,49.191284,-34.942017
1768031482455,-0.7871094,0.20117188,0.4765625,127.50244,140.56396,-142.63916,0.0,0.0,0.0,11.167603,68.05481,-47.444458
1768031482543,-1.2651367,0.14794922,1.0522461,32.470703,68.603516,-37.78076,0.0,0.0,0.0,11.167603,68.05481,-47.444458
1768031482555,-1.2651367,0.14794922,1.0522461,32.470703,68.603516,-37.78076,0.0,0.0,0.0,-33.914795,82.0459,-97.61902
1768031482643,-1.2563477,0.43847656,0.5722656,-99.67041,-231.62842,123.10791,0.0,0.0,0.0,-33.914795,82.0459,-97.61902
1768031482654,-1.2563477,0.43847656,0.5722656,-99.67041,-231.62842,123.10791,0.0,0.0,0.0,-5.8776855,73.097534,-66.901245
1768031482743,-0.8979492,-0.53125,-0.9394531,-99.731445,9.887695,7.3242188,0.0,0.0,0.0,-5.8776855,73.097534,-66.901245
1768031482754,-0.8979492,-0.53125,-0.9394531,-99.731445,9.887695,7.3242188,0.0,0.0,0.0,5.4382324,52.580566,-40.039673
1768031482842,-0.8173828,0.15429688,0.50927734,-13.48877,115.356445,-70.495605,0.0,0.0,0.0,5.4382324,52.580566,-40.039673
1768031482854,-0.8173828,0.15429688,0.50927734,-13.48877,115.356445,-70.495605,0.0,0.0,0.0,-1.038208,63.6438,-50.619507
1768031482942,-1.1958008,0.14892578,0.7285156,33.081055,140.07568,-63.537598,0.0,0.0,0.0,-1.038208,63.6438,-50.619507
1768031482954,-1.1958008,0.14892578,0.7285156,33.081055,140.07568,-63.537598,0.0,0.0,0.0,-24.801636,75.355225,-75.20691
1768031483042,-0.91748047,0.32373047,0.71777344,57.006836,-36.987305,8.972168,0.0,0.0,0.0,-24.801636,75.355225,-75.20691
1768031483053,-0.91748047,0.32373047,0.71777344,57.006836,-36.987305,8.972168,0.0,0.0,0.0,-43.97278,76.63513,-102.41455
1768031483142,-0.87597656,-0.04345703,0.31835938,-114.990234,-201.29395,94.54346,0.0,0.0,0.0,-43.97278,76.63513,-102.41455
1768031483153,-0.87597656,-0.04345703,0.31835938,-114.990234,-201.29395,94.54346,0.0,0.0,0.0,-7.432251,64.47876,-57.716675
1768031483241,-0.98828125,-0.14013672,0.020996094,80.322266,57.128906,-16.296387,0.0,0.0,0.0,-7.432251,64.47876,-57.716675
1768031483253,-0.98828125,-0.14013672,0.020996094,80.322266,57.128906,-16.296387,0.0,0.0,0.0,-3.581543,60.809326,-48.103638
1768031483341,-1.1450195,0.111816406,0.6538086,22.583008,75.43945,-28.869629,0.0,0.0,0.0,-3.581543,60.809326,-48.103638
1768031483352,-1.1450195,0.111816406,0.6538086,22.583008,75.43945,-28.869629,0.0,0.0,0.0,-12.711182,69.33472,-59.63379
1768031483441,-0.9550781,0.37597656,0.6064453,40.100098,87.95166,-49.01123,0.0,0.0,0.0,-12.711182,69.33472,-59.63379
1768031483452,-0.9550781,0.37597656,0.6064453,40.100098,87.95166,-49.01123,0.0,0.0,0.0,-30.514526,75.267334,-81.83716
1768031483540,-0.7519531,0.125,0.5761719,7.446289,-88.68408,62.13379,0.0,0.0,0.0,-30.514526,75.267334,-81.83716
1768031483552,-0.7519531,0.125,0.5761719,7.446289,-88.68408,62.13379,0.0,0.0,0.0,-21.23108,75.8551,-73.47107
1768031483640,-1.215332,-0.23730469,0.10986328,-151.00098,-190.91797,117.370605,0.0,0.0,0.0,-21.23108,75.8551,-73.47107
1768031483652,-1.215332,-0.23730469,0.10986328,-151.00098,-190.91797,117.370605,0.0,0.0,0.0,0.64819336,59.194336,-36.743774
1768031483740,-1.1162109,0.14355469,0.39111328,95.825195,105.71289,-67.993164,0.0,0.0,0.0,0.64819336,59.194336,-36.743774
1768031483751,-1.1162109,0.14355469,0.39111328,95.825195,105.71289,-67.993164,0.0,0.0,0.0,3.6749268,59.749146,-33.530273
1768031483839,-0.6484375,0.1743164,0.44433594,78.186035,166.1377,-85.20508,0.0,0.0,0.0,3.6749268,59.749146,-33.530273
1768031483851,-0.6484375,0.1743164,0.44433594,78.186035,166.1377,-85.20508,0.0,0.0,0.0,-17.567139,76.61316,-66.26404
1768031483939,-0.99072266,-0.14794922,0.67626953,-75.927734,-66.28418,26.550293,0.0,0.0,0.0,-17.567139,76.61316,-66.26404
1768031483951,-0.99072266,-0.14794922,0.67626953,-75.927734,-66.28418,26.550293,0.0,0.0,0.0,-10.272217,77.32178,-55.513916
1768031484039,-0.9277344,0.1772461,0.49560547,-26.855469,-139.95361,42.72461,0.0,0.0,0.0,-10.272217,77.32178,-55.513916
1768031484051,-0.9277344,0.1772461,0.49560547,-26.855469,-139.95361,42.72461,0.0,0.0,0.0,0.69763184,66.75842,-41.621704
1768031484139,-0.95947266,0.026855469,0.32617188,-41.748047,-70.92285,61.950684,0.0,0.0,0.0,0.69763184,66.75842,-41.621704
1768031484150,-0.95947266,0.026855469,0.32617188,-41.748047,-70.92285,61.950684,0.0,0.0,0.0,6.8554688,53.42102,-28.811646
1768031484239,-0.8984375,0.12060547,0.484375,36.743164,51.3916,-37.963867,0.0,0.0,0.0,6.8554688,53.42102,-28.811646
1768031484250,-0.8984375,0.12060547,0.484375,36.743164,51.3916,-37.963867,0.0,0.0,0.0,7.470703,54.51416,-30.140991
1768031484338,-0.90722656,0.11279297,0.5727539,67.81006,44.37256,-26.611328,0.0,0.0,0.0,7.470703,54.51416,-30.140991
1768031484350,-0.90722656,0.11279297,0.5727539,67.81006,44.37256,-26.611328,0.0,0.0,0.0,7.734375,61.644287,-34.502563
1768031484438,-0.8754883,0.13085938,0.5239258,-52.368164,-40.893555,58.044434,0.0,0.0,0.0,7.734375,61.644287,-34.502563
1768031484450,-0.8754883,0.13085938,0.5239258,-52.368164,-40.893555,58.044434,0.0,0.0,0.0,11.541138,58.55713,-33.71704
1768031484538,-0.78027344,-0.103027344,0.4140625,16.296387,-25.08545,-12.6953125,0.0,0.0,0.0,11.541138,58.55713,-33.71704
1768031484549,-0.78027344,-0.103027344,0.4140625,16.296387,-25.08545,-12.6953125,0.0,0.0,0.0,13.029785,55.6073,-30.904541
1768031484637,-0.9082031,0.07861328,0.4086914,-1.3427734,3.9672852,-3.7841797,0.0,0.0,0.0,13.029785,55.6073,-30.904541
1768031484649,-0.9082031,0.07861328,0.4086914,-1.3427734,3.9672852,-3.7841797,0.0,0.0,0.0,12.266235,55.57434,-32.590942
1768031484737,-0.9145508,0.052246094,0.50927734,4.5166016,30.639648,-12.268066,0.0,0.0,0.0,12.266235,55.57434,-32.590942
1768031484748,-0.9145508,0.052246094,0.50927734,4.5166016,30.639648,-12.268066,0.0,0.0,0.0,11.656494,57.590332,-35.15625
1768031484837,-0.75927734,0.09472656,0.4560547,13.244629,18.676758,-28.686523,0.0,0.0,0.0,11.656494,57.590332,-35.15625
1768031484848,-0.75927734,0.09472656,0.4560547,13.244629,18.676758,-28.686523,0.0,0.0,0.0,10.2282715,60.875244,-38.23242
1768031484936,-0.70410156,0.2319336,0.37304688,57.495117,52.368164,-34.729004,0.0,0.0,0.0,10.2282715,60.875244,-38.23242
1768031484948,-0.70410156,0.2319336,0.37304688,57.495117,52.368164,-34.729004,0.0,0.0,0.0,8.366089,64.660034,-43.253174
1768031485036,-1.1499023,0.13916016,0.72216797,-32.470703,-3.2348633,1.0375977,0.0,0.0,0.0,8.366089,64.660034,-43.253174
1768031485048,-1.1499023,0.13916016,0.72216797,-32.470703,-3.2348633,1.0375977,0.0,0.0,0.0,6.899414,68.170166,-49.21875
1768031485136,-1.0551758,-0.100097656,0.44726562,-42.419434,-65.42969,44.921875,0.0,0.0,0.0,6.899414,68.170166,-49.21875
1768031485148,-1.0551758,-0.100097656,0.44726562,-42.419434,-65.42969,44.921875,0.0,0.0,0.0,9.091187,61.726685,-45.269165
1768031485236,-0.62939453,-0.005859375,0.18066406,-6.4697266,34.42383,-34.66797,0.0,0.0,0.0,9.091187,61.726685,-45.269165
1768031485247,-0.62939453,-0.005859375,0.18066406,-6.4697266,34.42383,-34.66797,0.0,0.0,0.0,6.8170166,60.33142,-45.41748
1768031485335,-0.4272461,-0.15625,0.16552734,-36.56006,31.00586,-40.161133,0.0,0.0,0.0,6.8170166,60.33142,-45.41748
1768031485347,-0.4272461,-0.15625,0.16552734,-36.56006,31.00586,-40.161133,0.0,0.0,0.0,-3.5980225,64.83032,-53.61328
1768031485435,-1.3305664,0.07714844,0.50439453,3.8452148,48.034668,-37.53662,0.0,0.0,0.0,-3.5980225,64.83032,-53.61328
1768031485446,-1.3305664,0.07714844,0.50439453,3.8452148,48.034668,-37.53662,0.0,0.0,0.0,-12.650757,65.736694,-60.144653
1768031485535,-1.1855469,0.30517578,0.7158203,96.49658,79.89502,-57.9834,0.0,0.0,0.0,-12.650757,65.736694,-60.144653
1768031485546,-1.1855469,0.30517578,0.7158203,96.49658,79.89502,-57.9834,0.0,0.0,0.0,-30.992432,71.14197,-86.09985
1768031485634,-1.0336914,-4.8828125E-4,0.7026367,-19.348145,-103.149414,77.20947,0.0,0.0,0.0,-30.992432,71.14197,-86.09985
1768031485646,-1.0336914,-4.8828125E-4,0.7026367,-19.348145,-103.149414,77.20947,0.0,0.0,0.0,-15.518188,69.9115,-76.79443
1768031485734,-0.80810547,-0.2993164,0.34228516,16.052246,-114.50195,43.884277,0.0,0.0,0.0,-15.518188,69.9115,-76.79443
1768031485746,-0.80810547,-0.2993164,0.34228516,16.052246,-114.50195,43.884277,0.0,0.0,0.0,3.5980225,58.848267,-53.64624
1768031485834,-0.6381836,-0.15429688,-0.04296875,28.381348,52.06299,-11.230469,0.0,0.0,0.0,3.5980225,58.848267,-53.64624
1768031485846,-0.6381836,-0.15429688,-0.04296875,28.381348,52.06299,-11.230469,0.0,0.0,0.0,-1.1315918,55.86548,-52.789307
1768031485934,-1.0585938,-0.10546875,0.5966797,-63.598633,40.46631,-7.2021484,0.0,0.0,0.0,-1.1315918,55.86548,-52.789307
1768031485945,-1.0585938,-0.10546875,0.5966797,-63.598633,40.46631,-7.2021484,0.0,0.0,0.0,-2.982788,61.90796,-53.096924
1768031486033,-0.9458008,0.3017578,0.5415039,97.29004,46.14258,-57.86133,0.0,0.0,0.0,-2.982788,61.90796,-53.096924
1768031486045,-0.9458008,0.3017578,0.5415039,97.29004,46.14258,-57.86133,0.0,0.0,0.0,-9.645996,66.95068,-59.87549
1768031486133,-0.9140625,0.26904297,0.6230469,-37.353516,28.9917,13.85498,0.0,0.0,0.0,-9.645996,66.95068,-59.87549
1768031486145,-0.9140625,0.26904297,0.6230469,-37.353516,28.9917,13.85498,0.0,0.0,0.0,-11.623535,69.730225,-69.971924
1768031486233,-0.8701172,-0.25732422,0.4970703,-62.62207,-90.63721,49.194336,0.0,0.0,0.0,-11.623535,69.730225,-69.971924
1768031486244,-0.8701172,-0.25732422,0.4970703,-62.62207,-90.63721,49.194336,0.0,0.0,0.0,-2.6641846,66.6156,-56.77185
1768031486333,-0.97265625,-0.016601562,0.103027344,-32.592773,-30.944824,36.499023,0.0,0.0,0.0,-2.6641846,66.6156,-56.77185
1768031486344,-0.97265625,-0.016601562,0.103027344,-32.592773,-30.944824,36.499023,0.0,0.0,0.0,2.7960205,57.41455,-43.758545
1768031486432,-0.8925781,-0.008300781,0.47753906,40.46631,42.541504,-35.03418,0.0,0.0,0.0,2.7960205,57.41455,-43.758545
1768031486444,-0.8925781,-0.008300781,0.47753906,40.46631,42.541504,-35.03418,0.0,0.0,0.0,4.1693115,59.996338,-44.49463
1768031486532,-0.7817383,-0.13574219,0.49609375,-18.615723,7.080078,-0.79345703,0.0,0.0,0.0,4.1693115,59.996338,-44.49463
1768031486543,-0.7817383,-0.13574219,0.49609375,-18.615723,7.080078,-0.79345703,0.0,0.0,0.0,0.8734131,63.85254,-49.51538
1768031486632,-0.8857422,0.099609375,0.36035156,-16.845703,0.61035156,12.6953125,0.0,0.0,0.0,0.8734131,63.85254,-49.51538
1768031486643,-0.8857422,0.099609375,0.36035156,-16.845703,0.61035156,12.6953125,0.0,0.0,0.0,0.84594727,61.506958,-45.043945
1768031486731,-0.96240234,0.19238281,0.5854492,27.282715,67.68799,-31.555176,0.0,0.0,0.0,0.84594727,61.506958,-45.043945
1768031486743,-0.96240234,0.19238281,0.5854492,27.282715,67.68799,-31.555176,0.0,0.0,0.0,-3.4991455,65.90149,-50.460205
1768031486831,-0.84033203,-0.029296875,0.5566406,20.690918,-9.643555,-17.211914,0.0,0.0,0.0,-3.4991455,65.90149,-50.460205
1768031486843,-0.84033203,-0.029296875,0.5566406,20.690918,-9.643555,-17.211914,0.0,0.0,0.0,-6.932373,69.142456,-56.376343
1768031486931,-0.8754883,-0.05419922,0.46044922,-4.4555664,-34.5459,10.559082,0.0,0.0,0.0,-6.932373,69.142456,-56.376343
1768031486942,-0.8754883,-0.05419922,0.46044922,-4.4555664,-34.5459,10.559082,0.0,0.0,0.0,-5.6359863,66.08826,-55.87097
1768031487031,-0.88427734,-0.13378906,0.17919922,-12.084961,1.0375977,1.0375977,0.0,0.0,0.0,-5.6359863,66.08826,-55.87097
1768031487042,-0.88427734,-0.13378906,0.17919922,-12.084961,1.0375977,1.0375977,0.0,0.0,0.0,-4.520874,62.545166,-51.641235
1768031487130,-1.0043945,-0.033691406,0.43798828,0.12207031,8.850098,-2.319336,0.0,0.0,0.0,-4.520874,62.545166,-51.641235
1768031487142,-1.0043945,-0.033691406,0.43798828,0.12207031,8.850098,-2.319336,0.0,0.0,0.0,-6.7071533,64.03381,-52.992554
1768031487230,-1.1000977,-0.11669922,0.5361328,-18.493652,21.30127,4.272461,0.0,0.0,0.0,-6.7071533,64.03381,-52.992554
1768031487242,-1.1000977,-0.11669922,0.5361328,-18.493652,21.30127,4.272461,0.0,0.0,0.0,-7.531128,65.35217,-51.937866
1768031487330,-0.80810547,0.068847656,0.4375,-8.544922,1.6479492,-2.1972656,0.0,0.0,0.0,-7.531128,65.35217,-51.937866
1768031487341,-0.80810547,0.068847656,0.4375,-8.544922,1.6479492,-2.1972656,0.0,0.0,0.0,-10.030518,66.604614,-53.041992
1768031487429,-0.96728516,0.17773438,0.47851562,-5.859375,-13.793945,15.991211,0.0,0.0,0.0,-10.030518,66.604614,-53.041992
1768031487442,-0.96728516,0.17773438,0.47851562,-5.859375,-13.793945,15.991211,0.0,0.0,0.0,-7.338867,66.32446,-49.77356
1768031487529,-0.9458008,-0.1352539,0.29638672,4.638672,-15.441895,19.226074,0.0,0.0,0.0,-7.338867,66.32446,-49.77356
1768031487541,-0.9458008,-0.1352539,0.29638672,4.638672,-15.441895,19.226074,0.0,0.0,0.0,-0.8843994,64.714966,-42.835693
1768031487629,-0.8823242,-0.084472656,0.4404297,-3.4179688,11.657715,5.432129,0.0,0.0,0.0,-0.8843994,64.714966,-42.835693
1768031487640,-0.8823242,-0.084472656,0.4404297,-3.4179688,11.657715,5.432129,0.0,0.0,0.0,1.2854004,66.04431,-40.594482
1768031487729,-0.88134766,0.0063476562,0.36083984,-21.972656,-20.690918,16.906738,0.0,0.0,0.0,1.2854004,66.04431,-40.594482
1768031487740,-0.88134766,0.0063476562,0.36083984,-21.972656,-20.690918,16.906738,0.0,0.0,0.0,1.5820312,65.20935,-38.215942
1768031487828,-0.9868164,0.021484375,0.36083984,-4.8217773,10.253906,3.3569336,0.0,0.0,0.0,1.5820312,65.20935,-38.215942
1768031487840,-0.9868164,0.021484375,0.36083984,-4.8217773,10.253906,3.3569336,0.0,0.0,0.0,1.9830322,64.98413,-35.71106
1768031487928,-1.0068359,0.07519531,0.4194336,30.639648,13.061523,-6.4086914,0.0,0.0,0.0,1.9830322,64.98413,-35.71106
1768031487940,-1.0068359,0.07519531,0.4194336,30.639648,13.061523,-6.4086914,0.0,0.0,0.0,1.873169,66.12671,-36.084595
1768031488028,-0.8330078,0.036621094,0.39941406,-4.760742,22.216797,-6.958008,0.0,0.0,0.0,1.873169,66.12671,-36.084595
1768031488039,-0.8330078,0.036621094,0.39941406,-4.760742,22.216797,-6.958008,0.0,0.0,0.0,-1.472168,68.24707,-40.561523
1768031488127,-0.8642578,0.12207031,0.51416016,22.521973,44.37256,-11.779785,0.0,0.0,0.0,-1.472168,68.24707,-40.561523
1768031488139,-0.8642578,0.12207031,0.51416016,22.521973,44.37256,-11.779785,0.0,0.0,0.0,-1.8786621,71.74072,-41.82495
1768031488228,-0.7729492,-0.0390625,0.45996094,-36.987305,-39.001465,28.564453,0.0,0.0,0.0,-1.8786621,71.74072,-41.82495
1768031488239,-0.7729492,-0.0390625,0.45996094,-36.987305,-39.001465,28.564453,0.0,0.0,0.0,2.7685547,70.27954,-37.512817
1768031488327,-0.97265625,0.04296875,0.34423828,-17.211914,-67.87109,24.963379,0.0,0.0,0.0,2.7685547,70.27954,-37.512817
1768031488338,-0.97265625,0.04296875,0.34423828,-17.211914,-67.87109,24.963379,0.0,0.0,0.0,6.795044,64.055786,-31.338501
1768031488427,-0.96777344,-0.02734375,0.3569336,18.371582,16.052246,-12.268066,0.0,0.0,0.0,6.795044,64.055786,-31.338501
1768031488438,-0.96777344,-0.02734375,0.3569336,18.371582,16.052246,-12.268066,0.0,0.0,0.0,7.426758,61.957397,-29.94873
1768031488526,-0.89746094,0.0126953125,0.43701172,-3.4179688,-11.291504,-5.493164,0.0,0.0,0.0,7.426758,61.957397,-29.94873
1768031488538,-0.89746094,0.0126953125,0.43701172,-3.4179688,-11.291504,-5.493164,0.0,0.0,0.0,5.7788086,63.12744,-32.56897
1768031488626,-0.8676758,-0.049804688,0.34423828,-17.27295,-4.8217773,0.9765625,0.0,0.0,0.0,5.7788086,63.12744,-32.56897
1768031488638,-0.8676758,-0.049804688,0.34423828,-17.27295,-4.8217773,0.9765625,0.0,0.0,0.0,4.1088867,62.08374,-32.843628
1768031488726,-0.9707031,-0.0078125,0.43310547,-19.226074,10.375977,-2.6855469,0.0,0.0,0.0,4.1088867,62.08374,-32.843628
1768031488738,-0.9707031,-0.0078125,0.43310547,-19.226074,10.375977,-2.6855469,0.0,0.0,0.0,1.8951416,62.440796,-32.81067
1768031488826,-0.96435547,0.08935547,0.515625,23.254395,16.479492,-17.578125,0.0,0.0,0.0,1.8951416,62.440796,-32.81067
1768031488837,-0.96435547,0.08935547,0.515625,23.254395,16.479492,-17.578125,0.0,0.0,0.0,-0.4888916,63.97339,-36.65039
1768031488925,-0.8442383,-0.025390625,0.44384766,5.1879883,-13.793945,9.460449,0.0,0.0,0.0,-0.4888916,63.97339,-36.65039
1768031488937,-0.8442383,-0.025390625,0.44384766,5.1879883,-13.793945,9.460449,0.0,0.0,0.0,-0.087890625,64.03381,-37.798462
1768031489025,-0.8857422,-0.049804688,0.24316406,1.0375977,-11.535645,6.8969727,0.0,0.0,0.0,-0.087890625,64.03381,-37.798462
1768031489036,-0.8857422,-0.049804688,0.24316406,1.0375977,-11.535645,6.8969727,0.0,0.0,0.0,1.9390869,61.92444,-35.403442
1768031489125,-0.92871094,-0.17138672,0.49804688,-26.489258,85.69336,-8.911133,0.0,0.0,0.0,1.9390869,61.92444,-35.403442
1768031489136,-0.92871094,-0.17138672,0.49804688,-26.489258,85.69336,-8.911133,0.0,0.0,0.0,-0.28564453,65.81909,-35.5188
1768031489224,-0.7089844,0.35839844,0.3569336,25.939941,19.714355,-25.146484,0.0,0.0,0.0,-0.28564453,65.81909,-35.5188
1768031489236,-0.7089844,0.35839844,0.3569336,25.939941,19.714355,-25.146484,0.0,0.0,0.0,-5.0811768,67.93945,-45.17578
1768031489324,-1.0473633,0.013183594,0.62402344,-12.817383,-39.55078,22.338867,0.0,0.0,0.0,-5.0811768,67.93945,-45.17578
1768031489336,-1.0473633,0.013183594,0.62402344,-12.817383,-39.55078,22.338867,0.0,0.0,0.0,-0.20324707,68.4668,-42.835693
1768031489424,-1.0708008,-0.080078125,0.3227539,-26.306152,-50.04883,57.739258,0.0,0.0,0.0,-0.20324707,68.4668,-42.835693
1768031489435,-1.0708008,-0.080078125,0.3227539,-26.306152,-50.04883,57.739258,0.0,0.0,0.0,6.4160156,62.852783,-34.67285
1768031489524,-0.8652344,0.03515625,0.26611328,14.404297,46.26465,-18.310547,0.0,0.0,0.0,6.4160156,62.852783,-34.67285
1768031489535,-0.8652344,0.03515625,0.26611328,14.404297,46.26465,-18.310547,0.0,0.0,0.0,6.9543457,62.83081,-31.07483
1768031489623,-0.94921875,0.052734375,0.5410156,4.699707,32.958984,-8.605957,0.0,0.0,0.0,6.9543457,62.83081,-31.07483
1768031489635,-0.94921875,0.052734375,0.5410156,4.699707,32.958984,-8.605957,0.0,0.0,0.0,5.1031494,67.543945,-33.865356
1768031489723,-0.96972656,0.027832031,0.4501953,-19.226074,-4.9438477,8.239746,0.0,0.0,0.0,5.1031494,67.543945,-33.865356
1768031489735,-0.96972656,0.027832031,0.4501953,-19.226074,-4.9438477,8.239746,0.0,0.0,0.0,4.1693115,68.05481,-33.711548
1768031489823,-0.84228516,0.023925781,0.3569336,-24.475098,-21.30127,7.2021484,0.0,0.0,0.0,4.1693115,68.05481,-33.711548
1768031489834,-0.84228516,0.023925781,0.3569336,-24.475098,-21.30127,7.2021484,0.0,0.0,0.0,3.5375977,66.62109,-32.382202
1768031489922,-0.97265625,0.07080078,0.44140625,-27.22168,-11.413574,20.690918,0.0,0.0,0.0,3.5375977,66.62109,-32.382202
1768031489934,-0.97265625,0.07080078,0.44140625,-27.22168,-11.413574,20.690918,0.0,0.0,0.0,2.7905273,65.46753,-29.404907
1768031490022,-1.0610352,-0.07128906,0.4501953,-17.39502,-12.939453,1.0986328,0.0,0.0,0.0,2.7905273,65.46753,-29.404907
1768031490034,-1.0610352,-0.07128906,0.4501953,-17.39502,-12.939453,1.0986328,0.0,0.0,0.0,1.4117432,64.91272,-28.729248
1768031490122,-0.81884766,0.08105469,0.36621094,-10.803223,-0.7324219,3.7231445,0.0,0.0,0.0,1.4117432,64.91272,-28.729248
1768031490133,-0.81884766,0.08105469,0.36621094,-10.803223,-0.7324219,3.7231445,0.0,0.0,0.0,0.7141113,63.566895,-27.67456
1768031490221,-0.9921875,0.03564453,0.5263672,27.038574,0.79345703,-6.4697266,0.0,0.0,0.0,0.7141113,63.566895,-27.67456
1768031490233,-0.9921875,0.03564453,0.5263672,27.038574,0.79345703,-6.4697266,0.0,0.0,0.0,0.703125,64.3689,-28.668823
1768031490321,-0.8535156,-0.09667969,0.41503906,0.18310547,-12.451172,-1.8310547,0.0,0.0,0.0,0.703125,64.3689,-28.668823
1768031490333,-0.8535156,-0.09667969,0.41503906,0.18310547,-12.451172,-1.8310547,0.0,0.0,0.0,0.4888916,63.654785,-30.333252
1768031490421,-0.9091797,-0.05126953,0.36279297,4.5776367,4.272461,-6.958008,0.0,0.0,0.0,0.4888916,63.654785,-30.333252
1768031490432,-0.9091797,-0.05126953,0.36279297,4.5776367,4.272461,-6.958008,0.0,0.0,0.0,0.115356445,62.65503,-30.74524
1768031490521,-0.9145508,-0.03955078,0.5029297,16.845703,16.967773,-16.906738,0.0,0.0,0.0,0.115356445,62.65503,-30.74524
1768031490532,-0.9145508,-0.03955078,0.5029297,16.845703,16.967773,-16.906738,0.0,0.0,0.0,-1.7962646,64.15466,-34.453125
1768031490620,-0.8984375,0.01953125,0.5253906,32.226562,-6.713867,-17.8833,0.0,0.0,0.0,-1.7962646,64.15466,-34.453125
1768031490632,-0.8984375,0.01953125,0.5253906,32.226562,-6.713867,-17.8833,0.0,0.0,0.0,-3.5046387,64.77539,-38.831177
1768031490720,-0.90722656,-0.083984375,0.4658203,-2.380371,-23.132324,11.779785,0.0,0.0,0.0,-3.5046387,64.77539,-38.831177
1768031490732,-0.90722656,-0.083984375,0.4658203,-2.380371,-23.132324,11.779785,0.0,0.0,0.0,-2.3181152,63.078003,-39.67163
1768031490820,-0.97216797,-0.05029297,0.48486328,-17.822266,-15.686035,0.8544922,0.0,0.0,0.0,-2.3181152,63.078003,-39.67163
1768031490831,-0.97216797,-0.05029297,0.48486328,-17.822266,-15.686035,0.8544922,0.0,0.0,0.0,-2.208252,61.14441,-37.803955
1768031490920,-0.8310547,0.14892578,0.40527344,19.28711,6.958008,-8.911133,0.0,0.0,0.0,-2.208252,61.14441,-37.803955
1768031490931,-0.8310547,0.14892578,0.40527344,19.28711,6.958008,-8.911133,0.0,0.0,0.0,-2.9663086,60.216064,-38.90808
1768031491019,-0.85595703,-0.045410156,0.48339844,14.526367,2.0141602,6.4086914,0.0,0.0,0.0,-2.9663086,60.216064,-38.90808
1768031491031,-0.85595703,-0.045410156,0.48339844,14.526367,2.0141602,6.4086914,0.0,0.0,0.0,-0.58776855,61.018066,-38.221436
1768031491119,-0.80810547,-0.01953125,0.47558594,15.319824,-5.3100586,0.48828125,0.0,0.0,0.0,-0.58776855,61.018066,-38.221436
1768031491131,-0.80810547,-0.01953125,0.47558594,15.319824,-5.3100586,0.48828125,0.0,0.0,0.0,1.4886475,60.858765,-38.55652
1768031491219,-0.8208008,-0.049804688,0.4584961,-16.174316,-15.136719,25.512695,0.0,0.0,0.0,1.4886475,60.858765,-38.55652
1768031491231,-0.8208008,-0.049804688,0.4584961,-16.174316,-15.136719,25.512695,0.0,0.0,0.0,3.378296,60.029297,-36.194458
1768031491319,-1.1850586,-0.07763672,0.40625,-28.9917,-18.981934,27.22168,0.0,0.0,0.0,3.378296,60.029297,-36.194458
1768031491330,-1.1850586,-0.07763672,0.40625,-28.9917,-18.981934,27.22168,0.0,0.0,0.0,5.795288,56.95862,-31.23413
1768031491418,-0.6513672,-0.027832031,0.2241211,20.812988,58.654785,-57.128906,0.0,0.0,0.0,5.795288,56.95862,-31.23413
1768031491430,-0.6513672,-0.027832031,0.2241211,20.812988,58.654785,-57.128906,0.0,0.0,0.0,2.307129,60.358887,-34.315796
1768031491518,-1.1865234,0.2705078,0.72998047,19.104004,105.895996,-35.095215,0.0,0.0,0.0,2.307129,60.358887,-34.315796
1768031491529,-1.1865234,0.2705078,0.72998047,19.104004,105.895996,-35.095215,0.0,0.0,0.0,-7.7948,70.15869,-48.97705
1768031491618,-0.9482422,0.12207031,0.6098633,-8.239746,-51.208496,47.60742,0.0,0.0,0.0,-7.7948,70.15869,-48.97705
1768031491629,-0.9482422,0.12207031,0.6098633,-8.239746,-51.208496,47.60742,0.0,0.0,0.0,-1.1151123,69.971924,-44.659424
1768031491718,-0.93896484,-0.19726562,0.23730469,-30.88379,-97.0459,56.884766,0.0,0.0,0.0,-1.1151123,69.971924,-44.659424
1768031491729,-0.93896484,-0.19726562,0.23730469,-30.88379,-97.0459,56.884766,0.0,0.0,0.0,9.118652,59.589844,-29.816895
1768031491817,-0.9345703,0.0126953125,0.25830078,39.55078,31.799316,-19.958496,0.0,0.0,0.0,9.118652,59.589844,-29.816895
1768031491829,-0.9345703,0.0126953125,0.25830078,39.55078,31.799316,-19.958496,0.0,0.0,0.0,10.71167,58.656006,-28.26233
1768031491917,-0.90234375,0.028808594,0.52001953,4.0893555,44.128418,-14.038086,0.0,0.0,0.0,10.71167,58.656006,-28.26233
1768031491929,-0.90234375,0.028808594,0.52001953,4.0893555,44.128418,-14.038086,0.0,0.0,0.0,10.030518,64.63806,-31.876831
1768031492016,-0.7705078,0.034179688,0.4321289,7.873535,6.591797,-32.043457,0.0,0.0,0.0,10.030518,64.63806,-31.876831
1768031492028,-0.7705078,0.034179688,0.4321289,7.873535,6.591797,-32.043457,0.0,0.0,0.0,7.432251,66.275024,-35.733032
1768031492116,-0.94628906,0.15478516,0.44628906,12.145996,-16.235352,-11.901855,0.0,0.0,0.0,7.432251,66.275024,-35.733032
1768031492128,-0.94628906,0.15478516,0.44628906,12.145996,-16.235352,-11.901855,0.0,0.0,0.0,3.7243652,65.70923,-40.808716
1768031492216,-0.84228516,0.018066406,0.4375,16.479492,9.887695,-8.300781,0.0,0.0,0.0,3.7243652,65.70923,-40.808716
1768031492227,-0.84228516,0.018066406,0.4375,16.479492,9.887695,-8.300781,0.0,0.0,0.0,4.1693115,66.00586,-41.7041
1768031492316,-0.8984375,-0.09082031,0.5678711,37.41455,7.3242188,-23.31543,0.0,0.0,0.0,4.1693115,66.00586,-41.7041
1768031492327,-0.8984375,-0.09082031,0.5678711,37.41455,7.3242188,-23.31543,0.0,0.0,0.0,2.4554443,66.97266,-46.010742
1768031492416,-0.9550781,-4.8828125E-4,0.25830078,-51.208496,-31.12793,18.798828,0.0,0.0,0.0,2.4554443,66.97266,-46.010742
1768031492427,-0.9550781,-4.8828125E-4,0.25830078,-51.208496,-31.12793,18.798828,0.0,0.0,0.0,0.2142334,63.83606,-47.93335
1768031492515,-1.0766602,-0.022949219,0.40478516,14.099121,21.78955,-31.433105,0.0,0.0,0.0,0.2142334,63.83606,-47.93335
1768031492527,-1.0766602,-0.022949219,0.40478516,14.099121,21.78955,-31.433105,0.0,0.0,0.0,-4.5703125,64.489746,-49.295654
1768031492615,-0.43603516,0.23632812,0.25097656,51.086426,6.3476562,-10.498047,0.0,0.0,0.0,-4.5703125,64.489746,-49.295654
1768031492626,-0.43603516,0.23632812,0.25097656,51.086426,6.3476562,-10.498047,0.0,0.0,0.0,-5.2734375,66.57715,-55.05249
1768031492714,-1.3979492,0.12109375,0.7841797,-31.37207,-62.25586,81.17676,0.0,0.0,0.0,-5.2734375,66.57715,-55.05249
1768031492726,-1.3979492,0.12109375,0.7841797,-31.37207,-62.25586,81.17676,0.0,0.0,0.0,4.3286133,64.51721,-45.181274
1768031492814,-0.9345703,-0.111816406,0.095703125,22.583008,26.794434,35.88867,0.0,0.0,0.0,4.3286133,64.51721,-45.181274
1768031492826,-0.9345703,-0.111816406,0.095703125,22.583008,26.794434,35.88867,0.0,0.0,0.0,11.392822,57.821045,-32.08557
1768031492914,-0.88623047,0.15039062,0.58154297,17.39502,72.87598,-8.728027,0.0,0.0,0.0,11.392822,57.821045,-32.08557
1768031492925,-0.88623047,0.15039062,0.58154297,17.39502,72.87598,-8.728027,0.0,0.0,0.0,15.177612,65.198364,-30.234375
1768031493014,-0.8754883,0.17041016,0.56689453,-39.978027,-36.865234,37.719727,0.0,0.0,0.0,15.177612,65.198364,-30.234375
1768031493026,-0.8754883,0.17041016,0.56689453,-39.978027,-36.865234,37.719727,0.0,0.0,0.0,18.253784,66.26404,-25.823364
1768031493113,-0.8720703,0.03466797,0.28955078,-47.36328,-62.86621,44.311523,0.0,0.0,0.0,18.253784,66.26404,-25.823364
1768031493125,-0.8720703,0.03466797,0.28955078,-47.36328,-62.86621,44.311523,0.0,0.0,0.0,17.451782,57.908936,-21.66504
1768031493213,-0.9614258,0.21142578,0.42285156,39.367676,47.36328,-28.869629,0.0,0.0,0.0,17.451782,57.908936,-21.66504
1768031493225,-0.9614258,0.21142578,0.42285156,39.367676,47.36328,-28.869629,0.0,0.0,0.0,19.0448,58.21106,-21.6156
1768031493313,-0.6816406,0.19189453,0.45117188,72.08252,64.575195,-50.964355,0.0,0.0,0.0,19.0448,58.21106,-21.6156
1768031493324,-0.6816406,0.19189453,0.45117188,72.08252,64.575195,-50.964355,0.0,0.0,0.0,19.6875,66.36841,-27.125244
1768031493413,-0.9042969,0.21582031,0.6230469,-0.12207031,-22.949219,9.94873,0.0,0.0,0.0,19.6875,66.36841,-27.125244
1768031493425,-0.9042969,0.21582031,0.6230469,-0.12207031,-22.949219,9.94873,0.0,0.0,0.0,19.89624,68.48328,-32.129517
1768031493512,-0.88134766,0.09716797,0.41601562,-50.29297,-93.566895,44.006348,0.0,0.0,0.0,19.89624,68.48328,-32.129517
1768031493524,-0.88134766,0.09716797,0.41601562,-50.29297,-93.566895,44.006348,0.0,0.0,0.0,18.890991,60.43579,-31.794434
1768031493612,-0.8833008,9.765625E-4,0.27294922,-18.493652,-3.1738281,-1.8920898,0.0,0.0,0.0,18.890991,60.43579,-31.794434
1768031493623,-0.8833008,9.765625E-4,0.27294922,-18.493652,-3.1738281,-1.8920898,0.0,0.0,0.0,16.062012,54.56909,-30.06958
1768031493712,-1.0,0.15478516,0.55126953,11.779785,60.668945,-13.61084,0.0,0.0,0.0,16.062012,54.56909,-30.06958
1768031493723,-1.0,0.15478516,0.55126953,11.779785,60.668945,-13.61084,0.0,0.0,0.0,13.7109375,58.189087,-31.349487
1768031493811,-0.8066406,0.45654297,0.49560547,54.32129,18.676758,-19.28711,0.0,0.0,0.0,13.7109375,58.189087,-31.349487
1768031493823,-0.8066406,0.45654297,0.49560547,54.32129,18.676758,-19.28711,0.0,0.0,0.0,16.221313,61.973877,-36.655884
1768031493911,-0.89697266,0.13916016,0.5029297,-24.230957,-43.33496,46.813965,0.0,0.0,0.0,16.221313,61.973877,-36.655884
1768031493923,-0.89697266,0.13916016,0.5029297,-24.230957,-43.33496,46.813965,0.0,0.0,0.0,17.20459,59.891968,-34.541016
1768031494011,-0.8442383,0.076660156,0.41015625,6.5307617,1.2817383,20.812988,0.0,0.0,0.0,17.20459,59.891968,-34.541016
1768031494022,-0.8442383,0.076660156,0.41015625,6.5307617,1.2817383,20.812988,0.0,0.0,0.0,19.962158,56.56311,-29.349976
1768031494111,-0.8955078,0.27246094,0.5078125,11.474609,13.122559,-9.216309,0.0,0.0,0.0,19.962158,56.56311,-29.349976
1768031494122,-0.8955078,0.27246094,0.5078125,11.474609,13.122559,-9.216309,0.0,0.0,0.0,22.494507,57.46399,-29.6521
1768031494210,-0.8510742,0.041992188,0.4814453,10.437012,-37.597656,-1.2817383,0.0,0.0,0.0,22.494507,57.46399,-29.6521
1768031494222,-0.8510742,0.041992188,0.4814453,10.437012,-37.597656,-1.2817383,0.0,0.0,0.0,22.164917,57.55188,-31.38794
1768031494310,-0.77685547,0.10644531,0.4868164,46.813965,33.75244,-38.635254,0.0,0.0,0.0,22.164917,57.55188,-31.38794
1768031494322,-0.77685547,0.10644531,0.4868164,46.813965,33.75244,-38.635254,0.0,0.0,0.0,21.115723,57.46399,-34.453125
1768031494410,-0.7319336,0.39501953,0.4423828,28.076172,12.329102,-14.831543,0.0,0.0,0.0,21.115723,57.46399,-34.453125
1768031494421,-0.7319336,0.39501953,0.4423828,28.076172,12.329102,-14.831543,0.0,0.0,0.0,19.099731,61.09497,-40.19348
1768031494509,-0.9301758,0.21582031,0.56689453,0.0,-18.371582,12.573242,0.0,0.0,0.0,19.099731,61.09497,-40.19348
1768031494521,-0.9301758,0.21582031,0.56689453,0.0,-18.371582,12.573242,0.0,0.0,0.0,19.121704,60.479736,-41.105347
1768031494609,-0.8178711,0.110839844,0.5620117,-3.7231445,-36.010742,24.719238,0.0,0.0,0.0,19.121704,60.479736,-41.105347
1768031494621,-0.8178711,0.110839844,0.5620117,-3.7231445,-36.010742,24.719238,0.0,0.0,0.0,21.346436,57.3761,-40.97351
1768031494709,-0.8208008,0.100097656,0.38330078,-42.114258,-64.697266,32.287598,0.0,0.0,0.0,21.346436,57.3761,-40.97351
1768031494720,-0.8208008,0.100097656,0.38330078,-42.114258,-64.697266,32.287598,0.0,0.0,0.0,19.940186,51.135864,-40.69336
1768031494809,-1.0366211,0.2548828,0.48095703,67.74902,77.33154,-30.578613,0.0,0.0,0.0,19.940186,51.135864,-40.69336
1768031494820,-1.0366211,0.2548828,0.48095703,67.74902,77.33154,-30.578613,0.0,0.0,0.0,20.066528,51.289673,-38.710327
1768031494908,-0.7714844,0.49560547,0.48486328,32.592773,105.83496,-59.692383,0.0,0.0,0.0,20.066528,51.289673,-38.710327
1768031494920,-0.7714844,0.49560547,0.48486328,32.592773,105.83496,-59.692383,0.0,0.0,0.0,26.73523,63.292236,-42.65442
1768031495008,-0.8847656,0.19677734,0.6088867,-13.061523,-36.56006,39.42871,0.0,0.0,0.0,26.73523,63.292236,-42.65442
1768031495020,-0.8847656,0.19677734,0.6088867,-13.061523,-36.56006,39.42871,0.0,0.0,0.0,31.190186,67.005615,-40.17151
1768031495108,-0.89160156,-0.15527344,0.06738281,-61.340332,-50.109863,16.784668,0.0,0.0,0.0,31.190186,67.005615,-40.17151
1768031495119,-0.89160156,-0.15527344,0.06738281,-61.340332,-50.109863,16.784668,0.0,0.0,0.0,27.196655,58.634033,-41.1438
1768031495207,-1.0834961,0.29833984,0.53027344,-1.8310547,10.375977,-12.023926,0.0,0.0,0.0,27.196655,58.634033,-41.1438
1768031495219,-1.0834961,0.29833984,0.53027344,-1.8310547,10.375977,-12.023926,0.0,0.0,0.0,24.087524,58.458252,-42.27539
1768031495307,-0.7495117,0.3256836,0.3798828,56.030273,53.710938,-42.297363,0.0,0.0,0.0,24.087524,58.458252,-42.27539
1768031495319,-0.7495117,0.3256836,0.3798828,56.030273,53.710938,-42.297363,0.0,0.0,0.0,26.229858,62.995605,-44.538574
1768031495407,-0.80615234,0.26464844,0.49560547,-78.61328,-28.259277,28.015137,0.0,0.0,0.0,26.229858,62.995605,-44.538574
1768031495418,-0.80615234,0.26464844,0.49560547,-78.61328,-28.259277,28.015137,0.0,0.0,0.0,26.790161,63.97888,-48.68042
1768031495507,-0.8823242,0.07373047,0.52490234,12.634277,-25.6958,-7.3242188,0.0,0.0,0.0,26.790161,63.97888,-48.68042
1768031495518,-0.8823242,0.07373047,0.52490234,12.634277,-25.6958,-7.3242188,0.0,0.0,0.0,24.642334,60.545654,-48.081665
1768031495606,-0.8774414,0.31884766,0.44335938,-23.254395,-41.07666,20.263672,0.0,0.0,0.0,24.642334,60.545654,-48.081665
1768031495618,-0.8774414,0.31884766,0.44335938,-23.254395,-41.07666,20.263672,0.0,0.0,0.0,22.785645,57.7771,-51.503906
1768031495706,-0.87158203,0.15136719,0.32861328,-35.705566,-31.49414,19.836426,0.0,0.0,0.0,22.785645,57.7771,-51.503906
1768031495717,-0.87158203,0.15136719,0.32861328,-35.705566,-31.49414,19.836426,0.0,0.0,0.0,21.088257,53.135376,-50.932617
1768031495806,-0.78759766,0.10058594,0.37353516,9.521484,45.043945,-18.432617,0.0,0.0,0.0,21.088257,53.135376,-50.932617
1768031495817,-0.78759766,0.10058594,0.37353516,9.521484,45.043945,-18.432617,0.0,0.0,0.0,21.159668,54.799805,-50.89966
1768031495905,-0.73339844,0.28857422,0.43017578,-2.380371,56.9458,-26.855469,0.0,0.0,0.0,21.159668,54.799805,-50.89966
1768031495917,-0.73339844,0.28857422,0.43017578,-2.380371,56.9458,-26.855469,0.0,0.0,0.0,21.763916,60.825806,-53.410034
1768031496005,-1.043457,0.25439453,0.6435547,4.0283203,1.5869141,-5.2490234,0.0,0.0,0.0,21.763916,60.825806,-53.410034
1768031496017,-1.043457,0.25439453,0.6435547,4.0283203,1.5869141,-5.2490234,0.0,0.0,0.0,20.709229,64.4458,-53.964844
1768031496105,-0.80908203,0.22558594,0.44335938,-23.31543,-65.49072,38.879395,0.0,0.0,0.0,20.709229,64.4458,-53.964844
1768031496116,-0.80908203,0.22558594,0.44335938,-23.31543,-65.49072,38.879395,0.0,0.0,0.0,21.082764,59.100952,-53.71216
1768031496205,-1.0336914,-0.20703125,0.29785156,-27.09961,-9.58252,-1.4648438,0.0,0.0,0.0,21.082764,59.100952,-53.71216
1768031496216,-1.0336914,-0.20703125,0.29785156,-27.09961,-9.58252,-1.4648438,0.0,0.0,0.0,18.8031,54.61853,-51.828003
1768031496304,-0.59765625,0.104003906,0.22998047,-31.677246,5.2490234,-3.2348633,0.0,0.0,0.0,18.8031,54.61853,-51.828003
1768031496316,-0.59765625,0.104003906,0.22998047,-31.677246,5.2490234,-3.2348633,0.0,0.0,0.0,16.21582,56.118164,-52.542114
1768031496404,-1.1416016,0.095214844,0.38232422,89.538574,23.864746,-4.5776367,0.0,0.0,0.0,16.21582,56.118164,-52.542114
1768031496415,-1.1416016,0.095214844,0.38232422,89.538574,23.864746,-4.5776367,0.0,0.0,0.0,11.442261,59.639282,-52.53662
1768031496504,-0.7441406,0.4194336,0.42382812,46.38672,94.36035,-64.208984,0.0,0.0,0.0,11.442261,59.639282,-52.53662
1768031496515,-0.7441406,0.4194336,0.42382812,46.38672,94.36035,-64.208984,0.0,0.0,0.0,4.7076416,71.01013,-68.79089
1768031496603,-0.9584961,0.020019531,0.7236328,32.958984,-39.367676,33.447266,0.0,0.0,0.0,4.7076416,71.01013,-68.79089
1768031496615,-0.9584961,0.020019531,0.7236328,32.958984,-39.367676,33.447266,0.0,0.0,0.0,14.831543,73.064575,-61.765137
1768031496703,-1.0776367,-0.009765625,0.38183594,-15.075684,-146.85059,68.54248,0.0,0.0,0.0,14.831543,73.064575,-61.765137
1768031496715,-1.0776367,-0.009765625,0.38183594,-15.075684,-146.85059,68.54248,0.0,0.0,0.0,19.06128,59.39209,-56.20056
1768031496803,-0.9916992,-0.12841797,0.27783203,-25.939941,82.6416,-10.192871,0.0,0.0,0.0,19.06128,59.39209,-56.20056
1768031496814,-0.9916992,-0.12841797,0.27783203,-25.939941,82.6416,-10.192871,0.0,0.0,0.0,17.506714,60.100708,-57.024536
1768031496903,-0.8071289,-0.028808594,0.47070312,-26.611328,-38.69629,-26.123047,0.0,0.0,0.0,17.506714,60.100708,-57.024536
1768031496914,-0.8071289,-0.028808594,0.47070312,-26.611328,-38.69629,-26.123047,0.0,0.0,0.0,9.684448,62.078247,-61.397095
1768031497002,-0.80859375,0.22607422,0.17773438,-22.033691,-50.354004,-5.2490234,0.0,0.0,0.0,9.684448,62.078247,-61.397095
1768031497014,-0.80859375,0.22607422,0.17773438,-22.033691,-50.354004,-5.2490234,0.0,0.0,0.0,5.718384,58.392334,-65.77515
1768031497102,-1.0537109,-0.088378906,0.45263672,-69.82422,231.01807,-17.76123,0.0,0.0,0.0,5.718384,58.392334,-65.77515
1768031497114,-1.0537109,-0.088378906,0.45263672,-69.82422,231.01807,-17.76123,0.0,0.0,0.0,0.7910156,64.44031,-63.33069
1768031497202,-0.8222656,0.56884766,0.4716797,29.541016,111.6333,-85.57129,0.0,0.0,0.0,0.7910156,64.44031,-63.33069
1768031497213,-0.8222656,0.56884766,0.4716797,29.541016,111.6333,-85.57129,0.0,0.0,0.0,-23.69751,74.816895,-99.2395
1768031497302,-0.9223633,0.07763672,0.6323242,-147.64404,-75.31738,95.21484,0.0,0.0,0.0,-23.69751,74.816895,-99.2395
1768031497313,-0.9223633,0.07763672,0.6323242,-147.64404,-75.31738,95.21484,0.0,0.0,0.0,-13.216553,77.32178,-86.20972
1768031497401,-1.3012695,-0.43945312,-0.55078125,-294.7998,1.0375977,35.03418,0.0,0.0,0.0,-13.216553,77.32178,-86.20972
1768031497413,-1.3012695,-0.43945312,-0.55078125,-294.7998,1.0375977,35.03418,0.0,0.0,0.0,-4.0979004,67.60986,-56.140137
1768031497501,-1.1547852,0.27783203,0.61376953,-9.155273,45.59326,12.451172,0.0,0.0,0.0,-4.0979004,67.60986,-56.140137
1768031497513,-1.1547852,0.27783203,0.61376953,-9.155273,45.59326,12.451172,0.0,0.0,0.0,5.383301,71.29028,-48.95508
1768031497601,-1.3120117,-0.421875,-0.09033203,-0.5493164,29.052734,-23.620605,0.0,0.0,0.0,5.383301,71.29028,-48.95508
1768031497612,-1.3120117,-0.421875,-0.09033203,-0.5493164,29.052734,-23.620605,0.0,0.0,0.0,4.987793,71.70227,-43.687134
1768031497700,-1.2260742,0.5498047,0.4423828,103.8208,54.016113,-63.23242,0.0,0.0,0.0,4.987793,71.70227,-43.687134
1768031497712,-1.2260742,0.5498047,0.4423828,103.8208,54.016113,-63.23242,0.0,0.0,0.0,-21.258545,77.25037,-76.37146
1768031497800,-0.45703125,0.17675781,0.18261719,15.258789,39.0625,-34.057617,0.0,0.0,0.0,-21.258545,77.25037,-76.37146
1768031497812,-0.45703125,0.17675781,0.18261719,15.258789,39.0625,-34.057617,0.0,0.0,0.0,-57.17285,78.96423,-111.16516
1768031497900,-0.99853516,-0.38085938,0.12597656,-103.759766,-81.29883,2.6855469,0.0,0.0,0.0,-57.17285,78.96423,-111.16516
1768031497912,-0.99853516,-0.38085938,0.12597656,-103.759766,-81.29883,2.6855469,0.0,0.0,0.0,-34.94751,80.08484,-89.95056
1768031498000,-0.98876953,-0.03125,0.29541016,60.791016,7.6293945,-4.333496,0.0,0.0,0.0,-34.94751,80.08484,-89.95056
1768031498011,-0.98876953,-0.03125,0.29541016,60.791016,7.6293945,-4.333496,0.0,0.0,0.0,-23.961182,76.970215,-78.37097
1768031498099,-1.0698242,-0.19726562,0.43017578,31.00586,5.1879883,-5.6152344,0.0,0.0,0.0,-23.961182,76.970215,-78.37097
1768031498111,-1.0698242,-0.19726562,0.43017578,31.00586,5.1879883,-5.6152344,0.0,0.0,0.0,-23.587646,76.85486,-78.20618
1768031498199,-1.0375977,-0.07470703,0.29101562,-42.84668,-38.45215,34.057617,0.0,0.0,0.0,-23.587646,76.85486,-78.20618
1768031498210,-1.0375977,-0.07470703,0.29101562,-42.84668,-38.45215,34.057617,0.0,0.0,0.0,-18.533936,75.4541,-69.01062
1768031498299,-0.89990234,-0.13623047,0.3701172,-3.4179688,16.174316,-7.6904297,0.0,0.0,0.0,-18.533936,75.4541,-69.01062
1768031498310,-0.89990234,-0.13623047,0.3701172,-3.4179688,16.174316,-7.6904297,0.0,0.0,0.0,-14.408569,74.04236,-59.79309
1768031498398,-1.2763672,0.15673828,0.5913086,-62.74414,-42.907715,38.33008,0.0,0.0,0.0,-14.408569,74.04236,-59.79309
1768031498410,-1.2763672,0.15673828,0.5913086,-62.74414,-42.907715,38.33008,0.0,0.0,0.0,-16.116943,74.50928,-57.178345
1768031498498,-0.84472656,-0.049804688,0.15185547,-34.973145,21.66748,22.338867,0.0,0.0,0.0,-16.116943,74.50928,-57.178345
1768031498510,-0.84472656,-0.049804688,0.15185547,-34.973145,21.66748,22.338867,0.0,0.0,0.0,-11.14563,73.2074,-39.23767
1768031498598,-0.98876953,0.12451172,0.01953125,-77.39258,-52.4292,46.569824,0.0,0.0,0.0,-11.14563,73.2074,-39.23767
1768031498609,-0.98876953,0.12451172,0.01953125,-77.39258,-52.4292,46.569824,0.0,0.0,0.0,-8.245239,72.4823,-28.822632
1768031498698,-1.0175781,-0.16601562,0.20800781,98.2666,39.367676,-59.753418,0.0,0.0,0.0,-8.245239,72.4823,-28.822632
1768031498709,-1.0175781,-0.16601562,0.20800781,98.2666,39.367676,-59.753418,0.0,0.0,0.0,-4.8779297,73.69629,-25.004883
1768031498797,-0.8105469,-0.25634766,0.5097656,-33.691406,16.845703,26.916504,0.0,0.0,0.0,-4.8779297,73.69629,-25.004883
1768031498810,-0.8105469,-0.25634766,0.5097656,-33.691406,16.845703,26.916504,0.0,0.0,0.0,-20.588379,74.729004,-44.110107
1768031498897,-1.0805664,-0.049804688,0.2685547,-43.33496,23.254395,18.798828,0.0,0.0,0.0,-20.588379,74.729004,-44.110107
1768031498908,-1.0805664,-0.049804688,0.2685547,-43.33496,23.254395,18.798828,0.0,0.0,0.0,-10.046997,75.563965,-28.806152
1768031498997,-0.82470703,-0.029296875,0.24072266,-45.10498,-0.79345703,52.612305,0.0,0.0,0.0,-10.046997,75.563965,-28.806152
1768031499008,-0.82470703,-0.029296875,0.24072266,-45.10498,-0.79345703,52.612305,0.0,0.0,0.0,-6.9213867,77.61841,-20.9729
1768031499097,-1.0571289,-0.05517578,-0.052246094,-20.690918,0.24414062,16.845703,0.0,0.0,0.0,-6.9213867,77.61841,-20.9729
1768031499108,-1.0571289,-0.05517578,-0.052246094,-20.690918,0.24414062,16.845703,0.0,0.0,0.0,6.4160156,75.74524,-1.2799072
1768031499196,-0.8076172,0.06738281,0.20947266,41.992188,-9.887695,-8.7890625,0.0,0.0,0.0,6.4160156,75.74524,-1.2799072
1768031499208,-0.8076172,0.06738281,0.20947266,41.992188,-9.887695,-8.7890625,0.0,0.0,0.0,6.0424805,76.16821,-3.147583
1768031499296,-0.97314453,-0.0107421875,0.23925781,-13.61084,-40.283203,25.57373,0.0,0.0,0.0,6.0424805,76.16821,-3.147583
1768031499307,-0.97314453,-0.0107421875,0.23925781,-13.61084,-40.283203,25.57373,0.0,0.0,0.0,10.090942,73.59741,0.39001465
1768031499396,-1.0078125,0.052246094,0.29833984,24.902344,-9.277344,-17.211914,0.0,0.0,0.0,10.090942,73.59741,0.39001465
1768031499407,-1.0078125,0.052246094,0.29833984,24.902344,-9.277344,-17.211914,0.0,0.0,0.0,10.876465,70.84534,1.5161133
1768031499495,-1.0639648,0.0014648438,0.25878906,43.21289,-31.677246,-20.629883,0.0,0.0,0.0,10.876465,70.84534,1.5161133
1768031499507,-1.0639648,0.0014648438,0.25878906,43.21289,-31.677246,-20.629883,0.0,0.0,0.0,7.7233887,69.8291,-5.1416016
1768031499595,-0.76660156,0.015136719,0.27246094,58.71582,10.681152,-49.804688,0.0,0.0,0.0,7.7233887,69.8291,-5.1416016
1768031499606,-0.76660156,0.015136719,0.27246094,58.71582,10.681152,-49.804688,0.0,0.0,0.0,3.1420898,69.697266,-13.293457
1768031499695,-1.0336914,0.052246094,0.5913086,7.751465,14.587402,-6.225586,0.0,0.0,0.0,3.1420898,69.697266,-13.293457
1768031499706,-1.0336914,0.052246094,0.5913086,7.751465,14.587402,-6.225586,0.0,0.0,0.0,-2.4829102,72.47681,-23.170166
1768031499794,-0.8730469,-0.022460938,0.2685547,-42.175293,-24.536133,33.14209,0.0,0.0,0.0,-2.4829102,72.47681,-23.170166
1768031499806,-0.8730469,-0.022460938,0.2685547,-42.175293,-24.536133,33.14209,0.0,0.0,0.0,0.60424805,70.29053,-18.808594
1768031499894,-0.96435547,-0.076171875,0.16992188,4.8217773,31.738281,-20.446777,0.0,0.0,0.0,0.60424805,70.29053,-18.808594
1768031499906,-0.96435547,-0.076171875,0.16992188,4.8217773,31.738281,-20.446777,0.0,0.0,0.0,0.7196045,70.059814,-15.688477
1768031499994,-1.0234375,0.015136719,0.5058594,-23.07129,20.629883,9.94873,0.0,0.0,0.0,0.7196045,70.059814,-15.688477
1768031500005,-1.0234375,0.015136719,0.5058594,-23.07129,20.629883,9.94873,0.0,0.0,0.0,-2.6586914,73.2074,-18.792114
1768031500094,-0.85009766,-0.013183594,0.2788086,-18.981934,-17.211914,14.038086,0.0,0.0,0.0,-2.6586914,73.2074,-18.792114
1768031500106,-0.85009766,-0.013183594,0.2788086,-18.981934,-17.211914,14.038086,0.0,0.0,0.0,2.4005127,71.72974,-9.684448
1768031500193,-1.0004883,0.088378906,0.27490234,42.053223,-4.333496,-6.8969727,0.0,0.0,0.0,2.4005127,71.72974,-9.684448
1768031500205,-1.0004883,0.088378906,0.27490234,42.053223,-4.333496,-6.8969727,0.0,0.0,0.0,2.208252,71.015625,-11.326904
1768031500293,-0.8730469,-0.19140625,0.2446289,19.470215,-3.90625,-2.9296875,0.0,0.0,0.0,2.208252,71.015625,-11.326904
1768031500305,-0.8730469,-0.19140625,0.2446289,19.470215,-3.90625,-2.9296875,0.0,0.0,0.0,3.916626,70.81238,-13.244019
1768031500393,-0.9033203,-9.765625E-4,0.33007812,5.6762695,-22.888184,-2.5024414,0.0,0.0,0.0,3.916626,70.81238,-13.244019
1768031500404,-0.9033203,-9.765625E-4,0.33007812,5.6762695,-22.888184,-2.5024414,0.0,0.0,0.0,4.1638184,69.27429,-12.925415
1768031500492,-0.9067383,-0.03955078,0.32861328,-0.30517578,-12.939453,4.272461,0.0,0.0,0.0,4.1638184,69.27429,-12.925415
1768031500504,-0.9067383,-0.03955078,0.32861328,-0.30517578,-12.939453,4.272461,0.0,0.0,0.0,3.4881592,68.236084,-14.551392
1768031500592,-1.0136719,-0.0043945312,0.3647461,0.6713867,-1.5258789,-2.2583008,0.0,0.0,0.0,3.4881592,68.236084,-14.551392
1768031500604,-1.0136719,-0.0043945312,0.3647461,0.6713867,-1.5258789,-2.2583008,0.0,0.0,0.0,4.0429688,67.335205,-13.117676
1768031500692,-0.9970703,0.15820312,0.54345703,18.310547,-3.7841797,-14.892578,0.0,0.0,0.0,4.0429688,67.335205,-13.117676
1768031500703,-0.9970703,0.15820312,0.54345703,18.310547,-3.7841797,-14.892578,0.0,0.0,0.0,1.9390869,67.91199,-16.600342
1768031500792,-0.84472656,-0.09863281,0.28466797,-18.798828,-11.291504,2.6855469,0.0,0.0,0.0,1.9390869,67.91199,-16.600342
1768031500803,-0.84472656,-0.09863281,0.28466797,-18.798828,-11.291504,2.6855469,0.0,0.0,0.0,1.1975098,66.47278,-16.600342
1768031500892,-1.0146484,0.091796875,0.36767578,19.836426,23.254395,-20.141602,0.0,0.0,0.0,1.1975098,66.47278,-16.600342
1768031500903,-1.0146484,0.091796875,0.36767578,19.836426,23.254395,-20.141602,0.0,0.0,0.0,-1.741333,68.01636,-19.401855
1768031500991,-0.8378906,0.07714844,0.45507812,28.930664,14.343262,-15.319824,0.0,0.0,0.0,-1.741333,68.01636,-19.401855
1768031501002,-0.8378906,0.07714844,0.45507812,28.930664,14.343262,-15.319824,0.0,0.0,0.0,-2.5982666,69.79614,-25.048828
1768031501091,-0.91015625,-0.072265625,0.37841797,-31.921387,-33.447266,20.996094,0.0,0.0,0.0,-2.5982666,69.79614,-25.048828
1768031501102,-0.91015625,-0.072265625,0.37841797,-31.921387,-33.447266,20.996094,0.0,0.0,0.0,-1.5270996,68.28003,-23.56018
1768031501190,-1.0058594,-0.049804688,0.24121094,-19.28711,-3.4179688,6.958008,0.0,0.0,0.0,-1.5270996,68.28003,-23.56018
1768031501202,-1.0058594,-0.049804688,0.24121094,-19.28711,-3.4179688,6.958008,0.0,0.0,0.0,0.335083,65.64331,-17.825317
1768031501290,-0.8198242,0.09472656,0.37304688,10.681152,24.230957,-4.8828125,0.0,0.0,0.0,0.335083,65.64331,-17.825317
1768031501302,-0.8198242,0.09472656,0.37304688,10.681152,24.230957,-4.8828125,0.0,0.0,0.0,1.5270996,67.06604,-16.14441
1768031501390,-1.0063477,-0.049804688,0.30371094,-27.70996,-40.405273,32.714844,0.0,0.0,0.0,1.5270996,67.06604,-16.14441
1768031501401,-1.0063477,-0.049804688,0.30371094,-27.70996,-40.405273,32.714844,0.0,0.0,0.0,4.6636963,65.9729,-13.881226
1768031501490,-0.95654297,0.03564453,0.38183594,39.611816,28.625488,-17.333984,0.0,0.0,0.0,4.6636963,65.9729,-13.881226
1768031501501,-0.95654297,0.03564453,0.38183594,39.611816,28.625488,-17.333984,0.0,0.0,0.0,6.8499756,66.74744,-11.887207
1768031501589,-0.8964844,-0.052734375,0.49121094,5.3710938,10.070801,1.953125,0.0,0.0,0.0,6.8499756,66.74744,-11.887207
1768031501601,-0.8964844,-0.052734375,0.49121094,5.3710938,10.070801,1.953125,0.0,0.0,0.0,6.70166,69.00513,-14.831543
1768031501689,-0.88916016,0.03515625,0.3720703,-2.5634766,-17.8833,2.319336,0.0,0.0,0.0,6.70166,69.00513,-14.831543
1768031501700,-0.88916016,0.03515625,0.3720703,-2.5634766,-17.8833,2.319336,0.0,0.0,0.0,6.70166,67.56592,-14.556885
1768031501789,-0.95166016,-0.0146484375,0.3696289,-16.601562,-18.493652,6.4697266,0.0,0.0,0.0,6.70166,67.56592,-14.556885
1768031501800,-0.95166016,-0.0146484375,0.3696289,-16.601562,-18.493652,6.4697266,0.0,0.0,0.0,6.3116455,66.5387,-13.765869
1768031501888,-0.92871094,-0.115234375,0.5019531,-3.90625,26.794434,-8.483887,0.0,0.0,0.0,6.3116455,66.5387,-13.765869
1768031501900,-0.92871094,-0.115234375,0.5019531,-3.90625,26.794434,-8.483887,0.0,0.0,0.0,4.6032715,67.472534,-12.321167
1768031501988,-0.83447266,0.26904297,0.38867188,5.004883,-26.550293,-3.540039,0.0,0.0,0.0,4.6032715,67.472534,-12.321167
1768031502000,-0.83447266,0.26904297,0.38867188,5.004883,-26.550293,-3.540039,0.0,0.0,0.0,0.8514404,65.95093,-20.269775
1768031502088,-0.89941406,-0.067871094,0.19335938,-4.0283203,-21.728516,10.009766,0.0,0.0,0.0,0.8514404,65.95093,-20.269775
1768031502100,-0.89941406,-0.067871094,0.19335938,-4.0283203,-21.728516,10.009766,0.0,0.0,0.0,4.015503,62.69348,-15.369873
1768031502188,-0.9580078,0.09082031,0.49169922,-19.104004,14.160156,12.390137,0.0,0.0,0.0,4.015503,62.69348,-15.369873
1768031502199,-0.9580078,0.09082031,0.49169922,-19.104004,14.160156,12.390137,0.0,0.0,0.0,4.586792,63.934937,-14.60083
1768031502287,-1.0366211,-0.0625,0.1640625,-16.540527,7.2631836,6.7749023,0.0,0.0,0.0,4.586792,63.934937,-14.60083
1768031502300,-1.0366211,-0.0625,0.1640625,-16.540527,7.2631836,6.7749023,0.0,0.0,0.0,5.3063965,63.55591,-10.766602
1768031502387,-1.1347656,0.20361328,0.5644531,16.174316,32.043457,1.4648438,0.0,0.0,0.0,5.3063965,63.55591,-10.766602
1768031502399,-1.1347656,0.20361328,0.5644531,16.174316,32.043457,1.4648438,0.0,0.0,0.0,2.4060059,66.81885,-14.254761
1768031502487,-0.71191406,-0.03955078,0.39990234,23.07129,30.639648,-7.019043,0.0,0.0,0.0,2.4060059,66.81885,-14.254761
1768031502499,-0.71191406,-0.03955078,0.39990234,23.07129,30.639648,-7.019043,0.0,0.0,0.0,3.1970215,70.34546,-13.062744
1768031502586,-0.92871094,0.0234375,0.4765625,8.300781,-9.70459,-1.0986328,0.0,0.0,0.0,3.1970215,70.34546,-13.062744
1768031502598,-0.92871094,0.0234375,0.4765625,8.300781,-9.70459,-1.0986328,0.0,0.0,0.0,2.4993896,70.7135,-16.583862
1768031502686,-0.86865234,-0.049316406,0.34033203,13.427734,-5.432129,-7.751465,0.0,0.0,0.0,2.4993896,70.7135,-16.583862
1768031502698,-0.86865234,-0.049316406,0.34033203,13.427734,-5.432129,-7.751465,0.0,0.0,0.0,3.2684326,68.97217,-16.622314
1768031502786,-0.8852539,-0.016601562,0.43408203,-9.399414,-5.79834,0.7324219,0.0,0.0,0.0,3.2684326,68.97217,-16.622314
1768031502797,-0.8852539,-0.016601562,0.43408203,-9.399414,-5.79834,0.7324219,0.0,0.0,0.0,2.3565674,67.96692,-18.424072
1768031502886,-0.9814453,0.016113281,0.3642578,-38.45215,-19.348145,16.479492,0.0,0.0,0.0,2.3565674,67.96692,-18.424072
1768031502897,-0.9814453,0.016113281,0.3642578,-38.45215,-19.348145,16.479492,0.0,0.0,0.0,2.9278564,65.32471,-16.583862
1768031502985,-0.7739258,0.12597656,0.3334961,14.831543,12.817383,-28.808594,0.0,0.0,0.0,2.9278564,65.32471,-16.583862
1768031502997,-0.7739258,0.12597656,0.3334961,14.831543,12.817383,-28.808594,0.0,0.0,0.0,-0.09887695,65.93994,-19.533691
1768031503085,-0.9785156,0.076660156,0.40234375,-4.8828125,-14.343262,21.484375,0.0,0.0,0.0,-0.09887695,65.93994,-19.533691
1768031503096,-0.9785156,0.076660156,0.40234375,-4.8828125,-14.343262,21.484375,0.0,0.0,0.0,0.4888916,66.71448,-17.770386
1768031503185,-0.9194336,-0.106933594,0.32226562,-11.474609,15.50293,17.51709,0.0,0.0,0.0,0.4888916,66.71448,-17.770386
1768031503196,-0.9194336,-0.106933594,0.32226562,-11.474609,15.50293,17.51709,0.0,0.0,0.0,4.993286,65.7312,-13.167114
1768031503284,-0.91259766,0.025878906,0.40429688,-13.427734,5.554199,0.79345703,0.0,0.0,0.0,4.993286,65.7312,-13.167114
1768031503296,-0.91259766,0.025878906,0.40429688,-13.427734,5.554199,0.79345703,0.0,0.0,0.0,5.6085205,67.31323,-11.376343
1768031503384,-1.1118164,0.026367188,0.3647461,-7.3242188,13.061523,-2.2583008,0.0,0.0,0.0,5.6085205,67.31323,-11.376343
1768031503396,-1.1118164,0.026367188,0.3647461,-7.3242188,13.061523,-2.2583008,0.0,0.0,0.0,5.487671,67.08252,-9.799805
1768031503484,-0.86083984,0.037597656,0.49169922,23.498535,23.986816,-9.70459,0.0,0.0,0.0,5.487671,67.08252,-9.799805
1768031503495,-0.86083984,0.037597656,0.49169922,23.498535,23.986816,-9.70459,0.0,0.0,0.0,3.147583,71.16943,-12.854004
1768031503583,-0.98339844,-0.18896484,0.2055664,-3.2958984,-15.075684,0.8544922,0.0,0.0,0.0,3.147583,71.16943,-12.854004
1768031503595,-0.98339844,-0.18896484,0.2055664,-3.2958984,-15.075684,0.8544922,0.0,0.0,0.0,3.8562012,69.488525,-12.837524
1768031503683,-0.8696289,0.027832031,0.3984375,8.422852,2.1362305,-9.765625,0.0,0.0,0.0,3.8562012,69.488525,-12.837524
1768031503695,-0.8696289,0.027832031,0.3984375,8.422852,2.1362305,-9.765625,0.0,0.0,0.0,1.2963867,69.99939,-16.051025
1768031503783,-0.92626953,-0.0390625,0.37841797,-25.512695,-14.831543,9.94873,0.0,0.0,0.0,1.2963867,69.99939,-16.051025
1768031503794,-0.92626953,-0.0390625,0.37841797,-25.512695,-14.831543,9.94873,0.0,0.0,0.0,0.12084961,68.80188,-16.924438
1768031503883,-1.0014648,0.030761719,0.34277344,-3.7841797,-1.4038086,-13.48877,0.0,0.0,0.0,0.12084961,68.80188,-16.924438
1768031503894,-1.0014648,0.030761719,0.34277344,-3.7841797,-1.4038086,-13.48877,0.0,0.0,0.0,-0.70861816,66.95068,-17.336426
1768031503982,-0.7495117,0.19189453,0.3720703,13.305664,-3.1738281,-20.935059,0.0,0.0,0.0,-0.70861816,66.95068,-17.336426
1768031503994,-0.7495117,0.19189453,0.3720703,13.305664,-3.1738281,-20.935059,0.0,0.0,0.0,-3.6035156,68.60962,-22.653809
1768031504082,-1.0673828,-0.045898438,0.41357422,-17.822266,-32.226562,28.076172,0.0,0.0,0.0,-3.6035156,68.60962,-22.653809
1768031504094,-1.0673828,-0.045898438,0.41357422,-17.822266,-32.226562,28.076172,0.0,0.0,0.0,-0.25268555,67.6593,-17.979126
1768031504182,-0.9291992,-0.03125,0.23779297,9.216309,2.1362305,4.8828125,0.0,0.0,0.0,-0.25268555,67.6593,-17.979126
1768031504193,-0.9291992,-0.03125,0.23779297,9.216309,2.1362305,4.8828125,0.0,0.0,0.0,2.5268555,65.91797,-14.842529
1768031504282,-0.9995117,-0.109375,0.20214844,-16.174316,15.441895,-0.8544922,0.0,0.0,0.0,2.5268555,65.91797,-14.842529
1768031504294,-0.9995117,-0.109375,0.20214844,-16.174316,15.441895,-0.8544922,0.0,0.0,0.0,2.175293,67.06604,-13.480225
1768031504381,-1.0932617,0.013183594,0.52685547,1.0986328,89.59961,-32.104492,0.0,0.0,0.0,2.175293,67.06604,-13.480225
1768031504393,-1.0932617,0.013183594,0.52685547,1.0986328,89.59961,-32.104492,0.0,0.0,0.0,-6.234741,72.8064,-22.29126
1768031504481,-0.7260742,0.01953125,0.39990234,-9.033203,-17.39502,6.7749023,0.0,0.0,0.0,-6.234741,72.8064,-22.29126
1768031504493,-0.7260742,0.01953125,0.39990234,-9.033203,-17.39502,6.7749023,0.0,0.0,0.0,-14.298706,76.3385,-29.701538
1768031504581,-1.0039062,-0.24365234,0.049804688,24.169922,-15.625,-8.178711,0.0,0.0,0.0,-14.298706,76.3385,-29.701538
1768031504592,-1.0039062,-0.24365234,0.049804688,24.169922,-15.625,-8.178711,0.0,0.0,0.0,-6.031494,72.333984,-20.247803
1768031504680,-0.8989258,-0.11230469,0.42382812,-11.047363,-0.061035156,-1.7700195,0.0,0.0,0.0,-6.031494,72.333984,-20.247803
1768031504692,-0.8989258,-0.11230469,0.42382812,-11.047363,-0.061035156,-1.7700195,0.0,0.0,0.0,-11.008301,72.751465,-27.312012
1768031504780,-1.2080078,-0.075683594,0.23242188,-30.700684,-2.0141602,10.986328,0.0,0.0,0.0,-11.008301,72.751465,-27.312012
1768031504791,-1.2080078,-0.075683594,0.23242188,-30.700684,-2.0141602,10.986328,0.0,0.0,0.0,-11.326904,71.28479,-24.016113
1768031504880,-0.49121094,0.08496094,0.13720703,43.33496,40.100098,-54.016113,0.0,0.0,0.0,-11.326904,71.28479,-24.016113
1768031504891,-0.49121094,0.08496094,0.13720703,43.33496,40.100098,-54.016113,0.0,0.0,0.0,-20.912476,72.108765,-36.50757
1768031504979,-0.9873047,-0.19921875,0.45898438,-34.5459,-39.611816,28.259277,0.0,0.0,0.0,-20.912476,72.108765,-36.50757
1768031504991,-0.9873047,-0.19921875,0.45898438,-34.5459,-39.611816,28.259277,0.0,0.0,0.0,-18.643799,72.39441,-34.519043
1768031505079,-1.0629883,-0.12402344,0.12402344,-22.644043,5.3100586,34.91211,0.0,0.0,0.0,-18.643799,72.39441,-34.519043
1768031505091,-1.0629883,-0.12402344,0.12402344,-22.644043,5.3100586,34.91211,0.0,0.0,0.0,-8.668213,70.20264,-18.330688
1768031505179,-1.1455078,0.056152344,0.5522461,17.578125,48.583984,-7.6904297,0.0,0.0,0.0,-8.668213,70.20264,-18.330688
1768031505190,-1.1455078,0.056152344,0.5522461,17.578125,48.583984,-7.6904297,0.0,0.0,0.0,-9.8602295,73.55347,-20.610352
1768031505279,-0.46826172,-0.0146484375,0.2915039,-6.225586,4.8828125,19.40918,0.0,0.0,0.0,-9.8602295,73.55347,-20.610352
1768031505290,-0.46826172,-0.0146484375,0.2915039,-6.225586,4.8828125,19.40918,0.0,0.0,0.0,-9.63501,75.50903,-21.351929
1768031505378,-1.2402344,-0.33789062,0.08154297,-28.808594,-68.725586,24.719238,0.0,0.0,0.0,-9.63501,75.50903,-21.351929
1768031505390,-1.2402344,-0.33789062,0.08154297,-28.808594,-68.725586,24.719238,0.0,0.0,0.0,2.3675537,70.67505,-10.59082
1768031505478,-0.98046875,-0.037109375,0.42871094,17.089844,3.112793,-7.019043,0.0,0.0,0.0,2.3675537,70.67505,-10.59082
1768031505490,-0.98046875,-0.037109375,0.42871094,17.089844,3.112793,-7.019043,0.0,0.0,0.0,-0.5987549,71.0376,-15.183105
1768031505578,-1.1123047,-0.12841797,0.44873047,-41.259766,19.40918,11.291504,0.0,0.0,0.0,-0.5987549,71.0376,-15.183105
1768031505590,-1.1123047,-0.12841797,0.44873047,-41.259766,19.40918,11.291504,0.0,0.0,0.0,-2.6531982,70.21362,-14.990845
1768031505677,-0.7836914,0.061035156,0.109375,0.91552734,-8.972168,-9.338379,0.0,0.0,0.0,-2.6531982,70.21362,-14.990845
1768031505689,-0.7836914,0.061035156,0.109375,0.91552734,-8.972168,-9.338379,0.0,0.0,0.0,-5.2130127,67.9834,-17.017822
1768031505777,-0.9165039,0.033691406,0.3671875,-23.132324,-0.6713867,8.850098,0.0,0.0,0.0,-5.2130127,67.9834,-17.017822
1768031505789,-0.9165039,0.033691406,0.3671875,-23.132324,-0.6713867,8.850098,0.0,0.0,0.0,-6.124878,68.966675,-18.945923
1768031505877,-0.9477539,-0.010253906,0.20019531,-15.014648,-16.601562,14.038086,0.0,0.0,0.0,-6.124878,68.966675,-18.945923
1768031505888,-0.9477539,-0.010253906,0.20019531,-15.014648,-16.601562,14.038086,0.0,0.0,0.0,-3.0596924,67.91748,-12.96936
1768031505977,-0.88964844,0.0390625,0.2939453,-7.9345703,29.47998,11.413574,0.0,0.0,0.0,-3.0596924,67.91748,-12.96936
1768031505988,-0.88964844,0.0390625,0.2939453,-7.9345703,29.47998,11.413574,0.0,0.0,0.0,-1.1920166,69.87854,-10.371094
1768031506076,-0.96875,-0.20947266,0.5620117,-31.00586,45.10498,-13.122559,0.0,0.0,0.0,-1.1920166,69.87854,-10.371094
1768031506088,-0.96875,-0.20947266,0.5620117,-31.00586,45.10498,-13.122559,0.0,0.0,0.0,-5.5810547,72.718506,-13.474731
1768031506176,-0.99560547,0.23388672,0.28271484,-40.405273,-47.60742,52.55127,0.0,0.0,0.0,-5.5810547,72.718506,-13.474731
1768031506188,-0.99560547,0.23388672,0.28271484,-40.405273,-47.60742,52.55127,0.0,0.0,0.0,-3.0761719,71.71875,-8.87146
1768031506276,-1.0102539,-0.10205078,0.19140625,64.63623,26.245117,-41.44287,0.0,0.0,0.0,-3.0761719,71.71875,-8.87146
1768031506287,-1.0102539,-0.10205078,0.19140625,64.63623,26.245117,-41.44287,0.0,0.0,0.0,0.54382324,70.60913,-7.1466064
1768031506375,-0.84765625,-0.103027344,0.3647461,-5.7373047,-11.047363,-0.6713867,0.0,0.0,0.0,0.54382324,70.60913,-7.1466064
1768031506387,-0.84765625,-0.103027344,0.3647461,-5.7373047,-11.047363,-0.6713867,0.0,0.0,0.0,-2.7191162,72.559204,-12.958374
1768031506475,-1.3022461,0.061035156,0.31445312,6.286621,-24.597168,-7.507324,0.0,0.0,0.0,-2.7191162,72.559204,-12.958374
1768031506487,-1.3022461,0.061035156,0.31445312,6.286621,-24.597168,-7.507324,0.0,0.0,0.0,-3.0926514,70.78491,-13.634033
1768031506575,-0.6738281,0.041992188,0.3305664,13.977051,15.441895,-26.123047,0.0,0.0,0.0,-3.0926514,70.78491,-13.634033
1768031506586,-0.6738281,0.041992188,0.3305664,13.977051,15.441895,-26.123047,0.0,0.0,0.0,-8.256226,70.3949,-19.863281
1768031506675,-1.1103516,0.068847656,0.5703125,-15.014648,-41.381836,32.043457,0.0,0.0,0.0,-8.256226,70.3949,-19.863281
1768031506686,-1.1103516,0.068847656,0.5703125,-15.014648,-41.381836,32.043457,0.0,0.0,0.0,-6.6192627,70.81787,-19.368896
1768031506774,-0.9399414,-0.12792969,0.16064453,11.901855,15.075684,-0.79345703,0.0,0.0,0.0,-6.6192627,70.81787,-19.368896
1768031506786,-0.9399414,-0.12792969,0.16064453,11.901855,15.075684,-0.79345703,0.0,0.0,0.0,-1.7303467,67.12097,-12.062988
1768031506874,-0.9555664,-0.10986328,0.45361328,-57.250977,40.100098,0.9765625,0.0,0.0,0.0,-1.7303467,67.12097,-12.062988
1768031506886,-0.9555664,-0.10986328,0.45361328,-57.250977,40.100098,0.9765625,0.0,0.0,0.0,-0.37353516,69.834595,-9.365845
1768031506974,-0.66748047,0.038085938,0.4584961,-6.286621,7.873535,-4.760742,0.0,0.0,0.0,-0.37353516,69.834595,-9.365845
1768031506985,-0.66748047,0.038085938,0.4584961,-6.286621,7.873535,-4.760742,0.0,0.0,0.0,-4.4769287,73.50403,-14.084473
1768031507074,-1.1381836,-0.32128906,0.016113281,-80.322266,-89.59961,68.66455,0.0,0.0,0.0,-4.4769287,73.50403,-14.084473
1768031507085,-1.1381836,-0.32128906,0.016113281,-80.322266,-89.59961,68.66455,0.0,0.0,0.0,4.9383545,66.89026,-1.5985107
1768031507173,-0.79248047,0.014160156,0.3564453,45.959473,33.203125,-28.381348,0.0,0.0,0.0,4.9383545,66.89026,-1.5985107
1768031507185,-0.79248047,0.014160156,0.3564453,45.959473,33.203125,-28.381348,0.0,0.0,0.0,5.0427246,67.72522,-2.8399658
1768031507273,-1.0083008,-0.016601562,0.45703125,-12.817383,-25.6958,14.6484375,0.0,0.0,0.0,5.0427246,67.72522,-2.8399658
1768031507284,-1.0083008,-0.016601562,0.45703125,-12.817383,-25.6958,14.6484375,0.0,0.0,0.0,3.7792969,67.72522,-5.52063
1768031507373,-1.0263672,0.05029297,0.3413086,34.057617,-25.756836,-50.65918,0.0,0.0,0.0,3.7792969,67.72522,-5.52063
1768031507384,-1.0263672,0.05029297,0.3413086,34.057617,-25.756836,-50.65918,0.0,0.0,0.0,1.4282227,65.62134,-7.5476074
1768031507472,-0.6723633,0.1459961,0.44433594,67.68799,23.376465,-50.964355,0.0,0.0,0.0,1.4282227,65.62134,-7.5476074
1768031507484,-0.6723633,0.1459961,0.44433594,67.68799,23.376465,-50.964355,0.0,0.0,0.0,-8.305664,68.291016,-24.032593
1768031507572,-1.1279297,-0.060546875,0.5698242,-72.81494,-53.100586,69.39697,0.0,0.0,0.0,-8.305664,68.291016,-24.032593
1768031507583,-1.1279297,-0.060546875,0.5698242,-72.81494,-53.100586,69.39697,0.0,0.0,0.0,-5.597534,67.664795,-20.74768
1768031507672,-0.89160156,0.064941406,0.13427734,-0.9765625,4.211426,13.61084,0.0,0.0,0.0,-5.597534,67.664795,-20.74768
1768031507683,-0.89160156,0.064941406,0.13427734,-0.9765625,4.211426,13.61084,0.0,0.0,0.0,-1.0546875,62.98462,-11.2335205
1768031507771,-0.96435547,-0.019042969,0.33154297,20.507812,30.578613,-6.4086914,0.0,0.0,0.0,-1.0546875,62.98462,-11.2335205
1768031507783,-0.96435547,-0.019042969,0.33154297,20.507812,30.578613,-6.4086914,0.0,0.0,0.0,0.7800293,65.928955,-8.695679
1768031507871,-1.1088867,-0.040039062,0.46777344,24.780273,39.916992,-4.272461,0.0,0.0,0.0,0.7800293,65.928955,-8.695679
1768031507883,-1.1088867,-0.040039062,0.46777344,24.780273,39.916992,-4.272461,0.0,0.0,0.0,-2.1697998,69.54346,-14.227295
1768031507971,-0.6958008,-0.028808594,0.47753906,-0.8544922,50.53711,-27.58789,0.0,0.0,0.0,-2.1697998,69.54346,-14.227295
1768031507982,-0.6958008,-0.028808594,0.47753906,-0.8544922,50.53711,-27.58789,0.0,0.0,0.0,-13.754883,73.98743,-25.636597
1768031508071,-1.0200195,0.14160156,0.6074219,10.009766,-73.30322,46.020508,0.0,0.0,0.0,-13.754883,73.98743,-25.636597
1768031508082,-1.0200195,0.14160156,0.6074219,10.009766,-73.30322,46.020508,0.0,0.0,0.0,-12.788086,74.42139,-25.285034
1768031508170,-1.1611328,-0.3466797,-0.35253906,9.033203,-23.498535,23.07129,0.0,0.0,0.0,-12.788086,74.42139,-25.285034
1768031508182,-1.1611328,-0.3466797,-0.35253906,9.033203,-23.498535,23.07129,0.0,0.0,0.0,2.8839111,63.863525,-4.449463
1768031508270,-0.8330078,0.15527344,0.34765625,44.555664,26.245117,-43.395996,0.0,0.0,0.0,2.8839111,63.863525,-4.449463
1768031508282,-0.8330078,0.15527344,0.34765625,44.555664,26.245117,-43.395996,0.0,0.0,0.0,-0.62072754,66.26404,-13.304443
1768031508370,-1.0024414,-0.037597656,0.5522461,-17.700195,-36.865234,-1.0375977,0.0,0.0,0.0,-0.62072754,66.26404,-13.304443
1768031508381,-1.0024414,-0.037597656,0.5522461,-17.700195,-36.865234,-1.0375977,0.0,0.0,0.0,-2.7905273,68.97217,-16.611328
1768031508470,-1.0712891,-0.03515625,0.5810547,44.006348,9.277344,-35.40039,0.0,0.0,0.0,-2.7905273,68.97217,-16.611328
1768031508481,-1.0712891,-0.03515625,0.5810547,44.006348,9.277344,-35.40039,0.0,0.0,0.0,-6.6522217,67.70874,-20.808105
1768031508569,-0.6767578,0.18164062,0.32714844,7.080078,-24.169922,19.104004,0.0,0.0,0.0,-6.6522217,67.70874,-20.808105
1768031508581,-0.6767578,0.18164062,0.32714844,7.080078,-24.169922,19.104004,0.0,0.0,0.0,-6.82251,64.539185,-25.065308
1768031508669,-0.99853516,-0.063964844,0.3696289,11.230469,-47.973633,26.550293,0.0,0.0,0.0,-6.82251,64.539185,-25.065308
1768031508680,-0.99853516,-0.063964844,0.3696289,11.230469,-47.973633,26.550293,0.0,0.0,0.0,1.5600586,61.347656,-16.820068
1768031508768,-0.9116211,-0.16113281,0.34277344,-17.63916,20.019531,10.009766,0.0,0.0,0.0,1.5600586,61.347656,-16.820068
1768031508780,-0.9116211,-0.16113281,0.34277344,-17.63916,20.019531,10.009766,0.0,0.0,0.0,2.345581,61.69922,-14.661255
1768031508868,-0.77246094,-0.07373047,0.3803711,11.535645,32.470703,-8.972168,0.0,0.0,0.0,2.345581,61.69922,-14.661255
1768031508880,-0.77246094,-0.07373047,0.3803711,11.535645,32.470703,-8.972168,0.0,0.0,0.0,1.3293457,64.72046,-13.386841
1768031508968,-1.0981445,0.07421875,0.66015625,-20.751953,37.231445,7.2631836,0.0,0.0,0.0,1.3293457,64.72046,-13.386841
1768031508979,-1.0981445,0.07421875,0.66015625,-20.751953,37.231445,7.2631836,0.0,0.0,0.0,-0.5987549,68.99963,-15.869751
1768031509068,-0.8515625,-0.055664062,0.4091797,-13.427734,-44.25049,22.399902,0.0,0.0,0.0,-0.5987549,68.99963,-15.869751
1768031509079,-0.8515625,-0.055664062,0.4091797,-13.427734,-44.25049,22.399902,0.0,0.0,0.0,2.70813,66.7749,-10.206299
1768031509167,-0.95214844,0.088378906,0.29882812,26.062012,-24.169922,5.126953,0.0,0.0,0.0,2.70813,66.7749,-10.206299
1768031509179,-0.95214844,0.088378906,0.29882812,26.062012,-24.169922,5.126953,0.0,0.0,0.0,4.553833,63.77014,-8.849487
1768031509267,-0.9506836,-0.15722656,0.3095703,5.3100586,25.08545,-10.559082,0.0,0.0,0.0,4.553833,63.77014,-8.849487
1768031509279,-0.9506836,-0.15722656,0.3095703,5.3100586,25.08545,-10.559082,0.0,0.0,0.0,5.592041,64.56665,-9.041748
1768031509367,-1.0483398,0.01953125,0.63183594,-20.324707,56.640625,-67.07764,0.0,0.0,0.0,5.592041,64.56665,-9.041748
1768031509378,-1.0483398,0.01953125,0.63183594,-20.324707,56.640625,-67.07764,0.0,0.0,0.0,-5.0811768,69.53247,-18.8031
1768031509466,-0.6430664,0.24316406,0.44140625,24.536133,32.104492,-15.380859,0.0,0.0,0.0,-5.0811768,69.53247,-18.8031
1768031509478,-0.6430664,0.24316406,0.44140625,24.536133,32.104492,-15.380859,0.0,0.0,0.0,-16.54541,72.67456,-36.540527
1768031509566,-1.112793,-0.016113281,0.47998047,-72.021484,-126.15967,85.998535,0.0,0.0,0.0,-16.54541,72.67456,-36.540527
1768031509578,-1.112793,-0.016113281,0.47998047,-72.021484,-126.15967,85.998535,0.0,0.0,0.0,-1.4996338,67.39563,-17.819824
1768031509666,-1.034668,-0.1484375,-0.021972656,24.902344,10.498047,-4.8828125,0.0,0.0,0.0,-1.4996338,67.39563,-17.819824
1768031509677,-1.034668,-0.1484375,-0.021972656,24.902344,10.498047,-4.8828125,0.0,0.0,0.0,4.1308594,61.468506,-7.739868
1768031509766,-0.96240234,0.05859375,0.46533203,-10.803223,70.06836,-18.371582,0.0,0.0,0.0,4.1308594,61.468506,-7.739868
1768031509777,-0.96240234,0.05859375,0.46533203,-10.803223,70.06836,-18.371582,0.0,0.0,0.0,3.8616943,66.57715,-10.019531
1768031509865,-0.89746094,-4.8828125E-4,0.6303711,7.2631836,74.8291,-35.461426,0.0,0.0,0.0,3.8616943,66.57715,-10.019531
1768031509877,-0.89746094,-4.8828125E-4,0.6303711,7.2631836,74.8291,-35.461426,0.0,0.0,0.0,-4.685669,75.042114,-20.983887
1768031509965,-1.0371094,0.26416016,0.40527344,-55.358887,-88.37891,46.50879,0.0,0.0,0.0,-4.685669,75.042114,-20.983887
1768031509976,-1.0371094,0.26416016,0.40527344,-55.358887,-88.37891,46.50879,0.0,0.0,0.0,-2.208252,72.72949,-18.363647
1768031510065,-1.0092773,-0.10888672,0.103027344,48.034668,31.00586,-24.963379,0.0,0.0,0.0,-2.208252,72.72949,-18.363647
1768031510076,-1.0092773,-0.10888672,0.103027344,48.034668,31.00586,-24.963379,0.0,0.0,0.0,4.5977783,68.88428,-9.014282
1768031510164,-0.9370117,0.049804688,0.5058594,-13.549805,45.47119,-11.962891,0.0,0.0,0.0,4.5977783,68.88428,-9.014282
1768031510176,-0.9370117,0.049804688,0.5058594,-13.549805,45.47119,-11.962891,0.0,0.0,0.0,0.032958984,73.097534,-16.177368
1768031510264,-1.0166016,0.012207031,0.43798828,-47.058105,-43.823242,-4.8217773,0.0,0.0,0.0,0.032958984,73.097534,-16.177368
1768031510276,-1.0166016,0.012207031,0.43798828,-47.058105,-43.823242,-4.8217773,0.0,0.0,0.0,-3.2080078,71.345215,-20.368652
1768031510364,-0.74902344,0.12109375,0.28027344,-15.319824,-3.4179688,-4.9438477,0.0,0.0,0.0,-3.2080078,71.345215,-20.368652
1768031510375,-0.74902344,0.12109375,0.28027344,-15.319824,-3.4179688,-4.9438477,0.0,0.0,0.0,-6.767578,69.087524,-22.895508
1768031510464,-0.94384766,0.026855469,0.24169922,-17.456055,-43.33496,21.850586,0.0,0.0,0.0,-6.767578,69.087524,-22.895508
1768031510475,-0.94384766,0.026855469,0.24169922,-17.456055,-43.33496,21.850586,0.0,0.0,0.0,-1.4501953,67.472534,-15.924683
1768031510563,-1.0029297,0.07861328,0.26904297,1.2817383,6.1035156,8.056641,0.0,0.0,0.0,-1.4501953,67.472534,-15.924683
1768031510575,-1.0029297,0.07861328,0.26904297,1.2817383,6.1035156,8.056641,0.0,0.0,0.0,1.3348389,66.40686,-12.057495
1768031510663,-0.9472656,0.028320312,0.38330078,4.3945312,48.40088,-6.8359375,0.0,0.0,0.0,1.3348389,66.40686,-12.057495
1768031510675,-0.9472656,0.028320312,0.38330078,4.3945312,48.40088,-6.8359375,0.0,0.0,0.0,1.7797852,69.32922,-11.925659
1768031510763,-0.91845703,0.028320312,0.4736328,-13.427734,0.91552734,-0.9765625,0.0,0.0,0.0,1.7797852,69.32922,-11.925659
1768031510774,-0.91845703,0.028320312,0.4736328,-13.427734,0.91552734,-0.9765625,0.0,0.0,0.0,1.373291,72.65259,-12.579346
1768031510863,-1.0742188,-0.0024414062,0.25634766,11.657715,-9.765625,23.31543,0.0,0.0,0.0,1.373291,72.65259,-12.579346
1768031510874,-1.0742188,-0.0024414062,0.25634766,11.657715,-9.765625,23.31543,0.0,0.0,0.0,6.432495,70.18616,-7.399292
1768031510962,-0.9116211,-0.06201172,0.2836914,23.19336,4.211426,-7.2021484,0.0,0.0,0.0,6.432495,70.18616,-7.399292
1768031510974,-0.9116211,-0.06201172,0.2836914,23.19336,4.211426,-7.2021484,0.0,0.0,0.0,8.508911,69.9115,-6.2512207
1768031511062,-0.921875,-0.027832031,0.32080078,-5.9814453,-7.6904297,-0.24414062,0.0,0.0,0.0,8.508911,69.9115,-6.2512207
1768031511073,-0.921875,-0.027832031,0.32080078,-5.9814453,-7.6904297,-0.24414062,0.0,0.0,0.0,8.734131,69.81262,-6.223755
1768031511162,-1.1669922,-0.005859375,0.5283203,-26.733398,0.36621094,-30.639648,0.0,0.0,0.0,8.734131,69.81262,-6.223755
1768031511173,-1.1669922,-0.005859375,0.5283203,-26.733398,0.36621094,-30.639648,0.0,0.0,0.0,4.224243,70.04883,-10.552368
1768031511261,-0.6279297,0.15966797,0.33496094,-8.911133,7.446289,-40.71045,0.0,0.0,0.0,4.224243,70.04883,-10.552368
1768031511273,-0.6279297,0.15966797,0.33496094,-8.911133,7.446289,-40.71045,0.0,0.0,0.0,-8.009033,70.13672,-23.944702
1768031511361,-0.9482422,0.1484375,0.43115234,-42.785645,-53.100586,43.09082,0.0,0.0,0.0,-8.009033,70.13672,-23.944702
1768031511373,-0.9482422,0.1484375,0.43115234,-42.785645,-53.100586,43.09082,0.0,0.0,0.0,-4.586792,69.25781,-18.275757
1768031511461,-1.0263672,-0.17578125,-0.072753906,-25.634766,-0.30517578,28.015137,0.0,0.0,0.0,-4.586792,69.25781,-18.275757
1768031511472,-1.0263672,-0.17578125,-0.072753906,-25.634766,-0.30517578,28.015137,0.0,0.0,0.0,2.4224854,64.87427,-7.5915527
1768031511560,-1.1035156,-0.06933594,0.5595703,-32.714844,95.336914,9.216309,0.0,0.0,0.0,2.4224854,64.87427,-7.5915527
1768031511572,-1.1035156,-0.06933594,0.5595703,-32.714844,95.336914,9.216309,0.0,0.0,0.0,5.29541,70.285034,-2.4499512
1768031511660,-0.73876953,0.06640625,0.44726562,33.996582,-31.982422,1.6479492,0.0,0.0,0.0,5.29541,70.285034,-2.4499512
1768031511672,-0.73876953,0.06640625,0.44726562,33.996582,-31.982422,1.6479492,0.0,0.0,0.0,-2.142334,75.10803,-10.766602
1768031511760,-1.121582,-0.29785156,-0.107421875,27.893066,-10.009766,17.8833,0.0,0.0,0.0,-2.142334,75.10803,-10.766602
1768031511771,-1.121582,-0.29785156,-0.107421875,27.893066,-10.009766,17.8833,0.0,0.0,0.0,7.0532227,68.03284,1.5875244
1768031511860,-0.8364258,0.07080078,0.4477539,16.296387,24.169922,-19.104004,0.0,0.0,0.0,7.0532227,68.03284,1.5875244
1768031511871,-0.8364258,0.07080078,0.4477539,16.296387,24.169922,-19.104004,0.0,0.0,0.0,3.9440918,71.449585,-5.394287
1768031511959,-1.0297852,-0.049804688,0.3071289,-21.057129,8.178711,-5.126953,0.0,0.0,0.0,3.9440918,71.449585,-5.394287
1768031511971,-1.0297852,-0.049804688,0.3071289,-21.057129,8.178711,-5.126953,0.0,0.0,0.0,1.0766602,71.81763,-8.382568
1768031512059,-1.1201172,0.10058594,0.54785156,-6.958008,-8.422852,-21.66748,0.0,0.0,0.0,1.0766602,71.81763,-8.382568
1768031512071,-1.1201172,0.10058594,0.54785156,-6.958008,-8.422852,-21.66748,0.0,0.0,0.0,-5.5755615,73.081055,-17.957153
1768031512159,-0.8232422,0.122558594,0.3803711,-35.095215,1.5869141,-7.8125,0.0,0.0,0.0,-5.5755615,73.081055,-17.957153
1768031512170,-0.8232422,0.122558594,0.3803711,-35.095215,1.5869141,-7.8125,0.0,0.0,0.0,-10.112915,71.312256,-21.774902
1768031512259,-0.8754883,0.15185547,0.28759766,-25.390625,-44.677734,39.18457,0.0,0.0,0.0,-10.112915,71.312256,-21.774902
1768031512271,-0.8754883,0.15185547,0.28759766,-25.390625,-44.677734,39.18457,0.0,0.0,0.0,-6.970825,70.131226,-18.792114
1768031512358,-1.0708008,-0.0126953125,0.04345703,-4.0283203,22.338867,19.65332,0.0,0.0,0.0,-6.970825,70.131226,-18.792114
1768031512370,-1.0708008,-0.0126953125,0.04345703,-4.0283203,22.338867,19.65332,0.0,0.0,0.0,1.439209,67.456055,-6.4434814
1768031512458,-0.8598633,0.0234375,0.42089844,52.490234,45.043945,-7.9345703,0.0,0.0,0.0,1.439209,67.456055,-6.4434814
1768031512470,-0.8598633,0.0234375,0.42089844,52.490234,45.043945,-7.9345703,0.0,0.0,0.0,2.4829102,71.09802,-6.196289
1768031512558,-0.8574219,-0.03564453,0.50634766,-14.038086,-28.808594,22.277832,0.0,0.0,0.0,2.4829102,71.09802,-6.196289
1768031512569,-0.8574219,-0.03564453,0.50634766,-14.038086,-28.808594,22.277832,0.0,0.0,0.0,3.9331055,73.81714,-6.4874268
1768031512657,-0.9873047,-0.060058594,0.22314453,-19.65332,-41.748047,41.870117,0.0,0.0,0.0,3.9331055,73.81714,-6.4874268
1768031512669,-0.9873047,-0.060058594,0.22314453,-19.65332,-41.748047,41.870117,0.0,0.0,0.0,9.744873,68.4613,2.1368408
1768031512757,-0.9033203,0.04638672,0.25732422,61.279297,10.986328,-36.865234,0.0,0.0,0.0,9.744873,68.4613,2.1368408
1768031512768,-0.9033203,0.04638672,0.25732422,61.279297,10.986328,-36.865234,0.0,0.0,0.0,9.684448,68.40088,-1.6479492
1768031512857,-0.9770508,-0.049804688,0.26904297,12.939453,7.080078,-13.977051,0.0,0.0,0.0,9.684448,68.40088,-1.6479492
1768031512868,-0.9770508,-0.049804688,0.26904297,12.939453,7.080078,-13.977051,0.0,0.0,0.0,7.7893066,70.17517,-7.3168945
1768031512957,-1.25,0.13769531,0.5830078,24.475098,19.592285,-51.086426,0.0,0.0,0.0,7.7893066,70.17517,-7.3168945
1768031512968,-1.25,0.13769531,0.5830078,24.475098,19.592285,-51.086426,0.0,0.0,0.0,0.368042,73.306274,-16.051025
1768031513056,-0.68408203,0.078125,0.36132812,30.334473,-19.77539,-47.851562,0.0,0.0,0.0,0.368042,73.306274,-16.051025
1768031513068,-0.68408203,0.078125,0.36132812,30.334473,-19.77539,-47.851562,0.0,0.0,0.0,-11.189575,72.350464,-31.365967
1768031513156,-1.1171875,-0.0024414062,0.48632812,-37.841797,-9.521484,38.635254,0.0,0.0,0.0,-11.189575,72.350464,-31.365967
1768031513168,-1.1171875,-0.0024414062,0.48632812,-37.841797,-9.521484,38.635254,0.0,0.0,0.0,-7.163086,71.84509,-26.954956
1768031513256,-0.90625,-0.14794922,0.14550781,-11.108398,-6.591797,15.014648,0.0,0.0,0.0,-7.163086,71.84509,-26.954956
1768031513267,-0.90625,-0.14794922,0.14550781,-11.108398,-6.591797,15.014648,0.0,0.0,0.0,-3.2409668,69.39514,-19.89624
1768031513355,-1.0283203,0.040039062,0.3774414,-37.65869,16.845703,20.385742,0.0,0.0,0.0,-3.2409668,69.39514,-19.89624
1768031513367,-1.0283203,0.040039062,0.3774414,-37.65869,16.845703,20.385742,0.0,0.0,0.0,0.703125,70.94971,-11.2335205
1768031513455,-0.8334961,0.052246094,0.43847656,-11.291504,12.390137,-6.652832,0.0,0.0,0.0,0.703125,70.94971,-11.2335205
1768031513467,-0.8334961,0.052246094,0.43847656,-11.291504,12.390137,-6.652832,0.0,0.0,0.0,-1.5325928,73.07007,-14.188843
1768031513555,-1.1147461,-0.072753906,0.045410156,9.643555,-23.986816,4.211426,0.0,0.0,0.0,-1.5325928,73.07007,-14.188843
1768031513567,-1.1147461,-0.072753906,0.045410156,9.643555,-23.986816,4.211426,0.0,0.0,0.0,3.8122559,70.718994,-7.1850586
1768031513655,-0.8095703,0.020019531,0.3720703,37.41455,5.065918,-21.850586,0.0,0.0,0.0,3.8122559,70.718994,-7.1850586
1768031513666,-0.8095703,0.020019531,0.3720703,37.41455,5.065918,-21.850586,0.0,0.0,0.0,-2.4609375,72.00989,-18.92395
1768031513754,-0.96240234,-0.064453125,0.28076172,1.953125,-27.404785,11.779785,0.0,0.0,0.0,-2.4609375,72.00989,-18.92395
1768031513766,-0.96240234,-0.064453125,0.28076172,1.953125,-27.404785,11.779785,0.0,0.0,0.0,1.9281006,70.043335,-14.831543
1768031513854,-0.98339844,0.033691406,0.51123047,25.32959,4.0283203,-18.554688,0.0,0.0,0.0,1.9281006,70.043335,-14.831543
1768031513865,-0.98339844,0.033691406,0.51123047,25.32959,4.0283203,-18.554688,0.0,0.0,0.0,-0.1538086,71.63086,-16.946411
1768031513954,-1.0234375,-0.19335938,0.28271484,-24.047852,-3.1738281,16.235352,0.0,0.0,0.0,-0.1538086,71.63086,-16.946411
1768031513965,-1.0234375,-0.19335938,0.28271484,-24.047852,-3.1738281,16.235352,0.0,0.0,0.0,0.8514404,66.85181,-16.221313
1768031514053,-0.73535156,0.18603516,0.3022461,32.470703,-21.42334,-60.48584,0.0,0.0,0.0,0.8514404,66.85181,-16.221313
1768031514065,-0.73535156,0.18603516,0.3022461,32.470703,-21.42334,-60.48584,0.0,0.0,0.0,-6.399536,66.91223,-25.037842
1768031514153,-1.0,-0.014160156,0.5463867,-43.70117,-13.305664,62.194824,0.0,0.0,0.0,-6.399536,66.91223,-25.037842
1768031514165,-1.0,-0.014160156,0.5463867,-43.70117,-13.305664,62.194824,0.0,0.0,0.0,-3.7243652,66.70349,-20.786133
1768031514253,-1.0463867,-0.14013672,0.118652344,-60.48584,-29.174805,50.29297,0.0,0.0,0.0,-3.7243652,66.70349,-20.786133
1768031514264,-1.0463867,-0.14013672,0.118652344,-60.48584,-29.174805,50.29297,0.0,0.0,0.0,2.279663,62.946167,-10.48645
1768031514352,-0.85498047,-0.03955078,0.41357422,7.507324,71.77734,-30.88379,0.0,0.0,0.0,2.279663,62.946167,-10.48645
1768031514364,-0.85498047,-0.03955078,0.41357422,7.507324,71.77734,-30.88379,0.0,0.0,0.0,1.6369629,66.56067,-9.656982
1768031514452,-0.8955078,0.0053710938,0.6645508,-12.6953125,47.302246,-25.390625,0.0,0.0,0.0,1.6369629,66.56067,-9.656982
1768031514463,-0.8955078,0.0053710938,0.6645508,-12.6953125,47.302246,-25.390625,0.0,0.0,0.0,-7.2235107,73.88306,-21.39038
1768031514552,-1.0415039,0.25048828,0.46533203,-40.527344,-119.262695,56.030273,0.0,0.0,0.0,-7.2235107,73.88306,-21.39038
1768031514564,-1.0415039,0.25048828,0.46533203,-40.527344,-119.262695,56.030273,0.0,0.0,0.0,-2.3730469,68.92273,-16.210327
1768031514652,-0.96875,-0.12695312,0.21972656,54.56543,31.61621,-46.26465,0.0,0.0,0.0,-2.3730469,68.92273,-16.210327
1768031514663,-0.96875,-0.12695312,0.21972656,54.56543,31.61621,-46.26465,0.0,0.0,0.0,1.2304688,64.346924,-10.365601
1768031514751,-0.9921875,0.03857422,0.5126953,40.71045,41.68701,-20.812988,0.0,0.0,0.0,1.2304688,64.346924,-10.365601
