timestamp,accX,accY,accZ,gyroX,gyroY,gyroZ,magX,magY,magZ,roll,pitch,yaw
1766813760617,-0.9868164,-0.08935547,0.0073242188,-0.4272461,-3.112793,0.0,0.0,0.0,0.0,-80.67261,83.59497,-62.63855
1766813760629,-0.9868164,-0.08935547,0.0073242188,-0.4272461,-3.112793,0.0,0.0,0.0,0.0,-58.76587,82.91931,-40.62195
1766813760718,-0.95947266,-0.09423828,0.04638672,-11.413574,-11.047363,4.0893555,0.0,0.0,0.0,-58.76587,82.91931,-40.62195
1766813760729,-0.95947266,-0.09423828,0.04638672,-11.413574,-11.047363,4.0893555,0.0,0.0,0.0,-59.02954,83.07312,-40.770264
1766813760817,-1.0546875,-0.04296875,0.018554688,-5.6152344,16.540527,3.7841797,0.0,0.0,0.0,-59.02954,83.07312,-40.770264
1766813760829,-1.0546875,-0.04296875,0.018554688,-5.6152344,16.540527,3.7841797,0.0,0.0,0.0,-58.639526,83.39722,-39.693604
1766813760917,-1.0654297,-0.072753906,-0.03173828,-8.178711,15.74707,5.065918,0.0,0.0,0.0,-58.639526,83.39722,-39.693604
1766813760931,-1.0654297,-0.072753906,-0.03173828,-8.178711,15.74707,5.065918,0.0,0.0,0.0,-71.88904,84.55078,-52.437744
1766813761016,-1.0830078,-0.027832031,0.0014648438,-5.3100586,13.549805,8.056641,0.0,0.0,0.0,-71.88904,84.55078,-52.437744
1766813761028,-1.0830078,-0.027832031,0.0014648438,-5.3100586,13.549805,8.056641,0.0,0.0,0.0,-95.13611,85.40222,-75.2948
1766813761116,-0.9067383,-0.06347656,0.03173828,6.7749023,-11.169434,5.859375,0.0,0.0,0.0,-95.13611,85.40222,-75.2948
1766813761127,-0.9067383,-0.06347656,0.03173828,6.7749023,-11.169434,5.859375,0.0,0.0,0.0,-91.41724,86.02295,-72.229614
1766813761216,-0.9160156,-0.16845703,0.18652344,-4.4555664,-18.188477,-1.4648438,0.0,0.0,0.0,-91.41724,86.02295,-72.229614
1766813761227,-0.9160156,-0.16845703,0.18652344,-4.4555664,-18.188477,-1.4648438,0.0,0.0,0.0,-68.14819,85.808716,-48.762817
1766813761315,-1.0913086,-0.036132812,0.0,7.2631836,-13.000488,0.79345703,0.0,0.0,0.0,-68.14819,85.808716,-48.762817
1766813761327,-1.0913086,-0.036132812,0.0,7.2631836,-13.000488,0.79345703,0.0,0.0,0.0,-46.609497,84.36401,-27.60315
1766813761415,-0.9345703,-0.08886719,-0.00390625,8.728027,-0.8544922,-0.4272461,0.0,0.0,0.0,-46.609497,84.36401,-27.60315
1766813761427,-0.9345703,-0.08886719,-0.00390625,8.728027,-0.8544922,-0.4272461,0.0,0.0,0.0,-46.538086,84.6936,-28.300781
1766813761515,-0.98876953,-0.07373047,0.013671875,3.6010742,6.958008,0.24414062,0.0,0.0,0.0,-46.538086,84.6936,-28.300781
1766813761526,-0.98876953,-0.07373047,0.013671875,3.6010742,6.958008,0.24414062,0.0,0.0,0.0,-50.229492,84.68262,-32.926025
1766813761614,-1.0200195,-0.08886719,-0.0078125,6.7749023,12.390137,1.7089844,0.0,0.0,0.0,-50.229492,84.68262,-32.926025
1766813761626,-1.0200195,-0.08886719,-0.0078125,6.7749023,12.390137,1.7089844,0.0,0.0,0.0,-62.995605,85.45166,-46.312866
1766813761714,-1.0283203,-0.12011719,0.044921875,-5.3710938,23.376465,-2.1972656,0.0,0.0,0.0,-62.995605,85.45166,-46.312866
1766813761726,-1.0283203,-0.12011719,0.044921875,-5.3710938,23.376465,-2.1972656,0.0,0.0,0.0,-87.20398,85.7428,-70.68054
1766813761814,-1.0737305,-0.10449219,0.0078125,-29.23584,-21.54541,-2.5024414,0.0,0.0,0.0,-87.20398,85.7428,-70.68054
1766813761825,-1.0737305,-0.10449219,0.0078125,-29.23584,-21.54541,-2.5024414,0.0,0.0,0.0,-90.631714,85.12756,-72.55371
1766813761913,-0.8457031,0.04248047,0.11230469,12.084961,-11.657715,-9.70459,0.0,0.0,0.0,-90.631714,85.12756,-72.55371
1766813761925,-0.8457031,0.04248047,0.11230469,12.084961,-11.657715,-9.70459,0.0,0.0,0.0,-70.686035,84.47937,-52.662964
1766813762013,-1.0947266,-0.15185547,-0.025390625,-1.6479492,-33.081055,-5.432129,0.0,0.0,0.0,-70.686035,84.47937,-52.662964
1766813762025,-1.0947266,-0.15185547,-0.025390625,-1.6479492,-33.081055,-5.432129,0.0,0.0,0.0,-56.898193,83.13904,-39.56726
1766813762113,-0.8964844,0.020996094,0.08544922,-1.8310547,4.4555664,2.8686523,0.0,0.0,0.0,-56.898193,83.13904,-39.56726
1766813762124,-0.8964844,0.020996094,0.08544922,-1.8310547,4.4555664,2.8686523,0.0,0.0,0.0,-49.158325,82.66113,-31.12976
1766813762213,-1.0253906,-0.11816406,0.053710938,-8.483887,5.065918,2.8686523,0.0,0.0,0.0,-49.158325,82.66113,-31.12976
1766813762224,-1.0253906,-0.11816406,0.053710938,-8.483887,5.065918,2.8686523,0.0,0.0,0.0,-47.109375,83.11157,-28.734741
1766813762312,-0.9941406,-0.033691406,0.03466797,-2.380371,13.73291,2.9296875,0.0,0.0,0.0,-47.109375,83.11157,-28.734741
1766813762324,-0.9941406,-0.033691406,0.03466797,-2.380371,13.73291,2.9296875,0.0,0.0,0.0,-55.755615,84.034424,-36.78772
1766813762412,-1.050293,-0.060058594,0.06298828,-4.5776367,14.587402,4.1503906,0.0,0.0,0.0,-55.755615,84.034424,-36.78772
1766813762423,-1.050293,-0.060058594,0.06298828,-4.5776367,14.587402,4.1503906,0.0,0.0,0.0,-68.703,85.12756,-49.44397
1766813762512,-1.0375977,-0.03466797,0.018066406,-2.6245117,-0.30517578,5.9814453,0.0,0.0,0.0,-68.703,85.12756,-49.44397
1766813762523,-1.0375977,-0.03466797,0.018066406,-2.6245117,-0.30517578,5.9814453,0.0,0.0,0.0,-72.65808,85.80322,-53.17932
1766813762611,-0.8339844,-0.09326172,0.1665039,-6.4697266,-18.859863,3.479004,0.0,0.0,0.0,-72.65808,85.80322,-53.17932
1766813762623,-0.8339844,-0.09326172,0.1665039,-6.4697266,-18.859863,3.479004,0.0,0.0,0.0,-55.909424,85.737305,-36.17798
1766813762711,-1.0864258,-0.07861328,0.0048828125,10.375977,-25.6958,-2.9296875,0.0,0.0,0.0,-55.909424,85.737305,-36.17798
1766813762723,-1.0864258,-0.07861328,0.0048828125,10.375977,-25.6958,-2.9296875,0.0,0.0,0.0,-36.831665,83.83118,-17.83081
1766813762811,-0.9404297,-0.08203125,0.06201172,9.277344,-2.0141602,-4.1503906,0.0,0.0,0.0,-36.831665,83.83118,-17.83081
1766813762822,-0.9404297,-0.08203125,0.06201172,9.277344,-2.0141602,-4.1503906,0.0,0.0,0.0,-35.354004,83.325806,-17.06726
1766813762910,-1.0415039,-0.06738281,0.083496094,13.122559,3.90625,-5.6152344,0.0,0.0,0.0,-35.354004,83.325806,-17.06726
1766813762922,-1.0415039,-0.06738281,0.083496094,13.122559,3.90625,-5.6152344,0.0,0.0,0.0,-36.49109,82.72156,-19.346924
1766813763010,-1.0288086,-0.1508789,-0.0048828125,10.192871,15.686035,-3.7231445,0.0,0.0,0.0,-36.49109,82.72156,-19.346924
1766813763022,-1.0288086,-0.1508789,-0.0048828125,10.192871,15.686035,-3.7231445,0.0,0.0,0.0,-42.857666,83.029175,-27.158203
1766813763110,-1.0463867,-0.1430664,0.07519531,-18.188477,10.864258,-1.953125,0.0,0.0,0.0,-42.857666,83.029175,-27.158203
1766813763122,-1.0463867,-0.1430664,0.07519531,-18.188477,10.864258,-1.953125,0.0,0.0,0.0,-59.902954,84.0509,-43.840942
1766813763210,-0.90625,-0.0034179688,0.0625,-11.230469,-3.0517578,-1.2207031,0.0,0.0,0.0,-59.902954,84.0509,-43.840942
1766813763221,-0.90625,-0.0034179688,0.0625,-11.230469,-3.0517578,-1.2207031,0.0,0.0,0.0,-65.302734,83.94653,-47.30713
1766813763309,-0.9746094,-0.029785156,0.22070312,6.8359375,-8.056641,-3.1738281,0.0,0.0,0.0,-65.302734,83.94653,-47.30713
1766813763321,-0.9746094,-0.029785156,0.22070312,6.8359375,-8.056641,-3.1738281,0.0,0.0,0.0,-57.925415,83.7323,-39.743042
1766813763409,-1.0644531,-0.083496094,-0.010253906,-2.2583008,-16.662598,-2.2583008,0.0,0.0,0.0,-57.925415,83.7323,-39.743042
1766813763420,-1.0644531,-0.083496094,-0.010253906,-2.2583008,-16.662598,-2.2583008,0.0,0.0,0.0,-44.197998,82.33154,-25.88379
1766813763509,-0.94140625,-0.03466797,0.07910156,0.4272461,0.36621094,4.5166016,0.0,0.0,0.0,-44.197998,82.33154,-25.88379
1766813763520,-0.94140625,-0.03466797,0.07910156,0.4272461,0.36621094,4.5166016,0.0,0.0,0.0,-46.488647,82.70508,-28.54248
1766813763609,-1.0253906,-0.09375,0.053222656,-1.159668,5.859375,-0.24414062,0.0,0.0,0.0,-46.488647,82.70508,-28.54248
1766813763620,-1.0253906,-0.09375,0.053222656,-1.159668,5.859375,-0.24414062,0.0,0.0,0.0,-45.664673,83.21594,-27.773438
1766813763708,-1.0551758,-0.040039062,0.026367188,-6.1035156,15.991211,3.7231445,0.0,0.0,0.0,-45.664673,83.21594,-27.773438
1766813763719,-1.0551758,-0.040039062,0.026367188,-6.1035156,15.991211,3.7231445,0.0,0.0,0.0,-51.399536,83.94104,-33.239136
1766813763808,-1.0786133,-0.033203125,0.06201172,3.6010742,-0.9765625,5.7373047,0.0,0.0,0.0,-51.399536,83.94104,-33.239136
1766813763819,-1.0786133,-0.033203125,0.06201172,3.6010742,-0.9765625,5.7373047,0.0,0.0,0.0,-57.56836,85.08911,-39.188232
1766813763907,-0.7915039,-0.11816406,0.083984375,-1.0375977,-11.657715,2.0751953,0.0,0.0,0.0,-57.56836,85.08911,-39.188232
1766813763919,-0.7915039,-0.11816406,0.083984375,-1.0375977,-11.657715,2.0751953,0.0,0.0,0.0,-48.411255,84.91333,-31.030884
1766813764007,-1.0205078,-0.045898438,0.15917969,25.32959,-22.521973,-6.0424805,0.0,0.0,0.0,-48.411255,84.91333,-31.030884
1766813764019,-1.0205078,-0.045898438,0.15917969,25.32959,-22.521973,-6.0424805,0.0,0.0,0.0,-38.188477,83.69934,-20.577393
1766813764107,-1.0244141,-0.104003906,0.057128906,10.253906,0.30517578,-1.7089844,0.0,0.0,0.0,-38.188477,83.69934,-20.577393
1766813764119,-1.0244141,-0.104003906,0.057128906,10.253906,0.30517578,-1.7089844,0.0,0.0,0.0,-29.382935,81.743774,-13.903198
1766813764206,-0.9472656,-0.09082031,0.099609375,13.061523,-3.8452148,-7.507324,0.0,0.0,0.0,-29.382935,81.743774,-13.903198
1766813764218,-0.9472656,-0.09082031,0.099609375,13.061523,-3.8452148,-7.507324,0.0,0.0,0.0,-33.2666,81.589966,-18.989868
1766813764306,-1.0292969,-0.083984375,0.056152344,18.615723,9.887695,-7.873535,0.0,0.0,0.0,-33.2666,81.589966,-18.989868
1766813764318,-1.0292969,-0.083984375,0.056152344,18.615723,9.887695,-7.873535,0.0,0.0,0.0,-36.655884,81.33179,-23.604126
1766813764406,-1.0742188,-0.1665039,0.072265625,10.681152,17.211914,-3.7231445,0.0,0.0,0.0,-36.655884,81.33179,-23.604126
1766813764418,-1.0742188,-0.1665039,0.072265625,10.681152,17.211914,-3.7231445,0.0,0.0,0.0,-44.813232,82.08435,-33.513794
1766813764507,-1.0483398,-0.20458984,0.08544922,-21.484375,7.446289,-5.004883,0.0,0.0,0.0,-44.813232,82.08435,-33.513794
1766813764517,-1.0483398,-0.20458984,0.08544922,-21.484375,7.446289,-5.004883,0.0,0.0,0.0,-57.804565,82.61719,-46.016235
1766813764606,-0.8251953,0.045410156,0.109375,-20.141602,-16.723633,2.0141602,0.0,0.0,0.0,-57.804565,82.61719,-46.016235
1766813764617,-0.8251953,0.045410156,0.109375,-20.141602,-16.723633,2.0141602,0.0,0.0,0.0,-61.07849,82.0459,-46.68091
1766813764705,-1.0327148,-0.072753906,0.19824219,16.235352,-5.065918,-3.112793,0.0,0.0,0.0,-61.07849,82.0459,-46.68091
1766813764716,-1.0327148,-0.072753906,0.19824219,16.235352,-5.065918,-3.112793,0.0,0.0,0.0,-49.559326,81.76575,-34.348755
1766813764805,-0.97753906,-0.12011719,4.8828125E-4,-8.7890625,-5.3710938,0.30517578,0.0,0.0,0.0,-49.559326,81.76575,-34.348755
1766813764817,-0.97753906,-0.12011719,4.8828125E-4,-8.7890625,-5.3710938,0.30517578,0.0,0.0,0.0,-44.13208,80.80444,-29.102783
1766813764905,-0.9707031,-0.057617188,0.083984375,-9.277344,-7.6904297,2.1972656,0.0,0.0,0.0,-44.13208,80.80444,-29.102783
1766813764916,-0.9707031,-0.057617188,0.083984375,-9.277344,-7.6904297,2.1972656,0.0,0.0,0.0,-44.071655,80.87036,-28.075562
1766813765004,-1.0498047,-0.0625,0.107910156,-5.92041,10.009766,-0.36621094,0.0,0.0,0.0,-44.071655,80.87036,-28.075562
1766813765016,-1.0498047,-0.0625,0.107910156,-5.92041,10.009766,-0.36621094,0.0,0.0,0.0,-44.96704,81.17798,-28.14148
1766813765104,-1.0292969,-0.11279297,0.036132812,-19.714355,22.644043,6.3476562,0.0,0.0,0.0,-44.96704,81.17798,-28.14148
1766813765116,-1.0292969,-0.11279297,0.036132812,-19.714355,22.644043,6.3476562,0.0,0.0,0.0,-52.822266,82.5238,-34.595947
1766813765204,-1.0854492,-0.07470703,0.095703125,3.7231445,4.1503906,3.112793,0.0,0.0,0.0,-52.822266,82.5238,-34.595947
1766813765215,-1.0854492,-0.07470703,0.095703125,3.7231445,4.1503906,3.112793,0.0,0.0,0.0,-65.81909,83.83667,-46.845703
1766813765303,-0.8359375,-0.11767578,0.041015625,1.4038086,-18.371582,0.9765625,0.0,0.0,0.0,-65.81909,83.83667,-46.845703
1766813765315,-0.8359375,-0.11767578,0.041015625,1.4038086,-18.371582,0.9765625,0.0,0.0,0.0,-53.931885,83.34778,-35.683594
1766813765403,-1.0664062,-0.041015625,0.17626953,17.39502,-5.3710938,-0.24414062,0.0,0.0,0.0,-53.931885,83.34778,-35.683594
1766813765414,-1.0664062,-0.041015625,0.17626953,17.39502,-5.3710938,-0.24414062,0.0,0.0,0.0,-46.75232,82.51831,-29.042358
1766813765503,-0.94677734,-0.22558594,0.080566406,-0.7324219,17.578125,11.59668,0.0,0.0,0.0,-46.75232,82.51831,-29.042358
1766813765514,-0.94677734,-0.22558594,0.080566406,-0.7324219,17.578125,11.59668,0.0,0.0,0.0,-48.2135,83.880615,-31.23413
1766813765602,-0.9472656,-0.05859375,-4.8828125E-4,-5.6762695,-0.8544922,2.5024414,0.0,0.0,0.0,-48.2135,83.880615,-31.23413
1766813765614,-0.9472656,-0.05859375,-4.8828125E-4,-5.6762695,-0.8544922,2.5024414,0.0,0.0,0.0,-49.84497,84.122314,-32.29431
1766813765702,-1.0410156,-0.045410156,0.012207031,-0.5493164,0.12207031,3.2958984,0.0,0.0,0.0,-49.84497,84.122314,-32.29431
1766813765713,-1.0410156,-0.045410156,0.012207031,-0.5493164,0.12207031,3.2958984,0.0,0.0,0.0,-46.70288,84.2157,-28.78418
1766813765802,-1.050293,-0.099121094,-0.016113281,-7.751465,14.6484375,4.3945312,0.0,0.0,0.0,-46.70288,84.2157,-28.78418
1766813765813,-1.050293,-0.099121094,-0.016113281,-7.751465,14.6484375,4.3945312,0.0,0.0,0.0,-54.28894,85.22095,-36.254883
1766813765901,-1.081543,-0.14453125,0.0,-21.66748,19.958496,1.0986328,0.0,0.0,0.0,-54.28894,85.22095,-36.254883
1766813765913,-1.081543,-0.14453125,0.0,-21.66748,19.958496,1.0986328,0.0,0.0,0.0,-87.86316,86.20972,-68.604126
1766813766001,-0.96777344,-0.010253906,0.001953125,-22.888184,-7.8125,-1.8310547,0.0,0.0,0.0,-87.86316,86.20972,-68.604126
1766813766013,-0.96777344,-0.010253906,0.001953125,-22.888184,-7.8125,-1.8310547,0.0,0.0,0.0,-95.668945,85.9845,-73.899536
1766813766101,-0.79248047,0.080078125,0.13916016,0.061035156,-17.63916,0.18310547,0.0,0.0,0.0,-95.668945,85.9845,-73.899536
1766813766112,-0.79248047,0.080078125,0.13916016,0.061035156,-17.63916,0.18310547,0.0,0.0,0.0,-67.32971,86.07239,-44.62097
1766813766201,-1.0678711,-0.096191406,0.09082031,1.953125,-42.114258,-5.1879883,0.0,0.0,0.0,-67.32971,86.07239,-44.62097
1766813766212,-1.0678711,-0.096191406,0.09082031,1.953125,-42.114258,-5.1879883,0.0,0.0,0.0,-39.347534,84.24866,-17.314453
1766813766301,-0.96972656,0.001953125,0.12646484,-2.9296875,-0.61035156,-1.5869141,0.0,0.0,0.0,-39.347534,84.24866,-17.314453
1766813766312,-0.96972656,0.001953125,0.12646484,-2.9296875,-0.61035156,-1.5869141,0.0,0.0,0.0,-29.866333,82.611694,-7.706909
1766813766400,-1.0546875,-0.047851562,0.091796875,-3.4179688,-2.380371,1.159668,0.0,0.0,0.0,-29.866333,82.611694,-7.706909
1766813766411,-1.0546875,-0.047851562,0.091796875,-3.4179688,-2.380371,1.159668,0.0,0.0,0.0,-26.350708,82.056885,-4.0759277
1766813766500,-1.0454102,-0.014160156,0.037597656,-9.155273,10.986328,1.0986328,0.0,0.0,0.0,-26.350708,82.056885,-4.0759277
1766813766511,-1.0454102,-0.014160156,0.037597656,-9.155273,10.986328,1.0986328,0.0,0.0,0.0,-28.707275,82.97974,-5.9765625
1766813766600,-1.0961914,-0.0024414062,0.043945312,-3.3569336,15.319824,3.7841797,0.0,0.0,0.0,-28.707275,82.97974,-5.9765625
1766813766611,-1.0961914,-0.0024414062,0.043945312,-3.3569336,15.319824,3.7841797,0.0,0.0,0.0,-34.222412,84.51782,-11.315918
1766813766699,-0.98095703,-0.056152344,0.0703125,3.479004,3.2958984,3.2348633,0.0,0.0,0.0,-34.222412,84.51782,-11.315918
1766813766710,-0.98095703,-0.056152344,0.0703125,3.479004,3.2958984,3.2348633,0.0,0.0,0.0,-34.887085,85.56152,-12.227783
1766813766799,-0.84033203,-0.10449219,0.19482422,0.61035156,-10.7421875,-1.2817383,0.0,0.0,0.0,-34.887085,85.56152,-12.227783
1766813766810,-0.84033203,-0.10449219,0.19482422,0.61035156,-10.7421875,-1.2817383,0.0,0.0,0.0,-29.448853,84.95178,-7.069702
1766813766899,-1.1186523,-0.038085938,0.055664062,15.441895,-10.803223,-2.5634766,0.0,0.0,0.0,-29.448853,84.95178,-7.069702
1766813766910,-1.1186523,-0.038085938,0.055664062,15.441895,-10.803223,-2.5634766,0.0,0.0,0.0,-24.708252,83.52905,-3.652954
1766813766998,-0.93603516,-0.08984375,0.049316406,14.770508,10.803223,-7.080078,0.0,0.0,0.0,-24.708252,83.52905,-3.652954
1766813767010,-0.93603516,-0.08984375,0.049316406,14.770508,10.803223,-7.080078,0.0,0.0,0.0,-31.333008,84.16077,-11.645508
1766813767098,-1.0117188,-0.057617188,0.033691406,3.4179688,2.8076172,-1.0986328,0.0,0.0,0.0,-31.333008,84.16077,-11.645508
1766813767109,-1.0117188,-0.057617188,0.033691406,3.4179688,2.8076172,-1.0986328,0.0,0.0,0.0,-35.941772,83.99048,-17.32544
1766813767197,-1.0102539,-0.071777344,0.05029297,7.507324,12.329102,-1.8920898,0.0,0.0,0.0,-35.941772,83.99048,-17.32544
1766813767209,-1.0102539,-0.071777344,0.05029297,7.507324,12.329102,-1.8920898,0.0,0.0,0.0,-45.81299,84.75403,-28.00415
1766813767297,-1.0688477,-0.123535156,-0.00390625,1.953125,22.094727,-0.7324219,0.0,0.0,0.0,-45.81299,84.75403,-28.00415
1766813767312,-1.0688477,-0.123535156,-0.00390625,1.953125,22.094727,-0.7324219,0.0,0.0,0.0,-62.094727,85.583496,-45.04944
1766813767397,-1.0024414,-0.12060547,0.005859375,-18.615723,3.7841797,-7.2631836,0.0,0.0,0.0,-62.094727,85.583496,-45.04944
1766813767410,-1.0024414,-0.12060547,0.005859375,-18.615723,3.7841797,-7.2631836,0.0,0.0,0.0,-88.70911,85.578,-70.806885
1766813767497,-0.8208008,0.05859375,0.05419922,3.7231445,-11.84082,-1.4038086,0.0,0.0,0.0,-88.70911,85.578,-70.806885
1766813767509,-0.8208008,0.05859375,0.05419922,3.7231445,-11.84082,-1.4038086,0.0,0.0,0.0,-79.11804,85.24292,-59.908447
1766813767596,-1.0566406,-0.12402344,0.096191406,14.709473,-15.441895,-7.385254,0.0,0.0,0.0,-79.11804,85.24292,-59.908447
1766813767610,-1.0566406,-0.12402344,0.096191406,14.709473,-15.441895,-7.385254,0.0,0.0,0.0,-65.599365,84.73755,-47.460938
1766813767696,-0.9692383,-0.040039062,0.005859375,-1.2817383,2.6855469,-2.9296875,0.0,0.0,0.0,-65.599365,84.73755,-47.460938
1766813767707,-0.9692383,-0.040039062,0.005859375,-1.2817383,2.6855469,-2.9296875,0.0,0.0,0.0,-50.042725,83.31482,-31.470337
1766813767796,-1.0170898,-0.091308594,0.051757812,-13.916016,-7.5683594,2.0141602,0.0,0.0,0.0,-50.042725,83.31482,-31.470337
1766813767807,-1.0170898,-0.091308594,0.051757812,-13.916016,-7.5683594,2.0141602,0.0,0.0,0.0,-52.08069,83.46863,-33.101807
1766813767895,-1.0141602,-0.05029297,0.026367188,-8.728027,7.2631836,-1.5869141,0.0,0.0,0.0,-52.08069,83.46863,-33.101807
1766813767907,-1.0141602,-0.05029297,0.026367188,-8.728027,7.2631836,-1.5869141,0.0,0.0,0.0,-52.108154,83.56201,-31.882324
1766813767995,-1.0302734,-0.03515625,0.012207031,-10.620117,15.197754,5.3100586,0.0,0.0,0.0,-52.108154,83.56201,-31.882324
1766813768007,-1.0302734,-0.03515625,0.012207031,-10.620117,15.197754,5.3100586,0.0,0.0,0.0,-61.38611,84.39148,-40.303345
1766813768095,-1.015625,-0.037597656,0.059570312,-1.2207031,1.5258789,5.9814453,0.0,0.0,0.0,-61.38611,84.39148,-40.303345
1766813768106,-1.015625,-0.037597656,0.059570312,-1.2207031,1.5258789,5.9814453,0.0,0.0,0.0,-71.37268,85.5011,-49.86145
1766813768195,-0.8125,-0.099121094,0.06933594,-0.8544922,-10.620117,2.0141602,0.0,0.0,0.0,-71.37268,85.5011,-49.86145
1766813768206,-0.8125,-0.099121094,0.06933594,-0.8544922,-10.620117,2.0141602,0.0,0.0,0.0,-61.644287,85.70984,-40.358276
1766813768294,-1.0771484,-0.09326172,0.068359375,15.991211,-16.906738,-5.554199,0.0,0.0,0.0,-61.644287,85.70984,-40.358276
1766813768306,-1.0771484,-0.09326172,0.068359375,15.991211,-16.906738,-5.554199,0.0,0.0,0.0,-49.26819,84.78699,-28.372192
1766813768394,-0.9892578,-0.083496094,0.033203125,6.3476562,3.9672852,0.061035156,0.0,0.0,0.0,-49.26819,84.78699,-28.372192
1766813768406,-0.9892578,-0.083496094,0.033203125,6.3476562,3.9672852,0.061035156,0.0,0.0,0.0,-44.25293,83.86963,-24.46106
1766813768494,-0.9794922,-0.08935547,0.048339844,5.92041,-2.6855469,-1.4648438,0.0,0.0,0.0,-44.25293,83.86963,-24.46106
1766813768505,-0.9794922,-0.08935547,0.048339844,5.92041,-2.6855469,-1.4648438,0.0,0.0,0.0,-45.439453,83.792725,-26.460571
1766813768593,-1.0375977,-0.083496094,0.0390625,12.145996,9.277344,-2.746582,0.0,0.0,0.0,-45.439453,83.792725,-26.460571
1766813768605,-1.0375977,-0.083496094,0.0390625,12.145996,9.277344,-2.746582,0.0,0.0,0.0,-48.482666,83.92456,-30.393677
1766813768693,-1.0737305,-0.12939453,0.0146484375,7.873535,15.869141,-1.0986328,0.0,0.0,0.0,-48.482666,83.92456,-30.393677
1766813768705,-1.0737305,-0.12939453,0.0146484375,7.873535,15.869141,-1.0986328,0.0,0.0,0.0,-59.644775,84.44641,-42.75879
1766813768793,-0.99853516,-0.12792969,0.020019531,-15.258789,10.253906,-2.6855469,0.0,0.0,0.0,-59.644775,84.44641,-42.75879
1766813768805,-0.99853516,-0.12792969,0.020019531,-15.258789,10.253906,-2.6855469,0.0,0.0,0.0,-76.04187,84.70459,-58.87024
1766813768892,-0.97265625,-0.051757812,0.036621094,-12.084961,-6.5307617,-1.4648438,0.0,0.0,0.0,-76.04187,84.70459,-58.87024
1766813768904,-0.97265625,-0.051757812,0.036621094,-12.084961,-6.5307617,-1.4648438,0.0,0.0,0.0,-83.13904,84.52881,-64.44031
1766813768992,-0.8354492,0.016113281,0.12695312,4.3945312,-9.70459,-0.61035156,0.0,0.0,0.0,-83.13904,84.52881,-64.44031
1766813769004,-0.8354492,0.016113281,0.12695312,4.3945312,-9.70459,-0.61035156,0.0,0.0,0.0,-71.361694,84.210205,-52.454224
1766813769092,-1.0268555,-0.10449219,0.08300781,-9.094238,-38.94043,0.9765625,0.0,0.0,0.0,-71.361694,84.210205,-52.454224
1766813769103,-1.0268555,-0.10449219,0.08300781,-9.094238,-38.94043,0.9765625,0.0,0.0,0.0,-51.124878,83.28186,-32.10205
1766813769192,-1.012207,-0.06640625,0.072753906,-2.6245117,4.0283203,2.1972656,0.0,0.0,0.0,-51.124878,83.28186,-32.10205
1766813769203,-1.012207,-0.06640625,0.072753906,-2.6245117,4.0283203,2.1972656,0.0,0.0,0.0,-37.886353,82.18323,-18.336182
1766813769291,-1.0371094,-0.055664062,0.087402344,-8.117676,-7.6293945,2.9296875,0.0,0.0,0.0,-37.886353,82.18323,-18.336182
1766813769303,-1.0371094,-0.055664062,0.087402344,-8.117676,-7.6293945,2.9296875,0.0,0.0,0.0,-33.673096,81.831665,-13.09021
1766813769391,-1.0654297,-0.015136719,0.044921875,-10.009766,6.7749023,4.760742,0.0,0.0,0.0,-33.673096,81.831665,-13.09021
1766813769402,-1.0654297,-0.015136719,0.044921875,-10.009766,6.7749023,4.760742,0.0,0.0,0.0,-35.040894,82.611694,-13.7109375
1766813769491,-1.0673828,-0.01171875,0.03466797,-8.117676,16.357422,7.080078,0.0,0.0,0.0,-35.040894,82.611694,-13.7109375
1766813769502,-1.0673828,-0.01171875,0.03466797,-8.117676,16.357422,7.080078,0.0,0.0,0.0,-39.210205,84.39697,-17.424316
1766813769590,-0.94873047,-0.037597656,0.07128906,7.751465,0.61035156,2.0141602,0.0,0.0,0.0,-39.210205,84.39697,-17.424316
1766813769602,-0.94873047,-0.037597656,0.07128906,7.751465,0.61035156,2.0141602,0.0,0.0,0.0,-38.2489,85.29236,-16.809082
1766813769690,-0.8417969,-0.14746094,0.1928711,3.3569336,-6.5307617,-4.333496,0.0,0.0,0.0,-38.2489,85.29236,-16.809082
1766813769702,-0.8417969,-0.14746094,0.1928711,3.3569336,-6.5307617,-4.333496,0.0,0.0,0.0,-35.683594,84.83093,-14.589844
1766813769790,-1.1357422,-0.026367188,0.06591797,11.108398,-18.066406,-2.5024414,0.0,0.0,0.0,-35.683594,84.83093,-14.589844
1766813769801,-1.1357422,-0.026367188,0.06591797,11.108398,-18.066406,-2.5024414,0.0,0.0,0.0,-28.690796,83.03467,-8.953857
1766813769889,-0.9511719,-0.08544922,0.044921875,13.977051,9.155273,-0.61035156,0.0,0.0,0.0,-28.690796,83.03467,-8.953857
1766813769901,-0.9511719,-0.08544922,0.044921875,13.977051,9.155273,-0.61035156,0.0,0.0,0.0,-30.064087,83.54553,-11.288452
1766813769989,-1.0205078,-0.07470703,0.088378906,4.3945312,12.329102,-1.7089844,0.0,0.0,0.0,-30.064087,83.54553,-11.288452
1766813770001,-1.0205078,-0.07470703,0.088378906,4.3945312,12.329102,-1.7089844,0.0,0.0,0.0,-35.78247,84.1333,-17.731934
1766813770089,-1.0219727,-0.06347656,0.022460938,7.5683594,17.700195,-0.61035156,0.0,0.0,0.0,-35.78247,84.1333,-17.731934
1766813770100,-1.0219727,-0.06347656,0.022460938,7.5683594,17.700195,-0.61035156,0.0,0.0,0.0,-50.630493,85.319824,-33.42041
1766813770189,-1.0375977,-0.09863281,0.0107421875,4.333496,18.127441,-1.2207031,0.0,0.0,0.0,-50.630493,85.319824,-33.42041
1766813770200,-1.0375977,-0.09863281,0.0107421875,4.333496,18.127441,-1.2207031,0.0,0.0,0.0,-73.756714,86.121826,-57.200317
1766813770288,-0.9819336,-0.09472656,0.0107421875,-4.8828125,9.155273,-4.5166016,0.0,0.0,0.0,-73.756714,86.121826,-57.200317
1766813770300,-0.9819336,-0.09472656,0.0107421875,-4.8828125,9.155273,-4.5166016,0.0,0.0,0.0,-94.94385,85.913086,-78.2666
1766813770388,-0.9892578,-0.049804688,0.010253906,-7.507324,-5.004883,-5.1879883,0.0,0.0,0.0,-94.94385,85.913086,-78.2666
1766813770399,-0.9892578,-0.049804688,0.010253906,-7.507324,-5.004883,-5.1879883,0.0,0.0,0.0,-92.70813,85.33081,-75.12451
1766813770488,-0.85546875,-0.047851562,0.1616211,5.7373047,-15.991211,-4.0283203,0.0,0.0,0.0,-92.70813,85.33081,-75.12451
1766813770499,-0.85546875,-0.047851562,0.1616211,5.7373047,-15.991211,-4.0283203,0.0,0.0,0.0,-78.36548,84.89136,-60.88623
1766813770587,-1.081543,-0.10205078,0.041503906,-21.728516,-39.367676,3.4179688,0.0,0.0,0.0,-78.36548,84.89136,-60.88623
1766813770599,-1.081543,-0.10205078,0.041503906,-21.728516,-39.367676,3.4179688,0.0,0.0,0.0,-49.213257,83.24341,-31.239624
1766813770687,-0.92285156,-0.024902344,0.053222656,-6.958008,2.746582,3.112793,0.0,0.0,0.0,-49.213257,83.24341,-31.239624
1766813770699,-0.92285156,-0.024902344,0.053222656,-6.958008,2.746582,3.112793,0.0,0.0,0.0,-41.281128,82.683105,-21.994629
1766813770787,-1.0546875,-0.060546875,0.05517578,-9.277344,-5.7373047,5.2490234,0.0,0.0,0.0,-41.281128,82.683105,-21.994629
1766813770799,-1.0546875,-0.060546875,0.05517578,-9.277344,-5.7373047,5.2490234,0.0,0.0,0.0,-35.22766,82.60071,-14.7821045
1766813770886,-1.0458984,-0.0146484375,0.021484375,-3.540039,11.230469,5.3710938,0.0,0.0,0.0,-35.22766,82.60071,-14.7821045
1766813770899,-1.0458984,-0.0146484375,0.021484375,-3.540039,11.230469,5.3710938,0.0,0.0,0.0,-35.112305,83.567505,-14.282227
1766813770986,-1.0844727,-0.020507812,0.0234375,-1.2207031,17.8833,2.4414062,0.0,0.0,0.0,-35.112305,83.567505,-14.282227
1766813770998,-1.0844727,-0.020507812,0.0234375,-1.2207031,17.8833,2.4414062,0.0,0.0,0.0,-43.76953,85.08362,-23.05481
1766813771086,-0.9980469,-0.034179688,0.056152344,12.207031,11.108398,1.0375977,0.0,0.0,0.0,-43.76953,85.08362,-23.05481
1766813771097,-0.9980469,-0.034179688,0.056152344,12.207031,11.108398,1.0375977,0.0,0.0,0.0,-56.07422,86.5448,-35.958252
1766813771186,-0.77978516,-0.14453125,0.1586914,-6.8359375,-10.620117,-6.5307617,0.0,0.0,0.0,-56.07422,86.5448,-35.958252
1766813771197,-0.77978516,-0.14453125,0.1586914,-6.8359375,-10.620117,-6.5307617,0.0,0.0,0.0,-54.871216,86.2207,-34.96399
1766813771285,-1.1401367,-0.0078125,0.029296875,10.986328,-23.4375,-5.554199,0.0,0.0,0.0,-54.871216,86.2207,-34.96399
1766813771297,-1.1401367,-0.0078125,0.029296875,10.986328,-23.4375,-5.554199,0.0,0.0,0.0,-41.259155,84.23218,-21.500244
1766813771385,-0.94677734,-0.1015625,0.03564453,14.160156,7.6904297,-2.746582,0.0,0.0,0.0,-41.259155,84.23218,-21.500244
1766813771396,-0.94677734,-0.1015625,0.03564453,14.160156,7.6904297,-2.746582,0.0,0.0,0.0,-38.375244,84.089355,-19.572144
1766813771485,-1.0297852,-0.10107422,0.06347656,6.3476562,6.286621,-4.211426,0.0,0.0,0.0,-38.375244,84.089355,-19.572144
1766813771496,-1.0297852,-0.10107422,0.06347656,6.3476562,6.286621,-4.211426,0.0,0.0,0.0,-43.511353,84.01245,-25.905762
1766813771584,-1.0356445,-0.08642578,0.010253906,13.305664,13.183594,-4.333496,0.0,0.0,0.0,-43.511353,84.01245,-25.905762
1766813771596,-1.0356445,-0.08642578,0.010253906,13.305664,13.183594,-4.333496,0.0,0.0,0.0,-53.909912,84.402466,-37.249146
1766813771684,-1.0136719,-0.12060547,0.0034179688,-3.1738281,9.216309,-0.061035156,0.0,0.0,0.0,-53.909912,84.402466,-37.249146
1766813771695,-1.0136719,-0.12060547,0.0034179688,-3.1738281,9.216309,-0.061035156,0.0,0.0,0.0,-65.8136,84.81995,-49.608765
1766813771784,-1.0073242,-0.12207031,0.036132812,-16.601562,13.549805,1.4648438,0.0,0.0,0.0,-65.8136,84.81995,-49.608765
1766813771795,-1.0073242,-0.12207031,0.036132812,-16.601562,13.549805,1.4648438,0.0,0.0,0.0,-81.62842,85.12756,-64.55017
1766813771883,-0.93359375,-0.07714844,0.032714844,-20.629883,0.4272461,-0.5493164,0.0,0.0,0.0,-81.62842,85.12756,-64.55017
1766813771895,-0.93359375,-0.07714844,0.032714844,-20.629883,0.4272461,-0.5493164,0.0,0.0,0.0,-91.94458,85.149536,-72.63611
1766813771983,-0.8540039,0.0126953125,0.16015625,-2.9907227,-17.27295,-2.319336,0.0,0.0,0.0,-91.94458,85.149536,-72.63611
1766813771995,-0.8540039,0.0126953125,0.16015625,-2.9907227,-17.27295,-2.319336,0.0,0.0,0.0,-76.503296,85.10559,-55.689697
1766813772083,-1.1069336,-0.099121094,0.036621094,-8.605957,-35.461426,0.18310547,0.0,0.0,0.0,-76.503296,85.10559,-55.689697
1766813772094,-1.1069336,-0.099121094,0.036621094,-8.605957,-35.461426,0.18310547,0.0,0.0,0.0,-48.96057,83.39722,-27.894287
1766813772182,-0.95703125,-0.04248047,0.043945312,-6.958008,-3.479004,-1.159668,0.0,0.0,0.0,-48.96057,83.39722,-27.894287
1766813772194,-0.95703125,-0.04248047,0.043945312,-6.958008,-3.479004,-1.159668,0.0,0.0,0.0,-41.764526,82.53479,-20.055542
1766813772282,-1.0180664,-0.061035156,0.055664062,-9.887695,0.5493164,-0.9765625,0.0,0.0,0.0,-41.764526,82.53479,-20.055542
1766813772294,-1.0180664,-0.061035156,0.055664062,-9.887695,0.5493164,-0.9765625,0.0,0.0,0.0,-39.82544,82.11731,-17.479248
1766813772382,-1.0693359,-0.021484375,0.026367188,-6.5307617,7.9345703,4.638672,0.0,0.0,0.0,-39.82544,82.11731,-17.479248
1766813772393,-1.0693359,-0.021484375,0.026367188,-6.5307617,7.9345703,4.638672,0.0,0.0,0.0,-41.791992,82.76001,-18.682251
1766813772482,-1.0498047,-0.0014648438,0.038085938,1.4648438,17.822266,4.333496,0.0,0.0,0.0,-41.791992,82.76001,-18.682251
1766813772493,-1.0498047,-0.0014648438,0.038085938,1.4648438,17.822266,4.333496,0.0,0.0,0.0,-49.94934,84.35303,-26.938477
1766813772581,-0.9658203,-0.05078125,0.07373047,13.48877,-1.953125,3.8452148,0.0,0.0,0.0,-49.94934,84.35303,-26.938477
1766813772593,-0.9658203,-0.05078125,0.07373047,13.48877,-1.953125,3.8452148,0.0,0.0,0.0,-53.168335,85.495605,-31.261597
1766813772681,-0.8496094,-0.16699219,0.14208984,3.2348633,-3.8452148,-3.90625,0.0,0.0,0.0,-53.168335,85.495605,-31.261597
1766813772693,-0.8496094,-0.16699219,0.14208984,3.2348633,-3.8452148,-3.90625,0.0,0.0,0.0,-45.55481,85.182495,-24.44458
1766813772781,-1.1728516,-0.06982422,0.048828125,5.859375,-19.958496,-5.859375,0.0,0.0,0.0,-45.55481,85.182495,-24.44458
1766813772792,-1.1728516,-0.06982422,0.048828125,5.859375,-19.958496,-5.859375,0.0,0.0,0.0,-40.67688,83.72131,-19.967651
1766813772880,-0.92626953,-0.08105469,0.043945312,4.638672,14.526367,-2.1972656,0.0,0.0,0.0,-40.67688,83.72131,-19.967651
1766813772892,-0.92626953,-0.08105469,0.043945312,4.638672,14.526367,-2.1972656,0.0,0.0,0.0,-43.269653,83.688354,-23.082275
1766813772980,-1.0024414,-0.08300781,0.037109375,12.6953125,5.859375,-4.5166016,0.0,0.0,0.0,-43.269653,83.688354,-23.082275
1766813772992,-1.0024414,-0.08300781,0.037109375,12.6953125,5.859375,-4.5166016,0.0,0.0,0.0,-50.218506,83.86963,-31.052856
1766813773080,-1.027832,-0.12841797,0.04345703,11.291504,20.690918,-7.446289,0.0,0.0,0.0,-50.218506,83.86963,-31.052856
1766813773091,-1.027832,-0.12841797,0.04345703,11.291504,20.690918,-7.446289,0.0,0.0,0.0,-62.457275,84.06738,-44.61548
1766813773180,-1.0229492,-0.13378906,-0.0048828125,-6.958008,13.244629,-0.7324219,0.0,0.0,0.0,-62.457275,84.06738,-44.61548
1766813773191,-1.0229492,-0.13378906,-0.0048828125,-6.958008,13.244629,-0.7324219,0.0,0.0,0.0,-79.90906,84.10034,-62.907715
1766813773279,-0.9902344,-0.13671875,0.009277344,-18.310547,18.981934,-0.9765625,0.0,0.0,0.0,-79.90906,84.10034,-62.907715
1766813773291,-0.9902344,-0.13671875,0.009277344,-18.310547,18.981934,-0.9765625,0.0,0.0,0.0,-98.09143,83.96301,-79.90906
1766813773379,-0.9536133,-0.07421875,0.013183594,-18.493652,-5.004883,2.2583008,0.0,0.0,0.0,-98.09143,83.96301,-79.90906
1766813773390,-0.9536133,-0.07421875,0.013183594,-18.493652,-5.004883,2.2583008,0.0,0.0,0.0,-104.0625,83.85315,-83.75427
1766813773479,-0.85839844,-0.023925781,0.16357422,-8.422852,-15.136719,2.9907227,0.0,0.0,0.0,-104.0625,83.85315,-83.75427
1766813773491,-0.85839844,-0.023925781,0.16357422,-8.422852,-15.136719,2.9907227,0.0,0.0,0.0,-87.681885,84.54529,-65.44556
1766813773578,-1.1054688,-0.05029297,-0.0146484375,-19.714355,-40.161133,10.7421875,0.0,0.0,0.0,-87.681885,84.54529,-65.44556
1766813773590,-1.1054688,-0.05029297,-0.0146484375,-19.714355,-40.161133,10.7421875,0.0,0.0,0.0,-54.591064,83.83667,-31.838379
1766813773678,-0.92285156,-0.051757812,0.029785156,5.6152344,2.0141602,-2.6855469,0.0,0.0,0.0,-54.591064,83.83667,-31.838379
1766813773690,-0.92285156,-0.051757812,0.029785156,5.6152344,2.0141602,-2.6855469,0.0,0.0,0.0,-49.191284,83.72131,-26.680298
1766813773778,-1.0649414,-0.043945312,0.07421875,-1.0986328,0.0,1.5869141,0.0,0.0,0.0,-49.191284,83.72131,-26.680298
1766813773789,-1.0649414,-0.043945312,0.07421875,-1.0986328,0.0,1.5869141,0.0,0.0,0.0,-45.758057,83.66089,-23.027344
1766813773877,-1.0751953,-0.05078125,-0.014160156,-4.5776367,9.643555,1.0986328,0.0,0.0,0.0,-45.758057,83.66089,-23.027344
1766813773889,-1.0751953,-0.05078125,-0.014160156,-4.5776367,9.643555,1.0986328,0.0,0.0,0.0,-51.141357,84.20471,-28.564453
1766813773977,-1.0571289,-0.005859375,-0.00390625,0.24414062,14.221191,2.2583008,0.0,0.0,0.0,-51.141357,84.20471,-28.564453
1766813773989,-1.0571289,-0.005859375,-0.00390625,0.24414062,14.221191,2.2583008,0.0,0.0,0.0,-64.940186,85.36377,-42.511597
1766813774077,-0.86328125,-0.08544922,0.06689453,9.338379,-0.12207031,-1.7089844,0.0,0.0,0.0,-64.940186,85.36377,-42.511597
1766813774089,-0.86328125,-0.08544922,0.06689453,9.338379,-0.12207031,-1.7089844,0.0,0.0,0.0,-72.11426,85.86914,-50.603027
1766813774177,-0.9433594,-0.17382812,0.14404297,9.460449,-10.314941,-8.422852,0.0,0.0,0.0,-72.11426,85.86914,-50.603027
1766813774188,-0.9433594,-0.17382812,0.14404297,9.460449,-10.314941,-8.422852,0.0,0.0,0.0,-64.2865,84.75952,-42.96753
1766813774276,-1.0800781,-0.044433594,0.015625,10.864258,-0.18310547,0.18310547,0.0,0.0,0.0,-64.2865,84.75952,-42.96753
1766813774288,-1.0800781,-0.044433594,0.015625,10.864258,-0.18310547,0.18310547,0.0,0.0,0.0,-51.185303,83.34778,-30.981445
1766813774376,-0.9501953,-0.13720703,-0.01171875,12.268066,-2.319336,-3.6621094,0.0,0.0,0.0,-51.185303,83.34778,-30.981445
1766813774387,-0.9501953,-0.13720703,-0.01171875,12.268066,-2.319336,-3.6621094,0.0,0.0,0.0,-55.51941,83.54553,-36.66687
1766813774476,-1.0039062,-0.09423828,0.04345703,6.4697266,8.056641,-1.953125,0.0,0.0,0.0,-55.51941,83.54553,-36.66687
1766813774487,-1.0039062,-0.09423828,0.04345703,6.4697266,8.056641,-1.953125,0.0,0.0,0.0,-60.353394,83.46863,-42.23694
1766813774575,-1.0273438,-0.09277344,-0.0063476562,3.7841797,7.9345703,0.8544922,0.0,0.0,0.0,-60.353394,83.46863,-42.23694
1766813774587,-1.0273438,-0.09277344,-0.0063476562,3.7841797,7.9345703,0.8544922,0.0,0.0,0.0,-64.62158,83.79822,-46.697388
1766813774675,-1.0317383,-0.118652344,-0.010253906,5.065918,10.498047,1.2207031,0.0,0.0,0.0,-64.62158,83.79822,-46.697388
1766813774687,-1.0317383,-0.118652344,-0.010253906,5.065918,10.498047,1.2207031,0.0,0.0,0.0,-74.02588,84.23218,-56.54663
1766813774775,-1.0180664,-0.16210938,0.037597656,-10.559082,7.1411133,-3.4179688,0.0,0.0,0.0,-74.02588,84.23218,-56.54663
1766813774786,-1.0180664,-0.16210938,0.037597656,-10.559082,7.1411133,-3.4179688,0.0,0.0,0.0,-86.21521,84.14429,-68.42285
1766813774874,-0.9189453,-0.029785156,-0.01953125,-1.7700195,-4.5166016,-3.4179688,0.0,0.0,0.0,-86.21521,84.14429,-68.42285
1766813774886,-0.9189453,-0.029785156,-0.01953125,-1.7700195,-4.5166016,-3.4179688,0.0,0.0,0.0,-85.53955,83.79822,-66.64307
1766813774974,-0.91259766,-0.07128906,0.21142578,11.230469,-12.390137,-0.7324219,0.0,0.0,0.0,-85.53955,83.79822,-66.64307
1766813774986,-0.91259766,-0.07128906,0.21142578,11.230469,-12.390137,-0.7324219,0.0,0.0,0.0,-75.54199,83.704834,-56.727905
1766813775074,-1.0732422,-0.09863281,-0.021972656,-12.878418,-21.240234,1.5869141,0.0,0.0,0.0,-75.54199,83.704834,-56.727905
1766813775085,-1.0732422,-0.09863281,-0.021972656,-12.878418,-21.240234,1.5869141,0.0,0.0,0.0,-55.41504,82.41943,-36.436157
1766813775174,-0.92822266,-0.071777344,0.053222656,-6.7749023,-2.8076172,3.2348633,0.0,0.0,0.0,-55.41504,82.41943,-36.436157
1766813775185,-0.92822266,-0.071777344,0.053222656,-6.7749023,-2.8076172,3.2348633,0.0,0.0,0.0,-56.26648,82.65564,-36.705322
1766813775273,-1.0297852,-0.067871094,0.06933594,-20.874023,0.12207031,7.6904297,0.0,0.0,0.0,-56.26648,82.65564,-36.705322
1766813775285,-1.0297852,-0.067871094,0.06933594,-20.874023,0.12207031,7.6904297,0.0,0.0,0.0,-51.2677,82.87537,-29.871826
1766813775373,-1.0058594,-0.030273438,0.0107421875,-14.831543,6.591797,8.911133,0.0,0.0,0.0,-51.2677,82.87537,-29.871826
1766813775384,-1.0058594,-0.030273438,0.0107421875,-14.831543,6.591797,8.911133,0.0,0.0,0.0,-51.83899,83.880615,-28.948975
1766813775473,-1.0908203,-0.009277344,-9.765625E-4,-9.82666,13.793945,9.277344,0.0,0.0,0.0,-51.83899,83.880615,-28.948975
1766813775484,-1.0908203,-0.009277344,-9.765625E-4,-9.82666,13.793945,9.277344,0.0,0.0,0.0,-56.80481,85.42969,-32.563477
1766813775572,-0.9975586,-0.055664062,0.033203125,1.5869141,-4.699707,2.0751953,0.0,0.0,0.0,-56.80481,85.42969,-32.563477
1766813775584,-0.9975586,-0.055664062,0.033203125,1.5869141,-4.699707,2.0751953,0.0,0.0,0.0,-54.975586,86.467896,-30.459595
1766813775672,-0.7734375,-0.12011719,0.17041016,-8.911133,-16.967773,-5.3710938,0.0,0.0,0.0,-54.975586,86.467896,-30.459595
1766813775683,-0.7734375,-0.12011719,0.17041016,-8.911133,-16.967773,-5.3710938,0.0,0.0,0.0,-41.27014,85.24841,-16.430054
1766813775772,-1.1259766,-0.05859375,0.1015625,6.0424805,-39.30664,-4.5776367,0.0,0.0,0.0,-41.27014,85.24841,-16.430054
1766813775783,-1.1259766,-0.05859375,0.1015625,6.0424805,-39.30664,-4.5776367,0.0,0.0,0.0,-29.783936,82.69409,-5.383301
1766813775871,-0.96435547,-0.08984375,0.12158203,6.4086914,3.2958984,-2.319336,0.0,0.0,0.0,-29.783936,82.69409,-5.383301
1766813775883,-0.96435547,-0.08984375,0.12158203,6.4086914,3.2958984,-2.319336,0.0,0.0,0.0,-27.086792,81.4032,-3.312378
1766813775971,-1.0361328,-0.091796875,0.12988281,8.422852,-8.850098,-2.0751953,0.0,0.0,0.0,-27.086792,81.4032,-3.312378
1766813775983,-1.0361328,-0.091796875,0.12988281,8.422852,-8.850098,-2.0751953,0.0,0.0,0.0,-25.757446,80.71106,-2.8894043
1766813776071,-1.0141602,-0.103027344,0.11376953,11.291504,1.8310547,-1.8310547,0.0,0.0,0.0,-25.757446,80.71106,-2.8894043
1766813776082,-1.0141602,-0.103027344,0.11376953,11.291504,1.8310547,-1.8310547,0.0,0.0,0.0,-27.070312,80.74402,-5.7128906
1766813776170,-1.0419922,-0.088378906,0.08691406,0.061035156,6.652832,2.5634766,0.0,0.0,0.0,-27.070312,80.74402,-5.7128906
1766813776182,-1.0419922,-0.088378906,0.08691406,0.061035156,6.652832,2.5634766,0.0,0.0,0.0,-27.713013,80.97473,-7.1081543
1766813776270,-0.99658203,-0.10498047,0.125,-11.901855,13.85498,3.540039,0.0,0.0,0.0,-27.713013,80.97473,-7.1081543
1766813776282,-0.99658203,-0.10498047,0.125,-11.901855,13.85498,3.540039,0.0,0.0,0.0,-32.678833,82.578735,-11.799316
1766813776370,-0.80908203,-0.04248047,0.16699219,-15.686035,-9.033203,0.18310547,0.0,0.0,0.0,-32.678833,82.578735,-11.799316
1766813776381,-0.80908203,-0.04248047,0.16699219,-15.686035,-9.033203,0.18310547,0.0,0.0,0.0,-36.364746,82.97974,-14.309692
1766813776470,-1.0478516,-0.095214844,0.20654297,9.033203,-13.793945,-4.8828125,0.0,0.0,0.0,-36.364746,82.97974,-14.309692
1766813776481,-1.0478516,-0.095214844,0.20654297,9.033203,-13.793945,-4.8828125,0.0,0.0,0.0,-31.569214,81.98547,-9.1241455
1766813776569,-1.043457,0.0,0.06640625,-7.446289,0.12207031,2.2583008,0.0,0.0,0.0,-31.569214,81.98547,-9.1241455
1766813776581,-1.043457,0.0,0.06640625,-7.446289,0.12207031,2.2583008,0.0,0.0,0.0,-23.856812,80.288086,-0.5383301
1766813776669,-0.94140625,-0.032714844,0.09863281,-7.080078,-2.319336,1.159668,0.0,0.0,0.0,-23.856812,80.288086,-0.5383301
1766813776680,-0.94140625,-0.032714844,0.09863281,-7.080078,-2.319336,1.159668,0.0,0.0,0.0,-25.048828,80.77698,-1.4611816
1766813776769,-1.0234375,-0.009765625,0.07714844,-3.2958984,11.047363,1.3427734,0.0,0.0,0.0,-25.048828,80.77698,-1.4611816
1766813776780,-1.0234375,-0.009765625,0.07714844,-3.2958984,11.047363,1.3427734,0.0,0.0,0.0,-25.9552,81.260376,-2.0379639
1766813776869,-1.0688477,-0.020996094,0.049316406,-4.8828125,22.216797,2.6245117,0.0,0.0,0.0,-25.9552,81.260376,-2.0379639
1766813776880,-1.0688477,-0.020996094,0.049316406,-4.8828125,22.216797,2.6245117,0.0,0.0,0.0,-30.723267,82.95227,-6.7401123
1766813776968,-1.0761719,0.041015625,0.03466797,5.004883,22.033691,7.1411133,0.0,0.0,0.0,-30.723267,82.95227,-6.7401123
1766813776980,-1.0761719,0.041015625,0.03466797,5.004883,22.033691,7.1411133,0.0,0.0,0.0,-41.715088,85.35278,-17.858276
1766813777068,-0.95214844,-0.06591797,0.072265625,18.493652,0.91552734,2.6245117,0.0,0.0,0.0,-41.715088,85.35278,-17.858276
1766813777079,-0.95214844,-0.06591797,0.072265625,18.493652,0.91552734,2.6245117,0.0,0.0,0.0,-43.016968,86.693115,-20.775146
1766813777167,-0.8076172,-0.1821289,0.16601562,-4.699707,-11.657715,-8.972168,0.0,0.0,0.0,-43.016968,86.693115,-20.775146
1766813777179,-0.8076172,-0.1821289,0.16601562,-4.699707,-11.657715,-8.972168,0.0,0.0,0.0,-39.11133,86.17676,-17.583618
1766813777267,-1.1430664,-0.024902344,0.06738281,1.3427734,-34.240723,-1.4038086,0.0,0.0,0.0,-39.11133,86.17676,-17.583618
1766813777279,-1.1430664,-0.024902344,0.06738281,1.3427734,-34.240723,-1.4038086,0.0,0.0,0.0,-28.866577,83.45764,-7.1905518
1766813777367,-0.9614258,-0.06933594,0.068847656,7.507324,11.657715,-3.0517578,0.0,0.0,0.0,-28.866577,83.45764,-7.1905518
1766813777379,-0.9614258,-0.06933594,0.068847656,7.507324,11.657715,-3.0517578,0.0,0.0,0.0,-25.960693,82.65564,-4.553833
1766813777467,-1.0058594,-0.07910156,0.10595703,5.92041,-4.5776367,-4.699707,0.0,0.0,0.0,-25.960693,82.65564,-4.553833
1766813777478,-1.0058594,-0.07910156,0.10595703,5.92041,-4.5776367,-4.699707,0.0,0.0,0.0,-29.542236,82.5238,-9.234009
1766813777566,-1.0214844,-0.08544922,0.103027344,5.859375,4.8217773,-4.9438477,0.0,0.0,0.0,-29.542236,82.5238,-9.234009
1766813777578,-1.0214844,-0.08544922,0.103027344,5.859375,4.8217773,-4.9438477,0.0,0.0,0.0,-32.678833,82.43042,-13.0407715
1766813777666,-1.0473633,-0.080078125,0.044921875,3.3569336,7.8125,-1.8310547,0.0,0.0,0.0,-32.678833,82.43042,-13.0407715
1766813777678,-1.0473633,-0.080078125,0.044921875,3.3569336,7.8125,-1.8310547,0.0,0.0,0.0,-36.430664,82.716064,-17.30896
1766813777766,-0.9711914,-0.10546875,0.09082031,-10.131836,14.221191,2.1972656,0.0,0.0,0.0,-36.430664,82.716064,-17.30896
1766813777777,-0.9711914,-0.10546875,0.09082031,-10.131836,14.221191,2.1972656,0.0,0.0,0.0,-42.835693,83.671875,-23.258057
1766813777865,-0.99560547,-0.06982422,0.099609375,-14.099121,3.4179688,2.0141602,0.0,0.0,0.0,-42.835693,83.671875,-23.258057
1766813777877,-0.99560547,-0.06982422,0.099609375,-14.099121,3.4179688,2.0141602,0.0,0.0,0.0,-48.598022,84.30908,-27.767944
1766813777965,-0.85253906,0.047851562,0.20996094,-2.1362305,-9.94873,0.8544922,0.0,0.0,0.0,-48.598022,84.30908,-27.767944
1766813777976,-0.85253906,0.047851562,0.20996094,-2.1362305,-9.94873,0.8544922,0.0,0.0,0.0,-41.731567,83.75427,-19.945679
1766813778065,-1.090332,-0.114746094,0.028808594,1.5258789,-20.751953,-2.4414062,0.0,0.0,0.0,-41.731567,83.75427,-19.945679
1766813778076,-1.090332,-0.114746094,0.028808594,1.5258789,-20.751953,-2.4414062,0.0,0.0,0.0,-33.706055,82.46338,-12.700195
1766813778164,-0.9716797,-0.0107421875,0.100097656,-0.24414062,9.70459,-0.9765625,0.0,0.0,0.0,-33.706055,82.46338,-12.700195
1766813778176,-0.9716797,-0.0107421875,0.100097656,-0.24414062,9.70459,-0.9765625,0.0,0.0,0.0,-33.876343,82.34802,-12.557373
1766813778264,-1.0258789,-0.0625,0.091796875,-5.432129,-2.6245117,1.8310547,0.0,0.0,0.0,-33.876343,82.34802,-12.557373
1766813778276,-1.0258789,-0.0625,0.091796875,-5.432129,-2.6245117,1.8310547,0.0,0.0,0.0,-33.008423,82.46887,-11.524658
1766813778364,-1.0356445,-0.04638672,0.041992188,-8.239746,6.958008,2.319336,0.0,0.0,0.0,-33.008423,82.46887,-11.524658
1766813778375,-1.0356445,-0.04638672,0.041992188,-8.239746,6.958008,2.319336,0.0,0.0,0.0,-34.656372,83.06763,-12.645264
1766813778464,-1.0424805,-0.00390625,0.03955078,-5.493164,7.507324,1.7089844,0.0,0.0,0.0,-34.656372,83.06763,-12.645264
1766813778475,-1.0424805,-0.00390625,0.03955078,-5.493164,7.507324,1.7089844,0.0,0.0,0.0,-37.282104,83.90259,-14.397583
1766813778563,-1.012207,0.005859375,0.091796875,9.82666,8.911133,2.9296875,0.0,0.0,0.0,-37.282104,83.90259,-14.397583
1766813778575,-1.012207,0.005859375,0.091796875,9.82666,8.911133,2.9296875,0.0,0.0,0.0,-39.91333,84.89136,-17.402344
1766813778663,-0.8330078,-0.1694336,0.123535156,-8.239746,-9.399414,-0.79345703,0.0,0.0,0.0,-39.91333,84.89136,-17.402344
1766813778675,-0.8330078,-0.1694336,0.123535156,-8.239746,-9.399414,-0.79345703,0.0,0.0,0.0,-36.61743,84.95178,-14.771118
1766813778763,-1.0327148,-0.083496094,0.11376953,9.399414,-22.277832,-10.925293,0.0,0.0,0.0,-36.61743,84.95178,-14.771118
1766813778774,-1.0327148,-0.083496094,0.11376953,9.399414,-22.277832,-10.925293,0.0,0.0,0.0,-34.766235,83.150024,-12.667236
1766813778862,-0.9892578,-0.048339844,0.08300781,0.4272461,-1.4648438,0.0,0.0,0.0,0.0,-34.766235,83.150024,-12.667236
1766813778874,-0.9892578,-0.048339844,0.08300781,0.4272461,-1.4648438,0.0,0.0,0.0,0.0,-29.893799,81.22742,-7.89917
1766813778962,-0.96240234,-0.10498047,0.11621094,3.7231445,-8.850098,-6.0424805,0.0,0.0,0.0,-29.893799,81.22742,-7.89917
1766813778973,-0.96240234,-0.10498047,0.11621094,3.7231445,-8.850098,-6.0424805,0.0,0.0,0.0,-31.5802,80.83191,-10.217285
1766813779062,-1.0424805,-0.107421875,0.13476562,7.3242188,3.479004,-7.2631836,0.0,0.0,0.0,-31.5802,80.83191,-10.217285
1766813779073,-1.0424805,-0.107421875,0.13476562,7.3242188,3.479004,-7.2631836,0.0,0.0,0.0,-33.82141,80.304565,-13.035278
1766813779161,-1.0366211,-0.122558594,0.07470703,4.3945312,8.544922,-4.1503906,0.0,0.0,0.0,-33.82141,80.304565,-13.035278
1766813779173,-1.0366211,-0.122558594,0.07470703,4.3945312,8.544922,-4.1503906,0.0,0.0,0.0,-38.616943,80.47485,-18.555908
1766813779261,-1.0117188,-0.11669922,0.12548828,-4.1503906,17.578125,3.7841797,0.0,0.0,0.0,-38.616943,80.47485,-18.555908
1766813779273,-1.0117188,-0.11669922,0.12548828,-4.1503906,17.578125,3.7841797,0.0,0.0,0.0,-45.043945,81.606445,-24.801636
1766813779361,-1.0229492,-0.14794922,0.12988281,-9.765625,5.2490234,0.91552734,0.0,0.0,0.0,-45.043945,81.606445,-24.801636
1766813779372,-1.0229492,-0.14794922,0.12988281,-9.765625,5.2490234,0.91552734,0.0,0.0,0.0,-52.772827,82.5238,-31.854858
1766813779460,-0.8383789,0.023925781,0.2241211,0.30517578,-18.066406,2.8076172,0.0,0.0,0.0,-52.772827,82.5238,-31.854858
1766813779472,-0.8383789,0.023925781,0.2241211,0.30517578,-18.066406,2.8076172,0.0,0.0,0.0,-45.725098,81.77124,-23.856812
1766813779560,-1.0898438,-0.140625,0.037109375,-7.507324,-19.16504,3.7841797,0.0,0.0,0.0,-45.725098,81.77124,-23.856812
1766813779572,-1.0898438,-0.140625,0.037109375,-7.507324,-19.16504,3.7841797,0.0,0.0,0.0,-38.952026,80.95825,-17.539673
1766813779660,-0.91748047,0.0024414062,0.12207031,-8.728027,0.8544922,5.9814453,0.0,0.0,0.0,-38.952026,80.95825,-17.539673
1766813779672,-0.91748047,0.0024414062,0.12207031,-8.728027,0.8544922,5.9814453,0.0,0.0,0.0,-34.16748,80.5957,-11.6015625
1766813779760,-1.027832,-0.05908203,0.13378906,-0.6713867,0.0,1.0375977,0.0,0.0,0.0,-34.16748,80.5957,-11.6015625
1766813779771,-1.027832,-0.05908203,0.13378906,-0.6713867,0.0,1.0375977,0.0,0.0,0.0,-31.651611,80.60669,-8.816528
1766813779859,-1.0585938,-0.019042969,0.056152344,0.0,11.230469,2.8686523,0.0,0.0,0.0,-31.651611,80.60669,-8.816528
1766813779871,-1.0585938,-0.019042969,0.056152344,0.0,11.230469,2.8686523,0.0,0.0,0.0,-32.041626,81.38672,-9.250488
1766813779959,-1.1000977,-0.046875,0.029296875,0.0,21.362305,2.9296875,0.0,0.0,0.0,-32.041626,81.38672,-9.250488
1766813779971,-1.1000977,-0.046875,0.029296875,0.0,21.362305,2.9296875,0.0,0.0,0.0,-37.177734,83.133545,-14.589844
1766813780059,-1.0283203,-0.0063476562,0.053710938,12.573242,21.78955,6.286621,0.0,0.0,0.0,-37.177734,83.133545,-14.589844
1766813780070,-1.0283203,-0.0063476562,0.053710938,12.573242,21.78955,6.286621,0.0,0.0,0.0,-48.828735,85.40222,-26.850586
1766813780158,-0.7324219,-0.20458984,0.14550781,-2.9296875,0.0,-1.5869141,0.0,0.0,0.0,-48.828735,85.40222,-26.850586
1766813780170,-0.7324219,-0.20458984,0.14550781,-2.9296875,0.0,-1.5869141,0.0,0.0,0.0,-54.508667,86.14929,-33.129272
1766813780258,-1.1333008,-0.04345703,0.034179688,-1.8310547,-30.395508,-3.2958984,0.0,0.0,0.0,-54.508667,86.14929,-33.129272
1766813780269,-1.1333008,-0.04345703,0.034179688,-1.8310547,-30.395508,-3.2958984,0.0,0.0,0.0,-48.43872,84.87488,-27.125244
1766813780358,-0.97998047,-0.053222656,0.044433594,14.709473,15.991211,-1.0986328,0.0,0.0,0.0,-48.43872,84.87488,-27.125244
1766813780369,-0.97998047,-0.053222656,0.044433594,14.709473,15.991211,-1.0986328,0.0,0.0,0.0,-44.72534,84.42444,-23.670044
1766813780457,-1.0229492,-0.12646484,0.028320312,17.51709,-0.9765625,-6.4086914,0.0,0.0,0.0,-44.72534,84.42444,-23.670044
1766813780469,-1.0229492,-0.12646484,0.028320312,17.51709,-0.9765625,-6.4086914,0.0,0.0,0.0,-50.526123,84.6167,-31.448364
1766813780557,-0.99658203,-0.09814453,-4.8828125E-4,8.850098,9.887695,-4.8217773,0.0,0.0,0.0,-50.526123,84.6167,-31.448364
1766813780569,-0.99658203,-0.09814453,-4.8828125E-4,8.850098,9.887695,-4.8217773,0.0,0.0,0.0,-59.155884,84.27612,-41.385498
1766813780657,-1.0644531,-0.09667969,-0.037597656,4.0893555,3.4179688,1.4648438,0.0,0.0,0.0,-59.155884,84.27612,-41.385498
1766813780668,-1.0644531,-0.09667969,-0.037597656,4.0893555,3.4179688,1.4648438,0.0,0.0,0.0,-68.07678,84.55078,-51.00403
1766813780757,-1.0336914,-0.12890625,0.0234375,-5.92041,26.489258,5.493164,0.0,0.0,0.0,-68.07678,84.55078,-51.00403
1766813780768,-1.0336914,-0.12890625,0.0234375,-5.92041,26.489258,5.493164,0.0,0.0,0.0,-86.75903,85.22095,-69.72473
1766813780856,-0.9301758,-0.08300781,-0.0126953125,-27.526855,0.0,0.79345703,0.0,0.0,0.0,-86.75903,85.22095,-69.72473
1766813780868,-0.9301758,-0.08300781,-0.0126953125,-27.526855,0.0,0.79345703,0.0,0.0,0.0,-108.38562,85.36377,-89.599
1766813780956,-0.8754883,0.05810547,0.1772461,4.1503906,-11.352539,3.4179688,0.0,0.0,0.0,-108.38562,85.36377,-89.599
1766813780967,-0.8754883,0.05810547,0.1772461,4.1503906,-11.352539,3.4179688,0.0,0.0,0.0,-97.437744,85.64392,-76.63513
1766813781056,-1.0664062,-0.08544922,0.0126953125,-0.8544922,-21.66748,2.746582,0.0,0.0,0.0,-97.437744,85.64392,-76.63513
1766813781067,-1.0664062,-0.08544922,0.0126953125,-0.8544922,-21.66748,2.746582,0.0,0.0,0.0,-56.123657,85.286865,-35.41992
1766813781155,-0.95947266,-0.037109375,0.03857422,-5.3100586,-4.272461,-1.3427734,0.0,0.0,0.0,-56.123657,85.286865,-35.41992
1766813781167,-0.95947266,-0.037109375,0.03857422,-5.3100586,-4.272461,-1.3427734,0.0,0.0,0.0,-56.656494,85.08362,-36.436157
1766813781255,-1.0405273,-0.020019531,0.04736328,-1.4648438,10.375977,-1.8920898,0.0,0.0,0.0,-56.656494,85.08362,-36.436157
1766813781267,-1.0405273,-0.020019531,0.04736328,-1.4648438,10.375977,-1.8920898,0.0,0.0,0.0,-57.84851,85.166016,-37.034912
1766813781355,-1.0366211,-0.056152344,-0.012207031,-3.8452148,8.605957,-2.6855469,0.0,0.0,0.0,-57.84851,85.166016,-37.034912
1766813781366,-1.0366211,-0.056152344,-0.012207031,-3.8452148,8.605957,-2.6855469,0.0,0.0,0.0,-66.64856,85.38574,-45.620728
1766813781455,-1.0732422,-0.029296875,-0.0043945312,-2.1362305,11.535645,1.953125,0.0,0.0,0.0,-66.64856,85.38574,-45.620728
1766813781466,-1.0732422,-0.029296875,-0.0043945312,-2.1362305,11.535645,1.953125,0.0,0.0,0.0,-81.430664,85.71533,-60.161133
1766813781555,-1.0185547,-0.046875,-0.01171875,5.126953,4.211426,4.0283203,0.0,0.0,0.0,-81.430664,85.71533,-60.161133
1766813781566,-1.0185547,-0.046875,-0.01171875,5.126953,4.211426,4.0283203,0.0,0.0,0.0,-91.83472,86.3031,-71.07605
1766813781654,-0.87890625,-0.11279297,0.037109375,-3.3569336,-5.6762695,-0.91552734,0.0,0.0,0.0,-91.83472,86.3031,-71.07605
1766813781666,-0.87890625,-0.11279297,0.037109375,-3.3569336,-5.6762695,-0.91552734,0.0,0.0,0.0,-91.796265,86.35254,-71.18591
1766813781754,-0.9350586,-0.123535156,0.114746094,-4.9438477,-29.785156,-7.6293945,0.0,0.0,0.0,-91.796265,86.35254,-71.18591
1766813781765,-0.9350586,-0.123535156,0.114746094,-4.9438477,-29.785156,-7.6293945,0.0,0.0,0.0,-65.703735,85.23743,-44.230957
1766813781853,-1.0791016,-0.07910156,-0.012207031,-7.8125,-4.211426,-2.6245117,0.0,0.0,0.0,-65.703735,85.23743,-44.230957
1766813781865,-1.0791016,-0.07910156,-0.012207031,-7.8125,-4.211426,-2.6245117,0.0,0.0,0.0,-47.268677,83.43567,-25.0708
1766813781953,-0.9790039,-0.06542969,0.049316406,-2.2583008,-4.638672,-1.0375977,0.0,0.0,0.0,-47.268677,83.43567,-25.0708
1766813781965,-0.9790039,-0.06542969,0.049316406,-2.2583008,-4.638672,-1.0375977,0.0,0.0,0.0,-49.630737,83.49609,-26.812134
1766813782053,-1.0292969,-0.11328125,0.036132812,3.9672852,7.5683594,1.4648438,0.0,0.0,0.0,-49.630737,83.49609,-26.812134
1766813782064,-1.0292969,-0.11328125,0.036132812,3.9672852,7.5683594,1.4648438,0.0,0.0,0.0,-49.92737,83.4906,-27.279053
1766813782152,-1.0849609,-0.08691406,0.0063476562,2.9907227,20.874023,4.9438477,0.0,0.0,0.0,-49.92737,83.4906,-27.279053
1766813782164,-1.0849609,-0.08691406,0.0063476562,2.9907227,20.874023,4.9438477,0.0,0.0,0.0,-62.418823,84.627686,-40.39673
1766813782252,-1.1166992,-0.07421875,0.083984375,-11.901855,19.89746,9.643555,0.0,0.0,0.0,-62.418823,84.627686,-40.39673
1766813782264,-1.1166992,-0.07421875,0.083984375,-11.901855,19.89746,9.643555,0.0,0.0,0.0,-93.48816,85.67139,-71.1969
1766813782352,-0.77734375,0.011230469,0.068359375,-1.4038086,-2.6245117,4.3945312,0.0,0.0,0.0,-93.48816,85.67139,-71.1969
1766813782363,-0.77734375,0.011230469,0.068359375,-1.4038086,-2.6245117,4.3945312,0.0,0.0,0.0,-92.11487,86.35803,-69.09302
1766813782452,-1.0410156,-0.08886719,0.017089844,-6.1035156,-26.306152,2.0751953,0.0,0.0,0.0,-92.11487,86.35803,-69.09302
1766813782463,-1.0410156,-0.08886719,0.017089844,-6.1035156,-26.306152,2.0751953,0.0,0.0,0.0,-73.185425,86.363525,-50.460205
1766813782551,-0.94384766,0.05126953,0.03466797,-9.216309,2.6245117,1.8310547,0.0,0.0,0.0,-73.185425,86.363525,-50.460205
1766813782563,-0.94384766,0.05126953,0.03466797,-9.216309,2.6245117,1.8310547,0.0,0.0,0.0,-46.988525,85.67688,-23.236084
1766813782651,-1.0336914,-0.013671875,0.017089844,-6.8359375,-3.112793,3.6010742,0.0,0.0,0.0,-46.988525,85.67688,-23.236084
1766813782662,-1.0336914,-0.013671875,0.017089844,-6.8359375,-3.112793,3.6010742,0.0,0.0,0.0,-38.770752,85.841675,-14.47998
1766813782751,-1.0395508,-0.01171875,0.020019531,-3.2348633,17.63916,-3.479004,0.0,0.0,0.0,-38.770752,85.841675,-14.47998
1766813782762,-1.0395508,-0.01171875,0.020019531,-3.2348633,17.63916,-3.479004,0.0,0.0,0.0,-51.026,86.65466,-26.61438
1766813782850,-1.1113281,0.045410156,-0.01171875,-3.0517578,19.40918,5.554199,0.0,0.0,0.0,-51.026,86.65466,-26.61438
1766813782862,-1.1113281,0.045410156,-0.01171875,-3.0517578,19.40918,5.554199,0.0,0.0,0.0,-90.631714,87.63245,-66.25305
1766813782950,-0.9897461,0.00390625,-0.020507812,14.221191,3.0517578,1.0375977,0.0,0.0,0.0,-90.631714,87.63245,-66.25305
1766813782962,-0.9897461,0.00390625,-0.020507812,14.221191,3.0517578,1.0375977,0.0,0.0,0.0,-131.44043,87.423706,-108.15491
1766813783050,-0.8540039,-0.12695312,0.03955078,6.1035156,-14.6484375,-10.070801,0.0,0.0,0.0,-131.44043,87.423706,-108.15491
1766813783061,-0.8540039,-0.12695312,0.03955078,6.1035156,-14.6484375,-10.070801,0.0,0.0,0.0,-109.121704,87.46765,-87.31384
1766813783149,-1.0224609,-0.114746094,0.08203125,2.9296875,-26.794434,-10.986328,0.0,0.0,0.0,-109.121704,87.46765,-87.31384
1766813783161,-1.0224609,-0.114746094,0.08203125,2.9296875,-26.794434,-10.986328,0.0,0.0,0.0,-71.22986,85.85266,-49.46045
1766813783249,-1.0322266,-0.068359375,0.013183594,1.5869141,0.6713867,1.6479492,0.0,0.0,0.0,-71.22986,85.85266,-49.46045
1766813783261,-1.0322266,-0.068359375,0.013183594,1.5869141,0.6713867,1.6479492,0.0,0.0,0.0,-50.625,84.66614,-28.981934
1766813783349,-0.9375,-0.029296875,-0.0034179688,17.8833,-9.216309,-1.5869141,0.0,0.0,0.0,-50.625,84.66614,-28.981934
1766813783361,-0.9375,-0.029296875,-0.0034179688,17.8833,-9.216309,-1.5869141,0.0,0.0,0.0,-54.014282,84.660645,-33.52478
1766813783449,-1.097168,-0.15478516,0.0048828125,28.747559,0.061035156,-6.652832,0.0,0.0,0.0,-54.014282,84.660645,-33.52478
1766813783460,-1.097168,-0.15478516,0.0048828125,28.747559,0.061035156,-6.652832,0.0,0.0,0.0,-50.943604,84.2157,-33.184204
1766813783548,-1.0039062,-0.114746094,-0.01953125,4.1503906,24.841309,5.432129,0.0,0.0,0.0,-50.943604,84.2157,-33.184204
1766813783560,-1.0039062,-0.114746094,-0.01953125,4.1503906,24.841309,5.432129,0.0,0.0,0.0,-65.53345,84.852905,-49.4989
1766813783648,-1.1118164,-0.125,0.028808594,-17.578125,12.817383,4.638672,0.0,0.0,0.0,-65.53345,84.852905,-49.4989
1766813783660,-1.1118164,-0.125,0.028808594,-17.578125,12.817383,4.638672,0.0,0.0,0.0,-89.99451,85.55054,-73.39966
1766813783748,-0.7963867,0.05029297,0.08251953,-12.451172,-11.657715,2.319336,0.0,0.0,0.0,-89.99451,85.55054,-73.39966
1766813783759,-0.7963867,0.05029297,0.08251953,-12.451172,-11.657715,2.319336,0.0,0.0,0.0,-92.301636,85.71533,-73.97095
1766813783847,-1.0454102,-0.05810547,0.053222656,8.972168,-24.353027,-0.61035156,0.0,0.0,0.0,-92.301636,85.71533,-73.97095
1766813783859,-1.0454102,-0.05810547,0.053222656,8.972168,-24.353027,-0.61035156,0.0,0.0,0.0,-71.257324,85.57251,-53.009033
1766813783947,-0.9296875,-0.0068359375,0.041015625,3.479004,13.85498,-1.7700195,0.0,0.0,0.0,-71.257324,85.57251,-53.009033
1766813783959,-0.9296875,-0.0068359375,0.041015625,3.479004,13.85498,-1.7700195,0.0,0.0,0.0,-56.651,85.03967,-38.4906
1766813784047,-1.0131836,-0.067871094,0.034179688,-5.493164,-8.728027,4.5776367,0.0,0.0,0.0,-56.651,85.03967,-38.4906
1766813784058,-1.0131836,-0.067871094,0.034179688,-5.493164,-8.728027,4.5776367,0.0,0.0,0.0,-52.20703,85.38574,-33.826904
1766813784147,-1.074707,-0.037597656,-0.0034179688,-1.7700195,12.207031,-0.5493164,0.0,0.0,0.0,-52.20703,85.38574,-33.826904
1766813784158,-1.074707,-0.037597656,-0.0034179688,-1.7700195,12.207031,-0.5493164,0.0,0.0,0.0,-57.826538,85.704346,-39.23767
1766813784246,-1.0541992,-0.0087890625,-0.036621094,-1.6479492,9.155273,-3.2348633,0.0,0.0,0.0,-57.826538,85.704346,-39.23767
1766813784258,-1.0541992,-0.0087890625,-0.036621094,-1.6479492,9.155273,-3.2348633,0.0,0.0,0.0,-76.294556,86.04492,-57.529907
1766813784346,-1.03125,-0.0068359375,-0.027832031,8.239746,2.8076172,0.79345703,0.0,0.0,0.0,-76.294556,86.04492,-57.529907
1766813784357,-1.03125,-0.0068359375,-0.027832031,8.239746,2.8076172,0.79345703,0.0,0.0,0.0,-87.368774,86.35803,-68.77991
1766813784445,-0.9916992,-0.08935547,0.022460938,11.474609,-6.591797,-5.065918,0.0,0.0,0.0,-87.368774,86.35803,-68.77991
1766813784457,-0.9916992,-0.08935547,0.022460938,11.474609,-6.591797,-5.065918,0.0,0.0,0.0,-84.35852,86.28662,-66.884766
1766813784545,-0.8598633,-0.14160156,0.048828125,-4.0893555,-13.48877,-8.605957,0.0,0.0,0.0,-84.35852,86.28662,-66.884766
1766813784557,-0.8598633,-0.14160156,0.048828125,-4.0893555,-13.48877,-8.605957,0.0,0.0,0.0,-71.56494,85.46265,-54.25598
1766813784645,-0.9946289,-0.10888672,0.14892578,-2.9296875,-27.832031,-6.958008,0.0,0.0,0.0,-71.56494,85.46265,-54.25598
1766813784656,-0.9946289,-0.10888672,0.14892578,-2.9296875,-27.832031,-6.958008,0.0,0.0,0.0,-58.57361,83.84766,-40.303345
1766813784745,-0.9980469,-0.08203125,0.03857422,-3.2348633,-1.159668,0.36621094,0.0,0.0,0.0,-58.57361,83.84766,-40.303345
1766813784756,-0.9980469,-0.08203125,0.03857422,-3.2348633,-1.159668,0.36621094,0.0,0.0,0.0,-43.73108,82.06238,-24.851074
1766813784844,-0.9892578,-0.092285156,0.06347656,8.117676,-6.4086914,-3.112793,0.0,0.0,0.0,-43.73108,82.06238,-24.851074
1766813784856,-0.9892578,-0.092285156,0.06347656,8.117676,-6.4086914,-3.112793,0.0,0.0,0.0,-43.687134,81.90857,-24.949951
1766813784944,-1.034668,-0.1274414,0.064941406,5.859375,10.7421875,-1.5258789,0.0,0.0,0.0,-43.687134,81.90857,-24.949951
1766813784956,-1.034668,-0.1274414,0.064941406,5.859375,10.7421875,-1.5258789,0.0,0.0,0.0,-45.543823,81.87012,-27.559204
1766813785044,-1.0180664,-0.08935547,0.021972656,2.380371,10.559082,0.48828125,0.0,0.0,0.0,-45.543823,81.87012,-27.559204
1766813785055,-1.0180664,-0.08935547,0.021972656,2.380371,10.559082,0.48828125,0.0,0.0,0.0,-52.43225,82.56775,-34.84314
1766813785143,-1.0698242,-0.12597656,0.02734375,-5.004883,20.202637,2.0751953,0.0,0.0,0.0,-52.43225,82.56775,-34.84314
1766813785155,-1.0698242,-0.12597656,0.02734375,-5.004883,20.202637,2.0751953,0.0,0.0,0.0,-63.38562,83.50708,-45.719604
1766813785243,-1.0239258,-0.14892578,0.053222656,-17.8833,10.925293,0.30517578,0.0,0.0,0.0,-63.38562,83.50708,-45.719604
1766813785255,-1.0239258,-0.14892578,0.053222656,-17.8833,10.925293,0.30517578,0.0,0.0,0.0,-82.128296,84.12781,-63.50647
1766813785343,-0.8642578,0.011230469,0.049804688,-4.3945312,-9.765625,1.2817383,0.0,0.0,0.0,-82.128296,84.12781,-63.50647
1766813785354,-0.8642578,0.011230469,0.049804688,-4.3945312,-9.765625,1.2817383,0.0,0.0,0.0,-80.93628,83.94104,-60.60608
1766813785443,-0.98095703,-0.08984375,0.16552734,7.1411133,-21.78955,-5.004883,0.0,0.0,0.0,-80.93628,83.94104,-60.60608
1766813785454,-0.98095703,-0.08984375,0.16552734,7.1411133,-21.78955,-5.004883,0.0,0.0,0.0,-68.395386,83.688354,-48.312378
1766813785542,-1.0874023,-0.07373047,0.032226562,0.30517578,-27.038574,-0.9765625,0.0,0.0,0.0,-68.395386,83.688354,-48.312378
1766813785554,-1.0874023,-0.07373047,0.032226562,0.30517578,-27.038574,-0.9765625,0.0,0.0,0.0,-45.93933,81.760254,-25.779419
1766813785642,-0.91064453,-0.08105469,0.12109375,2.9907227,-5.493164,-0.5493164,0.0,0.0,0.0,-45.93933,81.760254,-25.779419
1766813785653,-0.91064453,-0.08105469,0.12109375,2.9907227,-5.493164,-0.5493164,0.0,0.0,0.0,-46.450195,81.8042,-26.636353
1766813785742,-1.0273438,-0.052246094,0.06982422,-5.7373047,2.9296875,2.9907227,0.0,0.0,0.0,-46.450195,81.8042,-26.636353
1766813785753,-1.0273438,-0.052246094,0.06982422,-5.7373047,2.9296875,2.9907227,0.0,0.0,0.0,-41.896362,81.381226,-21.599121
1766813785841,-1.0151367,-0.08642578,0.049316406,-2.746582,12.512207,3.1738281,0.0,0.0,0.0,-41.896362,81.381226,-21.599121
1766813785853,-1.0151367,-0.08642578,0.049316406,-2.746582,12.512207,3.1738281,0.0,0.0,0.0,-46.24695,82.54578,-25.702515
1766813785941,-1.0488281,-0.052246094,0.03173828,-9.155273,13.977051,4.760742,0.0,0.0,0.0,-46.24695,82.54578,-25.702515
1766813785952,-1.0488281,-0.052246094,0.03173828,-9.155273,13.977051,4.760742,0.0,0.0,0.0,-54.591064,83.72131,-33.497314
1766813786041,-1.1196289,-0.017578125,0.021484375,2.8686523,9.765625,7.1411133,0.0,0.0,0.0,-54.591064,83.72131,-33.497314
1766813786053,-1.1196289,-0.017578125,0.021484375,2.8686523,9.765625,7.1411133,0.0,0.0,0.0,-62.874756,85.06714,-41.57776
1766813786140,-0.84765625,-0.1508789,0.068847656,-4.9438477,-8.117676,1.953125,0.0,0.0,0.0,-62.874756,85.06714,-41.57776
1766813786152,-0.84765625,-0.1508789,0.068847656,-4.9438477,-8.117676,1.953125,0.0,0.0,0.0,-58.5791,85.49011,-37.63916
1766813786240,-0.9589844,-0.08300781,0.15576172,-3.112793,-23.864746,-2.5634766,0.0,0.0,0.0,-58.5791,85.49011,-37.63916
1766813786252,-0.9589844,-0.08300781,0.15576172,-3.112793,-23.864746,-2.5634766,0.0,0.0,0.0,-45.34607,84.07837,-23.68103
1766813786340,-1.0507812,-0.05419922,0.011230469,9.58252,0.79345703,1.0986328,0.0,0.0,0.0,-45.34607,84.07837,-23.68103
1766813786351,-1.0507812,-0.05419922,0.011230469,9.58252,0.79345703,1.0986328,0.0,0.0,0.0,-34.524536,82.507324,-13.7438965
1766813786439,-0.9472656,-0.09863281,0.064453125,15.930176,-0.12207031,-7.873535,0.0,0.0,0.0,-34.524536,82.507324,-13.7438965
1766813786451,-0.9472656,-0.09863281,0.064453125,15.930176,-0.12207031,-7.873535,0.0,0.0,0.0,-39.957275,82.88086,-20.45105
1766813786539,-1.0200195,-0.07714844,0.055664062,12.817383,13.122559,-1.8310547,0.0,0.0,0.0,-39.957275,82.88086,-20.45105
1766813786551,-1.0200195,-0.07714844,0.055664062,12.817383,13.122559,-1.8310547,0.0,0.0,0.0,-45.977783,82.996216,-27.806396
1766813786639,-1.0268555,-0.12207031,-0.016113281,5.004883,17.8833,-1.8310547,0.0,0.0,0.0,-45.977783,82.996216,-27.806396
1766813786651,-1.0268555,-0.12207031,-0.016113281,5.004883,17.8833,-1.8310547,0.0,0.0,0.0,-58.969116,83.93555,-41.748047
1766813786739,-1.034668,-0.13183594,0.0073242188,-6.4086914,25.32959,0.4272461,0.0,0.0,0.0,-58.969116,83.93555,-41.748047
1766813786750,-1.034668,-0.13183594,0.0073242188,-6.4086914,25.32959,0.4272461,0.0,0.0,0.0,-83.97949,84.660645,-66.75842
1766813786838,-1.0292969,-0.15722656,-0.009765625,-27.70996,7.5683594,-1.159668,0.0,0.0,0.0,-83.97949,84.660645,-66.75842
1766813786850,-1.0292969,-0.15722656,-0.009765625,-27.70996,7.5683594,-1.159668,0.0,0.0,0.0,-101.832275,84.298096,-82.80945
1766813786938,-0.8989258,0.028808594,-0.0107421875,-9.82666,-6.1035156,2.1362305,0.0,0.0,0.0,-101.832275,84.298096,-82.80945
1766813786949,-0.8989258,0.028808594,-0.0107421875,-9.82666,-6.1035156,2.1362305,0.0,0.0,0.0,-101.79932,84.51782,-80.29907
1766813787038,-0.92871094,-0.04345703,0.15283203,14.404297,-24.597168,1.159668,0.0,0.0,0.0,-101.79932,84.51782,-80.29907
1766813787049,-0.92871094,-0.04345703,0.15283203,14.404297,-24.597168,1.159668,0.0,0.0,0.0,-81.65039,84.869385,-60.682983
1766813787137,-1.0268555,-0.08691406,0.0029296875,3.112793,-14.587402,-1.2207031,0.0,0.0,0.0,-81.65039,84.869385,-60.682983
1766813787149,-1.0268555,-0.08691406,0.0029296875,3.112793,-14.587402,-1.2207031,0.0,0.0,0.0,-48.99353,83.67737,-28.43811
1766813787237,-0.9760742,-0.045898438,0.061035156,-3.2348633,-6.958008,2.8076172,0.0,0.0,0.0,-48.99353,83.67737,-28.43811
1766813787248,-0.9760742,-0.045898438,0.061035156,-3.2348633,-6.958008,2.8076172,0.0,0.0,0.0,-52.72888,83.97949,-32.629395
1766813787337,-1.0224609,-0.045410156,0.041503906,4.760742,15.258789,2.4414062,0.0,0.0,0.0,-52.72888,83.97949,-32.629395
1766813787349,-1.0224609,-0.045410156,0.041503906,4.760742,15.258789,2.4414062,0.0,0.0,0.0,-50.097656,84.39148,-29.838867
1766813787436,-1.0625,-0.061035156,0.0029296875,-0.5493164,12.6953125,0.79345703,0.0,0.0,0.0,-50.097656,84.39148,-29.838867
1766813787448,-1.0625,-0.061035156,0.0029296875,-0.5493164,12.6953125,0.79345703,0.0,0.0,0.0,-61.35315,85.30884,-41.347046
1766813787536,-1.0986328,-0.0043945312,-0.05029297,2.9907227,20.568848,3.6621094,0.0,0.0,0.0,-61.35315,85.30884,-41.347046
1766813787548,-1.0986328,-0.0043945312,-0.05029297,2.9907227,20.568848,3.6621094,0.0,0.0,0.0,-85.979004,86.13281,-66.22009
1766813787636,-1.0151367,-0.057128906,0.025878906,16.357422,4.760742,-3.1738281,0.0,0.0,0.0,-85.979004,86.13281,-66.22009
1766813787647,-1.0151367,-0.057128906,0.025878906,16.357422,4.760742,-3.1738281,0.0,0.0,0.0,-111.00037,86.083374,-92.51587
1766813787736,-0.7861328,-0.1850586,0.08544922,-10.437012,-12.939453,-4.333496,0.0,0.0,0.0,-111.00037,86.083374,-92.51587
1766813787747,-0.7861328,-0.1850586,0.08544922,-10.437012,-12.939453,-4.333496,0.0,0.0,0.0,-98.66821,85.96802,-80.33203
1766813787835,-1.1206055,0.025390625,0.020019531,4.0893555,-26.428223,-0.30517578,0.0,0.0,0.0,-98.66821,85.96802,-80.33203
1766813787847,-1.1206055,0.025390625,0.020019531,4.0893555,-26.428223,-0.30517578,0.0,0.0,0.0,-73.54248,85.27588,-54.70642
1766813787935,-0.92041016,-0.10253906,-0.019042969,14.892578,11.962891,-2.8076172,0.0,0.0,0.0,-73.54248,85.27588,-54.70642
1766813787946,-0.92041016,-0.10253906,-0.019042969,14.892578,11.962891,-2.8076172,0.0,0.0,0.0,-65.30823,85.17151,-47.20276
1766813788035,-1.0166016,-0.09765625,0.0068359375,17.27295,-3.3569336,-6.164551,0.0,0.0,0.0,-65.30823,85.17151,-47.20276
1766813788046,-1.0166016,-0.09765625,0.0068359375,17.27295,-3.3569336,-6.164551,0.0,0.0,0.0,-67.10449,84.71008,-50.811768
1766813788134,-1.0209961,-0.110839844,0.0078125,15.869141,16.418457,-3.7231445,0.0,0.0,0.0,-67.10449,84.71008,-50.811768
1766813788146,-1.0209961,-0.110839844,0.0078125,15.869141,16.418457,-3.7231445,0.0,0.0,0.0,-77.99744,84.4574,-63.253784
1766813788234,-1.0761719,-0.13623047,-0.061523438,6.0424805,22.277832,0.61035156,0.0,0.0,0.0,-77.99744,84.4574,-63.253784
1766813788246,-1.0761719,-0.13623047,-0.061523438,6.0424805,22.277832,0.61035156,0.0,0.0,0.0,-91.54907,84.47388,-77.6239
1766813788334,-1.0239258,-0.15234375,-0.017089844,-18.371582,13.000488,-0.24414062,0.0,0.0,0.0,-91.54907,84.47388,-77.6239
1766813788345,-1.0239258,-0.15234375,-0.017089844,-18.371582,13.000488,-0.24414062,0.0,0.0,0.0,-113.35144,83.95752,-98.73413
1766813788433,-0.97216797,-0.092285156,-0.04638672,-19.592285,1.7089844,-3.2958984,0.0,0.0,0.0,-113.35144,83.95752,-98.73413
1766813788445,-0.97216797,-0.092285156,-0.04638672,-19.592285,1.7089844,-3.2958984,0.0,0.0,0.0,-120.64636,83.309326,-103.881226
1766813788533,-0.8071289,-0.0126953125,0.034179688,0.61035156,-15.197754,-3.6621094,0.0,0.0,0.0,-120.64636,83.309326,-103.881226
1766813788545,-0.8071289,-0.0126953125,0.034179688,0.61035156,-15.197754,-3.6621094,0.0,0.0,0.0,-114.3457,83.38623,-96.44348
1766813788633,-1.0708008,-0.088378906,0.019042969,-4.272461,-42.175293,0.5493164,0.0,0.0,0.0,-114.3457,83.38623,-96.44348
1766813788644,-1.0708008,-0.088378906,0.019042969,-4.272461,-42.175293,0.5493164,0.0,0.0,0.0,-88.78052,83.93555,-71.06506
1766813788733,-0.9770508,-0.063964844,0.021484375,0.24414062,-3.540039,-0.9765625,0.0,0.0,0.0,-88.78052,83.93555,-71.06506
1766813788744,-0.9770508,-0.063964844,0.021484375,0.24414062,-3.540039,-0.9765625,0.0,0.0,0.0,-65.044556,83.32031,-46.5271
1766813788832,-0.9975586,-0.076171875,0.051757812,-13.000488,-10.925293,6.591797,0.0,0.0,0.0,-65.044556,83.32031,-46.5271
1766813788844,-0.9975586,-0.076171875,0.051757812,-13.000488,-10.925293,6.591797,0.0,0.0,0.0,-58.051758,83.33679,-38.92456
1766813788932,-1.0209961,-0.05859375,0.03515625,-7.873535,3.6621094,6.8969727,0.0,0.0,0.0,-58.051758,83.33679,-38.92456
1766813788943,-1.0209961,-0.05859375,0.03515625,-7.873535,3.6621094,6.8969727,0.0,0.0,0.0,-53.739624,83.78174,-33.826904
1766813789032,-1.0380859,-0.048828125,0.0014648438,-4.333496,12.817383,5.3100586,0.0,0.0,0.0,-53.739624,83.78174,-33.826904
1766813789043,-1.0380859,-0.048828125,0.0014648438,-4.333496,12.817383,5.3100586,0.0,0.0,0.0,-58.21106,84.84741,-37.70508
1766813789131,-1.0712891,-0.03125,-0.013183594,-4.699707,18.188477,4.9438477,0.0,0.0,0.0,-58.21106,84.84741,-37.70508
1766813789143,-1.0712891,-0.03125,-0.013183594,-4.699707,18.188477,4.9438477,0.0,0.0,0.0,-74.124756,86.00647,-53.28369
1766813789231,-1.0366211,-0.029296875,-0.013671875,5.9814453,4.5776367,0.24414062,0.0,0.0,0.0,-74.124756,86.00647,-53.28369
1766813789242,-1.0366211,-0.029296875,-0.013671875,5.9814453,4.5776367,0.24414062,0.0,0.0,0.0,-97.21802,86.58325,-76.48132
1766813789331,-0.8466797,-0.12597656,0.037597656,-3.7231445,-7.2631836,-0.6713867,0.0,0.0,0.0,-97.21802,86.58325,-76.48132
1766813789342,-0.8466797,-0.12597656,0.037597656,-3.7231445,-7.2631836,-0.6713867,0.0,0.0,0.0,-91.571045,86.63818,-71.328735
1766813789430,-1.0209961,-0.08935547,0.09326172,1.2817383,-27.46582,-4.4555664,0.0,0.0,0.0,-91.571045,86.63818,-71.328735
1766813789442,-1.0209961,-0.08935547,0.09326172,1.2817383,-27.46582,-4.4555664,0.0,0.0,0.0,-67.45056,85.76477,-46.79077
1766813789530,-0.98876953,-0.03466797,-0.0073242188,9.460449,6.8359375,1.4648438,0.0,0.0,0.0,-67.45056,85.76477,-46.79077
1766813789541,-0.98876953,-0.03466797,-0.0073242188,9.460449,6.8359375,1.4648438,0.0,0.0,0.0,-52.580566,84.71008,-32.700806
1766813789630,-0.96875,-0.10644531,0.014160156,13.671875,-4.0283203,-1.2207031,0.0,0.0,0.0,-52.580566,84.71008,-32.700806
1766813789641,-0.96875,-0.10644531,0.014160156,13.671875,-4.0283203,-1.2207031,0.0,0.0,0.0,-53.40454,84.92432,-34.58496
1766813789730,-1.0322266,-0.08496094,0.020507812,6.8969727,8.300781,1.6479492,0.0,0.0,0.0,-53.40454,84.92432,-34.58496
1766813789741,-1.0322266,-0.08496094,0.020507812,6.8969727,8.300781,1.6479492,0.0,0.0,0.0,-57.43103,85.05066,-39.79248
1766813789829,-1.0410156,-0.07080078,-0.076171875,4.272461,13.244629,-1.159668,0.0,0.0,0.0,-57.43103,85.05066,-39.79248
1766813789841,-1.0410156,-0.07080078,-0.076171875,4.272461,13.244629,-1.159668,0.0,0.0,0.0,-73.531494,85.46265,-56.640015
1766813789929,-1.0385742,-0.115234375,-0.087402344,-5.79834,27.22168,0.18310547,0.0,0.0,0.0,-73.531494,85.46265,-56.640015
1766813789940,-1.0385742,-0.115234375,-0.087402344,-5.79834,27.22168,0.18310547,0.0,0.0,0.0,-106.32019,85.578,-89.434204
1766813790029,-1.0166016,-0.1328125,-0.068359375,-29.968262,5.79834,-13.366699,0.0,0.0,0.0,-106.32019,85.578,-89.434204
1766813790040,-1.0166016,-0.1328125,-0.068359375,-29.968262,5.79834,-13.366699,0.0,0.0,0.0,-124.94751,84.06738,-106.00159
1766813790128,-0.78759766,0.088378906,0.045410156,-8.911133,-16.784668,-5.3100586,0.0,0.0,0.0,-124.94751,84.06738,-106.00159
1766813790140,-0.78759766,0.088378906,0.045410156,-8.911133,-16.784668,-5.3100586,0.0,0.0,0.0,-112.91199,84.03992,-92.037964
1766813790228,-1.1044922,-0.09765625,0.032714844,0.24414062,-44.189453,-3.6621094,0.0,0.0,0.0,-112.91199,84.03992,-92.037964
1766813790240,-1.1044922,-0.09765625,0.032714844,0.24414062,-44.189453,-3.6621094,0.0,0.0,0.0,-84.539795,84.38049,-63.59436
1766813790328,-0.94970703,-0.057128906,0.04638672,-0.9765625,3.8452148,0.24414062,0.0,0.0,0.0,-84.539795,84.38049,-63.59436
1766813790339,-0.94970703,-0.057128906,0.04638672,-0.9765625,3.8452148,0.24414062,0.0,0.0,0.0,-68.19763,84.15527,-47.070923
1766813790427,-1.0195312,-0.049316406,0.057128906,4.699707,-3.6621094,1.7700195,0.0,0.0,0.0,-68.19763,84.15527,-47.070923
1766813790439,-1.0195312,-0.049316406,0.057128906,4.699707,-3.6621094,1.7700195,0.0,0.0,0.0,-59.0625,84.034424,-37.91382
1766813790527,-1.0209961,-0.08691406,0.02734375,1.953125,4.760742,-0.12207031,0.0,0.0,0.0,-59.0625,84.034424,-37.91382
1766813790539,-1.0209961,-0.08691406,0.02734375,1.953125,4.760742,-0.12207031,0.0,0.0,0.0,-62.30896,84.56177,-41.66565
1766813790627,-1.0634766,-0.06933594,-0.0146484375,-2.0751953,18.554688,-4.211426,0.0,0.0,0.0,-62.30896,84.56177,-41.66565
1766813790638,-1.0634766,-0.06933594,-0.0146484375,-2.0751953,18.554688,-4.211426,0.0,0.0,0.0,-77.18445,84.70459,-56.502686
1766813790726,-1.125,-0.012207031,0.03955078,10.131836,11.779785,2.4414062,0.0,0.0,0.0,-77.18445,84.70459,-56.502686
1766813790738,-1.125,-0.012207031,0.03955078,10.131836,11.779785,2.4414062,0.0,0.0,0.0,-97.08618,84.84741,-76.94824
1766813790826,-0.8046875,-0.19189453,0.06201172,3.540039,-3.90625,-1.4648438,0.0,0.0,0.0,-97.08618,84.84741,-76.94824
1766813790838,-0.8046875,-0.19189453,0.06201172,3.540039,-3.90625,-1.4648438,0.0,0.0,0.0,-94.383545,85.06714,-75.09155
1766813790926,-1.0390625,-0.07080078,0.071777344,7.2021484,-21.42334,-1.953125,0.0,0.0,0.0,-94.383545,85.06714,-75.09155
1766813790937,-1.0390625,-0.07080078,0.071777344,7.2021484,-21.42334,-1.953125,0.0,0.0,0.0,-82.38098,84.58923,-63.132935
1766813791026,-0.99609375,-0.091796875,-0.022460938,21.42334,13.73291,-0.91552734,0.0,0.0,0.0,-82.38098,84.58923,-63.132935
1766813791037,-0.99609375,-0.091796875,-0.022460938,21.42334,13.73291,-0.91552734,0.0,0.0,0.0,-71.09802,84.20471,-53.05298
1766813791126,-0.9667969,-0.13964844,-0.026855469,12.023926,2.6245117,0.61035156,0.0,0.0,0.0,-71.09802,84.20471,-53.05298
1766813791137,-0.9667969,-0.13964844,-0.026855469,12.023926,2.6245117,0.61035156,0.0,0.0,0.0,-80.24414,84.41345,-64.1272
1766813791225,-1.019043,-0.14208984,-0.08203125,-4.5776367,8.850098,0.48828125,0.0,0.0,0.0,-80.24414,84.41345,-64.1272
1766813791236,-1.019043,-0.14208984,-0.08203125,-4.5776367,8.850098,0.48828125,0.0,0.0,0.0,-85.46814,84.49585,-69.43909
1766813791325,-0.9838867,-0.084472656,-0.10839844,-13.671875,6.8359375,1.8920898,0.0,0.0,0.0,-85.46814,84.49585,-69.43909
1766813791336,-0.9838867,-0.084472656,-0.10839844,-13.671875,6.8359375,1.8920898,0.0,0.0,0.0,-98.02551,84.46289,-80.99121
1766813791424,-1.0219727,-0.10498047,-0.092285156,-14.6484375,13.793945,5.6762695,0.0,0.0,0.0,-98.02551,84.46289,-80.99121
1766813791436,-1.0219727,-0.10498047,-0.092285156,-14.6484375,13.793945,5.6762695,0.0,0.0,0.0,-112.89551,84.57825,-94.61426
1766813791524,-0.98339844,-0.09375,-0.033691406,-21.240234,-19.104004,3.7841797,0.0,0.0,0.0,-112.89551,84.57825,-94.61426
1766813791535,-0.98339844,-0.09375,-0.033691406,-21.240234,-19.104004,3.7841797,0.0,0.0,0.0,-115.34546,85.061646,-95.652466
1766813791624,-0.88623047,0.03564453,0.18017578,11.291504,-1.4648438,3.0517578,0.0,0.0,0.0,-115.34546,85.061646,-95.652466
1766813791636,-0.88623047,0.03564453,0.18017578,11.291504,-1.4648438,3.0517578,0.0,0.0,0.0,-99.1626,85.69336,-79.02466
1766813791723,-1.0766602,-0.11230469,-0.044921875,-12.634277,-21.54541,-0.9765625,0.0,0.0,0.0,-99.1626,85.69336,-79.02466
1766813791735,-1.0766602,-0.11230469,-0.044921875,-12.634277,-21.54541,-0.9765625,0.0,0.0,0.0,-70.27405,85.56702,-50.482178
1766813791823,-0.9003906,0.023925781,0.046875,-4.1503906,4.699707,1.4648438,0.0,0.0,0.0,-70.27405,85.56702,-50.482178
1766813791835,-0.9003906,0.023925781,0.046875,-4.1503906,4.699707,1.4648438,0.0,0.0,0.0,-77.821655,85.56152,-57.81006
1766813791923,-1.0341797,-0.056640625,0.015625,-3.9672852,6.3476562,1.7089844,0.0,0.0,0.0,-77.821655,85.56152,-57.81006
1766813791934,-1.0341797,-0.056640625,0.015625,-3.9672852,6.3476562,1.7089844,0.0,0.0,0.0,-77.475586,85.979004,-56.953125
1766813792023,-1.0004883,-0.03857422,-0.038085938,-8.239746,8.911133,0.79345703,0.0,0.0,0.0,-77.475586,85.979004,-56.953125
1766813792034,-1.0004883,-0.03857422,-0.038085938,-8.239746,8.911133,0.79345703,0.0,0.0,0.0,-89.329834,86.18225,-68.24707
1766813792122,-1.0395508,-0.013671875,0.0073242188,2.5634766,4.5776367,0.5493164,0.0,0.0,0.0,-89.329834,86.18225,-68.24707
1766813792134,-1.0395508,-0.013671875,0.0073242188,2.5634766,4.5776367,0.5493164,0.0,0.0,0.0,-106.90796,86.12732,-85.6604
1766813792222,-0.9584961,-0.114746094,0.041503906,5.1879883,-14.953613,0.61035156,0.0,0.0,0.0,-106.90796,86.12732,-85.6604
1766813792233,-0.9584961,-0.114746094,0.041503906,5.1879883,-14.953613,0.61035156,0.0,0.0,0.0,-94.6582,86.588745,-74.05884
1766813792322,-0.9746094,-0.115234375,0.07763672,-10.437012,-22.949219,-2.319336,0.0,0.0,0.0,-94.6582,86.588745,-74.05884
1766813792333,-0.9746094,-0.115234375,0.07763672,-10.437012,-22.949219,-2.319336,0.0,0.0,0.0,-65.17639,85.946045,-44.20349
1766813792421,-1.0385742,-0.048828125,9.765625E-4,-1.6479492,-1.4648438,-2.319336,0.0,0.0,0.0,-65.17639,85.946045,-44.20349
1766813792433,-1.0385742,-0.048828125,9.765625E-4,-1.6479492,-1.4648438,-2.319336,0.0,0.0,0.0,-49.070435,84.65515,-27.713013
1766813792521,-0.9223633,-0.060058594,0.0078125,6.4697266,-7.6904297,-3.8452148,0.0,0.0,0.0,-49.070435,84.65515,-27.713013
1766813792533,-0.9223633,-0.060058594,0.0078125,6.4697266,-7.6904297,-3.8452148,0.0,0.0,0.0,-48.40027,84.32556,-27.042847
1766813792621,-1.0595703,-0.060546875,0.05859375,14.404297,0.24414062,0.0,0.0,0.0,0.0,-48.40027,84.32556,-27.042847
1766813792632,-1.0595703,-0.060546875,0.05859375,14.404297,0.24414062,0.0,0.0,0.0,0.0,-48.90564,84.210205,-28.564453
1766813792720,-1.0668945,-0.09423828,-0.0146484375,13.85498,14.770508,2.1362305,0.0,0.0,0.0,-48.90564,84.210205,-28.564453
1766813792732,-1.0668945,-0.09423828,-0.0146484375,13.85498,14.770508,2.1362305,0.0,0.0,0.0,-53.113403,84.73755,-34.45862
1766813792820,-1.0483398,-0.12695312,0.052246094,-0.18310547,12.6953125,0.0,0.0,0.0,0.0,-53.113403,84.73755,-34.45862
1766813792832,-1.0483398,-0.12695312,0.052246094,-0.18310547,12.6953125,0.0,0.0,0.0,0.0,-69.49402,85.55603,-51.77307
1766813792920,-0.90527344,-0.03857422,0.06591797,-17.028809,-9.70459,0.12207031,0.0,0.0,0.0,-69.49402,85.55603,-51.77307
1766813792932,-0.90527344,-0.03857422,0.06591797,-17.028809,-9.70459,0.12207031,0.0,0.0,0.0,-74.86633,85.38574,-56.25
1766813793020,-0.9746094,-0.026367188,0.18066406,7.9345703,-9.70459,-0.61035156,0.0,0.0,0.0,-74.86633,85.38574,-56.25
1766813793031,-0.9746094,-0.026367188,0.18066406,7.9345703,-9.70459,-0.61035156,0.0,0.0,0.0,-60.342407,84.96826,-41.237183
1766813793120,-1.0424805,-0.03955078,4.8828125E-4,-7.507324,-5.1879883,0.12207031,0.0,0.0,0.0,-60.342407,84.96826,-41.237183
1766813793131,-1.0424805,-0.03955078,4.8828125E-4,-7.507324,-5.1879883,0.12207031,0.0,0.0,0.0,-46.571045,84.105835,-27.04834
1766813793220,-0.9477539,-0.026855469,0.051757812,-5.554199,2.0141602,3.90625,0.0,0.0,0.0,-46.571045,84.105835,-27.04834
1766813793231,-0.9477539,-0.026855469,0.051757812,-5.554199,2.0141602,3.90625,0.0,0.0,0.0,-53.49243,84.80896,-33.755493
1766813793319,-1.0253906,-0.044433594,0.0146484375,-12.329102,6.164551,2.319336,0.0,0.0,0.0,-53.49243,84.80896,-33.755493
1766813793330,-1.0253906,-0.044433594,0.0146484375,-12.329102,6.164551,2.319336,0.0,0.0,0.0,-51.207275,85.20996,-30.410156
1766813793418,-1.0092773,-0.046875,-0.011230469,-10.681152,4.333496,6.4086914,0.0,0.0,0.0,-51.207275,85.20996,-30.410156
1766813793430,-1.0092773,-0.046875,-0.011230469,-10.681152,4.333496,6.4086914,0.0,0.0,0.0,-59.540405,86.1438,-38.171997
1766813793518,-1.0493164,-0.0078125,-0.013671875,-11.108398,22.155762,9.216309,0.0,0.0,0.0,-59.540405,86.1438,-38.171997
1766813793530,-1.0493164,-0.0078125,-0.013671875,-11.108398,22.155762,9.216309,0.0,0.0,0.0,-76.970215,87.30286,-54.656982
1766813793618,-1.0585938,0.0048828125,0.021484375,3.3569336,-5.2490234,8.7890625,0.0,0.0,0.0,-76.970215,87.30286,-54.656982
1766813793629,-1.0585938,0.0048828125,0.021484375,3.3569336,-5.2490234,8.7890625,0.0,0.0,0.0,-104.628296,88.445435,-81.87012
1766813793718,-0.8652344,-0.1484375,0.046875,-4.5776367,5.2490234,-0.4272461,0.0,0.0,0.0,-104.628296,88.445435,-81.87012
1766813793729,-0.8652344,-0.1484375,0.046875,-4.5776367,5.2490234,-0.4272461,0.0,0.0,0.0,-113.04382,88.82446,-90.50537
1766813793817,-1.0966797,0.019042969,-0.022949219,7.6904297,-11.169434,-1.3427734,0.0,0.0,0.0,-113.04382,88.82446,-90.50537
1766813793829,-1.0966797,0.019042969,-0.022949219,7.6904297,-11.169434,-1.3427734,0.0,0.0,0.0,-76.223145,88.37952,-53.87146
1766813793917,-0.9501953,-0.067871094,-0.021484375,5.9814453,12.878418,0.18310547,0.0,0.0,0.0,-76.223145,88.37952,-53.87146
1766813793928,-0.9501953,-0.067871094,-0.021484375,5.9814453,12.878418,0.18310547,0.0,0.0,0.0,-107.60559,88.49487,-86.04492
1766813794017,-0.9819336,-0.016113281,-0.023925781,1.0375977,1.2817383,-0.4272461,0.0,0.0,0.0,-107.60559,88.49487,-86.04492
1766813794028,-0.9819336,-0.016113281,-0.023925781,1.0375977,1.2817383,-0.4272461,0.0,0.0,0.0,-114.99939,88.24219,-93.94409
1766813794116,-0.9868164,-0.029296875,-0.03564453,4.638672,4.3945312,1.4648438,0.0,0.0,0.0,-114.99939,88.24219,-93.94409
1766813794128,-0.9868164,-0.029296875,-0.03564453,4.638672,4.3945312,1.4648438,0.0,0.0,0.0,-128.91907,88.08838,-108.4845
1766813794216,-1.0463867,-0.040039062,-0.08251953,2.1362305,4.638672,-1.159668,0.0,0.0,0.0,-128.91907,88.08838,-108.4845
1766813794228,-1.0463867,-0.040039062,-0.08251953,2.1362305,4.638672,-1.159668,0.0,0.0,0.0,-130.02869,87.98401,-109.93469
1766813794316,-1.0214844,-0.06298828,-0.052734375,-2.746582,14.221191,-2.319336,0.0,0.0,0.0,-130.02869,87.98401,-109.93469
1766813794327,-1.0214844,-0.06298828,-0.052734375,-2.746582,14.221191,-2.319336,0.0,0.0,0.0,-147.23328,86.9458,-127.31506
1766813794416,-1.0678711,-0.045410156,-0.03564453,-12.512207,4.638672,-3.6621094,0.0,0.0,0.0,-147.23328,86.9458,-127.31506
1766813794427,-1.0678711,-0.045410156,-0.03564453,-12.512207,4.638672,-3.6621094,0.0,0.0,0.0,-150.84778,85.9845,-130.07812
1766813794515,-0.7763672,0.075683594,0.021484375,-3.2348633,-11.779785,-3.9672852,0.0,0.0,0.0,-150.84778,85.9845,-130.07812
1766813794527,-0.7763672,0.075683594,0.021484375,-3.2348633,-11.779785,-3.9672852,0.0,0.0,0.0,-141.22925,86.412964,-119.63013
1766813794615,-1.0629883,-0.087402344,0.020019531,-6.286621,-33.5083,0.061035156,0.0,0.0,0.0,-141.22925,86.412964,-119.63013
1766813794627,-1.0629883,-0.087402344,0.020019531,-6.286621,-33.5083,0.061035156,0.0,0.0,0.0,-96.256714,87.753296,-74.30054
1766813794715,-0.95947266,0.030273438,0.016113281,-2.2583008,0.24414062,-0.91552734,0.0,0.0,0.0,-96.256714,87.753296,-74.30054
1766813794726,-0.95947266,0.030273438,0.016113281,-2.2583008,0.24414062,-0.91552734,0.0,0.0,0.0,-72.04834,87.489624,-49.855957
1766813794814,-1.0522461,-0.021972656,0.020507812,2.9907227,3.3569336,-1.7089844,0.0,0.0,0.0,-72.04834,87.489624,-49.855957
1766813794826,-1.0522461,-0.021972656,0.020507812,2.9907227,3.3569336,-1.7089844,0.0,0.0,0.0,-57.947388,87.35779,-35.897827
1766813794914,-1.0356445,-0.009277344,-0.03466797,5.004883,4.9438477,-2.319336,0.0,0.0,0.0,-57.947388,87.35779,-35.897827
1766813794927,-1.0356445,-0.009277344,-0.03466797,5.004883,4.9438477,-2.319336,0.0,0.0,0.0,-67.73071,87.53906,-46.153564
1766813795014,-1.0463867,-0.016601562,-0.05126953,2.1362305,6.958008,-2.6855469,0.0,0.0,0.0,-67.73071,87.53906,-46.153564
1766813795025,-1.0463867,-0.016601562,-0.05126953,2.1362305,6.958008,-2.6855469,0.0,0.0,0.0,-85.13855,87.423706,-64.24255
1766813795114,-1.0673828,0.03955078,-0.049316406,3.9672852,13.48877,3.2348633,0.0,0.0,0.0,-85.13855,87.423706,-64.24255
1766813795125,-1.0673828,0.03955078,-0.049316406,3.9672852,13.48877,3.2348633,0.0,0.0,0.0,-115.49927,87.32483,-94.993286
1766813795213,-0.9707031,-0.051757812,-0.020996094,12.451172,4.4555664,1.4038086,0.0,0.0,0.0,-115.49927,87.32483,-94.993286
1766813795225,-0.9707031,-0.051757812,-0.020996094,12.451172,4.4555664,1.4038086,0.0,0.0,0.0,-140.32288,87.28638,-120.91553
1766813795313,-0.7651367,-0.11425781,0.110839844,-6.958008,-10.986328,-4.333496,0.0,0.0,0.0,-140.32288,87.28638,-120.91553
1766813795324,-0.7651367,-0.11425781,0.110839844,-6.958008,-10.986328,-4.333496,0.0,0.0,0.0,-126.99097,87.423706,-107.58362
1766813795413,-1.1640625,0.009277344,0.04345703,8.056641,-46.081543,3.112793,0.0,0.0,0.0,-126.99097,87.423706,-107.58362
1766813795424,-1.1640625,0.009277344,0.04345703,8.056641,-46.081543,3.112793,0.0,0.0,0.0,-46.66992,86.96228,-27.262573
1766813795512,-0.92578125,-0.0546875,0.014160156,11.962891,7.080078,-2.8076172,0.0,0.0,0.0,-46.66992,86.96228,-27.262573
1766813795524,-0.92578125,-0.0546875,0.014160156,11.962891,7.080078,-2.8076172,0.0,0.0,0.0,-37.210693,86.49536,-18.841553
1766813795612,-1.0209961,-0.05517578,-0.016113281,13.427734,-0.79345703,-0.7324219,0.0,0.0,0.0,-37.210693,86.49536,-18.841553
1766813795624,-1.0209961,-0.05517578,-0.016113281,13.427734,-0.79345703,-0.7324219,0.0,0.0,0.0,-34.942017,86.02295,-17.781372
1766813795712,-1.0439453,-0.072753906,-0.005859375,9.338379,13.183594,-0.5493164,0.0,0.0,0.0,-34.942017,86.02295,-17.781372
1766813795723,-1.0439453,-0.072753906,-0.005859375,9.338379,13.183594,-0.5493164,0.0,0.0,0.0,-46.516113,86.73157,-30.48706
1766813795812,-1.1035156,-0.057617188,-0.083984375,-1.4648438,26.245117,4.5776367,0.0,0.0,0.0,-46.516113,86.73157,-30.48706
1766813795823,-1.1035156,-0.057617188,-0.083984375,-1.4648438,26.245117,4.5776367,0.0,0.0,0.0,-83.19946,87.6709,-67.44507
1766813795911,-1.0102539,-0.10205078,-0.057617188,-24.047852,17.39502,2.4414062,0.0,0.0,0.0,-83.19946,87.6709,-67.44507
1766813795923,-1.0102539,-0.10205078,-0.057617188,-24.047852,17.39502,2.4414062,0.0,0.0,0.0,-148.04626,86.55029,-131.27563
1766813796011,-0.87841797,0.05810547,-0.055664062,-6.652832,-2.2583008,-4.699707,0.0,0.0,0.0,-148.04626,86.55029,-131.27563
1766813796022,-0.87841797,0.05810547,-0.055664062,-6.652832,-2.2583008,-4.699707,0.0,0.0,0.0,-152.25403,86.20422,-133.38501
1766813796111,-0.8989258,0.0107421875,0.17138672,8.728027,-29.174805,-2.8076172,0.0,0.0,0.0,-152.25403,86.20422,-133.38501
1766813796122,-0.8989258,0.0107421875,0.17138672,8.728027,-29.174805,-2.8076172,0.0,0.0,0.0,-133.13232,86.9458,-114.5105
1766813796210,-1.027832,-0.04638672,0.020507812,3.0517578,-11.108398,-7.6904297,0.0,0.0,0.0,-133.13232,86.9458,-114.5105
1766813796222,-1.027832,-0.04638672,0.020507812,3.0517578,-11.108398,-7.6904297,0.0,0.0,0.0,-45.461426,86.709595,-26.817627
1766813796310,-0.95166016,-0.009765625,0.052246094,-5.6762695,-20.385742,1.8310547,0.0,0.0,0.0,-45.461426,86.709595,-26.817627
1766813796321,-0.95166016,-0.009765625,0.052246094,-5.6762695,-20.385742,1.8310547,0.0,0.0,0.0,-44.049683,86.121826,-25.603638
1766813796410,-1.0419922,-0.018554688,0.040039062,2.319336,4.0283203,-2.2583008,0.0,0.0,0.0,-44.049683,86.121826,-25.603638
1766813796421,-1.0419922,-0.018554688,0.040039062,2.319336,4.0283203,-2.2583008,0.0,0.0,0.0,-36.24939,85.52307,-17.704468
1766813796509,-1.0244141,-0.03564453,0.0234375,4.8217773,9.70459,-3.7231445,0.0,0.0,0.0,-36.24939,85.52307,-17.704468
1766813796521,-1.0244141,-0.03564453,0.0234375,4.8217773,9.70459,-3.7231445,0.0,0.0,0.0,-43.082886,85.88562,-24.840088
1766813796609,-1.012207,-0.014160156,0.01171875,1.953125,6.652832,-1.2817383,0.0,0.0,0.0,-43.082886,85.88562,-24.840088
1766813796621,-1.012207,-0.014160156,0.01171875,1.953125,6.652832,-1.2817383,0.0,0.0,0.0,-57.06299,86.35254,-39.210205
1766813796709,-1.0810547,0.013183594,0.015136719,11.413574,6.4697266,0.48828125,0.0,0.0,0.0,-57.06299,86.35254,-39.210205
1766813796721,-1.0810547,0.013183594,0.015136719,11.413574,6.4697266,0.48828125,0.0,0.0,0.0,-64.539185,86.71509,-47.18628
1766813796809,-1.0009766,-0.048339844,0.0024414062,10.925293,-0.36621094,1.0986328,0.0,0.0,0.0,-64.539185,86.71509,-47.18628
1766813796820,-1.0009766,-0.048339844,0.0024414062,10.925293,-0.36621094,1.0986328,0.0,0.0,0.0,-67.302246,87.01172,-51.262207
1766813796908,-0.88134766,-0.104003906,0.041503906,-8.117676,-5.1879883,0.36621094,0.0,0.0,0.0,-67.302246,87.01172,-51.262207
1766813796920,-0.88134766,-0.104003906,0.041503906,-8.117676,-5.1879883,0.36621094,0.0,0.0,0.0,-64.75342,87.09961,-48.894653
1766813797008,-0.9667969,-0.0546875,0.16064453,-10.864258,-22.216797,-0.18310547,0.0,0.0,0.0,-64.75342,87.09961,-48.894653
1766813797020,-0.9667969,-0.0546875,0.16064453,-10.864258,-22.216797,-0.18310547,0.0,0.0,0.0,-44.401245,86.10535,-26.900024
1766813797108,-1.0732422,-0.0234375,0.013671875,10.009766,2.6245117,-4.3945312,0.0,0.0,0.0,-44.401245,86.10535,-26.900024
1766813797120,-1.0732422,-0.0234375,0.013671875,10.009766,2.6245117,-4.3945312,0.0,0.0,0.0,-32.453613,84.243164,-15.238037
1766813797208,-0.98291016,-0.09814453,0.057128906,14.404297,3.7841797,-4.333496,0.0,0.0,0.0,-32.453613,84.243164,-15.238037
1766813797219,-0.98291016,-0.09814453,0.057128906,14.404297,3.7841797,-4.333496,0.0,0.0,0.0,-36.21643,84.72107,-19.720459
1766813797307,-1.0322266,-0.1015625,0.030273438,9.216309,7.9345703,-3.1738281,0.0,0.0,0.0,-36.21643,84.72107,-19.720459
1766813797319,-1.0322266,-0.1015625,0.030273438,9.216309,7.9345703,-3.1738281,0.0,0.0,0.0,-43.43445,84.97925,-27.806396
1766813797407,-1.0107422,-0.063964844,0.0063476562,3.1738281,11.352539,-0.6713867,0.0,0.0,0.0,-43.43445,84.97925,-27.806396
1766813797419,-1.0107422,-0.063964844,0.0063476562,3.1738281,11.352539,-0.6713867,0.0,0.0,0.0,-56.365356,85.33081,-41.33606
1766813797507,-1.0566406,-0.12646484,0.0043945312,-6.958008,13.061523,-0.91552734,0.0,0.0,0.0,-56.365356,85.33081,-41.33606
1766813797518,-1.0566406,-0.12646484,0.0043945312,-6.958008,13.061523,-0.91552734,0.0,0.0,0.0,-69.24133,85.83069,-53.997803
1766813797606,-0.9975586,-0.09716797,0.0107421875,-21.118164,0.24414062,-7.080078,0.0,0.0,0.0,-69.24133,85.83069,-53.997803
1766813797618,-0.9975586,-0.09716797,0.0107421875,-21.118164,0.24414062,-7.080078,0.0,0.0,0.0,-90.46692,85.616455,-73.56445
1766813797706,-0.83740234,0.052246094,0.080566406,3.479004,-1.7700195,-5.92041,0.0,0.0,0.0,-90.46692,85.616455,-73.56445
1766813797717,-0.83740234,0.052246094,0.080566406,3.479004,-1.7700195,-5.92041,0.0,0.0,0.0,-86.77551,85.149536,-68.68652
1766813797806,-1.1171875,-0.10058594,0.021972656,-2.8686523,-32.958984,-0.6713867,0.0,0.0,0.0,-86.77551,85.149536,-68.68652
1766813797817,-1.1171875,-0.10058594,0.021972656,-2.8686523,-32.958984,-0.6713867,0.0,0.0,0.0,-72.59216,84.70459,-54.832764
1766813797905,-0.9165039,-0.034179688,0.026855469,1.159668,7.019043,-1.7089844,0.0,0.0,0.0,-72.59216,84.70459,-54.832764
1766813797917,-0.9165039,-0.034179688,0.026855469,1.159668,7.019043,-1.7089844,0.0,0.0,0.0,-60.166626,84.04541,-42.198486
1766813798005,-0.9580078,-0.08984375,0.048828125,-1.8920898,-15.625,1.8310547,0.0,0.0,0.0,-60.166626,84.04541,-42.198486
1766813798017,-0.9580078,-0.08984375,0.048828125,-1.8920898,-15.625,1.8310547,0.0,0.0,0.0,-54.558105,83.91907,-36.469116
1766813798105,-1.015625,-0.034179688,0.079589844,-3.8452148,4.699707,3.4179688,0.0,0.0,0.0,-54.558105,83.91907,-36.469116
1766813798116,-1.015625,-0.034179688,0.079589844,-3.8452148,4.699707,3.4179688,0.0,0.0,0.0,-51.811523,84.06738,-33.255615
1766813798204,-1.0498047,-0.078125,0.018554688,-1.7089844,6.164551,2.8686523,0.0,0.0,0.0,-51.811523,84.06738,-33.255615
1766813798216,-1.0498047,-0.078125,0.018554688,-1.7089844,6.164551,2.8686523,0.0,0.0,0.0,-53.52539,84.63318,-34.837646
1766813798304,-1.0522461,-0.03173828,-0.020996094,-7.9956055,11.352539,6.5307617,0.0,0.0,0.0,-53.52539,84.63318,-34.837646
1766813798316,-1.0522461,-0.03173828,-0.020996094,-7.9956055,11.352539,6.5307617,0.0,0.0,0.0,-61.875,85.66589,-42.769775
1766813798404,-1.0776367,9.765625E-4,0.0087890625,2.0141602,4.9438477,4.8217773,0.0,0.0,0.0,-61.875,85.66589,-42.769775
1766813798416,-1.0776367,9.765625E-4,0.0087890625,2.0141602,4.9438477,4.8217773,0.0,0.0,0.0,-72.47131,86.68213,-53.151855
1766813798504,-0.921875,-0.099609375,0.041992188,4.272461,1.7089844,-2.0751953,0.0,0.0,0.0,-72.47131,86.68213,-53.151855
1766813798515,-0.921875,-0.099609375,0.041992188,4.272461,1.7089844,-2.0751953,0.0,0.0,0.0,-77.95349,86.951294,-59.3042
1766813798603,-0.83251953,-0.10058594,0.1772461,-1.7700195,-15.991211,-2.4414062,0.0,0.0,0.0,-77.95349,86.951294,-59.3042
1766813798615,-0.83251953,-0.10058594,0.1772461,-1.7700195,-15.991211,-2.4414062,0.0,0.0,0.0,-63.693237,86.16577,-44.86267
1766813798703,-1.1264648,-0.068359375,0.045410156,6.958008,-17.150879,1.5869141,0.0,0.0,0.0,-63.693237,86.16577,-44.86267
1766813798715,-1.1264648,-0.068359375,0.045410156,6.958008,-17.150879,1.5869141,0.0,0.0,0.0,-38.36975,84.4574,-19.951172
1766813798803,-0.9472656,-0.053222656,0.041503906,10.437012,-1.7700195,-3.2348633,0.0,0.0,0.0,-38.36975,84.4574,-19.951172
1766813798814,-0.9472656,-0.053222656,0.041503906,10.437012,-1.7700195,-3.2348633,0.0,0.0,0.0,-39.79248,84.48486,-21.87378
1766813798902,-1.0058594,-0.087890625,0.024902344,8.911133,8.728027,-2.6855469,0.0,0.0,0.0,-39.79248,84.48486,-21.87378
1766813798914,-1.0058594,-0.087890625,0.024902344,8.911133,8.728027,-2.6855469,0.0,0.0,0.0,-44.92859,84.51782,-28.328247
1766813799002,-1.0405273,-0.07861328,-0.011230469,6.4697266,17.150879,-1.3427734,0.0,0.0,0.0,-44.92859,84.51782,-28.328247
1766813799014,-1.0405273,-0.07861328,-0.011230469,6.4697266,17.150879,-1.3427734,0.0,0.0,0.0,-59.161377,85.24292,-43.275146
1766813799102,-1.0991211,-0.12109375,-0.053710938,-4.333496,31.066895,0.91552734,0.0,0.0,0.0,-59.161377,85.24292,-43.275146
1766813799114,-1.0991211,-0.12109375,-0.053710938,-4.333496,31.066895,0.91552734,0.0,0.0,0.0,-89.802246,85.94055,-74.0094
1766813799202,-1.0336914,-0.10107422,-0.053710938,-26.123047,18.737793,-2.0751953,0.0,0.0,0.0,-89.802246,85.94055,-74.0094
1766813799214,-1.0336914,-0.10107422,-0.053710938,-26.123047,18.737793,-2.0751953,0.0,0.0,0.0,-126.0791,84.9353,-108.45703
1766813799301,-0.9560547,-0.0078125,-0.061523438,-15.563965,3.479004,-1.5869141,0.0,0.0,0.0,-126.0791,84.9353,-108.45703
1766813799313,-0.9560547,-0.0078125,-0.061523438,-15.563965,3.479004,-1.5869141,0.0,0.0,0.0,-135.09888,84.09485,-115.36194
1766813799401,-0.8154297,-0.00390625,0.09765625,3.7231445,-12.451172,-3.540039,0.0,0.0,0.0,-135.09888,84.09485,-115.36194
1766813799412,-0.8154297,-0.00390625,0.09765625,3.7231445,-12.451172,-3.540039,0.0,0.0,0.0,-128.40271,84.523315,-108.27026
1766813799501,-1.0600586,-0.061523438,-0.0053710938,-6.652832,-45.043945,-2.5024414,0.0,0.0,0.0,-128.40271,84.523315,-108.27026
1766813799512,-1.0600586,-0.061523438,-0.0053710938,-6.652832,-45.043945,-2.5024414,0.0,0.0,0.0,-85.166016,85.30884,-65.269775
1766813799600,-0.9375,-0.055664062,0.048339844,3.3569336,-4.4555664,-1.159668,0.0,0.0,0.0,-85.166016,85.30884,-65.269775
1766813799612,-0.9375,-0.055664062,0.048339844,3.3569336,-4.4555664,-1.159668,0.0,0.0,0.0,-66.78589,84.75952,-47.252197
1766813799700,-1.0170898,-0.0625,0.043945312,-7.385254,-9.82666,3.7841797,0.0,0.0,0.0,-66.78589,84.75952,-47.252197
1766813799712,-1.0170898,-0.0625,0.043945312,-7.385254,-9.82666,3.7841797,0.0,0.0,0.0,-53.745117,84.40796,-33.71704
1766813799800,-1.0424805,-0.04736328,0.030761719,-0.8544922,7.6904297,3.479004,0.0,0.0,0.0,-53.745117,84.40796,-33.71704
1766813799811,-1.0424805,-0.04736328,0.030761719,-0.8544922,7.6904297,3.479004,0.0,0.0,0.0,-54.9646,85.045166,-34.749756
1766813799900,-1.0493164,-0.037597656,-0.033203125,-1.8310547,8.7890625,2.6855469,0.0,0.0,0.0,-54.9646,85.045166,-34.749756
1766813799911,-1.0493164,-0.037597656,-0.033203125,-1.8310547,8.7890625,2.6855469,0.0,0.0,0.0,-60.858765,85.73181,-40.550537
1766813799999,-1.078125,-0.0024414062,-0.045898438,1.159668,14.831543,3.90625,0.0,0.0,0.0,-60.858765,85.73181,-40.550537
1766813800011,-1.078125,-0.0024414062,-0.045898438,1.159668,14.831543,3.90625,0.0,0.0,0.0,-78.914795,86.66016,-58.623047
1766813800099,-1.0454102,-0.020507812,-0.024902344,16.601562,4.0893555,-1.5869141,0.0,0.0,0.0,-78.914795,86.66016,-58.623047
1766813800110,-1.0454102,-0.020507812,-0.024902344,16.601562,4.0893555,-1.5869141,0.0,0.0,0.0,-101.47522,86.80847,-82.50183
1766813800199,-0.83203125,-0.11767578,0.015625,5.79834,-0.5493164,-2.5024414,0.0,0.0,0.0,-101.47522,86.80847,-82.50183
1766813800210,-0.83203125,-0.11767578,0.015625,5.79834,-0.5493164,-2.5024414,0.0,0.0,0.0,-102.35962,86.621704,-84.73755
1766813800298,-0.9580078,-0.14404297,0.14404297,2.4414062,-23.498535,-2.9907227,0.0,0.0,0.0,-102.35962,86.621704,-84.73755
1766813800310,-0.9580078,-0.14404297,0.14404297,2.4414062,-23.498535,-2.9907227,0.0,0.0,0.0,-85.22095,86.09436,-67.94495
1766813800398,-1.0410156,-0.053222656,0.05078125,-3.7841797,-7.3242188,0.79345703,0.0,0.0,0.0,-85.22095,86.09436,-67.94495
1766813800410,-1.0410156,-0.053222656,0.05078125,-3.7841797,-7.3242188,0.79345703,0.0,0.0,0.0,-50.965576,84.8584,-33.338013
1766813800498,-0.9736328,-0.083496094,0.041992188,10.620117,-7.2631836,-4.211426,0.0,0.0,0.0,-50.965576,84.8584,-33.338013
1766813800509,-0.9736328,-0.083496094,0.041992188,10.620117,-7.2631836,-4.211426,0.0,0.0,0.0,-47.67517,84.51233,-30.135498
1766813800597,-0.9946289,-0.09326172,0.06347656,8.117676,-1.159668,-4.699707,0.0,0.0,0.0,-47.67517,84.51233,-30.135498
1766813800609,-0.9946289,-0.09326172,0.06347656,8.117676,-1.159668,-4.699707,0.0,0.0,0.0,-47.790527,83.92456,-31.113281
1766813800697,-1.0581055,-0.08984375,-9.765625E-4,9.765625,7.446289,-4.1503906,0.0,0.0,0.0,-47.790527,83.92456,-31.113281
1766813800709,-1.0581055,-0.08984375,-9.765625E-4,9.765625,7.446289,-4.1503906,0.0,0.0,0.0,-51.740112,83.76526,-35.809937
1766813800797,-1.0351562,-0.10205078,-0.04736328,3.3569336,19.53125,1.3427734,0.0,0.0,0.0,-51.740112,83.76526,-35.809937
1766813800808,-1.0351562,-0.10205078,-0.04736328,3.3569336,19.53125,1.3427734,0.0,0.0,0.0,-65.736694,84.375,-50.614014
1766813800897,-1.0834961,-0.1694336,0.005859375,-19.592285,22.155762,-1.6479492,0.0,0.0,0.0,-65.736694,84.375,-50.614014
1766813800908,-1.0834961,-0.1694336,0.005859375,-19.592285,22.155762,-1.6479492,0.0,0.0,0.0,-92.77954,84.79248,-77.08557
1766813800996,-0.8808594,0.0126953125,0.00390625,-20.385742,4.8828125,-3.2348633,0.0,0.0,0.0,-92.77954,84.79248,-77.08557
1766813801008,-0.8808594,0.0126953125,0.00390625,-20.385742,4.8828125,-3.2348633,0.0,0.0,0.0,-107.50122,84.034424,-89.30237
1766813801096,-0.9482422,0.0073242188,0.119140625,-0.36621094,-15.136719,1.0375977,0.0,0.0,0.0,-107.50122,84.034424,-89.30237
1766813801108,-0.9482422,0.0073242188,0.119140625,-0.36621094,-15.136719,1.0375977,0.0,0.0,0.0,-105.56213,84.138794,-86.40198
1766813801196,-1.0375977,-0.072753906,-0.03857422,-1.953125,-1.7700195,-1.6479492,0.0,0.0,0.0,-105.56213,84.138794,-86.40198
1766813801207,-1.0375977,-0.072753906,-0.03857422,-1.953125,-1.7700195,-1.6479492,0.0,0.0,0.0,-80.079346,84.82544,-60.358887
1766813801295,-0.9345703,-0.03955078,0.009277344,-7.6293945,-5.92041,2.6245117,0.0,0.0,0.0,-80.079346,84.82544,-60.358887
1766813801307,-0.9345703,-0.03955078,0.009277344,-7.6293945,-5.92041,2.6245117,0.0,0.0,0.0,-87.143555,84.940796,-67.3407
1766813801395,-0.9892578,-0.049316406,0.0024414062,2.5024414,9.338379,2.0751953,0.0,0.0,0.0,-87.143555,84.940796,-67.3407
1766813801407,-0.9892578,-0.049316406,0.0024414062,2.5024414,9.338379,2.0751953,0.0,0.0,0.0,-84.67163,85.286865,-64.539185
1766813801495,-1.0605469,-0.056152344,-0.037597656,-2.1362305,7.385254,1.8920898,0.0,0.0,0.0,-84.67163,85.286865,-64.539185
1766813801507,-1.0605469,-0.056152344,-0.037597656,-2.1362305,7.385254,1.8920898,0.0,0.0,0.0,-94.25171,85.599976,-74.21265
1766813801595,-1.0419922,-0.04345703,-0.068359375,-4.5166016,14.831543,0.5493164,0.0,0.0,0.0,-94.25171,85.599976,-74.21265
1766813801607,-1.0419922,-0.04345703,-0.068359375,-4.5166016,14.831543,0.5493164,0.0,0.0,0.0,-111.829834,85.43518,-91.54358
1766813801694,-1.0961914,0.0,-0.028808594,16.296387,5.3100586,3.4179688,0.0,0.0,0.0,-111.829834,85.43518,-91.54358
1766813801706,-1.0961914,0.0,-0.028808594,16.296387,5.3100586,3.4179688,0.0,0.0,0.0,-123.15674,85.38574,-103.359375
1766813801794,-0.7709961,-0.19042969,0.005859375,0.061035156,-2.1362305,-1.5258789,0.0,0.0,0.0,-123.15674,85.38574,-103.359375
1766813801805,-0.7709961,-0.19042969,0.005859375,0.061035156,-2.1362305,-1.5258789,0.0,0.0,0.0,-126.727295,85.46265,-108.18237
1766813801894,-1.090332,-0.049316406,-0.0063476562,-0.24414062,-31.12793,2.1972656,0.0,0.0,0.0,-126.727295,85.46265,-108.18237
1766813801906,-1.090332,-0.049316406,-0.0063476562,-0.24414062,-31.12793,2.1972656,0.0,0.0,0.0,-110.11047,85.91858,-91.049194
1766813801993,-0.95947266,-0.07080078,-0.036621094,7.6293945,8.850098,1.4648438,0.0,0.0,0.0,-110.11047,85.91858,-91.049194
1766813802005,-0.95947266,-0.07080078,-0.036621094,7.6293945,8.850098,1.4648438,0.0,0.0,0.0,-86.07788,86.30859,-67.44507
1766813802093,-0.9692383,-0.08105469,-0.021972656,16.418457,-2.746582,-4.272461,0.0,0.0,0.0,-86.07788,86.30859,-67.44507
1766813802105,-0.9692383,-0.08105469,-0.021972656,16.418457,-2.746582,-4.272461,0.0,0.0,0.0,-91.14807,86.09436,-73.8501
1766813802193,-1.0141602,-0.09814453,-0.017089844,9.70459,3.2958984,-1.953125,0.0,0.0,0.0,-91.14807,86.09436,-73.8501
1766813802204,-1.0141602,-0.09814453,-0.017089844,9.70459,3.2958984,-1.953125,0.0,0.0,0.0,-92.26868,85.78125,-76.135254
1766813802292,-1.0185547,-0.068847656,-0.057617188,5.493164,6.1035156,-0.7324219,0.0,0.0,0.0,-92.26868,85.78125,-76.135254
1766813802304,-1.0185547,-0.068847656,-0.057617188,5.493164,6.1035156,-0.7324219,0.0,0.0,0.0,-98.1134,85.57251,-82.55127
1766813802392,-1.0161133,-0.099121094,-0.072265625,3.6010742,11.047363,2.2583008,0.0,0.0,0.0,-98.1134,85.57251,-82.55127
1766813802404,-1.0161133,-0.099121094,-0.072265625,3.6010742,11.047363,2.2583008,0.0,0.0,0.0,-111.9397,85.4187,-96.82251
1766813802492,-1.0385742,-0.14111328,-0.046875,-12.451172,2.4414062,-1.4038086,0.0,0.0,0.0,-111.9397,85.4187,-96.82251
1766813802503,-1.0385742,-0.14111328,-0.046875,-12.451172,2.4414062,-1.4038086,0.0,0.0,0.0,-120.80017,84.92432,-105.20508
1766813802592,-0.9980469,-0.036132812,-0.036132812,-16.845703,-5.2490234,0.36621094,0.0,0.0,0.0,-120.80017,84.92432,-105.20508
1766813802603,-0.9980469,-0.036132812,-0.036132812,-16.845703,-5.2490234,0.36621094,0.0,0.0,0.0,-116.537476,85.12207,-98.65173
1766813802691,-0.83251953,-0.0146484375,0.080566406,-1.4038086,-15.380859,-2.9296875,0.0,0.0,0.0,-116.537476,85.12207,-98.65173
1766813802703,-0.83251953,-0.0146484375,0.080566406,-1.4038086,-15.380859,-2.9296875,0.0,0.0,0.0,-102.79358,85.3418,-84.18274
1766813802791,-1.0771484,-0.068847656,0.10449219,4.0283203,-39.001465,-2.0141602,0.0,0.0,0.0,-102.79358,85.3418,-84.18274
1766813802803,-1.0771484,-0.068847656,0.10449219,4.0283203,-39.001465,-2.0141602,0.0,0.0,0.0,-66.91223,84.88037,-48.52112
1766813802891,-0.98583984,-0.07373047,0.064941406,0.30517578,1.7089844,-2.380371,0.0,0.0,0.0,-66.91223,84.88037,-48.52112
1766813802903,-0.98583984,-0.07373047,0.064941406,0.30517578,1.7089844,-2.380371,0.0,0.0,0.0,-45.038452,83.69934,-26.185913
1766813802990,-1.0112305,-0.041015625,0.07373047,-10.559082,-13.061523,4.4555664,0.0,0.0,0.0,-45.038452,83.69934,-26.185913
1766813803002,-1.0112305,-0.041015625,0.07373047,-10.559082,-13.061523,4.4555664,0.0,0.0,0.0,-39.19922,83.19946,-19.594116
1766813803090,-1.034668,-0.043945312,0.06738281,-5.432129,7.1411133,1.4648438,0.0,0.0,0.0,-39.19922,83.19946,-19.594116
1766813803102,-1.034668,-0.043945312,0.06738281,-5.432129,7.1411133,1.4648438,0.0,0.0,0.0,-40.924072,83.75427,-20.753174
1766813803190,-1.059082,-0.03466797,0.0,-3.6621094,9.521484,-0.6713867,0.0,0.0,0.0,-40.924072,83.75427,-20.753174
1766813803201,-1.059082,-0.03466797,0.0,-3.6621094,9.521484,-0.6713867,0.0,0.0,0.0,-44.53308,84.28162,-23.961182
1766813803289,-1.0454102,-0.001953125,-0.0014648438,0.9765625,13.061523,1.7089844,0.0,0.0,0.0,-44.53308,84.28162,-23.961182
1766813803301,-1.0454102,-0.001953125,-0.0014648438,0.9765625,13.061523,1.7089844,0.0,0.0,0.0,-55.62378,85.270386,-35.024414
1766813803389,-1.0473633,-0.043945312,0.032226562,16.174316,8.483887,-1.3427734,0.0,0.0,0.0,-55.62378,85.270386,-35.024414
1766813803401,-1.0473633,-0.043945312,0.032226562,16.174316,8.483887,-1.3427734,0.0,0.0,0.0,-69.36218,86.050415,-49.954834
1766813803489,-0.8510742,-0.1328125,0.09716797,5.859375,2.319336,-3.7841797,0.0,0.0,0.0,-69.36218,86.050415,-49.954834
1766813803501,-0.8510742,-0.1328125,0.09716797,5.859375,2.319336,-3.7841797,0.0,0.0,0.0,-76.22864,86.00647,-58.084717
1766813803589,-0.9707031,-0.10498047,0.14697266,-9.338379,-17.63916,1.4038086,0.0,0.0,0.0,-76.22864,86.00647,-58.084717
1766813803601,-0.9707031,-0.10498047,0.14697266,-9.338379,-17.63916,1.4038086,0.0,0.0,0.0,-65.857544,85.36926,-47.158813
1766813803688,-1.0229492,-0.029785156,0.013671875,-3.2348633,1.6479492,1.6479492,0.0,0.0,0.0,-65.857544,85.36926,-47.158813
1766813803700,-1.0229492,-0.029785156,0.013671875,-3.2348633,1.6479492,1.6479492,0.0,0.0,0.0,-48.466187,84.572754,-29.119263
1766813803788,-0.97753906,-0.068847656,0.029296875,3.6010742,-3.8452148,0.4272461,0.0,0.0,0.0,-48.466187,84.572754,-29.119263
1766813803800,-0.97753906,-0.068847656,0.029296875,3.6010742,-3.8452148,0.4272461,0.0,0.0,0.0,-47.735596,84.67163,-28.460083
1766813803888,-0.9995117,-0.076660156,0.018066406,1.5869141,1.8920898,2.8076172,0.0,0.0,0.0,-47.735596,84.67163,-28.460083
1766813803899,-0.9995117,-0.076660156,0.018066406,1.5869141,1.8920898,2.8076172,0.0,0.0,0.0,-46.79077,84.81445,-27.822876
1766813803987,-1.0522461,-0.060058594,-0.0126953125,3.1738281,8.911133,1.3427734,0.0,0.0,0.0,-46.79077,84.81445,-27.822876
1766813803999,-1.0522461,-0.060058594,-0.0126953125,3.1738281,8.911133,1.3427734,0.0,0.0,0.0,-51.817017,85.44617,-33.173218
1766813804087,-1.0727539,-0.103515625,-0.033691406,1.953125,16.601562,1.953125,0.0,0.0,0.0,-51.817017,85.44617,-33.173218
1766813804099,-1.0727539,-0.103515625,-0.033691406,1.953125,16.601562,1.953125,0.0,0.0,0.0,-69.76318,86.30859,-51.75659
1766813804187,-1.0454102,-0.12207031,0.0048828125,-19.958496,9.887695,-1.953125,0.0,0.0,0.0,-69.76318,86.30859,-51.75659
1766813804199,-1.0454102,-0.12207031,0.0048828125,-19.958496,9.887695,-1.953125,0.0,0.0,0.0,-95.33386,86.44043,-76.36597
1766813804287,-0.9086914,0.029785156,0.0053710938,-11.474609,1.4038086,-1.8920898,0.0,0.0,0.0,-95.33386,86.44043,-76.36597
1766813804298,-0.9086914,0.029785156,0.0053710938,-11.474609,1.4038086,-1.8920898,0.0,0.0,0.0,-104.87549,85.99548,-83.95203
1766813804386,-0.92285156,-0.021484375,0.15234375,7.019043,-13.977051,-1.4648438,0.0,0.0,0.0,-104.87549,85.99548,-83.95203
1766813804398,-0.92285156,-0.021484375,0.15234375,7.019043,-13.977051,-1.4648438,0.0,0.0,0.0,-92.559814,85.979004,-71.79016
1766813804486,-1.0488281,-0.06689453,-0.01171875,-2.5024414,-23.19336,-3.2348633,0.0,0.0,0.0,-92.559814,85.979004,-71.79016
1766813804498,-1.0488281,-0.06689453,-0.01171875,-2.5024414,-23.19336,-3.2348633,0.0,0.0,0.0,-57.008057,85.24292,-36.19995
1766813804586,-0.92089844,-0.032714844,0.06542969,1.3427734,-3.8452148,-0.61035156,0.0,0.0,0.0,-57.008057,85.24292,-36.19995
1766813804597,-0.92089844,-0.032714844,0.06542969,1.3427734,-3.8452148,-0.61035156,0.0,0.0,0.0,-56.68396,84.89685,-36.452637
1766813804685,-1.03125,-0.03125,0.056640625,4.0283203,3.8452148,0.8544922,0.0,0.0,0.0,-56.68396,84.89685,-36.452637
1766813804697,-1.03125,-0.03125,0.056640625,4.0283203,3.8452148,0.8544922,0.0,0.0,0.0,-49.020996,84.70459,-28.635864
1766813804785,-1.0351562,-0.06347656,0.014160156,1.2207031,12.878418,0.48828125,0.0,0.0,0.0,-49.020996,84.70459,-28.635864
1766813804797,-1.0351562,-0.06347656,0.014160156,1.2207031,12.878418,0.48828125,0.0,0.0,0.0,-58.40332,85.45166,-38.518066
1766813804885,-1.0786133,-0.046875,-0.033691406,-3.540039,10.375977,2.6245117,0.0,0.0,0.0,-58.40332,85.45166,-38.518066
1766813804896,-1.0786133,-0.046875,-0.033691406,-3.540039,10.375977,2.6245117,0.0,0.0,0.0,-73.21289,86.02844,-53.475952
1766813804984,-1.0195312,-0.0034179688,-0.03955078,-0.6713867,9.521484,3.1738281,0.0,0.0,0.0,-73.21289,86.02844,-53.475952
1766813804996,-1.0195312,-0.0034179688,-0.03955078,-0.6713867,9.521484,3.1738281,0.0,0.0,0.0,-93.02124,86.605225,-73.10303
1766813805085,-0.9819336,-0.08105469,0.022460938,6.652832,-3.0517578,-1.4038086,0.0,0.0,0.0,-93.02124,86.605225,-73.10303
1766813805096,-0.9819336,-0.08105469,0.022460938,6.652832,-3.0517578,-1.4038086,0.0,0.0,0.0,-100.755615,86.75903,-81.56799
1766813805184,-0.8305664,-0.103515625,0.09423828,-3.112793,-10.314941,-2.380371,0.0,0.0,0.0,-100.755615,86.75903,-81.56799
1766813805195,-0.8305664,-0.103515625,0.09423828,-3.112793,-10.314941,-2.380371,0.0,0.0,0.0,-84.80896,86.6272,-65.582886
1766813805284,-1.0834961,-0.08105469,0.0625,-0.18310547,-23.68164,-0.4272461,0.0,0.0,0.0,-84.80896,86.6272,-65.582886
1766813805295,-1.0834961,-0.08105469,0.0625,-0.18310547,-23.68164,-0.4272461,0.0,0.0,0.0,-59.869995,85.89661,-40.34729
1766813805383,-1.0024414,-0.071777344,-0.0029296875,5.2490234,7.1411133,-3.3569336,0.0,0.0,0.0,-59.869995,85.89661,-40.34729
1766813805395,-1.0024414,-0.071777344,-0.0029296875,5.2490234,7.1411133,-3.3569336,0.0,0.0,0.0,-52.97058,85.00122,-34.03015
1766813805483,-0.9897461,-0.06689453,0.029785156,3.7231445,4.333496,-0.36621094,0.0,0.0,0.0,-52.97058,85.00122,-34.03015
1766813805494,-0.9897461,-0.06689453,0.029785156,3.7231445,4.333496,-0.36621094,0.0,0.0,0.0,-57.870483,85.12756,-39.490356
1766813805583,-1.0258789,-0.06542969,0.00390625,6.591797,2.0751953,0.7324219,0.0,0.0,0.0,-57.870483,85.12756,-39.490356
1766813805594,-1.0258789,-0.06542969,0.00390625,6.591797,2.0751953,0.7324219,0.0,0.0,0.0,-60.078735,85.24841,-42.1875
1766813805682,-1.0444336,-0.09716797,-0.04736328,3.90625,8.422852,-0.48828125,0.0,0.0,0.0,-60.078735,85.24841,-42.1875
1766813805694,-1.0444336,-0.09716797,-0.04736328,3.90625,8.422852,-0.48828125,0.0,0.0,0.0,-64.91821,85.545044,-47.54883
1766813805782,-1.0170898,-0.10839844,-0.05126953,-10.498047,19.714355,0.18310547,0.0,0.0,0.0,-64.91821,85.545044,-47.54883
1766813805794,-1.0170898,-0.10839844,-0.05126953,-10.498047,19.714355,0.18310547,0.0,0.0,0.0,-86.64917,85.94055,-69.158936
1766813805882,-1.0517578,-0.09082031,-0.040039062,-24.475098,7.507324,-1.8310547,0.0,0.0,0.0,-86.64917,85.94055,-69.158936
1766813805893,-1.0517578,-0.09082031,-0.040039062,-24.475098,7.507324,-1.8310547,0.0,0.0,0.0,-112.681274,85.46814,-93.33435
1766813805981,-0.80908203,0.07128906,0.0,-0.24414062,-2.4414062,1.0375977,0.0,0.0,0.0,-112.681274,85.46814,-93.33435
1766813805993,-0.80908203,0.07128906,0.0,-0.24414062,-2.4414062,1.0375977,0.0,0.0,0.0,-117.37793,85.47363,-96.51489
1766813806081,-1.0375977,-0.096191406,0.10595703,7.2021484,-29.418945,0.79345703,0.0,0.0,0.0,-117.37793,85.47363,-96.51489
1766813806093,-1.0375977,-0.096191406,0.10595703,7.2021484,-29.418945,0.79345703,0.0,0.0,0.0,-101.64551,86.09436,-81.5625
1766813806181,-0.9746094,-0.0390625,0.0063476562,4.3945312,5.493164,-3.6010742,0.0,0.0,0.0,-101.64551,86.09436,-81.5625
1766813806192,-0.9746094,-0.0390625,0.0063476562,4.3945312,5.493164,-3.6010742,0.0,0.0,0.0,-63.083496,85.68787,-43.357544
1766813806281,-0.95458984,-0.04638672,0.04345703,-3.1738281,-13.916016,2.5024414,0.0,0.0,0.0,-63.083496,85.68787,-43.357544
1766813806292,-0.95458984,-0.04638672,0.04345703,-3.1738281,-13.916016,2.5024414,0.0,0.0,0.0,-61.149902,85.616455,-41.506348
1766813806380,-1.03125,-0.0234375,0.029296875,3.7231445,7.019043,1.159668,0.0,0.0,0.0,-61.149902,85.616455,-41.506348
1766813806392,-1.03125,-0.0234375,0.029296875,3.7231445,7.019043,1.159668,0.0,0.0,0.0,-56.17859,85.632935,-36.75476
1766813806480,-1.0473633,-0.06982422,0.0063476562,4.0893555,5.859375,-1.7089844,0.0,0.0,0.0,-56.17859,85.632935,-36.75476
1766813806491,-1.0473633,-0.06982422,0.0063476562,4.0893555,5.859375,-1.7089844,0.0,0.0,0.0,-63.967896,86.083374,-44.95056
1766813806580,-1.0673828,-0.03466797,-0.045410156,-0.5493164,5.2490234,-1.8310547,0.0,0.0,0.0,-63.967896,86.083374,-44.95056
1766813806591,-1.0673828,-0.03466797,-0.045410156,-0.5493164,5.2490234,-1.8310547,0.0,0.0,0.0,-73.15796,86.083374,-54.36035
1766813806679,-1.0419922,-0.020019531,-0.033691406,9.521484,3.112793,-1.3427734,0.0,0.0,0.0,-73.15796,86.083374,-54.36035
1766813806691,-1.0419922,-0.020019531,-0.033691406,9.521484,3.112793,-1.3427734,0.0,0.0,0.0,-83.05115,86.21521,-64.73694
1766813806779,-0.99609375,-0.05419922,-0.0014648438,8.728027,3.1738281,-3.1738281,0.0,0.0,0.0,-83.05115,86.21521,-64.73694
1766813806790,-0.99609375,-0.05419922,-0.0014648438,8.728027,3.1738281,-3.1738281,0.0,0.0,0.0,-86.49536,86.13281,-69.20288
1766813806879,-0.90478516,-0.09277344,0.028320312,1.6479492,-4.1503906,-1.6479492,0.0,0.0,0.0,-86.49536,86.13281,-69.20288
1766813806890,-0.90478516,-0.09277344,0.028320312,1.6479492,-4.1503906,-1.6479492,0.0,0.0,0.0,-86.555786,86.0614,-69.70276
1766813806978,-0.8701172,-0.10253906,0.18652344,-0.8544922,-11.047363,-0.79345703,0.0,0.0,0.0,-86.555786,86.0614,-69.70276
1766813806990,-0.8701172,-0.10253906,0.18652344,-0.8544922,-11.047363,-0.79345703,0.0,0.0,0.0,-73.899536,85.75928,-56.722412
1766813807078,-1.0732422,-0.045898438,0.076171875,3.479004,-21.972656,0.0,0.0,0.0,0.0,-73.899536,85.75928,-56.722412
1766813807090,-1.0732422,-0.045898438,0.076171875,3.479004,-21.972656,0.0,0.0,0.0,0.0,-45.307617,84.314575,-27.734985
1766813807178,-0.9824219,-0.07470703,0.0546875,6.958008,-9.765625,0.8544922,0.0,0.0,0.0,-45.307617,84.314575,-27.734985
1766813807189,-0.9824219,-0.07470703,0.0546875,6.958008,-9.765625,0.8544922,0.0,0.0,0.0,-37.435913,83.61145,-20.061035
1766813807278,-1.0004883,-0.08886719,0.08935547,0.61035156,-5.7373047,-1.3427734,0.0,0.0,0.0,-37.435913,83.61145,-20.061035
1766813807289,-1.0004883,-0.08886719,0.08935547,0.61035156,-5.7373047,-1.3427734,0.0,0.0,0.0,-34.75525,82.94678,-17.940674
1766813807377,-1.0634766,-0.080566406,0.055664062,7.6293945,6.713867,-2.9296875,0.0,0.0,0.0,-34.75525,82.94678,-17.940674
1766813807389,-1.0634766,-0.080566406,0.055664062,7.6293945,6.713867,-2.9296875,0.0,0.0,0.0,-37.18872,82.94678,-20.879517
1766813807477,-1.0810547,-0.072753906,-0.018554688,6.652832,19.042969,-1.8920898,0.0,0.0,0.0,-37.18872,82.94678,-20.879517
1766813807488,-1.0810547,-0.072753906,-0.018554688,6.652832,19.042969,-1.8920898,0.0,0.0,0.0,-47.94983,83.913574,-32.470093
1766813807577,-1.0458984,-0.14355469,0.040527344,-7.6904297,25.024414,-1.0375977,0.0,0.0,0.0,-47.94983,83.913574,-32.470093
1766813807588,-1.0458984,-0.14355469,0.040527344,-7.6904297,25.024414,-1.0375977,0.0,0.0,0.0,-73.54248,85.07263,-58.167114
1766813807676,-0.9580078,-0.08154297,0.009277344,-15.380859,14.404297,-7.446289,0.0,0.0,0.0,-73.54248,85.07263,-58.167114
1766813807688,-0.9580078,-0.08154297,0.009277344,-15.380859,14.404297,-7.446289,0.0,0.0,0.0,-98.08594,84.6167,-81.37573
1766813807776,-0.8696289,-0.014160156,0.15332031,-0.8544922,6.5307617,0.91552734,0.0,0.0,0.0,-98.08594,84.6167,-81.37573
1766813807787,-0.8696289,-0.014160156,0.15332031,-0.8544922,6.5307617,0.91552734,0.0,0.0,0.0,-108.38013,83.97949,-91.065674
1766813807882,-1.1147461,-0.103027344,-0.061035156,-17.76123,-10.559082,3.2348633,0.0,0.0,0.0,-108.38013,83.97949,-91.065674
1766813807888,-1.1147461,-0.103027344,-0.061035156,-17.76123,-10.559082,3.2348633,0.0,0.0,0.0,-95.668945,84.88037,-77.058105
1766813807975,-0.94433594,-0.045410156,-0.040039062,-13.549805,7.5683594,-3.6621094,0.0,0.0,0.0,-95.668945,84.88037,-77.058105
1766813807987,-0.94433594,-0.045410156,-0.040039062,-13.549805,7.5683594,-3.6621094,0.0,0.0,0.0,-105.842285,84.39148,-85.89661
1766813808075,-0.98535156,-0.05078125,-0.08496094,-7.385254,1.7700195,0.7324219,0.0,0.0,0.0,-105.842285,84.39148,-85.89661
1766813808087,-0.98535156,-0.05078125,-0.08496094,-7.385254,1.7700195,0.7324219,0.0,0.0,0.0,-107.36389,84.49036,-86.380005
1766813808175,-0.96728516,-0.0625,-0.07861328,5.79834,5.493164,-0.7324219,0.0,0.0,0.0,-107.36389,84.49036,-86.380005
1766813808186,-0.96728516,-0.0625,-0.07861328,5.79834,5.493164,-0.7324219,0.0,0.0,0.0,-114.18091,84.34204,-93.444214
1766813808275,-1.0175781,-0.07714844,-0.10595703,7.5683594,0.4272461,3.4179688,0.0,0.0,0.0,-114.18091,84.34204,-93.444214
1766813808286,-1.0175781,-0.07714844,-0.10595703,7.5683594,0.4272461,3.4179688,0.0,0.0,0.0,-118.50403,84.24866,-98.86597
1766813808374,-1.0478516,-0.05859375,-0.11376953,5.6152344,8.605957,4.272461,0.0,0.0,0.0,-118.50403,84.24866,-98.86597
1766813808386,-1.0478516,-0.05859375,-0.11376953,5.6152344,8.605957,4.272461,0.0,0.0,0.0,-125.354004,84.23218,-106.76514
1766813808474,-1.0600586,-0.05419922,-0.076660156,12.451172,7.019043,3.540039,0.0,0.0,0.0,-125.354004,84.23218,-106.76514
1766813808486,-1.0600586,-0.05419922,-0.076660156,12.451172,7.019043,3.540039,0.0,0.0,0.0,-134.86816,83.984985,-117.33948
1766813808574,-0.97753906,-0.09375,-0.049804688,5.126953,-5.493164,2.8076172,0.0,0.0,0.0,-134.86816,83.984985,-117.33948
1766813808585,-0.97753906,-0.09375,-0.049804688,5.126953,-5.493164,2.8076172,0.0,0.0,0.0,-137.1753,84.02893,-120.772705
1766813808673,-0.89697266,-0.07861328,-0.009277344,0.0,-4.638672,2.1972656,0.0,0.0,0.0,-137.1753,84.02893,-120.772705
1766813808691,-0.89697266,-0.07861328,-0.009277344,0.0,-4.638672,2.1972656,0.0,0.0,0.0,-135.91187,84.42993,-119.54224
1766813808773,-1.0449219,-0.10595703,0.044921875,-2.319336,-16.174316,-1.159668,0.0,0.0,0.0,-135.91187,84.42993,-119.54224
1766813808784,-1.0449219,-0.10595703,0.044921875,-2.319336,-16.174316,-1.159668,0.0,0.0,0.0,-123.97522,85.479126,-107.127686
1766813808873,-1.0063477,-0.040527344,-0.037109375,0.8544922,-0.91552734,0.24414062,0.0,0.0,0.0,-123.97522,85.479126,-107.127686
1766813808884,-1.0063477,-0.040527344,-0.037109375,0.8544922,-0.91552734,0.24414062,0.0,0.0,0.0,-108.083496,85.67139,-91.170044
1766813808972,-0.99560547,-0.068359375,-0.015625,9.70459,-2.1362305,-1.5258789,0.0,0.0,0.0,-108.083496,85.67139,-91.170044
1766813808984,-0.99560547,-0.068359375,-0.015625,9.70459,-2.1362305,-1.5258789,0.0,0.0,0.0,-105.93567,85.69336,-89.62097
1766813809072,-1.0439453,-0.10986328,-0.052734375,6.713867,4.0283203,-3.0517578,0.0,0.0,0.0,-105.93567,85.69336,-89.62097
1766813809084,-1.0439453,-0.10986328,-0.052734375,6.713867,4.0283203,-3.0517578,0.0,0.0,0.0,-105.60608,85.43518,-90.20325
1766813809172,-0.9848633,-0.083984375,-0.12890625,-12.573242,15.319824,2.8076172,0.0,0.0,0.0,-105.60608,85.43518,-90.20325
1766813809183,-0.9848633,-0.083984375,-0.12890625,-12.573242,15.319824,2.8076172,0.0,0.0,0.0,-116.916504,84.95178,-101.42029
1766813809272,-1.0288086,-0.079589844,-0.104003906,-19.470215,27.832031,-1.3427734,0.0,0.0,0.0,-116.916504,84.95178,-101.42029
1766813809283,-1.0288086,-0.079589844,-0.104003906,-19.470215,27.832031,-1.3427734,0.0,0.0,0.0,-137.18628,83.63342,-119.98718
1766813809371,-0.9916992,-0.05908203,-0.09863281,-37.597656,9.887695,2.0141602,0.0,0.0,0.0,-137.18628,83.63342,-119.98718
1766813809383,-0.9916992,-0.05908203,-0.09863281,-37.597656,9.887695,2.0141602,0.0,0.0,0.0,-151.17188,81.815186,-131.27014
1766813809471,-0.8378906,0.05859375,0.03564453,-4.0893555,-8.605957,-1.2817383,0.0,0.0,0.0,-151.17188,81.815186,-131.27014
1766813809483,-0.8378906,0.05859375,0.03564453,-4.0893555,-8.605957,-1.2817383,0.0,0.0,0.0,-152.24304,81.69983,-130.61646
1766813809571,-1.1318359,-0.08251953,-0.1303711,5.9814453,-22.155762,-0.30517578,0.0,0.0,0.0,-152.24304,81.69983,-130.61646
