timestamp,accX,accY,accZ,gyroX,gyroY,gyroZ,magX,magY,magZ,roll,pitch,yaw
1769246393775,-0.8432617,0.043945312,0.42822266,8.300781,19.89746,-13.549805,0.0,0.0,0.0,9.986572,70.718994,4.350586
1769246393786,-0.8432617,0.043945312,0.42822266,8.300781,19.89746,-13.549805,0.0,0.0,0.0,7.7563477,72.454834,2.2961426
1769246393874,-0.93115234,0.076171875,0.4189453,8.666992,-10.192871,2.8076172,0.0,0.0,0.0,7.7563477,72.454834,2.2961426
1769246393885,-0.93115234,0.076171875,0.4189453,8.666992,-10.192871,2.8076172,0.0,0.0,0.0,7.4816895,72.751465,2.4224854
1769246393974,-0.9326172,-0.064453125,0.18701172,12.084961,-3.6010742,-1.2207031,0.0,0.0,0.0,7.4816895,72.751465,2.4224854
1769246393989,-0.9326172,-0.064453125,0.18701172,12.084961,-3.6010742,-1.2207031,0.0,0.0,0.0,9.036255,70.85632,3.6419678
1769246394073,-0.95166016,0.040527344,0.40527344,2.380371,11.59668,-1.7700195,0.0,0.0,0.0,9.036255,70.85632,3.6419678
1769246394085,-0.95166016,0.040527344,0.40527344,2.380371,11.59668,-1.7700195,0.0,0.0,0.0,8.4210205,72.27905,1.3183594
1769246394173,-0.97509766,0.037597656,0.1484375,9.70459,5.3710938,1.8310547,0.0,0.0,0.0,8.4210205,72.27905,1.3183594
1769246394188,-0.97509766,0.037597656,0.1484375,9.70459,5.3710938,1.8310547,0.0,0.0,0.0,9.42627,72.20764,2.8289795
1769246394273,-0.9375,0.021972656,0.3154297,4.211426,13.61084,2.0141602,0.0,0.0,0.0,9.42627,72.20764,2.8289795
1769246394287,-0.9375,0.021972656,0.3154297,4.211426,13.61084,2.0141602,0.0,0.0,0.0,10.475464,74.06433,1.8676758
1769246394373,-0.9819336,-0.012207031,0.15429688,-0.061035156,7.019043,3.1738281,0.0,0.0,0.0,10.475464,74.06433,1.8676758
1769246394384,-0.9819336,-0.012207031,0.15429688,-0.061035156,7.019043,3.1738281,0.0,0.0,0.0,12.524414,74.31702,4.526367
1769246394472,-0.99365234,0.0078125,0.20019531,-5.6152344,-2.9296875,6.713867,0.0,0.0,0.0,12.524414,74.31702,4.526367
1769246394484,-0.99365234,0.0078125,0.20019531,-5.6152344,-2.9296875,6.713867,0.0,0.0,0.0,13.727417,74.77844,5.08667
1769246394572,-0.9760742,0.067871094,0.2788086,-6.652832,-1.6479492,8.117676,0.0,0.0,0.0,13.727417,74.77844,5.08667
1769246394583,-0.9760742,0.067871094,0.2788086,-6.652832,-1.6479492,8.117676,0.0,0.0,0.0,15.254517,74.68506,6.7181396
1769246394671,-1.0029297,0.059570312,0.19726562,-0.61035156,3.1738281,1.5869141,0.0,0.0,0.0,15.254517,74.68506,6.7181396
1769246394683,-1.0029297,0.059570312,0.19726562,-0.61035156,3.1738281,1.5869141,0.0,0.0,0.0,15.858765,74.45984,8.135376
1769246394771,-0.93115234,0.09423828,0.34570312,-4.760742,4.5166016,0.12207031,0.0,0.0,0.0,15.858765,74.45984,8.135376
1769246394783,-0.93115234,0.09423828,0.34570312,-4.760742,4.5166016,0.12207031,0.0,0.0,0.0,15.441284,74.904785,7.833252
1769246394871,-0.86621094,0.09863281,0.3305664,2.8686523,-3.7841797,-2.746582,0.0,0.0,0.0,15.441284,74.904785,7.833252
1769246394882,-0.86621094,0.09863281,0.3305664,2.8686523,-3.7841797,-2.746582,0.0,0.0,0.0,14.848022,74.75647,7.9101562
1769246394971,-0.9526367,0.09863281,0.38134766,9.460449,-7.5683594,-6.1035156,0.0,0.0,0.0,14.848022,74.75647,7.9101562
1769246394982,-0.9526367,0.09863281,0.38134766,9.460449,-7.5683594,-6.1035156,0.0,0.0,0.0,13.815308,73.948975,6.7401123
1769246395070,-0.93115234,0.076660156,0.22363281,23.864746,-3.540039,-8.666992,0.0,0.0,0.0,13.815308,73.948975,6.7401123
1769246395082,-0.93115234,0.076660156,0.22363281,23.864746,-3.540039,-8.666992,0.0,0.0,0.0,11.80481,73.43262,2.878418
1769246395170,-0.89453125,0.123535156,0.31982422,5.3710938,-6.591797,-0.4272461,0.0,0.0,0.0,11.80481,73.43262,2.878418
1769246395182,-0.89453125,0.123535156,0.31982422,5.3710938,-6.591797,-0.4272461,0.0,0.0,0.0,11.019287,72.61963,1.5820312
1769246395270,-0.9604492,0.05126953,0.2290039,3.8452148,-2.746582,2.8686523,0.0,0.0,0.0,11.019287,72.61963,1.5820312
1769246395281,-0.9604492,0.05126953,0.2290039,3.8452148,-2.746582,2.8686523,0.0,0.0,0.0,12.3046875,72.13623,2.2521973
1769246395370,-0.96728516,0.04638672,0.2211914,-9.216309,-1.2817383,4.8828125,0.0,0.0,0.0,12.3046875,72.13623,2.2521973
1769246395381,-0.96728516,0.04638672,0.2211914,-9.216309,-1.2817383,4.8828125,0.0,0.0,0.0,13.123169,72.21863,3.24646
1769246395469,-0.9628906,0.08496094,0.20947266,-9.399414,2.1972656,0.5493164,0.0,0.0,0.0,13.123169,72.21863,3.24646
1769246395481,-0.9628906,0.08496094,0.20947266,-9.399414,2.1972656,0.5493164,0.0,0.0,0.0,13.331909,72.39441,4.6691895
1769246395569,-1.059082,0.096191406,0.32910156,-12.268066,-10.192871,4.0893555,0.0,0.0,0.0,13.331909,72.39441,4.6691895
1769246395580,-1.059082,0.096191406,0.32910156,-12.268066,-10.192871,4.0893555,0.0,0.0,0.0,12.821045,72.47681,4.5648193
1769246395669,-1.1147461,0.06933594,0.31933594,-19.958496,-8.178711,7.6293945,0.0,0.0,0.0,12.821045,72.47681,4.5648193
1769246395680,-1.1147461,0.06933594,0.31933594,-19.958496,-8.178711,7.6293945,0.0,0.0,0.0,14.403076,70.702515,7.1466064
1769246395768,-0.9980469,0.09033203,0.2734375,-9.277344,-3.4179688,-2.380371,0.0,0.0,0.0,14.403076,70.702515,7.1466064
1769246395780,-0.9980469,0.09033203,0.2734375,-9.277344,-3.4179688,-2.380371,0.0,0.0,0.0,13.7438965,70.72998,6.223755
1769246395868,-0.9008789,0.043945312,0.40722656,-2.319336,13.183594,-5.6762695,0.0,0.0,0.0,13.7438965,70.72998,6.223755
1769246395879,-0.9008789,0.043945312,0.40722656,-2.319336,13.183594,-5.6762695,0.0,0.0,0.0,12.502441,71.328735,6.3500977
1769246395968,-0.88623047,0.018066406,0.4423828,-5.2490234,7.751465,-0.18310547,0.0,0.0,0.0,12.502441,71.328735,6.3500977
1769246395979,-0.88623047,0.018066406,0.4423828,-5.2490234,7.751465,-0.18310547,0.0,0.0,0.0,11.733398,72.38342,5.262451
1769246396068,-0.97021484,0.06298828,0.26171875,-4.8217773,-4.638672,6.5307617,0.0,0.0,0.0,11.733398,72.38342,5.262451
1769246396079,-0.97021484,0.06298828,0.26171875,-4.8217773,-4.638672,6.5307617,0.0,0.0,0.0,12.227783,71.75171,7.0147705
1769246396167,-0.9008789,-0.022949219,0.27441406,19.104004,21.54541,-13.427734,0.0,0.0,0.0,12.227783,71.75171,7.0147705
1769246396179,-0.9008789,-0.022949219,0.27441406,19.104004,21.54541,-13.427734,0.0,0.0,0.0,12.194824,72.62512,6.3391113
1769246396267,-0.9379883,0.06542969,0.33691406,-14.587402,0.18310547,10.7421875,0.0,0.0,0.0,12.194824,72.62512,6.3391113
1769246396278,-0.9379883,0.06542969,0.33691406,-14.587402,0.18310547,10.7421875,0.0,0.0,0.0,12.524414,73.635864,7.163086
1769246396367,-0.9814453,0.04638672,0.115234375,13.061523,22.094727,-1.8310547,0.0,0.0,0.0,12.524414,73.635864,7.163086
1769246396378,-0.9814453,0.04638672,0.115234375,13.061523,22.094727,-1.8310547,0.0,0.0,0.0,15.281982,74.43237,10.003052
1769246396466,-0.9458008,0.05126953,0.25878906,3.112793,11.657715,5.6152344,0.0,0.0,0.0,15.281982,74.43237,10.003052
1769246396478,-0.9458008,0.05126953,0.25878906,3.112793,11.657715,5.6152344,0.0,0.0,0.0,18.572388,76.51428,11.975098
1769246396566,-0.9785156,0.016113281,0.1274414,1.4648438,12.023926,2.1972656,0.0,0.0,0.0,18.572388,76.51428,11.975098
1769246396577,-0.9785156,0.016113281,0.1274414,1.4648438,12.023926,2.1972656,0.0,0.0,0.0,21.670532,77.25037,15.24353
1769246396666,-0.9638672,0.0546875,0.107421875,2.8076172,-5.6152344,0.6713867,0.0,0.0,0.0,21.670532,77.25037,15.24353
1769246396677,-0.9638672,0.0546875,0.107421875,2.8076172,-5.6152344,0.6713867,0.0,0.0,0.0,22.241821,77.39319,15.430298
1769246396765,-0.99609375,0.046875,0.2626953,-8.7890625,-11.108398,4.8828125,0.0,0.0,0.0,22.241821,77.39319,15.430298
1769246396777,-0.99609375,0.046875,0.2626953,-8.7890625,-11.108398,4.8828125,0.0,0.0,0.0,22.582397,76.54724,15.298462
1769246396865,-1.0644531,0.09472656,0.123046875,-7.2631836,-14.831543,1.4038086,0.0,0.0,0.0,22.582397,76.54724,15.298462
1769246396877,-1.0644531,0.09472656,0.123046875,-7.2631836,-14.831543,1.4038086,0.0,0.0,0.0,21.472778,75.47058,14.710693
1769246396965,-0.9399414,0.11621094,0.32373047,7.6904297,-3.0517578,-10.498047,0.0,0.0,0.0,21.472778,75.47058,14.710693
1769246396977,-0.9399414,0.11621094,0.32373047,7.6904297,-3.0517578,-10.498047,0.0,0.0,0.0,18.165894,75.25635,10.964355
1769246397065,-0.8613281,0.14160156,0.3408203,4.211426,-7.080078,-5.493164,0.0,0.0,0.0,18.165894,75.25635,10.964355
1769246397076,-0.8613281,0.14160156,0.3408203,4.211426,-7.080078,-5.493164,0.0,0.0,0.0,15.8532715,74.67407,7.998047
1769246397164,-1.0258789,0.05810547,0.38330078,11.169434,-3.8452148,-11.474609,0.0,0.0,0.0,15.8532715,74.67407,7.998047
1769246397176,-1.0258789,0.05810547,0.38330078,11.169434,-3.8452148,-11.474609,0.0,0.0,0.0,13.782349,74.25659,5.72937
1769246397264,-0.87158203,0.09277344,0.23242188,2.8076172,-1.2817383,-2.319336,0.0,0.0,0.0,13.782349,74.25659,5.72937
1769246397276,-0.87158203,0.09277344,0.23242188,2.8076172,-1.2817383,-2.319336,0.0,0.0,0.0,12.134399,74.036865,2.7575684
1769246397364,-0.9482422,0.12597656,0.31591797,7.507324,-9.277344,0.12207031,0.0,0.0,0.0,12.134399,74.036865,2.7575684
1769246397375,-0.9482422,0.12597656,0.31591797,7.507324,-9.277344,0.12207031,0.0,0.0,0.0,12.557373,73.21289,3.482666
1769246397463,-1.0078125,0.021972656,0.21435547,4.5776367,-1.5258789,2.0141602,0.0,0.0,0.0,12.557373,73.21289,3.482666
1769246397475,-1.0078125,0.021972656,0.21435547,4.5776367,-1.5258789,2.0141602,0.0,0.0,0.0,13.035278,72.734985,3.048706
1769246397563,-1.0756836,0.06933594,0.12841797,-3.7841797,8.422852,0.61035156,0.0,0.0,0.0,13.035278,72.734985,3.048706
1769246397575,-1.0756836,0.06933594,0.12841797,-3.7841797,8.422852,0.61035156,0.0,0.0,0.0,13.238525,72.74048,3.4552002
1769246397663,-0.9873047,0.10205078,0.15722656,26.428223,23.742676,-20.629883,0.0,0.0,0.0,13.238525,72.74048,3.4552002
1769246397675,-0.9873047,0.10205078,0.15722656,26.428223,23.742676,-20.629883,0.0,0.0,0.0,13.013306,75.27832,1.373291
1769246397763,-0.86621094,0.03955078,0.2626953,-7.8125,-7.2631836,9.399414,0.0,0.0,0.0,13.013306,75.27832,1.373291
1769246397774,-0.86621094,0.03955078,0.2626953,-7.8125,-7.2631836,9.399414,0.0,0.0,0.0,13.996582,76.54724,1.807251
1769246397864,-1.0761719,-0.0048828125,0.10205078,13.366699,0.7324219,-4.0893555,0.0,0.0,0.0,13.996582,76.54724,1.807251
1769246397874,-1.0761719,-0.0048828125,0.10205078,13.366699,0.7324219,-4.0893555,0.0,0.0,0.0,16.237793,76.08032,3.4991455
1769246397963,-1.0556641,0.08300781,0.29638672,-10.314941,-12.145996,7.3242188,0.0,0.0,0.0,16.237793,76.08032,3.4991455
1769246397974,-1.0556641,0.08300781,0.29638672,-10.314941,-12.145996,7.3242188,0.0,0.0,0.0,16.605835,75.73425,3.2080078
1769246398062,-0.8696289,0.025390625,0.34423828,6.713867,-15.74707,-4.0893555,0.0,0.0,0.0,16.605835,75.73425,3.2080078
1769246398073,-0.8696289,0.025390625,0.34423828,6.713867,-15.74707,-4.0893555,0.0,0.0,0.0,14.787598,74.37744,1.9116211
1769246398162,-0.8803711,0.0546875,0.39453125,-27.160645,-21.30127,12.084961,0.0,0.0,0.0,14.787598,74.37744,1.9116211
1769246398173,-0.8803711,0.0546875,0.39453125,-27.160645,-21.30127,12.084961,0.0,0.0,0.0,13.52417,71.954956,2.2521973
1769246398261,-0.9892578,0.11621094,0.25195312,15.319824,3.112793,1.8920898,0.0,0.0,0.0,13.52417,71.954956,2.2521973
1769246398273,-0.9892578,0.11621094,0.25195312,15.319824,3.112793,1.8920898,0.0,0.0,0.0,14.013062,70.90027,4.3286133
1769246398361,-0.9199219,-0.08203125,0.43652344,4.638672,8.178711,-7.507324,0.0,0.0,0.0,14.013062,70.90027,4.3286133
1769246398372,-0.9199219,-0.08203125,0.43652344,4.638672,8.178711,-7.507324,0.0,0.0,0.0,13.535156,71.77368,2.5982666
1769246398461,-0.9296875,0.20996094,0.24267578,-1.0986328,-1.0986328,8.239746,0.0,0.0,0.0,13.535156,71.77368,2.5982666
1769246398472,-0.9296875,0.20996094,0.24267578,-1.0986328,-1.0986328,8.239746,0.0,0.0,0.0,11.854248,71.795654,2.0324707
1769246398560,-0.96728516,-0.0024414062,0.30273438,11.169434,7.751465,-8.666992,0.0,0.0,0.0,11.854248,71.795654,2.0324707
1769246398572,-0.96728516,-0.0024414062,0.30273438,11.169434,7.751465,-8.666992,0.0,0.0,0.0,15.518188,72.05383,6.4050293
1769246398660,-0.9433594,-0.16015625,0.38623047,-18.737793,-29.846191,6.164551,0.0,0.0,0.0,15.518188,72.05383,6.4050293
1769246398671,-0.9433594,-0.16015625,0.38623047,-18.737793,-29.846191,6.164551,0.0,0.0,0.0,16.792603,72.61963,7.1795654
1769246398760,-0.9477539,0.111328125,0.2709961,1.2817383,-6.164551,-7.019043,0.0,0.0,0.0,16.792603,72.61963,7.1795654
1769246398771,-0.9477539,0.111328125,0.2709961,1.2817383,-6.164551,-7.019043,0.0,0.0,0.0,12.661743,70.131226,5.8721924
1769246398859,-0.9008789,0.18310547,0.32177734,3.90625,-6.591797,10.803223,0.0,0.0,0.0,12.661743,70.131226,5.8721924
1769246398871,-0.9008789,0.18310547,0.32177734,3.90625,-6.591797,10.803223,0.0,0.0,0.0,13.057251,70.42236,4.284668
1769246398959,-0.9501953,0.057617188,0.2553711,6.8359375,-2.1362305,12.573242,0.0,0.0,0.0,13.057251,70.42236,4.284668
1769246398971,-0.9501953,0.057617188,0.2553711,6.8359375,-2.1362305,12.573242,0.0,0.0,0.0,16.589355,69.20288,8.283691
1769246399059,-1.019043,0.109375,0.31201172,17.150879,-2.5024414,8.7890625,0.0,0.0,0.0,16.589355,69.20288,8.283691
1769246399070,-1.019043,0.109375,0.31201172,17.150879,-2.5024414,8.7890625,0.0,0.0,0.0,20.560913,69.27429,10.447998
1769246399159,-0.94970703,0.091796875,0.34716797,7.8125,-3.2348633,10.314941,0.0,0.0,0.0,20.560913,69.27429,10.447998
1769246399170,-0.94970703,0.091796875,0.34716797,7.8125,-3.2348633,10.314941,0.0,0.0,0.0,23.615112,68.67554,12.634277
1769246399258,-1.0371094,0.123046875,0.26171875,-21.911621,-5.2490234,13.671875,0.0,0.0,0.0,23.615112,68.67554,12.634277
1769246399270,-1.0371094,0.123046875,0.26171875,-21.911621,-5.2490234,13.671875,0.0,0.0,0.0,25.323486,67.631836,15.551147
1769246399358,-0.9140625,0.0703125,0.39257812,-6.8969727,9.155273,-13.671875,0.0,0.0,0.0,25.323486,67.631836,15.551147
1769246399370,-0.9140625,0.0703125,0.39257812,-6.8969727,9.155273,-13.671875,0.0,0.0,0.0,25.037842,67.93396,15.847778
1769246399458,-0.8725586,0.15673828,0.42626953,2.8076172,19.958496,-21.118164,0.0,0.0,0.0,25.037842,67.93396,15.847778
1769246399469,-0.8725586,0.15673828,0.42626953,2.8076172,19.958496,-21.118164,0.0,0.0,0.0,22.093506,69.642334,12.277222
1769246399557,-0.9379883,0.18798828,0.47705078,10.314941,13.85498,-19.65332,0.0,0.0,0.0,22.093506,69.642334,12.277222
1769246399569,-0.9379883,0.18798828,0.47705078,10.314941,13.85498,-19.65332,0.0,0.0,0.0,19.06128,72.16919,8.574829
1769246399657,-0.9165039,0.13623047,0.2734375,-15.50293,-31.860352,9.82666,0.0,0.0,0.0,19.06128,72.16919,8.574829
1769246399669,-0.9165039,0.13623047,0.2734375,-15.50293,-31.860352,9.82666,0.0,0.0,0.0,17.177124,70.62012,7.0806885
1769246399757,-0.9770508,0.059570312,0.14453125,20.263672,26.611328,-17.700195,0.0,0.0,0.0,17.177124,70.62012,7.0806885
1769246399768,-0.9770508,0.059570312,0.14453125,20.263672,26.611328,-17.700195,0.0,0.0,0.0,17.462769,70.27954,8.22876
1769246399857,-0.91796875,0.1171875,0.2524414,-2.9296875,16.296387,-8.056641,0.0,0.0,0.0,17.462769,70.27954,8.22876
1769246399868,-0.91796875,0.1171875,0.2524414,-2.9296875,16.296387,-8.056641,0.0,0.0,0.0,16.721191,73.53699,5.6030273
1769246399956,-0.99316406,0.068359375,0.09277344,9.155273,34.362793,-13.122559,0.0,0.0,0.0,16.721191,73.53699,5.6030273
1769246399968,-0.99316406,0.068359375,0.09277344,9.155273,34.362793,-13.122559,0.0,0.0,0.0,16.166382,76.0199,4.7680664
1769246400056,-1.0727539,-0.023925781,0.16796875,4.3945312,28.015137,-22.460938,0.0,0.0,0.0,16.166382,76.0199,4.7680664
1769246400068,-1.0727539,-0.023925781,0.16796875,4.3945312,28.015137,-22.460938,0.0,0.0,0.0,12.859497,79.80469,0.03845215
1769246400156,-1.0703125,0.013671875,0.12402344,-12.451172,9.277344,-12.451172,0.0,0.0,0.0,12.859497,79.80469,0.03845215
1769246400167,-1.0703125,0.013671875,0.12402344,-12.451172,9.277344,-12.451172,0.0,0.0,0.0,3.5101318,81.848145,-8.7561035
1769246400256,-0.9194336,0.012207031,0.15917969,-22.705078,-3.3569336,-3.9672852,0.0,0.0,0.0,3.5101318,81.848145,-8.7561035
1769246400267,-0.9194336,0.012207031,0.15917969,-22.705078,-3.3569336,-3.9672852,0.0,0.0,0.0,-4.828491,82.177734,-16.446533
1769246400356,-0.93115234,0.03955078,0.24511719,-26.672363,-9.033203,1.8310547,0.0,0.0,0.0,-4.828491,82.177734,-16.446533
1769246400367,-0.93115234,0.03955078,0.24511719,-26.672363,-9.033203,1.8310547,0.0,0.0,0.0,-7.6849365,81.364746,-16.89148
1769246400455,-0.9379883,0.03173828,0.23046875,-38.085938,-24.902344,22.888184,0.0,0.0,0.0,-7.6849365,81.364746,-16.89148
1769246400467,-0.9379883,0.03173828,0.23046875,-38.085938,-24.902344,22.888184,0.0,0.0,0.0,0.95581055,79.25537,-4.312134
1769246400555,-0.9296875,0.040039062,0.26367188,-36.56006,-24.169922,30.212402,0.0,0.0,0.0,0.95581055,79.25537,-4.312134
1769246400567,-0.9296875,0.040039062,0.26367188,-36.56006,-24.169922,30.212402,0.0,0.0,0.0,9.349365,76.55823,7.5421143
1769246400660,-0.90527344,0.061035156,0.28710938,-15.136719,-22.949219,20.751953,0.0,0.0,0.0,9.349365,76.55823,7.5421143
1769246400666,-0.90527344,0.061035156,0.28710938,-15.136719,-22.949219,20.751953,0.0,0.0,0.0,14.611816,73.707275,15.578613
1769246400754,-0.9433594,-0.0014648438,0.41210938,-19.226074,-15.930176,16.052246,0.0,0.0,0.0,14.611816,73.707275,15.578613
1769246400765,-0.9433594,-0.0014648438,0.41210938,-19.226074,-15.930176,16.052246,0.0,0.0,0.0,16.12793,71.482544,18.748169
1769246400854,-1.0112305,0.12695312,0.3540039,-13.73291,-31.738281,17.39502,0.0,0.0,0.0,16.12793,71.482544,18.748169
1769246400865,-1.0112305,0.12695312,0.3540039,-13.73291,-31.738281,17.39502,0.0,0.0,0.0,16.018066,68.42285,20.516968
1769246400953,-0.9213867,0.088378906,0.3046875,12.817383,-2.5634766,0.061035156,0.0,0.0,0.0,16.018066,68.42285,20.516968
1769246400965,-0.9213867,0.088378906,0.3046875,12.817383,-2.5634766,0.061035156,0.0,0.0,0.0,16.68274,66.91223,20.994873
1769246401053,-0.9086914,0.115234375,0.34521484,13.61084,2.6855469,-0.36621094,0.0,0.0,0.0,16.68274,66.91223,20.994873
1769246401064,-0.9086914,0.115234375,0.34521484,13.61084,2.6855469,-0.36621094,0.0,0.0,0.0,17.63855,67.38464,19.863281
1769246401153,-1.0019531,0.1015625,0.30664062,15.075684,-0.79345703,0.0,0.0,0.0,0.0,17.63855,67.38464,19.863281
1769246401164,-1.0019531,0.1015625,0.30664062,15.075684,-0.79345703,0.0,0.0,0.0,0.0,19.324951,67.456055,20.385132
1769246401252,-0.94873047,0.1328125,0.28808594,33.26416,2.9296875,-12.023926,0.0,0.0,0.0,19.324951,67.456055,20.385132
1769246401264,-0.94873047,0.1328125,0.28808594,33.26416,2.9296875,-12.023926,0.0,0.0,0.0,20.159912,68.186646,17.786865
1769246401352,-0.9760742,0.11279297,0.24023438,17.8833,0.36621094,-4.699707,0.0,0.0,0.0,20.159912,68.186646,17.786865
1769246401364,-0.9760742,0.11279297,0.24023438,17.8833,0.36621094,-4.699707,0.0,0.0,0.0,21.225586,68.708496,16.02356
1769246401452,-1.0,0.07714844,0.19970703,9.521484,8.483887,-7.3242188,0.0,0.0,0.0,21.225586,68.708496,16.02356
1769246401463,-1.0,0.07714844,0.19970703,9.521484,8.483887,-7.3242188,0.0,0.0,0.0,21.63208,69.63684,14.436035
1769246401552,-1.0249023,0.09667969,0.3408203,-9.277344,6.8359375,-3.2348633,0.0,0.0,0.0,21.63208,69.63684,14.436035
1769246401563,-1.0249023,0.09667969,0.3408203,-9.277344,6.8359375,-3.2348633,0.0,0.0,0.0,20.928955,70.50476,13.502197
1769246401651,-0.8618164,0.17236328,0.26416016,14.831543,-12.939453,-7.3242188,0.0,0.0,0.0,20.928955,70.50476,13.502197
1769246401663,-0.8618164,0.17236328,0.26416016,14.831543,-12.939453,-7.3242188,0.0,0.0,0.0,19.945679,70.718994,12.348633
1769246401751,-0.8754883,0.05859375,0.32861328,20.263672,18.188477,-22.888184,0.0,0.0,0.0,19.945679,70.718994,12.348633
1769246401763,-0.8754883,0.05859375,0.32861328,20.263672,18.188477,-22.888184,0.0,0.0,0.0,18.352661,71.09802,8.673706
1769246401851,-0.93896484,0.07861328,0.47314453,9.643555,22.460938,-21.362305,0.0,0.0,0.0,18.352661,71.09802,8.673706
1769246401862,-0.93896484,0.07861328,0.47314453,9.643555,22.460938,-21.362305,0.0,0.0,0.0,13.83728,74.33899,3.35083
1769246401950,-0.81884766,0.13427734,0.36279297,22.338867,-24.963379,-7.5683594,0.0,0.0,0.0,13.83728,74.33899,3.35083
1769246401962,-0.81884766,0.13427734,0.36279297,22.338867,-24.963379,-7.5683594,0.0,0.0,0.0,11.200562,73.53699,-0.5767822
1769246402050,-0.92578125,0.09033203,0.29589844,7.751465,-18.981934,7.507324,0.0,0.0,0.0,11.200562,73.53699,-0.5767822
1769246402062,-0.92578125,0.09033203,0.29589844,7.751465,-18.981934,7.507324,0.0,0.0,0.0,12.782593,70.60913,0.07141113
1769246402150,-0.9614258,0.0014648438,0.31298828,5.6152344,-5.554199,2.9907227,0.0,0.0,0.0,12.782593,70.60913,0.07141113
1769246402161,-0.9614258,0.0014648438,0.31298828,5.6152344,-5.554199,2.9907227,0.0,0.0,0.0,14.139404,69.65881,0.9777832
1769246402250,-0.9770508,0.057128906,0.21826172,-9.277344,-4.760742,1.2817383,0.0,0.0,0.0,14.139404,69.65881,0.9777832
1769246402261,-0.9770508,0.057128906,0.21826172,-9.277344,-4.760742,1.2817383,0.0,0.0,0.0,13.364868,68.99963,1.0162354
1769246402349,-1.0161133,0.12597656,0.25195312,-0.4272461,7.019043,-5.3100586,0.0,0.0,0.0,13.364868,68.99963,1.0162354
1769246402361,-1.0161133,0.12597656,0.25195312,-0.4272461,7.019043,-5.3100586,0.0,0.0,0.0,12.837524,69.90051,0.57128906
1769246402449,-1.0654297,0.060058594,0.41992188,-21.972656,12.756348,8.972168,0.0,0.0,0.0,12.837524,69.90051,0.57128906
1769246402461,-1.0654297,0.060058594,0.41992188,-21.972656,12.756348,8.972168,0.0,0.0,0.0,12.914429,71.31775,1.2963867
1769246402549,-0.83935547,0.09375,0.2705078,2.380371,-4.9438477,-2.0141602,0.0,0.0,0.0,12.914429,71.31775,1.2963867
1769246402561,-0.83935547,0.09375,0.2705078,2.380371,-4.9438477,-2.0141602,0.0,0.0,0.0,13.0407715,71.136475,2.5982666
1769246402648,-0.9873047,0.05517578,0.29541016,-4.8828125,2.8686523,-2.6855469,0.0,0.0,0.0,13.0407715,71.136475,2.5982666
1769246402660,-0.9873047,0.05517578,0.29541016,-4.8828125,2.8686523,-2.6855469,0.0,0.0,0.0,11.942139,70.878296,2.0599365
1769246402748,-0.88916016,0.075683594,0.3671875,2.6245117,10.986328,-3.112793,0.0,0.0,0.0,11.942139,70.878296,2.0599365
1769246402760,-0.88916016,0.075683594,0.3671875,2.6245117,10.986328,-3.112793,0.0,0.0,0.0,11.986084,72.04285,1.5216064
1769246402848,-0.8671875,0.0034179688,0.36669922,-8.239746,1.6479492,1.5258789,0.0,0.0,0.0,11.986084,72.04285,1.5216064
1769246402860,-0.8671875,0.0034179688,0.36669922,-8.239746,1.6479492,1.5258789,0.0,0.0,0.0,12.079468,72.26257,2.4060059
1769246402948,-1.0019531,0.06933594,0.38623047,7.6904297,0.18310547,6.652832,0.0,0.0,0.0,12.079468,72.26257,2.4060059
1769246402959,-1.0019531,0.06933594,0.38623047,7.6904297,0.18310547,6.652832,0.0,0.0,0.0,12.573853,72.454834,3.9221191
1769246403047,-0.9892578,-0.025878906,0.2006836,-2.8686523,-4.9438477,2.319336,0.0,0.0,0.0,12.573853,72.454834,3.9221191
1769246403059,-0.9892578,-0.025878906,0.2006836,-2.8686523,-4.9438477,2.319336,0.0,0.0,0.0,14.28772,71.3562,5.72937
1769246403147,-0.9160156,0.061035156,0.34033203,-3.540039,7.2021484,0.061035156,0.0,0.0,0.0,14.28772,71.3562,5.72937
1769246403158,-0.9160156,0.061035156,0.34033203,-3.540039,7.2021484,0.061035156,0.0,0.0,0.0,13.353882,72.46033,4.356079
1769246403247,-0.9350586,0.08935547,0.20361328,-5.6762695,-0.9765625,7.3242188,0.0,0.0,0.0,13.353882,72.46033,4.356079
1769246403258,-0.9350586,0.08935547,0.20361328,-5.6762695,-0.9765625,7.3242188,0.0,0.0,0.0,13.754883,71.99341,5.723877
1769246403346,-0.99609375,0.012207031,0.24511719,0.5493164,12.390137,0.36621094,0.0,0.0,0.0,13.754883,71.99341,5.723877
1769246403358,-0.99609375,0.012207031,0.24511719,0.5493164,12.390137,0.36621094,0.0,0.0,0.0,15.518188,72.86682,7.2180176
1769246403446,-0.98828125,0.059570312,0.23535156,-9.887695,1.5869141,5.859375,0.0,0.0,0.0,15.518188,72.86682,7.2180176
1769246403458,-0.98828125,0.059570312,0.23535156,-9.887695,1.5869141,5.859375,0.0,0.0,0.0,15.891724,73.4491,7.734375
1769246403546,-1.0004883,0.08544922,0.2109375,-6.8969727,12.756348,1.2817383,0.0,0.0,0.0,15.891724,73.4491,7.734375
1769246403558,-1.0004883,0.08544922,0.2109375,-6.8969727,12.756348,1.2817383,0.0,0.0,0.0,17.050781,74.07532,9.695435
1769246403646,-1.0078125,0.119628906,0.29833984,-5.3100586,2.9296875,3.2348633,0.0,0.0,0.0,17.050781,74.07532,9.695435
1769246403658,-1.0078125,0.119628906,0.29833984,-5.3100586,2.9296875,3.2348633,0.0,0.0,0.0,18.896484,75.08606,11.78833
1769246403745,-0.9140625,0.072265625,0.22509766,-13.061523,-10.986328,10.681152,0.0,0.0,0.0,18.896484,75.08606,11.78833
1769246403757,-0.9140625,0.072265625,0.22509766,-13.061523,-10.986328,10.681152,0.0,0.0,0.0,20.478516,74.86084,14.661255
1769246403845,-0.94628906,0.1303711,0.27197266,7.8125,-2.6245117,-1.0986328,0.0,0.0,0.0,20.478516,74.86084,14.661255
1769246403857,-0.94628906,0.1303711,0.27197266,7.8125,-2.6245117,-1.0986328,0.0,0.0,0.0,21.209106,74.0094,15.957642
1769246403945,-0.89941406,0.091308594,0.3359375,13.122559,-2.8686523,-2.8076172,0.0,0.0,0.0,21.209106,74.0094,15.957642
1769246403956,-0.89941406,0.091308594,0.3359375,13.122559,-2.8686523,-2.8076172,0.0,0.0,0.0,21.18164,73.80615,14.732666
1769246404044,-0.94091797,0.099121094,0.3515625,10.009766,2.8686523,-10.498047,0.0,0.0,0.0,21.18164,73.80615,14.732666
1769246404056,-0.94091797,0.099121094,0.3515625,10.009766,2.8686523,-10.498047,0.0,0.0,0.0,20.544434,73.56995,13.156128
1769246404144,-0.9555664,0.033203125,0.3852539,23.55957,0.061035156,-16.296387,0.0,0.0,0.0,20.544434,73.56995,13.156128
1769246404156,-0.9555664,0.033203125,0.3852539,23.55957,0.061035156,-16.296387,0.0,0.0,0.0,17.72644,74.245605,8.970337
1769246404244,-0.9433594,0.11035156,0.16113281,10.7421875,-13.061523,-5.2490234,0.0,0.0,0.0,17.72644,74.245605,8.970337
1769246404255,-0.9433594,0.11035156,0.16113281,10.7421875,-13.061523,-5.2490234,0.0,0.0,0.0,14.7052,73.31726,4.213257
1769246404344,-0.9423828,0.080078125,0.31640625,28.564453,0.6713867,-15.258789,0.0,0.0,0.0,14.7052,73.31726,4.213257
1769246404355,-0.9423828,0.080078125,0.31640625,28.564453,0.6713867,-15.258789,0.0,0.0,0.0,13.046265,72.614136,0.24719238
1769246404443,-0.98583984,-0.014160156,0.20410156,9.765625,-3.6010742,-8.544922,0.0,0.0,0.0,13.046265,72.614136,0.24719238
1769246404455,-0.98583984,-0.014160156,0.20410156,9.765625,-3.6010742,-8.544922,0.0,0.0,0.0,11.304932,72.92175,-3.284912
1769246404543,-1.0039062,0.045410156,0.19921875,5.493164,6.286621,-10.009766,0.0,0.0,0.0,11.304932,72.92175,-3.284912
1769246404555,-1.0039062,0.045410156,0.19921875,5.493164,6.286621,-10.009766,0.0,0.0,0.0,9.085693,73.43811,-6.3446045
1769246404643,-0.98046875,0.07324219,0.2265625,7.2021484,4.8217773,-7.6293945,0.0,0.0,0.0,9.085693,73.43811,-6.3446045
1769246404654,-0.98046875,0.07324219,0.2265625,7.2021484,4.8217773,-7.6293945,0.0,0.0,0.0,7.025757,74.349976,-9.332886
1769246404742,-0.89941406,0.05029297,0.25585938,-3.112793,-8.117676,5.7373047,0.0,0.0,0.0,7.025757,74.349976,-9.332886
1769246404754,-0.89941406,0.05029297,0.25585938,-3.112793,-8.117676,5.7373047,0.0,0.0,0.0,7.2235107,74.558716,-9.695435
1769246404842,-0.9760742,0.030273438,0.23291016,-4.5166016,-0.30517578,2.319336,0.0,0.0,0.0,7.2235107,74.558716,-9.695435
1769246404854,-0.9760742,0.030273438,0.23291016,-4.5166016,-0.30517578,2.319336,0.0,0.0,0.0,9.678955,73.394165,-6.992798
1769246404942,-1.0180664,0.052246094,0.20947266,-19.16504,-0.5493164,14.465332,0.0,0.0,0.0,9.678955,73.394165,-6.992798
1769246404954,-1.0180664,0.052246094,0.20947266,-19.16504,-0.5493164,14.465332,0.0,0.0,0.0,12.145386,73.67432,-4.0704346
1769246405042,-0.9765625,0.068359375,0.296875,8.422852,13.671875,-4.4555664,0.0,0.0,0.0,12.145386,73.67432,-4.0704346
1769246405054,-0.9765625,0.068359375,0.296875,8.422852,13.671875,-4.4555664,0.0,0.0,0.0,13.018799,74.4104,-3.1530762
1769246405141,-0.9301758,0.044921875,0.3100586,-8.361816,-3.6621094,4.8217773,0.0,0.0,0.0,13.018799,74.4104,-3.1530762
1769246405154,-0.9301758,0.044921875,0.3100586,-8.361816,-3.6621094,4.8217773,0.0,0.0,0.0,13.425293,74.37195,-2.1148682
1769246405241,-0.83154297,0.032226562,0.37109375,-3.4179688,1.159668,-0.12207031,0.0,0.0,0.0,13.425293,74.37195,-2.1148682
1769246405253,-0.83154297,0.032226562,0.37109375,-3.4179688,1.159668,-0.12207031,0.0,0.0,0.0,13.079224,74.229126,-1.9061279
1769246405341,-0.9868164,0.10986328,0.3173828,2.0751953,-17.944336,10.681152,0.0,0.0,0.0,13.079224,74.229126,-1.9061279
1769246405352,-0.9868164,0.10986328,0.3173828,2.0751953,-17.944336,10.681152,0.0,0.0,0.0,14.501953,73.02063,0.99975586
1769246405440,-0.95410156,-9.765625E-4,0.21386719,16.784668,2.319336,-6.4697266,0.0,0.0,0.0,14.501953,73.02063,0.99975586
1769246405452,-0.95410156,-9.765625E-4,0.21386719,16.784668,2.319336,-6.4697266,0.0,0.0,0.0,15.408325,72.20764,1.170044
1769246405540,-0.92333984,0.087402344,0.3701172,-6.0424805,-7.019043,6.4086914,0.0,0.0,0.0,15.408325,72.20764,1.170044
1769246405552,-0.92333984,0.087402344,0.3701172,-6.0424805,-7.019043,6.4086914,0.0,0.0,0.0,16.517944,72.52075,2.1643066
1769246405640,-0.9267578,0.027832031,0.08300781,17.76123,27.160645,-6.4086914,0.0,0.0,0.0,16.517944,72.52075,2.1643066
1769246405651,-0.9267578,0.027832031,0.08300781,17.76123,27.160645,-6.4086914,0.0,0.0,0.0,17.259521,73.15796,3.1915283
1769246405740,-0.9433594,0.07910156,0.28076172,-8.666992,-1.0375977,16.174316,0.0,0.0,0.0,17.259521,73.15796,3.1915283
1769246405751,-0.9433594,0.07910156,0.28076172,-8.666992,-1.0375977,16.174316,0.0,0.0,0.0,20.85205,74.871826,5.0646973
1769246405839,-1.0073242,0.032714844,0.17675781,-11.71875,6.164551,15.808105,0.0,0.0,0.0,20.85205,74.871826,5.0646973
1769246405851,-1.0073242,0.032714844,0.17675781,-11.71875,6.164551,15.808105,0.0,0.0,0.0,25.246582,73.89404,11.359863
1769246405939,-1.0576172,0.15429688,0.26660156,-22.705078,-22.583008,25.512695,0.0,0.0,0.0,25.246582,73.89404,11.359863
1769246405951,-1.0576172,0.15429688,0.26660156,-22.705078,-22.583008,25.512695,0.0,0.0,0.0,27.77893,73.00964,15.111694
1769246406039,-0.9589844,0.16845703,0.31933594,-25.939941,-11.108398,22.094727,0.0,0.0,0.0,27.77893,73.00964,15.111694
1769246406050,-0.9589844,0.16845703,0.31933594,-25.939941,-11.108398,22.094727,0.0,0.0,0.0,28.273315,69.92798,17.660522
1769246406139,-0.9838867,0.1640625,0.19042969,-30.273438,-9.460449,21.850586,0.0,0.0,0.0,28.273315,69.92798,17.660522
1769246406150,-0.9838867,0.1640625,0.19042969,-30.273438,-9.460449,21.850586,0.0,0.0,0.0,30.020142,68.38989,22.631836
1769246406238,-0.89208984,0.15820312,0.39892578,-1.3427734,11.71875,-4.1503906,0.0,0.0,0.0,30.020142,68.38989,22.631836
1769246406250,-0.89208984,0.15820312,0.39892578,-1.3427734,11.71875,-4.1503906,0.0,0.0,0.0,30.750732,68.28003,24.35669
1769246406338,-0.88183594,0.26220703,0.43359375,11.59668,-2.4414062,-8.056641,0.0,0.0,0.0,30.750732,68.28003,24.35669
1769246406349,-0.88183594,0.26220703,0.43359375,11.59668,-2.4414062,-8.056641,0.0,0.0,0.0,30.223389,69.312744,22.780151
1769246406438,-0.9199219,0.1459961,0.4375,14.831543,-1.2207031,-21.240234,0.0,0.0,0.0,30.223389,69.312744,22.780151
1769246406449,-0.9199219,0.1459961,0.4375,14.831543,-1.2207031,-21.240234,0.0,0.0,0.0,27.734985,69.23035,19.577637
1769246406537,-0.92089844,0.17285156,0.23144531,11.474609,-13.000488,-9.643555,0.0,0.0,0.0,27.734985,69.23035,19.577637
1769246406549,-0.92089844,0.17285156,0.23144531,11.474609,-13.000488,-9.643555,0.0,0.0,0.0,24.916992,68.83484,14.990845
1769246406637,-0.9199219,0.16064453,0.3232422,29.296875,-0.24414062,-21.606445,0.0,0.0,0.0,24.916992,68.83484,14.990845
1769246406649,-0.9199219,0.16064453,0.3232422,29.296875,-0.24414062,-21.606445,0.0,0.0,0.0,23.016357,68.703,10.942383
1769246406737,-0.9379883,0.13427734,0.29882812,11.71875,-2.1972656,-10.620117,0.0,0.0,0.0,23.016357,68.703,10.942383
1769246406748,-0.9379883,0.13427734,0.29882812,11.71875,-2.1972656,-10.620117,0.0,0.0,0.0,21.6156,69.76868,7.3883057
1769246406836,-0.95947266,0.118652344,0.18798828,26.062012,8.7890625,-16.967773,0.0,0.0,0.0,21.6156,69.76868,7.3883057
1769246406848,-0.95947266,0.118652344,0.18798828,26.062012,8.7890625,-16.967773,0.0,0.0,0.0,20.46753,70.339966,4.7460938
1769246406936,-1.0043945,0.11230469,0.2734375,6.5307617,12.573242,-12.512207,0.0,0.0,0.0,20.46753,70.339966,4.7460938
1769246406948,-1.0043945,0.11230469,0.2734375,6.5307617,12.573242,-12.512207,0.0,0.0,0.0,20.407104,72.04834,2.345581
1769246407036,-1.0288086,0.15722656,0.28955078,28.259277,2.2583008,-8.239746,0.0,0.0,0.0,20.407104,72.04834,2.345581
1769246407047,-1.0288086,0.15722656,0.28955078,28.259277,2.2583008,-8.239746,0.0,0.0,0.0,18.814087,73.152466,-0.26916504
1769246407136,-0.9785156,0.051757812,0.25195312,16.540527,4.5776367,-6.3476562,0.0,0.0,0.0,18.814087,73.152466,-0.26916504
1769246407147,-0.9785156,0.051757812,0.25195312,16.540527,4.5776367,-6.3476562,0.0,0.0,0.0,17.671509,74.07532,-2.6641846
1769246407235,-0.9902344,0.083984375,0.29833984,-6.1035156,-10.681152,-0.48828125,0.0,0.0,0.0,17.671509,74.07532,-2.6641846
1769246407247,-0.9902344,0.083984375,0.29833984,-6.1035156,-10.681152,-0.48828125,0.0,0.0,0.0,16.836548,73.465576,-3.3288574
1769246407335,-0.9399414,0.03857422,0.36523438,-4.5776367,-7.9345703,-7.9345703,0.0,0.0,0.0,16.836548,73.465576,-3.3288574
1769246407347,-0.9399414,0.03857422,0.36523438,-4.5776367,-7.9345703,-7.9345703,0.0,0.0,0.0,14.024048,73.00415,-5.7128906
1769246407435,-0.81591797,0.04296875,0.33789062,-16.296387,-5.2490234,4.9438477,0.0,0.0,0.0,14.024048,73.00415,-5.7128906
1769246407446,-0.81591797,0.04296875,0.33789062,-16.296387,-5.2490234,4.9438477,0.0,0.0,0.0,11.914673,71.72424,-6.031494
1769246407534,-0.97509766,0.061523438,0.3408203,-7.2021484,-1.7700195,4.3945312,0.0,0.0,0.0,11.914673,71.72424,-6.031494
1769246407546,-0.97509766,0.061523438,0.3408203,-7.2021484,-1.7700195,4.3945312,0.0,0.0,0.0,11.848755,71.433105,-4.553833
1769246407634,-0.93603516,-0.00390625,0.28515625,2.8686523,7.507324,-5.6152344,0.0,0.0,0.0,11.848755,71.433105,-4.553833
1769246407646,-0.93603516,-0.00390625,0.28515625,2.8686523,7.507324,-5.6152344,0.0,0.0,0.0,11.694946,71.5155,-4.0264893
1769246407734,-0.9213867,0.08642578,0.34716797,-9.765625,-0.79345703,1.7089844,0.0,0.0,0.0,11.694946,71.5155,-4.0264893
1769246407745,-0.9213867,0.08642578,0.34716797,-9.765625,-0.79345703,1.7089844,0.0,0.0,0.0,10.431519,72.19116,-5.1361084
1769246407834,-0.95410156,0.08105469,0.21142578,-10.437012,15.563965,8.544922,0.0,0.0,0.0,10.431519,72.19116,-5.1361084
1769246407845,-0.95410156,0.08105469,0.21142578,-10.437012,15.563965,8.544922,0.0,0.0,0.0,11.590576,72.27356,-2.4719238
1769246407933,-1.0112305,0.03515625,0.23779297,2.5024414,20.874023,4.8828125,0.0,0.0,0.0,11.590576,72.27356,-2.4719238
1769246407945,-1.0112305,0.03515625,0.23779297,2.5024414,20.874023,4.8828125,0.0,0.0,0.0,15.238037,74.24011,1.5270996
1769246408033,-0.98583984,0.020996094,0.21923828,-2.746582,4.699707,5.859375,0.0,0.0,0.0,15.238037,74.24011,1.5270996
1769246408045,-0.98583984,0.020996094,0.21923828,-2.746582,4.699707,5.859375,0.0,0.0,0.0,18.231812,75.36072,4.460449
1769246408133,-0.9863281,0.032714844,0.18701172,-3.3569336,1.6479492,0.24414062,0.0,0.0,0.0,18.231812,75.36072,4.460449
1769246408145,-0.9863281,0.032714844,0.18701172,-3.3569336,1.6479492,0.24414062,0.0,0.0,0.0,18.770142,75.651855,5.251465
1769246408233,-0.85009766,0.064941406,0.28222656,-8.911133,-4.9438477,3.2348633,0.0,0.0,0.0,18.770142,75.651855,5.251465
1769246408244,-0.85009766,0.064941406,0.28222656,-8.911133,-4.9438477,3.2348633,0.0,0.0,0.0,18.47351,75.701294,5.08667
1769246408332,-0.95410156,0.061035156,0.13623047,-33.691406,-7.9956055,20.812988,0.0,0.0,0.0,18.47351,75.701294,5.08667
1769246408344,-0.95410156,0.061035156,0.13623047,-33.691406,-7.9956055,20.812988,0.0,0.0,0.0,19.868774,74.4928,9.162598
1769246408432,-0.9975586,0.125,0.3227539,-39.42871,10.620117,23.376465,0.0,0.0,0.0,19.868774,74.4928,9.162598
1769246408444,-0.9975586,0.125,0.3227539,-39.42871,10.620117,23.376465,0.0,0.0,0.0,24.082031,74.069824,16.331177
1769246408532,-0.93066406,0.13134766,0.2685547,-18.188477,-9.765625,12.878418,0.0,0.0,0.0,24.082031,74.069824,16.331177
1769246408543,-0.93066406,0.13134766,0.2685547,-18.188477,-9.765625,12.878418,0.0,0.0,0.0,26.878052,72.98218,22.703247
1769246408631,-0.89697266,0.16992188,0.32958984,7.507324,-4.9438477,-6.4086914,0.0,0.0,0.0,26.878052,72.98218,22.703247
1769246408643,-0.89697266,0.16992188,0.32958984,7.507324,-4.9438477,-6.4086914,0.0,0.0,0.0,26.455078,72.27356,22.208862
1769246408731,-0.9892578,0.13378906,0.3881836,5.126953,2.6245117,-18.615723,0.0,0.0,0.0,26.455078,72.27356,22.208862
1769246408743,-0.9892578,0.13378906,0.3881836,5.126953,2.6245117,-18.615723,0.0,0.0,0.0,23.115234,72.46033,18.660278
1769246408831,-0.9194336,0.114746094,0.20458984,31.921387,-11.535645,-22.399902,0.0,0.0,0.0,23.115234,72.46033,18.660278
1769246408842,-0.9194336,0.114746094,0.20458984,31.921387,-11.535645,-22.399902,0.0,0.0,0.0,18.29773,72.41638,11.277466
1769246408931,-0.921875,0.13378906,0.23535156,22.033691,-6.164551,-14.282227,0.0,0.0,0.0,18.29773,72.41638,11.277466
1769246408942,-0.921875,0.13378906,0.23535156,22.033691,-6.164551,-14.282227,0.0,0.0,0.0,15.891724,72.14172,5.652466
1769246409030,-0.9248047,0.06542969,0.33154297,27.160645,-1.7700195,-16.296387,0.0,0.0,0.0,15.891724,72.14172,5.652466
1769246409042,-0.9248047,0.06542969,0.33154297,27.160645,-1.7700195,-16.296387,0.0,0.0,0.0,14.458008,72.75696,1.5710449
1769246409130,-1.0244141,-0.04345703,0.11425781,10.7421875,5.6152344,-18.188477,0.0,0.0,0.0,14.458008,72.75696,1.5710449
1769246409142,-1.0244141,-0.04345703,0.11425781,10.7421875,5.6152344,-18.188477,0.0,0.0,0.0,11.277466,73.07556,-3.713379
1769246409230,-0.96484375,0.10986328,0.26953125,-0.61035156,0.30517578,-10.986328,0.0,0.0,0.0,11.277466,73.07556,-3.713379
1769246409241,-0.96484375,0.10986328,0.26953125,-0.61035156,0.30517578,-10.986328,0.0,0.0,0.0,6.59729,74.11926,-9.464722
1769246409329,-1.1054688,0.060058594,0.30566406,-11.352539,-2.319336,1.4648438,0.0,0.0,0.0,6.59729,74.11926,-9.464722
1769246409341,-1.1054688,0.060058594,0.30566406,-11.352539,-2.319336,1.4648438,0.0,0.0,0.0,5.196533,74.01489,-10.728149
1769246409429,-0.98291016,0.03173828,0.3046875,-1.2817383,-14.282227,-2.9296875,0.0,0.0,0.0,5.196533,74.01489,-10.728149
1769246409441,-0.98291016,0.03173828,0.3046875,-1.2817383,-14.282227,-2.9296875,0.0,0.0,0.0,5.262451,72.66907,-11.304932
1769246409529,-0.94189453,-0.0234375,0.22998047,-7.9345703,2.0141602,0.7324219,0.0,0.0,0.0,5.262451,72.66907,-11.304932
1769246409540,-0.94189453,-0.0234375,0.22998047,-7.9345703,2.0141602,0.7324219,0.0,0.0,0.0,3.6035156,72.213135,-12.788086
1769246409629,-0.99658203,0.020996094,0.19189453,32.65381,3.2958984,-8.728027,0.0,0.0,0.0,3.6035156,72.213135,-12.788086
1769246409640,-0.99658203,0.020996094,0.19189453,32.65381,3.2958984,-8.728027,0.0,0.0,0.0,4.8779297,72.27356,-13.3758545
1769246409728,-0.96533203,4.8828125E-4,0.39746094,20.812988,26.794434,-13.793945,0.0,0.0,0.0,4.8779297,72.27356,-13.3758545
1769246409740,-0.96533203,4.8828125E-4,0.39746094,20.812988,26.794434,-13.793945,0.0,0.0,0.0,4.993286,74.558716,-17.578125
1769246409828,-0.8823242,0.038085938,0.38378906,13.85498,-4.638672,-1.953125,0.0,0.0,0.0,4.993286,74.558716,-17.578125
1769246409839,-0.8823242,0.038085938,0.38378906,13.85498,-4.638672,-1.953125,0.0,0.0,0.0,4.987793,75.42114,-19.23706
1769246409928,-0.953125,0.09667969,0.3491211,17.76123,-15.136719,3.540039,0.0,0.0,0.0,4.987793,75.42114,-19.23706
1769246409939,-0.953125,0.09667969,0.3491211,17.76123,-15.136719,3.540039,0.0,0.0,0.0,6.531372,74.31702,-16.622314
1769246410027,-0.9321289,-0.076171875,0.09472656,-25.20752,-16.113281,10.375977,0.0,0.0,0.0,6.531372,74.31702,-16.622314
1769246410039,-0.9321289,-0.076171875,0.09472656,-25.20752,-16.113281,10.375977,0.0,0.0,0.0,9.299927,71.94397,-13.09021
1769246410128,-0.9609375,0.051757812,0.4008789,-27.70996,-3.9672852,-1.7089844,0.0,0.0,0.0,9.299927,71.94397,-13.09021
1769246410139,-0.9609375,0.051757812,0.4008789,-27.70996,-3.9672852,-1.7089844,0.0,0.0,0.0,5.828247,71.328735,-16.292725
1769246410227,-0.8647461,0.022460938,0.3173828,1.8920898,-35.40039,16.906738,0.0,0.0,0.0,5.828247,71.328735,-16.292725
1769246410238,-0.8647461,0.022460938,0.3173828,1.8920898,-35.40039,16.906738,0.0,0.0,0.0,9.84375,68.549194,-10.129395
1769246410327,-1.0053711,0.0,0.32226562,37.53662,21.30127,-2.9907227,0.0,0.0,0.0,9.84375,68.549194,-10.129395
1769246410338,-1.0053711,0.0,0.32226562,37.53662,21.30127,-2.9907227,0.0,0.0,0.0,11.843262,69.11499,-9.733887
1769246410426,-1.0087891,-0.027832031,0.34570312,-3.9672852,-6.4697266,8.850098,0.0,0.0,0.0,11.843262,69.11499,-9.733887
1769246410438,-1.0087891,-0.027832031,0.34570312,-3.9672852,-6.4697266,8.850098,0.0,0.0,0.0,13.996582,69.68628,-8.75061
1769246410526,-1.0151367,0.052734375,0.3232422,3.540039,4.5776367,-2.9296875,0.0,0.0,0.0,13.996582,69.68628,-8.75061
1769246410538,-1.0151367,0.052734375,0.3232422,3.540039,4.5776367,-2.9296875,0.0,0.0,0.0,13.540649,69.713745,-9.244995
1769246410626,-0.9394531,0.055664062,0.328125,-6.5307617,-2.1972656,-2.2583008,0.0,0.0,0.0,13.540649,69.713745,-9.244995
1769246410637,-0.9394531,0.055664062,0.328125,-6.5307617,-2.1972656,-2.2583008,0.0,0.0,0.0,11.876221,69.97742,-10.761108
1769246410725,-0.92089844,0.023925781,0.36767578,-23.254395,-2.9296875,2.9907227,0.0,0.0,0.0,11.876221,69.97742,-10.761108
1769246410737,-0.92089844,0.023925781,0.36767578,-23.254395,-2.9296875,2.9907227,0.0,0.0,0.0,10.39856,69.62036,-10.585327
1769246410825,-0.92285156,0.12158203,0.33496094,-2.2583008,-13.977051,2.2583008,0.0,0.0,0.0,10.39856,69.62036,-10.585327
1769246410837,-0.92285156,0.12158203,0.33496094,-2.2583008,-13.977051,2.2583008,0.0,0.0,0.0,9.541626,68.40088,-10.673218
1769246410925,-0.90722656,0.052734375,0.32763672,-5.1879883,18.249512,-4.1503906,0.0,0.0,0.0,9.541626,68.40088,-10.673218
1769246410936,-0.90722656,0.052734375,0.32763672,-5.1879883,18.249512,-4.1503906,0.0,0.0,0.0,9.442749,68.604126,-9.871216
1769246411025,-0.8510742,0.03125,0.39501953,0.061035156,23.55957,-10.681152,0.0,0.0,0.0,9.442749,68.604126,-9.871216
1769246411036,-0.8510742,0.03125,0.39501953,0.061035156,23.55957,-10.681152,0.0,0.0,0.0,8.283691,71.240845,-10.491943
1769246411124,-0.93359375,0.10546875,0.44335938,-1.4038086,15.014648,-8.850098,0.0,0.0,0.0,8.283691,71.240845,-10.491943
1769246411136,-0.93359375,0.10546875,0.44335938,-1.4038086,15.014648,-8.850098,0.0,0.0,0.0,6.1413574,72.8064,-11.738892
1769246411224,-0.9160156,0.03857422,0.4453125,15.625,-10.314941,-7.873535,0.0,0.0,0.0,6.1413574,72.8064,-11.738892
1769246411236,-0.9160156,0.03857422,0.4453125,15.625,-10.314941,-7.873535,0.0,0.0,0.0,4.1363525,72.87781,-14.188843
1769246411324,-0.95458984,0.029296875,0.25976562,-15.686035,-47.302246,13.977051,0.0,0.0,0.0,4.1363525,72.87781,-14.188843
1769246411335,-0.95458984,0.029296875,0.25976562,-15.686035,-47.302246,13.977051,0.0,0.0,0.0,5.3338623,69.11499,-11.975098
1769246411423,-0.9609375,-0.01953125,0.2475586,31.738281,6.164551,-19.89746,0.0,0.0,0.0,5.3338623,69.11499,-11.975098
1769246411435,-0.9609375,-0.01953125,0.2475586,31.738281,6.164551,-19.89746,0.0,0.0,0.0,5.4492188,67.648315,-11.661987
1769246411523,-0.93847656,-0.0063476562,0.42089844,4.5166016,4.272461,-8.239746,0.0,0.0,0.0,5.4492188,67.648315,-11.661987
1769246411535,-0.93847656,-0.0063476562,0.42089844,4.5166016,4.272461,-8.239746,0.0,0.0,0.0,2.9608154,69.537964,-16.704712
1769246411623,-0.95654297,9.765625E-4,0.27978516,-11.108398,-13.427734,0.48828125,0.0,0.0,0.0,2.9608154,69.537964,-16.704712
1769246411634,-0.95654297,9.765625E-4,0.27978516,-11.108398,-13.427734,0.48828125,0.0,0.0,0.0,1.807251,68.52173,-17.177124
1769246411723,-0.9609375,0.018554688,0.31347656,-3.112793,1.953125,-2.1362305,0.0,0.0,0.0,1.807251,68.52173,-17.177124
1769246411734,-0.9609375,0.018554688,0.31347656,-3.112793,1.953125,-2.1362305,0.0,0.0,0.0,0.81848145,68.3844,-18.023071
1769246411822,-0.93896484,-0.0029296875,0.36083984,-16.540527,-9.033203,11.291504,0.0,0.0,0.0,0.81848145,68.3844,-18.023071
1769246411834,-0.93896484,-0.0029296875,0.36083984,-16.540527,-9.033203,11.291504,0.0,0.0,0.0,1.774292,68.428345,-15.919189
1769246411922,-0.9199219,0.08251953,0.3857422,-8.850098,8.728027,6.3476562,0.0,0.0,0.0,1.774292,68.428345,-15.919189
1769246411934,-0.9199219,0.08251953,0.3857422,-8.850098,8.728027,6.3476562,0.0,0.0,0.0,3.1860352,67.91199,-14.990845
1769246412022,-0.9477539,0.040039062,0.3720703,-23.132324,-12.451172,28.686523,0.0,0.0,0.0,3.1860352,67.91199,-14.990845
1769246412033,-0.9477539,0.040039062,0.3720703,-23.132324,-12.451172,28.686523,0.0,0.0,0.0,6.668701,67.5,-9.277954
1769246412122,-0.99316406,0.001953125,0.29492188,20.202637,28.686523,-10.192871,0.0,0.0,0.0,6.668701,67.5,-9.277954
1769246412133,-0.99316406,0.001953125,0.29492188,20.202637,28.686523,-10.192871,0.0,0.0,0.0,8.684692,67.81311,-6.558838
1769246412221,-0.8964844,0.033691406,0.4091797,-10.620117,8.972168,6.286621,0.0,0.0,0.0,8.684692,67.81311,-6.558838
1769246412233,-0.8964844,0.033691406,0.4091797,-10.620117,8.972168,6.286621,0.0,0.0,0.0,9.036255,70.076294,-7.8497314
1769246412321,-0.86279297,0.03125,0.4140625,9.216309,11.901855,-4.4555664,0.0,0.0,0.0,9.036255,70.076294,-7.8497314
1769246412333,-0.86279297,0.03125,0.4140625,9.216309,11.901855,-4.4555664,0.0,0.0,0.0,9.09668,70.878296,-6.7181396
1769246412421,-0.92529297,0.095703125,0.44677734,6.7749023,-7.9345703,9.094238,0.0,0.0,0.0,9.09668,70.878296,-6.7181396
1769246412432,-0.92529297,0.095703125,0.44677734,6.7749023,-7.9345703,9.094238,0.0,0.0,0.0,9.678955,71.28479,-6.2677
1769246412520,-0.9111328,0.07128906,0.30664062,11.291504,-19.40918,6.713867,0.0,0.0,0.0,9.678955,71.28479,-6.2677
1769246412532,-0.9111328,0.07128906,0.30664062,11.291504,-19.40918,6.713867,0.0,0.0,0.0,12.359619,68.75244,-3.988037
1769246412620,-0.9448242,-4.8828125E-4,0.31982422,18.249512,-4.272461,-7.9956055,0.0,0.0,0.0,12.359619,68.75244,-3.988037
1769246412632,-0.9448242,-4.8828125E-4,0.31982422,18.249512,-4.272461,-7.9956055,0.0,0.0,0.0,13.304443,67.560425,-4.883423
1769246412720,-0.9194336,0.0703125,0.37304688,-2.8076172,-11.59668,5.004883,0.0,0.0,0.0,13.304443,67.560425,-4.883423
1769246412732,-0.9194336,0.0703125,0.37304688,-2.8076172,-11.59668,5.004883,0.0,0.0,0.0,13.123169,66.97266,-6.5533447
1769246412820,-0.93603516,0.072265625,0.33642578,-3.7231445,4.3945312,3.8452148,0.0,0.0,0.0,13.123169,66.97266,-6.5533447
1769246412832,-0.93603516,0.072265625,0.33642578,-3.7231445,4.3945312,3.8452148,0.0,0.0,0.0,13.50769,66.32446,-5.5096436
1769246412919,-0.9350586,0.048828125,0.40625,-0.61035156,0.24414062,0.18310547,0.0,0.0,0.0,13.50769,66.32446,-5.5096436
1769246412931,-0.9350586,0.048828125,0.40625,-0.61035156,0.24414062,0.18310547,0.0,0.0,0.0,13.62854,66.92322,-5.899658
1769246413019,-0.94921875,0.071777344,0.3491211,-3.90625,8.666992,-0.7324219,0.0,0.0,0.0,13.62854,66.92322,-5.899658
1769246413030,-0.94921875,0.071777344,0.3491211,-3.90625,8.666992,-0.7324219,0.0,0.0,0.0,13.249512,67.00012,-5.4711914
1769246413119,-0.9941406,0.091796875,0.35302734,15.930176,9.216309,-8.728027,0.0,0.0,0.0,13.249512,67.00012,-5.4711914
1769246413130,-0.9941406,0.091796875,0.35302734,15.930176,9.216309,-8.728027,0.0,0.0,0.0,12.6397705,68.219604,-6.8554688
1769246413218,-1.0517578,0.06982422,0.34716797,-7.385254,4.0283203,1.8920898,0.0,0.0,0.0,12.6397705,68.219604,-6.8554688
1769246413230,-1.0517578,0.06982422,0.34716797,-7.385254,4.0283203,1.8920898,0.0,0.0,0.0,12.557373,68.80188,-7.2125244
1769246413318,-0.9145508,-4.8828125E-4,0.36132812,-22.644043,-1.4038086,7.446289,0.0,0.0,0.0,12.557373,68.80188,-7.2125244
1769246413330,-0.9145508,-4.8828125E-4,0.36132812,-22.644043,-1.4038086,7.446289,0.0,0.0,0.0,12.348633,69.191895,-5.888672
1769246413418,-0.9394531,0.08935547,0.28808594,-17.028809,-15.136719,9.216309,0.0,0.0,0.0,12.348633,69.191895,-5.888672
1769246413429,-0.9394531,0.08935547,0.28808594,-17.028809,-15.136719,9.216309,0.0,0.0,0.0,11.310425,67.36267,-4.949341
1769246413518,-0.90234375,0.052734375,0.3251953,-7.5683594,27.526855,-10.314941,0.0,0.0,0.0,11.310425,67.36267,-4.949341
1769246413530,-0.90234375,0.052734375,0.3251953,-7.5683594,27.526855,-10.314941,0.0,0.0,0.0,10.409546,69.09302,-4.3945312
1769246413617,-0.85009766,0.057617188,0.38720703,-6.8969727,28.930664,-13.916016,0.0,0.0,0.0,10.409546,69.09302,-4.3945312
1769246413629,-0.85009766,0.057617188,0.38720703,-6.8969727,28.930664,-13.916016,0.0,0.0,0.0,7.2784424,72.11975,-7.404785
1769246413717,-0.9375,0.10449219,0.4633789,-3.7841797,23.19336,-12.451172,0.0,0.0,0.0,7.2784424,72.11975,-7.404785
1769246413728,-0.9375,0.10449219,0.4633789,-3.7841797,23.19336,-12.451172,0.0,0.0,0.0,2.977295,74.60266,-10.101929
1769246413817,-0.8808594,0.07373047,0.42773438,13.305664,-34.606934,4.8828125,0.0,0.0,0.0,2.977295,74.60266,-10.101929
1769246413828,-0.8808594,0.07373047,0.42773438,13.305664,-34.606934,4.8828125,0.0,0.0,0.0,2.4938965,73.26233,-10.83252
1769246413916,-0.9453125,0.07763672,0.19921875,-10.192871,-52.67334,20.019531,0.0,0.0,0.0,2.4938965,73.26233,-10.83252
1769246413928,-0.9453125,0.07763672,0.19921875,-10.192871,-52.67334,20.019531,0.0,0.0,0.0,7.03125,67.10449,-5.5426025
1769246414016,-0.9848633,-0.026367188,0.2758789,8.544922,3.1738281,-6.7749023,0.0,0.0,0.0,7.03125,67.10449,-5.5426025
1769246414029,-0.9848633,-0.026367188,0.2758789,8.544922,3.1738281,-6.7749023,0.0,0.0,0.0,8.250732,65.961914,-5.026245
1769246414116,-0.98291016,-0.0087890625,0.37060547,-1.8310547,3.6010742,-5.554199,0.0,0.0,0.0,8.250732,65.961914,-5.026245
1769246414128,-0.98291016,-0.0087890625,0.37060547,-1.8310547,3.6010742,-5.554199,0.0,0.0,0.0,7.130127,67.126465,-6.9433594
1769246414216,-0.9716797,0.07128906,0.3095703,4.8217773,8.728027,-6.225586,0.0,0.0,0.0,7.130127,67.126465,-6.9433594
1769246414228,-0.9716797,0.07128906,0.3095703,4.8217773,8.728027,-6.225586,0.0,0.0,0.0,5.8776855,68.04382,-8.833008
1769246414315,-0.93115234,0.015136719,0.30566406,-2.9907227,12.023926,0.8544922,0.0,0.0,0.0,5.8776855,68.04382,-8.833008
1769246414327,-0.93115234,0.015136719,0.30566406,-2.9907227,12.023926,0.8544922,0.0,0.0,0.0,5.72937,69.37317,-9.074707
1769246414415,-0.9472656,0.053710938,0.359375,-8.422852,30.88379,-2.0141602,0.0,0.0,0.0,5.72937,69.37317,-9.074707
1769246414427,-0.9472656,0.053710938,0.359375,-8.422852,30.88379,-2.0141602,0.0,0.0,0.0,6.2512207,71.23535,-9.316406
1769246414515,-0.97216797,0.096191406,0.33789062,-9.765625,-15.74707,16.601562,0.0,0.0,0.0,6.2512207,71.23535,-9.316406
1769246414526,-0.97216797,0.096191406,0.33789062,-9.765625,-15.74707,16.601562,0.0,0.0,0.0,9.107666,71.4386,-5.888672
1769246414615,-0.96972656,-0.013671875,0.2709961,18.249512,11.352539,-7.385254,0.0,0.0,0.0,9.107666,71.4386,-5.888672
1769246414626,-0.96972656,-0.013671875,0.2709961,18.249512,11.352539,-7.385254,0.0,0.0,0.0,11.2664795,71.17493,-3.2574463
1769246414714,-0.7944336,0.0,0.35986328,-8.056641,8.605957,2.8076172,0.0,0.0,0.0,11.2664795,71.17493,-3.2574463
1769246414726,-0.7944336,0.0,0.35986328,-8.056641,8.605957,2.8076172,0.0,0.0,0.0,11.453247,72.2406,-3.9935303
1769246414814,-0.96191406,0.061035156,0.43798828,-2.9296875,1.4038086,7.385254,0.0,0.0,0.0,11.453247,72.2406,-3.9935303
1769246414825,-0.96191406,0.061035156,0.43798828,-2.9296875,1.4038086,7.385254,0.0,0.0,0.0,11.766357,72.44934,-2.1643066
1769246414914,-0.91796875,0.1430664,0.28710938,16.784668,-20.202637,0.7324219,0.0,0.0,0.0,11.766357,72.44934,-2.1643066
1769246414925,-0.91796875,0.1430664,0.28710938,16.784668,-20.202637,0.7324219,0.0,0.0,0.0,13.320923,70.65857,-2.2576904
1769246415013,-0.9243164,-0.049804688,0.33544922,0.18310547,-5.9814453,4.211426,0.0,0.0,0.0,13.320923,70.65857,-2.2576904
1769246415025,-0.9243164,-0.049804688,0.33544922,0.18310547,-5.9814453,4.211426,0.0,0.0,0.0,13.771362,69.51599,-1.9335938
1769246415113,-0.96240234,0.087402344,0.22949219,5.859375,2.0751953,-3.7231445,0.0,0.0,0.0,13.771362,69.51599,-1.9335938
1769246415125,-0.96240234,0.087402344,0.22949219,5.859375,2.0751953,-3.7231445,0.0,0.0,0.0,13.370361,69.45007,-1.9830322
1769246415213,-0.9277344,0.06689453,0.31689453,8.483887,10.986328,-5.9814453,0.0,0.0,0.0,13.370361,69.45007,-1.9830322
1769246415224,-0.9277344,0.06689453,0.31689453,8.483887,10.986328,-5.9814453,0.0,0.0,0.0,12.958374,70.83984,-3.9276123
1769246415313,-0.9472656,0.038085938,0.33007812,-13.549805,0.8544922,5.859375,0.0,0.0,0.0,12.958374,70.83984,-3.9276123
1769246415324,-0.9472656,0.038085938,0.33007812,-13.549805,0.8544922,5.859375,0.0,0.0,0.0,13.370361,71.361694,-2.9278564
1769246415413,-1.0214844,0.05859375,0.18603516,-8.972168,14.160156,1.6479492,0.0,0.0,0.0,13.370361,71.361694,-2.9278564
1769246415424,-1.0214844,0.05859375,0.18603516,-8.972168,14.160156,1.6479492,0.0,0.0,0.0,13.7438965,71.81763,-1.373291
1769246415512,-0.8730469,0.03955078,0.3149414,-2.8686523,10.498047,-0.48828125,0.0,0.0,0.0,13.7438965,71.81763,-1.373291
1769246415524,-0.8730469,0.03955078,0.3149414,-2.8686523,10.498047,-0.48828125,0.0,0.0,0.0,13.721924,73.482056,-1.4282227
1769246415612,-0.96533203,0.09472656,0.2836914,-31.555176,-14.160156,19.470215,0.0,0.0,0.0,13.721924,73.482056,-1.4282227
1769246415623,-0.96533203,0.09472656,0.2836914,-31.555176,-14.160156,19.470215,0.0,0.0,0.0,15.067749,72.751465,2.7410889
1769246415711,-0.9501953,0.09716797,0.30859375,11.413574,-4.272461,-6.3476562,0.0,0.0,0.0,15.067749,72.751465,2.7410889
1769246415723,-0.9501953,0.09716797,0.30859375,11.413574,-4.272461,-6.3476562,0.0,0.0,0.0,15.726929,72.34497,4.1967773
1769246415811,-0.828125,0.06933594,0.32861328,2.6855469,-10.620117,-6.7749023,0.0,0.0,0.0,15.726929,72.34497,4.1967773
1769246415823,-0.828125,0.06933594,0.32861328,2.6855469,-10.620117,-6.7749023,0.0,0.0,0.0,14.458008,71.65283,2.8399658
1769246415911,-0.9199219,0.12597656,0.39013672,27.46582,5.065918,-19.958496,0.0,0.0,0.0,14.458008,71.65283,2.8399658
1769246415922,-0.9199219,0.12597656,0.39013672,27.46582,5.065918,-19.958496,0.0,0.0,0.0,12.310181,71.3562,-1.071167
1769246416011,-0.85302734,0.028320312,0.42822266,52.4292,-11.047363,-27.893066,0.0,0.0,0.0,12.310181,71.3562,-1.071167
1769246416022,-0.85302734,0.028320312,0.42822266,52.4292,-11.047363,-27.893066,0.0,0.0,0.0,7.1466064,71.883545,-9.84375
1769246416110,-0.90722656,0.060546875,0.25146484,-2.9907227,-45.166016,2.746582,0.0,0.0,0.0,7.1466064,71.883545,-9.84375
1769246416122,-0.90722656,0.060546875,0.25146484,-2.9907227,-45.166016,2.746582,0.0,0.0,0.0,5.8117676,68.16467,-12.667236
1769246416211,-0.9453125,0.04345703,0.34960938,23.498535,9.460449,-19.89746,0.0,0.0,0.0,5.8117676,68.16467,-12.667236
1769246416222,-0.9453125,0.04345703,0.34960938,23.498535,9.460449,-19.89746,0.0,0.0,0.0,4.5318604,66.92871,-14.963379
1769246416310,-0.9560547,-0.06591797,0.4921875,-6.958008,-8.911133,0.4272461,0.0,0.0,0.0,4.5318604,66.92871,-14.963379
1769246416321,-0.9560547,-0.06591797,0.4921875,-6.958008,-8.911133,0.4272461,0.0,0.0,0.0,2.010498,68.38989,-17.775879
1769246416410,-1.0,4.8828125E-4,0.14794922,-17.63916,-1.953125,7.446289,0.0,0.0,0.0,2.010498,68.38989,-17.775879
1769246416421,-1.0,4.8828125E-4,0.14794922,-17.63916,-1.953125,7.446289,0.0,0.0,0.0,2.3840332,66.28601,-16.627808
1769246416509,-0.9980469,0.05078125,0.3798828,-1.8920898,15.686035,-2.9296875,0.0,0.0,0.0,2.3840332,66.28601,-16.627808
1769246416521,-0.9980469,0.05078125,0.3798828,-1.8920898,15.686035,-2.9296875,0.0,0.0,0.0,1.6918945,67.55493,-18.17688
1769246416609,-0.9375,0.020507812,0.38232422,14.953613,-0.24414062,-7.5683594,0.0,0.0,0.0,1.6918945,67.55493,-18.17688
1769246416620,-0.9375,0.020507812,0.38232422,14.953613,-0.24414062,-7.5683594,0.0,0.0,0.0,1.4447021,68.37891,-18.671265
1769246416709,-0.96777344,0.061035156,0.40673828,-7.507324,4.1503906,8.972168,0.0,0.0,0.0,1.4447021,68.37891,-18.671265
1769246416720,-0.96777344,0.061035156,0.40673828,-7.507324,4.1503906,8.972168,0.0,0.0,0.0,0.9173584,69.75769,-18.797607
1769246416808,-1.0170898,0.052246094,0.23828125,-18.371582,-13.427734,19.348145,0.0,0.0,0.0,0.9173584,69.75769,-18.797607
1769246416820,-1.0170898,0.052246094,0.23828125,-18.371582,-13.427734,19.348145,0.0,0.0,0.0,4.3341064,68.499756,-13.276978
1769246416908,-0.9423828,0.022460938,0.3540039,8.850098,19.226074,-0.36621094,0.0,0.0,0.0,4.3341064,68.499756,-13.276978
1769246416920,-0.9423828,0.022460938,0.3540039,8.850098,19.226074,-0.36621094,0.0,0.0,0.0,6.454468,69.15344,-11.640015
1769246417009,-0.8256836,0.0063476562,0.3955078,-10.498047,6.1035156,6.5307617,0.0,0.0,0.0,6.454468,69.15344,-11.640015
1769246417019,-0.8256836,0.0063476562,0.3955078,-10.498047,6.1035156,6.5307617,0.0,0.0,0.0,7.662964,70.565186,-9.717407
1769246417107,-0.88378906,0.064453125,0.45410156,-3.90625,5.6152344,5.92041,0.0,0.0,0.0,7.662964,70.565186,-9.717407
1769246417119,-0.88378906,0.064453125,0.45410156,-3.90625,5.6152344,5.92041,0.0,0.0,0.0,8.00354,70.702515,-8.607788
1769246417207,-0.8886719,0.1328125,0.38232422,27.34375,-23.986816,7.873535,0.0,0.0,0.0,8.00354,70.702515,-8.607788
1769246417219,-0.8886719,0.1328125,0.38232422,27.34375,-23.986816,7.873535,0.0,0.0,0.0,11.25,69.43909,-5.6799316
1769246417307,-0.9482422,0.010253906,0.3203125,-8.7890625,-14.282227,15.075684,0.0,0.0,0.0,11.25,69.43909,-5.6799316
1769246417319,-0.9482422,0.010253906,0.3203125,-8.7890625,-14.282227,15.075684,0.0,0.0,0.0,13.573608,67.126465,-3.5101318
1769246417407,-0.89941406,0.017578125,0.35888672,-13.916016,-8.7890625,15.380859,0.0,0.0,0.0,13.573608,67.126465,-3.5101318
1769246417418,-0.89941406,0.017578125,0.35888672,-13.916016,-8.7890625,15.380859,0.0,0.0,0.0,14.837036,65.5719,-1.3568115
1769246417506,-0.9511719,0.106933594,0.28271484,24.353027,11.59668,-11.59668,0.0,0.0,0.0,14.837036,65.5719,-1.3568115
1769246417518,-0.9511719,0.106933594,0.28271484,24.353027,11.59668,-11.59668,0.0,0.0,0.0,14.875488,66.2146,-1.8017578
1769246417606,-0.9760742,0.04248047,0.3618164,8.972168,9.887695,-7.751465,0.0,0.0,0.0,14.875488,66.2146,-1.8017578
1769246417617,-0.9760742,0.04248047,0.3618164,8.972168,9.887695,-7.751465,0.0,0.0,0.0,14.507446,68.203125,-4.3341064
1769246417706,-0.95947266,0.06982422,0.38964844,-1.6479492,4.760742,-4.8828125,0.0,0.0,0.0,14.507446,68.203125,-4.3341064
1769246417717,-0.95947266,0.06982422,0.38964844,-1.6479492,4.760742,-4.8828125,0.0,0.0,0.0,13.189087,68.983154,-5.350342
1769246417806,-0.95947266,0.064453125,0.32421875,-14.160156,1.2817383,3.4179688,0.0,0.0,0.0,13.189087,68.983154,-5.350342
1769246417817,-0.95947266,0.064453125,0.32421875,-14.160156,1.2817383,3.4179688,0.0,0.0,0.0,12.332153,69.09302,-5.8447266
1769246417905,-0.92041016,0.03857422,0.32128906,-10.314941,-15.563965,7.2021484,0.0,0.0,0.0,12.332153,69.09302,-5.8447266
1769246417917,-0.92041016,0.03857422,0.32128906,-10.314941,-15.563965,7.2021484,0.0,0.0,0.0,11.689453,68.25806,-4.822998
1769246418005,-1.0488281,0.05029297,0.3125,-0.79345703,18.737793,-6.4086914,0.0,0.0,0.0,11.689453,68.25806,-4.822998
1769246418016,-1.0488281,0.05029297,0.3125,-0.79345703,18.737793,-6.4086914,0.0,0.0,0.0,11.771851,68.59863,-4.460449
1769246418104,-0.8691406,0.03955078,0.38964844,-10.559082,15.808105,-5.2490234,0.0,0.0,0.0,11.771851,68.59863,-4.460449
1769246418116,-0.8691406,0.03955078,0.38964844,-10.559082,15.808105,-5.2490234,0.0,0.0,0.0,10.574341,70.4718,-5.7128906
1769246418204,-0.82958984,0.12158203,0.39208984,6.286621,13.305664,-16.174316,0.0,0.0,0.0,10.574341,70.4718,-5.7128906
1769246418216,-0.82958984,0.12158203,0.39208984,6.286621,13.305664,-16.174316,0.0,0.0,0.0,7.4816895,71.40564,-9.014282
1769246418304,-0.94384766,0.095214844,0.49902344,9.338379,9.58252,-17.089844,0.0,0.0,0.0,7.4816895,71.40564,-9.014282
1769246418316,-0.94384766,0.095214844,0.49902344,9.338379,9.58252,-17.089844,0.0,0.0,0.0,4.2022705,72.718506,-12.32666
1769246418404,-0.9067383,0.06298828,0.37451172,8.422852,-55.480957,9.460449,0.0,0.0,0.0,4.2022705,72.718506,-12.32666
1769246418415,-0.9067383,0.06298828,0.37451172,8.422852,-55.480957,9.460449,0.0,0.0,0.0,4.987793,69.713745,-12.046509
1769246418503,-0.9921875,-0.020507812,0.1850586,-8.850098,-10.559082,3.6010742,0.0,0.0,0.0,4.987793,69.713745,-12.046509
1769246418515,-0.9921875,-0.020507812,0.1850586,-8.850098,-10.559082,3.6010742,0.0,0.0,0.0,6.355591,65.64331,-9.42627
1769246418603,-0.9399414,0.0146484375,0.3696289,1.0375977,15.625,-9.155273,0.0,0.0,0.0,6.355591,65.64331,-9.42627
1769246418615,-0.9399414,0.0146484375,0.3696289,1.0375977,15.625,-9.155273,0.0,0.0,0.0,5.2734375,67.1759,-11.711426
1769246418703,-0.96972656,0.010253906,0.32421875,3.7841797,4.699707,-4.4555664,0.0,0.0,0.0,5.2734375,67.1759,-11.711426
1769246418714,-0.96972656,0.010253906,0.32421875,3.7841797,4.699707,-4.4555664,0.0,0.0,0.0,3.8671875,68.18115,-13.74939
1769246418802,-1.0039062,0.026855469,0.27929688,-8.056641,12.084961,2.319336,0.0,0.0,0.0,3.8671875,68.18115,-13.74939
1769246418814,-1.0039062,0.026855469,0.27929688,-8.056641,12.084961,2.319336,0.0,0.0,0.0,3.5650635,69.04907,-13.886719
1769246418902,-0.96777344,0.027832031,0.34423828,-19.65332,15.50293,15.441895,0.0,0.0,0.0,3.5650635,69.04907,-13.886719
1769246418914,-0.96777344,0.027832031,0.34423828,-19.65332,15.50293,15.441895,0.0,0.0,0.0,4.921875,70.93872,-11.282959
1769246419002,-0.9477539,0.020019531,0.30908203,-13.366699,12.145996,7.873535,0.0,0.0,0.0,4.921875,70.93872,-11.282959
1769246419013,-0.9477539,0.020019531,0.30908203,-13.366699,12.145996,7.873535,0.0,0.0,0.0,6.9213867,71.32324,-8.442993
1769246419102,-1.0141602,0.05517578,0.2758789,-6.5307617,6.0424805,5.3710938,0.0,0.0,0.0,6.9213867,71.32324,-8.442993
1769246419113,-1.0141602,0.05517578,0.2758789,-6.5307617,6.0424805,5.3710938,0.0,0.0,0.0,8.486938,72.11975,-6.5863037
1769246419201,-0.87646484,0.026367188,0.36035156,10.437012,13.305664,-6.5307617,0.0,0.0,0.0,8.486938,72.11975,-6.5863037
1769246419213,-0.87646484,0.026367188,0.36035156,10.437012,13.305664,-6.5307617,0.0,0.0,0.0,8.514404,73.03162,-7.2839355
1769246419301,-0.8691406,-0.0043945312,0.40722656,-21.42334,-3.540039,6.713867,0.0,0.0,0.0,8.514404,73.03162,-7.2839355
1769246419313,-0.8691406,-0.0043945312,0.40722656,-21.42334,-3.540039,6.713867,0.0,0.0,0.0,7.932129,72.94922,-6.9763184
1769246419401,-0.91748047,0.11767578,0.37060547,27.58789,-17.150879,3.9672852,0.0,0.0,0.0,7.932129,72.94922,-6.9763184
1769246419412,-0.91748047,0.11767578,0.37060547,27.58789,-17.150879,3.9672852,0.0,0.0,0.0,9.437256,71.63086,-4.5977783
1769246419501,-0.92871094,0.036621094,0.296875,8.239746,-7.9956055,4.5776367,0.0,0.0,0.0,9.437256,71.63086,-4.5977783
1769246419512,-0.92871094,0.036621094,0.296875,8.239746,-7.9956055,4.5776367,0.0,0.0,0.0,11.585083,69.8291,-4.125366
1769246419600,-0.9267578,-0.005859375,0.34033203,6.8359375,-1.6479492,4.0893555,0.0,0.0,0.0,11.585083,69.8291,-4.125366
1769246419612,-0.9267578,-0.005859375,0.34033203,6.8359375,-1.6479492,4.0893555,0.0,0.0,0.0,12.595825,69.49402,-3.5870361
1769246419700,-0.93066406,0.12011719,0.26123047,1.2207031,-3.6621094,4.333496,0.0,0.0,0.0,12.595825,69.49402,-3.5870361
1769246419712,-0.93066406,0.12011719,0.26123047,1.2207031,-3.6621094,4.333496,0.0,0.0,0.0,13.145142,68.87329,-3.5650635
1769246419800,-0.9477539,0.06933594,0.32226562,-4.3945312,4.8828125,6.4086914,0.0,0.0,0.0,13.145142,68.87329,-3.5650635
1769246419811,-0.9477539,0.06933594,0.32226562,-4.3945312,4.8828125,6.4086914,0.0,0.0,0.0,14.611816,68.933716,-2.142334
1769246419899,-0.98583984,0.024902344,0.29882812,-13.61084,3.2348633,8.056641,0.0,0.0,0.0,14.611816,68.933716,-2.142334
1769246419911,-0.98583984,0.024902344,0.29882812,-13.61084,3.2348633,8.056641,0.0,0.0,0.0,16.402588,69.36218,0.31860352
1769246419999,-0.99072266,0.019042969,0.29785156,-1.953125,6.4697266,-2.746582,0.0,0.0,0.0,16.402588,69.36218,0.31860352
1769246420011,-0.99072266,0.019042969,0.29785156,-1.953125,6.4697266,-2.746582,0.0,0.0,0.0,16.254272,69.81262,0.6427002
1769246420099,-1.0292969,0.08251953,0.33007812,-10.864258,5.493164,-1.4648438,0.0,0.0,0.0,16.254272,69.81262,0.6427002
1769246420110,-1.0292969,0.08251953,0.33007812,-10.864258,5.493164,-1.4648438,0.0,0.0,0.0,14.7821045,70.60364,-0.8239746
1769246420199,-1.0004883,0.08105469,0.39501953,-22.766113,1.2207031,6.1035156,0.0,0.0,0.0,14.7821045,70.60364,-0.8239746
1769246420210,-1.0004883,0.08105469,0.39501953,-22.766113,1.2207031,6.1035156,0.0,0.0,0.0,13.7109375,71.087036,-0.20324707
1769246420298,-0.94921875,0.07421875,0.25976562,6.0424805,-1.4648438,-8.728027,0.0,0.0,0.0,13.7109375,71.087036,-0.20324707
1769246420310,-0.94921875,0.07421875,0.25976562,6.0424805,-1.4648438,-8.728027,0.0,0.0,0.0,12.480469,71.2793,-0.72509766
1769246420398,-0.85498047,0.08496094,0.3569336,-5.493164,5.3710938,-7.2021484,0.0,0.0,0.0,12.480469,71.2793,-0.72509766
1769246420410,-0.85498047,0.08496094,0.3569336,-5.493164,5.3710938,-7.2021484,0.0,0.0,0.0,10.552368,71.361694,-2.7355957
1769246420498,-0.9091797,0.13916016,0.41748047,4.1503906,6.8969727,-13.000488,0.0,0.0,0.0,10.552368,71.361694,-2.7355957
1769246420509,-0.9091797,0.13916016,0.41748047,4.1503906,6.8969727,-13.000488,0.0,0.0,0.0,7.943115,71.98242,-5.2679443
1769246420597,-0.91308594,0.05419922,0.44873047,14.770508,-11.108398,-6.4697266,0.0,0.0,0.0,7.943115,71.98242,-5.2679443
1769246420609,-0.91308594,0.05419922,0.44873047,14.770508,-11.108398,-6.4697266,0.0,0.0,0.0,6.465454,72.18567,-6.899414
1769246420697,-0.921875,0.07373047,0.26904297,1.2817383,-46.99707,11.047363,0.0,0.0,0.0,6.465454,72.18567,-6.899414
1769246420709,-0.921875,0.07373047,0.26904297,1.2817383,-46.99707,11.047363,0.0,0.0,0.0,7.8881836,68.60962,-5.9436035
1769246420797,-0.92529297,0.032226562,0.3076172,6.3476562,1.5258789,-5.6152344,0.0,0.0,0.0,7.8881836,68.60962,-5.9436035
1769246420808,-0.92529297,0.032226562,0.3076172,6.3476562,1.5258789,-5.6152344,0.0,0.0,0.0,8.734131,66.14868,-4.927368
1769246420897,-0.95703125,-0.0078125,0.38476562,4.8828125,-1.7700195,-5.92041,0.0,0.0,0.0,8.734131,66.14868,-4.927368
1769246420908,-0.95703125,-0.0078125,0.38476562,4.8828125,-1.7700195,-5.92041,0.0,0.0,0.0,8.00354,67.093506,-6.5533447
1769246420996,-0.98046875,0.029785156,0.24853516,2.0141602,-0.91552734,-3.1738281,0.0,0.0,0.0,8.00354,67.093506,-6.5533447
1769246421008,-0.98046875,0.029785156,0.24853516,2.0141602,-0.91552734,-3.1738281,0.0,0.0,0.0,7.058716,66.83533,-8.135376
1769246421096,-0.96240234,0.044921875,0.33398438,10.925293,11.962891,-9.399414,0.0,0.0,0.0,7.058716,66.83533,-8.135376
1769246421107,-0.96240234,0.044921875,0.33398438,10.925293,11.962891,-9.399414,0.0,0.0,0.0,6.196289,67.63733,-10.508423
1769246421196,-0.87402344,-0.0014648438,0.35253906,2.5024414,5.7373047,-1.6479492,0.0,0.0,0.0,6.196289,67.63733,-10.508423
1769246421207,-0.87402344,-0.0014648438,0.35253906,2.5024414,5.7373047,-1.6479492,0.0,0.0,0.0,5.8721924,69.25232,-10.92041
1769246421296,-0.9350586,0.095214844,0.3647461,-22.949219,17.089844,8.178711,0.0,0.0,0.0,5.8721924,69.25232,-10.92041
1769246421307,-0.9350586,0.095214844,0.3647461,-22.949219,17.089844,8.178711,0.0,0.0,0.0,6.3830566,69.86755,-10.667725
1769246421395,-0.9897461,0.091796875,0.26171875,-8.483887,-7.1411133,13.061523,0.0,0.0,0.0,6.3830566,69.86755,-10.667725
1769246421407,-0.9897461,0.091796875,0.26171875,-8.483887,-7.1411133,13.061523,0.0,0.0,0.0,9.744873,69.818115,-5.756836
1769246421495,-0.97558594,0.041015625,0.3203125,31.25,21.057129,-16.174316,0.0,0.0,0.0,9.744873,69.818115,-5.756836
1769246421506,-0.97558594,0.041015625,0.3203125,31.25,21.057129,-16.174316,0.0,0.0,0.0,10.546875,71.02661,-5.762329
1769246421595,-0.85595703,0.02734375,0.39160156,4.5776367,7.9956055,-4.8828125,0.0,0.0,0.0,10.546875,71.02661,-5.762329
1769246421606,-0.85595703,0.02734375,0.39160156,4.5776367,7.9956055,-4.8828125,0.0,0.0,0.0,10.107422,72.69104,-7.5805664
1769246421694,-0.85839844,0.032714844,0.41845703,-0.24414062,6.1035156,-3.1738281,0.0,0.0,0.0,10.107422,72.69104,-7.5805664
1769246421709,-0.85839844,0.032714844,0.41845703,-0.24414062,6.1035156,-3.1738281,0.0,0.0,0.0,9.003296,73.00415,-7.3168945
1769246421794,-0.9506836,0.13867188,0.40478516,27.22168,-27.282715,13.366699,0.0,0.0,0.0,9.003296,73.00415,-7.3168945
1769246421810,-0.9506836,0.13867188,0.40478516,27.22168,-27.282715,13.366699,0.0,0.0,0.0,11.815796,71.482544,-4.224243
1769246421894,-0.9560547,0.025390625,0.2758789,-7.446289,-19.28711,16.235352,0.0,0.0,0.0,11.815796,71.482544,-4.224243
1769246421913,-0.9560547,0.025390625,0.2758789,-7.446289,-19.28711,16.235352,0.0,0.0,0.0,14.935913,68.02734,-0.81848145
1769246421994,-0.94677734,9.765625E-4,0.35351562,0.9765625,3.0517578,5.126953,0.0,0.0,0.0,14.935913,68.02734,-0.81848145
1769246422005,-0.94677734,9.765625E-4,0.35351562,0.9765625,3.0517578,5.126953,0.0,0.0,0.0,16.473999,67.62634,0.4284668
1769246422093,-0.93408203,0.104003906,0.31103516,5.004883,2.1362305,-1.159668,0.0,0.0,0.0,16.473999,67.62634,0.4284668
1769246422105,-0.93408203,0.104003906,0.31103516,5.004883,2.1362305,-1.159668,0.0,0.0,0.0,16.254272,67.96692,-0.17028809
1769246422193,-0.97216797,0.064453125,0.28808594,-1.4038086,-0.12207031,4.0893555,0.0,0.0,0.0,16.254272,67.96692,-0.17028809
1769246422204,-0.97216797,0.064453125,0.28808594,-1.4038086,-0.12207031,4.0893555,0.0,0.0,0.0,16.885986,68.28003,0.5053711
1769246422293,-0.9536133,0.079589844,0.34277344,-4.0283203,10.559082,0.12207031,0.0,0.0,0.0,16.885986,68.28003,0.5053711
1769246422304,-0.9536133,0.079589844,0.34277344,-4.0283203,10.559082,0.12207031,0.0,0.0,0.0,17.528687,68.933716,0.97229004
1769246422393,-0.9785156,0.052246094,0.33935547,-9.033203,0.7324219,2.1362305,0.0,0.0,0.0,17.528687,68.933716,0.97229004
1769246422404,-0.9785156,0.052246094,0.33935547,-9.033203,0.7324219,2.1362305,0.0,0.0,0.0,17.402344,69.47754,1.2799072
1769246422492,-0.90966797,0.06982422,0.31640625,-1.4038086,8.544922,-6.164551,0.0,0.0,0.0,17.402344,69.47754,1.2799072
1769246422504,-0.90966797,0.06982422,0.31640625,-1.4038086,8.544922,-6.164551,0.0,0.0,0.0,16.237793,70.06531,0.74157715
1769246422592,-0.9526367,0.061523438,0.27539062,-12.817383,4.1503906,-1.159668,0.0,0.0,0.0,16.237793,70.06531,0.74157715
1769246422603,-0.9526367,0.061523438,0.27539062,-12.817383,4.1503906,-1.159668,0.0,0.0,0.0,14.639282,70.477295,0.29663086
1769246422691,-0.95751953,0.080078125,0.34472656,-9.033203,-0.18310547,2.4414062,0.0,0.0,0.0,14.639282,70.477295,0.29663086
1769246422703,-0.95751953,0.080078125,0.34472656,-9.033203,-0.18310547,2.4414062,0.0,0.0,0.0,14.007568,71.02661,0.03845215
1769246422791,-0.9008789,0.10449219,0.32226562,-1.2207031,0.7324219,-3.0517578,0.0,0.0,0.0,14.007568,71.02661,0.03845215
1769246422803,-0.9008789,0.10449219,0.32226562,-1.2207031,0.7324219,-3.0517578,0.0,0.0,0.0,13.265991,70.790405,0.2746582
1769246422891,-0.8520508,0.11376953,0.37158203,3.7231445,10.498047,-10.925293,0.0,0.0,0.0,13.265991,70.790405,0.2746582
1769246422903,-0.8520508,0.11376953,0.37158203,3.7231445,10.498047,-10.925293,0.0,0.0,0.0,12.150879,71.61438,-1.2139893
1769246422991,-0.9506836,0.055664062,0.4658203,1.7700195,7.1411133,-15.991211,0.0,0.0,0.0,12.150879,71.61438,-1.2139893
1769246423002,-0.9506836,0.055664062,0.4658203,1.7700195,7.1411133,-15.991211,0.0,0.0,0.0,8.920898,72.284546,-4.482422
1769246423090,-0.86816406,0.076660156,0.40478516,21.1792,-42.175293,-3.9672852,0.0,0.0,0.0,8.920898,72.284546,-4.482422
1769246423102,-0.86816406,0.076660156,0.40478516,21.1792,-42.175293,-3.9672852,0.0,0.0,0.0,6.7510986,70.548706,-7.662964
1769246423190,-0.90625,0.10498047,0.2631836,-13.122559,-28.564453,13.244629,0.0,0.0,0.0,6.7510986,70.548706,-7.662964
1769246423201,-0.90625,0.10498047,0.2631836,-13.122559,-28.564453,13.244629,0.0,0.0,0.0,7.701416,65.83008,-6.262207
1769246423290,-0.9404297,0.032226562,0.36523438,0.9765625,5.7373047,-2.380371,0.0,0.0,0.0,7.701416,65.83008,-6.262207
1769246423301,-0.9404297,0.032226562,0.36523438,0.9765625,5.7373047,-2.380371,0.0,0.0,0.0,8.129883,65.599365,-5.553589
1769246423389,-0.97509766,-0.0073242188,0.31933594,0.18310547,-5.6762695,0.79345703,0.0,0.0,0.0,8.129883,65.599365,-5.553589
1769246423401,-0.97509766,-0.0073242188,0.31933594,0.18310547,-5.6762695,0.79345703,0.0,0.0,0.0,8.0859375,65.55542,-6.1358643
1769246423489,-0.97021484,0.056640625,0.30322266,-0.48828125,2.0141602,-0.61035156,0.0,0.0,0.0,8.0859375,65.55542,-6.1358643
1769246423501,-0.97021484,0.056640625,0.30322266,-0.48828125,2.0141602,-0.61035156,0.0,0.0,0.0,8.063965,65.80261,-6.7840576
1769246423589,-0.97216797,0.023925781,0.4189453,-17.822266,16.174316,4.272461,0.0,0.0,0.0,8.063965,65.80261,-6.7840576
1769246423600,-0.97216797,0.023925781,0.4189453,-17.822266,16.174316,4.272461,0.0,0.0,0.0,8.135376,66.96167,-6.5203857
1769246423689,-0.9223633,0.13378906,0.4321289,-2.8076172,20.568848,-0.91552734,0.0,0.0,0.0,8.135376,66.96167,-6.5203857
1769246423700,-0.9223633,0.13378906,0.4321289,-2.8076172,20.568848,-0.91552734,0.0,0.0,0.0,7.970581,67.88452,-8.173828
1769246423788,-0.9658203,0.11621094,0.4013672,-8.361816,-30.029297,20.507812,0.0,0.0,0.0,7.970581,67.88452,-8.173828
1769246423800,-0.9658203,0.11621094,0.4013672,-8.361816,-30.029297,20.507812,0.0,0.0,0.0,10.206299,67.840576,-4.0649414
1769246423888,-0.98291016,0.0014648438,0.22607422,-0.7324219,12.512207,0.8544922,0.0,0.0,0.0,10.206299,67.840576,-4.0649414
1769246423899,-0.98291016,0.0014648438,0.22607422,-0.7324219,12.512207,0.8544922,0.0,0.0,0.0,12.546387,65.84656,-0.56030273
1769246423988,-0.90527344,0.052734375,0.40722656,2.1362305,20.263672,-6.591797,0.0,0.0,0.0,12.546387,65.84656,-0.56030273
1769246423999,-0.90527344,0.052734375,0.40722656,2.1362305,20.263672,-6.591797,0.0,0.0,0.0,12.799072,68.53821,-2.5158691
1769246424087,-0.7890625,0.03173828,0.40771484,-11.535645,12.573242,-2.1362305,0.0,0.0,0.0,12.799072,68.53821,-2.5158691
1769246424099,-0.7890625,0.03173828,0.40771484,-11.535645,12.573242,-2.1362305,0.0,0.0,0.0,11.870728,69.68628,-2.2851562
1769246424187,-0.9169922,0.11035156,0.48828125,18.188477,2.4414062,-1.0986328,0.0,0.0,0.0,11.870728,69.68628,-2.2851562
1769246424199,-0.9169922,0.11035156,0.48828125,18.188477,2.4414062,-1.0986328,0.0,0.0,0.0,11.381836,70.69702,-2.27417
1769246424287,-0.8930664,0.20898438,0.34814453,12.023926,-36.43799,10.070801,0.0,0.0,0.0,11.381836,70.69702,-2.27417
1769246424298,-0.8930664,0.20898438,0.34814453,12.023926,-36.43799,10.070801,0.0,0.0,0.0,13.815308,67.857056,-2.3950195
1769246424387,-0.92089844,-0.044433594,0.3251953,0.79345703,-9.460449,10.192871,0.0,0.0,0.0,13.815308,67.857056,-2.3950195
1769246424398,-0.92089844,-0.044433594,0.3251953,0.79345703,-9.460449,10.192871,0.0,0.0,0.0,15.935669,65.4126,0.70861816
1769246424486,-0.9609375,0.047851562,0.32666016,8.911133,7.507324,-1.5258789,0.0,0.0,0.0,15.935669,65.4126,0.70861816
1769246424498,-0.9609375,0.047851562,0.32666016,8.911133,7.507324,-1.5258789,0.0,0.0,0.0,16.864014,65.69824,0.8514404
1769246424586,-0.89697266,0.14550781,0.41015625,0.0,6.8969727,-0.18310547,0.0,0.0,0.0,16.864014,65.69824,0.8514404
1769246424597,-0.89697266,0.14550781,0.41015625,0.0,6.8969727,-0.18310547,0.0,0.0,0.0,16.809082,66.52771,-0.5548096
1769246424686,-0.94189453,0.07714844,0.36132812,6.0424805,4.638672,-4.0893555,0.0,0.0,0.0,16.809082,66.52771,-0.5548096
1769246424697,-0.94189453,0.07714844,0.36132812,6.0424805,4.638672,-4.0893555,0.0,0.0,0.0,17.061768,66.884766,-0.24169922
1769246424785,-0.9711914,0.05126953,0.34228516,9.094238,2.0751953,-10.803223,0.0,0.0,0.0,17.061768,66.884766,-0.24169922
1769246424797,-0.9711914,0.05126953,0.34228516,9.094238,2.0751953,-10.803223,0.0,0.0,0.0,16.265259,67.785645,-1.9390869
1769246424885,-0.96875,0.0859375,0.3388672,-4.4555664,3.6621094,-4.4555664,0.0,0.0,0.0,16.265259,67.785645,-1.9390869
1769246424897,-0.96875,0.0859375,0.3388672,-4.4555664,3.6621094,-4.4555664,0.0,0.0,0.0,14.551392,68.02185,-4.2297363
1769246424985,-0.8959961,0.13183594,0.421875,-6.4697266,11.59668,-3.7841797,0.0,0.0,0.0,14.551392,68.02185,-4.2297363
1769246424996,-0.8959961,0.13183594,0.421875,-6.4697266,11.59668,-3.7841797,0.0,0.0,0.0,12.496948,69.472046,-5.7678223
1769246425085,-0.98828125,0.14160156,0.40527344,-4.638672,-3.4179688,6.3476562,0.0,0.0,0.0,12.496948,69.472046,-5.7678223
1769246425096,-0.98828125,0.14160156,0.40527344,-4.638672,-3.4179688,6.3476562,0.0,0.0,0.0,12.749634,69.400635,-4.724121
1769246425184,-1.0009766,0.059570312,0.3149414,3.0517578,-15.50293,11.474609,0.0,0.0,0.0,12.749634,69.400635,-4.724121
1769246425196,-1.0009766,0.059570312,0.3149414,3.0517578,-15.50293,11.474609,0.0,0.0,0.0,14.468994,68.565674,-1.9061279
1769246425284,-0.91845703,0.024902344,0.35351562,-16.845703,-10.986328,6.958008,0.0,0.0,0.0,14.468994,68.565674,-1.9061279
1769246425295,-0.91845703,0.024902344,0.35351562,-16.845703,-10.986328,6.958008,0.0,0.0,0.0,14.815063,66.25305,-1.4666748
1769246425384,-0.8696289,0.123046875,0.39941406,16.174316,7.6293945,-15.563965,0.0,0.0,0.0,14.815063,66.25305,-1.4666748
1769246425395,-0.8696289,0.123046875,0.39941406,16.174316,7.6293945,-15.563965,0.0,0.0,0.0,13.634033,66.54968,-2.8948975
1769246425483,-0.8564453,0.15136719,0.4477539,5.9814453,7.3242188,-16.418457,0.0,0.0,0.0,13.634033,66.54968,-2.8948975
1769246425495,-0.8564453,0.15136719,0.4477539,5.9814453,7.3242188,-16.418457,0.0,0.0,0.0,11.887207,67.423096,-6.4489746
1769246425583,-0.92285156,0.04638672,0.5332031,16.784668,2.8686523,-16.235352,0.0,0.0,0.0,11.887207,67.423096,-6.4489746
1769246425595,-0.92285156,0.04638672,0.5332031,16.784668,2.8686523,-16.235352,0.0,0.0,0.0,9.486694,68.25806,-9.206543
1769246425683,-0.8696289,0.07373047,0.39160156,13.427734,-57.006836,0.48828125,0.0,0.0,0.0,9.486694,68.25806,-9.206543
1769246425694,-0.8696289,0.07373047,0.39160156,13.427734,-57.006836,0.48828125,0.0,0.0,0.0,8.920898,65.67627,-11.206055
1769246425783,-0.9135742,0.061035156,0.3022461,-2.1972656,-27.832031,-0.36621094,0.0,0.0,0.0,8.920898,65.67627,-11.206055
1769246425794,-0.9135742,0.061035156,0.3022461,-2.1972656,-27.832031,-0.36621094,0.0,0.0,0.0,8.063965,61.243286,-11.815796
1769246425882,-0.90234375,0.076171875,0.4711914,18.127441,18.432617,-15.075684,0.0,0.0,0.0,8.063965,61.243286,-11.815796
1769246425894,-0.90234375,0.076171875,0.4711914,18.127441,18.432617,-15.075684,0.0,0.0,0.0,6.8554688,62.36389,-14.941406
1769246425982,-0.9345703,0.019042969,0.3725586,-8.7890625,-11.657715,0.24414062,0.0,0.0,0.0,6.8554688,62.36389,-14.941406
1769246425994,-0.9345703,0.019042969,0.3725586,-8.7890625,-11.657715,0.24414062,0.0,0.0,0.0,6.3775635,62.424316,-15.836792
1769246426082,-0.9790039,0.018066406,0.35058594,-0.24414062,6.5307617,-7.446289,0.0,0.0,0.0,6.3775635,62.424316,-15.836792
1769246426093,-0.9790039,0.018066406,0.35058594,-0.24414062,6.5307617,-7.446289,0.0,0.0,0.0,5.3338623,62.65503,-16.940918
1769246426181,-1.0131836,0.037109375,0.46533203,-4.1503906,12.6953125,-3.1738281,0.0,0.0,0.0,5.3338623,62.65503,-16.940918
1769246426193,-1.0131836,0.037109375,0.46533203,-4.1503906,12.6953125,-3.1738281,0.0,0.0,0.0,4.0704346,64.07776,-18.709717
1769246426281,-0.9213867,0.107421875,0.4975586,16.052246,-1.4648438,2.9296875,0.0,0.0,0.0,4.0704346,64.07776,-18.709717
1769246426293,-0.9213867,0.107421875,0.4975586,16.052246,-1.4648438,2.9296875,0.0,0.0,0.0,4.8065186,64.39636,-18.814087
1769246426381,-0.86865234,0.080566406,0.39892578,-12.573242,-26.000977,22.277832,0.0,0.0,0.0,4.8065186,64.39636,-18.814087
1769246426392,-0.86865234,0.080566406,0.39892578,-12.573242,-26.000977,22.277832,0.0,0.0,0.0,7.701416,62.836304,-15.276489
1769246426481,-0.94628906,-0.023925781,0.31884766,-2.746582,7.385254,8.850098,0.0,0.0,0.0,7.701416,62.836304,-15.276489
1769246426492,-0.94628906,-0.023925781,0.31884766,-2.746582,7.385254,8.850098,0.0,0.0,0.0,9.662476,61.539917,-11.403809
1769246426580,-0.83984375,0.037109375,0.46240234,8.361816,48.339844,-15.625,0.0,0.0,0.0,9.662476,61.539917,-11.403809
1769246426592,-0.83984375,0.037109375,0.46240234,8.361816,48.339844,-15.625,0.0,0.0,0.0,9.915161,65.8905,-12.766113
1769246426680,-0.8173828,0.068359375,0.49316406,-10.375977,9.887695,-0.9765625,0.0,0.0,0.0,9.915161,65.8905,-12.766113
1769246426692,-0.8173828,0.068359375,0.49316406,-10.375977,9.887695,-0.9765625,0.0,0.0,0.0,8.805542,67.95593,-13.123169
1769246426780,-0.8959961,0.17089844,0.52685547,44.6167,25.45166,-12.451172,0.0,0.0,0.0,8.805542,67.95593,-13.123169
1769246426791,-0.8959961,0.17089844,0.52685547,44.6167,25.45166,-12.451172,0.0,0.0,0.0,9.953613,69.625854,-12.562866
1769246426879,-0.8696289,0.22363281,0.41601562,-22.155762,-47.058105,32.77588,0.0,0.0,0.0,9.953613,69.625854,-12.562866
1769246426891,-0.8696289,0.22363281,0.41601562,-22.155762,-47.058105,32.77588,0.0,0.0,0.0,14.919434,67.07153,-8.223267
1769246426979,-0.91064453,-0.049316406,0.35107422,-3.6621094,-20.629883,21.78955,0.0,0.0,0.0,14.919434,67.07153,-8.223267
1769246426991,-0.91064453,-0.049316406,0.35107422,-3.6621094,-20.629883,21.78955,0.0,0.0,0.0,16.951904,62.248535,-2.241211
1769246427079,-0.96240234,0.076660156,0.3413086,17.211914,13.549805,1.7089844,0.0,0.0,0.0,16.951904,62.248535,-2.241211
1769246427090,-0.96240234,0.076660156,0.3413086,17.211914,13.549805,1.7089844,0.0,0.0,0.0,19.80835,62.265015,-1.5161133
1769246427179,-0.9394531,0.17041016,0.41845703,14.953613,10.620117,-6.958008,0.0,0.0,0.0,19.80835,62.265015,-1.5161133
1769246427190,-0.9394531,0.17041016,0.41845703,14.953613,10.620117,-6.958008,0.0,0.0,0.0,21.038818,63.830566,-2.340088
1769246427278,-0.94970703,0.09716797,0.40039062,3.1738281,8.300781,0.48828125,0.0,0.0,0.0,21.038818,63.830566,-2.340088
1769246427290,-0.94970703,0.09716797,0.40039062,3.1738281,8.300781,0.48828125,0.0,0.0,0.0,22.159424,64.923706,-2.0928955
1769246427378,-0.96484375,0.10058594,0.38867188,0.7324219,-11.962891,3.2958984,0.0,0.0,0.0,22.159424,64.923706,-2.0928955
1769246427390,-0.96484375,0.10058594,0.38867188,0.7324219,-11.962891,3.2958984,0.0,0.0,0.0,22.005615,64.83032,-2.0654297
1769246427478,-0.90625,0.13378906,0.34033203,3.6621094,-1.7089844,-0.9765625,0.0,0.0,0.0,22.005615,64.83032,-2.0654297
1769246427489,-0.90625,0.13378906,0.34033203,3.6621094,-1.7089844,-0.9765625,0.0,0.0,0.0,20.983887,64.03931,-2.911377
1769246427578,-0.86865234,0.12207031,0.4584961,-18.615723,23.620605,-8.422852,0.0,0.0,0.0,20.983887,64.03931,-2.911377
1769246427589,-0.86865234,0.12207031,0.4584961,-18.615723,23.620605,-8.422852,0.0,0.0,0.0,20.093994,65.22034,-3.8726807
1769246427677,-0.87939453,0.20507812,0.55126953,35.7666,5.3100586,-19.226074,0.0,0.0,0.0,20.093994,65.22034,-3.8726807
1769246427689,-0.87939453,0.20507812,0.55126953,35.7666,5.3100586,-19.226074,0.0,0.0,0.0,18.901978,67.43408,-6.4105225
1769246427777,-0.9326172,0.20654297,0.40185547,-43.21289,-71.65527,28.198242,0.0,0.0,0.0,18.901978,67.43408,-6.4105225
1769246427789,-0.9326172,0.20654297,0.40185547,-43.21289,-71.65527,28.198242,0.0,0.0,0.0,17.869263,62.561646,-6.635742
1769246427877,-0.92871094,-0.0073242188,0.3173828,14.038086,4.3945312,-9.033203,0.0,0.0,0.0,17.869263,62.561646,-6.635742
1769246427889,-0.92871094,-0.0073242188,0.3173828,14.038086,4.3945312,-9.033203,0.0,0.0,0.0,16.836548,59.331665,-5.256958
1769246427976,-0.8676758,0.15820312,0.4423828,-5.6762695,18.798828,-4.760742,0.0,0.0,0.0,16.836548,59.331665,-5.256958
1769246427989,-0.8676758,0.15820312,0.4423828,-5.6762695,18.798828,-4.760742,0.0,0.0,0.0,17.122192,61.671753,-7.4487305
1769246428076,-0.85302734,0.21289062,0.47509766,17.578125,23.80371,-6.225586,0.0,0.0,0.0,17.122192,61.671753,-7.4487305
1769246428087,-0.85302734,0.21289062,0.47509766,17.578125,23.80371,-6.225586,0.0,0.0,0.0,17.748413,63.5614,-7.168579
1769246428176,-0.828125,0.22509766,0.50439453,-0.7324219,0.30517578,7.9345703,0.0,0.0,0.0,17.748413,63.5614,-7.168579
1769246428187,-0.828125,0.22509766,0.50439453,-0.7324219,0.30517578,7.9345703,0.0,0.0,0.0,20.061035,64.97864,-5.822754
1769246428276,-0.8984375,0.1303711,0.49609375,-4.272461,-17.089844,3.4179688,0.0,0.0,0.0,20.061035,64.97864,-5.822754
1769246428287,-0.8984375,0.1303711,0.49609375,-4.272461,-17.089844,3.4179688,0.0,0.0,0.0,20.687256,63.374634,-3.5211182
1769246428375,-0.86865234,0.0703125,0.4140625,4.8828125,-33.447266,1.8310547,0.0,0.0,0.0,20.687256,63.374634,-3.5211182
1769246428387,-0.86865234,0.0703125,0.4140625,4.8828125,-33.447266,1.8310547,0.0,0.0,0.0,19.46228,60.55664,-4.526367
1769246428475,-0.88671875,0.15820312,0.36914062,4.8217773,-13.85498,2.0141602,0.0,0.0,0.0,19.46228,60.55664,-4.526367
1769246428486,-0.88671875,0.15820312,0.36914062,4.8217773,-13.85498,2.0141602,0.0,0.0,0.0,18.429565,58.14514,-6.1688232
1769246428575,-0.86865234,0.2109375,0.4814453,8.911133,18.676758,-11.169434,0.0,0.0,0.0,18.429565,58.14514,-6.1688232
1769246428586,-0.86865234,0.2109375,0.4814453,8.911133,18.676758,-11.169434,0.0,0.0,0.0,18.407593,58.90869,-7.5421143
1769246428674,-0.8979492,0.18945312,0.53515625,-1.3427734,-1.7700195,4.760742,0.0,0.0,0.0,18.407593,58.90869,-7.5421143
1769246428686,-0.8979492,0.18945312,0.53515625,-1.3427734,-1.7700195,4.760742,0.0,0.0,0.0,19.000854,60.50171,-7.5531006
1769246428774,-0.92822266,0.092285156,0.39648438,-8.605957,-4.638672,3.6621094,0.0,0.0,0.0,19.000854,60.50171,-7.5531006
1769246428786,-0.92822266,0.092285156,0.39648438,-8.605957,-4.638672,3.6621094,0.0,0.0,0.0,18.380127,59.44702,-6.2402344
1769246428874,-0.9433594,0.14160156,0.43945312,-7.8125,12.634277,0.0,0.0,0.0,0.0,18.380127,59.44702,-6.2402344
1769246428885,-0.9433594,0.14160156,0.43945312,-7.8125,12.634277,0.0,0.0,0.0,0.0,18.374634,60.238037,-5.696411
1769246428974,-0.89404297,0.1430664,0.46679688,33.02002,8.850098,-6.4086914,0.0,0.0,0.0,18.374634,60.238037,-5.696411
1769246428985,-0.89404297,0.1430664,0.46679688,33.02002,8.850098,-6.4086914,0.0,0.0,0.0,19.017334,61.75415,-4.7625732
1769246429073,-0.86572266,0.17285156,0.5083008,-3.2958984,14.892578,5.2490234,0.0,0.0,0.0,19.017334,61.75415,-4.7625732
1769246429085,-0.86572266,0.17285156,0.5083008,-3.2958984,14.892578,5.2490234,0.0,0.0,0.0,20.533447,63.69873,-4.647217
1769246429173,-0.93847656,0.13183594,0.3486328,-12.939453,-25.45166,17.700195,0.0,0.0,0.0,20.533447,63.69873,-4.647217
1769246429185,-0.93847656,0.13183594,0.3486328,-12.939453,-25.45166,17.700195,0.0,0.0,0.0,20.88501,61.798096,-2.5158691
1769246429273,-0.8823242,0.12939453,0.4428711,10.253906,29.418945,-17.578125,0.0,0.0,0.0,20.88501,61.798096,-2.5158691
1769246429284,-0.8823242,0.12939453,0.4428711,10.253906,29.418945,-17.578125,0.0,0.0,0.0,20.85205,62.177124,-2.4719238
1769246429372,-0.8149414,0.18017578,0.48291016,13.977051,19.042969,-8.544922,0.0,0.0,0.0,20.85205,62.177124,-2.4719238
1769246429384,-0.8149414,0.18017578,0.48291016,13.977051,19.042969,-8.544922,0.0,0.0,0.0,20.516968,65.181885,-3.9770508
1769246429472,-0.8457031,0.18798828,0.44580078,-1.0375977,-18.127441,9.033203,0.0,0.0,0.0,20.516968,65.181885,-3.9770508
1769246429484,-0.8457031,0.18798828,0.44580078,-1.0375977,-18.127441,9.033203,0.0,0.0,0.0,20.52246,65.34119,-2.9003906
1769246429572,-0.8676758,0.26611328,0.45751953,31.49414,-3.9672852,-1.4648438,0.0,0.0,0.0,20.52246,65.34119,-2.9003906
1769246429583,-0.8676758,0.26611328,0.45751953,31.49414,-3.9672852,-1.4648438,0.0,0.0,0.0,23.016357,63.85254,-1.8896484
1769246429672,-0.80615234,0.080078125,0.4140625,-18.920898,-25.6958,32.89795,0.0,0.0,0.0,23.016357,63.85254,-1.8896484
1769246429683,-0.80615234,0.080078125,0.4140625,-18.920898,-25.6958,32.89795,0.0,0.0,0.0,24.450073,61.869507,0.5383301
1769246429771,-0.87402344,0.053710938,0.28320312,-3.7231445,-1.0986328,7.446289,0.0,0.0,0.0,24.450073,61.869507,0.5383301
1769246429783,-0.87402344,0.053710938,0.28320312,-3.7231445,-1.0986328,7.446289,0.0,0.0,0.0,24.142456,58.848267,3.817749
1769246429872,-0.86328125,0.21826172,0.35058594,25.817871,44.433594,-24.047852,0.0,0.0,0.0,24.142456,58.848267,3.817749
1769246429883,-0.86328125,0.21826172,0.35058594,25.817871,44.433594,-24.047852,0.0,0.0,0.0,24.796143,62.0343,2.345581
1769246429971,-0.9609375,0.15527344,0.41064453,-19.348145,7.8125,6.286621,0.0,0.0,0.0,24.796143,62.0343,2.345581
1769246429982,-0.9609375,0.15527344,0.41064453,-19.348145,7.8125,6.286621,0.0,0.0,0.0,26.40564,65.45654,2.581787
1769246430071,-0.9794922,0.10449219,0.35888672,-13.549805,14.160156,-3.9672852,0.0,0.0,0.0,26.40564,65.45654,2.581787
1769246430082,-0.9794922,0.10449219,0.35888672,-13.549805,14.160156,-3.9672852,0.0,0.0,0.0,25.697021,66.00037,4.2352295
1769246430170,-1.019043,0.17382812,0.33740234,10.559082,6.713867,-15.50293,0.0,0.0,0.0,25.697021,66.00037,4.2352295
1769246430182,-1.019043,0.17382812,0.33740234,10.559082,6.713867,-15.50293,0.0,0.0,0.0,23.92273,67.84607,1.5435791
1769246430270,-0.9321289,0.13085938,0.35986328,-16.418457,-4.8217773,3.90625,0.0,0.0,0.0,23.92273,67.84607,1.5435791
1769246430282,-0.9321289,0.13085938,0.35986328,-16.418457,-4.8217773,3.90625,0.0,0.0,0.0,22.269287,68.274536,1.1975098
1769246430370,-0.95458984,0.22021484,0.38476562,-0.30517578,-5.2490234,-1.3427734,0.0,0.0,0.0,22.269287,68.274536,1.1975098
1769246430381,-0.95458984,0.22021484,0.38476562,-0.30517578,-5.2490234,-1.3427734,0.0,0.0,0.0,20.566406,67.857056,-1.104126
1769246430469,-0.89453125,0.15234375,0.36621094,-5.9814453,-12.390137,13.916016,0.0,0.0,0.0,20.566406,67.857056,-1.104126
1769246430481,-0.89453125,0.15234375,0.36621094,-5.9814453,-12.390137,13.916016,0.0,0.0,0.0,21.76941,66.36841,1.9775391
1769246430569,-0.83935547,0.21679688,0.39746094,22.216797,6.225586,-12.329102,0.0,0.0,0.0,21.76941,66.36841,1.9775391
1769246430581,-0.83935547,0.21679688,0.39746094,22.216797,6.225586,-12.329102,0.0,0.0,0.0,21.994629,66.1322,0.6536865
1769246430669,-0.89501953,0.18408203,0.49414062,-5.6762695,15.74707,-11.535645,0.0,0.0,0.0,21.994629,66.1322,0.6536865
1769246430680,-0.89501953,0.18408203,0.49414062,-5.6762695,15.74707,-11.535645,0.0,0.0,0.0,21.670532,67.71423,0.07141113
1769246430769,-0.89160156,0.06933594,0.46679688,1.7700195,-34.79004,4.272461,0.0,0.0,0.0,21.670532,67.71423,0.07141113
1769246430780,-0.89160156,0.06933594,0.46679688,1.7700195,-34.79004,4.272461,0.0,0.0,0.0,20.308228,66.5387,-0.06591797
1769246430868,-0.90966797,0.21240234,0.28564453,-1.2817383,-28.442383,5.859375,0.0,0.0,0.0,20.308228,66.5387,-0.06591797
1769246430880,-0.90966797,0.21240234,0.28564453,-1.2817383,-28.442383,5.859375,0.0,0.0,0.0,18.149414,62.193604,-1.8896484
1769246430968,-0.9057617,0.1352539,0.3671875,0.9765625,15.991211,-8.483887,0.0,0.0,0.0,18.149414,62.193604,-1.8896484
1769246430980,-0.9057617,0.1352539,0.3671875,0.9765625,15.991211,-8.483887,0.0,0.0,0.0,17.896729,62.962646,-2.4060059
1769246431068,-0.9199219,0.067871094,0.43408203,-7.2021484,5.493164,-1.0375977,0.0,0.0,0.0,17.896729,62.962646,-2.4060059
1769246431079,-0.9199219,0.067871094,0.43408203,-7.2021484,5.493164,-1.0375977,0.0,0.0,0.0,17.561646,64.5282,-2.37854
1769246431167,-0.9628906,0.12109375,0.2993164,-5.3710938,-0.30517578,2.8686523,0.0,0.0,0.0,17.561646,64.5282,-2.37854
1769246431179,-0.9628906,0.12109375,0.2993164,-5.3710938,-0.30517578,2.8686523,0.0,0.0,0.0,17.352905,64.48425,-2.647705
1769246431267,-0.9970703,0.14013672,0.3984375,-17.700195,13.122559,10.314941,0.0,0.0,0.0,17.352905,64.48425,-2.647705
1769246431279,-0.9970703,0.14013672,0.3984375,-17.700195,13.122559,10.314941,0.0,0.0,0.0,17.814331,65.13794,-1.3677979
1769246431367,-0.8383789,0.20898438,0.40771484,8.544922,2.5024414,-0.6713867,0.0,0.0,0.0,17.814331,65.13794,-1.3677979
1769246431378,-0.8383789,0.20898438,0.40771484,8.544922,2.5024414,-0.6713867,0.0,0.0,0.0,20.022583,65.57739,-1.104126
1769246431467,-0.89941406,0.11376953,0.36279297,-15.563965,-14.526367,15.075684,0.0,0.0,0.0,20.022583,65.57739,-1.104126
1769246431478,-0.89941406,0.11376953,0.36279297,-15.563965,-14.526367,15.075684,0.0,0.0,0.0,21.011353,64.852295,1.4831543
1769246431566,-1.0024414,0.12939453,0.3491211,-1.4038086,18.798828,-9.58252,0.0,0.0,0.0,21.011353,64.852295,1.4831543
1769246431578,-1.0024414,0.12939453,0.3491211,-1.4038086,18.798828,-9.58252,0.0,0.0,0.0,20.64331,64.79736,1.7523193
1769246431666,-0.8886719,0.13427734,0.45263672,-3.540039,9.887695,-10.314941,0.0,0.0,0.0,20.64331,64.79736,1.7523193
1769246431677,-0.8886719,0.13427734,0.45263672,-3.540039,9.887695,-10.314941,0.0,0.0,0.0,19.231567,66.8573,-0.8734131
1769246431766,-0.81689453,0.118652344,0.45263672,0.48828125,11.108398,-1.4038086,0.0,0.0,0.0,19.231567,66.8573,-0.8734131
1769246431777,-0.81689453,0.118652344,0.45263672,0.48828125,11.108398,-1.4038086,0.0,0.0,0.0,17.924194,67.43408,-1.0766602
1769246431865,-0.90625,0.28759766,0.46972656,47.668457,-19.042969,1.953125,0.0,0.0,0.0,17.924194,67.43408,-1.0766602
1769246431877,-0.90625,0.28759766,0.46972656,47.668457,-19.042969,1.953125,0.0,0.0,0.0,20.429077,67.08801,-0.6866455
1769246431965,-0.87890625,0.16894531,0.36279297,-32.836914,-20.629883,29.968262,0.0,0.0,0.0,20.429077,67.08801,-0.6866455
1769246431977,-0.87890625,0.16894531,0.36279297,-32.836914,-20.629883,29.968262,0.0,0.0,0.0,22.236328,63.73169,1.505127
1769246432065,-0.9199219,-0.029296875,0.4375,10.253906,-0.5493164,5.6762695,0.0,0.0,0.0,22.236328,63.73169,1.505127
1769246432076,-0.9199219,-0.029296875,0.4375,10.253906,-0.5493164,5.6762695,0.0,0.0,0.0,23.285522,62.29248,4.482422
1769246432165,-0.9345703,0.1850586,0.33740234,12.084961,6.286621,-0.48828125,0.0,0.0,0.0,23.285522,62.29248,4.482422
1769246432176,-0.9345703,0.1850586,0.33740234,12.084961,6.286621,-0.48828125,0.0,0.0,0.0,24.505005,62.9187,4.312134
1769246432264,-0.9086914,0.17138672,0.32666016,5.126953,7.873535,-3.6621094,0.0,0.0,0.0,24.505005,62.9187,4.312134
1769246432277,-0.9086914,0.17138672,0.32666016,5.126953,7.873535,-3.6621094,0.0,0.0,0.0,25.01587,63.929443,3.8232422
1769246432364,-0.93652344,0.125,0.40185547,-0.12207031,11.779785,-2.9907227,0.0,0.0,0.0,25.01587,63.929443,3.8232422
1769246432376,-0.93652344,0.125,0.40185547,-0.12207031,11.779785,-2.9907227,0.0,0.0,0.0,25.180664,65.028076,3.416748
1769246432464,-0.98828125,0.14550781,0.37841797,0.91552734,-13.793945,-3.7841797,0.0,0.0,0.0,25.180664,65.028076,3.416748
1769246432476,-0.98828125,0.14550781,0.37841797,0.91552734,-13.793945,-3.7841797,0.0,0.0,0.0,24.422607,65.33569,2.0874023
1769246432563,-0.92626953,0.18896484,0.40185547,-15.563965,7.6904297,-2.4414062,0.0,0.0,0.0,24.422607,65.33569,2.0874023
1769246432575,-0.92626953,0.18896484,0.40185547,-15.563965,7.6904297,-2.4414062,0.0,0.0,0.0,22.758179,64.91821,0.69763184
1769246432663,-0.8671875,0.16601562,0.43847656,27.160645,-10.681152,-7.080078,0.0,0.0,0.0,22.758179,64.91821,0.69763184
1769246432674,-0.8671875,0.16601562,0.43847656,27.160645,-10.681152,-7.080078,0.0,0.0,0.0,22.714233,65.74768,0.34606934
1769246432763,-0.92578125,0.16455078,0.3251953,-30.700684,-8.361816,15.625,0.0,0.0,0.0,22.714233,65.74768,0.34606934
1769246432774,-0.92578125,0.16455078,0.3251953,-30.700684,-8.361816,15.625,0.0,0.0,0.0,22.192383,63.511963,-0.56030273
1769246432863,-0.86083984,0.13720703,0.4086914,15.563965,15.991211,-7.751465,0.0,0.0,0.0,22.192383,63.511963,-0.56030273
1769246432874,-0.86083984,0.13720703,0.4086914,15.563965,15.991211,-7.751465,0.0,0.0,0.0,22.631836,64.23706,0.6756592
1769246432962,-0.8232422,0.19335938,0.41210938,-5.2490234,11.169434,2.5024414,0.0,0.0,0.0,22.631836,64.23706,0.6756592
1769246432974,-0.8232422,0.19335938,0.41210938,-5.2490234,11.169434,2.5024414,0.0,0.0,0.0,23.763428,65.41809,1.2304688
1769246433062,-0.8647461,0.22460938,0.46044922,17.822266,18.554688,-13.977051,0.0,0.0,0.0,23.763428,65.41809,1.2304688
1769246433073,-0.8647461,0.22460938,0.46044922,17.822266,18.554688,-13.977051,0.0,0.0,0.0,24.916992,66.87378,2.4609375
1769246433162,-0.9042969,0.15332031,0.5107422,-17.211914,-9.399414,0.79345703,0.0,0.0,0.0,24.916992,66.87378,2.4609375
1769246433173,-0.9042969,0.15332031,0.5107422,-17.211914,-9.399414,0.79345703,0.0,0.0,0.0,24.191895,67.73071,1.675415
1769246433261,-0.92333984,0.14648438,0.3203125,-9.765625,-52.79541,18.371582,0.0,0.0,0.0,24.191895,67.73071,1.675415
1769246433273,-0.92333984,0.14648438,0.3203125,-9.765625,-52.79541,18.371582,0.0,0.0,0.0,22.549438,63.413086,1.9500732
1769246433361,-0.9243164,0.16113281,0.30419922,-2.8076172,-1.2817383,0.18310547,0.0,0.0,0.0,22.549438,63.413086,1.9500732
1769246433373,-0.9243164,0.16113281,0.30419922,-2.8076172,-1.2817383,0.18310547,0.0,0.0,0.0,21.84082,60.232544,1.7852783
1769246433461,-0.92822266,0.09277344,0.453125,0.8544922,15.380859,-10.437012,0.0,0.0,0.0,21.84082,60.232544,1.7852783
1769246433472,-0.92822266,0.09277344,0.453125,0.8544922,15.380859,-10.437012,0.0,0.0,0.0,21.121216,62.111206,0.32409668
1769246433561,-0.95166016,0.16357422,0.37353516,-31.49414,-4.8217773,12.084961,0.0,0.0,0.0,21.121216,62.111206,0.32409668
1769246433572,-0.95166016,0.16357422,0.37353516,-31.49414,-4.8217773,12.084961,0.0,0.0,0.0,20.028076,62.649536,0.10986328
1769246433660,-0.9819336,0.13623047,0.37695312,-11.535645,23.07129,-2.4414062,0.0,0.0,0.0,20.028076,62.649536,0.10986328
1769246433672,-0.9819336,0.13623047,0.37695312,-11.535645,23.07129,-2.4414062,0.0,0.0,0.0,19.313965,62.874756,1.5875244
1769246433760,-0.92822266,0.15576172,0.41455078,6.1035156,3.0517578,-3.3569336,0.0,0.0,0.0,19.313965,62.874756,1.5875244
1769246433771,-0.92822266,0.15576172,0.41455078,6.1035156,3.0517578,-3.3569336,0.0,0.0,0.0,20.10498,65.35217,2.4884033
1769246433860,-0.8959961,0.13623047,0.33935547,-21.362305,0.36621094,10.314941,0.0,0.0,0.0,20.10498,65.35217,2.4884033
1769246433871,-0.8959961,0.13623047,0.33935547,-21.362305,0.36621094,10.314941,0.0,0.0,0.0,19.967651,65.077515,2.9663086
1769246433959,-0.9267578,0.056152344,0.40527344,-3.6621094,18.859863,-5.6762695,0.0,0.0,0.0,19.967651,65.077515,2.9663086
1769246433971,-0.9267578,0.056152344,0.40527344,-3.6621094,18.859863,-5.6762695,0.0,0.0,0.0,20.028076,65.95642,4.993286
1769246434059,-0.85839844,0.17871094,0.390625,-7.2631836,4.5166016,-5.6152344,0.0,0.0,0.0,20.028076,65.95642,4.993286
1769246434070,-0.85839844,0.17871094,0.390625,-7.2631836,4.5166016,-5.6152344,0.0,0.0,0.0,18.847046,67.65381,3.2299805
1769246434159,-0.8876953,0.17919922,0.43603516,-1.4648438,26.550293,-0.5493164,0.0,0.0,0.0,18.847046,67.65381,3.2299805
1769246434170,-0.8876953,0.17919922,0.43603516,-1.4648438,26.550293,-0.5493164,0.0,0.0,0.0,18.198853,68.26355,4.147339
1769246434259,-0.91748047,0.28466797,0.43896484,28.015137,-1.0375977,-2.8076172,0.0,0.0,0.0,18.198853,68.26355,4.147339
1769246434270,-0.91748047,0.28466797,0.43896484,28.015137,-1.0375977,-2.8076172,0.0,0.0,0.0,21.088257,70.35095,4.581299
1769246434358,-0.9379883,0.052734375,0.29492188,-33.5083,-30.639648,28.015137,0.0,0.0,0.0,21.088257,70.35095,4.581299
1769246434370,-0.9379883,0.052734375,0.29492188,-33.5083,-30.639648,28.015137,0.0,0.0,0.0,22.560425,67.576904,7.5476074
1769246434458,-0.9326172,0.059570312,0.32128906,30.029297,-5.1879883,-3.6010742,0.0,0.0,0.0,22.560425,67.576904,7.5476074
1769246434470,-0.9326172,0.059570312,0.32128906,30.029297,-5.1879883,-3.6010742,0.0,0.0,0.0,22.642822,66.19263,7.36084
1769246434558,-0.9873047,0.2055664,0.25195312,-6.8969727,6.7749023,6.0424805,0.0,0.0,0.0,22.642822,66.19263,7.36084
1769246434569,-0.9873047,0.2055664,0.25195312,-6.8969727,6.7749023,6.0424805,0.0,0.0,0.0,23.131714,66.22009,6.767578
1769246434658,-0.94970703,0.07519531,0.37646484,14.770508,15.930176,-15.441895,0.0,0.0,0.0,23.131714,66.22009,6.767578
1769246434670,-0.94970703,0.07519531,0.37646484,14.770508,15.930176,-15.441895,0.0,0.0,0.0,22.873535,68.04932,5.1800537
1769246434757,-0.9580078,0.115234375,0.38623047,-8.361816,-4.211426,-1.159668,0.0,0.0,0.0,22.873535,68.04932,5.1800537
1769246434769,-0.9580078,0.115234375,0.38623047,-8.361816,-4.211426,-1.159668,0.0,0.0,0.0,21.560669,68.73596,3.5980225
1769246434857,-0.9760742,0.13574219,0.27392578,2.1362305,2.380371,-9.033203,0.0,0.0,0.0,21.560669,68.73596,3.5980225
1769246434868,-0.9760742,0.13574219,0.27392578,2.1362305,2.380371,-9.033203,0.0,0.0,0.0,19.352417,68.48877,1.170044
1769246434956,-0.9506836,0.08691406,0.4091797,-7.8125,-5.7373047,2.6245117,0.0,0.0,0.0,19.352417,68.48877,1.170044
1769246434968,-0.9506836,0.08691406,0.4091797,-7.8125,-5.7373047,2.6245117,0.0,0.0,0.0,17.545166,69.16443,0.3515625
1769246435056,-0.96240234,0.12695312,0.3022461,-10.7421875,-3.112793,1.6479492,0.0,0.0,0.0,17.545166,69.16443,0.3515625
1769246435068,-0.96240234,0.12695312,0.3022461,-10.7421875,-3.112793,1.6479492,0.0,0.0,0.0,15.968628,68.01636,-0.6756592
1769246435156,-0.89404297,0.088378906,0.36523438,-10.681152,2.5634766,-1.8310547,0.0,0.0,0.0,15.968628,68.01636,-0.6756592
1769246435167,-0.89404297,0.088378906,0.36523438,-10.681152,2.5634766,-1.8310547,0.0,0.0,0.0,15.825806,67.98889,0.0769043
1769246435256,-0.82373047,0.11621094,0.3671875,4.333496,7.2631836,-8.239746,0.0,0.0,0.0,15.825806,67.98889,0.0769043
1769246435268,-0.82373047,0.11621094,0.3671875,4.333496,7.2631836,-8.239746,0.0,0.0,0.0,15.424805,68.80737,-0.30212402
1769246435355,-0.93847656,0.09423828,0.45214844,6.652832,11.352539,-13.366699,0.0,0.0,0.0,15.424805,68.80737,-0.30212402
1769246435367,-0.93847656,0.09423828,0.45214844,6.652832,11.352539,-13.366699,0.0,0.0,0.0,13.408813,69.57092,-2.2906494
1769246435455,-0.8935547,0.083496094,0.39794922,8.361816,-27.770996,0.48828125,0.0,0.0,0.0,13.408813,69.57092,-2.2906494
1769246435466,-0.8935547,0.083496094,0.39794922,8.361816,-27.770996,0.48828125,0.0,0.0,0.0,12.211304,69.16992,-3.9550781
1769246435555,-0.9165039,0.08642578,0.25,-10.925293,-22.155762,7.9956055,0.0,0.0,0.0,12.211304,69.16992,-3.9550781
1769246435566,-0.9165039,0.08642578,0.25,-10.925293,-22.155762,7.9956055,0.0,0.0,0.0,11.881714,65.54993,-3.3618164
1769246435654,-0.95166016,0.06201172,0.3779297,-1.7700195,16.052246,-5.2490234,0.0,0.0,0.0,11.881714,65.54993,-3.3618164
1769246435666,-0.95166016,0.06201172,0.3779297,-1.7700195,16.052246,-5.2490234,0.0,0.0,0.0,11.508179,66.10474,-4.32312
1769246435754,-0.953125,0.06640625,0.34033203,-14.465332,-8.178711,8.483887,0.0,0.0,0.0,11.508179,66.10474,-4.32312
1769246435766,-0.953125,0.06640625,0.34033203,-14.465332,-8.178711,8.483887,0.0,0.0,0.0,11.304932,66.51123,-3.8287354
1769246435854,-0.9770508,0.11376953,0.2866211,-14.892578,6.3476562,8.850098,0.0,0.0,0.0,11.304932,66.51123,-3.8287354
1769246435866,-0.9770508,0.11376953,0.2866211,-14.892578,6.3476562,8.850098,0.0,0.0,0.0,11.986084,66.242065,-2.1038818
1769246435954,-1.0473633,0.078125,0.37695312,-32.77588,20.141602,16.723633,0.0,0.0,0.0,11.986084,66.242065,-2.1038818
1769246435965,-1.0473633,0.078125,0.37695312,-32.77588,20.141602,16.723633,0.0,0.0,0.0,14.024048,67.69226,1.6259766
1769246436053,-0.9140625,0.11767578,0.31835938,-6.164551,14.404297,-0.24414062,0.0,0.0,0.0,14.024048,67.69226,1.6259766
1769246436065,-0.9140625,0.11767578,0.31835938,-6.164551,14.404297,-0.24414062,0.0,0.0,0.0,15.534668,68.33496,2.7410889
1769246436153,-0.9560547,0.057128906,0.33984375,-9.216309,-0.36621094,3.112793,0.0,0.0,0.0,15.534668,68.33496,2.7410889
1769246436165,-0.9560547,0.057128906,0.33984375,-9.216309,-0.36621094,3.112793,0.0,0.0,0.0,16.177368,68.862305,3.3563232
1769246436253,-0.8564453,0.034179688,0.38671875,14.038086,18.188477,-17.39502,0.0,0.0,0.0,16.177368,68.862305,3.3563232
1769246436264,-0.8564453,0.034179688,0.38671875,14.038086,18.188477,-17.39502,0.0,0.0,0.0,15.05127,70.076294,2.005005
1769246436353,-0.8852539,0.06982422,0.4814453,-19.104004,4.5166016,4.1503906,0.0,0.0,0.0,15.05127,70.076294,2.005005
1769246436364,-0.8852539,0.06982422,0.4814453,-19.104004,4.5166016,4.1503906,0.0,0.0,0.0,13.331909,71.54846,0.5767822
1769246436452,-0.9404297,0.12011719,0.39453125,8.605957,-25.817871,5.6762695,0.0,0.0,0.0,13.331909,71.54846,0.5767822
1769246436464,-0.9404297,0.12011719,0.39453125,8.605957,-25.817871,5.6762695,0.0,0.0,0.0,13.491211,69.32373,1.7962646
1769246436552,-0.9199219,0.012207031,0.33398438,3.0517578,-4.5166016,0.18310547,0.0,0.0,0.0,13.491211,69.32373,1.7962646
1769246436564,-0.9199219,0.012207031,0.33398438,3.0517578,-4.5166016,0.18310547,0.0,0.0,0.0,14.106445,67.60986,1.8786621
1769246436652,-0.91259766,0.083496094,0.36767578,4.5776367,1.5869141,-1.6479492,0.0,0.0,0.0,14.106445,67.60986,1.8786621
1769246436663,-0.91259766,0.083496094,0.36767578,4.5776367,1.5869141,-1.6479492,0.0,0.0,0.0,13.721924,67.648315,1.2359619
1769246436751,-0.9375,0.1616211,0.32128906,-5.3710938,-3.1738281,6.4697266,0.0,0.0,0.0,13.721924,67.648315,1.2359619
1769246436763,-0.9375,0.1616211,0.32128906,-5.3710938,-3.1738281,6.4697266,0.0,0.0,0.0,15.067749,67.263794,1.3952637
1769246436851,-0.953125,0.02734375,0.3227539,6.0424805,11.962891,-0.9765625,0.0,0.0,0.0,15.067749,67.263794,1.3952637
1769246436863,-0.953125,0.02734375,0.3227539,6.0424805,11.962891,-0.9765625,0.0,0.0,0.0,16.24878,67.43408,2.109375
1769246436951,-0.9633789,0.029296875,0.3330078,-6.8969727,-3.2348633,3.2958984,0.0,0.0,0.0,16.24878,67.43408,2.109375
1769246436963,-0.9633789,0.029296875,0.3330078,-6.8969727,-3.2348633,3.2958984,0.0,0.0,0.0,16.831055,68.19763,2.543335
1769246437051,-0.98876953,0.056152344,0.3491211,13.305664,2.746582,-13.549805,0.0,0.0,0.0,16.831055,68.19763,2.543335
1769246437062,-0.98876953,0.056152344,0.3491211,13.305664,2.746582,-13.549805,0.0,0.0,0.0,15.303955,68.52173,0.43395996
1769246437150,-0.94140625,0.060058594,0.33691406,-2.6855469,9.460449,-6.8359375,0.0,0.0,0.0,15.303955,68.52173,0.43395996
1769246437162,-0.94140625,0.060058594,0.33691406,-2.6855469,9.460449,-6.8359375,0.0,0.0,0.0,13.859253,69.208374,-2.0489502
1769246437250,-0.9067383,0.056640625,0.34814453,3.479004,-16.296387,-1.4648438,0.0,0.0,0.0,13.859253,69.208374,-2.0489502
1769246437262,-0.9067383,0.056640625,0.34814453,3.479004,-16.296387,-1.4648438,0.0,0.0,0.0,12.513428,69.24133,-3.2629395
1769246437350,-0.93310547,0.07373047,0.32128906,-1.3427734,-5.6152344,2.9296875,0.0,0.0,0.0,12.513428,69.24133,-3.2629395
1769246437361,-0.93310547,0.07373047,0.32128906,-1.3427734,-5.6152344,2.9296875,0.0,0.0,0.0,12.200317,67.92297,-3.5266113
1769246437449,-0.9067383,0.092285156,0.37939453,3.2348633,2.0141602,-0.6713867,0.0,0.0,0.0,12.200317,67.92297,-3.5266113
1769246437461,-0.9067383,0.092285156,0.37939453,3.2348633,2.0141602,-0.6713867,0.0,0.0,0.0,12.941895,67.92297,-3.2025146
1769246437549,-0.8613281,0.08251953,0.38427734,-0.30517578,2.319336,-3.3569336,0.0,0.0,0.0,12.941895,67.92297,-3.2025146
1769246437561,-0.8613281,0.08251953,0.38427734,-0.30517578,2.319336,-3.3569336,0.0,0.0,0.0,12.925415,68.32947,-2.977295
1769246437649,-0.8989258,0.10449219,0.4404297,10.864258,14.892578,-18.249512,0.0,0.0,0.0,12.925415,68.32947,-2.977295
1769246437660,-0.8989258,0.10449219,0.4404297,10.864258,14.892578,-18.249512,0.0,0.0,0.0,11.134644,69.038086,-4.850464
1769246437749,-0.88623047,0.09326172,0.4638672,14.953613,-13.85498,-5.7373047,0.0,0.0,0.0,11.134644,69.038086,-4.850464
1769246437760,-0.88623047,0.09326172,0.4638672,14.953613,-13.85498,-5.7373047,0.0,0.0,0.0,9.234009,69.938965,-8.201294
1769246437848,-0.9189453,0.0859375,0.2626953,-9.399414,-39.245605,11.474609,0.0,0.0,0.0,9.234009,69.938965,-8.201294
1769246437860,-0.9189453,0.0859375,0.2626953,-9.399414,-39.245605,11.474609,0.0,0.0,0.0,9.596558,66.02783,-7.1411133
1769246437948,-0.95654297,0.030273438,0.34765625,7.5683594,7.751465,-7.1411133,0.0,0.0,0.0,9.596558,66.02783,-7.1411133
1769246437960,-0.95654297,0.030273438,0.34765625,7.5683594,7.751465,-7.1411133,0.0,0.0,0.0,9.959106,64.731445,-7.091675
1769246438048,-0.92529297,0.033691406,0.3618164,-7.9956055,-9.094238,2.6855469,0.0,0.0,0.0,9.959106,64.731445,-7.091675
1769246438059,-0.92529297,0.033691406,0.3618164,-7.9956055,-9.094238,2.6855469,0.0,0.0,0.0,9.371338,65.31372,-8.388062
1769246438148,-0.94384766,0.091796875,0.3173828,-6.286621,1.7700195,7.1411133,0.0,0.0,0.0,9.371338,65.31372,-8.388062
1769246438159,-0.94384766,0.091796875,0.3173828,-6.286621,1.7700195,7.1411133,0.0,0.0,0.0,9.360352,64.77539,-7.8167725
1769246438247,-1.0473633,0.122558594,0.37695312,-10.375977,10.070801,8.911133,0.0,0.0,0.0,9.360352,64.77539,-7.8167725
1769246438259,-1.0473633,0.122558594,0.37695312,-10.375977,10.070801,8.911133,0.0,0.0,0.0,10.5633545,65.67078,-6.05896
1769246438347,-0.9458008,0.099121094,0.41064453,8.850098,7.019043,-1.5258789,0.0,0.0,0.0,10.5633545,65.67078,-6.05896
1769246438358,-0.9458008,0.099121094,0.41064453,8.850098,7.019043,-1.5258789,0.0,0.0,0.0,12.095947,66.500244,-5.0756836
1769246438447,-0.93359375,0.06982422,0.3642578,-7.6293945,-5.3710938,7.6904297,0.0,0.0,0.0,12.095947,66.500244,-5.0756836
1769246438458,-0.93359375,0.06982422,0.3642578,-7.6293945,-5.3710938,7.6904297,0.0,0.0,0.0,12.952881,66.97266,-3.6364746
1769246438546,-0.94384766,0.03125,0.34521484,2.380371,11.84082,-3.112793,0.0,0.0,0.0,12.952881,66.97266,-3.6364746
1769246438558,-0.94384766,0.03125,0.34521484,2.380371,11.84082,-3.112793,0.0,0.0,0.0,13.216553,67.24182,-2.7630615
1769246438646,-0.82666016,0.038085938,0.45117188,-8.544922,25.32959,-6.164551,0.0,0.0,0.0,13.216553,67.24182,-2.7630615
1769246438658,-0.82666016,0.038085938,0.45117188,-8.544922,25.32959,-6.164551,0.0,0.0,0.0,11.859741,69.834595,-4.482422
1769246438746,-0.88427734,0.09375,0.47460938,-10.620117,5.126953,4.9438477,0.0,0.0,0.0,11.859741,69.834595,-4.482422
1769246438757,-0.88427734,0.09375,0.47460938,-10.620117,5.126953,4.9438477,0.0,0.0,0.0,11.35437,70.51575,-2.6312256
1769246438845,-0.8857422,0.17822266,0.38623047,9.277344,-18.127441,4.5166016,0.0,0.0,0.0,11.35437,70.51575,-2.6312256
1769246438857,-0.8857422,0.17822266,0.38623047,9.277344,-18.127441,4.5166016,0.0,0.0,0.0,12.749634,69.01062,-2.1643066
1769246438945,-0.9169922,-0.04296875,0.32470703,-4.272461,-7.6293945,9.58252,0.0,0.0,0.0,12.749634,69.01062,-2.1643066
1769246438957,-0.9169922,-0.04296875,0.32470703,-4.272461,-7.6293945,9.58252,0.0,0.0,0.0,14.205322,67.22534,0.32409668
1769246439045,-0.9589844,0.08300781,0.38330078,12.084961,-3.6010742,0.30517578,0.0,0.0,0.0,14.205322,67.22534,0.32409668
1769246439057,-0.9589844,0.08300781,0.38330078,12.084961,-3.6010742,0.30517578,0.0,0.0,0.0,15.095215,67.08801,0.16479492
1769246439145,-0.9716797,0.103027344,0.29345703,-0.8544922,13.122559,1.8920898,0.0,0.0,0.0,15.095215,67.08801,0.16479492
1769246439156,-0.9716797,0.103027344,0.29345703,-0.8544922,13.122559,1.8920898,0.0,0.0,0.0,16.045532,67.59888,0.64819336
1769246439244,-0.93408203,0.03125,0.35888672,-2.9907227,15.075684,-0.6713867,0.0,0.0,0.0,16.045532,67.59888,0.64819336
1769246439256,-0.93408203,0.03125,0.35888672,-2.9907227,15.075684,-0.6713867,0.0,0.0,0.0,16.501465,69.06006,0.63171387
1769246439344,-0.94677734,0.06201172,0.2998047,-4.333496,-2.6855469,1.7089844,0.0,0.0,0.0,16.501465,69.06006,0.63171387
1769246439356,-0.94677734,0.06201172,0.2998047,-4.333496,-2.6855469,1.7089844,0.0,0.0,0.0,16.342163,69.37317,0.6152344
1769246439444,-0.9760742,0.103515625,0.34179688,-2.5024414,-4.0283203,2.4414062,0.0,0.0,0.0,16.342163,69.37317,0.6152344
1769246439455,-0.9760742,0.103515625,0.34179688,-2.5024414,-4.0283203,2.4414062,0.0,0.0,0.0,15.946655,69.07654,0.18127441
1769246439543,-0.9658203,0.083984375,0.3852539,-3.3569336,2.0751953,-1.4648438,0.0,0.0,0.0,15.946655,69.07654,0.18127441
1769246439555,-0.9658203,0.083984375,0.3852539,-3.3569336,2.0751953,-1.4648438,0.0,0.0,0.0,15.419312,69.417114,0.40100098
1769246439643,-0.96875,0.115234375,0.2993164,-3.540039,0.30517578,2.1362305,0.0,0.0,0.0,15.419312,69.417114,0.40100098
1769246439655,-0.96875,0.115234375,0.2993164,-3.540039,0.30517578,2.1362305,0.0,0.0,0.0,15.067749,69.09851,0.7965088
1769246439743,-0.9213867,0.106933594,0.3310547,-4.5776367,-7.080078,6.591797,0.0,0.0,0.0,15.067749,69.09851,0.7965088
1769246439754,-0.9213867,0.106933594,0.3310547,-4.5776367,-7.080078,6.591797,0.0,0.0,0.0,15.413818,68.25256,1.3842773
1769246439843,-0.88623047,0.08984375,0.39892578,1.0375977,7.9956055,-6.591797,0.0,0.0,0.0,15.413818,68.25256,1.3842773
1769246439854,-0.88623047,0.08984375,0.39892578,1.0375977,7.9956055,-6.591797,0.0,0.0,0.0,15.457764,68.32947,1.2139893
1769246439942,-0.88183594,0.15527344,0.41796875,12.6953125,2.380371,-15.319824,0.0,0.0,0.0,15.457764,68.32947,1.2139893
1769246439954,-0.88183594,0.15527344,0.41796875,12.6953125,2.380371,-15.319824,0.0,0.0,0.0,14.024048,69.071045,-0.95581055
1769246440042,-0.953125,0.09667969,0.4814453,12.512207,6.958008,-15.869141,0.0,0.0,0.0,14.024048,69.071045,-0.95581055
1769246440053,-0.953125,0.09667969,0.4814453,12.512207,6.958008,-15.869141,0.0,0.0,0.0,11.552124,69.87854,-3.9331055
1769246440142,-0.86035156,0.107421875,0.33398438,12.817383,-37.719727,1.953125,0.0,0.0,0.0,11.552124,69.87854,-3.9331055
1769246440153,-0.86035156,0.107421875,0.33398438,12.817383,-37.719727,1.953125,0.0,0.0,0.0,10.777588,67.77466,-6.361084
1769246440241,-0.9379883,0.060546875,0.3095703,-1.159668,-10.925293,2.319336,0.0,0.0,0.0,10.777588,67.77466,-6.361084
1769246440253,-0.9379883,0.060546875,0.3095703,-1.159668,-10.925293,2.319336,0.0,0.0,0.0,10.986328,65.044556,-5.8117676
1769246440341,-0.93847656,0.059570312,0.4140625,9.82666,5.2490234,-5.859375,0.0,0.0,0.0,10.986328,65.044556,-5.8117676
1769246440352,-0.93847656,0.059570312,0.4140625,9.82666,5.2490234,-5.859375,0.0,0.0,0.0,10.81604,65.59387,-7.069702
1769246440441,-0.9838867,0.047851562,0.25146484,-13.000488,-9.58252,11.047363,0.0,0.0,0.0,10.81604,65.59387,-7.069702
1769246440452,-0.9838867,0.047851562,0.25146484,-13.000488,-9.58252,11.047363,0.0,0.0,0.0,10.997314,65.11047,-6.668701
1769246440540,-0.96728516,0.053710938,0.26611328,5.3100586,15.563965,-2.6245117,0.0,0.0,0.0,10.997314,65.11047,-6.668701
1769246440552,-0.96728516,0.053710938,0.26611328,5.3100586,15.563965,-2.6245117,0.0,0.0,0.0,11.90918,65.76965,-5.888672
1769246440640,-0.94628906,0.08935547,0.4038086,-17.39502,13.61084,5.859375,0.0,0.0,0.0,11.90918,65.76965,-5.888672
1769246440652,-0.94628906,0.08935547,0.4038086,-17.39502,13.61084,5.859375,0.0,0.0,0.0,12.3046875,67.98889,-5.7019043
1769246440740,-0.97509766,0.14257812,0.4350586,-17.456055,13.73291,2.1972656,0.0,0.0,0.0,12.3046875,67.98889,-5.7019043
1769246440751,-0.97509766,0.14257812,0.4350586,-17.456055,13.73291,2.1972656,0.0,0.0,0.0,13.546143,68.52722,-4.2407227
1769246440840,-0.98291016,0.087890625,0.30419922,-16.967773,-14.099121,10.681152,0.0,0.0,0.0,13.546143,68.52722,-4.2407227
1769246440851,-0.98291016,0.087890625,0.30419922,-16.967773,-14.099121,10.681152,0.0,0.0,0.0,14.474487,68.03284,-2.246704
1769246440939,-0.87158203,0.03125,0.40429688,9.82666,19.104004,-13.244629,0.0,0.0,0.0,14.474487,68.03284,-2.246704
1769246440951,-0.87158203,0.03125,0.40429688,9.82666,19.104004,-13.244629,0.0,0.0,0.0,14.243774,68.36792,-2.1807861
1769246441039,-0.84472656,0.09472656,0.48242188,-6.1035156,13.122559,-5.065918,0.0,0.0,0.0,14.243774,68.36792,-2.1807861
1769246441050,-0.84472656,0.09472656,0.48242188,-6.1035156,13.122559,-5.065918,0.0,0.0,0.0,12.628784,70.41138,-4.2352295
1769246441139,-0.8959961,0.16210938,0.46484375,16.296387,-13.61084,7.446289,0.0,0.0,0.0,12.628784,70.41138,-4.2352295
1769246441151,-0.8959961,0.16210938,0.46484375,16.296387,-13.61084,7.446289,0.0,0.0,0.0,13.21106,69.97742,-2.4938965
1769246441238,-0.90527344,0.05029297,0.35742188,-0.36621094,-12.145996,5.92041,0.0,0.0,0.0,13.21106,69.97742,-2.4938965
1769246441250,-0.90527344,0.05029297,0.35742188,-0.36621094,-12.145996,5.92041,0.0,0.0,0.0,14.776611,67.89551,-1.0601807
1769246441338,-0.9301758,0.02734375,0.34570312,11.59668,2.1362305,1.6479492,0.0,0.0,0.0,14.776611,67.89551,-1.0601807
1769246441351,-0.9301758,0.02734375,0.34570312,11.59668,2.1362305,1.6479492,0.0,0.0,0.0,15.490723,67.29675,-0.63720703
1769246441438,-0.91259766,0.1665039,0.30078125,11.901855,-6.3476562,3.9672852,0.0,0.0,0.0,15.490723,67.29675,-0.63720703
1769246441450,-0.91259766,0.1665039,0.30078125,11.901855,-6.3476562,3.9672852,0.0,0.0,0.0,17.039795,66.763916,-0.63720703
1769246441538,-0.9609375,0.0107421875,0.3100586,16.784668,8.605957,-8.239746,0.0,0.0,0.0,17.039795,66.763916,-0.63720703
1769246441550,-0.9609375,0.0107421875,0.3100586,16.784668,8.605957,-8.239746,0.0,0.0,0.0,18.660278,67.59338,0.060424805
1769246441637,-0.9628906,0.023925781,0.33203125,-8.7890625,-2.0751953,5.92041,0.0,0.0,0.0,18.660278,67.59338,0.060424805
1769246441650,-0.9628906,0.023925781,0.33203125,-8.7890625,-2.0751953,5.92041,0.0,0.0,0.0,18.62732,68.47229,-0.54382324
1769246441737,-0.9511719,0.095703125,0.28857422,-1.2207031,0.36621094,-3.540039,0.0,0.0,0.0,18.62732,68.47229,-0.54382324
1769246441748,-0.9511719,0.095703125,0.28857422,-1.2207031,0.36621094,-3.540039,0.0,0.0,0.0,17.561646,68.19763,-1.0931396
1769246441837,-0.93066406,0.09033203,0.3642578,-4.5166016,4.272461,-1.4038086,0.0,0.0,0.0,17.561646,68.19763,-1.0931396
1769246441848,-0.93066406,0.09033203,0.3642578,-4.5166016,4.272461,-1.4038086,0.0,0.0,0.0,16.968384,68.82385,-1.8896484
1769246441936,-0.9458008,0.05517578,0.2788086,-11.779785,-4.211426,6.4697266,0.0,0.0,0.0,16.968384,68.82385,-1.8896484
1769246441948,-0.9458008,0.05517578,0.2788086,-11.779785,-4.211426,6.4697266,0.0,0.0,0.0,17.177124,68.73047,0.4119873
1769246442036,-0.93408203,0.075683594,0.36572266,-20.202637,-3.4179688,7.751465,0.0,0.0,0.0,17.177124,68.73047,0.4119873
1769246442048,-0.93408203,0.075683594,0.36572266,-20.202637,-3.4179688,7.751465,0.0,0.0,0.0,16.902466,68.428345,0.7196045
1769246442136,-0.84472656,0.11816406,0.3725586,6.1035156,8.117676,-10.375977,0.0,0.0,0.0,16.902466,68.428345,0.7196045
1769246442147,-0.84472656,0.11816406,0.3725586,6.1035156,8.117676,-10.375977,0.0,0.0,0.0,15.930176,68.61511,1.2744141
1769246442236,-0.8769531,0.19921875,0.43359375,-2.5024414,22.399902,-13.61084,0.0,0.0,0.0,15.930176,68.61511,1.2744141
1769246442247,-0.8769531,0.19921875,0.43359375,-2.5024414,22.399902,-13.61084,0.0,0.0,0.0,13.969116,70.17517,-1.6149902
1769246442335,-0.92529297,0.083496094,0.484375,0.6713867,-2.9296875,-4.5776367,0.0,0.0,0.0,13.969116,70.17517,-1.6149902
1769246442347,-0.92529297,0.083496094,0.484375,0.6713867,-2.9296875,-4.5776367,0.0,0.0,0.0,12.518921,71.55945,-2.37854
1769246442435,-0.9003906,0.12402344,0.25683594,-13.73291,-40.83252,14.953613,0.0,0.0,0.0,12.518921,71.55945,-2.37854
1769246442447,-0.9003906,0.12402344,0.25683594,-13.73291,-40.83252,14.953613,0.0,0.0,0.0,12.914429,68.291016,-1.2249756
1769246442535,-0.91845703,0.05419922,0.2890625,3.1738281,-3.540039,0.061035156,0.0,0.0,0.0,12.914429,68.291016,-1.2249756
1769246442546,-0.91845703,0.05419922,0.2890625,3.1738281,-3.540039,0.061035156,0.0,0.0,0.0,13.6779785,65.824585,0.7141113
1769246442634,-0.93115234,0.063964844,0.37695312,-21.54541,-4.4555664,7.1411133,0.0,0.0,0.0,13.6779785,65.824585,0.7141113
1769246442646,-0.93115234,0.063964844,0.37695312,-21.54541,-4.4555664,7.1411133,0.0,0.0,0.0,13.590088,66.26404,0.87890625
1769246442734,-0.9614258,0.08105469,0.296875,-17.63916,-10.192871,11.352539,0.0,0.0,0.0,13.590088,66.26404,0.87890625
1769246442746,-0.9614258,0.08105469,0.296875,-17.63916,-10.192871,11.352539,0.0,0.0,0.0,13.222046,65.32471,2.4005127
1769246442834,-0.91748047,0.096191406,0.27978516,-8.544922,-2.319336,5.859375,0.0,0.0,0.0,13.222046,65.32471,2.4005127
1769246442845,-0.91748047,0.096191406,0.27978516,-8.544922,-2.319336,5.859375,0.0,0.0,0.0,13.864746,64.85779,3.515625
1769246442934,-0.8803711,0.008300781,0.37109375,8.7890625,2.746582,-12.390137,0.0,0.0,0.0,13.864746,64.85779,3.515625
1769246442945,-0.8803711,0.008300781,0.37109375,8.7890625,2.746582,-12.390137,0.0,0.0,0.0,12.854004,65.53894,2.6367188
1769246443034,-0.9760742,0.09033203,0.5097656,-34.729004,6.652832,8.117676,0.0,0.0,0.0,12.854004,65.53894,2.6367188
1769246443045,-0.9760742,0.09033203,0.5097656,-34.729004,6.652832,8.117676,0.0,0.0,0.0,9.865723,67.214355,2.109375
1769246443133,-0.8833008,0.13867188,0.37353516,-36.621094,-17.150879,20.935059,0.0,0.0,0.0,9.865723,67.214355,2.109375
1769246443144,-0.8833008,0.13867188,0.37353516,-36.621094,-17.150879,20.935059,0.0,0.0,0.0,10.233765,64.885254,5.762329
1769246443233,-0.83935547,-0.0063476562,0.3935547,1.3427734,18.920898,-6.713867,0.0,0.0,0.0,10.233765,64.885254,5.762329
1769246443244,-0.83935547,-0.0063476562,0.3935547,1.3427734,18.920898,-6.713867,0.0,0.0,0.0,9.761353,65.42908,6.38855
1769246443332,-0.8354492,0.040527344,0.4794922,-12.634277,23.31543,-4.699707,0.0,0.0,0.0,9.761353,65.42908,6.38855
1769246443344,-0.8354492,0.040527344,0.4794922,-12.634277,23.31543,-4.699707,0.0,0.0,0.0,8.113403,67.59338,5.5755615
1769246443432,-0.8666992,0.18603516,0.47021484,34.79004,1.159668,-0.4272461,0.0,0.0,0.0,8.113403,67.59338,5.5755615
1769246443444,-0.8666992,0.18603516,0.47021484,34.79004,1.159668,-0.4272461,0.0,0.0,0.0,10.046997,68.291016,5.1470947
1769246443532,-0.9013672,-0.018554688,0.3671875,-14.526367,-18.676758,19.53125,0.0,0.0,0.0,10.046997,68.291016,5.1470947
1769246443544,-0.9013672,-0.018554688,0.3671875,-14.526367,-18.676758,19.53125,0.0,0.0,0.0,13.139648,66.12671,8.673706
1769246443631,-0.91503906,0.041503906,0.37304688,22.033691,-3.90625,1.953125,0.0,0.0,0.0,13.139648,66.12671,8.673706
1769246443643,-0.91503906,0.041503906,0.37304688,22.033691,-3.90625,1.953125,0.0,0.0,0.0,15.325928,64.95117,9.755859
1769246443731,-0.93359375,0.10595703,0.34716797,28.686523,9.58252,-3.1738281,0.0,0.0,0.0,15.325928,64.95117,9.755859
1769246443743,-0.93359375,0.10595703,0.34716797,28.686523,9.58252,-3.1738281,0.0,0.0,0.0,17.594604,65.74219,9.063721
