timestamp,accX,accY,accZ,gyroX,gyroY,gyroZ,magX,magY,magZ,roll,pitch,yaw
1765377884376,-0.83496094,-0.70947266,0.23925781,19.16504,6.7749023,-19.348145,0.0,0.0,0.0,-61.204834,50.811768,-25.054321
1765377884388,-0.83496094,-0.70947266,0.23925781,19.16504,6.7749023,-19.348145,0.0,0.0,0.0,-60.897217,50.042725,-26.652832
1765377884476,-0.7324219,-0.6196289,0.22949219,-14.343262,-2.8076172,15.74707,0.0,0.0,0.0,-60.897217,50.042725,-26.652832
1765377884487,-0.7324219,-0.6196289,0.22949219,-14.343262,-2.8076172,15.74707,0.0,0.0,0.0,-61.12793,50.15808,-27.89978
1765377884575,-0.88916016,-0.64501953,0.34375,-31.25,-4.699707,12.573242,0.0,0.0,0.0,-61.12793,50.15808,-27.89978
1765377884587,-0.88916016,-0.64501953,0.34375,-31.25,-4.699707,12.573242,0.0,0.0,0.0,-62.44629,51.036987,-25.872803
1765377884675,-0.8154297,-0.5942383,0.29248047,5.9814453,9.216309,-11.047363,0.0,0.0,0.0,-62.44629,51.036987,-25.872803
1765377884687,-0.8154297,-0.5942383,0.29248047,5.9814453,9.216309,-11.047363,0.0,0.0,0.0,-65.00061,51.553345,-26.625366
1765377884775,-0.5073242,-0.31689453,0.25048828,-1.2817383,3.90625,-3.6010742,0.0,0.0,0.0,-65.00061,51.553345,-26.625366
1765377884787,-0.5073242,-0.31689453,0.25048828,-1.2817383,3.90625,-3.6010742,0.0,0.0,0.0,-65.198364,51.07544,-27.949219
1765377884875,-0.9189453,-0.76953125,0.43652344,17.944336,-25.024414,-19.348145,0.0,0.0,0.0,-65.198364,51.07544,-27.949219
1765377884886,-0.9189453,-0.76953125,0.43652344,17.944336,-25.024414,-19.348145,0.0,0.0,0.0,-64.56665,50.11963,-26.976929
1765377884974,-0.75146484,-0.43652344,0.118652344,-20.874023,5.859375,1.7700195,0.0,0.0,0.0,-64.56665,50.11963,-26.976929
1765377884986,-0.75146484,-0.43652344,0.118652344,-20.874023,5.859375,1.7700195,0.0,0.0,0.0,-63.71521,48.55957,-26.867065
1765377885076,-0.8520508,-0.5830078,0.22558594,-13.793945,0.30517578,13.183594,0.0,0.0,0.0,-63.71521,48.55957,-26.867065
1765377885086,-0.8520508,-0.5830078,0.22558594,-13.793945,0.30517578,13.183594,0.0,0.0,0.0,-65.01709,49.9823,-26.065063
1765377885174,-0.83154297,-0.4892578,0.12646484,4.1503906,18.005371,-3.0517578,0.0,0.0,0.0,-65.01709,49.9823,-26.065063
1765377885185,-0.83154297,-0.4892578,0.12646484,4.1503906,18.005371,-3.0517578,0.0,0.0,0.0,-66.78589,50.718384,-28.833618
1765377885273,-0.91015625,-0.6489258,0.2631836,1.0375977,30.700684,-3.6010742,0.0,0.0,0.0,-66.78589,50.718384,-28.833618
1765377885285,-0.91015625,-0.6489258,0.2631836,1.0375977,30.700684,-3.6010742,0.0,0.0,0.0,-69.46106,51.932373,-33.305054
1765377885373,-0.72021484,-0.57470703,0.28173828,-3.7231445,8.666992,-0.061035156,0.0,0.0,0.0,-69.46106,51.932373,-33.305054
1765377885385,-0.72021484,-0.57470703,0.28173828,-3.7231445,8.666992,-0.061035156,0.0,0.0,0.0,-71.98242,52.042236,-37.716064
1765377885473,-0.55029297,-0.48583984,0.23632812,-30.334473,-9.094238,21.728516,0.0,0.0,0.0,-71.98242,52.042236,-37.716064
1765377885489,-0.55029297,-0.48583984,0.23632812,-30.334473,-9.094238,21.728516,0.0,0.0,0.0,-73.26782,53.2782,-36.38672
1765377885572,-0.9707031,-0.77490234,0.29345703,1.2207031,-13.000488,-13.000488,0.0,0.0,0.0,-73.26782,53.2782,-36.38672
1765377885584,-0.9707031,-0.77490234,0.29345703,1.2207031,-13.000488,-13.000488,0.0,0.0,0.0,-72.39441,53.201294,-32.695312
1765377885672,-0.7402344,-0.45117188,0.14111328,6.591797,-7.019043,28.625488,0.0,0.0,0.0,-72.39441,53.201294,-32.695312
1765377885684,-0.7402344,-0.45117188,0.14111328,6.591797,-7.019043,28.625488,0.0,0.0,0.0,-70.98816,53.635254,-30.454102
1765377885772,-0.77490234,-0.6147461,0.15771484,36.071777,28.625488,-28.808594,0.0,0.0,0.0,-70.98816,53.635254,-30.454102
1765377885783,-0.77490234,-0.6147461,0.15771484,36.071777,28.625488,-28.808594,0.0,0.0,0.0,-69.191895,53.827515,-31.959229
1765377885872,-0.7685547,-0.6791992,0.08691406,9.70459,24.536133,-10.864258,0.0,0.0,0.0,-69.191895,53.827515,-31.959229
1765377885883,-0.7685547,-0.6791992,0.08691406,9.70459,24.536133,-10.864258,0.0,0.0,0.0,-71.65283,52.591553,-38.754272
1765377885972,-0.7705078,-0.63378906,0.030761719,-26.672363,4.0893555,5.6152344,0.0,0.0,0.0,-71.65283,52.591553,-38.754272
1765377885983,-0.7705078,-0.63378906,0.030761719,-26.672363,4.0893555,5.6152344,0.0,0.0,0.0,-75.234375,52.72339,-42.335815
1765377886071,-0.85302734,-0.4326172,0.107910156,-31.677246,1.7089844,19.348145,0.0,0.0,0.0,-75.234375,52.72339,-42.335815
1765377886083,-0.85302734,-0.4326172,0.107910156,-31.677246,1.7089844,19.348145,0.0,0.0,0.0,-79.28284,53.59131,-44.071655
1765377886171,-0.85546875,-0.7529297,0.20458984,19.958496,5.1879883,-22.521973,0.0,0.0,0.0,-79.28284,53.59131,-44.071655
1765377886182,-0.85546875,-0.7529297,0.20458984,19.958496,5.1879883,-22.521973,0.0,0.0,0.0,-79.65637,54.832764,-44.609985
1765377886271,-0.9165039,-0.5546875,0.12011719,7.9345703,5.493164,-20.690918,0.0,0.0,0.0,-79.65637,54.832764,-44.609985
1765377886282,-0.9165039,-0.5546875,0.12011719,7.9345703,5.493164,-20.690918,0.0,0.0,0.0,-79.48059,51.399536,-47.90039
1765377886370,-0.68652344,-0.58691406,0.11328125,10.925293,-21.66748,-9.155273,0.0,0.0,0.0,-79.48059,51.399536,-47.90039
1765377886382,-0.68652344,-0.58691406,0.11328125,10.925293,-21.66748,-9.155273,0.0,0.0,0.0,-77.64038,50.663452,-46.697388
1765377886470,-0.8642578,-0.4580078,0.029785156,-1.4038086,-6.652832,10.681152,0.0,0.0,0.0,-77.64038,50.663452,-46.697388
1765377886482,-0.8642578,-0.4580078,0.029785156,-1.4038086,-6.652832,10.681152,0.0,0.0,0.0,-75.76721,50.13611,-45.335083
1765377886570,-0.8496094,-0.6269531,0.005859375,11.352539,12.207031,-7.2631836,0.0,0.0,0.0,-75.76721,50.13611,-45.335083
1765377886581,-0.8496094,-0.6269531,0.005859375,11.352539,12.207031,-7.2631836,0.0,0.0,0.0,-75.201416,51.09192,-46.571045
1765377886670,-0.77783203,-0.546875,0.048828125,5.6762695,5.493164,1.4038086,0.0,0.0,0.0,-75.201416,51.09192,-46.571045
1765377886681,-0.77783203,-0.546875,0.048828125,5.6762695,5.493164,1.4038086,0.0,0.0,0.0,-76.56372,51.448975,-50.24597
1765377886769,-0.90185547,-0.85253906,0.3408203,14.709473,4.5166016,-14.404297,0.0,0.0,0.0,-76.56372,51.448975,-50.24597
1765377886781,-0.90185547,-0.85253906,0.3408203,14.709473,4.5166016,-14.404297,0.0,0.0,0.0,-76.16821,50.88867,-51.860962
1765377886869,-0.6977539,-0.42822266,0.2109375,-22.888184,-17.456055,28.198242,0.0,0.0,0.0,-76.16821,50.88867,-51.860962
1765377886881,-0.6977539,-0.42822266,0.2109375,-22.888184,-17.456055,28.198242,0.0,0.0,0.0,-76.16821,51.2677,-50.19104
1765377886969,-0.6279297,-0.74316406,0.28515625,-17.51709,-7.2021484,19.65332,0.0,0.0,0.0,-76.16821,51.2677,-50.19104
1765377886981,-0.6279297,-0.74316406,0.28515625,-17.51709,-7.2021484,19.65332,0.0,0.0,0.0,-74.30603,54.069214,-44.829712
1765377887069,-0.8696289,-0.48486328,0.12695312,-14.587402,-40.405273,12.634277,0.0,0.0,0.0,-74.30603,54.069214,-44.829712
1765377887080,-0.8696289,-0.48486328,0.12695312,-14.587402,-40.405273,12.634277,0.0,0.0,0.0,-72.092285,52.630005,-40.29785
1765377887168,-0.6948242,-0.6069336,0.22558594,25.45166,-8.300781,-18.310547,0.0,0.0,0.0,-72.092285,52.630005,-40.29785
1765377887180,-0.6948242,-0.6069336,0.22558594,25.45166,-8.300781,-18.310547,0.0,0.0,0.0,-67.93396,52.421265,-36.309814
1765377887268,-0.83740234,-0.72509766,0.15039062,11.657715,29.541016,-24.963379,0.0,0.0,0.0,-67.93396,52.421265,-36.309814
1765377887281,-0.83740234,-0.72509766,0.15039062,11.657715,29.541016,-24.963379,0.0,0.0,0.0,-68.48328,49.84497,-39.67163
1765377887368,-0.7319336,-0.6303711,0.1274414,-17.211914,31.37207,-0.061035156,0.0,0.0,0.0,-68.48328,49.84497,-39.67163
1765377887379,-0.7319336,-0.6303711,0.1274414,-17.211914,31.37207,-0.061035156,0.0,0.0,0.0,-73.723755,50.229492,-44.939575
1765377887468,-0.8564453,-0.5600586,0.25732422,-9.033203,29.418945,-0.4272461,0.0,0.0,0.0,-73.723755,50.229492,-44.939575
1765377887479,-0.8564453,-0.5600586,0.25732422,-9.033203,29.418945,-0.4272461,0.0,0.0,0.0,-79.42566,50.57007,-49.987793
1765377887567,-0.52978516,-0.46777344,0.14990234,52.978516,12.207031,-18.371582,0.0,0.0,0.0,-79.42566,50.57007,-49.987793
1765377887579,-0.52978516,-0.46777344,0.14990234,52.978516,12.207031,-18.371582,0.0,0.0,0.0,-78.00842,50.443726,-51.641235
1765377887667,-0.98779297,-0.9892578,0.30859375,36.865234,27.038574,-40.58838,0.0,0.0,0.0,-78.00842,50.443726,-51.641235
1765377887678,-0.98779297,-0.9892578,0.30859375,36.865234,27.038574,-40.58838,0.0,0.0,0.0,-77.404175,47.092896,-55.29419
1765377887767,-0.60839844,-0.51660156,0.009765625,-31.37207,-31.433105,15.625,0.0,0.0,0.0,-77.404175,47.092896,-55.29419
1765377887778,-0.60839844,-0.51660156,0.009765625,-31.37207,-31.433105,15.625,0.0,0.0,0.0,-76.239624,46.46118,-51.76758
1765377887866,-0.8520508,-0.5966797,0.17529297,-24.902344,-57.617188,27.09961,0.0,0.0,0.0,-76.239624,46.46118,-51.76758
1765377887878,-0.8520508,-0.5966797,0.17529297,-24.902344,-57.617188,27.09961,0.0,0.0,0.0,-74.124756,47.730103,-44.313354
1765377887966,-0.8354492,-0.65966797,0.109375,-26.306152,16.723633,7.5683594,0.0,0.0,0.0,-74.124756,47.730103,-44.313354
1765377887978,-0.8354492,-0.65966797,0.109375,-26.306152,16.723633,7.5683594,0.0,0.0,0.0,-73.72925,48.757324,-40.98999
1765377888066,-0.86572266,-0.58447266,0.076171875,-40.58838,12.451172,21.240234,0.0,0.0,0.0,-73.72925,48.757324,-40.98999
1765377888077,-0.86572266,-0.58447266,0.076171875,-40.58838,12.451172,21.240234,0.0,0.0,0.0,-79.58496,50.723877,-44.30237
1765377888166,-0.72265625,-0.5410156,0.16259766,9.765625,-7.9345703,11.108398,0.0,0.0,0.0,-79.58496,50.723877,-44.30237
1765377888177,-0.72265625,-0.5410156,0.16259766,9.765625,-7.9345703,11.108398,0.0,0.0,0.0,-78.97522,52.888184,-43.044434
1765377888266,-0.67529297,-0.38232422,0.16210938,43.21289,-0.5493164,18.737793,0.0,0.0,0.0,-78.97522,52.888184,-43.044434
1765377888277,-0.67529297,-0.38232422,0.16210938,43.21289,-0.5493164,18.737793,0.0,0.0,0.0,-76.51428,54.179077,-44.02771
1765377888365,-0.90625,-0.8125,0.33203125,81.726074,-12.084961,-23.4375,0.0,0.0,0.0,-76.51428,54.179077,-44.02771
1765377888377,-0.90625,-0.8125,0.33203125,81.726074,-12.084961,-23.4375,0.0,0.0,0.0,-68.395386,54.486694,-41.940308
1765377888465,-0.6953125,-0.55322266,0.13671875,39.18457,19.836426,-12.145996,0.0,0.0,0.0,-68.395386,54.486694,-41.940308
1765377888477,-0.6953125,-0.55322266,0.13671875,39.18457,19.836426,-12.145996,0.0,0.0,0.0,-64.627075,51.49292,-45.2417
1765377888565,-0.74316406,-0.7416992,0.27001953,5.3710938,-44.25049,-1.8920898,0.0,0.0,0.0,-64.627075,51.49292,-45.2417
1765377888576,-0.74316406,-0.7416992,0.27001953,5.3710938,-44.25049,-1.8920898,0.0,0.0,0.0,-61.99585,50.932617,-43.08838
1765377888666,-0.76171875,-0.6352539,0.22753906,-37.719727,14.099121,1.7089844,0.0,0.0,0.0,-61.99585,50.932617,-43.08838
1765377888676,-0.76171875,-0.6352539,0.22753906,-37.719727,14.099121,1.7089844,0.0,0.0,0.0,-62.95166,49.487915,-40.896606
1765377888764,-0.8251953,-0.55810547,0.17382812,-50.29297,25.817871,10.803223,0.0,0.0,0.0,-62.95166,49.487915,-40.896606
1765377888776,-0.8251953,-0.55810547,0.17382812,-50.29297,25.817871,10.803223,0.0,0.0,0.0,-70.1532,50.855713,-43.90686
1765377888864,-0.8203125,-0.5463867,0.3623047,-11.169434,-2.2583008,20.202637,0.0,0.0,0.0,-70.1532,50.855713,-43.90686
1765377888875,-0.8203125,-0.5463867,0.3623047,-11.169434,-2.2583008,20.202637,0.0,0.0,0.0,-73.498535,53.289185,-43.165283
1765377888963,-0.72509766,-0.5522461,0.14453125,27.404785,12.939453,-42.48047,0.0,0.0,0.0,-73.498535,53.289185,-43.165283
1765377888975,-0.72509766,-0.5522461,0.14453125,27.404785,12.939453,-42.48047,0.0,0.0,0.0,-71.8396,51.223755,-43.044434
1765377889063,-0.73779297,-0.55322266,0.15771484,12.878418,-6.7749023,-2.0751953,0.0,0.0,0.0,-71.8396,51.223755,-43.044434
1765377889075,-0.73779297,-0.55322266,0.15771484,12.878418,-6.7749023,-2.0751953,0.0,0.0,0.0,-72.31201,49.592285,-46.58203
1765377889163,-0.8154297,-0.5800781,0.15673828,0.36621094,-40.83252,10.070801,0.0,0.0,0.0,-72.31201,49.592285,-46.58203
1765377889174,-0.8154297,-0.5800781,0.15673828,0.36621094,-40.83252,10.070801,0.0,0.0,0.0,-67.5824,49.08142,-41.396484
1765377889263,-0.79248047,-0.5839844,0.15722656,4.0283203,2.746582,-8.422852,0.0,0.0,0.0,-67.5824,49.08142,-41.396484
1765377889274,-0.79248047,-0.5839844,0.15722656,4.0283203,2.746582,-8.422852,0.0,0.0,0.0,-66.28052,49.103394,-40.061646
1765377889362,-0.77490234,-0.5102539,0.25390625,-10.803223,-11.108398,9.399414,0.0,0.0,0.0,-66.28052,49.103394,-40.061646
1765377889375,-0.77490234,-0.5102539,0.25390625,-10.803223,-11.108398,9.399414,0.0,0.0,0.0,-66.4563,48.966064,-40.308838
1765377889462,-0.8701172,-0.75439453,0.17626953,-10.070801,26.306152,-12.512207,0.0,0.0,0.0,-66.4563,48.966064,-40.308838
1765377889473,-0.8701172,-0.75439453,0.17626953,-10.070801,26.306152,-12.512207,0.0,0.0,0.0,-67.15393,49.49341,-40.698853
1765377889562,-0.6279297,-0.46826172,0.2998047,-17.27295,-16.235352,12.573242,0.0,0.0,0.0,-67.15393,49.49341,-40.698853
1765377889573,-0.6279297,-0.46826172,0.2998047,-17.27295,-16.235352,12.573242,0.0,0.0,0.0,-70.911255,49.680176,-43.170776
1765377889662,-0.5786133,-0.45947266,0.24902344,-16.845703,-23.742676,26.428223,0.0,0.0,0.0,-70.911255,49.680176,-43.170776
1765377889673,-0.5786133,-0.45947266,0.24902344,-16.845703,-23.742676,26.428223,0.0,0.0,0.0,-67.00012,50.625,-36.07361
1765377889761,-0.86621094,-0.78515625,0.42822266,4.8217773,-0.61035156,-25.756836,0.0,0.0,0.0,-67.00012,50.625,-36.07361
1765377889773,-0.86621094,-0.78515625,0.42822266,4.8217773,-0.61035156,-25.756836,0.0,0.0,0.0,-66.10474,50.229492,-33.634644
1765377889861,-0.7089844,-0.47265625,0.18945312,-7.446289,-43.5791,43.70117,0.0,0.0,0.0,-66.10474,50.229492,-33.634644
1765377889873,-0.7089844,-0.47265625,0.18945312,-7.446289,-43.5791,43.70117,0.0,0.0,0.0,-62.79236,50.075684,-27.91626
1765377889961,-0.7011719,-0.6152344,0.2919922,25.878906,2.6855469,-27.038574,0.0,0.0,0.0,-62.79236,50.075684,-27.91626
1765377889972,-0.7011719,-0.6152344,0.2919922,25.878906,2.6855469,-27.038574,0.0,0.0,0.0,-59.436035,49.9823,-24.911499
1765377890061,-0.77978516,-0.61279297,0.21386719,14.343262,18.737793,-7.507324,0.0,0.0,0.0,-59.436035,49.9823,-24.911499
1765377890072,-0.77978516,-0.61279297,0.21386719,14.343262,18.737793,-7.507324,0.0,0.0,0.0,-59.952393,48.64746,-28.591919
1765377890160,-0.77734375,-0.63427734,0.25927734,-12.451172,34.606934,6.164551,0.0,0.0,0.0,-59.952393,48.64746,-28.591919
1765377890172,-0.77734375,-0.63427734,0.25927734,-12.451172,34.606934,6.164551,0.0,0.0,0.0,-62.704468,49.768066,-32.23938
1765377890260,-0.90283203,-0.64160156,0.48095703,-14.831543,7.507324,13.427734,0.0,0.0,0.0,-62.704468,49.768066,-32.23938
1765377890271,-0.90283203,-0.64160156,0.48095703,-14.831543,7.507324,13.427734,0.0,0.0,0.0,-67.32422,51.569824,-35.45288
1765377890360,-0.46191406,-0.2890625,0.17480469,21.240234,16.357422,-27.954102,0.0,0.0,0.0,-67.32422,51.569824,-35.45288
1765377890371,-0.46191406,-0.2890625,0.17480469,21.240234,16.357422,-27.954102,0.0,0.0,0.0,-66.84082,51.201782,-35.90332
1765377890459,-1.0195312,-0.87597656,0.45166016,47.180176,9.521484,-44.311523,0.0,0.0,0.0,-66.84082,51.201782,-35.90332
1765377890471,-1.0195312,-0.87597656,0.45166016,47.180176,9.521484,-44.311523,0.0,0.0,0.0,-68.55469,49.0979,-40.006714
1765377890559,-0.62646484,-0.45703125,0.10253906,-23.55957,7.751465,6.4697266,0.0,0.0,0.0,-68.55469,49.0979,-40.006714
1765377890570,-0.62646484,-0.45703125,0.10253906,-23.55957,7.751465,6.4697266,0.0,0.0,0.0,-69.1095,47.296143,-42.51709
1765377890659,-0.8383789,-0.73046875,0.1953125,-40.405273,-37.231445,16.052246,0.0,0.0,0.0,-69.1095,47.296143,-42.51709
1765377890670,-0.8383789,-0.73046875,0.1953125,-40.405273,-37.231445,16.052246,0.0,0.0,0.0,-69.505005,48.444214,-38.66089
1765377890758,-0.8100586,-0.6850586,0.11425781,-47.180176,18.127441,5.065918,0.0,0.0,0.0,-69.505005,48.444214,-38.66089
1765377890770,-0.8100586,-0.6850586,0.11425781,-47.180176,18.127441,5.065918,0.0,0.0,0.0,-72.74048,48.90564,-37.58972
1765377890859,-0.5625,-0.5673828,0.27539062,-35.339355,-39.489746,-0.30517578,0.0,0.0,0.0,-72.74048,48.90564,-37.58972
1765377890870,-0.5625,-0.5673828,0.27539062,-35.339355,-39.489746,-0.30517578,0.0,0.0,0.0,-76.49231,49.16382,-37.01294
1765377890958,-0.8105469,-0.46679688,0.13720703,-19.348145,-29.907227,44.433594,0.0,0.0,0.0,-76.49231,49.16382,-37.01294
1765377890970,-0.8105469,-0.46679688,0.13720703,-19.348145,-29.907227,44.433594,0.0,0.0,0.0,-73.2843,49.542847,-28.877563
1765377891058,-0.57470703,-0.58984375,0.22216797,16.540527,-1.0986328,-0.36621094,0.0,0.0,0.0,-73.2843,49.542847,-28.877563
1765377891069,-0.57470703,-0.58984375,0.22216797,16.540527,-1.0986328,-0.36621094,0.0,0.0,0.0,-70.80139,51.641235,-26.52649
1765377891158,-0.99609375,-0.6923828,0.22509766,26.367188,-33.02002,9.70459,0.0,0.0,0.0,-70.80139,51.641235,-26.52649
1765377891169,-0.99609375,-0.6923828,0.22509766,26.367188,-33.02002,9.70459,0.0,0.0,0.0,-66.450806,50.795288,-23.917236
1765377891258,-0.6616211,-0.55810547,0.21191406,28.442383,29.47998,-8.850098,0.0,0.0,0.0,-66.450806,50.795288,-23.917236
1765377891269,-0.6616211,-0.55810547,0.21191406,28.442383,29.47998,-8.850098,0.0,0.0,0.0,-65.32471,51.416016,-25.757446
1765377891357,-0.7294922,-0.6958008,0.17285156,23.620605,7.385254,-15.808105,0.0,0.0,0.0,-65.32471,51.416016,-25.757446
1765377891368,-0.7294922,-0.6958008,0.17285156,23.620605,7.385254,-15.808105,0.0,0.0,0.0,-65.52246,50.421753,-29.712524
1765377891457,-0.7573242,-0.6430664,0.20800781,-10.925293,16.052246,0.9765625,0.0,0.0,0.0,-65.52246,50.421753,-29.712524
1765377891468,-0.7573242,-0.6430664,0.20800781,-10.925293,16.052246,0.9765625,0.0,0.0,0.0,-67.65381,50.35034,-32.036133
1765377891556,-0.9873047,-0.64453125,0.36035156,-2.380371,8.666992,1.4038086,0.0,0.0,0.0,-67.65381,50.35034,-32.036133
1765377891568,-0.9873047,-0.64453125,0.36035156,-2.380371,8.666992,1.4038086,0.0,0.0,0.0,-70.76294,50.910645,-34.744263
1765377891656,-0.44433594,-0.32714844,0.17236328,38.57422,-1.0986328,-16.662598,0.0,0.0,0.0,-70.76294,50.910645,-34.744263
1765377891667,-0.44433594,-0.32714844,0.17236328,38.57422,-1.0986328,-16.662598,0.0,0.0,0.0,-67.247314,50.213013,-34.211426
1765377891756,-0.9638672,-0.72216797,0.33251953,29.052734,15.869141,-27.46582,0.0,0.0,0.0,-67.247314,50.213013,-34.211426
1765377891767,-0.9638672,-0.72216797,0.33251953,29.052734,15.869141,-27.46582,0.0,0.0,0.0,-67.1759,48.427734,-36.914062
1765377891855,-0.77197266,-0.5957031,0.25146484,-16.540527,-21.42334,0.6713867,0.0,0.0,0.0,-67.1759,48.427734,-36.914062
1765377891867,-0.77197266,-0.5957031,0.25146484,-16.540527,-21.42334,0.6713867,0.0,0.0,0.0,-65.97839,47.46643,-36.54602
1765377891955,-0.80908203,-0.5185547,0.18017578,-16.296387,-13.671875,10.681152,0.0,0.0,0.0,-65.97839,47.46643,-36.54602
1765377891967,-0.80908203,-0.5185547,0.18017578,-16.296387,-13.671875,10.681152,0.0,0.0,0.0,-63.98987,47.1698,-31.690063
1765377892055,-0.7963867,-0.58935547,0.29296875,2.1362305,20.874023,-1.159668,0.0,0.0,0.0,-63.98987,47.1698,-31.690063
1765377892067,-0.7963867,-0.58935547,0.29296875,2.1362305,20.874023,-1.159668,0.0,0.0,0.0,-66.275024,48.54309,-34.20044
1765377892155,-0.8359375,-0.77246094,0.36035156,-10.7421875,0.9765625,12.329102,0.0,0.0,0.0,-66.275024,48.54309,-34.20044
1765377892166,-0.8359375,-0.77246094,0.36035156,-10.7421875,0.9765625,12.329102,0.0,0.0,0.0,-67.95593,49.389038,-35.496826
1765377892254,-0.52783203,-0.36328125,0.3310547,-0.79345703,-50.04883,21.484375,0.0,0.0,0.0,-67.95593,49.389038,-35.496826
1765377892266,-0.52783203,-0.36328125,0.3310547,-0.79345703,-50.04883,21.484375,0.0,0.0,0.0,-64.06128,49.72412,-29.355469
1765377892354,-0.69384766,-0.7182617,0.3149414,-17.76123,-25.268555,10.986328,0.0,0.0,0.0,-64.06128,49.72412,-29.355469
1765377892366,-0.69384766,-0.7182617,0.3149414,-17.76123,-25.268555,10.986328,0.0,0.0,0.0,-59.260254,49.39453,-21.324463
1765377892454,-0.8535156,-0.49609375,0.37939453,7.8125,-12.207031,16.662598,0.0,0.0,0.0,-59.260254,49.39453,-21.324463
1765377892465,-0.8535156,-0.49609375,0.37939453,7.8125,-12.207031,16.662598,0.0,0.0,0.0,-57.947388,49.196777,-19.259033
1765377892553,-0.67871094,-0.6616211,0.2602539,19.226074,-2.0751953,-7.2631836,0.0,0.0,0.0,-57.947388,49.196777,-19.259033
1765377892565,-0.67871094,-0.6616211,0.2602539,19.226074,-2.0751953,-7.2631836,0.0,0.0,0.0,-54.73938,49.3396,-16.748657
1765377892653,-0.79785156,-0.6459961,0.27294922,-13.000488,16.113281,-3.112793,0.0,0.0,0.0,-54.73938,49.3396,-16.748657
1765377892665,-0.79785156,-0.6459961,0.27294922,-13.000488,16.113281,-3.112793,0.0,0.0,0.0,-57.546387,49.075928,-20.214844
1765377892753,-0.9267578,-0.62158203,0.36865234,-29.846191,12.145996,7.080078,0.0,0.0,0.0,-57.546387,49.075928,-20.214844
1765377892764,-0.9267578,-0.62158203,0.36865234,-29.846191,12.145996,7.080078,0.0,0.0,0.0,-60.776367,49.822998,-21.275024
1765377892853,-0.73779297,-0.5083008,0.35742188,0.48828125,0.061035156,4.9438477,0.0,0.0,0.0,-60.776367,49.822998,-21.275024
1765377892864,-0.73779297,-0.5083008,0.35742188,0.48828125,0.061035156,4.9438477,0.0,0.0,0.0,-61.918945,50.894165,-21.835327
1765377892952,-0.6040039,-0.4921875,0.32470703,27.954102,12.6953125,-34.484863,0.0,0.0,0.0,-61.918945,50.894165,-21.835327
1765377892964,-0.6040039,-0.4921875,0.32470703,27.954102,12.6953125,-34.484863,0.0,0.0,0.0,-60.76538,49.630737,-23.653564
1765377893053,-0.8041992,-0.53808594,0.32910156,22.277832,-6.164551,-13.305664,0.0,0.0,0.0,-60.76538,49.630737,-23.653564
1765377893064,-0.8041992,-0.53808594,0.32910156,22.277832,-6.164551,-13.305664,0.0,0.0,0.0,-60.496216,47.77954,-25.697021
1765377893152,-0.84033203,-0.5649414,0.26611328,5.3710938,-17.944336,-1.6479492,0.0,0.0,0.0,-60.496216,47.77954,-25.697021
1765377893163,-0.84033203,-0.5649414,0.26611328,5.3710938,-17.944336,-1.6479492,0.0,0.0,0.0,-57.86499,46.516113,-23.406372
1765377893251,-0.8095703,-0.57177734,0.2680664,4.0893555,25.024414,-1.7089844,0.0,0.0,0.0,-57.86499,46.516113,-23.406372
1765377893263,-0.8095703,-0.57177734,0.2680664,4.0893555,25.024414,-1.7089844,0.0,0.0,0.0,-58.19458,47.246704,-24.955444
1765377893351,-0.7421875,-0.5703125,0.34228516,-10.131836,11.901855,7.2021484,0.0,0.0,0.0,-58.19458,47.246704,-24.955444
1765377893363,-0.7421875,-0.5703125,0.34228516,-10.131836,11.901855,7.2021484,0.0,0.0,0.0,-60.06775,48.427734,-27.789917
1765377893451,-0.8823242,-0.6875,0.42089844,13.000488,-0.61035156,4.5776367,0.0,0.0,0.0,-60.06775,48.427734,-27.789917
1765377893463,-0.8823242,-0.6875,0.42089844,13.000488,-0.61035156,4.5776367,0.0,0.0,0.0,-61.204834,49.680176,-28.03711
1765377893551,-0.49365234,-0.41796875,0.32421875,-28.930664,-5.92041,30.517578,0.0,0.0,0.0,-61.204834,49.680176,-28.03711
1765377893562,-0.49365234,-0.41796875,0.32421875,-28.930664,-5.92041,30.517578,0.0,0.0,0.0,-59.60083,50.756836,-26.1969
1765377893650,-0.7631836,-0.5776367,0.2006836,6.3476562,-38.757324,7.6904297,0.0,0.0,0.0,-59.60083,50.756836,-26.1969
1765377893663,-0.7631836,-0.5776367,0.2006836,6.3476562,-38.757324,7.6904297,0.0,0.0,0.0,-55.788574,50.960083,-18.660278
1765377893750,-0.81396484,-0.54833984,0.39794922,-2.319336,-2.4414062,-12.756348,0.0,0.0,0.0,-55.788574,50.960083,-18.660278
1765377893762,-0.81396484,-0.54833984,0.39794922,-2.319336,-2.4414062,-12.756348,0.0,0.0,0.0,-55.31067,49.334106,-18.094482
1765377893850,-0.7426758,-0.6279297,0.24658203,-6.8359375,29.968262,-3.7231445,0.0,0.0,0.0,-55.31067,49.334106,-18.094482
1765377893862,-0.7426758,-0.6279297,0.24658203,-6.8359375,29.968262,-3.7231445,0.0,0.0,0.0,-56.420288,49.35608,-19.489746
1765377893950,-0.8588867,-0.6035156,0.3515625,-50.964355,43.395996,9.033203,0.0,0.0,0.0,-56.420288,49.35608,-19.489746
1765377893961,-0.8588867,-0.6035156,0.3515625,-50.964355,43.395996,9.033203,0.0,0.0,0.0,-64.09424,51.553345,-26.16394
1765377894049,-0.7104492,-0.5317383,0.35107422,-14.038086,-14.953613,12.207031,0.0,0.0,0.0,-64.09424,51.553345,-26.16394
1765377894061,-0.7104492,-0.5317383,0.35107422,-14.038086,-14.953613,12.207031,0.0,0.0,0.0,-67.3407,53.338623,-25.092773
1765377894149,-0.82128906,-0.48095703,0.33007812,2.6855469,24.536133,-35.27832,0.0,0.0,0.0,-67.3407,53.338623,-25.092773
1765377894160,-0.82128906,-0.48095703,0.33007812,2.6855469,24.536133,-35.27832,0.0,0.0,0.0,-68.26355,51.229248,-26.625366
1765377894249,-0.77734375,-0.5776367,0.095214844,37.53662,31.25,-18.005371,0.0,0.0,0.0,-68.26355,51.229248,-26.625366
1765377894260,-0.77734375,-0.5776367,0.095214844,37.53662,31.25,-18.005371,0.0,0.0,0.0,-68.59863,50.213013,-30.009155
1765377894348,-0.78466797,-0.5571289,0.18798828,-3.9672852,-4.0283203,9.338379,0.0,0.0,0.0,-68.59863,50.213013,-30.009155
1765377894360,-0.78466797,-0.5571289,0.18798828,-3.9672852,-4.0283203,9.338379,0.0,0.0,0.0,-69.58191,50.267944,-34.03015
1765377894448,-0.8330078,-0.5878906,0.076171875,-1.2207031,-4.9438477,8.7890625,0.0,0.0,0.0,-69.58191,50.267944,-34.03015
1765377894460,-0.8330078,-0.5878906,0.076171875,-1.2207031,-4.9438477,8.7890625,0.0,0.0,0.0,-68.58215,51.399536,-32.261353
1765377894548,-0.8203125,-0.4711914,0.15673828,-5.6152344,18.737793,3.4179688,0.0,0.0,0.0,-68.58215,51.399536,-32.261353
1765377894559,-0.8203125,-0.4711914,0.15673828,-5.6152344,18.737793,3.4179688,0.0,0.0,0.0,-69.34021,52.179565,-34.37622
1765377894648,-0.74072266,-0.6542969,0.3076172,22.644043,27.282715,-22.094727,0.0,0.0,0.0,-69.34021,52.179565,-34.37622
1765377894659,-0.74072266,-0.6542969,0.3076172,22.644043,27.282715,-22.094727,0.0,0.0,0.0,-73.56995,52.750854,-40.495605
1765377894747,-0.75146484,-0.4897461,0.21972656,-17.150879,-13.183594,11.474609,0.0,0.0,0.0,-73.56995,52.750854,-40.495605
1765377894759,-0.75146484,-0.4897461,0.21972656,-17.150879,-13.183594,11.474609,0.0,0.0,0.0,-74.349976,51.64673,-42.209473
1765377894847,-0.6567383,-0.7338867,0.25927734,-5.9814453,-16.662598,-11.657715,0.0,0.0,0.0,-74.349976,51.64673,-42.209473
1765377894858,-0.6567383,-0.7338867,0.25927734,-5.9814453,-16.662598,-11.657715,0.0,0.0,0.0,-71.88904,51.98181,-38.12256
1765377894947,-0.8769531,-0.5317383,0.16699219,-2.380371,-53.100586,13.305664,0.0,0.0,0.0,-71.88904,51.98181,-38.12256
1765377894958,-0.8769531,-0.5317383,0.16699219,-2.380371,-53.100586,13.305664,0.0,0.0,0.0,-69.142456,49.987793,-33.206177
1765377895047,-0.70996094,-0.66259766,0.2211914,25.939941,3.4179688,-12.756348,0.0,0.0,0.0,-69.142456,49.987793,-33.206177
1765377895058,-0.70996094,-0.66259766,0.2211914,25.939941,3.4179688,-12.756348,0.0,0.0,0.0,-64.660034,49.768066,-29.163208
1765377895146,-0.7392578,-0.70996094,0.20458984,-1.7089844,28.869629,-8.972168,0.0,0.0,0.0,-64.660034,49.768066,-29.163208
1765377895158,-0.7392578,-0.70996094,0.20458984,-1.7089844,28.869629,-8.972168,0.0,0.0,0.0,-66.31897,48.95508,-33.832397
1765377895246,-0.8354492,-0.6845703,0.17919922,-43.45703,25.939941,7.6293945,0.0,0.0,0.0,-66.31897,48.95508,-33.832397
1765377895257,-0.8354492,-0.6845703,0.17919922,-43.45703,25.939941,7.6293945,0.0,0.0,0.0,-71.8396,49.866943,-37.77649
1765377895346,-0.7734375,-0.41015625,0.3076172,-7.9956055,0.9765625,25.512695,0.0,0.0,0.0,-71.8396,49.866943,-37.77649
1765377895357,-0.7734375,-0.41015625,0.3076172,-7.9956055,0.9765625,25.512695,0.0,0.0,0.0,-73.88306,52.179565,-37.177734
1765377895446,-0.63183594,-0.60498047,0.2626953,35.15625,19.89746,-45.898438,0.0,0.0,0.0,-73.88306,52.179565,-37.177734
1765377895457,-0.63183594,-0.60498047,0.2626953,35.15625,19.89746,-45.898438,0.0,0.0,0.0,-73.71277,50.564575,-39.907837
1765377895545,-0.87939453,-0.64160156,0.13769531,16.784668,1.2207031,0.6713867,0.0,0.0,0.0,-73.71277,50.564575,-39.907837
1765377895557,-0.87939453,-0.64160156,0.13769531,16.784668,1.2207031,0.6713867,0.0,0.0,0.0,-73.427124,48.268433,-42.5885
1765377895645,-0.71728516,-0.51123047,0.13330078,-2.319336,-26.306152,4.333496,0.0,0.0,0.0,-73.427124,48.268433,-42.5885
1765377895656,-0.71728516,-0.51123047,0.13330078,-2.319336,-26.306152,4.333496,0.0,0.0,0.0,-71.14746,48.636475,-40.12207
1765377895745,-0.82910156,-0.6333008,0.14453125,-3.6010742,-0.4272461,8.911133,0.0,0.0,0.0,-71.14746,48.636475,-40.12207
1765377895756,-0.82910156,-0.6333008,0.14453125,-3.6010742,-0.4272461,8.911133,0.0,0.0,0.0,-69.28528,49.400024,-37.716064
1765377895844,-0.8129883,-0.5878906,0.056640625,-13.85498,14.770508,-1.4648438,0.0,0.0,0.0,-69.28528,49.400024,-37.716064
1765377895856,-0.8129883,-0.5878906,0.056640625,-13.85498,14.770508,-1.4648438,0.0,0.0,0.0,-72.14722,49.91638,-40.98999
1765377895944,-0.7001953,-0.5913086,0.21728516,-6.3476562,23.132324,-1.5869141,0.0,0.0,0.0,-72.14722,49.91638,-40.98999
1765377895956,-0.7001953,-0.5913086,0.21728516,-6.3476562,23.132324,-1.5869141,0.0,0.0,0.0,-75.52551,50.59204,-44.51111
1765377896044,-0.8574219,-0.61621094,0.24121094,-12.023926,11.352539,1.7700195,0.0,0.0,0.0,-75.52551,50.59204,-44.51111
1765377896055,-0.8574219,-0.61621094,0.24121094,-12.023926,11.352539,1.7700195,0.0,0.0,0.0,-78.618164,50.55359,-47.246704
1765377896143,-0.54248047,-0.51904297,0.1171875,-10.925293,9.521484,15.014648,0.0,0.0,0.0,-78.618164,50.55359,-47.246704
1765377896155,-0.54248047,-0.51904297,0.1171875,-10.925293,9.521484,15.014648,0.0,0.0,0.0,-79.68933,52.22351,-47.158813
1765377896243,-1.0068359,-0.80322266,0.2109375,4.760742,-16.601562,-7.8125,0.0,0.0,0.0,-79.68933,52.22351,-47.158813
1765377896255,-1.0068359,-0.80322266,0.2109375,4.760742,-16.601562,-7.8125,0.0,0.0,0.0,-79.70581,51.800537,-46.329346
1765377896343,-0.69921875,-0.55566406,0.047851562,9.94873,-3.9672852,15.930176,0.0,0.0,0.0,-79.70581,51.800537,-46.329346
1765377896354,-0.69921875,-0.55566406,0.047851562,9.94873,-3.9672852,15.930176,0.0,0.0,0.0,-76.2616,52.564087,-42.698364
1765377896443,-0.69384766,-0.69433594,0.045898438,24.719238,27.893066,-23.31543,0.0,0.0,0.0,-76.2616,52.564087,-42.698364
1765377896455,-0.69384766,-0.69433594,0.045898438,24.719238,27.893066,-23.31543,0.0,0.0,0.0,-76.66809,51.992798,-46.950073
1765377896542,-0.8144531,-0.7104492,0.043945312,-21.1792,22.338867,-4.638672,0.0,0.0,0.0,-76.66809,51.992798,-46.950073
1765377896554,-0.8144531,-0.7104492,0.043945312,-21.1792,22.338867,-4.638672,0.0,0.0,0.0,-81.397705,50.855713,-53.014526
1765377896642,-0.79003906,-0.52490234,0.12402344,-33.203125,-6.286621,1.7089844,0.0,0.0,0.0,-81.397705,50.855713,-53.014526
1765377896653,-0.79003906,-0.52490234,0.12402344,-33.203125,-6.286621,1.7089844,0.0,0.0,0.0,-85.528564,50.77881,-55.06897
1765377896742,-0.72998047,-0.6621094,0.203125,15.197754,-5.79834,-3.7841797,0.0,0.0,0.0,-85.528564,50.77881,-55.06897
1765377896753,-0.72998047,-0.6621094,0.203125,15.197754,-5.79834,-3.7841797,0.0,0.0,0.0,-83.97949,51.80603,-52.487183
1765377896841,-0.9975586,-0.77246094,0.14453125,14.892578,23.68164,-27.46582,0.0,0.0,0.0,-83.97949,51.80603,-52.487183
1765377896853,-0.9975586,-0.77246094,0.14453125,14.892578,23.68164,-27.46582,0.0,0.0,0.0,-84.138794,48.707886,-55.1239
1765377896941,-0.61083984,-0.5097656,-0.0107421875,-8.239746,-35.217285,5.065918,0.0,0.0,0.0,-84.138794,48.707886,-55.1239
1765377896953,-0.61083984,-0.5097656,-0.0107421875,-8.239746,-35.217285,5.065918,0.0,0.0,0.0,-83.15552,48.15857,-53.85498
1765377897041,-0.97021484,-0.4921875,-0.064453125,-25.390625,-44.067383,45.654297,0.0,0.0,0.0,-83.15552,48.15857,-53.85498
1765377897052,-0.97021484,-0.4921875,-0.064453125,-25.390625,-44.067383,45.654297,0.0,0.0,0.0,-79.332275,50.169067,-47.213745
1765377897141,-0.8540039,-0.6123047,0.017578125,3.479004,39.79492,1.4038086,0.0,0.0,0.0,-79.332275,50.169067,-47.213745
1765377897152,-0.8540039,-0.6123047,0.017578125,3.479004,39.79492,1.4038086,0.0,0.0,0.0,-80.46387,53.355103,-49.246216
1765377897240,-0.7470703,-0.55908203,0.055664062,25.146484,48.950195,3.2348633,0.0,0.0,0.0,-80.46387,53.355103,-49.246216
1765377897252,-0.7470703,-0.55908203,0.055664062,25.146484,48.950195,3.2348633,0.0,0.0,0.0,-86.96777,54.074707,-59.91394
1765377897340,-0.92041016,-0.5961914,0.107910156,12.878418,-8.7890625,-4.272461,0.0,0.0,0.0,-86.96777,54.074707,-59.91394
1765377897352,-0.92041016,-0.5961914,0.107910156,12.878418,-8.7890625,-4.272461,0.0,0.0,0.0,-86.11084,53.772583,-62.44629
1765377897440,-0.6665039,-0.7207031,0.068359375,14.099121,23.498535,-7.2021484,0.0,0.0,0.0,-86.11084,53.772583,-62.44629
1765377897451,-0.6665039,-0.7207031,0.068359375,14.099121,23.498535,-7.2021484,0.0,0.0,0.0,-85.25391,53.898926,-63.533936
1765377897540,-0.8120117,-0.5576172,-0.0234375,10.7421875,-31.921387,0.30517578,0.0,0.0,0.0,-85.25391,53.898926,-63.533936
1765377897551,-0.8120117,-0.5576172,-0.0234375,10.7421875,-31.921387,0.30517578,0.0,0.0,0.0,-84.07837,52.635498,-63.171387
1765377897639,-0.6816406,-0.6669922,0.018066406,20.690918,-6.7749023,-17.51709,0.0,0.0,0.0,-84.07837,52.635498,-63.171387
1765377897651,-0.6816406,-0.6669922,0.018066406,20.690918,-6.7749023,-17.51709,0.0,0.0,0.0,-80.29907,51.94336,-60.91919
1765377897739,-0.76171875,-0.71191406,0.028320312,-4.8217773,17.333984,-13.427734,0.0,0.0,0.0,-80.29907,51.94336,-60.91919
1765377897750,-0.76171875,-0.71191406,0.028320312,-4.8217773,17.333984,-13.427734,0.0,0.0,0.0,-80.76599,49.954834,-64.281006
1765377897839,-0.92089844,-0.66845703,0.14208984,-25.32959,7.2021484,-2.2583008,0.0,0.0,0.0,-80.76599,49.954834,-64.281006
1765377897850,-0.92089844,-0.66845703,0.14208984,-25.32959,7.2021484,-2.2583008,0.0,0.0,0.0,-84.55078,49.301147,-67.59338
1765377897938,-0.6640625,-0.6152344,0.21191406,23.986816,-4.9438477,7.5683594,0.0,0.0,0.0,-84.55078,49.301147,-67.59338
1765377897950,-0.6640625,-0.6152344,0.21191406,23.986816,-4.9438477,7.5683594,0.0,0.0,0.0,-83.86963,50.15808,-66.09924
1765377898038,-0.82958984,-0.5878906,0.103515625,18.798828,33.14209,-26.245117,0.0,0.0,0.0,-83.86963,50.15808,-66.09924
1765377898050,-0.82958984,-0.5878906,0.103515625,18.798828,33.14209,-26.245117,0.0,0.0,0.0,-82.474365,48.570557,-67.6593
1765377898138,-0.6582031,-0.6533203,0.059570312,-2.8686523,-24.353027,-0.5493164,0.0,0.0,0.0,-82.474365,48.570557,-67.6593
1765377898149,-0.6582031,-0.6533203,0.059570312,-2.8686523,-24.353027,-0.5493164,0.0,0.0,0.0,-80.43091,47.175293,-66.89026
1765377898238,-0.7661133,-0.50683594,0.055664062,-27.58789,-34.179688,22.644043,0.0,0.0,0.0,-80.43091,47.175293,-66.89026
1765377898249,-0.7661133,-0.50683594,0.055664062,-27.58789,-34.179688,22.644043,0.0,0.0,0.0,-78.75549,47.702637,-62.017822
1765377898337,-0.9555664,-0.86816406,0.09863281,-35.27832,16.845703,-0.6713867,0.0,0.0,0.0,-78.75549,47.702637,-62.017822
1765377898349,-0.9555664,-0.86816406,0.09863281,-35.27832,16.845703,-0.6713867,0.0,0.0,0.0,-80.62866,49.284668,-60.111694
1765377898437,-0.37109375,-0.4970703,0.14160156,3.7841797,-6.4086914,8.483887,0.0,0.0,0.0,-80.62866,49.284668,-60.111694
1765377898449,-0.37109375,-0.4970703,0.14160156,3.7841797,-6.4086914,8.483887,0.0,0.0,0.0,-84.034424,49.63623,-62.001343
1765377898537,-1.0161133,-0.46289062,0.2680664,-15.686035,-95.27588,27.46582,0.0,0.0,0.0,-84.034424,49.63623,-62.001343
1765377898548,-1.0161133,-0.46289062,0.2680664,-15.686035,-95.27588,27.46582,0.0,0.0,0.0,-80.40344,49.7406,-54.244995
1765377898637,-0.6845703,-0.7680664,0.19189453,11.657715,9.82666,0.79345703,0.0,0.0,0.0,-80.40344,49.7406,-54.244995
1765377898648,-0.6845703,-0.7680664,0.19189453,11.657715,9.82666,0.79345703,0.0,0.0,0.0,-69.99939,51.185303,-42.46765
1765377898736,-0.8022461,-0.64160156,0.10644531,36.987305,15.258789,-13.73291,0.0,0.0,0.0,-69.99939,51.185303,-42.46765
1765377898748,-0.8022461,-0.64160156,0.10644531,36.987305,15.258789,-13.73291,0.0,0.0,0.0,-70.64209,50.982056,-44.5166
1765377898836,-0.71777344,-0.72558594,0.16552734,-6.713867,-21.972656,6.3476562,0.0,0.0,0.0,-70.64209,50.982056,-44.5166
1765377898848,-0.71777344,-0.72558594,0.16552734,-6.713867,-21.972656,6.3476562,0.0,0.0,0.0,-69.32373,50.4657,-44.29138
1765377898936,-0.7324219,-0.6411133,0.11230469,-23.620605,-17.456055,8.544922,0.0,0.0,0.0,-69.32373,50.4657,-44.29138
1765377898947,-0.7324219,-0.6411133,0.11230469,-23.620605,-17.456055,8.544922,0.0,0.0,0.0,-68.05481,49.839478,-40.127563
1765377899035,-0.8569336,-0.6230469,0.14257812,-29.907227,21.362305,8.7890625,0.0,0.0,0.0,-68.05481,49.839478,-40.127563
1765377899047,-0.8569336,-0.6230469,0.14257812,-29.907227,21.362305,8.7890625,0.0,0.0,0.0,-71.22986,50.690918,-40.495605
1765377899135,-0.7416992,-0.34521484,0.27929688,-0.8544922,-0.24414062,27.832031,0.0,0.0,0.0,-71.22986,50.690918,-40.495605
1765377899147,-0.7416992,-0.34521484,0.27929688,-0.8544922,-0.24414062,27.832031,0.0,0.0,0.0,-73.201904,52.509155,-41.396484
1765377899235,-0.63916016,-0.62939453,0.26953125,33.996582,13.183594,-44.311523,0.0,0.0,0.0,-73.201904,52.509155,-41.396484
1765377899246,-0.63916016,-0.62939453,0.26953125,33.996582,13.183594,-44.311523,0.0,0.0,0.0,-73.17993,52.212524,-43.33008
1765377899335,-0.8876953,-0.5888672,0.14648438,4.272461,-4.5776367,-2.5024414,0.0,0.0,0.0,-73.17993,52.212524,-43.33008
1765377899346,-0.8876953,-0.5888672,0.14648438,4.272461,-4.5776367,-2.5024414,0.0,0.0,0.0,-72.92175,49.004517,-45.43396
1765377899434,-0.79345703,-0.5102539,0.10205078,0.91552734,-33.447266,12.084961,0.0,0.0,0.0,-72.92175,49.004517,-45.43396
1765377899446,-0.79345703,-0.5102539,0.10205078,0.91552734,-33.447266,12.084961,0.0,0.0,0.0,-70.09827,49.295654,-41.775513
1765377899534,-0.8286133,-0.52734375,0.1430664,12.634277,-7.873535,10.7421875,0.0,0.0,0.0,-70.09827,49.295654,-41.775513
1765377899546,-0.8286133,-0.52734375,0.1430664,12.634277,-7.873535,10.7421875,0.0,0.0,0.0,-66.40686,50.10315,-38.62793
1765377899634,-0.87841797,-0.6435547,0.2006836,-11.779785,35.095215,-6.4086914,0.0,0.0,0.0,-66.40686,50.10315,-38.62793
1765377899645,-0.87841797,-0.6435547,0.2006836,-11.779785,35.095215,-6.4086914,0.0,0.0,0.0,-69.054565,51.13037,-42.78076
1765377899733,-0.63720703,-0.53466797,0.27929688,7.9956055,17.822266,-5.065918,0.0,0.0,0.0,-69.054565,51.13037,-42.78076
1765377899745,-0.63720703,-0.53466797,0.27929688,7.9956055,17.822266,-5.065918,0.0,0.0,0.0,-73.168945,51.73462,-47.180786
1765377899833,-0.6699219,-0.53271484,0.21289062,-4.272461,-10.253906,12.878418,0.0,0.0,0.0,-73.168945,51.73462,-47.180786
1765377899845,-0.6699219,-0.53271484,0.21289062,-4.272461,-10.253906,12.878418,0.0,0.0,0.0,-72.8064,51.70166,-46.554565
1765377899933,-0.83496094,-0.75,0.31689453,-22.827148,-58.776855,13.671875,0.0,0.0,0.0,-72.8064,51.70166,-46.554565
1765377899944,-0.83496094,-0.75,0.31689453,-22.827148,-58.776855,13.671875,0.0,0.0,0.0,-68.26904,52.053223,-37.979736
1765377900033,-0.7890625,-0.42822266,0.14746094,0.9765625,-27.58789,14.953613,0.0,0.0,0.0,-68.26904,52.053223,-37.979736
1765377900044,-0.7890625,-0.42822266,0.14746094,0.9765625,-27.58789,14.953613,0.0,0.0,0.0,-62.98462,51.37207,-29.558716
1765377900132,-0.75390625,-0.62646484,0.23486328,24.047852,15.74707,-22.827148,0.0,0.0,0.0,-62.98462,51.37207,-29.558716
1765377900144,-0.75390625,-0.62646484,0.23486328,24.047852,15.74707,-22.827148,0.0,0.0,0.0,-61.583862,50.685425,-30.646362
1765377900232,-0.81640625,-0.64453125,0.24853516,-13.671875,22.338867,4.760742,0.0,0.0,0.0,-61.583862,50.685425,-30.646362
1765377900244,-0.81640625,-0.64453125,0.24853516,-13.671875,22.338867,4.760742,0.0,0.0,0.0,-64.940186,51.157837,-35.167236
1765377900332,-0.7910156,-0.3803711,0.30029297,-0.61035156,10.131836,14.343262,0.0,0.0,0.0,-64.940186,51.157837,-35.167236
1765377900343,-0.7910156,-0.3803711,0.30029297,-0.61035156,10.131836,14.343262,0.0,0.0,0.0,-68.02734,52.684937,-37.194214
1765377900431,-0.5917969,-0.5317383,0.29345703,41.259766,19.104004,-20.690918,0.0,0.0,0.0,-68.02734,52.684937,-37.194214
1765377900443,-0.5917969,-0.5317383,0.29345703,41.259766,19.104004,-20.690918,0.0,0.0,0.0,-68.02185,53.206787,-40.061646
1765377900531,-0.93603516,-0.7338867,0.39404297,25.390625,8.605957,-42.541504,0.0,0.0,0.0,-68.02185,53.206787,-40.061646
1765377900543,-0.93603516,-0.7338867,0.39404297,25.390625,8.605957,-42.541504,0.0,0.0,0.0,-67.41211,49.87793,-43.66516
1765377900631,-0.63720703,-0.5185547,0.12548828,-24.475098,-7.6904297,9.94873,0.0,0.0,0.0,-67.41211,49.87793,-43.66516
1765377900642,-0.63720703,-0.5185547,0.12548828,-24.475098,-7.6904297,9.94873,0.0,0.0,0.0,-68.79089,49.438477,-45.214233
1765377900731,-0.8989258,-0.5390625,0.20361328,-52.124023,-44.555664,28.015137,0.0,0.0,0.0,-68.79089,49.438477,-45.214233
1765377900742,-0.8989258,-0.5390625,0.20361328,-52.124023,-44.555664,28.015137,0.0,0.0,0.0,-67.64282,49.817505,-38.54004
1765377900830,-0.7475586,-0.68896484,0.32714844,-16.052246,30.700684,0.4272461,0.0,0.0,0.0,-67.64282,49.817505,-38.54004
1765377900843,-0.7475586,-0.68896484,0.32714844,-16.052246,30.700684,0.4272461,0.0,0.0,0.0,-71.971436,51.575317,-39.490356
1765377900930,-0.66308594,-0.3828125,0.18457031,-10.559082,-25.146484,4.5776367,0.0,0.0,0.0,-71.971436,51.575317,-39.490356
1765377900942,-0.66308594,-0.3828125,0.18457031,-10.559082,-25.146484,4.5776367,0.0,0.0,0.0,-73.25134,51.17981,-39.89685
1765377901030,-0.82666016,-0.6875,0.26464844,-15.808105,-49.865723,35.40039,0.0,0.0,0.0,-73.25134,51.17981,-39.89685
1765377901042,-0.82666016,-0.6875,0.26464844,-15.808105,-49.865723,35.40039,0.0,0.0,0.0,-67.38464,52.51465,-29.94873
1765377901130,-0.7836914,-0.515625,0.16113281,22.399902,4.5166016,-8.422852,0.0,0.0,0.0,-67.38464,52.51465,-29.94873
1765377901141,-0.7836914,-0.515625,0.16113281,22.399902,4.5166016,-8.422852,0.0,0.0,0.0,-63.929443,51.619263,-27.49878
1765377901229,-0.7104492,-0.7050781,0.16113281,6.591797,2.9907227,-14.099121,0.0,0.0,0.0,-63.929443,51.619263,-27.49878
1765377901241,-0.7104492,-0.7050781,0.16113281,6.591797,2.9907227,-14.099121,0.0,0.0,0.0,-64.56116,51.38855,-30.750732
1765377901329,-0.8588867,-0.65722656,0.21582031,-49.1333,-17.089844,11.71875,0.0,0.0,0.0,-64.56116,51.38855,-30.750732
1765377901341,-0.8588867,-0.65722656,0.21582031,-49.1333,-17.089844,11.71875,0.0,0.0,0.0,-66.30798,50.339355,-29.72351
1765377901429,-0.78515625,-0.4321289,0.3227539,-4.0283203,17.700195,8.117676,0.0,0.0,0.0,-66.30798,50.339355,-29.72351
1765377901440,-0.78515625,-0.4321289,0.3227539,-4.0283203,17.700195,8.117676,0.0,0.0,0.0,-69.93347,51.866455,-30.739746
1765377901529,-0.46484375,-0.5644531,0.2084961,34.606934,30.273438,-45.410156,0.0,0.0,0.0,-69.93347,51.866455,-30.739746
1765377901540,-0.46484375,-0.5644531,0.2084961,34.606934,30.273438,-45.410156,0.0,0.0,0.0,-71.152954,50.635986,-34.606934
1765377901629,-0.96972656,-0.8535156,0.30078125,-28.930664,9.58252,-10.192871,0.0,0.0,0.0,-71.152954,50.635986,-34.606934
1765377901640,-0.96972656,-0.8535156,0.30078125,-28.930664,9.58252,-10.192871,0.0,0.0,0.0,-74.88281,48.07617,-39.418945
1765377901728,-0.76123047,-0.40966797,0.056152344,-36.376953,-80.078125,18.249512,0.0,0.0,0.0,-74.88281,48.07617,-39.418945
1765377901739,-0.76123047,-0.40966797,0.056152344,-36.376953,-80.078125,18.249512,0.0,0.0,0.0,-72.8833,47.72461,-31.311035
1765377901828,-0.87109375,-0.5053711,0.17529297,-2.8686523,4.333496,25.6958,0.0,0.0,0.0,-72.8833,47.72461,-31.311035
1765377901839,-0.87109375,-0.5053711,0.17529297,-2.8686523,4.333496,25.6958,0.0,0.0,0.0,-69.417114,49.279175,-25.44983
1765377901927,-0.8574219,-0.5913086,0.1875,19.65332,29.23584,-5.493164,0.0,0.0,0.0,-69.417114,49.279175,-25.44983
1765377901939,-0.8574219,-0.5913086,0.1875,19.65332,29.23584,-5.493164,0.0,0.0,0.0,-69.73572,51.031494,-28.69629
1765377902027,-0.8095703,-0.8354492,0.29541016,-3.6010742,33.081055,-1.4648438,0.0,0.0,0.0,-69.73572,51.031494,-28.69629
1765377902039,-0.8095703,-0.8354492,0.29541016,-3.6010742,33.081055,-1.4648438,0.0,0.0,0.0,-74.64111,52.229004,-36.463623
1765377902127,-0.75341797,-0.38671875,0.17382812,-0.8544922,-63.78174,20.141602,0.0,0.0,0.0,-74.64111,52.229004,-36.463623
1765377902138,-0.75341797,-0.38671875,0.17382812,-0.8544922,-63.78174,20.141602,0.0,0.0,0.0,-72.020874,52.229004,-32.541504
1765377902227,-0.60546875,-0.57958984,0.23144531,27.526855,-8.239746,-2.5634766,0.0,0.0,0.0,-72.020874,52.229004,-32.541504
1765377902238,-0.60546875,-0.57958984,0.23144531,27.526855,-8.239746,-2.5634766,0.0,0.0,0.0,-66.34094,52.651978,-27.427368
1765377902326,-0.9355469,-0.6777344,0.39257812,38.757324,-17.089844,-27.46582,0.0,0.0,0.0,-66.34094,52.651978,-27.427368
1765377902338,-0.9355469,-0.6777344,0.39257812,38.757324,-17.089844,-27.46582,0.0,0.0,0.0,-63.5614,49.586792,-27.443848
1765377902426,-0.6801758,-0.5449219,0.18945312,25.268555,3.6010742,5.2490234,0.0,0.0,0.0,-63.5614,49.586792,-27.443848
1765377902437,-0.6801758,-0.5449219,0.18945312,25.268555,3.6010742,5.2490234,0.0,0.0,0.0,-60.820312,49.37805,-27.614136
1765377902526,-0.6845703,-0.7480469,0.2788086,18.615723,16.357422,-32.592773,0.0,0.0,0.0,-60.820312,49.37805,-27.614136
1765377902537,-0.6845703,-0.7480469,0.2788086,18.615723,16.357422,-32.592773,0.0,0.0,0.0,-60.446777,48.081665,-30.2948
1765377902625,-0.7104492,-0.6357422,0.25634766,-29.60205,0.79345703,-0.24414062,0.0,0.0,0.0,-60.446777,48.081665,-30.2948
1765377902637,-0.7104492,-0.6357422,0.25634766,-29.60205,0.79345703,-0.24414062,0.0,0.0,0.0,-63.292236,47.125854,-32.8656
1765377902725,-0.8510742,-0.5917969,0.45361328,-38.146973,-14.160156,4.699707,0.0,0.0,0.0,-63.292236,47.125854,-32.8656
1765377902737,-0.8510742,-0.5917969,0.45361328,-38.146973,-14.160156,4.699707,0.0,0.0,0.0,-65.582886,46.763306,-30.50354
1765377902825,-0.53564453,-0.55371094,0.2006836,12.6953125,-0.7324219,-11.169434,0.0,0.0,0.0,-65.582886,46.763306,-30.50354
1765377902837,-0.53564453,-0.55371094,0.2006836,12.6953125,-0.7324219,-11.169434,0.0,0.0,0.0,-65.29724,46.71936,-27.861328
1765377902925,-0.8691406,-0.57373047,0.25048828,2.319336,17.456055,-7.446289,0.0,0.0,0.0,-65.29724,46.71936,-27.861328
1765377902936,-0.8691406,-0.57373047,0.25048828,2.319336,17.456055,-7.446289,0.0,0.0,0.0,-66.5332,45.543823,-30.140991
1765377903024,-0.71240234,-0.5751953,0.22314453,-3.9672852,-9.033203,12.084961,0.0,0.0,0.0,-66.5332,45.543823,-30.140991
1765377903036,-0.71240234,-0.5751953,0.22314453,-3.9672852,-9.033203,12.084961,0.0,0.0,0.0,-65.83557,46.505127,-29.492798
1765377903124,-0.83496094,-0.55029297,0.20019531,2.0751953,1.2207031,5.554199,0.0,0.0,0.0,-65.83557,46.505127,-29.492798
1765377903136,-0.83496094,-0.55029297,0.20019531,2.0751953,1.2207031,5.554199,0.0,0.0,0.0,-65.4895,47.131348,-28.866577
1765377903224,-0.83203125,-0.59814453,0.26513672,-6.4086914,18.005371,6.4086914,0.0,0.0,0.0,-65.4895,47.131348,-28.866577
1765377903235,-0.83203125,-0.59814453,0.26513672,-6.4086914,18.005371,6.4086914,0.0,0.0,0.0,-66.588135,48.449707,-30.580444
1765377903324,-0.8100586,-0.80615234,0.390625,0.18310547,7.446289,4.638672,0.0,0.0,0.0,-66.588135,48.449707,-30.580444
1765377903335,-0.8100586,-0.80615234,0.390625,0.18310547,7.446289,4.638672,0.0,0.0,0.0,-68.73596,49.674683,-32.926025
1765377903423,-0.4482422,-0.3857422,0.19677734,-6.286621,-40.83252,18.127441,0.0,0.0,0.0,-68.73596,49.674683,-32.926025
1765377903435,-0.4482422,-0.3857422,0.19677734,-6.286621,-40.83252,18.127441,0.0,0.0,0.0,-65.42908,49.801025,-29.157715
1765377903523,-0.8876953,-0.7265625,0.33398438,-5.493164,-30.395508,5.79834,0.0,0.0,0.0,-65.42908,49.801025,-29.157715
1765377903534,-0.8876953,-0.7265625,0.33398438,-5.493164,-30.395508,5.79834,0.0,0.0,0.0,-62.715454,49.795532,-22.972412
1765377903623,-0.7548828,-0.53515625,0.31591797,5.92041,-9.033203,6.3476562,0.0,0.0,0.0,-62.715454,49.795532,-22.972412
1765377903634,-0.7548828,-0.53515625,0.31591797,5.92041,-9.033203,6.3476562,0.0,0.0,0.0,-60.007324,48.867188,-19.429321
1765377903722,-0.7529297,-0.7011719,0.21240234,5.6152344,61.462402,-23.132324,0.0,0.0,0.0,-60.007324,48.867188,-19.429321
1765377903734,-0.7529297,-0.7011719,0.21240234,5.6152344,61.462402,-23.132324,0.0,0.0,0.0,-61.765137,49.65271,-23.005371
1765377903822,-0.8535156,-0.53515625,0.39501953,-20.080566,-2.0141602,6.4086914,0.0,0.0,0.0,-61.765137,49.65271,-23.005371
1765377903834,-0.8535156,-0.53515625,0.39501953,-20.080566,-2.0141602,6.4086914,0.0,0.0,0.0,-69.19739,50.47119,-31.777954
1765377903922,-0.5683594,-0.5957031,0.28955078,8.361816,-4.638672,-7.8125,0.0,0.0,0.0,-69.19739,50.47119,-31.777954
1765377903933,-0.5683594,-0.5957031,0.28955078,8.361816,-4.638672,-7.8125,0.0,0.0,0.0,-67.70325,50.394287,-29.196167
1765377904022,-0.7988281,-0.54345703,0.2890625,8.117676,17.333984,-32.409668,0.0,0.0,0.0,-67.70325,50.394287,-29.196167
1765377904033,-0.7988281,-0.54345703,0.2890625,8.117676,17.333984,-32.409668,0.0,0.0,0.0,-68.79639,48.07068,-31.50879
1765377904121,-0.7104492,-0.6411133,0.18261719,-9.277344,-1.8920898,6.225586,0.0,0.0,0.0,-68.79639,48.07068,-31.50879
1765377904133,-0.7104492,-0.6411133,0.18261719,-9.277344,-1.8920898,6.225586,0.0,0.0,0.0,-69.417114,47.60376,-33.008423
1765377904221,-0.81884766,-0.5541992,0.10839844,-14.770508,-29.296875,3.9672852,0.0,0.0,0.0,-69.417114,47.60376,-33.008423
1765377904233,-0.81884766,-0.5541992,0.10839844,-14.770508,-29.296875,3.9672852,0.0,0.0,0.0,-68.4668,47.08191,-29.729004
1765377904321,-0.78125,-0.6254883,0.24609375,-14.343262,4.5776367,5.79834,0.0,0.0,0.0,-68.4668,47.08191,-29.729004
1765377904332,-0.78125,-0.6254883,0.24609375,-14.343262,4.5776367,5.79834,0.0,0.0,0.0,-69.89502,48.059692,-29.718018
1765377904421,-0.94091797,-0.8466797,0.42578125,-23.742676,-14.6484375,10.681152,0.0,0.0,0.0,-69.89502,48.059692,-29.718018
1765377904432,-0.94091797,-0.8466797,0.42578125,-23.742676,-14.6484375,10.681152,0.0,0.0,0.0,-70.3949,48.065186,-29.064331
1765377904520,-0.5131836,-0.32177734,0.20361328,12.878418,-50.109863,24.963379,0.0,0.0,0.0,-70.3949,48.065186,-29.064331
1765377904532,-0.5131836,-0.32177734,0.20361328,12.878418,-50.109863,24.963379,0.0,0.0,0.0,-63.92395,48.73535,-21.30249
1765377904620,-0.79589844,-0.7709961,0.33935547,23.498535,-4.272461,-8.972168,0.0,0.0,0.0,-63.92395,48.73535,-21.30249
1765377904631,-0.79589844,-0.7709961,0.33935547,23.498535,-4.272461,-8.972168,0.0,0.0,0.0,-60.36438,48.636475,-18.451538
1765377904720,-0.7832031,-0.58691406,0.31689453,8.239746,-18.554688,0.9765625,0.0,0.0,0.0,-60.36438,48.636475,-18.451538
1765377904731,-0.7832031,-0.58691406,0.31689453,8.239746,-18.554688,0.9765625,0.0,0.0,0.0,-58.743896,47.422485,-18.533936
1765377904820,-0.70654297,-0.61621094,0.24267578,-4.4555664,36.8042,-11.230469,0.0,0.0,0.0,-58.743896,47.422485,-18.533936
1765377904831,-0.70654297,-0.61621094,0.24267578,-4.4555664,36.8042,-11.230469,0.0,0.0,0.0,-60.095215,47.664185,-20.736694
1765377904919,-0.91552734,-0.6298828,0.48046875,-29.296875,25.878906,16.479492,0.0,0.0,0.0,-60.095215,47.664185,-20.736694
1765377904931,-0.91552734,-0.6298828,0.48046875,-29.296875,25.878906,16.479492,0.0,0.0,0.0,-65.97839,49.87793,-25.845337
1765377905019,-0.48876953,-0.50439453,0.21240234,8.911133,4.272461,-15.686035,0.0,0.0,0.0,-65.97839,49.87793,-25.845337
1765377905030,-0.48876953,-0.50439453,0.21240234,8.911133,4.272461,-15.686035,0.0,0.0,0.0,-66.43982,50.36133,-25.20813
1765377905119,-1.0737305,-0.7578125,0.3305664,-14.160156,33.691406,-11.535645,0.0,0.0,0.0,-66.43982,50.36133,-25.20813
1765377905130,-1.0737305,-0.7578125,0.3305664,-14.160156,33.691406,-11.535645,0.0,0.0,0.0,-71.3562,49.53186,-30.338745
1765377905218,-0.6767578,-0.4506836,0.063964844,-7.3242188,-1.4648438,-2.5024414,0.0,0.0,0.0,-71.3562,49.53186,-30.338745
1765377905230,-0.6767578,-0.4506836,0.063964844,-7.3242188,-1.4648438,-2.5024414,0.0,0.0,0.0,-72.47681,48.71338,-33.09082
1765377905318,-0.80908203,-0.5395508,0.16894531,-16.174316,-3.112793,21.850586,0.0,0.0,0.0,-72.47681,48.71338,-33.09082
1765377905330,-0.80908203,-0.5395508,0.16894531,-16.174316,-3.112793,21.850586,0.0,0.0,0.0,-72.33948,49.971313,-31.799927
1765377905418,-0.95410156,-0.640625,0.080078125,-3.90625,31.860352,1.5869141,0.0,0.0,0.0,-72.33948,49.971313,-31.799927
1765377905429,-0.95410156,-0.640625,0.080078125,-3.90625,31.860352,1.5869141,0.0,0.0,0.0,-75.217896,51.49292,-35.617676
1765377905517,-0.5253906,-0.5917969,0.1616211,28.259277,12.878418,-10.009766,0.0,0.0,0.0,-75.217896,51.49292,-35.617676
1765377905529,-0.5253906,-0.5917969,0.1616211,28.259277,12.878418,-10.009766,0.0,0.0,0.0,-77.56897,51.95984,-40.534058
1765377905617,-0.7739258,-0.4663086,0.18896484,-6.164551,-15.686035,24.169922,0.0,0.0,0.0,-77.56897,51.95984,-40.534058
1765377905629,-0.7739258,-0.4663086,0.18896484,-6.164551,-15.686035,24.169922,0.0,0.0,0.0,-76.00342,51.503906,-40.407715
1765377905717,-0.90283203,-0.6723633,0.29345703,36.743164,-28.198242,-0.12207031,0.0,0.0,0.0,-76.00342,51.503906,-40.407715
1765377905729,-0.90283203,-0.6723633,0.29345703,36.743164,-28.198242,-0.12207031,0.0,0.0,0.0,-68.07678,52.921143,-32.283325
1765377905817,-0.7246094,-0.5727539,0.18017578,31.433105,9.155273,-0.18310547,0.0,0.0,0.0,-68.07678,52.921143,-32.283325
1765377905828,-0.7246094,-0.5727539,0.18017578,31.433105,9.155273,-0.18310547,0.0,0.0,0.0,-64.017334,52.075195,-31.854858
1765377905916,-0.7426758,-0.71240234,0.20507812,3.2348633,-8.911133,-1.159668,0.0,0.0,0.0,-64.017334,52.075195,-31.854858
1765377905928,-0.7426758,-0.71240234,0.20507812,3.2348633,-8.911133,-1.159668,0.0,0.0,0.0,-64.42383,52.261963,-34.44214
1765377906016,-0.7578125,-0.6035156,0.16894531,-39.0625,-38.513184,9.155273,0.0,0.0,0.0,-64.42383,52.261963,-34.44214
1765377906028,-0.7578125,-0.6035156,0.16894531,-39.0625,-38.513184,9.155273,0.0,0.0,0.0,-63.154907,50.982056,-30.042114
1765377906116,-0.91308594,-0.6098633,0.23632812,-43.33496,24.475098,7.751465,0.0,0.0,0.0,-63.154907,50.982056,-30.042114
1765377906127,-0.91308594,-0.6098633,0.23632812,-43.33496,24.475098,7.751465,0.0,0.0,0.0,-66.47827,51.174316,-29.036865
1765377906215,-0.8300781,-0.4267578,0.3305664,-13.244629,-1.0986328,12.084961,0.0,0.0,0.0,-66.47827,51.174316,-29.036865
1765377906227,-0.8300781,-0.4267578,0.3305664,-13.244629,-1.0986328,12.084961,0.0,0.0,0.0,-70.614624,53.146362,-30.679321
1765377906315,-0.6196289,-0.5332031,0.2548828,25.146484,21.728516,-36.92627,0.0,0.0,0.0,-70.614624,53.146362,-30.679321
1765377906327,-0.6196289,-0.5332031,0.2548828,25.146484,21.728516,-36.92627,0.0,0.0,0.0,-70.1532,51.97632,-32.717285
1765377906415,-0.9008789,-0.62060547,0.1484375,34.42383,10.7421875,-18.920898,0.0,0.0,0.0,-70.1532,51.97632,-32.717285
1765377906426,-0.9008789,-0.62060547,0.1484375,34.42383,10.7421875,-18.920898,0.0,0.0,0.0,-71.17493,49.625244,-37.007446
1765377906515,-0.75097656,-0.4189453,0.15039062,-10.925293,-20.874023,9.82666,0.0,0.0,0.0,-71.17493,49.625244,-37.007446
1765377906526,-0.75097656,-0.4189453,0.15039062,-10.925293,-20.874023,9.82666,0.0,0.0,0.0,-69.86755,49.3396,-36.436157
1765377906614,-0.90722656,-0.6513672,0.15527344,-13.73291,16.174316,7.873535,0.0,0.0,0.0,-69.86755,49.3396,-36.436157
1765377906626,-0.90722656,-0.6513672,0.15527344,-13.73291,16.174316,7.873535,0.0,0.0,0.0,-69.54346,50.943604,-34.431152
1765377906714,-0.64404297,-0.68310547,0.28271484,17.944336,11.71875,-7.5683594,0.0,0.0,0.0,-69.54346,50.943604,-34.431152
1765377906726,-0.64404297,-0.68310547,0.28271484,17.944336,11.71875,-7.5683594,0.0,0.0,0.0,-72.46582,51.553345,-38.56201
1765377906814,-0.6801758,-0.38085938,0.1772461,-7.507324,-40.71045,23.742676,0.0,0.0,0.0,-72.46582,51.553345,-38.56201
1765377906825,-0.6801758,-0.38085938,0.1772461,-7.507324,-40.71045,23.742676,0.0,0.0,0.0,-69.680786,50.855713,-35.579224
1765377906914,-0.83935547,-0.72314453,0.27685547,27.893066,-10.070801,1.5869141,0.0,0.0,0.0,-69.680786,50.855713,-35.579224
1765377906925,-0.83935547,-0.72314453,0.27685547,27.893066,-10.070801,1.5869141,0.0,0.0,0.0,-64.000854,52.179565,-28.987427
1765377907013,-0.74121094,-0.61865234,0.23046875,28.808594,4.333496,-13.366699,0.0,0.0,0.0,-64.000854,52.179565,-28.987427
1765377907025,-0.74121094,-0.61865234,0.23046875,28.808594,4.333496,-13.366699,0.0,0.0,0.0,-61.276245,50.67993,-29.608154
1765377907113,-0.71728516,-0.6591797,0.19335938,-19.836426,9.094238,-7.446289,0.0,0.0,0.0,-61.276245,50.67993,-29.608154
1765377907124,-0.71728516,-0.6591797,0.19335938,-19.836426,9.094238,-7.446289,0.0,0.0,0.0,-62.265015,50.284424,-31.832886
1765377907213,-0.88134766,-0.6118164,0.3173828,-29.418945,16.479492,7.6293945,0.0,0.0,0.0,-62.265015,50.284424,-31.832886
1765377907224,-0.88134766,-0.6118164,0.3173828,-29.418945,16.479492,7.6293945,0.0,0.0,0.0,-65.96741,50.427246,-32.876587
1765377907312,-0.73779297,-0.5463867,0.35742188,-4.4555664,12.939453,8.239746,0.0,0.0,0.0,-65.96741,50.427246,-32.876587
1765377907324,-0.73779297,-0.5463867,0.35742188,-4.4555664,12.939453,8.239746,0.0,0.0,0.0,-69.746704,51.992798,-34.75525
1765377907412,-0.7573242,-0.57714844,0.27197266,-7.9345703,39.001465,-30.212402,0.0,0.0,0.0,-69.746704,51.992798,-34.75525
1765377907424,-0.7573242,-0.57714844,0.27197266,-7.9345703,39.001465,-30.212402,0.0,0.0,0.0,-72.20764,51.33911,-38.062134
1765377907512,-0.75634766,-0.56152344,0.118652344,-5.554199,-9.277344,-1.7700195,0.0,0.0,0.0,-72.20764,51.33911,-38.062134
1765377907523,-0.75634766,-0.56152344,0.118652344,-5.554199,-9.277344,-1.7700195,0.0,0.0,0.0,-75.10254,49.899902,-41.621704
1765377907612,-0.8251953,-0.39697266,0.111816406,-6.4697266,-37.41455,26.428223,0.0,0.0,0.0,-75.10254,49.899902,-41.621704
1765377907624,-0.8251953,-0.39697266,0.111816406,-6.4697266,-37.41455,26.428223,0.0,0.0,0.0,-72.90527,50.218506,-37.424927
1765377907712,-0.8779297,-0.6015625,0.083984375,11.352539,24.414062,-17.39502,0.0,0.0,0.0,-72.90527,50.218506,-37.424927
1765377907723,-0.8779297,-0.6015625,0.083984375,11.352539,24.414062,-17.39502,0.0,0.0,0.0,-71.37268,51.707153,-36.557007
1765377907811,-0.73876953,-0.7167969,0.22021484,10.986328,29.052734,-5.3710938,0.0,0.0,0.0,-71.37268,51.707153,-36.557007
1765377907824,-0.73876953,-0.7167969,0.22021484,10.986328,29.052734,-5.3710938,0.0,0.0,0.0,-75.84412,51.5094,-44.13208
1765377907911,-0.7529297,-0.39941406,0.10058594,13.61084,-12.084961,24.475098,0.0,0.0,0.0,-75.84412,51.5094,-44.13208
1765377907922,-0.7529297,-0.39941406,0.10058594,13.61084,-12.084961,24.475098,0.0,0.0,0.0,-75.22339,51.707153,-44.609985
1765377908010,-0.6347656,-0.7729492,0.36132812,38.146973,18.127441,-17.028809,0.0,0.0,0.0,-75.22339,51.707153,-44.609985
1765377908022,-0.6347656,-0.7729492,0.36132812,38.146973,18.127441,-17.028809,0.0,0.0,0.0,-72.542725,53.294678,-44.91211
1765377908110,-0.85546875,-0.60546875,0.037109375,-13.305664,-26.306152,13.183594,0.0,0.0,0.0,-72.542725,53.294678,-44.91211
1765377908122,-0.85546875,-0.60546875,0.037109375,-13.305664,-26.306152,13.183594,0.0,0.0,0.0,-69.400635,50.50415,-43.225708
1765377908210,-0.5131836,-0.68115234,0.13867188,0.36621094,5.7373047,-3.8452148,0.0,0.0,0.0,-69.400635,50.50415,-43.225708
1765377908222,-0.5131836,-0.68115234,0.13867188,0.36621094,5.7373047,-3.8452148,0.0,0.0,0.0,-69.4281,51.21277,-41.80847
1765377908310,-0.8378906,-0.6381836,0.09667969,-39.55078,-5.6152344,0.91552734,0.0,0.0,0.0,-69.4281,51.21277,-41.80847
1765377908321,-0.8378906,-0.6381836,0.09667969,-39.55078,-5.6152344,0.91552734,0.0,0.0,0.0,-72.11975,49.54834,-42.41272
1765377908409,-0.94433594,-0.49902344,0.33203125,-36.743164,-15.319824,19.836426,0.0,0.0,0.0,-72.11975,49.54834,-42.41272
1765377908421,-0.94433594,-0.49902344,0.33203125,-36.743164,-15.319824,19.836426,0.0,0.0,0.0,-74.87732,50.93811,-40.610962
1765377908509,-0.70410156,-0.76708984,0.18261719,8.7890625,18.798828,-21.240234,0.0,0.0,0.0,-74.87732,50.93811,-40.610962
1765377908521,-0.70410156,-0.76708984,0.18261719,8.7890625,18.798828,-21.240234,0.0,0.0,0.0,-75.48157,51.6687,-40.968018
1765377908609,-0.8935547,-0.49414062,0.15820312,10.314941,21.850586,-21.972656,0.0,0.0,0.0,-75.48157,51.6687,-40.968018
1765377908620,-0.8935547,-0.49414062,0.15820312,10.314941,21.850586,-21.972656,0.0,0.0,0.0,-77.43713,48.499146,-45.131836
1765377908709,-0.6948242,-0.71240234,0.14111328,-6.225586,-35.27832,-2.9296875,0.0,0.0,0.0,-77.43713,48.499146,-45.131836
1765377908720,-0.6948242,-0.71240234,0.14111328,-6.225586,-35.27832,-2.9296875,0.0,0.0,0.0,-74.992676,48.790283,-41.099854
1765377908808,-0.8803711,-0.4272461,0.07763672,-10.620117,-12.390137,10.437012,0.0,0.0,0.0,-74.992676,48.790283,-41.099854
1765377908820,-0.8803711,-0.4272461,0.07763672,-10.620117,-12.390137,10.437012,0.0,0.0,0.0,-73.71277,48.273926,-38.358765
1765377908908,-0.82128906,-0.58984375,0.051757812,12.817383,31.066895,-12.878418,0.0,0.0,0.0,-73.71277,48.273926,-38.358765
1765377908920,-0.82128906,-0.58984375,0.051757812,12.817383,31.066895,-12.878418,0.0,0.0,0.0,-74.70154,49.229736,-41.506348
1765377909008,-0.8051758,-0.69091797,0.09765625,-28.564453,14.831543,8.666992,0.0,0.0,0.0,-74.70154,49.229736,-41.506348
1765377909019,-0.8051758,-0.69091797,0.09765625,-28.564453,14.831543,8.666992,0.0,0.0,0.0,-79.18396,49.850464,-46.516113
1765377909108,-0.61035156,-0.58203125,0.24902344,-4.638672,-31.555176,-1.5869141,0.0,0.0,0.0,-79.18396,49.850464,-46.516113
1765377909119,-0.61035156,-0.58203125,0.24902344,-4.638672,-31.555176,-1.5869141,0.0,0.0,0.0,-78.21167,49.9823,-43.637695
1765377909207,-0.6923828,-0.5371094,0.099609375,-16.967773,7.2631836,33.447266,0.0,0.0,0.0,-78.21167,49.9823,-43.637695
1765377909219,-0.6923828,-0.5371094,0.099609375,-16.967773,7.2631836,33.447266,0.0,0.0,0.0,-77.68982,51.58081,-40.896606
1765377909307,-0.90283203,-0.68408203,0.21484375,18.859863,-3.6010742,-15.075684,0.0,0.0,0.0,-77.68982,51.58081,-40.896606
1765377909318,-0.90283203,-0.68408203,0.21484375,18.859863,-3.6010742,-15.075684,0.0,0.0,0.0,-77.145996,51.602783,-41.59424
1765377909407,-0.6352539,-0.59765625,0.1171875,40.161133,21.484375,0.36621094,0.0,0.0,0.0,-77.145996,51.602783,-41.59424
1765377909418,-0.6352539,-0.59765625,0.1171875,40.161133,21.484375,0.36621094,0.0,0.0,0.0,-74.9762,52.06421,-42.13257
1765377909506,-0.71435547,-0.7763672,0.07861328,25.817871,29.47998,-34.362793,0.0,0.0,0.0,-74.9762,52.06421,-42.13257
1765377909518,-0.71435547,-0.7763672,0.07861328,25.817871,29.47998,-34.362793,0.0,0.0,0.0,-75.30029,49.960327,-47.752075
1765377909606,-0.72216797,-0.6870117,0.046875,-25.756836,13.427734,3.6010742,0.0,0.0,0.0,-75.30029,49.960327,-47.752075
1765377909618,-0.72216797,-0.6870117,0.046875,-25.756836,13.427734,3.6010742,0.0,0.0,0.0,-78.898315,48.966064,-51.61377
1765377909706,-0.9082031,-0.58935547,0.18603516,-28.9917,19.28711,2.5024414,0.0,0.0,0.0,-78.898315,48.966064,-51.61377
1765377909717,-0.9082031,-0.58935547,0.18603516,-28.9917,19.28711,2.5024414,0.0,0.0,0.0,-83.4137,49.49341,-54.102173
1765377909806,-0.5644531,-0.6879883,0.19189453,31.49414,-5.79834,-15.075684,0.0,0.0,0.0,-83.4137,49.49341,-54.102173
1765377909817,-0.5644531,-0.6879883,0.19189453,31.49414,-5.79834,-15.075684,0.0,0.0,0.0,-82.699585,49.976807,-53.12439
1765377909905,-1.0625,-0.8208008,0.16845703,-13.793945,21.606445,-14.160156,0.0,0.0,0.0,-82.699585,49.976807,-53.12439
1765377909917,-1.0625,-0.8208008,0.16845703,-13.793945,21.606445,-14.160156,0.0,0.0,0.0,-83.83667,46.983032,-55.184326
1765377910005,-0.59375,-0.5258789,0.012207031,-21.78955,-45.715332,8.911133,0.0,0.0,0.0,-83.83667,46.983032,-55.184326
1765377910017,-0.59375,-0.5258789,0.012207031,-21.78955,-45.715332,8.911133,0.0,0.0,0.0,-82.55127,47.12036,-51.44348
1765377910105,-0.94970703,-0.5488281,0.041015625,-51.879883,-30.517578,40.039062,0.0,0.0,0.0,-82.55127,47.12036,-51.44348
1765377910117,-0.94970703,-0.5488281,0.041015625,-51.879883,-30.517578,40.039062,0.0,0.0,0.0,-81.73828,49.27368,-45.411987
1765377910205,-0.87890625,-0.57470703,-0.030273438,-5.3710938,41.19873,8.544922,0.0,0.0,0.0,-81.73828,49.27368,-45.411987
1765377910216,-0.87890625,-0.57470703,-0.030273438,-5.3710938,41.19873,8.544922,0.0,0.0,0.0,-85.10559,52.020264,-47.39502
1765377910305,-0.5673828,-0.54541016,0.11767578,38.757324,25.817871,4.5776367,0.0,0.0,0.0,-85.10559,52.020264,-47.39502
1765377910316,-0.5673828,-0.54541016,0.11767578,38.757324,25.817871,4.5776367,0.0,0.0,0.0,-90.29114,52.888184,-56.436768
1765377910404,-0.9614258,-0.5288086,-0.05029297,8.850098,-20.751953,9.155273,0.0,0.0,0.0,-90.29114,52.888184,-56.436768
1765377910416,-0.9614258,-0.5288086,-0.05029297,8.850098,-20.751953,9.155273,0.0,0.0,0.0,-86.7041,52.52014,-55.805054
1765377910504,-0.74316406,-0.69677734,0.118652344,49.743652,0.36621094,-4.333496,0.0,0.0,0.0,-86.7041,52.52014,-55.805054
1765377910515,-0.74316406,-0.69677734,0.118652344,49.743652,0.36621094,-4.333496,0.0,0.0,0.0,-81.66138,54.14612,-54.54712
1765377910603,-0.73828125,-0.6611328,0.020019531,43.33496,3.90625,-5.493164,0.0,0.0,0.0,-81.66138,54.14612,-54.54712
1765377910615,-0.73828125,-0.6611328,0.020019531,43.33496,3.90625,-5.493164,0.0,0.0,0.0,-78.31055,52.921143,-56.75537
1765377910703,-0.6738281,-0.7480469,0.0053710938,-15.136719,-1.7700195,-11.230469,0.0,0.0,0.0,-78.31055,52.921143,-56.75537
1765377910715,-0.6738281,-0.7480469,0.0053710938,-15.136719,-1.7700195,-11.230469,0.0,0.0,0.0,-78.29956,51.95984,-59.51294
1765377910803,-0.8076172,-0.6352539,0.13085938,-42.419434,-35.27832,11.962891,0.0,0.0,0.0,-78.29956,51.95984,-59.51294
1765377910814,-0.8076172,-0.6352539,0.13085938,-42.419434,-35.27832,11.962891,0.0,0.0,0.0,-79.53552,51.14685,-57.91443
1765377910903,-0.8359375,-0.6118164,0.32177734,-7.6904297,-27.34375,5.432129,0.0,0.0,0.0,-79.53552,51.14685,-57.91443
1765377910914,-0.8359375,-0.6118164,0.32177734,-7.6904297,-27.34375,5.432129,0.0,0.0,0.0,-77.79968,51.256714,-51.65222
1765377911002,-0.59277344,-0.3564453,0.17333984,-4.211426,30.212402,-15.50293,0.0,0.0,0.0,-77.79968,51.256714,-51.65222
1765377911014,-0.59277344,-0.3564453,0.17333984,-4.211426,30.212402,-15.50293,0.0,0.0,0.0,-78.65112,50.77881,-52.800293
1765377911102,-0.90625,-0.7631836,0.19970703,28.625488,-9.94873,-28.625488,0.0,0.0,0.0,-78.65112,50.77881,-52.800293
1765377911114,-0.90625,-0.7631836,0.19970703,28.625488,-9.94873,-28.625488,0.0,0.0,0.0,-78.947754,49.141846,-54.20105
1765377911202,-0.65771484,-0.4975586,0.071777344,-14.6484375,3.6621094,5.554199,0.0,0.0,0.0,-78.947754,49.141846,-54.20105
1765377911214,-0.65771484,-0.4975586,0.071777344,-14.6484375,3.6621094,5.554199,0.0,0.0,0.0,-78.88733,48.51013,-54.261475
1765377911302,-0.9135742,-0.6381836,0.022460938,-22.766113,-15.930176,14.221191,0.0,0.0,0.0,-78.88733,48.51013,-54.261475
1765377911313,-0.9135742,-0.6381836,0.022460938,-22.766113,-15.930176,14.221191,0.0,0.0,0.0,-78.94226,49.987793,-51.762085
1765377911401,-0.8803711,-0.6040039,0.09863281,-19.77539,38.33008,21.484375,0.0,0.0,0.0,-78.94226,49.987793,-51.762085
1765377911413,-0.8803711,-0.6040039,0.09863281,-19.77539,38.33008,21.484375,0.0,0.0,0.0,-81.78223,51.569824,-53.739624
1765377911501,-0.7158203,-0.67578125,0.16992188,26.000977,14.709473,-20.141602,0.0,0.0,0.0,-81.78223,51.569824,-53.739624
1765377911513,-0.7158203,-0.67578125,0.16992188,26.000977,14.709473,-20.141602,0.0,0.0,0.0,-84.78699,52.93213,-58.6615
1765377911601,-0.7104492,-0.5126953,0.16503906,1.2207031,-20.019531,12.573242,0.0,0.0,0.0,-84.78699,52.93213,-58.6615
1765377911612,-0.7104492,-0.5126953,0.16503906,1.2207031,-20.019531,12.573242,0.0,0.0,0.0,-83.39722,52.437744,-57.870483
1765377911700,-0.82373047,-0.72021484,0.063964844,36.071777,-0.12207031,-19.104004,0.0,0.0,0.0,-83.39722,52.437744,-57.870483
1765377911712,-0.82373047,-0.72021484,0.063964844,36.071777,-0.12207031,-19.104004,0.0,0.0,0.0,-76.78345,52.146606,-52.130127
1765377911800,-0.5878906,-0.70410156,0.10205078,29.60205,36.071777,-17.944336,0.0,0.0,0.0,-76.78345,52.146606,-52.130127
1765377911812,-0.5878906,-0.70410156,0.10205078,29.60205,36.071777,-17.944336,0.0,0.0,0.0,-77.48108,50.74585,-57.84851
1765377911900,-0.80859375,-0.671875,0.034179688,-15.075684,-17.578125,0.12207031,0.0,0.0,0.0,-77.48108,50.74585,-57.84851
1765377911911,-0.80859375,-0.671875,0.034179688,-15.075684,-17.578125,0.12207031,0.0,0.0,0.0,-78.5907,49.246216,-59.732666
1765377912000,-0.72216797,-0.6821289,0.07373047,-27.893066,-38.269043,8.972168,0.0,0.0,0.0,-78.5907,49.246216,-59.732666
1765377912011,-0.72216797,-0.6821289,0.07373047,-27.893066,-38.269043,8.972168,0.0,0.0,0.0,-77.162476,49.295654,-54.82727
1765377912099,-0.87402344,-0.50634766,0.11230469,-17.944336,18.615723,20.019531,0.0,0.0,0.0,-77.162476,49.295654,-54.82727
1765377912111,-0.87402344,-0.50634766,0.11230469,-17.944336,18.615723,20.019531,0.0,0.0,0.0,-78.167725,50.169067,-52.992554
1765377912199,-0.7558594,-0.70458984,0.35888672,48.27881,9.460449,-9.216309,0.0,0.0,0.0,-78.167725,50.169067,-52.992554
1765377912211,-0.7558594,-0.70458984,0.35888672,48.27881,9.460449,-9.216309,0.0,0.0,0.0,-79.348755,52.459717,-54.343872
1765377912299,-0.89208984,-0.8642578,0.23291016,-1.6479492,49.316406,-54.32129,0.0,0.0,0.0,-79.348755,52.459717,-54.343872
1765377912310,-0.89208984,-0.8642578,0.23291016,-1.6479492,49.316406,-54.32129,0.0,0.0,0.0,-78.288574,48.99353,-55.733643
1765377912399,-0.68408203,-0.39111328,-0.0073242188,-30.395508,-34.301758,13.122559,0.0,0.0,0.0,-78.288574,48.99353,-55.733643
1765377912410,-0.68408203,-0.39111328,-0.0073242188,-30.395508,-34.301758,13.122559,0.0,0.0,0.0,-81.3208,47.438965,-57.041016
1765377912498,-0.8569336,-0.4477539,0.01953125,4.5776367,-40.039062,23.254395,0.0,0.0,0.0,-81.3208,47.438965,-57.041016
1765377912510,-0.8569336,-0.4477539,0.01953125,4.5776367,-40.039062,23.254395,0.0,0.0,0.0,-77.44812,48.999023,-49.526367
1765377912598,-0.83691406,-0.6323242,0.13232422,18.920898,35.461426,-0.8544922,0.0,0.0,0.0,-77.44812,48.999023,-49.526367
1765377912610,-0.83691406,-0.6323242,0.13232422,18.920898,35.461426,-0.8544922,0.0,0.0,0.0,-78.08533,50.949097,-51.71814
1765377912698,-0.75097656,-0.89160156,0.23730469,4.5776367,26.245117,-7.2021484,0.0,0.0,0.0,-78.08533,50.949097,-51.71814
1765377912709,-0.75097656,-0.89160156,0.23730469,4.5776367,26.245117,-7.2021484,0.0,0.0,0.0,-80.55725,51.097412,-57.453003
1765377912797,-0.6503906,-0.3388672,0.075683594,-27.832031,-66.28418,24.291992,0.0,0.0,0.0,-80.55725,51.097412,-57.453003
1765377912809,-0.6503906,-0.3388672,0.075683594,-27.832031,-66.28418,24.291992,0.0,0.0,0.0,-77.67883,50.690918,-51.1084
1765377912897,-0.9169922,-0.6899414,0.16894531,16.784668,-3.9672852,23.07129,0.0,0.0,0.0,-77.67883,50.690918,-51.1084
1765377912909,-0.9169922,-0.6899414,0.16894531,16.784668,-3.9672852,23.07129,0.0,0.0,0.0,-71.09802,53.40454,-42.313843
1765377912997,-0.6557617,-0.68359375,0.22021484,71.5332,42.419434,-37.04834,0.0,0.0,0.0,-71.09802,53.40454,-42.313843
1765377913009,-0.6557617,-0.68359375,0.22021484,71.5332,42.419434,-37.04834,0.0,0.0,0.0,-71.328735,52.492676,-49.44397
1765377913097,-0.7475586,-0.8149414,0.08691406,-7.507324,90.026855,-21.057129,0.0,0.0,0.0,-71.328735,52.492676,-49.44397
1765377913108,-0.7475586,-0.8149414,0.08691406,-7.507324,90.026855,-21.057129,0.0,0.0,0.0,-78.947754,50.701904,-62.215576
1765377913196,-0.9526367,-0.55810547,0.3852539,6.7749023,-86.66992,13.122559,0.0,0.0,0.0,-78.947754,50.701904,-62.215576
1765377913208,-0.9526367,-0.55810547,0.3852539,6.7749023,-86.66992,13.122559,0.0,0.0,0.0,-79.61792,49.976807,-59.9469
1765377913296,-0.5551758,-0.6538086,0.14013672,-10.803223,-17.27295,-13.427734,0.0,0.0,0.0,-79.61792,49.976807,-59.9469
1765377913308,-0.5551758,-0.6538086,0.14013672,-10.803223,-17.27295,-13.427734,0.0,0.0,0.0,-70.147705,49.18579,-46.71936
1765377913396,-0.8808594,-0.50097656,0.30078125,15.74707,-7.2631836,-3.1738281,0.0,0.0,0.0,-70.147705,49.18579,-46.71936
1765377913407,-0.8808594,-0.50097656,0.30078125,15.74707,-7.2631836,-3.1738281,0.0,0.0,0.0,-70.35095,48.081665,-45.598755
1765377913495,-0.81884766,-0.63671875,0.25048828,-5.6152344,-20.751953,8.972168,0.0,0.0,0.0,-70.35095,48.081665,-45.598755
1765377913507,-0.81884766,-0.63671875,0.25048828,-5.6152344,-20.751953,8.972168,0.0,0.0,0.0,-68.499756,48.40027,-44.104614
1765377913595,-0.89697266,-0.52490234,0.18896484,1.8310547,7.2631836,5.3100586,0.0,0.0,0.0,-68.499756,48.40027,-44.104614
1765377913607,-0.89697266,-0.52490234,0.18896484,1.8310547,7.2631836,5.3100586,0.0,0.0,0.0,-66.76941,48.66394,-41.99524
1765377913695,-0.7207031,-0.57177734,0.24316406,15.686035,18.981934,1.8310547,0.0,0.0,0.0,-66.76941,48.66394,-41.99524
1765377913706,-0.7207031,-0.57177734,0.24316406,15.686035,18.981934,1.8310547,0.0,0.0,0.0,-67.802124,50.460205,-44.423218
1765377913795,-0.6796875,-0.55322266,0.125,-15.686035,11.474609,-1.2817383,0.0,0.0,0.0,-67.802124,50.460205,-44.423218
1765377913806,-0.6796875,-0.55322266,0.125,-15.686035,11.474609,-1.2817383,0.0,0.0,0.0,-69.417114,50.663452,-46.653442
1765377913894,-0.8046875,-0.62939453,0.3569336,-10.314941,-10.925293,14.770508,0.0,0.0,0.0,-69.417114,50.663452,-46.653442
1765377913906,-0.8046875,-0.62939453,0.3569336,-10.314941,-10.925293,14.770508,0.0,0.0,0.0,-72.50427,51.6687,-46.658936
1765377913994,-0.62109375,-0.67089844,0.29248047,-15.258789,-9.033203,2.9296875,0.0,0.0,0.0,-72.50427,51.6687,-46.658936
1765377914006,-0.62109375,-0.67089844,0.29248047,-15.258789,-9.033203,2.9296875,0.0,0.0,0.0,-68.43384,51.657715,-41.522827
1765377914094,-0.8569336,-0.51220703,0.11816406,3.6010742,-23.925781,11.84082,0.0,0.0,0.0,-68.43384,51.657715,-41.522827
1765377914105,-0.8569336,-0.51220703,0.11816406,3.6010742,-23.925781,11.84082,0.0,0.0,0.0,-67.65381,50.372314,-39.56726
1765377914194,-0.5654297,-0.66796875,0.24072266,9.70459,2.8076172,-6.652832,0.0,0.0,0.0,-67.65381,50.372314,-39.56726
1765377914205,-0.5654297,-0.66796875,0.24072266,9.70459,2.8076172,-6.652832,0.0,0.0,0.0,-66.58264,51.201782,-38.171997
1765377914293,-0.8959961,-0.68847656,0.12890625,-8.056641,32.409668,-9.643555,0.0,0.0,0.0,-66.58264,51.201782,-38.171997
1765377914305,-0.8959961,-0.68847656,0.12890625,-8.056641,32.409668,-9.643555,0.0,0.0,0.0,-69.60388,49.421997,-42.000732
1765377914393,-0.7363281,-0.62646484,0.2578125,-26.062012,12.207031,9.94873,0.0,0.0,0.0,-69.60388,49.421997,-42.000732
1765377914405,-0.7363281,-0.62646484,0.2578125,-26.062012,12.207031,9.94873,0.0,0.0,0.0,-74.84985,51.015015,-45.422974
1765377914493,-0.7314453,-0.64697266,0.30615234,-7.873535,1.5258789,-2.9296875,0.0,0.0,0.0,-74.84985,51.015015,-45.422974
1765377914504,-0.7314453,-0.64697266,0.30615234,-7.873535,1.5258789,-2.9296875,0.0,0.0,0.0,-76.22864,51.33362,-44.96704
1765377914593,-0.93603516,-0.5883789,0.14453125,-16.540527,-1.159668,-18.005371,0.0,0.0,0.0,-76.22864,51.33362,-44.96704
1765377914604,-0.93603516,-0.5883789,0.14453125,-16.540527,-1.159668,-18.005371,0.0,0.0,0.0,-77.508545,49.35608,-45.53833
1765377914692,-0.6923828,-0.5805664,0.16796875,10.253906,-26.367188,-1.159668,0.0,0.0,0.0,-77.508545,49.35608,-45.53833
1765377914704,-0.6923828,-0.5805664,0.16796875,10.253906,-26.367188,-1.159668,0.0,0.0,0.0,-75.50354,48.97705,-42.044678
1765377914792,-0.86328125,-0.52734375,0.12451172,-11.047363,12.329102,13.671875,0.0,0.0,0.0,-75.50354,48.97705,-42.044678
1765377914803,-0.86328125,-0.52734375,0.12451172,-11.047363,12.329102,13.671875,0.0,0.0,0.0,-74.904785,49.015503,-41.92383
1765377914892,-0.8339844,-0.59033203,0.041503906,-6.4086914,23.80371,3.479004,0.0,0.0,0.0,-74.904785,49.015503,-41.92383
1765377914903,-0.8339844,-0.59033203,0.041503906,-6.4086914,23.80371,3.479004,0.0,0.0,0.0,-77.4646,51.07544,-44.5166
1765377914991,-0.8041992,-0.7207031,0.22802734,2.2583008,18.676758,9.58252,0.0,0.0,0.0,-77.4646,51.07544,-44.5166
1765377915003,-0.8041992,-0.7207031,0.22802734,2.2583008,18.676758,9.58252,0.0,0.0,0.0,-81.936035,52.261963,-50.075684
1765377915091,-0.75439453,-0.45996094,0.05810547,0.061035156,-18.737793,22.888184,0.0,0.0,0.0,-81.936035,52.261963,-50.075684
1765377915103,-0.75439453,-0.45996094,0.05810547,0.061035156,-18.737793,22.888184,0.0,0.0,0.0,-80.47485,52.937622,-49.432983
1765377915191,-0.87353516,-0.77441406,0.119628906,12.878418,-10.864258,4.272461,0.0,0.0,0.0,-80.47485,52.937622,-49.432983
1765377915202,-0.87353516,-0.77441406,0.119628906,12.878418,-10.864258,4.272461,0.0,0.0,0.0,-78.05237,55.211792,-46.89514
1765377915291,-0.7128906,-0.56591797,0.03173828,7.9345703,9.338379,2.8076172,0.0,0.0,0.0,-78.05237,55.211792,-46.89514
1765377915303,-0.7128906,-0.56591797,0.03173828,7.9345703,9.338379,2.8076172,0.0,0.0,0.0,-77.48657,54.58008,-48.790283
1765377915390,-0.7685547,-0.63427734,0.022949219,2.2583008,-15.50293,-7.9345703,0.0,0.0,0.0,-77.48657,54.58008,-48.790283
1765377915402,-0.7685547,-0.63427734,0.022949219,2.2583008,-15.50293,-7.9345703,0.0,0.0,0.0,-76.69006,54.085693,-49.367065
1765377915490,-0.79833984,-0.6582031,0.072265625,-27.038574,20.935059,-0.18310547,0.0,0.0,0.0,-76.69006,54.085693,-49.367065
1765377915501,-0.79833984,-0.6582031,0.072265625,-27.038574,20.935059,-0.18310547,0.0,0.0,0.0,-79.0741,53.684692,-51.762085
1765377915590,-0.8911133,-0.53808594,0.2783203,-11.352539,-35.461426,12.390137,0.0,0.0,0.0,-79.0741,53.684692,-51.762085
1765377915601,-0.8911133,-0.53808594,0.2783203,-11.352539,-35.461426,12.390137,0.0,0.0,0.0,-80.95276,53.87146,-51.427002
1765377915689,-0.7753906,-0.46875,0.17529297,2.380371,28.381348,-33.38623,0.0,0.0,0.0,-80.95276,53.87146,-51.427002
1765377915701,-0.7753906,-0.46875,0.17529297,2.380371,28.381348,-33.38623,0.0,0.0,0.0,-80.25513,52.651978,-50.811768
1765377915789,-0.76171875,-0.65771484,0.071777344,15.930176,14.465332,-2.2583008,0.0,0.0,0.0,-80.25513,52.651978,-50.811768
1765377915801,-0.76171875,-0.65771484,0.071777344,15.930176,14.465332,-2.2583008,0.0,0.0,0.0,-82.49634,51.38855,-54.87671
1765377915889,-0.8041992,-0.38378906,0.0,-13.427734,-10.681152,13.48877,0.0,0.0,0.0,-82.49634,51.38855,-54.87671
1765377915901,-0.8041992,-0.38378906,0.0,-13.427734,-10.681152,13.48877,0.0,0.0,0.0,-82.94678,51.800537,-55.59082
1765377915989,-0.8798828,-0.63183594,0.015136719,7.2631836,9.033203,4.4555664,0.0,0.0,0.0,-82.94678,51.800537,-55.59082
1765377916000,-0.8798828,-0.63183594,0.015136719,7.2631836,9.033203,4.4555664,0.0,0.0,0.0,-81.52405,53.55835,-54.39331
1765377916088,-0.77685547,-0.54052734,-0.013183594,-8.422852,27.22168,3.540039,0.0,0.0,0.0,-81.52405,53.55835,-54.39331
1765377916100,-0.77685547,-0.54052734,-0.013183594,-8.422852,27.22168,3.540039,0.0,0.0,0.0,-84.79797,53.85498,-60.29297
1765377916188,-0.9350586,-0.7421875,0.18554688,-16.662598,-21.54541,5.79834,0.0,0.0,0.0,-84.79797,53.85498,-60.29297
1765377916200,-0.9350586,-0.7421875,0.18554688,-16.662598,-21.54541,5.79834,0.0,0.0,0.0,-86.797485,54.470215,-62.347412
1765377916288,-0.5908203,-0.3671875,0.040039062,5.004883,-52.4292,28.869629,0.0,0.0,0.0,-86.797485,54.470215,-62.347412
1765377916299,-0.5908203,-0.3671875,0.040039062,5.004883,-52.4292,28.869629,0.0,0.0,0.0,-79.11255,55.645752,-53.602295
1765377916388,-0.9536133,-0.66308594,0.20507812,28.503418,-24.841309,-12.512207,0.0,0.0,0.0,-79.11255,55.645752,-53.602295
1765377916399,-0.9536133,-0.66308594,0.20507812,28.503418,-24.841309,-12.512207,0.0,0.0,0.0,-72.69104,55.69519,-46.988525
1765377916487,-0.7739258,-0.57177734,0.2133789,8.056641,3.9672852,0.12207031,0.0,0.0,0.0,-72.69104,55.69519,-46.988525
1765377916499,-0.7739258,-0.57177734,0.2133789,8.056641,3.9672852,0.12207031,0.0,0.0,0.0,-69.63684,54.629517,-46.444702
1765377916587,-0.82470703,-0.66259766,0.08642578,-4.8828125,39.916992,-11.535645,0.0,0.0,0.0,-69.63684,54.629517,-46.444702
1765377916599,-0.82470703,-0.66259766,0.08642578,-4.8828125,39.916992,-11.535645,0.0,0.0,0.0,-71.82312,54.838257,-49.13086
1765377916687,-0.7836914,-0.42822266,0.31054688,-9.82666,-41.015625,2.6855469,0.0,0.0,0.0,-71.82312,54.838257,-49.13086
1765377916698,-0.7836914,-0.42822266,0.31054688,-9.82666,-41.015625,2.6855469,0.0,0.0,0.0,-75.75073,54.332886,-51.97632
1765377916786,-0.7324219,-0.5883789,0.20703125,0.5493164,-31.37207,-4.0893555,0.0,0.0,0.0,-75.75073,54.332886,-51.97632
1765377916798,-0.7324219,-0.5883789,0.20703125,0.5493164,-31.37207,-4.0893555,0.0,0.0,0.0,-69.47754,53.40454,-43.74756
1765377916886,-0.98876953,-0.41455078,0.16503906,5.6152344,18.188477,-20.202637,0.0,0.0,0.0,-69.47754,53.40454,-43.74756
1765377916898,-0.98876953,-0.41455078,0.16503906,5.6152344,18.188477,-20.202637,0.0,0.0,0.0,-70.010376,51.28418,-44.780273
1765377916986,-0.80566406,-0.69628906,0.21142578,20.629883,-18.737793,-9.033203,0.0,0.0,0.0,-70.010376,51.28418,-44.780273
1765377916998,-0.80566406,-0.69628906,0.21142578,20.629883,-18.737793,-9.033203,0.0,0.0,0.0,-68.31299,51.37207,-43.588257
1765377917086,-0.84375,-0.41259766,0.12011719,2.5634766,0.0,-5.9814453,0.0,0.0,0.0,-68.31299,51.37207,-43.588257
1765377917098,-0.84375,-0.41259766,0.12011719,2.5634766,0.0,-5.9814453,0.0,0.0,0.0,-66.395874,49.361572,-43.53882
1765377917185,-0.8251953,-0.6220703,0.2446289,7.1411133,16.418457,-5.79834,0.0,0.0,0.0,-66.395874,49.361572,-43.53882
1765377917197,-0.8251953,-0.6220703,0.2446289,7.1411133,16.418457,-5.79834,0.0,0.0,0.0,-67.977905,50.548096,-45.933838
1765377917285,-0.77441406,-0.6386719,0.12792969,-16.479492,12.6953125,-7.2631836,0.0,0.0,0.0,-67.977905,50.548096,-45.933838
1765377917297,-0.77441406,-0.6386719,0.12792969,-16.479492,12.6953125,-7.2631836,0.0,0.0,0.0,-70.34546,50.03723,-48.762817
1765377917385,-0.58935547,-0.43945312,0.28955078,7.019043,-34.66797,17.63916,0.0,0.0,0.0,-70.34546,50.03723,-48.762817
1765377917397,-0.58935547,-0.43945312,0.28955078,7.019043,-34.66797,17.63916,0.0,0.0,0.0,-69.71924,50.47119,-46.07666
1765377917485,-0.80029297,-0.8510742,0.37939453,-2.746582,-12.634277,8.7890625,0.0,0.0,0.0,-69.71924,50.47119,-46.07666
1765377917496,-0.80029297,-0.8510742,0.37939453,-2.746582,-12.634277,8.7890625,0.0,0.0,0.0,-65.615845,50.932617,-40.061646
1765377917584,-0.72558594,-0.47607422,0.15478516,-3.7231445,-2.0141602,6.225586,0.0,0.0,0.0,-65.615845,50.932617,-40.061646
1765377917596,-0.72558594,-0.47607422,0.15478516,-3.7231445,-2.0141602,6.225586,0.0,0.0,0.0,-64.13818,49.938354,-38.139038
1765377917684,-0.6948242,-0.7216797,0.25195312,23.80371,-9.460449,-13.061523,0.0,0.0,0.0,-64.13818,49.938354,-38.139038
1765377917695,-0.6948242,-0.7216797,0.25195312,23.80371,-9.460449,-13.061523,0.0,0.0,0.0,-62.68799,49.68567,-36.69983
1765377917784,-0.72998047,-0.6347656,0.25439453,-4.3945312,13.977051,-7.507324,0.0,0.0,0.0,-62.68799,49.68567,-36.69983
1765377917795,-0.72998047,-0.6347656,0.25439453,-4.3945312,13.977051,-7.507324,0.0,0.0,0.0,-63.726196,48.2135,-38.512573
1765377917883,-0.7338867,-0.6713867,0.20751953,-12.939453,24.353027,-3.8452148,0.0,0.0,0.0,-63.726196,48.2135,-38.512573
1765377917895,-0.7338867,-0.6713867,0.20751953,-12.939453,24.353027,-3.8452148,0.0,0.0,0.0,-66.66504,48.499146,-40.166016
1765377917983,-0.80615234,-0.54248047,0.33935547,-8.361816,8.7890625,11.169434,0.0,0.0,0.0,-66.66504,48.499146,-40.166016
1765377917995,-0.80615234,-0.54248047,0.33935547,-8.361816,8.7890625,11.169434,0.0,0.0,0.0,-70.43884,49.37256,-42.368774
1765377918083,-0.49804688,-0.43554688,0.2475586,21.54541,19.53125,-31.066895,0.0,0.0,0.0,-70.43884,49.37256,-42.368774
1765377918094,-0.49804688,-0.43554688,0.2475586,21.54541,19.53125,-31.066895,0.0,0.0,0.0,-70.20813,48.773804,-43.97827
1765377918183,-0.91503906,-0.83935547,0.29052734,20.263672,-6.652832,-13.244629,0.0,0.0,0.0,-70.20813,48.773804,-43.97827
1765377918194,-0.91503906,-0.83935547,0.29052734,20.263672,-6.652832,-13.244629,0.0,0.0,0.0,-69.70276,46.708374,-45.219727
1765377918282,-0.60839844,-0.5463867,0.20751953,-44.799805,-38.085938,18.066406,0.0,0.0,0.0,-69.70276,46.708374,-45.219727
1765377918294,-0.60839844,-0.5463867,0.20751953,-44.799805,-38.085938,18.066406,0.0,0.0,0.0,-69.851074,46.950073,-40.979004
1765377918382,-0.9506836,-0.5551758,0.18798828,-58.044434,-40.46631,34.79004,0.0,0.0,0.0,-69.851074,46.950073,-40.979004
1765377918394,-0.9506836,-0.5551758,0.18798828,-58.044434,-40.46631,34.79004,0.0,0.0,0.0,-68.52722,47.526855,-31.8219
1765377918482,-0.76171875,-0.73779297,0.3803711,-5.6152344,25.390625,8.850098,0.0,0.0,0.0,-68.52722,47.526855,-31.8219
1765377918493,-0.76171875,-0.73779297,0.3803711,-5.6152344,25.390625,8.850098,0.0,0.0,0.0,-71.63635,50.394287,-31.92627
1765377918582,-0.6269531,-0.42138672,0.12011719,0.24414062,5.859375,-4.333496,0.0,0.0,0.0,-71.63635,50.394287,-31.92627
1765377918593,-0.6269531,-0.42138672,0.12011719,0.24414062,5.859375,-4.333496,0.0,0.0,0.0,-72.48779,49.94934,-34.293823
1765377918681,-0.9238281,-0.6459961,0.29101562,17.51709,-57.128906,30.151367,0.0,0.0,0.0,-72.48779,49.94934,-34.293823
1765377918693,-0.9238281,-0.6459961,0.29101562,17.51709,-57.128906,30.151367,0.0,0.0,0.0,-68.59863,51.65222,-28.685303
1765377918781,-0.68066406,-0.53808594,0.17285156,44.921875,17.028809,-20.874023,0.0,0.0,0.0,-68.59863,51.65222,-28.685303
1765377918792,-0.68066406,-0.53808594,0.17285156,44.921875,17.028809,-20.874023,0.0,0.0,0.0,-63.138428,50.1416,-27.097778
1765377918881,-0.7026367,-0.72314453,0.21533203,35.339355,19.042969,-23.254395,0.0,0.0,0.0,-63.138428,50.1416,-27.097778
1765377918892,-0.7026367,-0.72314453,0.21533203,35.339355,19.042969,-23.254395,0.0,0.0,0.0,-63.094482,49.334106,-33.00293
1765377918980,-0.80322266,-0.63720703,0.23046875,-23.132324,-26.855469,9.94873,0.0,0.0,0.0,-63.094482,49.334106,-33.00293
1765377918992,-0.80322266,-0.63720703,0.23046875,-23.132324,-26.855469,9.94873,0.0,0.0,0.0,-62.979126,48.043213,-32.563477
1765377919080,-0.7583008,-0.6645508,0.22509766,-19.77539,29.23584,-2.4414062,0.0,0.0,0.0,-62.979126,48.043213,-32.563477
1765377919092,-0.7583008,-0.6645508,0.22509766,-19.77539,29.23584,-2.4414062,0.0,0.0,0.0,-64.57214,48.619995,-31.673584
1765377919180,-0.8041992,-0.5161133,0.39697266,-12.390137,6.164551,20.446777,0.0,0.0,0.0,-64.57214,48.619995,-31.673584
1765377919192,-0.8041992,-0.5161133,0.39697266,-12.390137,6.164551,20.446777,0.0,0.0,0.0,-69.21387,50.1416,-35.34851
1765377919280,-0.53515625,-0.47753906,0.21386719,22.583008,20.324707,-36.43799,0.0,0.0,0.0,-69.21387,50.1416,-35.34851
1765377919291,-0.53515625,-0.47753906,0.21386719,22.583008,20.324707,-36.43799,0.0,0.0,0.0,-68.92273,49.553833,-36.38672
1765377919380,-0.8979492,-0.72509766,0.27246094,10.375977,-0.91552734,-8.422852,0.0,0.0,0.0,-68.92273,49.553833,-36.38672
1765377919391,-0.8979492,-0.72509766,0.27246094,10.375977,-0.91552734,-8.422852,0.0,0.0,0.0,-70.36194,47.785034,-39.578247
1765377919479,-0.70947266,-0.45410156,0.16015625,-25.878906,-23.132324,11.474609,0.0,0.0,0.0,-70.36194,47.785034,-39.578247
1765377919491,-0.70947266,-0.45410156,0.16015625,-25.878906,-23.132324,11.474609,0.0,0.0,0.0,-69.730225,47.543335,-36.749268
1765377919579,-0.90722656,-0.53808594,0.15771484,-7.507324,4.8217773,9.58252,0.0,0.0,0.0,-69.730225,47.543335,-36.749268
1765377919590,-0.90722656,-0.53808594,0.15771484,-7.507324,4.8217773,9.58252,0.0,0.0,0.0,-69.4281,48.779297,-34.266357
1765377919678,-0.7089844,-0.8305664,0.34179688,11.84082,30.88379,-5.126953,0.0,0.0,0.0,-69.4281,48.779297,-34.266357
1765377919690,-0.7089844,-0.8305664,0.34179688,11.84082,30.88379,-5.126953,0.0,0.0,0.0,-71.65283,49.976807,-38.35327
1765377919778,-0.63671875,-0.39453125,0.1977539,-16.113281,-35.88867,15.075684,0.0,0.0,0.0,-71.65283,49.976807,-38.35327
1765377919790,-0.63671875,-0.39453125,0.1977539,-16.113281,-35.88867,15.075684,0.0,0.0,0.0,-71.80115,49.614258,-38.38623
1765377919878,-0.81640625,-0.7373047,0.17822266,-0.91552734,-50.53711,26.916504,0.0,0.0,0.0,-71.80115,49.614258,-38.38623
1765377919889,-0.81640625,-0.7373047,0.17822266,-0.91552734,-50.53711,26.916504,0.0,0.0,0.0,-63.918457,50.76233,-26.295776
1765377919978,-0.75146484,-0.5942383,0.3227539,31.00586,1.3427734,-12.573242,0.0,0.0,0.0,-63.918457,50.76233,-26.295776
1765377919989,-0.75146484,-0.5942383,0.3227539,31.00586,1.3427734,-12.573242,0.0,0.0,0.0,-61.292725,49.60327,-25.65857
1765377920077,-0.66552734,-0.69628906,0.1274414,3.540039,9.338379,-8.422852,0.0,0.0,0.0,-61.292725,49.60327,-25.65857
1765377920089,-0.66552734,-0.69628906,0.1274414,3.540039,9.338379,-8.422852,0.0,0.0,0.0,-60.166626,48.762817,-27.229614
1765377920177,-0.8535156,-0.64697266,0.41259766,-39.733887,-25.20752,18.310547,0.0,0.0,0.0,-60.166626,48.762817,-27.229614
1765377920189,-0.8535156,-0.64697266,0.41259766,-39.733887,-25.20752,18.310547,0.0,0.0,0.0,-63.094482,48.72986,-27.328491
1765377920277,-0.69628906,-0.4477539,0.3466797,-10.253906,-4.272461,25.939941,0.0,0.0,0.0,-63.094482,48.72986,-27.328491
1765377920288,-0.69628906,-0.4477539,0.3466797,-10.253906,-4.272461,25.939941,0.0,0.0,0.0,-60.930176,49.59778,-21.11023
1765377920377,-0.60058594,-0.47460938,0.3095703,-3.4179688,28.808594,-29.846191,0.0,0.0,0.0,-60.930176,49.59778,-21.11023
1765377920388,-0.60058594,-0.47460938,0.3095703,-3.4179688,28.808594,-29.846191,0.0,0.0,0.0,-63.720703,49.94934,-23.499756
1765377920476,-0.89746094,-0.6899414,0.25195312,23.07129,11.474609,-27.038574,0.0,0.0,0.0,-63.720703,49.94934,-23.499756
1765377920488,-0.89746094,-0.6899414,0.25195312,23.07129,11.474609,-27.038574,0.0,0.0,0.0,-65.615845,48.356323,-27.295532
1765377920576,-0.7104492,-0.46240234,0.1850586,-19.16504,-6.164551,8.361816,0.0,0.0,0.0,-65.615845,48.356323,-27.295532
1765377920588,-0.7104492,-0.46240234,0.1850586,-19.16504,-6.164551,8.361816,0.0,0.0,0.0,-68.010864,47.76306,-31.316528
1765377920676,-0.8925781,-0.61279297,0.21191406,-20.080566,-17.333984,19.65332,0.0,0.0,0.0,-68.010864,47.76306,-31.316528
1765377920687,-0.8925781,-0.61279297,0.21191406,-20.080566,-17.333984,19.65332,0.0,0.0,0.0,-65.35217,48.52112,-25.653076
1765377920775,-0.74853516,-0.6323242,0.27294922,2.0751953,29.418945,-3.112793,0.0,0.0,0.0,-65.35217,48.52112,-25.653076
1765377920787,-0.74853516,-0.6323242,0.27294922,2.0751953,29.418945,-3.112793,0.0,0.0,0.0,-67.70325,49.839478,-28.240356
1765377920875,-0.73046875,-0.59521484,0.3154297,-5.6762695,-25.817871,4.5166016,0.0,0.0,0.0,-67.70325,49.839478,-28.240356
1765377920887,-0.73046875,-0.59521484,0.3154297,-5.6762695,-25.817871,4.5166016,0.0,0.0,0.0,-69.89502,50.048218,-31.113281
1765377920975,-0.625,-0.41796875,0.14941406,6.225586,-39.489746,29.541016,0.0,0.0,0.0,-69.89502,50.048218,-31.113281
1765377920986,-0.625,-0.41796875,0.14941406,6.225586,-39.489746,29.541016,0.0,0.0,0.0,-62.69348,50.07019,-21.566162
1765377921075,-0.9267578,-0.69921875,0.4609375,28.503418,-2.9296875,-17.578125,0.0,0.0,0.0,-62.69348,50.07019,-21.566162
1765377921086,-0.9267578,-0.69921875,0.4609375,28.503418,-2.9296875,-17.578125,0.0,0.0,0.0,-59.436035,49.70764,-20.12146
1765377921174,-0.6796875,-0.5834961,0.17089844,14.6484375,31.311035,4.333496,0.0,0.0,0.0,-59.436035,49.70764,-20.12146
1765377921186,-0.6796875,-0.5834961,0.17089844,14.6484375,31.311035,4.333496,0.0,0.0,0.0,-58.672485,49.960327,-22.109985
1765377921274,-0.6665039,-0.72802734,0.28173828,-19.40918,7.9345703,-6.713867,0.0,0.0,0.0,-58.672485,49.960327,-22.109985
1765377921286,-0.6665039,-0.72802734,0.28173828,-19.40918,7.9345703,-6.713867,0.0,0.0,0.0,-61.831055,50.34485,-25.50476
1765377921374,-0.9560547,-0.63964844,0.30371094,-34.42383,-5.79834,7.2631836,0.0,0.0,0.0,-61.831055,50.34485,-25.50476
1765377921385,-0.9560547,-0.63964844,0.30371094,-34.42383,-5.79834,7.2631836,0.0,0.0,0.0,-64.63806,49.92737,-24.125977
1765377921474,-0.6933594,-0.4194336,0.24072266,28.259277,24.108887,-6.8969727,0.0,0.0,0.0,-64.63806,49.92737,-24.125977
1765377921485,-0.6933594,-0.4194336,0.24072266,28.259277,24.108887,-6.8969727,0.0,0.0,0.0,-66.07727,50.36682,-26.18042
1765377921573,-0.6777344,-0.54541016,0.3623047,7.3242188,39.733887,-18.981934,0.0,0.0,0.0,-66.07727,50.36682,-26.18042
1765377921585,-0.6777344,-0.54541016,0.3623047,7.3242188,39.733887,-18.981934,0.0,0.0,0.0,-68.60962,50.289917,-32.459106
1765377921673,-0.75097656,-0.58740234,0.11279297,-26.123047,10.437012,-9.521484,0.0,0.0,0.0,-68.60962,50.289917,-32.459106
1765377921684,-0.75097656,-0.58740234,0.11279297,-26.123047,10.437012,-9.521484,0.0,0.0,0.0,-70.944214,48.72986,-36.205444
1765377921773,-0.85546875,-0.4189453,0.16455078,2.1972656,-73.48633,12.634277,0.0,0.0,0.0,-70.944214,48.72986,-36.205444
1765377921784,-0.85546875,-0.4189453,0.16455078,2.1972656,-73.48633,12.634277,0.0,0.0,0.0,-68.395386,48.603516,-29.783936
1765377921872,-0.8701172,-0.5698242,0.18652344,-11.474609,40.58838,18.798828,0.0,0.0,0.0,-68.395386,48.603516,-29.783936
1765377921884,-0.8701172,-0.5698242,0.18652344,-11.474609,40.58838,18.798828,0.0,0.0,0.0,-68.862305,50.498657,-29.157715
1765377921972,-0.9267578,-0.7055664,0.27490234,-1.953125,29.174805,12.023926,0.0,0.0,0.0,-68.862305,50.498657,-29.157715
1765377921984,-0.9267578,-0.7055664,0.27490234,-1.953125,29.174805,12.023926,0.0,0.0,0.0,-73.586426,52.910156,-35.634155
1765377922072,-0.6357422,-0.28857422,0.09667969,-3.0517578,-45.776367,32.53174,0.0,0.0,0.0,-73.586426,52.910156,-35.634155
1765377922083,-0.6357422,-0.28857422,0.09667969,-3.0517578,-45.776367,32.53174,0.0,0.0,0.0,-69.86206,54.84375,-30.212402
1765377922172,-0.7949219,-0.6870117,0.33544922,16.235352,-5.79834,11.59668,0.0,0.0,0.0,-69.86206,54.84375,-30.212402
1765377922183,-0.7949219,-0.6870117,0.33544922,16.235352,-5.79834,11.59668,0.0,0.0,0.0,-66.10474,56.502686,-26.889038
1765377922271,-0.88623047,-0.5083008,0.18798828,18.615723,25.024414,-7.446289,0.0,0.0,0.0,-66.10474,56.502686,-26.889038
1765377922283,-0.88623047,-0.5083008,0.18798828,18.615723,25.024414,-7.446289,0.0,0.0,0.0,-64.18213,54.99756,-27.800903
1765377922371,-0.8222656,-0.54296875,0.13183594,-7.507324,-24.230957,15.74707,0.0,0.0,0.0,-64.18213,54.99756,-27.800903
1765377922383,-0.8222656,-0.54296875,0.13183594,-7.507324,-24.230957,15.74707,0.0,0.0,0.0,-63.654785,56.51367,-26.8396
1765377922471,-0.7895508,-0.5878906,0.16455078,0.0,23.498535,-12.145996,0.0,0.0,0.0,-63.654785,56.51367,-26.8396
1765377922482,-0.7895508,-0.5878906,0.16455078,0.0,23.498535,-12.145996,0.0,0.0,0.0,-64.25903,56.17859,-27.575684
1765377922571,-0.94970703,-0.60058594,0.23925781,-20.202637,27.46582,-11.413574,0.0,0.0,0.0,-64.25903,56.17859,-27.575684
1765377922582,-0.94970703,-0.60058594,0.23925781,-20.202637,27.46582,-11.413574,0.0,0.0,0.0,-70.77942,55.93689,-35.408936
1765377922670,-0.74902344,-0.45751953,0.22705078,12.023926,2.8076172,-13.916016,0.0,0.0,0.0,-70.77942,55.93689,-35.408936
1765377922682,-0.74902344,-0.45751953,0.22705078,12.023926,2.8076172,-13.916016,0.0,0.0,0.0,-73.152466,55.195312,-37.06787
1765377922770,-0.7441406,-0.61621094,0.27539062,7.6904297,20.812988,-45.715332,0.0,0.0,0.0,-73.152466,55.195312,-37.06787
1765377922782,-0.7441406,-0.61621094,0.27539062,7.6904297,20.812988,-45.715332,0.0,0.0,0.0,-74.23462,52.34436,-41.05591
1765377922870,-0.7290039,-0.49267578,0.11035156,6.4086914,-20.019531,1.8920898,0.0,0.0,0.0,-74.23462,52.34436,-41.05591
1765377922881,-0.7290039,-0.49267578,0.11035156,6.4086914,-20.019531,1.8920898,0.0,0.0,0.0,-73.322754,49.883423,-42.264404
1765377922969,-0.8911133,-0.6274414,0.1743164,-11.901855,-22.338867,7.446289,0.0,0.0,0.0,-73.322754,49.883423,-42.264404
1765377922981,-0.8911133,-0.6274414,0.1743164,-11.901855,-22.338867,7.446289,0.0,0.0,0.0,-70.702515,50.333862,-38.084106
1765377923069,-0.82910156,-0.53222656,0.087402344,-20.507812,19.470215,1.2817383,0.0,0.0,0.0,-70.702515,50.333862,-38.084106
1765377923081,-0.82910156,-0.53222656,0.087402344,-20.507812,19.470215,1.2817383,0.0,0.0,0.0,-73.03162,50.844727,-39.814453
1765377923169,-1.0073242,-0.72509766,0.3100586,-9.338379,-8.239746,17.39502,0.0,0.0,0.0,-73.03162,50.844727,-39.814453
1765377923180,-1.0073242,-0.72509766,0.3100586,-9.338379,-8.239746,17.39502,0.0,0.0,0.0,-75.80017,52.157593,-41.02295
1765377923269,-0.47070312,-0.28564453,0.06982422,28.869629,7.019043,6.5307617,0.0,0.0,0.0,-75.80017,52.157593,-41.02295
1765377923280,-0.47070312,-0.28564453,0.06982422,28.869629,7.019043,6.5307617,0.0,0.0,0.0,-72.454834,52.84424,-39.693604
1765377923368,-1.1000977,-1.0991211,0.46142578,34.240723,7.6293945,-8.850098,0.0,0.0,0.0,-72.454834,52.84424,-39.693604
1765377923380,-1.1000977,-1.0991211,0.46142578,34.240723,7.6293945,-8.850098,0.0,0.0,0.0,-71.92749,53.948364,-41.797485
1765377923468,-0.68310547,-0.359375,-0.061523438,-1.0986328,26.794434,15.625,0.0,0.0,0.0,-71.92749,53.948364,-41.797485
1765377923480,-0.68310547,-0.359375,-0.061523438,-1.0986328,26.794434,15.625,0.0,0.0,0.0,-70.62561,52.981567,-42.006226
1765377923568,-0.71875,-0.78466797,0.15722656,36.8042,15.869141,-26.550293,0.0,0.0,0.0,-70.62561,52.981567,-42.006226
1765377923579,-0.71875,-0.78466797,0.15722656,36.8042,15.869141,-26.550293,0.0,0.0,0.0,-71.916504,53.503418,-46.71936
1765377923667,-0.7993164,-0.6279297,0.03173828,6.1035156,18.432617,-14.831543,0.0,0.0,0.0,-71.916504,53.503418,-46.71936
1765377923679,-0.7993164,-0.6279297,0.03173828,6.1035156,18.432617,-14.831543,0.0,0.0,0.0,-74.75098,51.641235,-52.283936
1765377923767,-0.72314453,-0.69873047,0.09667969,-2.5634766,-24.841309,-1.7089844,0.0,0.0,0.0,-74.75098,51.641235,-52.283936
1765377923779,-0.72314453,-0.69873047,0.09667969,-2.5634766,-24.841309,-1.7089844,0.0,0.0,0.0,-73.61389,50.27893,-52.08618
1765377923867,-0.94433594,-0.54345703,0.18798828,-24.841309,4.699707,23.010254,0.0,0.0,0.0,-73.61389,50.27893,-52.08618
1765377923878,-0.94433594,-0.54345703,0.18798828,-24.841309,4.699707,23.010254,0.0,0.0,0.0,-75.07507,51.141357,-51.328125
1765377923967,-0.67626953,-0.6748047,0.3935547,21.118164,-18.188477,-9.094238,0.0,0.0,0.0,-75.07507,51.141357,-51.328125
1765377923978,-0.67626953,-0.6748047,0.3935547,21.118164,-18.188477,-9.094238,0.0,0.0,0.0,-74.89929,52.684937,-49.59778
1765377924066,-0.90625,-0.65234375,0.20263672,4.333496,7.8125,-32.226562,0.0,0.0,0.0,-74.89929,52.684937,-49.59778
1765377924078,-0.90625,-0.65234375,0.20263672,4.333496,7.8125,-32.226562,0.0,0.0,0.0,-72.55371,49.119873,-47.856445
1765377924166,-0.6645508,-0.52783203,0.140625,-14.465332,-27.038574,0.5493164,0.0,0.0,0.0,-72.55371,49.119873,-47.856445
1765377924178,-0.6645508,-0.52783203,0.140625,-14.465332,-27.038574,0.5493164,0.0,0.0,0.0,-74.18518,48.218994,-49.454956
1765377924266,-0.82470703,-0.5859375,0.18164062,-36.743164,-52.124023,22.338867,0.0,0.0,0.0,-74.18518,48.218994,-49.454956
1765377924277,-0.82470703,-0.5859375,0.18164062,-36.743164,-52.124023,22.338867,0.0,0.0,0.0,-70.356445,47.669678,-41.050415
1765377924365,-0.81396484,-0.58154297,0.11328125,-8.666992,40.46631,-3.2958984,0.0,0.0,0.0,-70.356445,47.669678,-41.050415
1765377924377,-0.81396484,-0.58154297,0.11328125,-8.666992,40.46631,-3.2958984,0.0,0.0,0.0,-72.44934,49.180298,-40.74829
1765377924465,-0.78271484,-0.5444336,0.119628906,5.9814453,24.780273,1.159668,0.0,0.0,0.0,-72.44934,49.180298,-40.74829
1765377924477,-0.78271484,-0.5444336,0.119628906,5.9814453,24.780273,1.159668,0.0,0.0,0.0,-77.51404,50.042725,-48.048706
1765377924565,-0.8774414,-0.93896484,0.20703125,18.005371,23.620605,-29.47998,0.0,0.0,0.0,-77.51404,50.042725,-48.048706
1765377924576,-0.8774414,-0.93896484,0.20703125,18.005371,23.620605,-29.47998,0.0,0.0,0.0,-78.376465,49.56482,-51.52588
1765377924665,-0.59472656,-0.42919922,0.1640625,-17.150879,-15.74707,18.066406,0.0,0.0,0.0,-78.376465,49.56482,-51.52588
1765377924676,-0.59472656,-0.42919922,0.1640625,-17.150879,-15.74707,18.066406,0.0,0.0,0.0,-79.29932,48.394775,-52.82776
1765377924764,-0.69189453,-0.69433594,0.2265625,-10.437012,-11.291504,28.076172,0.0,0.0,0.0,-79.29932,48.394775,-52.82776
1765377924776,-0.69189453,-0.69433594,0.2265625,-10.437012,-11.291504,28.076172,0.0,0.0,0.0,-76.70654,50.811768,-47.30713
1765377924864,-0.8901367,-0.54345703,0.14990234,0.5493164,6.4086914,9.338379,0.0,0.0,0.0,-76.70654,50.811768,-47.30713
1765377924875,-0.8901367,-0.54345703,0.14990234,0.5493164,6.4086914,9.338379,0.0,0.0,0.0,-77.107544,50.97107,-47.72461
1765377924964,-0.65283203,-0.6425781,0.12011719,28.137207,5.493164,8.483887,0.0,0.0,0.0,-77.107544,50.97107,-47.72461
1765377924975,-0.65283203,-0.6425781,0.12011719,28.137207,5.493164,8.483887,0.0,0.0,0.0,-75.17944,53.129883,-46.186523
1765377925063,-0.7416992,-0.6635742,0.043945312,10.7421875,12.329102,-26.672363,0.0,0.0,0.0,-75.17944,53.129883,-46.186523
1765377925075,-0.7416992,-0.6635742,0.043945312,10.7421875,12.329102,-26.672363,0.0,0.0,0.0,-75.01465,51.262207,-49.647217
1765377925163,-0.8173828,-0.6230469,0.091308594,-3.3569336,-25.32959,8.239746,0.0,0.0,0.0,-75.01465,51.262207,-49.647217
1765377925175,-0.8173828,-0.6230469,0.091308594,-3.3569336,-25.32959,8.239746,0.0,0.0,0.0,-75.338745,50.1416,-50.542603
1765377925263,-0.76123047,-0.61816406,-0.00390625,0.79345703,3.112793,3.0517578,0.0,0.0,0.0,-75.338745,50.1416,-50.542603
1765377925274,-0.76123047,-0.61816406,-0.00390625,0.79345703,3.112793,3.0517578,0.0,0.0,0.0,-73.54797,50.723877,-49.180298
1765377925363,-0.7675781,-0.64453125,0.07763672,-7.751465,12.268066,-1.0986328,0.0,0.0,0.0,-73.54797,50.723877,-49.180298
1765377925374,-0.7675781,-0.64453125,0.07763672,-7.751465,12.268066,-1.0986328,0.0,0.0,0.0,-75.580444,51.1084,-52.53662
1765377925462,-0.6977539,-0.47998047,0.3173828,3.9672852,-17.76123,18.493652,0.0,0.0,0.0,-75.580444,51.1084,-52.53662
1765377925474,-0.6977539,-0.47998047,0.3173828,3.9672852,-17.76123,18.493652,0.0,0.0,0.0,-75.62439,51.82251,-52.179565
1765377925562,-0.8041992,-0.65625,0.23828125,13.549805,8.178711,-17.39502,0.0,0.0,0.0,-75.62439,51.82251,-52.179565
1765377925573,-0.8041992,-0.65625,0.23828125,13.549805,8.178711,-17.39502,0.0,0.0,0.0,-74.96521,52.020264,-50.80078
1765377925662,-0.76123047,-0.6567383,0.22998047,35.583496,16.113281,-40.649414,0.0,0.0,0.0,-74.96521,52.020264,-50.80078
1765377925673,-0.76123047,-0.6567383,0.22998047,35.583496,16.113281,-40.649414,0.0,0.0,0.0,-74.245605,48.636475,-53.57483
1765377925761,-0.65478516,-0.57910156,0.19482422,0.91552734,-41.68701,-4.0893555,0.0,0.0,0.0,-74.245605,48.636475,-53.57483
1765377925773,-0.65478516,-0.57910156,0.19482422,0.91552734,-41.68701,-4.0893555,0.0,0.0,0.0,-71.087036,46.675415,-50.29541
1765377925861,-0.78027344,-0.5932617,0.21728516,-4.1503906,-18.615723,4.699707,0.0,0.0,0.0,-71.087036,46.675415,-50.29541
1765377925873,-0.78027344,-0.5932617,0.21728516,-4.1503906,-18.615723,4.699707,0.0,0.0,0.0,-67.86804,45.85144,-44.313354
1765377925961,-0.81689453,-0.67285156,0.14208984,3.4179688,9.521484,-5.859375,0.0,0.0,0.0,-67.86804,45.85144,-44.313354
1765377925973,-0.81689453,-0.67285156,0.14208984,3.4179688,9.521484,-5.859375,0.0,0.0,0.0,-68.14819,45.856934,-44.868164
1765377926061,-0.7216797,-0.6328125,0.29003906,-12.573242,1.3427734,9.277344,0.0,0.0,0.0,-68.14819,45.856934,-44.868164
1765377926072,-0.7216797,-0.6328125,0.29003906,-12.573242,1.3427734,9.277344,0.0,0.0,0.0,-69.94446,46.66443,-45.71411
1765377926161,-0.86376953,-0.72558594,0.21142578,2.0141602,-1.0986328,-5.1879883,0.0,0.0,0.0,-69.94446,46.66443,-45.71411
1765377926172,-0.86376953,-0.72558594,0.21142578,2.0141602,-1.0986328,-5.1879883,0.0,0.0,0.0,-69.31824,46.75232,-43.703613
1765377926260,-0.67578125,-0.57373047,0.16894531,-37.597656,8.239746,13.305664,0.0,0.0,0.0,-69.31824,46.75232,-43.703613
1765377926271,-0.67578125,-0.57373047,0.16894531,-37.597656,8.239746,13.305664,0.0,0.0,0.0,-72.20764,47.36206,-45.0
1765377926360,-0.64208984,-0.4970703,0.3232422,-11.413574,-27.832031,8.422852,0.0,0.0,0.0,-72.20764,47.36206,-45.0
1765377926372,-0.64208984,-0.4970703,0.3232422,-11.413574,-27.832031,8.422852,0.0,0.0,0.0,-72.95471,48.6969,-41.572266
1765377926460,-0.7026367,-0.7553711,0.26416016,0.18310547,-3.0517578,9.338379,0.0,0.0,0.0,-72.95471,48.6969,-41.572266
1765377926471,-0.7026367,-0.7553711,0.26416016,0.18310547,-3.0517578,9.338379,0.0,0.0,0.0,-69.5874,48.33435,-36.584473
1765377926559,-0.75341797,-0.55908203,0.27246094,-8.544922,-26.672363,12.878418,0.0,0.0,0.0,-69.5874,48.33435,-36.584473
1765377926571,-0.75341797,-0.55908203,0.27246094,-8.544922,-26.672363,12.878418,0.0,0.0,0.0,-69.746704,48.867188,-35.08484
1765377926659,-0.6435547,-0.6435547,0.2290039,10.375977,-18.859863,7.507324,0.0,0.0,0.0,-69.746704,48.867188,-35.08484
1765377926670,-0.6435547,-0.6435547,0.2290039,10.375977,-18.859863,7.507324,0.0,0.0,0.0,-64.47876,48.64746,-28.515015
1765377926759,-0.78808594,-0.6035156,0.24365234,18.798828,7.9956055,-2.6855469,0.0,0.0,0.0,-64.47876,48.64746,-28.515015
1765377926770,-0.78808594,-0.6035156,0.24365234,18.798828,7.9956055,-2.6855469,0.0,0.0,0.0,-64.02283,48.290405,-29.707031
1765377926858,-0.7260742,-0.68896484,0.2290039,7.6904297,3.1738281,14.953613,0.0,0.0,0.0,-64.02283,48.290405,-29.707031
1765377926870,-0.7260742,-0.68896484,0.2290039,7.6904297,3.1738281,14.953613,0.0,0.0,0.0,-62.46826,49.29016,-28.78418
1765377926958,-0.7548828,-0.63623047,0.18603516,-13.061523,-12.939453,7.2631836,0.0,0.0,0.0,-62.46826,49.29016,-28.78418
1765377926970,-0.7548828,-0.63623047,0.18603516,-13.061523,-12.939453,7.2631836,0.0,0.0,0.0,-62.70996,49.72412,-28.278809
1765377927058,-0.7998047,-0.6269531,0.27685547,-30.273438,6.7749023,10.620117,0.0,0.0,0.0,-62.70996,49.72412,-28.278809
1765377927069,-0.7998047,-0.6269531,0.27685547,-30.273438,6.7749023,10.620117,0.0,0.0,0.0,-64.25354,50.24597,-27.03186
1765377927158,-0.78808594,-0.6660156,0.44921875,-14.587402,-10.559082,4.333496,0.0,0.0,0.0,-64.25354,50.24597,-27.03186
1765377927169,-0.78808594,-0.6660156,0.44921875,-14.587402,-10.559082,4.333496,0.0,0.0,0.0,-66.43982,51.119385,-26.58142
1765377927257,-0.6196289,-0.3857422,0.24804688,-10.498047,11.352539,-15.991211,0.0,0.0,0.0,-66.43982,51.119385,-26.58142
1765377927269,-0.6196289,-0.3857422,0.24804688,-10.498047,11.352539,-15.991211,0.0,0.0,0.0,-66.989136,49.81201,-26.119995
1765377927357,-1.0253906,-0.79833984,0.36572266,-11.71875,19.042969,-7.507324,0.0,0.0,0.0,-66.989136,49.81201,-26.119995
1765377927368,-1.0253906,-0.79833984,0.36572266,-11.71875,19.042969,-7.507324,0.0,0.0,0.0,-70.48828,49.81201,-28.504028
1765377927457,-0.64941406,-0.4345703,0.1328125,-7.9956055,16.174316,-9.460449,0.0,0.0,0.0,-70.48828,49.81201,-28.504028
1765377927468,-0.64941406,-0.4345703,0.1328125,-7.9956055,16.174316,-9.460449,0.0,0.0,0.0,-73.37219,49.136353,-32.244873
1765377927557,-0.8183594,-0.56347656,0.140625,-2.5024414,-13.48877,16.540527,0.0,0.0,0.0,-73.37219,49.136353,-32.244873
1765377927568,-0.8183594,-0.56347656,0.140625,-2.5024414,-13.48877,16.540527,0.0,0.0,0.0,-73.01514,49.801025,-31.333008
1765377927656,-0.78222656,-0.6142578,0.1352539,13.427734,10.681152,-5.79834,0.0,0.0,0.0,-73.01514,49.801025,-31.333008
1765377927668,-0.78222656,-0.6142578,0.1352539,13.427734,10.681152,-5.79834,0.0,0.0,0.0,-72.82837,50.630493,-32.53601
1765377927756,-0.7446289,-0.6171875,0.10546875,0.79345703,-9.521484,-1.4648438,0.0,0.0,0.0,-72.82837,50.630493,-32.53601
1765377927767,-0.7446289,-0.6171875,0.10546875,0.79345703,-9.521484,-1.4648438,0.0,0.0,0.0,-72.35596,50.180054,-33.618164
1765377927856,-0.7832031,-0.5595703,0.09667969,-1.2207031,-23.07129,4.0893555,0.0,0.0,0.0,-72.35596,50.180054,-33.618164
1765377927867,-0.7832031,-0.5595703,0.09667969,-1.2207031,-23.07129,4.0893555,0.0,0.0,0.0,-70.99365,50.004272,-32.003174
1765377927955,-0.8095703,-0.62158203,0.100097656,18.066406,-10.559082,-6.591797,0.0,0.0,0.0,-70.99365,50.004272,-32.003174
1765377927967,-0.8095703,-0.62158203,0.100097656,18.066406,-10.559082,-6.591797,0.0,0.0,0.0,-68.40088,49.575806,-30.72876
1765377928055,-0.89453125,-0.6557617,0.28759766,12.390137,-1.8310547,-6.225586,0.0,0.0,0.0,-68.40088,49.575806,-30.72876
1765377928067,-0.89453125,-0.6557617,0.28759766,12.390137,-1.8310547,-6.225586,0.0,0.0,0.0,-67.02759,48.850708,-31.453857
1765377928155,-0.75146484,-0.578125,0.4296875,29.724121,14.770508,-6.958008,0.0,0.0,0.0,-67.02759,48.850708,-31.453857
1765377928166,-0.75146484,-0.578125,0.4296875,29.724121,14.770508,-6.958008,0.0,0.0,0.0,-65.87402,48.636475,-33.425903
1765377928254,-0.58496094,-0.52441406,0.29882812,13.73291,36.010742,-6.4086914,0.0,0.0,0.0,-65.87402,48.636475,-33.425903
1765377928266,-0.58496094,-0.52441406,0.29882812,13.73291,36.010742,-6.4086914,0.0,0.0,0.0,-65.57739,49.04297,-35.5188
1765377928354,-0.6850586,-0.6899414,0.3774414,-0.18310547,-10.864258,5.126953,0.0,0.0,0.0,-65.57739,49.04297,-35.5188
1765377928366,-0.6850586,-0.6899414,0.3774414,-0.18310547,-10.864258,5.126953,0.0,0.0,0.0,-66.38489,49.13086,-36.600952
1765377928454,-0.7871094,-0.53466797,0.26660156,-0.79345703,-4.8217773,10.437012,0.0,0.0,0.0,-66.38489,49.13086,-36.600952
1765377928466,-0.7871094,-0.53466797,0.26660156,-0.79345703,-4.8217773,10.437012,0.0,0.0,0.0,-64.91821,49.334106,-33.338013
1765377928554,-0.6899414,-0.61279297,0.28076172,40.771484,4.5776367,-6.5307617,0.0,0.0,0.0,-64.91821,49.334106,-33.338013
1765377928565,-0.6899414,-0.61279297,0.28076172,40.771484,4.5776367,-6.5307617,0.0,0.0,0.0,-62.056274,49.59778,-32.15149
1765377928654,-0.68359375,-0.6191406,0.26123047,20.935059,6.4086914,-11.047363,0.0,0.0,0.0,-62.056274,49.59778,-32.15149
1765377928665,-0.68359375,-0.6191406,0.26123047,20.935059,6.4086914,-11.047363,0.0,0.0,0.0,-60.95215,48.57605,-34.760742
1765377928753,-0.71728516,-0.6972656,0.21582031,-11.657715,-38.635254,17.211914,0.0,0.0,0.0,-60.95215,48.57605,-34.760742
1765377928765,-0.71728516,-0.6972656,0.21582031,-11.657715,-38.635254,17.211914,0.0,0.0,0.0,-58.45276,48.043213,-30.871582
1765377928853,-0.7729492,-0.58251953,0.26660156,-32.89795,-9.277344,16.479492,0.0,0.0,0.0,-58.45276,48.043213,-30.871582
1765377928864,-0.7729492,-0.58251953,0.26660156,-32.89795,-9.277344,16.479492,0.0,0.0,0.0,-58.705444,48.059692,-27.44934
1765377928953,-1.0297852,-0.5888672,0.4580078,-40.34424,-8.178711,32.836914,0.0,0.0,0.0,-58.705444,48.059692,-27.44934
1765377928964,-1.0297852,-0.5888672,0.4580078,-40.34424,-8.178711,32.836914,0.0,0.0,0.0,-60.150146,49.570312,-24.433594
1765377929052,-0.62890625,-0.56103516,0.3696289,6.5307617,17.76123,-6.286621,0.0,0.0,0.0,-60.150146,49.570312,-24.433594
1765377929064,-0.62890625,-0.56103516,0.3696289,6.5307617,17.76123,-6.286621,0.0,0.0,0.0,-61.660767,51.514893,-24.005127
1765377929152,-0.65283203,-0.3305664,0.4482422,-21.728516,40.34424,-18.554688,0.0,0.0,0.0,-61.660767,51.514893,-24.005127
1765377929163,-0.65283203,-0.3305664,0.4482422,-21.728516,40.34424,-18.554688,0.0,0.0,0.0,-65.753174,51.45996,-29.630127
1765377929252,-0.79248047,-0.6894531,0.18554688,32.592773,28.808594,-56.640625,0.0,0.0,0.0,-65.753174,51.45996,-29.630127
1765377929263,-0.79248047,-0.6894531,0.18554688,32.592773,28.808594,-56.640625,0.0,0.0,0.0,-66.74194,49.63623,-32.283325
1765377929351,-0.6923828,-0.484375,0.18945312,-4.1503906,31.738281,-11.352539,0.0,0.0,0.0,-66.74194,49.63623,-32.283325
1765377929363,-0.6923828,-0.484375,0.18945312,-4.1503906,31.738281,-11.352539,0.0,0.0,0.0,-72.767944,48.015747,-41.28662
1765377929451,-0.84472656,-0.6611328,0.10107422,-18.432617,-45.532227,7.9956055,0.0,0.0,0.0,-72.767944,48.015747,-41.28662
1765377929463,-0.84472656,-0.6611328,0.10107422,-18.432617,-45.532227,7.9956055,0.0,0.0,0.0,-71.01013,47.664185,-38.22693
1765377929551,-0.7661133,-0.5859375,0.115234375,5.126953,15.50293,-6.5307617,0.0,0.0,0.0,-71.01013,47.664185,-38.22693
1765377929562,-0.7661133,-0.5859375,0.115234375,5.126953,15.50293,-6.5307617,0.0,0.0,0.0,-69.537964,47.598267,-36.051636
1765377929651,-0.82128906,-0.72216797,0.19628906,-2.5024414,8.605957,2.8076172,0.0,0.0,0.0,-69.537964,47.598267,-36.051636
1765377929662,-0.82128906,-0.72216797,0.19628906,-2.5024414,8.605957,2.8076172,0.0,0.0,0.0,-71.4386,48.032227,-39.380493
1765377929750,-0.70166016,-0.69140625,0.37109375,-18.188477,-23.925781,12.878418,0.0,0.0,0.0,-71.4386,48.032227,-39.380493
1765377929762,-0.70166016,-0.69140625,0.37109375,-18.188477,-23.925781,12.878418,0.0,0.0,0.0,-71.25183,48.54309,-36.82068
1765377929850,-0.5644531,-0.3251953,0.13964844,-14.404297,-28.747559,29.11377,0.0,0.0,0.0,-71.25183,48.54309,-36.82068
1765377929862,-0.5644531,-0.3251953,0.13964844,-14.404297,-28.747559,29.11377,0.0,0.0,0.0,-68.45581,49.48242,-31.23413
1765377929950,-0.80615234,-0.6616211,0.3930664,-2.4414062,-22.521973,16.235352,0.0,0.0,0.0,-68.45581,49.48242,-31.23413
1765377929961,-0.80615234,-0.6616211,0.3930664,-2.4414062,-22.521973,16.235352,0.0,0.0,0.0,-65.42908,50.95459,-25.878296
1765377930049,-0.78564453,-0.57958984,0.23828125,22.766113,1.5258789,-1.0375977,0.0,0.0,0.0,-65.42908,50.95459,-25.878296
1765377930061,-0.78564453,-0.57958984,0.23828125,22.766113,1.5258789,-1.0375977,0.0,0.0,0.0,-62.039795,50.581055,-23.796387
1765377930149,-0.72802734,-0.5957031,0.28027344,24.230957,-5.126953,2.1972656,0.0,0.0,0.0,-62.039795,50.581055,-23.796387
1765377930161,-0.72802734,-0.5957031,0.28027344,24.230957,-5.126953,2.1972656,0.0,0.0,0.0,-60.183105,50.927124,-24.35669
1765377930249,-0.7211914,-0.65722656,0.2685547,18.859863,-3.4179688,-20.507812,0.0,0.0,0.0,-60.183105,50.927124,-24.35669
1765377930261,-0.7211914,-0.65722656,0.2685547,18.859863,-3.4179688,-20.507812,0.0,0.0,0.0,-58.293457,49.279175,-25.065308
1765377930349,-0.7260742,-0.62402344,0.23583984,-18.127441,-16.174316,-0.12207031,0.0,0.0,0.0,-58.293457,49.279175,-25.065308
1765377930361,-0.7260742,-0.62402344,0.23583984,-18.127441,-16.174316,-0.12207031,0.0,0.0,0.0,-58.425293,47.922363,-24.197388
1765377930449,-0.81640625,-0.60498047,0.22753906,-11.169434,31.49414,-9.521484,0.0,0.0,0.0,-58.425293,47.922363,-24.197388
1765377930460,-0.81640625,-0.60498047,0.22753906,-11.169434,31.49414,-9.521484,0.0,0.0,0.0,-61.864014,47.889404,-26.592407
1765377930548,-0.8886719,-0.5419922,0.46875,-19.958496,29.11377,16.540527,0.0,0.0,0.0,-61.864014,47.889404,-26.592407
1765377930560,-0.8886719,-0.5419922,0.46875,-19.958496,29.11377,16.540527,0.0,0.0,0.0,-67.977905,50.26245,-32.349243
1765377930648,-0.49072266,-0.51220703,0.20117188,20.446777,29.23584,-28.747559,0.0,0.0,0.0,-67.977905,50.26245,-32.349243
1765377930659,-0.49072266,-0.51220703,0.20117188,20.446777,29.23584,-28.747559,0.0,0.0,0.0,-69.5874,50.707397,-35.59021
1765377930747,-1.0742188,-0.6791992,0.25439453,18.249512,41.56494,-21.42334,0.0,0.0,0.0,-69.5874,50.707397,-35.59021
1765377930759,-1.0742188,-0.6791992,0.25439453,18.249512,41.56494,-21.42334,0.0,0.0,0.0,-73.55896,49.053955,-42.539062
1765377930847,-0.60302734,-0.57714844,0.12939453,-5.2490234,0.30517578,-4.272461,0.0,0.0,0.0,-73.55896,49.053955,-42.539062
1765377930859,-0.60302734,-0.57714844,0.12939453,-5.2490234,0.30517578,-4.272461,0.0,0.0,0.0,-73.828125,48.845215,-44.197998
1765377930947,-0.8173828,-0.5751953,0.1171875,-22.766113,-36.132812,11.474609,0.0,0.0,0.0,-73.828125,48.845215,-44.197998
1765377930958,-0.8173828,-0.5751953,0.1171875,-22.766113,-36.132812,11.474609,0.0,0.0,0.0,-73.22937,48.828735,-41.083374
1765377931047,-0.83496094,-0.5698242,0.10644531,-16.296387,-6.652832,8.239746,0.0,0.0,0.0,-73.22937,48.828735,-41.083374
1765377931058,-0.83496094,-0.5698242,0.10644531,-16.296387,-6.652832,8.239746,0.0,0.0,0.0,-72.196655,49.25171,-37.803955
1765377931146,-0.8852539,-0.7133789,0.15429688,-25.512695,4.4555664,6.591797,0.0,0.0,0.0,-72.196655,49.25171,-37.803955
1765377931158,-0.8852539,-0.7133789,0.15429688,-25.512695,4.4555664,6.591797,0.0,0.0,0.0,-74.61914,50.3833,-39.177246
1765377931246,-0.76464844,-0.62597656,0.29003906,-15.625,-26.306152,-4.211426,0.0,0.0,0.0,-74.61914,50.3833,-39.177246
1765377931258,-0.76464844,-0.62597656,0.29003906,-15.625,-26.306152,-4.211426,0.0,0.0,0.0,-75.162964,49.971313,-37.765503
1765377931346,-0.5620117,-0.35351562,0.09423828,-17.27295,-22.644043,30.212402,0.0,0.0,0.0,-75.162964,49.971313,-37.765503
1765377931357,-0.5620117,-0.35351562,0.09423828,-17.27295,-22.644043,30.212402,0.0,0.0,0.0,-73.03711,50.993042,-32.81067
1765377931446,-0.76123047,-0.7241211,0.36865234,13.73291,-15.808105,-10.681152,0.0,0.0,0.0,-73.03711,50.993042,-32.81067
1765377931457,-0.76123047,-0.7241211,0.36865234,13.73291,-15.808105,-10.681152,0.0,0.0,0.0,-70.72449,51.377563,-30.020142
1765377931545,-0.86328125,-0.5258789,0.13330078,11.71875,-9.216309,17.089844,0.0,0.0,0.0,-70.72449,51.377563,-30.020142
1765377931557,-0.86328125,-0.5258789,0.13330078,11.71875,-9.216309,17.089844,0.0,0.0,0.0,-66.19263,50.256958,-27.020874
1765377931645,-0.6508789,-0.6118164,0.28222656,45.410156,7.019043,-11.230469,0.0,0.0,0.0,-66.19263,50.256958,-27.020874
1765377931657,-0.6508789,-0.6118164,0.28222656,45.410156,7.019043,-11.230469,0.0,0.0,0.0,-63.566895,51.416016,-27.69104
1765377931745,-0.7817383,-0.67871094,0.17529297,25.45166,9.094238,-20.202637,0.0,0.0,0.0,-63.566895,51.416016,-27.69104
1765377931756,-0.7817383,-0.67871094,0.17529297,25.45166,9.094238,-20.202637,0.0,0.0,0.0,-62.473755,49.39453,-30.975952
1765377931844,-0.70947266,-0.62060547,0.19628906,0.5493164,-11.84082,5.6762695,0.0,0.0,0.0,-62.473755,49.39453,-30.975952
1765377931856,-0.70947266,-0.62060547,0.19628906,0.5493164,-11.84082,5.6762695,0.0,0.0,0.0,-61.814575,48.861694,-30.778198
1765377931944,-0.77734375,-0.63720703,0.21679688,-6.225586,26.550293,-2.2583008,0.0,0.0,0.0,-61.814575,48.861694,-30.778198
1765377931956,-0.77734375,-0.63720703,0.21679688,-6.225586,26.550293,-2.2583008,0.0,0.0,0.0,-63.605347,49.14734,-32.964478
1765377932044,-0.9423828,-0.63964844,0.48486328,-26.184082,-1.4648438,16.052246,0.0,0.0,0.0,-63.605347,49.14734,-32.964478
1765377932055,-0.9423828,-0.63964844,0.48486328,-26.184082,-1.4648438,16.052246,0.0,0.0,0.0,-67.46704,50.372314,-35.167236
1765377932144,-0.46679688,-0.3720703,0.18798828,14.404297,26.428223,-15.991211,0.0,0.0,0.0,-67.46704,50.372314,-35.167236
1765377932155,-0.46679688,-0.3720703,0.18798828,14.404297,26.428223,-15.991211,0.0,0.0,0.0,-68.32947,50.89966,-35.881348
1765377932243,-1.0473633,-0.7451172,0.34423828,19.042969,18.920898,-20.141602,0.0,0.0,0.0,-68.32947,50.89966,-35.881348
1765377932255,-1.0473633,-0.7451172,0.34423828,19.042969,18.920898,-20.141602,0.0,0.0,0.0,-71.51001,50.130615,-40.57251
1765377932343,-0.61328125,-0.5385742,0.119628906,-17.39502,31.12793,-14.404297,0.0,0.0,0.0,-71.51001,50.130615,-40.57251
1765377932355,-0.61328125,-0.5385742,0.119628906,-17.39502,31.12793,-14.404297,0.0,0.0,0.0,-73.55347,48.235474,-45.131836
1765377932443,-0.7915039,-0.5058594,0.15625,-37.902832,-60.791016,5.554199,0.0,0.0,0.0,-73.55347,48.235474,-45.131836
1765377932454,-0.7915039,-0.5058594,0.15625,-37.902832,-60.791016,5.554199,0.0,0.0,0.0,-74.98718,47.713623,-42.824707
1765377932542,-0.85791016,-0.60791016,0.16259766,-12.634277,-5.065918,6.164551,0.0,0.0,0.0,-74.98718,47.713623,-42.824707
1765377932554,-0.85791016,-0.60791016,0.16259766,-12.634277,-5.065918,6.164551,0.0,0.0,0.0,-71.987915,47.955322,-35.50232
1765377932642,-0.8203125,-0.6826172,0.1430664,6.5307617,35.705566,-9.70459,0.0,0.0,0.0,-71.987915,47.955322,-35.50232
1765377932654,-0.8203125,-0.6826172,0.1430664,6.5307617,35.705566,-9.70459,0.0,0.0,0.0,-74.487305,48.449707,-39.42444
1765377932742,-0.84033203,-0.77490234,0.3203125,-24.475098,-20.629883,14.587402,0.0,0.0,0.0,-74.487305,48.449707,-39.42444
1765377932754,-0.84033203,-0.77490234,0.3203125,-24.475098,-20.629883,14.587402,0.0,0.0,0.0,-76.239624,49.04297,-40.924072
1765377932842,-0.6044922,-0.35058594,0.12158203,-0.18310547,-35.15625,21.972656,0.0,0.0,0.0,-76.239624,49.04297,-40.924072
1765377932853,-0.6044922,-0.35058594,0.12158203,-0.18310547,-35.15625,21.972656,0.0,0.0,0.0,-71.44409,49.921875,-33.354492
1765377932941,-0.7050781,-0.6616211,0.3071289,20.080566,5.432129,4.760742,0.0,0.0,0.0,-71.44409,49.921875,-33.354492
1765377932953,-0.7050781,-0.6616211,0.3071289,20.080566,5.432129,4.760742,0.0,0.0,0.0,-68.58215,51.306152,-31.003418
1765377933041,-0.8852539,-0.6645508,0.20019531,18.737793,-20.751953,3.6621094,0.0,0.0,0.0,-68.58215,51.306152,-31.003418
1765377933053,-0.8852539,-0.6645508,0.20019531,18.737793,-20.751953,3.6621094,0.0,0.0,0.0,-65.08301,50.108643,-29.98169
1765377933141,-0.6425781,-0.5864258,0.21191406,12.634277,-8.300781,7.080078,0.0,0.0,0.0,-65.08301,50.108643,-29.98169
1765377933152,-0.6425781,-0.5864258,0.21191406,12.634277,-8.300781,7.080078,0.0,0.0,0.0,-62.44629,50.976562,-27.800903
1765377933241,-0.8051758,-0.6567383,0.19824219,7.1411133,-18.005371,-7.019043,0.0,0.0,0.0,-62.44629,50.976562,-27.800903
1765377933252,-0.8051758,-0.6567383,0.19824219,7.1411133,-18.005371,-7.019043,0.0,0.0,0.0,-60.529175,49.586792,-26.784668
1765377933340,-0.7519531,-0.54589844,0.19970703,6.225586,-11.657715,5.7373047,0.0,0.0,0.0,-60.529175,49.586792,-26.784668
1765377933352,-0.7519531,-0.54589844,0.19970703,6.225586,-11.657715,5.7373047,0.0,0.0,0.0,-59.07898,49.004517,-25.213623
1765377933440,-0.78564453,-0.70166016,0.28515625,3.7841797,36.132812,-12.878418,0.0,0.0,0.0,-59.07898,49.004517,-25.213623
1765377933451,-0.78564453,-0.70166016,0.28515625,3.7841797,36.132812,-12.878418,0.0,0.0,0.0,-59.65027,49.26819,-27.438354
1765377933540,-0.96435547,-0.64404297,0.49414062,-18.188477,-0.24414062,2.319336,0.0,0.0,0.0,-59.65027,49.26819,-27.438354
1765377933551,-0.96435547,-0.64404297,0.49414062,-18.188477,-0.24414062,2.319336,0.0,0.0,0.0,-64.97864,49.9823,-32.31079
1765377933639,-0.50341797,-0.35205078,0.24267578,0.18310547,14.587402,-16.113281,0.0,0.0,0.0,-64.97864,49.9823,-32.31079
1765377933651,-0.50341797,-0.35205078,0.24267578,0.18310547,14.587402,-16.113281,0.0,0.0,0.0,-65.07202,49.47693,-32.371216
1765377933739,-0.8676758,-0.7089844,0.33642578,16.662598,16.479492,-21.911621,0.0,0.0,0.0,-65.07202,49.47693,-32.371216
1765377933751,-0.8676758,-0.7089844,0.33642578,16.662598,16.479492,-21.911621,0.0,0.0,0.0,-67.07153,48.619995,-35.079346
