timestamp,accX,accY,accZ,gyroX,gyroY,gyroZ,magX,magY,magZ,roll,pitch,yaw
1766901027717,-0.73339844,0.5600586,-0.3310547,10.681152,6.591797,6.713867,0.0,0.0,0.0,115.08728,46.466675,-145.03601
1766901027729,-0.73339844,0.5600586,-0.3310547,10.681152,6.591797,6.713867,0.0,0.0,0.0,116.42212,45.620728,-144.4812
1766901027817,-0.72021484,0.4765625,-0.3930664,32.836914,-8.911133,18.432617,0.0,0.0,0.0,116.42212,45.620728,-144.4812
1766901027828,-0.72021484,0.4765625,-0.3930664,32.836914,-8.911133,18.432617,0.0,0.0,0.0,118.24585,44.659424,-145.56885
1766901027917,-0.6977539,0.69189453,-0.45117188,36.8042,-1.3427734,20.507812,0.0,0.0,0.0,118.24585,44.659424,-145.56885
1766901027928,-0.6977539,0.69189453,-0.45117188,36.8042,-1.3427734,20.507812,0.0,0.0,0.0,120.87158,43.43445,-148.12317
1766901028016,-0.6328125,0.77490234,-0.31689453,4.0283203,2.9907227,11.779785,0.0,0.0,0.0,120.87158,43.43445,-148.12317
1766901028032,-0.6328125,0.77490234,-0.31689453,4.0283203,2.9907227,11.779785,0.0,0.0,0.0,121.8988,41.583252,-149.7107
1766901028116,-0.6269531,0.6767578,-0.32177734,-19.16504,13.916016,-15.686035,0.0,0.0,0.0,121.8988,41.583252,-149.7107
1766901028127,-0.6269531,0.6767578,-0.32177734,-19.16504,13.916016,-15.686035,0.0,0.0,0.0,121.05286,41.451416,-149.02405
1766901028216,-0.66064453,0.64501953,-0.30322266,-30.700684,33.38623,-30.273438,0.0,0.0,0.0,121.05286,41.451416,-149.02405
1766901028227,-0.66064453,0.64501953,-0.30322266,-30.700684,33.38623,-30.273438,0.0,0.0,0.0,121.4209,42.022705,-144.09119
1766901028316,-0.73339844,0.68408203,-0.2944336,-38.879395,31.677246,-25.878906,0.0,0.0,0.0,121.4209,42.022705,-144.09119
1766901028327,-0.73339844,0.68408203,-0.2944336,-38.879395,31.677246,-25.878906,0.0,0.0,0.0,121.44287,42.69287,-138.42224
1766901028415,-0.7451172,0.59716797,-0.265625,-32.592773,25.146484,-22.583008,0.0,0.0,0.0,121.44287,42.69287,-138.42224
1766901028426,-0.7451172,0.59716797,-0.265625,-32.592773,25.146484,-22.583008,0.0,0.0,0.0,120.70679,43.28064,-133.58826
1766901028516,-0.87353516,0.69140625,-0.36865234,-28.503418,6.1035156,-16.723633,0.0,0.0,0.0,120.70679,43.28064,-133.58826
1766901028527,-0.87353516,0.69140625,-0.36865234,-28.503418,6.1035156,-16.723633,0.0,0.0,0.0,119.68506,44.335327,-130.44067
1766901028614,-0.81103516,0.45654297,-0.36376953,25.512695,-11.352539,-4.1503906,0.0,0.0,0.0,119.68506,44.335327,-130.44067
1766901028626,-0.81103516,0.45654297,-0.36376953,25.512695,-11.352539,-4.1503906,0.0,0.0,0.0,119.32251,45.615234,-131.2262
1766901028714,-0.63623047,0.609375,-0.35742188,5.554199,-19.40918,6.652832,0.0,0.0,0.0,119.32251,45.615234,-131.2262
1766901028726,-0.63623047,0.609375,-0.35742188,5.554199,-19.40918,6.652832,0.0,0.0,0.0,120.31677,46.307373,-132.57751
1766901028814,-0.59472656,0.5859375,-0.43359375,2.0141602,-23.4375,21.057129,0.0,0.0,0.0,120.31677,46.307373,-132.57751
1766901028825,-0.59472656,0.5859375,-0.43359375,2.0141602,-23.4375,21.057129,0.0,0.0,0.0,117.350464,45.785522,-137.09839
1766901028914,-0.5644531,0.63964844,-0.4501953,-0.9765625,12.390137,-2.9296875,0.0,0.0,0.0,117.350464,45.785522,-137.09839
1766901028925,-0.5644531,0.63964844,-0.4501953,-0.9765625,12.390137,-2.9296875,0.0,0.0,0.0,116.63086,44.96704,-138.90015
1766901029013,-0.8515625,0.609375,-0.46826172,11.108398,48.034668,-22.521973,0.0,0.0,0.0,116.63086,44.96704,-138.90015
1766901029025,-0.8515625,0.609375,-0.46826172,11.108398,48.034668,-22.521973,0.0,0.0,0.0,121.624146,43.9563,-133.31909
1766901029113,-0.70996094,0.52685547,-0.37841797,8.850098,-29.296875,11.657715,0.0,0.0,0.0,121.624146,43.9563,-133.31909
1766901029125,-0.70996094,0.52685547,-0.37841797,8.850098,-29.296875,11.657715,0.0,0.0,0.0,124.17847,44.588013,-131.34155
1766901029213,-0.6894531,0.5673828,-0.35058594,30.822754,-21.66748,13.549805,0.0,0.0,0.0,124.17847,44.588013,-131.34155
1766901029224,-0.6894531,0.5673828,-0.35058594,30.822754,-21.66748,13.549805,0.0,0.0,0.0,122.67883,45.115356,-136.21399
1766901029313,-0.79003906,0.6435547,-0.31054688,33.14209,-25.756836,10.803223,0.0,0.0,0.0,122.67883,45.115356,-136.21399
1766901029324,-0.79003906,0.6435547,-0.31054688,33.14209,-25.756836,10.803223,0.0,0.0,0.0,124.42566,45.22522,-139.01001
1766901029412,-0.6430664,0.6904297,-0.30322266,16.723633,-28.9917,16.540527,0.0,0.0,0.0,124.42566,45.22522,-139.01001
1766901029424,-0.6430664,0.6904297,-0.30322266,16.723633,-28.9917,16.540527,0.0,0.0,0.0,122.475586,45.74707,-144.73389
1766901029512,-0.68359375,0.6401367,-0.2705078,3.112793,-12.512207,8.850098,0.0,0.0,0.0,122.475586,45.74707,-144.73389
1766901029524,-0.68359375,0.6401367,-0.2705078,3.112793,-12.512207,8.850098,0.0,0.0,0.0,120.94849,45.52185,-147.73315
1766901029612,-0.7631836,0.70654297,-0.3388672,-2.0141602,-5.92041,3.9672852,0.0,0.0,0.0,120.94849,45.52185,-147.73315
1766901029623,-0.7631836,0.70654297,-0.3388672,-2.0141602,-5.92041,3.9672852,0.0,0.0,0.0,119.40491,45.285645,-149.51843
1766901029712,-0.72802734,0.6645508,-0.3720703,-10.498047,4.8828125,-4.1503906,0.0,0.0,0.0,119.40491,45.285645,-149.51843
1766901029724,-0.72802734,0.6645508,-0.3720703,-10.498047,4.8828125,-4.1503906,0.0,0.0,0.0,118.62488,45.20874,-149.53491
1766901029811,-0.7055664,0.59716797,-0.35498047,-11.413574,6.1035156,1.0375977,0.0,0.0,0.0,118.62488,45.20874,-149.53491
1766901029823,-0.7055664,0.59716797,-0.35498047,-11.413574,6.1035156,1.0375977,0.0,0.0,0.0,118.048096,44.890137,-148.83179
1766901029911,-0.67871094,0.55810547,-0.34472656,-1.6479492,-4.0893555,0.4272461,0.0,0.0,0.0,118.048096,44.890137,-148.83179
1766901029923,-0.67871094,0.55810547,-0.34472656,-1.6479492,-4.0893555,0.4272461,0.0,0.0,0.0,117.663574,44.79126,-148.80432
1766901030011,-0.65771484,0.6098633,-0.3774414,-0.36621094,8.7890625,-3.3569336,0.0,0.0,0.0,117.663574,44.79126,-148.80432
1766901030022,-0.65771484,0.6098633,-0.3774414,-0.36621094,8.7890625,-3.3569336,0.0,0.0,0.0,118.08655,44.87915,-148.51868
1766901030110,-0.6904297,0.53759766,-0.3955078,2.0141602,2.9907227,1.8310547,0.0,0.0,0.0,118.08655,44.87915,-148.51868
1766901030122,-0.6904297,0.53759766,-0.3955078,2.0141602,2.9907227,1.8310547,0.0,0.0,0.0,118.88306,44.68689,-147.56287
1766901030210,-0.6845703,0.4921875,-0.43310547,17.63916,4.3945312,5.9814453,0.0,0.0,0.0,118.88306,44.68689,-147.56287
1766901030221,-0.6845703,0.4921875,-0.43310547,17.63916,4.3945312,5.9814453,0.0,0.0,0.0,120.36072,44.16504,-147.43652
1766901030310,-0.7626953,0.7104492,-0.4399414,13.427734,2.5024414,12.390137,0.0,0.0,0.0,120.36072,44.16504,-147.43652
1766901030321,-0.7626953,0.7104492,-0.4399414,13.427734,2.5024414,12.390137,0.0,0.0,0.0,122.68982,43.33557,-147.2937
1766901030410,-0.6513672,0.6333008,-0.29345703,-1.8920898,-1.8920898,10.375977,0.0,0.0,0.0,122.68982,43.33557,-147.2937
1766901030421,-0.6513672,0.6333008,-0.29345703,-1.8920898,-1.8920898,10.375977,0.0,0.0,0.0,122.25586,42.165527,-148.87024
1766901030509,-0.6821289,0.6611328,-0.296875,-8.117676,10.009766,-9.82666,0.0,0.0,0.0,122.25586,42.165527,-148.87024
1766901030521,-0.6821289,0.6611328,-0.296875,-8.117676,10.009766,-9.82666,0.0,0.0,0.0,121.8219,41.989746,-148.50769
1766901030609,-0.6611328,0.7060547,-0.3071289,-18.249512,28.259277,-15.74707,0.0,0.0,0.0,121.8219,41.989746,-148.50769
1766901030620,-0.6611328,0.7060547,-0.3071289,-18.249512,28.259277,-15.74707,0.0,0.0,0.0,122.48108,42.280884,-145.22278
1766901030709,-0.7001953,0.6582031,-0.28027344,-24.047852,25.57373,-18.249512,0.0,0.0,0.0,122.48108,42.280884,-145.22278
1766901030721,-0.7001953,0.6582031,-0.28027344,-24.047852,25.57373,-18.249512,0.0,0.0,0.0,122.72278,42.192993,-141.09192
1766901030808,-0.7216797,0.63134766,-0.34960938,-22.460938,22.644043,-15.808105,0.0,0.0,0.0,122.72278,42.192993,-141.09192
1766901030820,-0.7216797,0.63134766,-0.34960938,-22.460938,22.644043,-15.808105,0.0,0.0,0.0,122.684326,42.473145,-136.91162
1766901030908,-0.81933594,0.6279297,-0.42138672,-8.422852,1.4038086,3.6010742,0.0,0.0,0.0,122.684326,42.473145,-136.91162
1766901030920,-0.81933594,0.6279297,-0.42138672,-8.422852,1.4038086,3.6010742,0.0,0.0,0.0,122.10205,43.00598,-134.29688
1766901031008,-0.69384766,0.5566406,-0.37646484,-0.30517578,-5.3100586,-2.0141602,0.0,0.0,0.0,122.10205,43.00598,-134.29688
1766901031019,-0.69384766,0.5566406,-0.37646484,-0.30517578,-5.3100586,-2.0141602,0.0,0.0,0.0,121.9043,43.121338,-134.23645
1766901031108,-0.63378906,0.58496094,-0.4423828,3.0517578,-6.225586,3.6010742,0.0,0.0,0.0,121.9043,43.121338,-134.23645
1766901031119,-0.63378906,0.58496094,-0.4423828,3.0517578,-6.225586,3.6010742,0.0,0.0,0.0,121.37695,43.555298,-135.41199
1766901031207,-0.6225586,0.5839844,-0.4482422,3.6010742,0.48828125,0.6713867,0.0,0.0,0.0,121.37695,43.555298,-135.41199
1766901031219,-0.6225586,0.5839844,-0.4482422,3.6010742,0.48828125,0.6713867,0.0,0.0,0.0,121.81091,43.357544,-135.8789
1766901031307,-0.5996094,0.5727539,-0.453125,3.6621094,8.056641,-6.591797,0.0,0.0,0.0,121.81091,43.357544,-135.8789
1766901031319,-0.5996094,0.5727539,-0.453125,3.6621094,8.056641,-6.591797,0.0,0.0,0.0,123.00842,43.308105,-135.25818
1766901031407,-0.7138672,0.61816406,-0.49316406,6.0424805,10.498047,-8.605957,0.0,0.0,0.0,123.00842,43.308105,-135.25818
1766901031418,-0.7138672,0.61816406,-0.49316406,6.0424805,10.498047,-8.605957,0.0,0.0,0.0,124.96399,43.28064,-133.36853
1766901031507,-0.73095703,0.56152344,-0.40185547,11.779785,0.9765625,-3.6621094,0.0,0.0,0.0,124.96399,43.28064,-133.36853
1766901031518,-0.73095703,0.56152344,-0.40185547,11.779785,0.9765625,-3.6621094,0.0,0.0,0.0,127.16675,43.45642,-132.06116
1766901031607,-0.6455078,0.6308594,-0.39208984,13.183594,-5.004883,12.634277,0.0,0.0,0.0,127.16675,43.45642,-132.06116
1766901031618,-0.6455078,0.6308594,-0.39208984,13.183594,-5.004883,12.634277,0.0,0.0,0.0,127.161255,43.17627,-133.64319
1766901031706,-0.7128906,0.61621094,-0.3852539,22.827148,-13.977051,17.700195,0.0,0.0,0.0,127.161255,43.17627,-133.64319
1766901031717,-0.7128906,0.61621094,-0.3852539,22.827148,-13.977051,17.700195,0.0,0.0,0.0,127.55676,42.45117,-135.73608
1766901031809,-0.70458984,0.6269531,-0.3828125,20.141602,-21.66748,17.211914,0.0,0.0,0.0,127.55676,42.45117,-135.73608
1766901031818,-0.70458984,0.6269531,-0.3828125,20.141602,-21.66748,17.211914,0.0,0.0,0.0,126.99097,42.280884,-139.36707
1766901031905,-0.6513672,0.6611328,-0.39257812,10.131836,-27.893066,19.470215,0.0,0.0,0.0,126.99097,42.280884,-139.36707
1766901031917,-0.6513672,0.6611328,-0.39257812,10.131836,-27.893066,19.470215,0.0,0.0,0.0,125.5957,42.39624,-143.5199
1766901032005,-0.75390625,0.70166016,-0.46240234,-5.6762695,-33.813477,15.197754,0.0,0.0,0.0,125.5957,42.39624,-143.5199
1766901032017,-0.75390625,0.70166016,-0.46240234,-5.6762695,-33.813477,15.197754,0.0,0.0,0.0,122.1405,42.6709,-148.31543
1766901032106,-0.58740234,0.6430664,-0.37939453,-15.930176,9.155273,-7.9345703,0.0,0.0,0.0,122.1405,42.6709,-148.31543
1766901032116,-0.58740234,0.6430664,-0.37939453,-15.930176,9.155273,-7.9345703,0.0,0.0,0.0,119.9707,42.703857,-149.82056
1766901032205,-0.6791992,0.5576172,-0.3725586,-13.244629,-4.5776367,-0.8544922,0.0,0.0,0.0,119.9707,42.703857,-149.82056
1766901032216,-0.6791992,0.5576172,-0.3725586,-13.244629,-4.5776367,-0.8544922,0.0,0.0,0.0,120.27832,42.753296,-147.93091
1766901032304,-0.67041016,0.5805664,-0.4091797,-1.3427734,5.1879883,-6.5307617,0.0,0.0,0.0,120.27832,42.753296,-147.93091
1766901032316,-0.67041016,0.5805664,-0.4091797,-1.3427734,5.1879883,-6.5307617,0.0,0.0,0.0,119.58618,43.115845,-148.36487
1766901032404,-0.6713867,0.6225586,-0.3930664,-4.0283203,4.211426,-3.4179688,0.0,0.0,0.0,119.58618,43.115845,-148.36487
1766901032415,-0.6713867,0.6225586,-0.3930664,-4.0283203,4.211426,-3.4179688,0.0,0.0,0.0,120.44861,43.291626,-147.09045
1766901032504,-0.6875,0.6020508,-0.3935547,-1.4038086,7.751465,-7.2021484,0.0,0.0,0.0,120.44861,43.291626,-147.09045
1766901032515,-0.6875,0.6020508,-0.3935547,-1.4038086,7.751465,-7.2021484,0.0,0.0,0.0,121.12976,43.35205,-145.95886
1766901032603,-0.70214844,0.5805664,-0.39990234,4.3945312,-2.9907227,0.9765625,0.0,0.0,0.0,121.12976,43.35205,-145.95886
1766901032615,-0.70214844,0.5805664,-0.39990234,4.3945312,-2.9907227,0.9765625,0.0,0.0,0.0,121.7395,43.527832,-145.49194
1766901032703,-0.6928711,0.53515625,-0.4296875,14.343262,-4.4555664,4.638672,0.0,0.0,0.0,121.7395,43.527832,-145.49194
1766901032715,-0.6928711,0.53515625,-0.4296875,14.343262,-4.4555664,4.638672,0.0,0.0,0.0,122.45911,43.54431,-146.2445
1766901032803,-0.70947266,0.66259766,-0.42529297,15.686035,2.1362305,2.9296875,0.0,0.0,0.0,122.45911,43.54431,-146.2445
1766901032814,-0.70947266,0.66259766,-0.42529297,15.686035,2.1362305,2.9296875,0.0,0.0,0.0,124.19495,43.33557,-146.48071
1766901032903,-0.6333008,0.65283203,-0.35205078,1.5869141,5.3710938,3.9672852,0.0,0.0,0.0,124.19495,43.33557,-146.48071
1766901032914,-0.6333008,0.65283203,-0.35205078,1.5869141,5.3710938,3.9672852,0.0,0.0,0.0,124.766235,42.75879,-146.83777
1766901033002,-0.69091797,0.6225586,-0.3544922,-10.009766,12.6953125,-10.681152,0.0,0.0,0.0,124.766235,42.75879,-146.83777
1766901033014,-0.69091797,0.6225586,-0.3544922,-10.009766,12.6953125,-10.681152,0.0,0.0,0.0,125.12329,42.561035,-145.13489
1766901033102,-0.71484375,0.65966797,-0.33398438,-24.108887,16.723633,-13.000488,0.0,0.0,0.0,125.12329,42.561035,-145.13489
1766901033114,-0.71484375,0.65966797,-0.33398438,-24.108887,16.723633,-13.000488,0.0,0.0,0.0,124.920044,42.720337,-142.4707
1766901033202,-0.7060547,0.6352539,-0.30566406,-26.306152,16.479492,-15.075684,0.0,0.0,0.0,124.920044,42.720337,-142.4707
1766901033213,-0.7060547,0.6352539,-0.30566406,-26.306152,16.479492,-15.075684,0.0,0.0,0.0,123.84338,42.98401,-139.7461
1766901033301,-0.7265625,0.62890625,-0.30566406,-28.9917,10.070801,-11.59668,0.0,0.0,0.0,123.84338,42.98401,-139.7461
1766901033313,-0.7265625,0.62890625,-0.30566406,-28.9917,10.070801,-11.59668,0.0,0.0,0.0,122.53601,43.48938,-137.13684
1766901033401,-0.8979492,0.6904297,-0.3852539,-33.63037,-6.958008,-14.587402,0.0,0.0,0.0,122.53601,43.48938,-137.13684
1766901033413,-0.8979492,0.6904297,-0.3852539,-33.63037,-6.958008,-14.587402,0.0,0.0,0.0,120.217896,44.489136,-135.70312
1766901033501,-0.7944336,0.4663086,-0.30322266,14.526367,-8.056641,-5.7373047,0.0,0.0,0.0,120.217896,44.489136,-135.70312
1766901033513,-0.7944336,0.4663086,-0.30322266,14.526367,-8.056641,-5.7373047,0.0,0.0,0.0,118.30078,45.631714,-137.1643
1766901033601,-0.62939453,0.62939453,-0.3388672,-4.699707,-28.808594,5.6152344,0.0,0.0,0.0,118.30078,45.631714,-137.1643
1766901033612,-0.62939453,0.62939453,-0.3388672,-4.699707,-28.808594,5.6152344,0.0,0.0,0.0,117.18567,47.076416,-139.69116
1766901033700,-0.60302734,0.56591797,-0.3930664,0.24414062,-2.6855469,9.887695,0.0,0.0,0.0,117.18567,47.076416,-139.69116
1766901033712,-0.60302734,0.56591797,-0.3930664,0.24414062,-2.6855469,9.887695,0.0,0.0,0.0,114.51599,46.85669,-143.1134
1766901033800,-0.62060547,0.6064453,-0.3984375,4.8217773,39.55078,-16.784668,0.0,0.0,0.0,114.51599,46.85669,-143.1134
1766901033811,-0.62060547,0.6064453,-0.3984375,4.8217773,39.55078,-16.784668,0.0,0.0,0.0,117.724,46.137085,-139.80103
1766901033900,-0.8364258,0.64453125,-0.42236328,-0.48828125,10.009766,-5.432129,0.0,0.0,0.0,117.724,46.137085,-139.80103
1766901033912,-0.8364258,0.64453125,-0.42236328,-0.48828125,10.009766,-5.432129,0.0,0.0,0.0,120.81665,45.631714,-135.85693
1766901033999,-0.66259766,0.45947266,-0.3491211,13.183594,-0.061035156,-13.000488,0.0,0.0,0.0,120.81665,45.631714,-135.85693
1766901034012,-0.66259766,0.45947266,-0.3491211,13.183594,-0.061035156,-13.000488,0.0,0.0,0.0,123.464355,46.35132,-133.12683
1766901034099,-0.67041016,0.6118164,-0.3647461,10.375977,14.465332,-1.7700195,0.0,0.0,0.0,123.464355,46.35132,-133.12683
1766901034111,-0.67041016,0.6118164,-0.3647461,10.375977,14.465332,-1.7700195,0.0,0.0,0.0,125.458374,46.532593,-131.9403
1766901034207,-0.81347656,0.50341797,-0.39013672,36.010742,6.1035156,0.7324219,0.0,0.0,0.0,125.458374,46.532593,-131.9403
1766901034211,-0.81347656,0.50341797,-0.39013672,36.010742,6.1035156,0.7324219,0.0,0.0,0.0,128.60596,45.59326,-130.49011
1766901034299,-0.75146484,0.6635742,-0.3647461,24.841309,-17.700195,9.82666,0.0,0.0,0.0,128.60596,45.59326,-130.49011
1766901034312,-0.75146484,0.6635742,-0.3647461,24.841309,-17.700195,9.82666,0.0,0.0,0.0,130.88562,45.807495,-131.88538
1766901034398,-0.7011719,0.5761719,-0.3642578,6.164551,-20.446777,12.939453,0.0,0.0,0.0,130.88562,45.807495,-131.88538
1766901034411,-0.7011719,0.5761719,-0.3642578,6.164551,-20.446777,12.939453,0.0,0.0,0.0,129.39697,46.159058,-135.35706
1766901034498,-0.7548828,0.61279297,-0.37695312,10.314941,-2.8686523,3.8452148,0.0,0.0,0.0,129.39697,46.159058,-135.35706
1766901034510,-0.7548828,0.61279297,-0.37695312,10.314941,-2.8686523,3.8452148,0.0,0.0,0.0,128.39172,46.274414,-137.4884
1766901034598,-0.78222656,0.6538086,-0.46826172,-9.94873,-18.371582,1.8920898,0.0,0.0,0.0,128.39172,46.274414,-137.4884
1766901034612,-0.78222656,0.6538086,-0.46826172,-9.94873,-18.371582,1.8920898,0.0,0.0,0.0,127.5238,46.56555,-138.74084
1766901034697,-0.640625,0.5473633,-0.43603516,-14.953613,0.24414062,2.5634766,0.0,0.0,0.0,127.5238,46.56555,-138.74084
1766901034709,-0.640625,0.5473633,-0.43603516,-14.953613,0.24414062,2.5634766,0.0,0.0,0.0,124.524536,46.884155,-140.60303
1766901034797,-0.6948242,0.47460938,-0.42626953,2.2583008,27.770996,-13.000488,0.0,0.0,0.0,124.524536,46.884155,-140.60303
1766901034809,-0.6948242,0.47460938,-0.42626953,2.2583008,27.770996,-13.000488,0.0,0.0,0.0,125.78247,46.153564,-138.30139
1766901034897,-0.7373047,0.5229492,-0.46728516,-1.7089844,4.638672,-5.126953,0.0,0.0,0.0,125.78247,46.153564,-138.30139
1766901034909,-0.7373047,0.5229492,-0.46728516,-1.7089844,4.638672,-5.126953,0.0,0.0,0.0,128.46863,45.966797,-135.06592
1766901034997,-0.7246094,0.54052734,-0.49023438,-3.0517578,-1.5258789,-5.065918,0.0,0.0,0.0,128.46863,45.966797,-135.06592
1766901035008,-0.7246094,0.54052734,-0.49023438,-3.0517578,-1.5258789,-5.065918,0.0,0.0,0.0,128.573,46.208496,-134.86267
1766901035096,-0.7182617,0.48779297,-0.46972656,-0.30517578,2.6245117,-7.6904297,0.0,0.0,0.0,128.573,46.208496,-134.86267
1766901035108,-0.7182617,0.48779297,-0.46972656,-0.30517578,2.6245117,-7.6904297,0.0,0.0,0.0,129.08386,46.66992,-134.1101
1766901035196,-0.7338867,0.40039062,-0.47558594,10.498047,-7.2021484,0.0,0.0,0.0,0.0,129.08386,46.66992,-134.1101
1766901035208,-0.7338867,0.40039062,-0.47558594,10.498047,-7.2021484,0.0,0.0,0.0,0.0,130.00671,47.125854,-133.90686
1766901035296,-0.7763672,0.5722656,-0.5214844,15.625,-1.8920898,6.958008,0.0,0.0,0.0,130.00671,47.125854,-133.90686
1766901035307,-0.7763672,0.5722656,-0.5214844,15.625,-1.8920898,6.958008,0.0,0.0,0.0,130.74829,47.279663,-135.23071
1766901035395,-0.6816406,0.5908203,-0.38085938,7.2631836,14.160156,7.2021484,0.0,0.0,0.0,130.74829,47.279663,-135.23071
1766901035407,-0.6816406,0.5908203,-0.38085938,7.2631836,14.160156,7.2021484,0.0,0.0,0.0,132.03369,46.241455,-135.57129
1766901035495,-0.72802734,0.53515625,-0.38671875,-9.765625,10.070801,-2.5634766,0.0,0.0,0.0,132.03369,46.241455,-135.57129
1766901035507,-0.72802734,0.53515625,-0.38671875,-9.765625,10.070801,-2.5634766,0.0,0.0,0.0,132.49512,45.197754,-134.38477
1766901035595,-0.73291016,0.5957031,-0.39697266,-28.137207,17.089844,-9.216309,0.0,0.0,0.0,132.49512,45.197754,-134.38477
1766901035606,-0.73291016,0.5957031,-0.39697266,-28.137207,17.089844,-9.216309,0.0,0.0,0.0,131.32507,44.96704,-132.594
1766901035695,-0.80908203,0.62109375,-0.32958984,-41.137695,19.958496,-15.625,0.0,0.0,0.0,131.32507,44.96704,-132.594
1766901035706,-0.80908203,0.62109375,-0.32958984,-41.137695,19.958496,-15.625,0.0,0.0,0.0,130.07263,44.692383,-128.83118
1766901035794,-0.76660156,0.51123047,-0.31982422,-45.47119,7.751465,-15.319824,0.0,0.0,0.0,130.07263,44.692383,-128.83118
1766901035806,-0.76660156,0.51123047,-0.31982422,-45.47119,7.751465,-15.319824,0.0,0.0,0.0,126.47461,45.307617,-126.73828
1766901035895,-0.9667969,0.47509766,-0.4477539,-6.3476562,-12.145996,-4.0893555,0.0,0.0,0.0,126.47461,45.307617,-126.73828
1766901035906,-0.9667969,0.47509766,-0.4477539,-6.3476562,-12.145996,-4.0893555,0.0,0.0,0.0,123.97522,46.7688,-125.6781
1766901035994,-0.71484375,0.5253906,-0.3515625,11.108398,-25.878906,9.82666,0.0,0.0,0.0,123.97522,46.7688,-125.6781
1766901036005,-0.71484375,0.5253906,-0.3515625,11.108398,-25.878906,9.82666,0.0,0.0,0.0,122.83264,47.735596,-129.02893
1766901036094,-0.5991211,0.5258789,-0.42773438,10.437012,-31.799316,17.27295,0.0,0.0,0.0,122.83264,47.735596,-129.02893
1766901036105,-0.5991211,0.5258789,-0.42773438,10.437012,-31.799316,17.27295,0.0,0.0,0.0,120.89905,48.40027,-133.56079
1766901036193,-0.56884766,0.58740234,-0.4326172,10.803223,-9.521484,13.916016,0.0,0.0,0.0,120.89905,48.40027,-133.56079
1766901036205,-0.56884766,0.58740234,-0.4326172,10.803223,-9.521484,13.916016,0.0,0.0,0.0,119.333496,47.625732,-137.79602
1766901036293,-0.69970703,0.6801758,-0.4580078,4.8828125,34.91211,-8.666992,0.0,0.0,0.0,119.333496,47.625732,-137.79602
1766901036305,-0.69970703,0.6801758,-0.4580078,4.8828125,34.91211,-8.666992,0.0,0.0,0.0,122.48657,46.35132,-135.10437
1766901036393,-0.7866211,0.40722656,-0.4399414,10.803223,-1.8310547,-3.6010742,0.0,0.0,0.0,122.48657,46.35132,-135.10437
1766901036404,-0.7866211,0.40722656,-0.4399414,10.803223,-1.8310547,-3.6010742,0.0,0.0,0.0,126.02966,45.74707,-131.44043
1766901036492,-0.6088867,0.5810547,-0.37695312,16.174316,-3.112793,19.89746,0.0,0.0,0.0,126.02966,45.74707,-131.44043
1766901036504,-0.6088867,0.5810547,-0.37695312,16.174316,-3.112793,19.89746,0.0,0.0,0.0,126.815186,45.07141,-132.92908
1766901036592,-0.8286133,0.58740234,-0.43310547,31.49414,-4.8217773,12.207031,0.0,0.0,0.0,126.815186,45.07141,-132.92908
1766901036604,-0.8286133,0.58740234,-0.43310547,31.49414,-4.8217773,12.207031,0.0,0.0,0.0,128.16101,43.912354,-134.3573
1766901036692,-0.74853516,0.6352539,-0.37109375,27.404785,-43.762207,25.6958,0.0,0.0,0.0,128.16101,43.912354,-134.3573
1766901036703,-0.74853516,0.6352539,-0.37109375,27.404785,-43.762207,25.6958,0.0,0.0,0.0,128.3258,44.088135,-138.71338
1766901036792,-0.61816406,0.6591797,-0.31298828,18.249512,-31.188965,20.385742,0.0,0.0,0.0,128.3258,44.088135,-138.71338
1766901036803,-0.61816406,0.6591797,-0.31298828,18.249512,-31.188965,20.385742,0.0,0.0,0.0,125.43091,44.72534,-145.46997
1766901036891,-0.6801758,0.7109375,-0.30126953,4.699707,-8.300781,3.7841797,0.0,0.0,0.0,125.43091,44.72534,-145.46997
1766901036903,-0.6801758,0.7109375,-0.30126953,4.699707,-8.300781,3.7841797,0.0,0.0,0.0,124.30481,44.450684,-148.28247
1766901036991,-0.6904297,0.6821289,-0.35595703,-6.1035156,-7.873535,3.4179688,0.0,0.0,0.0,124.30481,44.450684,-148.28247
1766901037002,-0.6904297,0.6821289,-0.35595703,-6.1035156,-7.873535,3.4179688,0.0,0.0,0.0,122.11853,44.577026,-150.3534
1766901037091,-0.69873047,0.6455078,-0.45410156,-18.188477,10.681152,-9.460449,0.0,0.0,0.0,122.11853,44.577026,-150.3534
1766901037102,-0.69873047,0.6455078,-0.45410156,-18.188477,10.681152,-9.460449,0.0,0.0,0.0,120.860596,44.851685,-149.65027
1766901037190,-0.71777344,0.5966797,-0.3935547,-13.427734,27.404785,-10.681152,0.0,0.0,0.0,120.860596,44.851685,-149.65027
1766901037202,-0.71777344,0.5966797,-0.3935547,-13.427734,27.404785,-10.681152,0.0,0.0,0.0,121.448364,44.28589,-146.60706
1766901037290,-0.71191406,0.55029297,-0.39501953,-13.305664,-7.446289,-1.8920898,0.0,0.0,0.0,121.448364,44.28589,-146.60706
1766901037302,-0.71191406,0.55029297,-0.39501953,-13.305664,-7.446289,-1.8920898,0.0,0.0,0.0,121.552734,44.456177,-144.89868
1766901037390,-0.70166016,0.6196289,-0.41015625,-11.169434,5.1879883,-6.8969727,0.0,0.0,0.0,121.552734,44.456177,-144.89868
1766901037401,-0.70166016,0.6196289,-0.41015625,-11.169434,5.1879883,-6.8969727,0.0,0.0,0.0,120.25635,44.978027,-145.24475
1766901037490,-0.6894531,0.54589844,-0.36816406,-7.9345703,2.9296875,-5.859375,0.0,0.0,0.0,120.25635,44.978027,-145.24475
1766901037501,-0.6894531,0.54589844,-0.36816406,-7.9345703,2.9296875,-5.859375,0.0,0.0,0.0,120.355225,45.28015,-143.83301
1766901037590,-0.70410156,0.48535156,-0.38867188,9.277344,0.61035156,7.5683594,0.0,0.0,0.0,120.355225,45.28015,-143.83301
1766901037601,-0.70410156,0.48535156,-0.38867188,9.277344,0.61035156,7.5683594,0.0,0.0,0.0,120.48157,44.994507,-144.04724
1766901037689,-0.78564453,0.66015625,-0.4375,17.822266,1.8310547,2.6245117,0.0,0.0,0.0,120.48157,44.994507,-144.04724
1766901037701,-0.78564453,0.66015625,-0.4375,17.822266,1.8310547,2.6245117,0.0,0.0,0.0,122.29431,44.681396,-144.42627
1766901037789,-0.67089844,0.6459961,-0.28808594,-5.92041,-3.479004,5.2490234,0.0,0.0,0.0,122.29431,44.681396,-144.42627
1766901037800,-0.67089844,0.6459961,-0.28808594,-5.92041,-3.479004,5.2490234,0.0,0.0,0.0,122.57446,44.395752,-145.02502
1766901037889,-0.63916016,0.5673828,-0.2841797,-8.483887,16.296387,-11.474609,0.0,0.0,0.0,122.57446,44.395752,-145.02502
1766901037900,-0.63916016,0.5673828,-0.2841797,-8.483887,16.296387,-11.474609,0.0,0.0,0.0,121.77246,44.44519,-144.49219
1766901037988,-0.734375,0.64501953,-0.30419922,-16.662598,33.447266,-19.28711,0.0,0.0,0.0,121.77246,44.44519,-144.49219
1766901038000,-0.734375,0.64501953,-0.30419922,-16.662598,33.447266,-19.28711,0.0,0.0,0.0,123.6676,44.538574,-139.71863
1766901038088,-0.7885742,0.62939453,-0.3100586,-23.498535,19.28711,-12.573242,0.0,0.0,0.0,123.6676,44.538574,-139.71863
1766901038100,-0.7885742,0.62939453,-0.3100586,-23.498535,19.28711,-12.573242,0.0,0.0,0.0,124.260864,44.450684,-135.33508
1766901038188,-0.8256836,0.5996094,-0.29052734,-23.376465,4.5166016,-15.74707,0.0,0.0,0.0,124.260864,44.450684,-135.33508
1766901038199,-0.8256836,0.5996094,-0.29052734,-23.376465,4.5166016,-15.74707,0.0,0.0,0.0,123.4259,45.170288,-132.7478
1766901038287,-0.93359375,0.61816406,-0.375,-29.418945,-20.263672,-11.962891,0.0,0.0,0.0,123.4259,45.170288,-132.7478
1766901038299,-0.93359375,0.61816406,-0.375,-29.418945,-20.263672,-11.962891,0.0,0.0,0.0,120.92651,46.801758,-132.11609
1766901038387,-0.7993164,0.5151367,-0.32714844,10.681152,-25.634766,7.019043,0.0,0.0,0.0,120.92651,46.801758,-132.11609
1766901038400,-0.7993164,0.5151367,-0.32714844,10.681152,-25.634766,7.019043,0.0,0.0,0.0,118.465576,48.35083,-135.25818
1766901038487,-0.61621094,0.5517578,-0.32714844,-1.2817383,-37.475586,14.160156,0.0,0.0,0.0,118.465576,48.35083,-135.25818
1766901038499,-0.61621094,0.5517578,-0.32714844,-1.2817383,-37.475586,14.160156,0.0,0.0,0.0,115.27954,49.125366,-140.44922
1766901038587,-0.5600586,0.5751953,-0.34375,1.2207031,-10.925293,11.962891,0.0,0.0,0.0,115.27954,49.125366,-140.44922
1766901038598,-0.5600586,0.5751953,-0.34375,1.2207031,-10.925293,11.962891,0.0,0.0,0.0,112.472534,48.8562,-145.03601
1766901038686,-0.7753906,0.65625,-0.3857422,13.183594,32.65381,-10.803223,0.0,0.0,0.0,112.472534,48.8562,-145.03601
1766901038698,-0.7753906,0.65625,-0.3857422,13.183594,32.65381,-10.803223,0.0,0.0,0.0,114.071045,48.043213,-144.28345
1766901038786,-0.74609375,0.5703125,-0.27246094,6.958008,4.333496,-0.6713867,0.0,0.0,0.0,114.071045,48.043213,-144.28345
1766901038797,-0.74609375,0.5703125,-0.27246094,6.958008,4.333496,-0.6713867,0.0,0.0,0.0,119.21814,47.75757,-139.68018
1766901038886,-0.6660156,0.5776367,-0.30566406,8.728027,12.145996,10.559082,0.0,0.0,0.0,119.21814,47.75757,-139.68018
1766901038897,-0.6660156,0.5776367,-0.30566406,8.728027,12.145996,10.559082,0.0,0.0,0.0,118.80066,46.900635,-140.63599
1766901038985,-0.85791016,0.6254883,-0.29101562,18.676758,-3.3569336,8.483887,0.0,0.0,0.0,118.80066,46.900635,-140.63599
1766901038997,-0.85791016,0.6254883,-0.29101562,18.676758,-3.3569336,8.483887,0.0,0.0,0.0,121.30005,45.60974,-139.31763
1766901039085,-0.68359375,0.64404297,-0.2553711,14.221191,-23.55957,14.343262,0.0,0.0,0.0,121.30005,45.60974,-139.31763
1766901039097,-0.68359375,0.64404297,-0.2553711,14.221191,-23.55957,14.343262,0.0,0.0,0.0,120.371704,45.549316,-142.52563
1766901039185,-0.6567383,0.76123047,-0.24414062,-5.126953,-17.211914,10.559082,0.0,0.0,0.0,120.371704,45.549316,-142.52563
1766901039196,-0.6567383,0.76123047,-0.24414062,-5.126953,-17.211914,10.559082,0.0,0.0,0.0,118.26782,45.335083,-145.95886
1766901039285,-0.7519531,0.8071289,-0.37841797,-16.967773,-13.000488,5.065918,0.0,0.0,0.0,118.26782,45.335083,-145.95886
1766901039296,-0.7519531,0.8071289,-0.37841797,-16.967773,-13.000488,5.065918,0.0,0.0,0.0,115.51575,45.236206,-148.11768
1766901039384,-0.6044922,0.5541992,-0.27734375,-16.723633,21.911621,-6.225586,0.0,0.0,0.0,115.51575,45.236206,-148.11768
1766901039396,-0.6044922,0.5541992,-0.27734375,-16.723633,21.911621,-6.225586,0.0,0.0,0.0,113.862305,45.22522,-147.46399
1766901039484,-0.7895508,0.49560547,-0.35888672,-0.30517578,-1.5869141,-2.2583008,0.0,0.0,0.0,113.862305,45.22522,-147.46399
1766901039495,-0.7895508,0.49560547,-0.35888672,-0.30517578,-1.5869141,-2.2583008,0.0,0.0,0.0,114.52698,45.076904,-145.34363
1766901039584,-0.67285156,0.46435547,-0.34033203,25.939941,-13.793945,10.7421875,0.0,0.0,0.0,114.52698,45.076904,-145.34363
1766901039595,-0.67285156,0.46435547,-0.34033203,25.939941,-13.793945,10.7421875,0.0,0.0,0.0,114.40613,45.46692,-147.25525
1766901039683,-0.7504883,0.74560547,-0.45654297,34.362793,0.7324219,14.892578,0.0,0.0,0.0,114.40613,45.46692,-147.25525
1766901039695,-0.7504883,0.74560547,-0.45654297,34.362793,0.7324219,14.892578,0.0,0.0,0.0,117.00989,44.588013,-149.469
1766901039783,-0.65527344,0.67626953,-0.33642578,13.549805,22.277832,-0.36621094,0.0,0.0,0.0,117.00989,44.588013,-149.469
1766901039795,-0.65527344,0.67626953,-0.33642578,13.549805,22.277832,-0.36621094,0.0,0.0,0.0,120.52002,43.258667,-148.55713
1766901039883,-0.6640625,0.6166992,-0.3466797,-4.760742,5.493164,-4.0893555,0.0,0.0,0.0,120.52002,43.258667,-148.55713
1766901039894,-0.6640625,0.6166992,-0.3466797,-4.760742,5.493164,-4.0893555,0.0,0.0,0.0,121.93176,42.60498,-146.96411
1766901039983,-0.67578125,0.6147461,-0.36035156,-9.338379,24.414062,-17.333984,0.0,0.0,0.0,121.93176,42.60498,-146.96411
1766901039994,-0.67578125,0.6147461,-0.36035156,-9.338379,24.414062,-17.333984,0.0,0.0,0.0,122.71179,42.93457,-144.40979
1766901040082,-0.7836914,0.60546875,-0.38964844,-11.535645,23.80371,-19.28711,0.0,0.0,0.0,122.71179,42.93457,-144.40979
1766901040094,-0.7836914,0.60546875,-0.38964844,-11.535645,23.80371,-19.28711,0.0,0.0,0.0,124.77173,42.994995,-139.55383
1766901040182,-0.7192383,0.62109375,-0.32617188,-18.737793,1.7089844,-12.6953125,0.0,0.0,0.0,124.77173,42.994995,-139.55383
1766901040194,-0.7192383,0.62109375,-0.32617188,-18.737793,1.7089844,-12.6953125,0.0,0.0,0.0,124.365234,43.78601,-137.75757
1766901040282,-0.86035156,0.6484375,-0.38964844,-21.972656,-2.9907227,-18.676758,0.0,0.0,0.0,124.365234,43.78601,-137.75757
1766901040294,-0.86035156,0.6484375,-0.38964844,-21.972656,-2.9907227,-18.676758,0.0,0.0,0.0,123.063354,45.351562,-136.51611
1766901040382,-0.7583008,0.484375,-0.37451172,0.91552734,-18.432617,-4.8217773,0.0,0.0,0.0,123.063354,45.351562,-136.51611
1766901040393,-0.7583008,0.484375,-0.37451172,0.91552734,-18.432617,-4.8217773,0.0,0.0,0.0,121.118774,46.988525,-138.33984
1766901040481,-0.7246094,0.61865234,-0.32666016,0.18310547,-7.507324,-3.6621094,0.0,0.0,0.0,121.118774,46.988525,-138.33984
1766901040493,-0.7246094,0.61865234,-0.32666016,0.18310547,-7.507324,-3.6621094,0.0,0.0,0.0,121.294556,47.993774,-138.80127
1766901040581,-0.6411133,0.55322266,-0.3671875,2.9296875,-13.977051,16.235352,0.0,0.0,0.0,121.294556,47.993774,-138.80127
1766901040592,-0.6411133,0.55322266,-0.3671875,2.9296875,-13.977051,16.235352,0.0,0.0,0.0,119.591675,47.647705,-141.29517
1766901040681,-0.6176758,0.6245117,-0.37597656,-0.9765625,15.441895,-6.286621,0.0,0.0,0.0,119.591675,47.647705,-141.29517
1766901040692,-0.6176758,0.6245117,-0.37597656,-0.9765625,15.441895,-6.286621,0.0,0.0,0.0,119.70154,46.966553,-141.427
1766901040780,-0.72753906,0.6176758,-0.42236328,1.8920898,19.28711,-8.544922,0.0,0.0,0.0,119.70154,46.966553,-141.427
1766901040792,-0.72753906,0.6176758,-0.42236328,1.8920898,19.28711,-8.544922,0.0,0.0,0.0,121.953735,46.450195,-138.44421
1766901040880,-0.7753906,0.54052734,-0.35058594,9.338379,18.676758,-12.878418,0.0,0.0,0.0,121.953735,46.450195,-138.44421
1766901040892,-0.7753906,0.54052734,-0.35058594,9.338379,18.676758,-12.878418,0.0,0.0,0.0,125.38696,46.00525,-134.97803
1766901040980,-0.6582031,0.6074219,-0.37451172,7.2631836,8.605957,0.5493164,0.0,0.0,0.0,125.38696,46.00525,-134.97803
1766901040992,-0.6582031,0.6074219,-0.37451172,7.2631836,8.605957,0.5493164,0.0,0.0,0.0,126.99097,45.994263,-133.56628
1766901041080,-0.80078125,0.5498047,-0.35839844,19.16504,6.591797,2.0141602,0.0,0.0,0.0,126.99097,45.994263,-133.56628
1766901041092,-0.80078125,0.5498047,-0.35839844,19.16504,6.591797,2.0141602,0.0,0.0,0.0,128.99597,45.186768,-132.33582
1766901041179,-0.7426758,0.6230469,-0.37451172,17.700195,-27.893066,15.930176,0.0,0.0,0.0,128.99597,45.186768,-132.33582
1766901041191,-0.7426758,0.6230469,-0.37451172,17.700195,-27.893066,15.930176,0.0,0.0,0.0,128.59497,45.411987,-135.21973
1766901041279,-0.72753906,0.70947266,-0.34472656,-6.591797,-33.447266,15.930176,0.0,0.0,0.0,128.59497,45.411987,-135.21973
1766901041291,-0.72753906,0.70947266,-0.34472656,-6.591797,-33.447266,15.930176,0.0,0.0,0.0,125.67261,46.00525,-139.7406
1766901041379,-0.68359375,0.6279297,-0.4477539,-41.381836,-25.08545,-1.7700195,0.0,0.0,0.0,125.67261,46.00525,-139.7406
1766901041390,-0.68359375,0.6279297,-0.4477539,-41.381836,-25.08545,-1.7700195,0.0,0.0,0.0,119.05884,46.79077,-144.89319
1766901041478,-0.7207031,0.5527344,-0.33691406,-12.756348,26.672363,-17.944336,0.0,0.0,0.0,119.05884,46.79077,-144.89319
1766901041490,-0.7207031,0.5527344,-0.33691406,-12.756348,26.672363,-17.944336,0.0,0.0,0.0,117.02637,47.944336,-144.10767
1766901041578,-0.77783203,0.4404297,-0.31884766,-4.699707,-19.65332,1.7700195,0.0,0.0,0.0,117.02637,47.944336,-144.10767
1766901041590,-0.77783203,0.4404297,-0.31884766,-4.699707,-19.65332,1.7700195,0.0,0.0,0.0,118.97095,48.50464,-141.21277
1766901041678,-0.69433594,0.5024414,-0.33789062,8.605957,-4.5776367,7.2631836,0.0,0.0,0.0,118.97095,48.50464,-141.21277
1766901041690,-0.69433594,0.5024414,-0.33789062,8.605957,-4.5776367,7.2631836,0.0,0.0,0.0,116.691284,48.78479,-144.74487
1766901041778,-0.8588867,0.53466797,-0.3564453,17.944336,3.3569336,3.3569336,0.0,0.0,0.0,116.691284,48.78479,-144.74487
1766901041789,-0.8588867,0.53466797,-0.3564453,17.944336,3.3569336,3.3569336,0.0,0.0,0.0,119.245605,48.24646,-144.0857
1766901041877,-0.71972656,0.62060547,-0.2998047,18.188477,-1.5869141,17.089844,0.0,0.0,0.0,119.245605,48.24646,-144.0857
1766901041889,-0.71972656,0.62060547,-0.2998047,18.188477,-1.5869141,17.089844,0.0,0.0,0.0,119.9762,47.565308,-145.78308
1766901041977,-0.6816406,0.54296875,-0.28564453,17.39502,11.352539,9.521484,0.0,0.0,0.0,119.9762,47.565308,-145.78308
1766901041989,-0.6816406,0.54296875,-0.28564453,17.39502,11.352539,9.521484,0.0,0.0,0.0,121.87134,46.02173,-145.75012
1766901042077,-0.74121094,0.6723633,-0.34277344,0.5493164,25.45166,-10.864258,0.0,0.0,0.0,121.87134,46.02173,-145.75012
1766901042089,-0.74121094,0.6723633,-0.34277344,0.5493164,25.45166,-10.864258,0.0,0.0,0.0,124.035645,45.406494,-143.58032
1766901042177,-0.7338867,0.6777344,-0.33251953,-18.127441,18.737793,-7.8125,0.0,0.0,0.0,124.035645,45.406494,-143.58032
1766901042188,-0.7338867,0.6777344,-0.33251953,-18.127441,18.737793,-7.8125,0.0,0.0,0.0,125.22217,44.873657,-140.16357
1766901042276,-0.77734375,0.6166992,-0.2915039,-34.5459,18.310547,-7.385254,0.0,0.0,0.0,125.22217,44.873657,-140.16357
1766901042288,-0.77734375,0.6166992,-0.2915039,-34.5459,18.310547,-7.385254,0.0,0.0,0.0,123.92578,44.28589,-137.43347
1766901042376,-0.86279297,0.6738281,-0.38330078,-33.203125,-1.7089844,-13.122559,0.0,0.0,0.0,123.92578,44.28589,-137.43347
1766901042387,-0.86279297,0.6738281,-0.38330078,-33.203125,-1.7089844,-13.122559,0.0,0.0,0.0,121.56372,44.70337,-135.65369
1766901042476,-0.7504883,0.49609375,-0.39453125,4.699707,-11.352539,8.666992,0.0,0.0,0.0,121.56372,44.70337,-135.65369
1766901042487,-0.7504883,0.49609375,-0.39453125,4.699707,-11.352539,8.666992,0.0,0.0,0.0,119.17969,45.395508,-136.99402
1766901042575,-0.6899414,0.59228516,-0.359375,3.1738281,-13.122559,-3.2958984,0.0,0.0,0.0,119.17969,45.395508,-136.99402
1766901042587,-0.6899414,0.59228516,-0.359375,3.1738281,-13.122559,-3.2958984,0.0,0.0,0.0,119.28955,46.071167,-138.28491
1766901042675,-0.63916016,0.5488281,-0.40185547,-0.61035156,-2.9296875,0.24414062,0.0,0.0,0.0,119.28955,46.071167,-138.28491
1766901042687,-0.63916016,0.5488281,-0.40185547,-0.61035156,-2.9296875,0.24414062,0.0,0.0,0.0,118.635864,46.576538,-139.42749
1766901042775,-0.6591797,0.57910156,-0.41210938,5.493164,17.089844,-10.925293,0.0,0.0,0.0,118.635864,46.576538,-139.42749
1766901042787,-0.6591797,0.57910156,-0.41210938,5.493164,17.089844,-10.925293,0.0,0.0,0.0,120.17944,46.450195,-138.16956
1766901042875,-0.72509766,0.5805664,-0.44970703,7.507324,11.71875,-6.164551,0.0,0.0,0.0,120.17944,46.450195,-138.16956
1766901042887,-0.72509766,0.5805664,-0.44970703,7.507324,11.71875,-6.164551,0.0,0.0,0.0,123.04138,46.30188,-135.42297
1766901042974,-0.81640625,0.49365234,-0.4111328,21.728516,0.91552734,-10.253906,0.0,0.0,0.0,123.04138,46.30188,-135.42297
1766901042986,-0.81640625,0.49365234,-0.4111328,21.728516,0.91552734,-10.253906,0.0,0.0,0.0,125.963745,46.362305,-133.8794
1766901043074,-0.7006836,0.63183594,-0.3623047,15.808105,-19.40918,17.700195,0.0,0.0,0.0,125.963745,46.362305,-133.8794
1766901043086,-0.7006836,0.63183594,-0.3623047,15.808105,-19.40918,17.700195,0.0,0.0,0.0,126.52954,46.796265,-135.87341
1766901043174,-0.7348633,0.59472656,-0.3125,20.263672,-9.82666,16.723633,0.0,0.0,0.0,126.52954,46.796265,-135.87341
1766901043186,-0.7348633,0.59472656,-0.3125,20.263672,-9.82666,16.723633,0.0,0.0,0.0,125.66162,46.14258,-139.14734
1766901043273,-0.6821289,0.6333008,-0.30859375,15.686035,-18.737793,17.944336,0.0,0.0,0.0,125.66162,46.14258,-139.14734
1766901043286,-0.6821289,0.6333008,-0.30859375,15.686035,-18.737793,17.944336,0.0,0.0,0.0,125.12329,45.527344,-142.229
1766901043373,-0.7109375,0.64697266,-0.32128906,4.760742,-12.207031,9.094238,0.0,0.0,0.0,125.12329,45.527344,-142.229
1766901043385,-0.7109375,0.64697266,-0.32128906,4.760742,-12.207031,9.094238,0.0,0.0,0.0,123.93677,45.22522,-144.94812
1766901043473,-0.76708984,0.78222656,-0.37597656,-18.798828,-13.244629,8.056641,0.0,0.0,0.0,123.93677,45.22522,-144.94812
1766901043484,-0.76708984,0.78222656,-0.37597656,-18.798828,-13.244629,8.056641,0.0,0.0,0.0,121.32202,45.082397,-147.44202
1766901043573,-0.7163086,0.6230469,-0.36914062,-16.906738,8.911133,-5.2490234,0.0,0.0,0.0,121.32202,45.082397,-147.44202
1766901043584,-0.7163086,0.6230469,-0.36914062,-16.906738,8.911133,-5.2490234,0.0,0.0,0.0,118.201904,44.98352,-148.55164
1766901043672,-0.6977539,0.50878906,-0.3334961,-1.3427734,-8.728027,4.0893555,0.0,0.0,0.0,118.201904,44.98352,-148.55164
1766901043684,-0.6977539,0.50878906,-0.3334961,-1.3427734,-8.728027,4.0893555,0.0,0.0,0.0,118.8501,45.109863,-146.68945
1766901043772,-0.62109375,0.55371094,-0.42626953,0.6713867,-3.112793,4.5166016,0.0,0.0,0.0,118.8501,45.109863,-146.68945
1766901043783,-0.62109375,0.55371094,-0.42626953,0.6713867,-3.112793,4.5166016,0.0,0.0,0.0,117.31201,45.17578,-148.80981
1766901043872,-0.72265625,0.4921875,-0.4506836,17.39502,15.74707,3.8452148,0.0,0.0,0.0,117.31201,45.17578,-148.80981
1766901043883,-0.72265625,0.4921875,-0.4506836,17.39502,15.74707,3.8452148,0.0,0.0,0.0,119.30603,44.21997,-147.9419
1766901043971,-0.7260742,0.7158203,-0.39892578,4.0893555,-2.1362305,3.479004,0.0,0.0,0.0,119.30603,44.21997,-147.9419
1766901043983,-0.7260742,0.7158203,-0.39892578,4.0893555,-2.1362305,3.479004,0.0,0.0,0.0,121.102295,43.549805,-147.72766
1766901044071,-0.67871094,0.54345703,-0.33544922,6.591797,1.2207031,1.3427734,0.0,0.0,0.0,121.102295,43.549805,-147.72766
1766901044083,-0.67871094,0.54345703,-0.33544922,6.591797,1.2207031,1.3427734,0.0,0.0,0.0,121.552734,43.2312,-147.86499
1766901044171,-0.69921875,0.6484375,-0.34716797,7.8125,8.544922,-7.6904297,0.0,0.0,0.0,121.552734,43.2312,-147.86499
1766901044182,-0.69921875,0.6484375,-0.34716797,7.8125,8.544922,-7.6904297,0.0,0.0,0.0,122.77771,43.38501,-147.40356
1766901044271,-0.72021484,0.69384766,-0.31445312,-8.239746,13.549805,-8.972168,0.0,0.0,0.0,122.77771,43.38501,-147.40356
1766901044282,-0.72021484,0.69384766,-0.31445312,-8.239746,13.549805,-8.972168,0.0,0.0,0.0,123.931274,43.478394,-145.448
1766901044370,-0.7167969,0.66015625,-0.27539062,-15.441895,6.1035156,-3.540039,0.0,0.0,0.0,123.931274,43.478394,-145.448
1766901044382,-0.7167969,0.66015625,-0.27539062,-15.441895,6.1035156,-3.540039,0.0,0.0,0.0,122.84912,43.4729,-144.41528
1766901044470,-0.7519531,0.66259766,-0.25048828,-24.353027,0.9765625,-10.009766,0.0,0.0,0.0,122.84912,43.4729,-144.41528
1766901044481,-0.7519531,0.66259766,-0.25048828,-24.353027,0.9765625,-10.009766,0.0,0.0,0.0,121.18469,43.950806,-143.20679
1766901044570,-0.76171875,0.5234375,-0.38623047,0.24414062,-12.756348,11.230469,0.0,0.0,0.0,121.18469,43.950806,-143.20679
1766901044581,-0.76171875,0.5234375,-0.38623047,0.24414062,-12.756348,11.230469,0.0,0.0,0.0,118.75122,44.675903,-143.80005
1766901044669,-0.71777344,0.6455078,-0.42089844,7.8125,0.91552734,-2.6245117,0.0,0.0,0.0,118.75122,44.675903,-143.80005
1766901044681,-0.71777344,0.6455078,-0.42089844,7.8125,0.91552734,-2.6245117,0.0,0.0,0.0,119.04236,44.890137,-144.76135
1766901044769,-0.59033203,0.5283203,-0.39013672,0.48828125,-3.6621094,-2.5634766,0.0,0.0,0.0,119.04236,44.890137,-144.76135
1766901044781,-0.59033203,0.5283203,-0.39013672,0.48828125,-3.6621094,-2.5634766,0.0,0.0,0.0,119.40491,45.291138,-144.99756
1766901044869,-0.5625,0.5708008,-0.42285156,3.1738281,6.713867,-2.5634766,0.0,0.0,0.0,119.40491,45.291138,-144.99756
1766901044881,-0.5625,0.5708008,-0.42285156,3.1738281,6.713867,-2.5634766,0.0,0.0,0.0,120.01465,45.10437,-145.06897
1766901044969,-0.7861328,0.59033203,-0.50146484,21.78955,25.878906,-8.544922,0.0,0.0,0.0,120.01465,45.10437,-145.06897
1766901044980,-0.7861328,0.59033203,-0.50146484,21.78955,25.878906,-8.544922,0.0,0.0,0.0,123.78845,44.65393,-142.13013
1766901045068,-0.6723633,0.66064453,-0.39746094,13.427734,0.0,2.2583008,0.0,0.0,0.0,123.78845,44.65393,-142.13013
1766901045080,-0.6723633,0.66064453,-0.39746094,13.427734,0.0,2.2583008,0.0,0.0,0.0,126.99097,44.016724,-140.82275
1766901045168,-0.6879883,0.59033203,-0.41552734,11.59668,8.056641,2.8076172,0.0,0.0,0.0,126.99097,44.016724,-140.82275
1766901045180,-0.6879883,0.59033203,-0.41552734,11.59668,8.056641,2.8076172,0.0,0.0,0.0,128.06763,43.516846,-140.3833
1766901045268,-0.7285156,0.58154297,-0.3959961,18.188477,-10.192871,9.643555,0.0,0.0,0.0,128.06763,43.516846,-140.3833
1766901045279,-0.7285156,0.58154297,-0.3959961,18.188477,-10.192871,9.643555,0.0,0.0,0.0,129.0564,43.115845,-140.96008
1766901045368,-0.6660156,0.6513672,-0.37597656,13.671875,-20.568848,17.27295,0.0,0.0,0.0,129.0564,43.115845,-140.96008
1766901045379,-0.6660156,0.6513672,-0.37597656,13.671875,-20.568848,17.27295,0.0,0.0,0.0,128.14453,43.12683,-144.38232
1766901045467,-0.67822266,0.6748047,-0.39160156,2.2583008,-19.40918,17.089844,0.0,0.0,0.0,128.14453,43.12683,-144.38232
1766901045479,-0.67822266,0.6748047,-0.39160156,2.2583008,-19.40918,17.089844,0.0,0.0,0.0,126.293335,42.89612,-147.83752
1766901045567,-0.6660156,0.71533203,-0.46923828,-12.634277,-16.479492,13.549805,0.0,0.0,0.0,126.293335,42.89612,-147.83752
1766901045578,-0.6660156,0.71533203,-0.46923828,-12.634277,-16.479492,13.549805,0.0,0.0,0.0,122.926025,42.577515,-151.53992
1766901045667,-0.73339844,0.6035156,-0.38964844,-7.1411133,7.6293945,-4.4555664,0.0,0.0,0.0,122.926025,42.577515,-151.53992
1766901045679,-0.73339844,0.6035156,-0.38964844,-7.1411133,7.6293945,-4.4555664,0.0,0.0,0.0,121.640625,42.39624,-151.67175
1766901045767,-0.57910156,0.62890625,-0.36914062,-13.671875,-22.583008,10.070801,0.0,0.0,0.0,121.640625,42.39624,-151.67175
1766901045778,-0.57910156,0.62890625,-0.36914062,-13.671875,-22.583008,10.070801,0.0,0.0,0.0,119.783936,42.539062,-153.52844
1766901045866,-0.6191406,0.61621094,-0.3779297,-11.230469,19.65332,-11.59668,0.0,0.0,0.0,119.783936,42.539062,-153.52844
1766901045878,-0.6191406,0.61621094,-0.3779297,-11.230469,19.65332,-11.59668,0.0,0.0,0.0,118.67432,42.714844,-153.48999
1766901045966,-0.69628906,0.60839844,-0.40820312,-15.869141,4.5166016,-6.652832,0.0,0.0,0.0,118.67432,42.714844,-153.48999
1766901045977,-0.69628906,0.60839844,-0.40820312,-15.869141,4.5166016,-6.652832,0.0,0.0,0.0,119.43237,42.703857,-150.88074
1766901046066,-0.70996094,0.49902344,-0.41210938,8.300781,8.544922,-2.9907227,0.0,0.0,0.0,119.43237,42.703857,-150.88074
1766901046077,-0.70996094,0.49902344,-0.41210938,8.300781,8.544922,-2.9907227,0.0,0.0,0.0,119.78943,42.593994,-150.13916
1766901046165,-0.6557617,0.6591797,-0.38476562,19.16504,26.123047,-11.71875,0.0,0.0,0.0,119.78943,42.593994,-150.13916
1766901046177,-0.6557617,0.6591797,-0.38476562,19.16504,26.123047,-11.71875,0.0,0.0,0.0,123.45337,42.495117,-147.72766
1766901046265,-0.71533203,0.61328125,-0.37304688,0.24414062,20.324707,-14.6484375,0.0,0.0,0.0,123.45337,42.495117,-147.72766
1766901046277,-0.71533203,0.61328125,-0.37304688,0.24414062,20.324707,-14.6484375,0.0,0.0,0.0,127.00195,42.121582,-143.63525
1766901046365,-0.7285156,0.5805664,-0.40820312,-6.164551,12.451172,-15.136719,0.0,0.0,0.0,127.00195,42.121582,-143.63525
1766901046376,-0.7285156,0.5805664,-0.40820312,-6.164551,12.451172,-15.136719,0.0,0.0,0.0,128.29834,42.489624,-140.74036
1766901046465,-0.77734375,0.59277344,-0.39404297,-10.620117,2.5634766,-12.756348,0.0,0.0,0.0,128.29834,42.489624,-140.74036
1766901046476,-0.77734375,0.59277344,-0.39404297,-10.620117,2.5634766,-12.756348,0.0,0.0,0.0,128.83667,43.198242,-138.33435
1766901046564,-0.7241211,0.61035156,-0.3701172,-15.136719,1.5258789,-10.925293,0.0,0.0,0.0,128.83667,43.198242,-138.33435
1766901046576,-0.7241211,0.61035156,-0.3701172,-15.136719,1.5258789,-10.925293,0.0,0.0,0.0,128.05115,44.1156,-137.29065
1766901046664,-0.8457031,0.6567383,-0.45361328,-32.89795,-6.8969727,-19.89746,0.0,0.0,0.0,128.05115,44.1156,-137.29065
1766901046676,-0.8457031,0.6567383,-0.45361328,-32.89795,-6.8969727,-19.89746,0.0,0.0,0.0,126.21094,45.37903,-136.0492
1766901046764,-0.75878906,0.44921875,-0.3857422,-8.300781,-14.282227,-5.493164,0.0,0.0,0.0,126.21094,45.37903,-136.0492
1766901046775,-0.75878906,0.44921875,-0.3857422,-8.300781,-14.282227,-5.493164,0.0,0.0,0.0,123.50281,47.131348,-137.2467
1766901046863,-0.73828125,0.50146484,-0.37548828,-9.521484,-17.822266,-3.6621094,0.0,0.0,0.0,123.50281,47.131348,-137.2467
1766901046875,-0.73828125,0.50146484,-0.37548828,-9.521484,-17.822266,-3.6621094,0.0,0.0,0.0,122.49756,48.47168,-137.91138
1766901046963,-0.60498047,0.49414062,-0.42089844,-2.2583008,-22.460938,2.5024414,0.0,0.0,0.0,122.49756,48.47168,-137.91138
1766901046975,-0.60498047,0.49414062,-0.42089844,-2.2583008,-22.460938,2.5024414,0.0,0.0,0.0,119.800415,49.53186,-141.03699
1766901047063,-0.7270508,0.66796875,-0.4350586,4.9438477,6.4086914,-6.4086914,0.0,0.0,0.0,119.800415,49.53186,-141.03699
1766901047074,-0.7270508,0.66796875,-0.4350586,4.9438477,6.4086914,-6.4086914,0.0,0.0,0.0,118.59741,49.68567,-143.17932
1766901047163,-0.88134766,0.4243164,-0.28271484,15.197754,12.756348,-24.902344,0.0,0.0,0.0,118.59741,49.68567,-143.17932
1766901047174,-0.88134766,0.4243164,-0.28271484,15.197754,12.756348,-24.902344,0.0,0.0,0.0,125.05737,49.729614,-137.09839
1766901047262,-0.75,0.58984375,-0.34033203,16.601562,-16.906738,23.254395,0.0,0.0,0.0,125.05737,49.729614,-137.09839
1766901047274,-0.75,0.58984375,-0.34033203,16.601562,-16.906738,23.254395,0.0,0.0,0.0,123.6676,49.400024,-140.92163
1766901047362,-0.734375,0.6088867,-0.26464844,14.038086,0.8544922,16.662598,0.0,0.0,0.0,123.6676,49.400024,-140.92163
1766901047374,-0.734375,0.6088867,-0.26464844,14.038086,0.8544922,16.662598,0.0,0.0,0.0,123.85437,47.922363,-142.67944
1766901047462,-0.73535156,0.60839844,-0.30273438,17.700195,0.4272461,16.601562,0.0,0.0,0.0,123.85437,47.922363,-142.67944
1766901047474,-0.73535156,0.60839844,-0.30273438,17.700195,0.4272461,16.601562,0.0,0.0,0.0,123.64014,46.400757,-144.5636
1766901047561,-0.75390625,0.6904297,-0.31982422,7.873535,-8.666992,13.305664,0.0,0.0,0.0,123.64014,46.400757,-144.5636
1766901047573,-0.75390625,0.6904297,-0.31982422,7.873535,-8.666992,13.305664,0.0,0.0,0.0,123.76648,45.368042,-145.8435
1766901047661,-0.71191406,0.7055664,-0.375,-9.765625,-18.798828,7.9345703,0.0,0.0,0.0,123.76648,45.368042,-145.8435
1766901047673,-0.71191406,0.7055664,-0.375,-9.765625,-18.798828,7.9345703,0.0,0.0,0.0,121.50879,45.038452,-148.40332
1766901047761,-0.62402344,0.62939453,-0.4033203,-18.981934,3.6621094,-13.671875,0.0,0.0,0.0,121.50879,45.038452,-148.40332
1766901047772,-0.62402344,0.62939453,-0.4033203,-18.981934,3.6621094,-13.671875,0.0,0.0,0.0,119.24011,45.36255,-149.37012
1766901047861,-0.7368164,0.578125,-0.40527344,-11.108398,17.456055,-18.798828,0.0,0.0,0.0,119.24011,45.36255,-149.37012
1766901047872,-0.7368164,0.578125,-0.40527344,-11.108398,17.456055,-18.798828,0.0,0.0,0.0,119.43787,45.829468,-147.04651
1766901047961,-0.6875,0.5253906,-0.34033203,-11.230469,5.9814453,-13.549805,0.0,0.0,0.0,119.43787,45.829468,-147.04651
1766901047972,-0.6875,0.5253906,-0.34033203,-11.230469,5.9814453,-13.549805,0.0,0.0,0.0,120.47058,46.56006,-144.28345
1766901048060,-0.74121094,0.5463867,-0.36035156,-1.953125,13.793945,-10.375977,0.0,0.0,0.0,120.47058,46.56006,-144.28345
1766901048072,-0.74121094,0.5463867,-0.36035156,-1.953125,13.793945,-10.375977,0.0,0.0,0.0,121.190186,47.10388,-142.43225
1766901048160,-0.7705078,0.56347656,-0.36328125,2.5024414,6.4086914,-0.5493164,0.0,0.0,0.0,121.190186,47.10388,-142.43225
1766901048172,-0.7705078,0.56347656,-0.36328125,2.5024414,6.4086914,-0.5493164,0.0,0.0,0.0,123.063354,47.125854,-140.07019
1766901048260,-0.6982422,0.48535156,-0.36279297,8.117676,5.92041,9.521484,0.0,0.0,0.0,123.063354,47.125854,-140.07019
1766901048271,-0.6982422,0.48535156,-0.36279297,8.117676,5.92041,9.521484,0.0,0.0,0.0,123.552246,46.549072,-139.95483
1766901048360,-0.7324219,0.5810547,-0.43945312,27.160645,11.047363,7.6904297,0.0,0.0,0.0,123.552246,46.549072,-139.95483
1766901048371,-0.7324219,0.5810547,-0.43945312,27.160645,11.047363,7.6904297,0.0,0.0,0.0,125.667114,45.52185,-139.5813
1766901048459,-0.72314453,0.6191406,-0.38476562,20.202637,25.756836,7.6293945,0.0,0.0,0.0,125.667114,45.52185,-139.5813
1766901048470,-0.72314453,0.6191406,-0.38476562,20.202637,25.756836,7.6293945,0.0,0.0,0.0,129.10034,43.725586,-138.34534
1766901048559,-0.75927734,0.57666016,-0.41357422,4.4555664,-2.6245117,-4.3945312,0.0,0.0,0.0,129.10034,43.725586,-138.34534
1766901048570,-0.75927734,0.57666016,-0.41357422,4.4555664,-2.6245117,-4.3945312,0.0,0.0,0.0,130.85815,42.731323,-137.02698
1766901048658,-0.70751953,0.59765625,-0.42919922,-4.5776367,-6.591797,-6.7749023,0.0,0.0,0.0,130.85815,42.731323,-137.02698
1766901048670,-0.70751953,0.59765625,-0.42919922,-4.5776367,-6.591797,-6.7749023,0.0,0.0,0.0,130.46814,43.692627,-137.07092
1766901048758,-0.76171875,0.58935547,-0.42138672,-11.169434,3.3569336,-17.944336,0.0,0.0,0.0,130.46814,43.692627,-137.07092
1766901048770,-0.76171875,0.58935547,-0.42138672,-11.169434,3.3569336,-17.944336,0.0,0.0,0.0,130.28687,44.84619,-135.7251
1766901048858,-0.8359375,0.5854492,-0.44580078,-22.277832,-15.136719,-14.282227,0.0,0.0,0.0,130.28687,44.84619,-135.7251
1766901048869,-0.8359375,0.5854492,-0.44580078,-22.277832,-15.136719,-14.282227,0.0,0.0,0.0,129.15527,46.554565,-134.74731
1766901048958,-0.8149414,0.4116211,-0.4482422,4.272461,-37.841797,14.282227,0.0,0.0,0.0,129.15527,46.554565,-134.74731
1766901048969,-0.8149414,0.4116211,-0.4482422,4.272461,-37.841797,14.282227,0.0,0.0,0.0,124.7113,48.153076,-140.09216
1766901049058,-0.5698242,0.5332031,-0.3935547,0.61035156,-22.644043,11.169434,0.0,0.0,0.0,124.7113,48.153076,-140.09216
1766901049069,-0.5698242,0.5332031,-0.3935547,0.61035156,-22.644043,11.169434,0.0,0.0,0.0,122.20093,48.40576,-144.43726
1766901049157,-0.61035156,0.53466797,-0.4428711,7.507324,-6.652832,8.239746,0.0,0.0,0.0,122.20093,48.40576,-144.43726
1766901049169,-0.61035156,0.53466797,-0.4428711,7.507324,-6.652832,8.239746,0.0,0.0,0.0,120.92102,48.19702,-147.46399
1766901049257,-0.76220703,0.65625,-0.46777344,6.225586,27.70996,-9.82666,0.0,0.0,0.0,120.92102,48.19702,-147.46399
1766901049268,-0.76220703,0.65625,-0.46777344,6.225586,27.70996,-9.82666,0.0,0.0,0.0,122.93701,47.340088,-146.1676
1766901049356,-0.8203125,0.47509766,-0.33935547,10.070801,0.24414062,-11.230469,0.0,0.0,0.0,122.93701,47.340088,-146.1676
1766901049368,-0.8203125,0.47509766,-0.33935547,10.070801,0.24414062,-11.230469,0.0,0.0,0.0,128.06763,47.3291,-141.02051
1766901049456,-0.7158203,0.59033203,-0.35888672,20.751953,-1.159668,12.573242,0.0,0.0,0.0,128.06763,47.3291,-141.02051
1766901049468,-0.7158203,0.59033203,-0.35888672,20.751953,-1.159668,12.573242,0.0,0.0,0.0,127.10632,46.96106,-143.73962
1766901049556,-0.7236328,0.6352539,-0.34472656,16.296387,-17.944336,23.925781,0.0,0.0,0.0,127.10632,46.96106,-143.73962
1766901049567,-0.7236328,0.6352539,-0.34472656,16.296387,-17.944336,23.925781,0.0,0.0,0.0,127.02942,46.137085,-146.15662
1766901049656,-0.70166016,0.6582031,-0.35205078,0.79345703,-11.901855,13.85498,0.0,0.0,0.0,127.02942,46.137085,-146.15662
1766901049667,-0.70166016,0.6582031,-0.35205078,0.79345703,-11.901855,13.85498,0.0,0.0,0.0,125.233154,45.510864,-149.13391
1766901049755,-0.74609375,0.67871094,-0.44433594,-29.052734,-24.047852,11.901855,0.0,0.0,0.0,125.233154,45.510864,-149.13391
1766901049767,-0.74609375,0.67871094,-0.44433594,-29.052734,-24.047852,11.901855,0.0,0.0,0.0,121.43738,45.422974,-152.10022
1766901049855,-0.62841797,0.5625,-0.3779297,-20.751953,14.953613,-10.192871,0.0,0.0,0.0,121.43738,45.422974,-152.10022
1766901049867,-0.62841797,0.5625,-0.3779297,-20.751953,14.953613,-10.192871,0.0,0.0,0.0,118.10852,45.37903,-153.22083
1766901049955,-0.78027344,0.49560547,-0.3774414,-2.9296875,-1.5869141,-9.82666,0.0,0.0,0.0,118.10852,45.37903,-153.22083
1766901049967,-0.78027344,0.49560547,-0.3774414,-2.9296875,-1.5869141,-9.82666,0.0,0.0,0.0,119.91028,46.362305,-150.3424
1766901050055,-0.69677734,0.5644531,-0.35009766,-4.760742,9.82666,-13.48877,0.0,0.0,0.0,119.91028,46.362305,-150.3424
1766901050066,-0.69677734,0.5644531,-0.35009766,-4.760742,9.82666,-13.48877,0.0,0.0,0.0,119.42139,46.862183,-150.63904
1766901050154,-0.78759766,0.53125,-0.3540039,1.7700195,-1.7089844,-0.79345703,0.0,0.0,0.0,119.42139,46.862183,-150.63904
1766901050166,-0.78759766,0.53125,-0.3540039,1.7700195,-1.7089844,-0.79345703,0.0,0.0,0.0,121.15173,47.526855,-148.52417
1766901050254,-0.66503906,0.4501953,-0.37548828,18.920898,12.145996,6.286621,0.0,0.0,0.0,121.15173,47.526855,-148.52417
1766901050266,-0.66503906,0.4501953,-0.37548828,18.920898,12.145996,6.286621,0.0,0.0,0.0,122.68982,47.021484,-148.24951
1766901050354,-0.77246094,0.6928711,-0.42871094,19.16504,28.442383,-6.5307617,0.0,0.0,0.0,122.68982,47.021484,-148.24951
1766901050365,-0.77246094,0.6928711,-0.42871094,19.16504,28.442383,-6.5307617,0.0,0.0,0.0,126.831665,46.02722,-145.78308
1766901050453,-0.72509766,0.54003906,-0.33984375,-1.4648438,12.084961,-6.164551,0.0,0.0,0.0,126.831665,46.02722,-145.78308
1766901050465,-0.72509766,0.54003906,-0.33984375,-1.4648438,12.084961,-6.164551,0.0,0.0,0.0,128.67188,45.219727,-143.48145
1766901050553,-0.7651367,0.54541016,-0.37109375,-1.4648438,19.65332,-17.089844,0.0,0.0,0.0,128.67188,45.219727,-143.48145
1766901050565,-0.7651367,0.54541016,-0.37109375,-1.4648438,19.65332,-17.089844,0.0,0.0,0.0,130.35278,45.31311,-140.42175
1766901050653,-0.78222656,0.5776367,-0.4086914,-7.6904297,8.483887,-11.84082,0.0,0.0,0.0,130.35278,45.31311,-140.42175
1766901050665,-0.78222656,0.5776367,-0.4086914,-7.6904297,8.483887,-11.84082,0.0,0.0,0.0,131.40747,45.758057,-137.66418
1766901050753,-0.74072266,0.5761719,-0.36523438,-19.714355,2.8076172,-4.5776367,0.0,0.0,0.0,131.40747,45.758057,-137.66418
1766901050764,-0.74072266,0.5761719,-0.36523438,-19.714355,2.8076172,-4.5776367,0.0,0.0,0.0,130.44067,46.10962,-136.48865
1766901050852,-0.8520508,0.54589844,-0.47802734,-24.414062,-13.305664,-2.0141602,0.0,0.0,0.0,130.44067,46.10962,-136.48865
1766901050864,-0.8520508,0.54589844,-0.47802734,-24.414062,-13.305664,-2.0141602,0.0,0.0,0.0,128.07861,46.658936,-136.10413
1766901050952,-0.73876953,0.51123047,-0.4345703,1.2207031,-2.6855469,7.6904297,0.0,0.0,0.0,128.07861,46.658936,-136.10413
1766901050963,-0.73876953,0.51123047,-0.4345703,1.2207031,-2.6855469,7.6904297,0.0,0.0,0.0,126.260376,46.42273,-137.9773
1766901051052,-0.6513672,0.5185547,-0.4296875,-5.9814453,-10.131836,1.2207031,0.0,0.0,0.0,126.260376,46.42273,-137.9773
1766901051063,-0.6513672,0.5185547,-0.4296875,-5.9814453,-10.131836,1.2207031,0.0,0.0,0.0,125.98572,46.6864,-138.3728
1766901051152,-0.6376953,0.5083008,-0.44726562,-2.4414062,3.2348633,1.4038086,0.0,0.0,0.0,125.98572,46.6864,-138.3728
1766901051163,-0.6376953,0.5083008,-0.44726562,-2.4414062,3.2348633,1.4038086,0.0,0.0,0.0,124.920044,46.571045,-139.43298
1766901051251,-0.66552734,0.52441406,-0.5258789,3.8452148,9.033203,-3.1738281,0.0,0.0,0.0,124.920044,46.571045,-139.43298
1766901051263,-0.66552734,0.52441406,-0.5258789,3.8452148,9.033203,-3.1738281,0.0,0.0,0.0,126.37573,46.175537,-137.96082
1766901051351,-0.7548828,0.49023438,-0.46972656,24.963379,19.714355,-10.009766,0.0,0.0,0.0,126.37573,46.175537,-137.96082
1766901051362,-0.7548828,0.49023438,-0.46972656,24.963379,19.714355,-10.009766,0.0,0.0,0.0,129.46838,45.582275,-135.99426
1766901051451,-0.7055664,0.6230469,-0.4111328,16.113281,1.159668,1.159668,0.0,0.0,0.0,129.46838,45.582275,-135.99426
1766901051462,-0.7055664,0.6230469,-0.4111328,16.113281,1.159668,1.159668,0.0,0.0,0.0,132.87415,45.307617,-134.53308
1766901051550,-0.7270508,0.5463867,-0.4375,11.84082,-0.9765625,7.019043,0.0,0.0,0.0,132.87415,45.307617,-134.53308
1766901051562,-0.7270508,0.5463867,-0.4375,11.84082,-0.9765625,7.019043,0.0,0.0,0.0,133.09387,44.98352,-135.59326
1766901051650,-0.7451172,0.58935547,-0.42236328,6.652832,-4.1503906,8.483887,0.0,0.0,0.0,133.09387,44.98352,-135.59326
1766901051662,-0.7451172,0.58935547,-0.42236328,6.652832,-4.1503906,8.483887,0.0,0.0,0.0,133.43445,44.544067,-136.1206
1766901051750,-0.7055664,0.61279297,-0.43896484,-4.760742,-22.521973,19.16504,0.0,0.0,0.0,133.43445,44.544067,-136.1206
1766901051761,-0.7055664,0.61279297,-0.43896484,-4.760742,-22.521973,19.16504,0.0,0.0,0.0,131.17126,44.489136,-139.11438
1766901051850,-0.7265625,0.6425781,-0.54589844,-15.380859,-18.615723,10.986328,0.0,0.0,0.0,131.17126,44.489136,-139.11438
1766901051861,-0.7265625,0.6425781,-0.54589844,-15.380859,-18.615723,10.986328,0.0,0.0,0.0,126.89209,44.62097,-143.21777
1766901051949,-0.671875,0.5625,-0.40771484,-5.3710938,10.070801,-6.4697266,0.0,0.0,0.0,126.89209,44.62097,-143.21777
1766901051961,-0.671875,0.5625,-0.40771484,-5.3710938,10.070801,-6.4697266,0.0,0.0,0.0,125.28259,44.659424,-144.16809
1766901052049,-0.63134766,0.5444336,-0.43701172,-14.404297,-22.644043,13.000488,0.0,0.0,0.0,125.28259,44.659424,-144.16809
1766901052061,-0.63134766,0.5444336,-0.43701172,-14.404297,-22.644043,13.000488,0.0,0.0,0.0,123.9917,44.53308,-145.13489
1766901052149,-0.6972656,0.46923828,-0.44921875,5.2490234,9.155273,0.7324219,0.0,0.0,0.0,123.9917,44.53308,-145.13489
1766901052161,-0.6972656,0.46923828,-0.44921875,5.2490234,9.155273,0.7324219,0.0,0.0,0.0,122.145996,44.351807,-146.90369
1766901052248,-0.70751953,0.5761719,-0.4423828,15.258789,-0.7324219,11.779785,0.0,0.0,0.0,122.145996,44.351807,-146.90369
1766901052260,-0.70751953,0.5761719,-0.4423828,15.258789,-0.7324219,11.779785,0.0,0.0,0.0,124.365234,43.604736,-146.3269
1766901052348,-0.6411133,0.66748047,-0.41015625,10.864258,10.925293,4.8828125,0.0,0.0,0.0,124.365234,43.604736,-146.3269
1766901052360,-0.6411133,0.66748047,-0.41015625,10.864258,10.925293,4.8828125,0.0,0.0,0.0,125.17822,42.802734,-147.02454
1766901052448,-0.7260742,0.5625,-0.36816406,5.004883,14.282227,-7.446289,0.0,0.0,0.0,125.17822,42.802734,-147.02454
1766901052459,-0.7260742,0.5625,-0.36816406,5.004883,14.282227,-7.446289,0.0,0.0,0.0,127.72705,41.87439,-144.57458
1766901052548,-0.67578125,0.63623047,-0.38427734,-7.9345703,16.540527,-12.573242,0.0,0.0,0.0,127.72705,41.87439,-144.57458
1766901052559,-0.67578125,0.63623047,-0.38427734,-7.9345703,16.540527,-12.573242,0.0,0.0,0.0,128.60046,42.017212,-142.81677
1766901052647,-0.76123047,0.62890625,-0.39208984,-14.465332,12.207031,-8.178711,0.0,0.0,0.0,128.60046,42.017212,-142.81677
1766901052659,-0.76123047,0.62890625,-0.39208984,-14.465332,12.207031,-8.178711,0.0,0.0,0.0,129.2926,41.87439,-139.61975
1766901052747,-0.7397461,0.62597656,-0.36083984,-23.986816,-0.48828125,-4.4555664,0.0,0.0,0.0,129.2926,41.87439,-139.61975
1766901052759,-0.7397461,0.62597656,-0.36083984,-23.986816,-0.48828125,-4.4555664,0.0,0.0,0.0,127.65015,42.110596,-138.8617
1766901052847,-0.75341797,0.5449219,-0.49658203,-3.9672852,-17.63916,11.535645,0.0,0.0,0.0,127.65015,42.110596,-138.8617
1766901052859,-0.75341797,0.5449219,-0.49658203,-3.9672852,-17.63916,11.535645,0.0,0.0,0.0,124.590454,43.027954,-139.9768
1766901052946,-0.703125,0.5683594,-0.41992188,-0.061035156,-0.9765625,-13.916016,0.0,0.0,0.0,124.590454,43.027954,-139.9768
1766901052958,-0.703125,0.5683594,-0.41992188,-0.061035156,-0.9765625,-13.916016,0.0,0.0,0.0,123.67859,43.73108,-141.39954
1766901053046,-0.57128906,0.5229492,-0.42626953,0.6713867,-13.793945,0.061035156,0.0,0.0,0.0,123.67859,43.73108,-141.39954
1766901053058,-0.57128906,0.5229492,-0.42626953,0.6713867,-13.793945,0.061035156,0.0,0.0,0.0,123.73352,44.818726,-141.79504
1766901053146,-0.5859375,0.5444336,-0.4663086,6.8359375,-0.61035156,-2.9907227,0.0,0.0,0.0,123.73352,44.818726,-141.79504
1766901053158,-0.5859375,0.5444336,-0.4663086,6.8359375,-0.61035156,-2.9907227,0.0,0.0,0.0,123.50281,44.98352,-143.04199
1766901053246,-0.7709961,0.59716797,-0.51416016,20.507812,18.371582,-5.859375,0.0,0.0,0.0,123.50281,44.98352,-143.04199
1766901053257,-0.7709961,0.59716797,-0.51416016,20.507812,18.371582,-5.859375,0.0,0.0,0.0,126.57349,44.593506,-141.17432
1766901053345,-0.6855469,0.6088867,-0.38916016,15.930176,-14.282227,13.366699,0.0,0.0,0.0,126.57349,44.593506,-141.17432
1766901053357,-0.6855469,0.6088867,-0.38916016,15.930176,-14.282227,13.366699,0.0,0.0,0.0,128.93555,44.01123,-140.89417
1766901053445,-0.6352539,0.5917969,-0.40527344,18.066406,0.0,12.6953125,0.0,0.0,0.0,128.93555,44.01123,-140.89417
1766901053457,-0.6352539,0.5917969,-0.40527344,18.066406,0.0,12.6953125,0.0,0.0,0.0,128.60046,43.43445,-143.23425
1766901053545,-0.71875,0.6538086,-0.41992188,20.263672,-0.36621094,10.7421875,0.0,0.0,0.0,128.60046,43.43445,-143.23425
1766901053557,-0.71875,0.6538086,-0.41992188,20.263672,-0.36621094,10.7421875,0.0,0.0,0.0,130.11658,42.319336,-143.78357
1766901053645,-0.6542969,0.6557617,-0.37304688,7.507324,-8.605957,11.169434,0.0,0.0,0.0,130.11658,42.319336,-143.78357
1766901053657,-0.6542969,0.6557617,-0.37304688,7.507324,-8.605957,11.169434,0.0,0.0,0.0,129.50134,41.934814,-145.75012
1766901053744,-0.68310547,0.65527344,-0.43945312,2.6855469,-17.089844,9.58252,0.0,0.0,0.0,129.50134,41.934814,-145.75012
1766901053756,-0.68310547,0.65527344,-0.43945312,2.6855469,-17.089844,9.58252,0.0,0.0,0.0,128.47961,41.97876,-147.3706
1766901053844,-0.6347656,0.69433594,-0.52783203,-9.94873,-16.540527,12.268066,0.0,0.0,0.0,128.47961,41.97876,-147.3706
1766901053856,-0.6347656,0.69433594,-0.52783203,-9.94873,-16.540527,12.268066,0.0,0.0,0.0,125.2771,42.06665,-150.81482
1766901053944,-0.6567383,0.52685547,-0.42822266,0.7324219,23.620605,-12.145996,0.0,0.0,0.0,125.2771,42.06665,-150.81482
1766901053955,-0.6567383,0.52685547,-0.42822266,0.7324219,23.620605,-12.145996,0.0,0.0,0.0,125.32654,41.868896,-149.79309
1766901054043,-0.6269531,0.6020508,-0.4584961,-10.009766,-16.296387,8.483887,0.0,0.0,0.0,125.32654,41.868896,-149.79309
1766901054055,-0.6269531,0.6020508,-0.4584961,-10.009766,-16.296387,8.483887,0.0,0.0,0.0,125.57922,41.973267,-149.45251
1766901054143,-0.6767578,0.5488281,-0.46044922,-4.1503906,17.51709,-10.559082,0.0,0.0,0.0,125.57922,41.973267,-149.45251
1766901054155,-0.6767578,0.5488281,-0.46044922,-4.1503906,17.51709,-10.559082,0.0,0.0,0.0,124.903564,42.061157,-149.12842
1766901054243,-0.64941406,0.51220703,-0.43701172,6.4086914,-5.1879883,3.8452148,0.0,0.0,0.0,124.903564,42.061157,-149.12842
1766901054254,-0.64941406,0.51220703,-0.43701172,6.4086914,-5.1879883,3.8452148,0.0,0.0,0.0,126.46912,42.061157,-147.62878
1766901054343,-0.66845703,0.546875,-0.50439453,13.549805,-3.3569336,15.075684,0.0,0.0,0.0,126.46912,42.061157,-147.62878
1766901054354,-0.66845703,0.546875,-0.50439453,13.549805,-3.3569336,15.075684,0.0,0.0,0.0,126.77124,41.44043,-149.29321
1766901054442,-0.65771484,0.66845703,-0.44726562,15.50293,29.663086,-8.666992,0.0,0.0,0.0,126.77124,41.44043,-149.29321
1766901054454,-0.65771484,0.66845703,-0.44726562,15.50293,29.663086,-8.666992,0.0,0.0,0.0,129.51782,40.48462,-147.64526
1766901054542,-0.7080078,0.56152344,-0.43017578,1.953125,-3.3569336,-9.765625,0.0,0.0,0.0,129.51782,40.48462,-147.64526
1766901054554,-0.7080078,0.56152344,-0.43017578,1.953125,-3.3569336,-9.765625,0.0,0.0,0.0,131.64917,40.534058,-145.26123
1766901054642,-0.671875,0.65771484,-0.4243164,-17.944336,17.944336,-18.371582,0.0,0.0,0.0,131.64917,40.534058,-145.26123
1766901054653,-0.671875,0.65771484,-0.4243164,-17.944336,17.944336,-18.371582,0.0,0.0,0.0,131.2976,41.27014,-143.82751
1766901054742,-0.7558594,0.59277344,-0.41748047,-24.291992,4.4555664,-13.916016,0.0,0.0,0.0,131.2976,41.27014,-143.82751
1766901054753,-0.7558594,0.59277344,-0.41748047,-24.291992,4.4555664,-13.916016,0.0,0.0,0.0,131.13281,41.748047,-140.25696
1766901054841,-0.7470703,0.59228516,-0.39990234,-24.841309,-0.12207031,-10.681152,0.0,0.0,0.0,131.13281,41.748047,-140.25696
1766901054854,-0.7470703,0.59228516,-0.39990234,-24.841309,-0.12207031,-10.681152,0.0,0.0,0.0,128.90259,42.75879,-139.44397
1766901054941,-0.7402344,0.5209961,-0.4765625,-6.286621,-18.798828,11.169434,0.0,0.0,0.0,128.90259,42.75879,-139.44397
1766901054952,-0.7402344,0.5209961,-0.4765625,-6.286621,-18.798828,11.169434,0.0,0.0,0.0,126.02966,43.80249,-140.32288
1766901055041,-0.6621094,0.5722656,-0.4189453,2.8076172,0.9765625,-5.3100586,0.0,0.0,0.0,126.02966,43.80249,-140.32288
1766901055052,-0.6621094,0.5722656,-0.4189453,2.8076172,0.9765625,-5.3100586,0.0,0.0,0.0,125.079346,44.005737,-142.19055
1766901055140,-0.63623047,0.54052734,-0.46923828,-2.5024414,-17.63916,10.681152,0.0,0.0,0.0,125.079346,44.005737,-142.19055
1766901055153,-0.63623047,0.54052734,-0.46923828,-2.5024414,-17.63916,10.681152,0.0,0.0,0.0,124.53552,44.34082,-143.25623
1766901055240,-0.58496094,0.57421875,-0.45263672,3.6010742,-0.48828125,1.4038086,0.0,0.0,0.0,124.53552,44.34082,-143.25623
1766901055252,-0.58496094,0.57421875,-0.45263672,3.6010742,-0.48828125,1.4038086,0.0,0.0,0.0,123.59619,44.20349,-145.38757
1766901055340,-0.6928711,0.58691406,-0.49902344,6.713867,13.85498,-6.958008,0.0,0.0,0.0,123.59619,44.20349,-145.38757
1766901055352,-0.6928711,0.58691406,-0.49902344,6.713867,13.85498,-6.958008,0.0,0.0,0.0,125.08484,43.945312,-144.25598
1766901055440,-0.73876953,0.5546875,-0.4091797,22.399902,12.023926,-11.352539,0.0,0.0,0.0,125.08484,43.945312,-144.25598
1766901055451,-0.73876953,0.5546875,-0.4091797,22.399902,12.023926,-11.352539,0.0,0.0,0.0,128.86414,43.709106,-141.62476
1766901055539,-0.6508789,0.6245117,-0.38964844,13.85498,-8.117676,3.2348633,0.0,0.0,0.0,128.86414,43.709106,-141.62476
1766901055551,-0.6508789,0.6245117,-0.38964844,13.85498,-8.117676,3.2348633,0.0,0.0,0.0,129.95728,44.296875,-142.0697
1766901055639,-0.70947266,0.6044922,-0.4033203,12.634277,3.540039,1.953125,0.0,0.0,0.0,129.95728,44.296875,-142.0697
1766901055650,-0.70947266,0.6044922,-0.4033203,12.634277,3.540039,1.953125,0.0,0.0,0.0,131.0669,44.000244,-142.1576
1766901055739,-0.7163086,0.5932617,-0.42773438,0.24414062,-4.0893555,6.225586,0.0,0.0,0.0,131.0669,44.000244,-142.1576
1766901055750,-0.7163086,0.5932617,-0.42773438,0.24414062,-4.0893555,6.225586,0.0,0.0,0.0,130.88013,43.7146,-142.81128
1766901055838,-0.75,0.6020508,-0.42871094,-1.2207031,-13.305664,11.230469,0.0,0.0,0.0,130.88013,43.7146,-142.81128
1766901055850,-0.75,0.6020508,-0.42871094,-1.2207031,-13.305664,11.230469,0.0,0.0,0.0,129.51782,43.676147,-144.21753
1766901055938,-0.69677734,0.6689453,-0.4819336,-9.94873,-22.888184,21.240234,0.0,0.0,0.0,129.51782,43.676147,-144.21753
1766901055950,-0.69677734,0.6689453,-0.4819336,-9.94873,-22.888184,21.240234,0.0,0.0,0.0,126.00769,43.571777,-148.22205
1766901056038,-0.63427734,0.5751953,-0.39453125,-2.8076172,13.244629,-4.760742,0.0,0.0,0.0,126.00769,43.571777,-148.22205
1766901056050,-0.63427734,0.5751953,-0.39453125,-2.8076172,13.244629,-4.760742,0.0,0.0,0.0,124.04663,43.187256,-149.80408
1766901056137,-0.68066406,0.58984375,-0.42333984,-9.338379,-19.40918,9.033203,0.0,0.0,0.0,124.04663,43.187256,-149.80408
1766901056149,-0.68066406,0.58984375,-0.42333984,-9.338379,-19.40918,9.033203,0.0,0.0,0.0,124.090576,43.082886,-149.37561
1766901056237,-0.6425781,0.56347656,-0.4375,-12.6953125,7.446289,-6.591797,0.0,0.0,0.0,124.090576,43.082886,-149.37561
1766901056249,-0.6425781,0.56347656,-0.4375,-12.6953125,7.446289,-6.591797,0.0,0.0,0.0,122.003174,43.395996,-150.76538
1766901056337,-0.71191406,0.58251953,-0.41796875,-5.6152344,1.6479492,-5.004883,0.0,0.0,0.0,122.003174,43.395996,-150.76538
1766901056348,-0.71191406,0.58251953,-0.41796875,-5.6152344,1.6479492,-5.004883,0.0,0.0,0.0,122.612915,43.566284,-149.11194
1766901056437,-0.6621094,0.49414062,-0.39648438,9.399414,-1.159668,2.9296875,0.0,0.0,0.0,122.612915,43.566284,-149.11194
1766901056448,-0.6621094,0.49414062,-0.39648438,9.399414,-1.159668,2.9296875,0.0,0.0,0.0,122.66785,43.76953,-149.35364
1766901056536,-0.71191406,0.64990234,-0.4482422,20.141602,10.620117,-3.0517578,0.0,0.0,0.0,122.66785,43.76953,-149.35364
1766901056548,-0.71191406,0.64990234,-0.4482422,20.141602,10.620117,-3.0517578,0.0,0.0,0.0,124.887085,43.500366,-149.04053
1766901056636,-0.6352539,0.63183594,-0.36621094,5.859375,21.78955,-3.90625,0.0,0.0,0.0,124.887085,43.500366,-149.04053
1766901056648,-0.6352539,0.63183594,-0.36621094,5.859375,21.78955,-3.90625,0.0,0.0,0.0,127.732544,42.8302,-146.92566
1766901056736,-0.7211914,0.6171875,-0.4013672,-6.652832,24.963379,-16.662598,0.0,0.0,0.0,127.732544,42.8302,-146.92566
1766901056748,-0.7211914,0.6171875,-0.4013672,-6.652832,24.963379,-16.662598,0.0,0.0,0.0,129.65515,42.264404,-143.58582
1766901056836,-0.7739258,0.6113281,-0.4033203,-17.27295,8.7890625,-12.573242,0.0,0.0,0.0,129.65515,42.264404,-143.58582
1766901056847,-0.7739258,0.6113281,-0.4033203,-17.27295,8.7890625,-12.573242,0.0,0.0,0.0,130.51208,42.280884,-139.9823
1766901056935,-0.6982422,0.5878906,-0.35839844,-18.310547,0.5493164,-8.056641,0.0,0.0,0.0,130.51208,42.280884,-139.9823
1766901056947,-0.6982422,0.5878906,-0.35839844,-18.310547,0.5493164,-8.056641,0.0,0.0,0.0,129.2157,42.978516,-138.83972
1766901057035,-0.8510742,0.55371094,-0.5058594,-20.385742,-30.212402,1.5258789,0.0,0.0,0.0,129.2157,42.978516,-138.83972
1766901057047,-0.8510742,0.55371094,-0.5058594,-20.385742,-30.212402,1.5258789,0.0,0.0,0.0,126.45264,44.176025,-138.88916
1766901057135,-0.6748047,0.56396484,-0.4194336,4.4555664,-13.916016,3.6010742,0.0,0.0,0.0,126.45264,44.176025,-138.88916
1766901057146,-0.6748047,0.56396484,-0.4194336,4.4555664,-13.916016,3.6010742,0.0,0.0,0.0,124.28833,44.961548,-142.64099
1766901057234,-0.64453125,0.50439453,-0.42089844,0.30517578,-13.85498,5.3710938,0.0,0.0,0.0,124.28833,44.961548,-142.64099
1766901057246,-0.64453125,0.50439453,-0.42089844,0.30517578,-13.85498,5.3710938,0.0,0.0,0.0,124.12903,45.46692,-143.31665
1766901057334,-0.6220703,0.5786133,-0.4609375,7.2021484,-7.873535,6.591797,0.0,0.0,0.0,124.12903,45.46692,-143.31665
1766901057346,-0.6220703,0.5786133,-0.4609375,7.2021484,-7.873535,6.591797,0.0,0.0,0.0,122.975464,45.401,-145.86548
1766901057434,-0.6279297,0.5966797,-0.4506836,7.019043,12.817383,-7.5683594,0.0,0.0,0.0,122.975464,45.401,-145.86548
1766901057445,-0.6279297,0.5966797,-0.4506836,7.019043,12.817383,-7.5683594,0.0,0.0,0.0,124.38721,45.08789,-145.33813
1766901057534,-0.7167969,0.5756836,-0.4580078,11.535645,12.512207,-4.8217773,0.0,0.0,0.0,124.38721,45.08789,-145.33813
1766901057545,-0.7167969,0.5756836,-0.4580078,11.535645,12.512207,-4.8217773,0.0,0.0,0.0,126.84265,44.577026,-143.26172
1766901057633,-0.7026367,0.6010742,-0.40234375,18.920898,14.038086,-13.48877,0.0,0.0,0.0,126.84265,44.577026,-143.26172
1766901057645,-0.7026367,0.6010742,-0.40234375,18.920898,14.038086,-13.48877,0.0,0.0,0.0,130.34729,44.423218,-140.75684
1766901057733,-0.6972656,0.5864258,-0.42089844,12.268066,7.385254,-1.2817383,0.0,0.0,0.0,130.34729,44.423218,-140.75684
1766901057745,-0.6972656,0.5864258,-0.42089844,12.268066,7.385254,-1.2817383,0.0,0.0,0.0,132.28638,44.26941,-139.46594
1766901057833,-0.74609375,0.57714844,-0.4091797,14.282227,2.6245117,2.1972656,0.0,0.0,0.0,132.28638,44.26941,-139.46594
1766901057844,-0.74609375,0.57714844,-0.4091797,14.282227,2.6245117,2.1972656,0.0,0.0,0.0,133.68164,43.824463,-138.83972
1766901057932,-0.72216797,0.61621094,-0.42626953,0.30517578,-11.108398,13.793945,0.0,0.0,0.0,133.68164,43.824463,-138.83972
1766901057944,-0.72216797,0.61621094,-0.42626953,0.30517578,-11.108398,13.793945,0.0,0.0,0.0,132.70386,43.64319,-140.51514
1766901058032,-0.77734375,0.6479492,-0.49414062,-19.836426,-20.812988,15.686035,0.0,0.0,0.0,132.70386,43.64319,-140.51514
1766901058044,-0.77734375,0.6479492,-0.49414062,-19.836426,-20.812988,15.686035,0.0,0.0,0.0,129.06189,43.555298,-143.69019
1766901058132,-0.69091797,0.58496094,-0.51708984,-21.911621,-15.686035,1.159668,0.0,0.0,0.0,129.06189,43.555298,-143.69019
1766901058144,-0.69091797,0.58496094,-0.51708984,-21.911621,-15.686035,1.159668,0.0,0.0,0.0,124.51355,44.033203,-147.20032
1766901058232,-0.68896484,0.54248047,-0.38623047,-8.728027,7.2021484,-2.5024414,0.0,0.0,0.0,124.51355,44.033203,-147.20032
1766901058243,-0.68896484,0.54248047,-0.38623047,-8.728027,7.2021484,-2.5024414,0.0,0.0,0.0,124.37073,43.86841,-146.2445
1766901058331,-0.6767578,0.52734375,-0.43359375,-18.676758,-29.60205,13.671875,0.0,0.0,0.0,124.37073,43.86841,-146.2445
1766901058343,-0.6767578,0.52734375,-0.43359375,-18.676758,-29.60205,13.671875,0.0,0.0,0.0,120.64636,44.07715,-149.99084
1766901058431,-0.6591797,0.5800781,-0.43652344,-0.6713867,-9.643555,15.808105,0.0,0.0,0.0,120.64636,44.07715,-149.99084
1766901058443,-0.6591797,0.5800781,-0.43652344,-0.6713867,-9.643555,15.808105,0.0,0.0,0.0,118.152466,43.566284,-153.4845
1766901058531,-0.6665039,0.64453125,-0.3515625,18.249512,39.18457,-9.460449,0.0,0.0,0.0,118.152466,43.566284,-153.4845
1766901058542,-0.6665039,0.64453125,-0.3515625,18.249512,39.18457,-9.460449,0.0,0.0,0.0,121.9043,42.555542,-150.21057
1766901058631,-0.7294922,0.61328125,-0.3330078,0.48828125,2.5634766,-9.155273,0.0,0.0,0.0,121.9043,42.555542,-150.21057
1766901058642,-0.7294922,0.61328125,-0.3330078,0.48828125,2.5634766,-9.155273,0.0,0.0,0.0,124.74426,42.313843,-147.07397
1766901058730,-0.66064453,0.66308594,-0.35205078,-10.986328,9.521484,-11.59668,0.0,0.0,0.0,124.74426,42.313843,-147.07397
1766901058742,-0.66064453,0.66308594,-0.35205078,-10.986328,9.521484,-11.59668,0.0,0.0,0.0,124.244385,43.049927,-146.4093
1766901058830,-0.7792969,0.6333008,-0.3461914,-7.080078,36.743164,-25.45166,0.0,0.0,0.0,124.244385,43.049927,-146.4093
1766901058841,-0.7792969,0.6333008,-0.3461914,-7.080078,36.743164,-25.45166,0.0,0.0,0.0,126.75476,42.93457,-141.0315
1766901058930,-0.71240234,0.5830078,-0.32861328,-24.719238,-6.4086914,-4.760742,0.0,0.0,0.0,126.75476,42.93457,-141.0315
1766901058941,-0.71240234,0.5830078,-0.32861328,-24.719238,-6.4086914,-4.760742,0.0,0.0,0.0,125.97473,43.511353,-138.94409
1766901059029,-0.74853516,0.56152344,-0.4086914,-17.211914,6.652832,-1.0375977,0.0,0.0,0.0,125.97473,43.511353,-138.94409
1766901059041,-0.74853516,0.56152344,-0.4086914,-17.211914,6.652832,-1.0375977,0.0,0.0,0.0,123.88733,44.126587,-138.07617
1766901059129,-0.7294922,0.55078125,-0.44677734,-3.479004,9.216309,-2.380371,0.0,0.0,0.0,123.88733,44.126587,-138.07617
1766901059141,-0.7294922,0.55078125,-0.44677734,-3.479004,9.216309,-2.380371,0.0,0.0,0.0,123.66211,43.86841,-136.98303
1766901059229,-0.64746094,0.5209961,-0.40625,-3.7231445,19.714355,-20.507812,0.0,0.0,0.0,123.66211,43.86841,-136.98303
1766901059240,-0.64746094,0.5209961,-0.40625,-3.7231445,19.714355,-20.507812,0.0,0.0,0.0,126.051636,44.21997,-133.25867
1766901059329,-0.69677734,0.5385742,-0.46289062,-1.3427734,-4.5776367,4.8217773,0.0,0.0,0.0,126.051636,44.21997,-133.25867
1766901059340,-0.69677734,0.5385742,-0.46289062,-1.3427734,-4.5776367,4.8217773,0.0,0.0,0.0,126.40869,44.230957,-132.47864
1766901059428,-0.6982422,0.5727539,-0.4790039,6.4086914,5.859375,-7.6904297,0.0,0.0,0.0,126.40869,44.230957,-132.47864
1766901059440,-0.6982422,0.5727539,-0.4790039,6.4086914,5.859375,-7.6904297,0.0,0.0,0.0,126.99097,44.29138,-132.39075
1766901059528,-0.63378906,0.5317383,-0.4716797,11.474609,-4.211426,-2.9907227,0.0,0.0,0.0,126.99097,44.29138,-132.39075
1766901059540,-0.63378906,0.5317383,-0.4716797,11.474609,-4.211426,-2.9907227,0.0,0.0,0.0,128.85864,44.571533,-131.47339
1766901059628,-0.73828125,0.5029297,-0.48535156,23.986816,3.3569336,-5.1879883,0.0,0.0,0.0,128.85864,44.571533,-131.47339
1766901059640,-0.73828125,0.5029297,-0.48535156,23.986816,3.3569336,-5.1879883,0.0,0.0,0.0,130.16602,44.7583,-131.69861
1766901059727,-0.68359375,0.56884766,-0.45117188,26.489258,-0.24414062,3.0517578,0.0,0.0,0.0,130.16602,44.7583,-131.69861
1766901059739,-0.68359375,0.56884766,-0.45117188,26.489258,-0.24414062,3.0517578,0.0,0.0,0.0,133.4784,44.785767,-131.09436
1766901059827,-0.72314453,0.5678711,-0.46826172,17.944336,-7.446289,14.465332,0.0,0.0,0.0,133.4784,44.785767,-131.09436
1766901059839,-0.72314453,0.5678711,-0.46826172,17.944336,-7.446289,14.465332,0.0,0.0,0.0,134.46167,44.32434,-132.47864
1766901059927,-0.71533203,0.57421875,-0.44433594,15.991211,-6.4086914,13.61084,0.0,0.0,0.0,134.46167,44.32434,-132.47864
1766901059938,-0.71533203,0.57421875,-0.44433594,15.991211,-6.4086914,13.61084,0.0,0.0,0.0,134.5221,43.775024,-134.51111
1766901060026,-0.7211914,0.5703125,-0.4555664,6.4697266,-21.362305,22.949219,0.0,0.0,0.0,134.5221,43.775024,-134.51111
1766901060055,-0.7211914,0.5703125,-0.4555664,6.4697266,-21.362305,22.949219,0.0,0.0,0.0,133.1543,43.450928,-137.66968
1766901060126,-0.79296875,0.6669922,-0.50634766,-3.7841797,-30.273438,23.620605,0.0,0.0,0.0,133.1543,43.450928,-137.66968
1766901060138,-0.79296875,0.6669922,-0.50634766,-3.7841797,-30.273438,23.620605,0.0,0.0,0.0,129.84192,43.29712,-142.58606
1766901060226,-0.58691406,0.6489258,-0.44433594,-16.662598,-33.02002,16.723633,0.0,0.0,0.0,129.84192,43.29712,-142.58606
1766901060237,-0.58691406,0.6489258,-0.44433594,-16.662598,-33.02002,16.723633,0.0,0.0,0.0,124.76074,43.703613,-148.11768
1766901060326,-0.65478516,0.5288086,-0.40478516,-5.1879883,9.460449,-10.803223,0.0,0.0,0.0,124.76074,43.703613,-148.11768
1766901060337,-0.65478516,0.5288086,-0.40478516,-5.1879883,9.460449,-10.803223,0.0,0.0,0.0,123.497314,43.884888,-148.72742
1766901060425,-0.6796875,0.5888672,-0.43701172,-21.606445,-12.145996,2.5024414,0.0,0.0,0.0,123.497314,43.884888,-148.72742
1766901060437,-0.6796875,0.5888672,-0.43701172,-21.606445,-12.145996,2.5024414,0.0,0.0,0.0,122.44812,44.055176,-148.7439
1766901060525,-0.6928711,0.5136719,-0.40771484,1.0375977,2.2583008,-1.8920898,0.0,0.0,0.0,122.44812,44.055176,-148.7439
1766901060537,-0.6928711,0.5136719,-0.40771484,1.0375977,2.2583008,-1.8920898,0.0,0.0,0.0,121.00342,44.23645,-149.57336
1766901060625,-0.6923828,0.5180664,-0.39648438,10.7421875,-2.1362305,5.6762695,0.0,0.0,0.0,121.00342,44.23645,-149.57336
1766901060636,-0.6923828,0.5180664,-0.39648438,10.7421875,-2.1362305,5.6762695,0.0,0.0,0.0,122.22839,44.088135,-149.44702
1766901060725,-0.68652344,0.6635742,-0.41845703,14.404297,10.559082,2.380371,0.0,0.0,0.0,122.22839,44.088135,-149.44702
1766901060736,-0.68652344,0.6635742,-0.41845703,14.404297,10.559082,2.380371,0.0,0.0,0.0,123.51929,43.654175,-149.73816
1766901060824,-0.7104492,0.6220703,-0.34326172,13.122559,19.65332,-2.746582,0.0,0.0,0.0,123.51929,43.654175,-149.73816
1766901060836,-0.7104492,0.6220703,-0.34326172,13.122559,19.65332,-2.746582,0.0,0.0,0.0,126.29883,42.736816,-147.71667
1766901060924,-0.7011719,0.63916016,-0.34960938,-2.319336,1.8310547,-4.638672,0.0,0.0,0.0,126.29883,42.736816,-147.71667
1766901060935,-0.7011719,0.63916016,-0.34960938,-2.319336,1.8310547,-4.638672,0.0,0.0,0.0,127.490845,42.478638,-146.3324
1766901061024,-0.72314453,0.6386719,-0.36523438,-14.282227,16.784668,-18.493652,0.0,0.0,0.0,127.490845,42.478638,-146.3324
1766901061035,-0.72314453,0.6386719,-0.36523438,-14.282227,16.784668,-18.493652,0.0,0.0,0.0,127.86438,42.90161,-144.01978
1766901061123,-0.7270508,0.6118164,-0.38378906,-21.66748,10.986328,-14.709473,0.0,0.0,0.0,127.86438,42.90161,-144.01978
1766901061135,-0.7270508,0.6118164,-0.38378906,-21.66748,10.986328,-14.709473,0.0,0.0,0.0,127.49634,43.45642,-141.25122
1766901061223,-0.8198242,0.6772461,-0.43896484,-40.039062,-1.4648438,-17.944336,0.0,0.0,0.0,127.49634,43.45642,-141.25122
1766901061234,-0.8198242,0.6772461,-0.43896484,-40.039062,-1.4648438,-17.944336,0.0,0.0,0.0,126.02417,44.335327,-138.9386
1766901061323,-0.76171875,0.4638672,-0.4404297,-9.643555,-6.7749023,-5.065918,0.0,0.0,0.0,126.02417,44.335327,-138.9386
1766901061334,-0.76171875,0.4638672,-0.4404297,-9.643555,-6.7749023,-5.065918,0.0,0.0,0.0,122.65137,45.565796,-139.83948
1766901061423,-0.703125,0.51123047,-0.37158203,-5.6152344,-15.258789,-5.432129,0.0,0.0,0.0,122.65137,45.565796,-139.83948
1766901061434,-0.703125,0.51123047,-0.37158203,-5.6152344,-15.258789,-5.432129,0.0,0.0,0.0,122.838135,46.713867,-139.25171
1766901061522,-0.63134766,0.50878906,-0.4326172,5.79834,-8.178711,5.6152344,0.0,0.0,0.0,122.838135,46.713867,-139.25171
1766901061534,-0.63134766,0.50878906,-0.4326172,5.79834,-8.178711,5.6152344,0.0,0.0,0.0,121.3385,47.422485,-141.41052
1766901061622,-0.64208984,0.53271484,-0.4428711,16.174316,15.74707,-4.1503906,0.0,0.0,0.0,121.3385,47.422485,-141.41052
1766901061633,-0.64208984,0.53271484,-0.4428711,16.174316,15.74707,-4.1503906,0.0,0.0,0.0,123.392944,46.955566,-140.65247
1766901061722,-0.79345703,0.5878906,-0.4633789,23.31543,10.925293,5.6152344,0.0,0.0,0.0,123.392944,46.955566,-140.65247
1766901061734,-0.79345703,0.5878906,-0.4633789,23.31543,10.925293,5.6152344,0.0,0.0,0.0,126.622925,45.950317,-139.30115
1766901061821,-0.66064453,0.5776367,-0.38671875,26.672363,-5.554199,9.460449,0.0,0.0,0.0,126.622925,45.950317,-139.30115
1766901061833,-0.66064453,0.5776367,-0.38671875,26.672363,-5.554199,9.460449,0.0,0.0,0.0,128.82568,45.219727,-139.89441
1766901061921,-0.6738281,0.62939453,-0.39794922,25.390625,5.3100586,7.751465,0.0,0.0,0.0,128.82568,45.219727,-139.89441
1766901061933,-0.6738281,0.62939453,-0.39794922,25.390625,5.3100586,7.751465,0.0,0.0,0.0,130.45166,44.368286,-140.7843
1766901062021,-0.7392578,0.63134766,-0.39794922,12.512207,-3.7841797,6.286621,0.0,0.0,0.0,130.45166,44.368286,-140.7843
1766901062033,-0.7392578,0.63134766,-0.39794922,12.512207,-3.7841797,6.286621,0.0,0.0,0.0,131.42944,43.709106,-141.35559
1766901062121,-0.69384766,0.60253906,-0.38183594,-3.1738281,-9.887695,9.70459,0.0,0.0,0.0,131.42944,43.709106,-141.35559
1766901062132,-0.69384766,0.60253906,-0.38183594,-3.1738281,-9.887695,9.70459,0.0,0.0,0.0,130.29236,43.62671,-142.76184
1766901062220,-0.78271484,0.65527344,-0.5078125,-23.31543,-21.911621,13.671875,0.0,0.0,0.0,130.29236,43.62671,-142.76184
1766901062232,-0.78271484,0.65527344,-0.5078125,-23.31543,-21.911621,13.671875,0.0,0.0,0.0,126.37573,43.73108,-145.71716
1766901062320,-0.69970703,0.54833984,-0.45751953,-17.63916,10.375977,-12.329102,0.0,0.0,0.0,126.37573,43.73108,-145.71716
1766901062331,-0.69970703,0.54833984,-0.45751953,-17.63916,10.375977,-12.329102,0.0,0.0,0.0,123.87634,43.75305,-146.29395
1766901062420,-0.69873047,0.5595703,-0.36914062,-5.6152344,-22.949219,13.85498,0.0,0.0,0.0,123.87634,43.75305,-146.29395
1766901062431,-0.69873047,0.5595703,-0.36914062,-5.6152344,-22.949219,13.85498,0.0,0.0,0.0,124.12903,43.90686,-145.6018
1766901062519,-0.59472656,0.5527344,-0.41015625,-8.178711,-5.3710938,2.4414062,0.0,0.0,0.0,124.12903,43.90686,-145.6018
1766901062531,-0.59472656,0.5527344,-0.41015625,-8.178711,-5.3710938,2.4414062,0.0,0.0,0.0,121.04736,44.104614,-148.63953
1766901062619,-0.7294922,0.5024414,-0.42871094,7.6293945,7.5683594,1.0986328,0.0,0.0,0.0,121.04736,44.104614,-148.63953
1766901062631,-0.7294922,0.5024414,-0.42871094,7.6293945,7.5683594,1.0986328,0.0,0.0,0.0,122.44812,43.588257,-147.31567
1766901062719,-0.7236328,0.6308594,-0.4580078,16.662598,-1.8310547,5.2490234,0.0,0.0,0.0,122.44812,43.588257,-147.31567
1766901062731,-0.7236328,0.6308594,-0.4580078,16.662598,-1.8310547,5.2490234,0.0,0.0,0.0,123.4259,43.225708,-148.33191
1766901062819,-0.6254883,0.65185547,-0.31933594,17.51709,17.63916,3.6621094,0.0,0.0,0.0,123.4259,43.225708,-148.33191
1766901062830,-0.6254883,0.65185547,-0.31933594,17.51709,17.63916,3.6621094,0.0,0.0,0.0,126.12854,42.253418,-147.32117
1766901062919,-0.68359375,0.6533203,-0.37939453,0.5493164,8.056641,-5.7373047,0.0,0.0,0.0,126.12854,42.253418,-147.32117
1766901062930,-0.68359375,0.6533203,-0.37939453,0.5493164,8.056641,-5.7373047,0.0,0.0,0.0,127.07886,41.92932,-146.59607
1766901063018,-0.7348633,0.6386719,-0.3696289,-19.470215,21.30127,-15.441895,0.0,0.0,0.0,127.07886,41.92932,-146.59607
1766901063030,-0.7348633,0.6386719,-0.3696289,-19.470215,21.30127,-15.441895,0.0,0.0,0.0,127.8479,41.759033,-143.17383
1766901063118,-0.70751953,0.67578125,-0.32128906,-22.338867,7.3242188,-3.540039,0.0,0.0,0.0,127.8479,41.759033,-143.17383
1766901063129,-0.70751953,0.67578125,-0.32128906,-22.338867,7.3242188,-3.540039,0.0,0.0,0.0,126.79321,41.819458,-141.07544
1766901063218,-0.7480469,0.6035156,-0.42089844,-20.996094,0.18310547,-2.8076172,0.0,0.0,0.0,126.79321,41.819458,-141.07544
1766901063229,-0.7480469,0.6035156,-0.42089844,-20.996094,0.18310547,-2.8076172,0.0,0.0,0.0,124.37073,42.143555,-140.16907
1766901063317,-0.7446289,0.58496094,-0.4814453,-4.5166016,5.92041,-8.544922,0.0,0.0,0.0,124.37073,42.143555,-140.16907
1766901063329,-0.7446289,0.58496094,-0.4814453,-4.5166016,5.92041,-8.544922,0.0,0.0,0.0,124.03015,42.105103,-139.4989
1766901063417,-0.6635742,0.51708984,-0.4399414,1.6479492,-3.479004,-14.892578,0.0,0.0,0.0,124.03015,42.105103,-139.4989
1766901063429,-0.6635742,0.51708984,-0.4399414,1.6479492,-3.479004,-14.892578,0.0,0.0,0.0,125.25513,43.17627,-138.00476
1766901063517,-0.5595703,0.52197266,-0.46728516,0.91552734,-8.483887,-3.9672852,0.0,0.0,0.0,125.25513,43.17627,-138.00476
1766901063528,-0.5595703,0.52197266,-0.46728516,0.91552734,-8.483887,-3.9672852,0.0,0.0,0.0,125.58472,44.313354,-137.94983
1766901063617,-0.73583984,0.57128906,-0.54541016,13.73291,9.155273,-4.4555664,0.0,0.0,0.0,125.58472,44.313354,-137.94983
1766901063628,-0.73583984,0.57128906,-0.54541016,13.73291,9.155273,-4.4555664,0.0,0.0,0.0,126.70532,44.384766,-137.68066
1766901063716,-0.7416992,0.56640625,-0.43408203,24.902344,-4.699707,-1.2207031,0.0,0.0,0.0,126.70532,44.384766,-137.68066
1766901063728,-0.7416992,0.56640625,-0.43408203,24.902344,-4.699707,-1.2207031,0.0,0.0,0.0,130.59998,44.110107,-135.97229
1766901063816,-0.5805664,0.6533203,-0.41552734,14.404297,-2.6855469,4.211426,0.0,0.0,0.0,130.59998,44.110107,-135.97229
1766901063828,-0.5805664,0.6533203,-0.41552734,14.404297,-2.6855469,4.211426,0.0,0.0,0.0,130.55054,44.56604,-138.06519
1766901063916,-0.75341797,0.58154297,-0.42285156,16.418457,12.329102,0.4272461,0.0,0.0,0.0,130.55054,44.56604,-138.06519
1766901063927,-0.75341797,0.58154297,-0.42285156,16.418457,12.329102,0.4272461,0.0,0.0,0.0,132.68188,43.390503,-136.87317
1766901064015,-0.69140625,0.6040039,-0.4194336,10.437012,-7.2021484,13.000488,0.0,0.0,0.0,132.68188,43.390503,-136.87317
1766901064027,-0.69140625,0.6040039,-0.4194336,10.437012,-7.2021484,13.000488,0.0,0.0,0.0,132.75879,42.929077,-138.14758
1766901064115,-0.66552734,0.6254883,-0.4321289,-3.90625,-9.460449,14.526367,0.0,0.0,0.0,132.75879,42.929077,-138.14758
1766901064127,-0.66552734,0.6254883,-0.4321289,-3.90625,-9.460449,14.526367,0.0,0.0,0.0,131.73157,42.528076,-139.61426
1766901064215,-0.7319336,0.65722656,-0.52734375,-19.53125,-14.587402,15.869141,0.0,0.0,0.0,131.73157,42.528076,-139.61426
1766901064227,-0.7319336,0.65722656,-0.52734375,-19.53125,-14.587402,15.869141,0.0,0.0,0.0,128.24341,42.03369,-142.37183
1766901064315,-0.62109375,0.55615234,-0.46289062,-10.314941,18.676758,-9.521484,0.0,0.0,0.0,128.24341,42.03369,-142.37183
1766901064326,-0.62109375,0.55615234,-0.46289062,-10.314941,18.676758,-9.521484,0.0,0.0,0.0,126.66687,41.82495,-142.26746
1766901064414,-0.68066406,0.5449219,-0.47070312,-8.850098,-19.348145,10.498047,0.0,0.0,0.0,126.66687,41.82495,-142.26746
1766901064426,-0.68066406,0.5449219,-0.47070312,-8.850098,-19.348145,10.498047,0.0,0.0,0.0,127.18323,41.56128,-140.76233
1766901064514,-0.6386719,0.55615234,-0.4580078,-5.92041,4.9438477,-4.4555664,0.0,0.0,0.0,127.18323,41.56128,-140.76233
1766901064525,-0.6386719,0.55615234,-0.4580078,-5.92041,4.9438477,-4.4555664,0.0,0.0,0.0,124.84314,41.92383,-142.99255
1766901064614,-0.71484375,0.52685547,-0.46728516,3.0517578,-8.7890625,-2.2583008,0.0,0.0,0.0,124.84314,41.92383,-142.99255
1766901064625,-0.71484375,0.52685547,-0.46728516,3.0517578,-8.7890625,-2.2583008,0.0,0.0,0.0,126.101074,42.214966,-141.45996
1766901064713,-0.6464844,0.43847656,-0.47265625,18.920898,-7.019043,8.056641,0.0,0.0,0.0,126.101074,42.214966,-141.45996
1766901064725,-0.6464844,0.43847656,-0.47265625,18.920898,-7.019043,8.056641,0.0,0.0,0.0,126.3208,42.555542,-143.22876
1766901064813,-0.69384766,0.6689453,-0.49609375,21.66748,11.71875,0.91552734,0.0,0.0,0.0,126.3208,42.555542,-143.22876
1766901064824,-0.69384766,0.6689453,-0.49609375,21.66748,11.71875,0.91552734,0.0,0.0,0.0,128.63342,42.121582,-143.62427
1766901064913,-0.68359375,0.5864258,-0.39013672,4.699707,0.30517578,5.6152344,0.0,0.0,0.0,128.63342,42.121582,-143.62427
1766901064924,-0.68359375,0.5864258,-0.39013672,4.699707,0.30517578,5.6152344,0.0,0.0,0.0,130.8197,41.21521,-142.50916
1766901065012,-0.62841797,0.6459961,-0.40429688,-2.1362305,22.094727,-12.329102,0.0,0.0,0.0,130.8197,41.21521,-142.50916
1766901065024,-0.62841797,0.6459961,-0.40429688,-2.1362305,22.094727,-12.329102,0.0,0.0,0.0,131.23718,41.066895,-141.63574
1766901065112,-0.7636719,0.6152344,-0.43652344,-19.714355,10.7421875,-11.779785,0.0,0.0,0.0,131.23718,41.066895,-141.63574
1766901065124,-0.7636719,0.6152344,-0.43652344,-19.714355,10.7421875,-11.779785,0.0,0.0,0.0,132.1051,40.6604,-137.94983
1766901065212,-0.73095703,0.6098633,-0.38183594,-24.108887,2.0751953,-12.207031,0.0,0.0,0.0,132.1051,40.6604,-137.94983
1766901065223,-0.73095703,0.6098633,-0.38183594,-24.108887,2.0751953,-12.207031,0.0,0.0,0.0,130.53955,41.176758,-136.41724
1766901065312,-0.8100586,0.5488281,-0.49169922,-16.967773,-14.526367,-4.211426,0.0,0.0,0.0,130.53955,41.176758,-136.41724
1766901065323,-0.8100586,0.5488281,-0.49169922,-16.967773,-14.526367,-4.211426,0.0,0.0,0.0,127.89734,42.6709,-135.7196
1766901065412,-0.7006836,0.5366211,-0.45703125,6.1035156,-13.549805,-2.6245117,0.0,0.0,0.0,127.89734,42.6709,-135.7196
1766901065423,-0.7006836,0.5366211,-0.45703125,6.1035156,-13.549805,-2.6245117,0.0,0.0,0.0,126.98547,43.775024,-137.11487
1766901065511,-0.609375,0.5180664,-0.45703125,-4.0283203,-19.16504,5.126953,0.0,0.0,0.0,126.98547,43.775024,-137.11487
1766901065523,-0.609375,0.5180664,-0.45703125,-4.0283203,-19.16504,5.126953,0.0,0.0,0.0,126.485596,44.785767,-138.4552
1766901065611,-0.6074219,0.53808594,-0.48046875,5.493164,-12.756348,7.9345703,0.0,0.0,0.0,126.485596,44.785767,-138.4552
1766901065623,-0.6074219,0.53808594,-0.48046875,5.493164,-12.756348,7.9345703,0.0,0.0,0.0,124.84863,44.95056,-141.25122
1766901065711,-0.61816406,0.62158203,-0.4975586,5.92041,1.0375977,-0.79345703,0.0,0.0,0.0,124.84863,44.95056,-141.25122
1766901065722,-0.61816406,0.62158203,-0.4975586,5.92041,1.0375977,-0.79345703,0.0,0.0,0.0,125.1178,44.71985,-142.10815
1766901065810,-0.7519531,0.59277344,-0.42871094,17.150879,11.535645,-2.8686523,0.0,0.0,0.0,125.1178,44.71985,-142.10815
1766901065822,-0.7519531,0.59277344,-0.42871094,17.150879,11.535645,-2.8686523,0.0,0.0,0.0,127.2876,43.93982,-140.99304
1766901065910,-0.60498047,0.61621094,-0.3876953,11.291504,-0.24414062,1.953125,0.0,0.0,0.0,127.2876,43.93982,-140.99304
1766901065921,-0.60498047,0.61621094,-0.3876953,11.291504,-0.24414062,1.953125,0.0,0.0,0.0,128.3258,43.742065,-141.19629
1766901066010,-0.72021484,0.5913086,-0.40478516,19.65332,17.211914,-3.90625,0.0,0.0,0.0,128.3258,43.742065,-141.19629
1766901066021,-0.72021484,0.5913086,-0.40478516,19.65332,17.211914,-3.90625,0.0,0.0,0.0,130.47913,43.02246,-139.89441
1766901066109,-0.7402344,0.59765625,-0.40820312,15.319824,-17.578125,12.878418,0.0,0.0,0.0,130.47913,43.02246,-139.89441
1766901066121,-0.7402344,0.59765625,-0.40820312,15.319824,-17.578125,12.878418,0.0,0.0,0.0,131.5393,42.93457,-140.25146
1766901066209,-0.7036133,0.66015625,-0.3881836,4.1503906,-20.874023,10.314941,0.0,0.0,0.0,131.5393,42.93457,-140.25146
1766901066221,-0.7036133,0.66015625,-0.3881836,4.1503906,-20.874023,10.314941,0.0,0.0,0.0,129.94629,43.461914,-143.34412
1766901066310,-0.6894531,0.72216797,-0.4194336,-18.554688,-18.798828,15.74707,0.0,0.0,0.0,129.94629,43.461914,-143.34412
1766901066321,-0.6894531,0.72216797,-0.4194336,-18.554688,-18.798828,15.74707,0.0,0.0,0.0,125.980225,43.588257,-147.25525
1766901066409,-0.67578125,0.5605469,-0.49951172,-30.517578,11.291504,-14.770508,0.0,0.0,0.0,125.980225,43.588257,-147.25525
1766901066421,-0.67578125,0.5605469,-0.49951172,-30.517578,11.291504,-14.770508,0.0,0.0,0.0,122.838135,43.390503,-147.2937
1766901066508,-0.7109375,0.5966797,-0.40429688,-8.7890625,14.831543,-7.751465,0.0,0.0,0.0,122.838135,43.390503,-147.2937
1766901066520,-0.7109375,0.5966797,-0.40429688,-8.7890625,14.831543,-7.751465,0.0,0.0,0.0,123.447876,43.48938,-144.34387
1766901066608,-0.66552734,0.54589844,-0.40527344,-11.474609,-29.785156,9.216309,0.0,0.0,0.0,123.447876,43.48938,-144.34387
1766901066620,-0.66552734,0.54589844,-0.40527344,-11.474609,-29.785156,9.216309,0.0,0.0,0.0,120.72876,44.07715,-147.0575
1766901066708,-0.65722656,0.48583984,-0.3828125,7.6904297,-0.8544922,10.559082,0.0,0.0,0.0,120.72876,44.07715,-147.0575
1766901066719,-0.65722656,0.48583984,-0.3828125,7.6904297,-0.8544922,10.559082,0.0,0.0,0.0,119.98169,43.8739,-148.79883
1766901066808,-0.70410156,0.6123047,-0.46728516,16.113281,-4.1503906,12.390137,0.0,0.0,0.0,119.98169,43.8739,-148.79883
1766901066819,-0.70410156,0.6123047,-0.46728516,16.113281,-4.1503906,12.390137,0.0,0.0,0.0,121.0199,43.115845,-150.10071
1766901066907,-0.73779297,0.72998047,-0.29736328,4.272461,5.92041,3.7231445,0.0,0.0,0.0,121.0199,43.115845,-150.10071
1766901066919,-0.73779297,0.72998047,-0.29736328,4.272461,5.92041,3.7231445,0.0,0.0,0.0,122.39868,42.297363,-149.88647
1766901067007,-0.6279297,0.6542969,-0.33935547,-11.352539,10.864258,-11.352539,0.0,0.0,0.0,122.39868,42.297363,-149.88647
1766901067018,-0.6279297,0.6542969,-0.33935547,-11.352539,10.864258,-11.352539,0.0,0.0,0.0,122.00867,42.401733,-149.58435
1766901067107,-0.74365234,0.64453125,-0.31884766,-29.968262,28.015137,-28.015137,0.0,0.0,0.0,122.00867,42.401733,-149.58435
1766901067118,-0.74365234,0.64453125,-0.31884766,-29.968262,28.015137,-28.015137,0.0,0.0,0.0,122.700806,42.994995,-144.81079
1766901067206,-0.7319336,0.65527344,-0.29736328,-32.836914,18.188477,-17.150879,0.0,0.0,0.0,122.700806,42.994995,-144.81079
1766901067218,-0.7319336,0.65527344,-0.29736328,-32.836914,18.188477,-17.150879,0.0,0.0,0.0,122.18445,43.709106,-140.625
1766901067306,-0.7578125,0.6074219,-0.28076172,-33.996582,11.169434,-11.413574,0.0,0.0,0.0,122.18445,43.709106,-140.625
1766901067317,-0.7578125,0.6074219,-0.28076172,-33.996582,11.169434,-11.413574,0.0,0.0,0.0,120.47058,44.121094,-137.80151
1766901067406,-0.8339844,0.59472656,-0.35888672,-20.507812,-10.070801,0.9765625,0.0,0.0,0.0,120.47058,44.121094,-137.80151
1766901067417,-0.8339844,0.59472656,-0.35888672,-20.507812,-10.070801,0.9765625,0.0,0.0,0.0,117.10327,44.978027,-137.1753
1766901067506,-0.7402344,0.5732422,-0.27539062,0.6713867,-18.249512,0.30517578,0.0,0.0,0.0,117.10327,44.978027,-137.1753
1766901067517,-0.7402344,0.5732422,-0.27539062,0.6713867,-18.249512,0.30517578,0.0,0.0,0.0,116.850586,45.373535,-137.94434
1766901067605,-0.6323242,0.5986328,-0.3125,11.535645,-4.5776367,-3.2348633,0.0,0.0,0.0,116.850586,45.373535,-137.94434
1766901067617,-0.6323242,0.5986328,-0.3125,11.535645,-4.5776367,-3.2348633,0.0,0.0,0.0,115.686035,46.40625,-140.47119
1766901067705,-0.7236328,0.59472656,-0.34375,18.432617,-2.380371,1.4038086,0.0,0.0,0.0,115.686035,46.40625,-140.47119
1766901067716,-0.7236328,0.59472656,-0.34375,18.432617,-2.380371,1.4038086,0.0,0.0,0.0,117.52075,46.312866,-140.31189
1766901067805,-0.6879883,0.5708008,-0.3798828,20.263672,-8.178711,3.0517578,0.0,0.0,0.0,117.52075,46.312866,-140.31189
1766901067816,-0.6879883,0.5708008,-0.3798828,20.263672,-8.178711,3.0517578,0.0,0.0,0.0,118.80066,46.384277,-141.28967
1766901067904,-0.6328125,0.6191406,-0.40820312,22.338867,5.004883,-2.1362305,0.0,0.0,0.0,118.80066,46.384277,-141.28967
1766901067916,-0.6328125,0.6191406,-0.40820312,22.338867,5.004883,-2.1362305,0.0,0.0,0.0,120.91553,46.345825,-141.52588
1766901068004,-0.828125,0.625,-0.38427734,19.042969,0.79345703,-3.8452148,0.0,0.0,0.0,120.91553,46.345825,-141.52588
1766901068016,-0.828125,0.625,-0.38427734,19.042969,0.79345703,-3.8452148,0.0,0.0,0.0,123.84338,46.159058,-140.39978
1766901068104,-0.6279297,0.62158203,-0.32666016,13.244629,0.36621094,2.8076172,0.0,0.0,0.0,123.84338,46.159058,-140.39978
1766901068116,-0.6279297,0.62158203,-0.32666016,13.244629,0.36621094,2.8076172,0.0,0.0,0.0,124.77722,46.115112,-141.04797
1766901068203,-0.73046875,0.59814453,-0.33740234,16.662598,2.0751953,4.638672,0.0,0.0,0.0,124.77722,46.115112,-141.04797
1766901068215,-0.73046875,0.59814453,-0.33740234,16.662598,2.0751953,4.638672,0.0,0.0,0.0,126.01868,45.516357,-140.8667
1766901068303,-0.7348633,0.63671875,-0.3388672,10.7421875,-11.657715,5.493164,0.0,0.0,0.0,126.01868,45.516357,-140.8667
1766901068315,-0.7348633,0.63671875,-0.3388672,10.7421875,-11.657715,5.493164,0.0,0.0,0.0,126.17798,45.291138,-142.17407
1766901068403,-0.7495117,0.6855469,-0.33544922,-7.080078,-29.052734,6.591797,0.0,0.0,0.0,126.17798,45.291138,-142.17407
1766901068414,-0.7495117,0.6855469,-0.33544922,-7.080078,-29.052734,6.591797,0.0,0.0,0.0,123.88733,45.889893,-145.1294
1766901068503,-0.73095703,0.7416992,-0.4736328,-33.63037,-23.132324,4.272461,0.0,0.0,0.0,123.88733,45.889893,-145.1294
1766901068514,-0.73095703,0.7416992,-0.4736328,-33.63037,-23.132324,4.272461,0.0,0.0,0.0,117.8009,46.724854,-150.14465
1766901068602,-0.68359375,0.51660156,-0.28271484,-22.399902,28.259277,-29.47998,0.0,0.0,0.0,117.8009,46.724854,-150.14465
1766901068614,-0.68359375,0.51660156,-0.28271484,-22.399902,28.259277,-29.47998,0.0,0.0,0.0,116.795654,47.63672,-147.66174
1766901068702,-0.6977539,0.52783203,-0.35009766,-28.198242,-4.4555664,-14.343262,0.0,0.0,0.0,116.795654,47.63672,-147.66174
1766901068714,-0.6977539,0.52783203,-0.35009766,-28.198242,-4.4555664,-14.343262,0.0,0.0,0.0,115.81238,48.949585,-145.71167
1766901068802,-0.82470703,0.39160156,-0.35058594,12.634277,9.094238,-16.540527,0.0,0.0,0.0,115.81238,48.949585,-145.71167
1766901068813,-0.82470703,0.39160156,-0.35058594,12.634277,9.094238,-16.540527,0.0,0.0,0.0,117.542725,50.108643,-143.04199
1766901068901,-0.765625,0.5576172,-0.38916016,14.770508,-10.131836,16.357422,0.0,0.0,0.0,117.542725,50.108643,-143.04199
1766901068913,-0.765625,0.5576172,-0.38916016,14.770508,-10.131836,16.357422,0.0,0.0,0.0,119.52576,50.130615,-143.5144
1766901069001,-0.7451172,0.6333008,-0.26611328,11.657715,19.16504,-4.333496,0.0,0.0,0.0,119.52576,50.130615,-143.5144
1766901069013,-0.7451172,0.6333008,-0.26611328,11.657715,19.16504,-4.333496,0.0,0.0,0.0,121.32202,49.23523,-143.30566
1766901069101,-0.8198242,0.52001953,-0.3232422,-2.6245117,9.521484,-8.422852,0.0,0.0,0.0,121.32202,49.23523,-143.30566
1766901069112,-0.8198242,0.52001953,-0.3232422,-2.6245117,9.521484,-8.422852,0.0,0.0,0.0,123.10181,49.075928,-141.23474
1766901069201,-0.78759766,0.52685547,-0.29638672,-11.71875,21.362305,-14.587402,0.0,0.0,0.0,123.10181,49.075928,-141.23474
1766901069212,-0.78759766,0.52685547,-0.29638672,-11.71875,21.362305,-14.587402,0.0,0.0,0.0,124.16748,49.30664,-138.52661
1766901069300,-0.8520508,0.52490234,-0.29345703,-7.446289,3.90625,-3.0517578,0.0,0.0,0.0,124.16748,49.30664,-138.52661
1766901069312,-0.8520508,0.52490234,-0.29345703,-7.446289,3.90625,-3.0517578,0.0,0.0,0.0,125.09033,49.53186,-135.75256
1766901069400,-0.7939453,0.56347656,-0.2685547,-13.000488,0.12207031,-5.065918,0.0,0.0,0.0,125.09033,49.53186,-135.75256
1766901069412,-0.7939453,0.56347656,-0.2685547,-13.000488,0.12207031,-5.065918,0.0,0.0,0.0,124.09607,49.883423,-135.47241
1766901069500,-0.8828125,0.5756836,-0.35253906,-20.446777,-9.460449,-9.399414,0.0,0.0,0.0,124.09607,49.883423,-135.47241
1766901069512,-0.8828125,0.5756836,-0.35253906,-20.446777,-9.460449,-9.399414,0.0,0.0,0.0,122.44263,50.960083,-135.09338
1766901069600,-0.7993164,0.46533203,-0.31347656,5.126953,-7.9956055,3.6621094,0.0,0.0,0.0,122.44263,50.960083,-135.09338
1766901069611,-0.7993164,0.46533203,-0.31347656,5.126953,-7.9956055,3.6621094,0.0,0.0,0.0,119.77295,51.80603,-137.34009
1766901069699,-0.70703125,0.5151367,-0.3491211,-2.380371,-5.432129,5.1879883,0.0,0.0,0.0,119.77295,51.80603,-137.34009
1766901069711,-0.70703125,0.5151367,-0.3491211,-2.380371,-5.432129,5.1879883,0.0,0.0,0.0,119.696045,51.899414,-138.02673
1766901069799,-0.77783203,0.49560547,-0.36279297,9.521484,8.728027,6.286621,0.0,0.0,0.0,119.696045,51.899414,-138.02673
1766901069810,-0.77783203,0.49560547,-0.36279297,9.521484,8.728027,6.286621,0.0,0.0,0.0,120.19592,51.377563,-137.88391
1766901069899,-0.7236328,0.5307617,-0.38183594,9.277344,-1.5869141,10.803223,0.0,0.0,0.0,120.19592,51.377563,-137.88391
1766901069911,-0.7236328,0.5307617,-0.38183594,9.277344,-1.5869141,10.803223,0.0,0.0,0.0,120.86609,50.377808,-138.55408
1766901069998,-0.6513672,0.5830078,-0.41748047,6.4697266,4.211426,3.8452148,0.0,0.0,0.0,120.86609,50.377808,-138.55408
1766901070010,-0.6513672,0.5830078,-0.41748047,6.4697266,4.211426,3.8452148,0.0,0.0,0.0,121.44287,49.641724,-139.1748
1766901070098,-0.85791016,0.5332031,-0.35888672,22.644043,11.291504,-4.638672,0.0,0.0,0.0,121.44287,49.641724,-139.1748
1766901070110,-0.85791016,0.5332031,-0.35888672,22.644043,11.291504,-4.638672,0.0,0.0,0.0,124.052124,48.795776,-137.83447
1766901070198,-0.69140625,0.55322266,-0.34228516,21.057129,-3.2348633,8.605957,0.0,0.0,0.0,124.052124,48.795776,-137.83447
1766901070209,-0.69140625,0.55322266,-0.34228516,21.057129,-3.2348633,8.605957,0.0,0.0,0.0,126.02966,48.565063,-137.96082
1766901070297,-0.7109375,0.55810547,-0.35205078,23.19336,0.0,8.117676,0.0,0.0,0.0,126.02966,48.565063,-137.96082
1766901070309,-0.7109375,0.55810547,-0.35205078,23.19336,0.0,8.117676,0.0,0.0,0.0,127.023926,47.922363,-139.3341
1766901070397,-0.76416016,0.6230469,-0.35595703,12.268066,2.6855469,4.272461,0.0,0.0,0.0,127.023926,47.922363,-139.3341
1766901070409,-0.76416016,0.6230469,-0.35595703,12.268066,2.6855469,4.272461,0.0,0.0,0.0,128.77075,47.301636,-139.0924
1766901070497,-0.74072266,0.61816406,-0.35839844,-1.2817383,-14.6484375,12.573242,0.0,0.0,0.0,128.77075,47.301636,-139.0924
1766901070509,-0.74072266,0.61816406,-0.35839844,-1.2817383,-14.6484375,12.573242,0.0,0.0,0.0,127.55127,46.983032,-140.7843
1766901070597,-0.7792969,0.64697266,-0.30615234,-10.681152,-22.460938,13.366699,0.0,0.0,0.0,127.55127,46.983032,-140.7843
1766901070608,-0.7792969,0.64697266,-0.30615234,-10.681152,-22.460938,13.366699,0.0,0.0,0.0,124.3927,47.109375,-143.72864
1766901070696,-0.7910156,0.703125,-0.3959961,-27.09961,-22.705078,11.71875,0.0,0.0,0.0,124.3927,47.109375,-143.72864
1766901070709,-0.7910156,0.703125,-0.3959961,-27.09961,-22.705078,11.71875,0.0,0.0,0.0,118.54797,47.235718,-148.34839
1766901070796,-0.75341797,0.53515625,-0.2939453,-2.8686523,10.7421875,-12.023926,0.0,0.0,0.0,118.54797,47.235718,-148.34839
1766901070808,-0.75341797,0.53515625,-0.2939453,-2.8686523,10.7421875,-12.023926,0.0,0.0,0.0,117.57568,47.4115,-147.68372
1766901070896,-0.6455078,0.5336914,-0.32861328,-10.498047,-16.662598,11.291504,0.0,0.0,0.0,117.57568,47.4115,-147.68372
1766901070908,-0.6455078,0.5336914,-0.32861328,-10.498047,-16.662598,11.291504,0.0,0.0,0.0,116.05408,47.5708,-148.9856
1766901070995,-0.6948242,0.56591797,-0.34472656,-0.4272461,13.916016,-2.8686523,0.0,0.0,0.0,116.05408,47.5708,-148.9856
1766901071008,-0.6948242,0.56591797,-0.34472656,-0.4272461,13.916016,-2.8686523,0.0,0.0,0.0,115.72449,47.08191,-149.33716
1766901071095,-0.7089844,0.5209961,-0.3461914,-0.30517578,-2.1972656,4.4555664,0.0,0.0,0.0,115.72449,47.08191,-149.33716
1766901071107,-0.7089844,0.5209961,-0.3461914,-0.30517578,-2.1972656,4.4555664,0.0,0.0,0.0,116.62537,46.906128,-148.3374
1766901071195,-0.6923828,0.51123047,-0.39892578,12.268066,13.671875,2.5024414,0.0,0.0,0.0,116.62537,46.906128,-148.3374
1766901071206,-0.6923828,0.51123047,-0.39892578,12.268066,13.671875,2.5024414,0.0,0.0,0.0,118.05908,46.345825,-147.65076
1766901071295,-0.8339844,0.7084961,-0.35595703,20.874023,25.939941,-10.375977,0.0,0.0,0.0,118.05908,46.345825,-147.65076
1766901071306,-0.8339844,0.7084961,-0.35595703,20.874023,25.939941,-10.375977,0.0,0.0,0.0,122.66235,45.74707,-144.49219
1766901071394,-0.6308594,0.56103516,-0.2944336,7.5683594,12.878418,-4.5776367,0.0,0.0,0.0,122.66235,45.74707,-144.49219
1766901071406,-0.6308594,0.56103516,-0.2944336,7.5683594,12.878418,-4.5776367,0.0,0.0,0.0,125.26611,45.46692,-142.18506
1766901071494,-0.70654297,0.5673828,-0.38720703,-2.0751953,27.46582,-16.479492,0.0,0.0,0.0,125.26611,45.46692,-142.18506
1766901071506,-0.70654297,0.5673828,-0.38720703,-2.0751953,27.46582,-16.479492,0.0,0.0,0.0,127.6062,45.203247,-138.52661
1766901071594,-0.8466797,0.58203125,-0.40429688,-7.9345703,31.433105,-22.155762,0.0,0.0,0.0,127.6062,45.203247,-138.52661
1766901071605,-0.8466797,0.58203125,-0.40429688,-7.9345703,31.433105,-22.155762,0.0,0.0,0.0,130.46265,44.972534,-133.11584
1766901071694,-0.7128906,0.55029297,-0.38476562,-17.150879,-0.30517578,1.8920898,0.0,0.0,0.0,130.46265,44.972534,-133.11584
1766901071705,-0.7128906,0.55029297,-0.38476562,-17.150879,-0.30517578,1.8920898,0.0,0.0,0.0,129.97375,45.027466,-131.28662
1766901071793,-0.81640625,0.5913086,-0.41748047,-12.512207,12.634277,-7.019043,0.0,0.0,0.0,129.97375,45.027466,-131.28662
1766901071805,-0.81640625,0.5913086,-0.41748047,-12.512207,12.634277,-7.019043,0.0,0.0,0.0,128.7378,44.934082,-130.69336
1766901071893,-0.7607422,0.49853516,-0.4765625,-3.6621094,-14.770508,14.160156,0.0,0.0,0.0,128.7378,44.934082,-130.69336
1766901071905,-0.7607422,0.49853516,-0.4765625,-3.6621094,-14.770508,14.160156,0.0,0.0,0.0,127.18872,45.0,-131.20972
1766901071993,-0.67822266,0.54248047,-0.4584961,-3.6621094,-4.1503906,-5.432129,0.0,0.0,0.0,127.18872,45.0,-131.20972
1766901072004,-0.67822266,0.54248047,-0.4584961,-3.6621094,-4.1503906,-5.432129,0.0,0.0,0.0,126.221924,45.499878,-132.52808
1766901072092,-0.5776367,0.5029297,-0.46728516,-3.6010742,-1.0375977,-0.79345703,0.0,0.0,0.0,126.221924,45.499878,-132.52808
1766901072104,-0.5776367,0.5029297,-0.46728516,-3.6010742,-1.0375977,-0.79345703,0.0,0.0,0.0,125.93628,45.73059,-132.78625
1766901072192,-0.7128906,0.55371094,-0.5854492,9.643555,7.9345703,-3.1738281,0.0,0.0,0.0,125.93628,45.73059,-132.78625
1766901072204,-0.7128906,0.55371094,-0.5854492,9.643555,7.9345703,-3.1738281,0.0,0.0,0.0,127.194214,45.494385,-131.88538
1766901072292,-0.7597656,0.49951172,-0.4482422,30.151367,6.591797,-2.1972656,0.0,0.0,0.0,127.194214,45.494385,-131.88538
1766901072303,-0.7597656,0.49951172,-0.4482422,30.151367,6.591797,-2.1972656,0.0,0.0,0.0,131.37451,44.785767,-129.70459
1766901072392,-0.6166992,0.57910156,-0.43066406,18.493652,-30.944824,26.245117,0.0,0.0,0.0,131.37451,44.785767,-129.70459
1766901072403,-0.6166992,0.57910156,-0.43066406,18.493652,-30.944824,26.245117,0.0,0.0,0.0,130.72083,44.857178,-133.73657
1766901072491,-0.7026367,0.6196289,-0.42333984,30.456543,6.5307617,14.404297,0.0,0.0,0.0,130.72083,44.857178,-133.73657
1766901072503,-0.7026367,0.6196289,-0.42333984,30.456543,6.5307617,14.404297,0.0,0.0,0.0,130.78674,43.66516,-136.97205
1766901072591,-0.6738281,0.6142578,-0.41552734,20.263672,-25.390625,24.230957,0.0,0.0,0.0,130.78674,43.66516,-136.97205
1766901072603,-0.6738281,0.6142578,-0.41552734,20.263672,-25.390625,24.230957,0.0,0.0,0.0,131.45691,42.994995,-139.21875
1766901072691,-0.62597656,0.67626953,-0.421875,3.2348633,-4.4555664,11.84082,0.0,0.0,0.0,131.45691,42.994995,-139.21875
1766901072702,-0.62597656,0.67626953,-0.421875,3.2348633,-4.4555664,11.84082,0.0,0.0,0.0,129.83643,42.643433,-142.61902
1766901072791,-0.7084961,0.6557617,-0.4633789,-12.573242,-7.9956055,10.253906,0.0,0.0,0.0,129.83643,42.643433,-142.61902
1766901072802,-0.7084961,0.6557617,-0.4633789,-12.573242,-7.9956055,10.253906,0.0,0.0,0.0,128.39722,42.01172,-143.55835
1766901072890,-0.63916016,0.63720703,-0.52734375,-17.333984,1.953125,1.953125,0.0,0.0,0.0,128.39722,42.01172,-143.55835
1766901072902,-0.63916016,0.63720703,-0.52734375,-17.333984,1.953125,1.953125,0.0,0.0,0.0,125.57922,41.39099,-145.11841
1766901072990,-0.67822266,0.55029297,-0.4638672,-1.6479492,18.798828,-7.2021484,0.0,0.0,0.0,125.57922,41.39099,-145.11841
1766901073002,-0.67822266,0.55029297,-0.4638672,-1.6479492,18.798828,-7.2021484,0.0,0.0,0.0,126.04614,40.808716,-143.16833
1766901073090,-0.60839844,0.60302734,-0.45654297,-17.456055,-19.470215,0.61035156,0.0,0.0,0.0,126.04614,40.808716,-143.16833
1766901073101,-0.60839844,0.60302734,-0.45654297,-17.456055,-19.470215,0.61035156,0.0,0.0,0.0,125.128784,41.281128,-143.49243
1766901073189,-0.703125,0.5488281,-0.4765625,-6.958008,10.498047,-15.258789,0.0,0.0,0.0,125.128784,41.281128,-143.49243
1766901073201,-0.703125,0.5488281,-0.4765625,-6.958008,10.498047,-15.258789,0.0,0.0,0.0,123.75549,42.03369,-143.64075
1766901073289,-0.6220703,0.49951172,-0.42822266,4.8828125,-4.5776367,-0.4272461,0.0,0.0,0.0,123.75549,42.03369,-143.64075
1766901073301,-0.6220703,0.49951172,-0.42822266,4.8828125,-4.5776367,-0.4272461,0.0,0.0,0.0,125.01892,42.643433,-142.19604
1766901073389,-0.7211914,0.4946289,-0.51123047,15.808105,-12.145996,10.925293,0.0,0.0,0.0,125.01892,42.643433,-142.19604
1766901073400,-0.7211914,0.4946289,-0.51123047,15.808105,-12.145996,10.925293,0.0,0.0,0.0,125.14526,42.643433,-144.10217
1766901073489,-0.71191406,0.67822266,-0.42333984,24.353027,15.74707,-8.911133,0.0,0.0,0.0,125.14526,42.643433,-144.10217
1766901073500,-0.71191406,0.67822266,-0.42333984,24.353027,15.74707,-8.911133,0.0,0.0,0.0,128.20496,42.53357,-143.39905
1766901073588,-0.6308594,0.6064453,-0.32373047,-3.6010742,-9.82666,-4.0283203,0.0,0.0,0.0,128.20496,42.53357,-143.39905
1766901073600,-0.6308594,0.6064453,-0.32373047,-3.6010742,-9.82666,-4.0283203,0.0,0.0,0.0,128.78174,42.868652,-143.23975
1766901073688,-0.6923828,0.60791016,-0.36083984,-11.535645,27.770996,-19.53125,0.0,0.0,0.0,128.78174,42.868652,-143.23975
1766901073699,-0.6923828,0.60791016,-0.36083984,-11.535645,27.770996,-19.53125,0.0,0.0,0.0,128.7378,43.26416,-141.37207
1766901073788,-0.8466797,0.57421875,-0.39111328,-18.432617,-3.540039,-7.9345703,0.0,0.0,0.0,128.7378,43.26416,-141.37207
1766901073799,-0.8466797,0.57421875,-0.39111328,-18.432617,-3.540039,-7.9345703,0.0,0.0,0.0,129.77051,43.363037,-137.03247
1766901073887,-0.70947266,0.5957031,-0.38183594,-13.366699,3.6621094,-6.7749023,0.0,0.0,0.0,129.77051,43.363037,-137.03247
1766901073899,-0.70947266,0.5957031,-0.38183594,-13.366699,3.6621094,-6.7749023,0.0,0.0,0.0,128.0072,44.296875,-136.78528
1766901073987,-0.85498047,0.62890625,-0.46484375,-29.052734,-8.422852,-2.4414062,0.0,0.0,0.0,128.0072,44.296875,-136.78528
1766901073999,-0.85498047,0.62890625,-0.46484375,-29.052734,-8.422852,-2.4414062,0.0,0.0,0.0,126.535034,44.659424,-135.75806
1766901074087,-0.78808594,0.48095703,-0.41845703,-2.746582,-20.935059,10.559082,0.0,0.0,0.0,126.535034,44.659424,-135.75806
1766901074099,-0.78808594,0.48095703,-0.41845703,-2.746582,-20.935059,10.559082,0.0,0.0,0.0,123.20618,45.05493,-138.27393
1766901074187,-0.66259766,0.5571289,-0.38378906,-5.2490234,-38.513184,15.930176,0.0,0.0,0.0,123.20618,45.05493,-138.27393
1766901074198,-0.66259766,0.5571289,-0.38378906,-5.2490234,-38.513184,15.930176,0.0,0.0,0.0,120.30029,45.62622,-142.58606
1766901074286,-0.55566406,0.5576172,-0.390625,-2.2583008,-24.597168,13.73291,0.0,0.0,0.0,120.30029,45.62622,-142.58606
1766901074298,-0.55566406,0.5576172,-0.390625,-2.2583008,-24.597168,13.73291,0.0,0.0,0.0,116.29028,45.791016,-148.16162
1766901074386,-0.6557617,0.5966797,-0.46044922,14.953613,20.629883,-8.911133,0.0,0.0,0.0,116.29028,45.791016,-148.16162
1766901074397,-0.6557617,0.5966797,-0.46044922,14.953613,20.629883,-8.911133,0.0,0.0,0.0,116.97693,45.46692,-148.74939
1766901074486,-0.84277344,0.58740234,-0.38476562,29.907227,24.658203,-13.793945,0.0,0.0,0.0,116.97693,45.46692,-148.74939
1766901074498,-0.84277344,0.58740234,-0.38476562,29.907227,24.658203,-13.793945,0.0,0.0,0.0,123.513794,44.802246,-143.69019
1766901074585,-0.61279297,0.6118164,-0.34326172,20.812988,-16.052246,7.3242188,0.0,0.0,0.0,123.513794,44.802246,-143.69019
1766901074597,-0.61279297,0.6118164,-0.34326172,20.812988,-16.052246,7.3242188,0.0,0.0,0.0,125.01892,45.021973,-144.81628
1766901074685,-0.7055664,0.6982422,-0.3671875,27.893066,13.85498,5.2490234,0.0,0.0,0.0,125.01892,45.021973,-144.81628
1766901074697,-0.7055664,0.6982422,-0.3671875,27.893066,13.85498,5.2490234,0.0,0.0,0.0,127.10632,44.417725,-145.25024
1766901074785,-0.7363281,0.64501953,-0.36279297,9.94873,-11.047363,10.192871,0.0,0.0,0.0,127.10632,44.417725,-145.25024
1766901074796,-0.7363281,0.64501953,-0.36279297,9.94873,-11.047363,10.192871,0.0,0.0,0.0,127.86438,43.725586,-146.12366
1766901074885,-0.7138672,0.6147461,-0.36279297,8.666992,-7.2631836,0.79345703,0.0,0.0,0.0,127.86438,43.725586,-146.12366
1766901074896,-0.7138672,0.6147461,-0.36279297,8.666992,-7.2631836,0.79345703,0.0,0.0,0.0,127.683105,43.90686,-147.16187
1766901074984,-0.703125,0.64404297,-0.41357422,0.9765625,-16.357422,15.014648,0.0,0.0,0.0,127.683105,43.90686,-147.16187
1766901074996,-0.703125,0.64404297,-0.41357422,0.9765625,-16.357422,15.014648,0.0,0.0,0.0,126.084595,44.022217,-149.63928
1766901075084,-0.65185547,0.6176758,-0.4580078,-15.686035,-9.155273,1.8310547,0.0,0.0,0.0,126.084595,44.022217,-149.63928
1766901075096,-0.65185547,0.6176758,-0.4580078,-15.686035,-9.155273,1.8310547,0.0,0.0,0.0,123.21167,43.901367,-152.44629
1766901075184,-0.671875,0.59716797,-0.4506836,-7.6293945,13.793945,-3.3569336,0.0,0.0,0.0,123.21167,43.901367,-152.44629
1766901075195,-0.671875,0.59716797,-0.4506836,-7.6293945,13.793945,-3.3569336,0.0,0.0,0.0,122.77771,43.81897,-151.52344
1766901075283,-0.69873047,0.57910156,-0.38476562,-2.1972656,0.18310547,-0.8544922,0.0,0.0,0.0,122.77771,43.81897,-151.52344
1766901075295,-0.69873047,0.57910156,-0.38476562,-2.1972656,0.18310547,-0.8544922,0.0,0.0,0.0,123.47534,43.461914,-150.40283
1766901075383,-0.6538086,0.6201172,-0.38623047,-6.958008,0.7324219,-2.8686523,0.0,0.0,0.0,123.47534,43.461914,-150.40283
1766901075395,-0.6538086,0.6201172,-0.38623047,-6.958008,0.7324219,-2.8686523,0.0,0.0,0.0,122.7063,43.670654,-150.87524
1766901075483,-0.6982422,0.5986328,-0.3955078,-10.009766,7.6904297,-8.911133,0.0,0.0,0.0,122.7063,43.670654,-150.87524
1766901075495,-0.6982422,0.5986328,-0.3955078,-10.009766,7.6904297,-8.911133,0.0,0.0,0.0,122.74475,43.807983,-149.58984
1766901075583,-0.68066406,0.58154297,-0.39160156,-6.8359375,9.155273,-10.7421875,0.0,0.0,0.0,122.74475,43.807983,-149.58984
1766901075595,-0.68066406,0.58154297,-0.39160156,-6.8359375,9.155273,-10.7421875,0.0,0.0,0.0,123.07434,44.230957,-147.94739
1766901075682,-0.6826172,0.47705078,-0.40625,6.652832,11.291504,-1.8310547,0.0,0.0,0.0,123.07434,44.230957,-147.94739
1766901075694,-0.6826172,0.47705078,-0.40625,6.652832,11.291504,-1.8310547,0.0,0.0,0.0,124.33777,43.967285,-146.27747
1766901075782,-0.7319336,0.66503906,-0.46191406,20.385742,22.399902,-0.7324219,0.0,0.0,0.0,124.33777,43.967285,-146.27747
1766901075793,-0.7319336,0.66503906,-0.46191406,20.385742,22.399902,-0.7324219,0.0,0.0,0.0,127.282104,43.181763,-144.7229
1766901075882,-0.7055664,0.6479492,-0.390625,11.474609,28.259277,-10.314941,0.0,0.0,0.0,127.282104,43.181763,-144.7229
1766901075893,-0.7055664,0.6479492,-0.390625,11.474609,28.259277,-10.314941,0.0,0.0,0.0,131.64368,41.693115,-140.66895
1766901075981,-0.6645508,0.625,-0.44189453,-22.949219,3.4179688,-13.122559,0.0,0.0,0.0,131.64368,41.693115,-140.66895
1766901075993,-0.6645508,0.625,-0.44189453,-22.949219,3.4179688,-13.122559,0.0,0.0,0.0,131.39648,42.000732,-138.62
1766901076081,-0.75878906,0.50927734,-0.45410156,-17.150879,19.226074,-28.198242,0.0,0.0,0.0,131.39648,42.000732,-138.62
1766901076093,-0.75878906,0.50927734,-0.45410156,-17.150879,19.226074,-28.198242,0.0,0.0,0.0,130.87463,42.989502,-135.5603
1766901076181,-0.8208008,0.5683594,-0.42773438,-15.625,-8.911133,-11.291504,0.0,0.0,0.0,130.87463,42.989502,-135.5603
1766901076193,-0.8208008,0.5683594,-0.42773438,-15.625,-8.911133,-11.291504,0.0,0.0,0.0,131.33606,44.104614,-132.97852
1766901076281,-0.80371094,0.52978516,-0.4404297,-26.672363,-42.419434,7.1411133,0.0,0.0,0.0,131.33606,44.104614,-132.97852
1766901076292,-0.80371094,0.52978516,-0.4404297,-26.672363,-42.419434,7.1411133,0.0,0.0,0.0,126.83716,46.137085,-135.57678
1766901076380,-0.6801758,0.49902344,-0.39941406,-5.004883,-20.751953,20.019531,0.0,0.0,0.0,126.83716,46.137085,-135.57678
1766901076392,-0.6801758,0.49902344,-0.39941406,-5.004883,-20.751953,20.019531,0.0,0.0,0.0,122.64038,46.521606,-139.86694
1766901076480,-0.61865234,0.5317383,-0.40673828,-3.1738281,-6.7749023,12.023926,0.0,0.0,0.0,122.64038,46.521606,-139.86694
1766901076492,-0.61865234,0.5317383,-0.40673828,-3.1738281,-6.7749023,12.023926,0.0,0.0,0.0,120.91553,46.049194,-142.11914
1766901076580,-0.58984375,0.5366211,-0.43603516,7.385254,-0.36621094,9.277344,0.0,0.0,0.0,120.91553,46.049194,-142.11914
1766901076591,-0.58984375,0.5366211,-0.43603516,7.385254,-0.36621094,9.277344,0.0,0.0,0.0,120.41016,44.901123,-143.89893
1766901076679,-0.70410156,0.62890625,-0.5029297,15.380859,20.080566,-5.79834,0.0,0.0,0.0,120.41016,44.901123,-143.89893
1766901076691,-0.70410156,0.62890625,-0.5029297,15.380859,20.080566,-5.79834,0.0,0.0,0.0,122.72827,44.137573,-142.75635
1766901076779,-0.74902344,0.49853516,-0.42626953,34.66797,30.639648,-20.996094,0.0,0.0,0.0,122.72827,44.137573,-142.75635
1766901076791,-0.74902344,0.49853516,-0.42626953,34.66797,30.639648,-20.996094,0.0,0.0,0.0,129.75403,43.423462,-137.09839
1766901076879,-0.67626953,0.5756836,-0.49023438,27.770996,-28.320312,9.155273,0.0,0.0,0.0,129.75403,43.423462,-137.09839
1766901076890,-0.67626953,0.5756836,-0.49023438,27.770996,-28.320312,9.155273,0.0,0.0,0.0,132.52808,44.06067,-137.39502
1766901076979,-0.6196289,0.609375,-0.39892578,18.493652,0.7324219,2.8076172,0.0,0.0,0.0,132.52808,44.06067,-137.39502
1766901076990,-0.6196289,0.609375,-0.39892578,18.493652,0.7324219,2.8076172,0.0,0.0,0.0,133.37402,44.417725,-139.0924
1766901077078,-0.78808594,0.5263672,-0.4975586,-6.4697266,-17.39502,4.699707,0.0,0.0,0.0,133.37402,44.417725,-139.0924
1766901077090,-0.78808594,0.5263672,-0.4975586,-6.4697266,-17.39502,4.699707,0.0,0.0,0.0,132.96204,44.351807,-139.4989
1766901077178,-0.734375,0.52197266,-0.4243164,-1.953125,-14.953613,5.859375,0.0,0.0,0.0,132.96204,44.351807,-139.4989
1766901077190,-0.734375,0.52197266,-0.4243164,-1.953125,-14.953613,5.859375,0.0,0.0,0.0,130.34729,45.13733,-142.21252
