timestamp,accX,accY,accZ,gyroX,gyroY,gyroZ,magX,magY,magZ,roll,pitch,yaw
1766811659227,-0.9589844,-0.10449219,-0.24365234,13.977051,-5.3100586,-0.61035156,0.0,0.0,0.0,-140.00977,71.96594,1.4282227
1766811659238,-0.9589844,-0.10449219,-0.24365234,13.977051,-5.3100586,-0.61035156,0.0,0.0,0.0,-140.15808,70.88379,1.6314697
1766811659330,-0.9291992,-0.21875,-0.2763672,-17.089844,14.831543,-10.375977,0.0,0.0,0.0,-140.15808,70.88379,1.6314697
1766811659339,-0.9291992,-0.21875,-0.2763672,-17.089844,14.831543,-10.375977,0.0,0.0,0.0,-140.43823,70.36194,2.0324707
1766811659427,-0.9482422,-0.20263672,-0.2109375,5.493164,1.7700195,-3.540039,0.0,0.0,0.0,-140.43823,70.36194,2.0324707
1766811659438,-0.9482422,-0.20263672,-0.2109375,5.493164,1.7700195,-3.540039,0.0,0.0,0.0,-140.96008,69.45557,2.0159912
1766811659527,-0.96435547,-0.22705078,-0.2446289,1.159668,-1.8310547,-3.8452148,0.0,0.0,0.0,-140.96008,69.45557,2.0159912
1766811659538,-0.96435547,-0.22705078,-0.2446289,1.159668,-1.8310547,-3.8452148,0.0,0.0,0.0,-139.95483,69.25781,3.0322266
1766811659626,-0.98779297,-0.19921875,-0.19726562,11.230469,-12.329102,1.8920898,0.0,0.0,0.0,-139.95483,69.25781,3.0322266
1766811659638,-0.98779297,-0.19921875,-0.19726562,11.230469,-12.329102,1.8920898,0.0,0.0,0.0,-137.15332,70.131226,4.8669434
1766811659726,-0.9848633,-0.31152344,-0.2421875,21.66748,-19.28711,1.2817383,0.0,0.0,0.0,-137.15332,70.131226,4.8669434
1766811659738,-0.9848633,-0.31152344,-0.2421875,21.66748,-19.28711,1.2817383,0.0,0.0,0.0,-132.96753,71.345215,8.1188965
1766811659826,-0.95947266,-0.15039062,-0.12597656,-2.9907227,-8.911133,1.159668,0.0,0.0,0.0,-132.96753,71.345215,8.1188965
1766811659838,-0.95947266,-0.15039062,-0.12597656,-2.9907227,-8.911133,1.159668,0.0,0.0,0.0,-130.15503,72.03735,10.8984375
1766811659925,-0.9609375,-0.19580078,-0.22998047,-3.2958984,-5.92041,-0.4272461,0.0,0.0,0.0,-130.15503,72.03735,10.8984375
1766811659937,-0.9609375,-0.19580078,-0.22998047,-3.2958984,-5.92041,-0.4272461,0.0,0.0,0.0,-126.68884,72.93823,14.342651
1766811660025,-0.89404297,-0.25048828,-0.19921875,-3.6010742,-1.7089844,-1.4038086,0.0,0.0,0.0,-126.68884,72.93823,14.342651
1766811660036,-0.89404297,-0.25048828,-0.19921875,-3.6010742,-1.7089844,-1.4038086,0.0,0.0,0.0,-127.09534,72.888794,14.93042
1766811660125,-0.9316406,-0.25732422,-0.2548828,-0.79345703,2.746582,-0.9765625,0.0,0.0,0.0,-127.09534,72.888794,14.93042
1766811660136,-0.9316406,-0.25732422,-0.2548828,-0.79345703,2.746582,-0.9765625,0.0,0.0,0.0,-128.13354,72.59216,14.232788
1766811660224,-0.98046875,-0.19726562,-0.21191406,-3.2348633,9.094238,-1.2817383,0.0,0.0,0.0,-128.13354,72.59216,14.232788
1766811660236,-0.98046875,-0.19726562,-0.21191406,-3.2348633,9.094238,-1.2817383,0.0,0.0,0.0,-129.95178,71.92749,12.546387
1766811660324,-0.9326172,-0.29833984,-0.18945312,-6.591797,11.291504,-3.7231445,0.0,0.0,0.0,-129.95178,71.92749,12.546387
1766811660336,-0.9326172,-0.29833984,-0.18945312,-6.591797,11.291504,-3.7231445,0.0,0.0,0.0,-133.1543,71.06506,9.915161
1766811660424,-0.9589844,-0.2055664,-0.20019531,-6.591797,8.972168,-4.1503906,0.0,0.0,0.0,-133.1543,71.06506,9.915161
1766811660435,-0.9589844,-0.2055664,-0.20019531,-6.591797,8.972168,-4.1503906,0.0,0.0,0.0,-134.32983,70.235596,8.909912
1766811660524,-0.97998047,-0.25634766,-0.19433594,-7.8125,9.643555,-4.1503906,0.0,0.0,0.0,-134.32983,70.235596,8.909912
1766811660535,-0.97998047,-0.25634766,-0.19433594,-7.8125,9.643555,-4.1503906,0.0,0.0,0.0,-135.98328,69.35669,8.014526
1766811660623,-0.9765625,-0.24414062,-0.23388672,-18.981934,7.080078,-1.3427734,0.0,0.0,0.0,-135.98328,69.35669,8.014526
1766811660635,-0.9765625,-0.24414062,-0.23388672,-18.981934,7.080078,-1.3427734,0.0,0.0,0.0,-137.60376,68.80188,7.327881
1766811660723,-1.0498047,-0.29296875,-0.27490234,-1.2207031,-13.916016,-0.7324219,0.0,0.0,0.0,-137.60376,68.80188,7.327881
1766811660734,-1.0498047,-0.29296875,-0.27490234,-1.2207031,-13.916016,-0.7324219,0.0,0.0,0.0,-137.60376,68.89526,8.7890625
1766811660823,-0.90722656,-0.27001953,-0.21142578,2.9296875,-9.887695,0.7324219,0.0,0.0,0.0,-137.60376,68.89526,8.7890625
1766811660834,-0.90722656,-0.27001953,-0.21142578,2.9296875,-9.887695,0.7324219,0.0,0.0,0.0,-135.86243,69.73572,10.272217
1766811660922,-0.93603516,-0.27490234,-0.23730469,24.658203,-15.686035,6.7749023,0.0,0.0,0.0,-135.86243,69.73572,10.272217
1766811660934,-0.93603516,-0.27490234,-0.23730469,24.658203,-15.686035,6.7749023,0.0,0.0,0.0,-131.23718,71.17493,13.260498
1766811661022,-0.8432617,-0.19824219,-0.24316406,28.9917,-10.375977,4.5776367,0.0,0.0,0.0,-131.23718,71.17493,13.260498
1766811661034,-0.8432617,-0.19824219,-0.24316406,28.9917,-10.375977,4.5776367,0.0,0.0,0.0,-127.611694,72.15271,14.397583
1766811661122,-1.0107422,-0.18945312,-0.28857422,8.911133,3.0517578,-0.5493164,0.0,0.0,0.0,-127.611694,72.15271,14.397583
1766811661133,-1.0107422,-0.18945312,-0.28857422,8.911133,3.0517578,-0.5493164,0.0,0.0,0.0,-124.28284,72.526245,15.776367
1766811661222,-0.94433594,-0.2631836,-0.1430664,-3.6010742,0.91552734,-9.277344,0.0,0.0,0.0,-124.28284,72.526245,15.776367
1766811661233,-0.94433594,-0.2631836,-0.1430664,-3.6010742,0.91552734,-9.277344,0.0,0.0,0.0,-127.22717,71.57593,13.782349
1766811661321,-0.95166016,-0.1796875,-0.1850586,-21.728516,11.657715,-6.5307617,0.0,0.0,0.0,-127.22717,71.57593,13.782349
1766811661333,-0.95166016,-0.1796875,-0.1850586,-21.728516,11.657715,-6.5307617,0.0,0.0,0.0,-126.694336,71.26831,14.93042
1766811661421,-0.9370117,-0.28222656,-0.1743164,-4.760742,4.272461,-5.004883,0.0,0.0,0.0,-126.694336,71.26831,14.93042
1766811661433,-0.9370117,-0.28222656,-0.1743164,-4.760742,4.272461,-5.004883,0.0,0.0,0.0,-130.05066,70.076294,13.364868
1766811661521,-0.98535156,-0.27490234,-0.16601562,-5.859375,-0.61035156,-4.760742,0.0,0.0,0.0,-130.05066,70.076294,13.364868
1766811661532,-0.98535156,-0.27490234,-0.16601562,-5.859375,-0.61035156,-4.760742,0.0,0.0,0.0,-129.7815,69.80713,13.963623
1766811661620,-0.9790039,-0.2446289,-0.17333984,6.8359375,-16.052246,3.2958984,0.0,0.0,0.0,-129.7815,69.80713,13.963623
1766811661632,-0.9790039,-0.2446289,-0.17333984,6.8359375,-16.052246,3.2958984,0.0,0.0,0.0,-126.798706,70.50476,16.660767
1766811661720,-0.98291016,-0.33398438,-0.2109375,24.047852,-18.737793,5.6762695,0.0,0.0,0.0,-126.798706,70.50476,16.660767
1766811661732,-0.98291016,-0.33398438,-0.2109375,24.047852,-18.737793,5.6762695,0.0,0.0,0.0,-122.32178,71.73523,20.516968
1766811661820,-0.9277344,-0.12988281,-0.123046875,-2.0141602,-10.253906,7.446289,0.0,0.0,0.0,-122.32178,71.73523,20.516968
1766811661831,-0.9277344,-0.12988281,-0.123046875,-2.0141602,-10.253906,7.446289,0.0,0.0,0.0,-118.87207,73.19092,23.027344
1766811661920,-0.8876953,-0.25830078,-0.18652344,-11.230469,-0.91552734,4.760742,0.0,0.0,0.0,-118.87207,73.19092,23.027344
1766811661931,-0.8876953,-0.25830078,-0.18652344,-11.230469,-0.91552734,4.760742,0.0,0.0,0.0,-116.81213,74.51477,25.301514
1766811662019,-0.9658203,-0.3491211,-0.21679688,8.483887,0.7324219,2.6245117,0.0,0.0,0.0,-116.81213,74.51477,25.301514
1766811662031,-0.9658203,-0.3491211,-0.21679688,8.483887,0.7324219,2.6245117,0.0,0.0,0.0,-119.88281,74.61914,23.164673
1766811662119,-1.0029297,-0.11230469,-0.14160156,0.12207031,13.244629,5.6762695,0.0,0.0,0.0,-119.88281,74.61914,23.164673
1766811662131,-1.0029297,-0.11230469,-0.14160156,0.12207031,13.244629,5.6762695,0.0,0.0,0.0,-122.66785,74.23462,20.006104
1766811662219,-0.95166016,-0.3071289,-0.1640625,-13.061523,18.859863,-2.0141602,0.0,0.0,0.0,-122.66785,74.23462,20.006104
1766811662230,-0.95166016,-0.3071289,-0.1640625,-13.061523,18.859863,-2.0141602,0.0,0.0,0.0,-129.16077,73.4491,14.37561
1766811662319,-0.99560547,-0.19189453,-0.14208984,6.5307617,9.82666,3.0517578,0.0,0.0,0.0,-129.16077,73.4491,14.37561
1766811662330,-0.99560547,-0.19189453,-0.14208984,6.5307617,9.82666,3.0517578,0.0,0.0,0.0,-132.50061,72.58118,11.211548
1766811662418,-1.0166016,-0.19970703,-0.15771484,-7.873535,10.620117,-1.7089844,0.0,0.0,0.0,-132.50061,72.58118,11.211548
1766811662430,-1.0166016,-0.19970703,-0.15771484,-7.873535,10.620117,-1.7089844,0.0,0.0,0.0,-134.79126,71.72424,9.047241
1766811662518,-0.984375,-0.25097656,-0.19189453,-8.605957,-0.8544922,-0.9765625,0.0,0.0,0.0,-134.79126,71.72424,9.047241
1766811662529,-0.984375,-0.25097656,-0.19189453,-8.605957,-0.8544922,-0.9765625,0.0,0.0,0.0,-135.98877,71.449585,8.668213
1766811662618,-0.98828125,-0.24414062,-0.2368164,5.432129,-7.8125,3.479004,0.0,0.0,0.0,-135.98877,71.449585,8.668213
1766811662629,-0.98828125,-0.24414062,-0.2368164,5.432129,-7.8125,3.479004,0.0,0.0,0.0,-134.63196,72.108765,10.283203
1766811662717,-0.90185547,-0.2529297,-0.17041016,1.5869141,-6.7749023,-1.2817383,0.0,0.0,0.0,-134.63196,72.108765,10.283203
1766811662729,-0.90185547,-0.2529297,-0.17041016,1.5869141,-6.7749023,-1.2817383,0.0,0.0,0.0,-133.26416,72.27356,11.700439
1766811662817,-0.9350586,-0.25195312,-0.2446289,14.709473,-7.1411133,0.36621094,0.0,0.0,0.0,-133.26416,72.27356,11.700439
1766811662828,-0.9350586,-0.25195312,-0.2446289,14.709473,-7.1411133,0.36621094,0.0,0.0,0.0,-129.35303,72.81189,14.458008
1766811662917,-0.86376953,-0.18945312,-0.21728516,12.451172,-2.5634766,3.112793,0.0,0.0,0.0,-129.35303,72.81189,14.458008
1766811662929,-0.86376953,-0.18945312,-0.21728516,12.451172,-2.5634766,3.112793,0.0,0.0,0.0,-127.96326,73.11951,14.699707
1766811663017,-1.0283203,-0.15234375,-0.31298828,7.6904297,-3.1738281,-4.638672,0.0,0.0,0.0,-127.96326,73.11951,14.699707
1766811663028,-1.0283203,-0.15234375,-0.31298828,7.6904297,-3.1738281,-4.638672,0.0,0.0,0.0,-126.09558,73.097534,15.661011
1766811663116,-0.84472656,-0.26171875,-0.111328125,-32.65381,13.427734,-9.033203,0.0,0.0,0.0,-126.09558,73.097534,15.661011
1766811663128,-0.84472656,-0.26171875,-0.111328125,-32.65381,13.427734,-9.033203,0.0,0.0,0.0,-131.8634,71.746216,11.914673
1766811663217,-1.0976562,-0.08105469,-0.14990234,-13.183594,22.827148,-2.319336,0.0,0.0,0.0,-131.8634,71.746216,11.914673
1766811663228,-1.0976562,-0.08105469,-0.14990234,-13.183594,22.827148,-2.319336,0.0,0.0,0.0,-133.72559,71.25183,9.602051
1766811663316,-0.87841797,-0.25830078,-0.25927734,-1.2817383,0.30517578,-0.9765625,0.0,0.0,0.0,-133.72559,71.25183,9.602051
1766811663328,-0.87841797,-0.25830078,-0.25927734,-1.2817383,0.30517578,-0.9765625,0.0,0.0,0.0,-136.99402,70.235596,7.5585938
1766811663416,-0.94873047,-0.18847656,-0.18408203,10.131836,-2.0141602,4.8828125,0.0,0.0,0.0,-136.99402,70.235596,7.5585938
1766811663427,-0.94873047,-0.18847656,-0.18408203,10.131836,-2.0141602,4.8828125,0.0,0.0,0.0,-135.77454,70.91675,7.7783203
1766811663515,-1.0942383,-0.21044922,-0.17529297,22.338867,-25.45166,4.8217773,0.0,0.0,0.0,-135.77454,70.91675,7.7783203
1766811663527,-1.0942383,-0.21044922,-0.17529297,22.338867,-25.45166,4.8217773,0.0,0.0,0.0,-133.3136,71.72974,9.486694
1766811663616,-0.8696289,-0.25683594,-0.25097656,3.6010742,-15.441895,0.24414062,0.0,0.0,0.0,-133.3136,71.72974,9.486694
1766811663627,-0.8696289,-0.25683594,-0.25097656,3.6010742,-15.441895,0.24414062,0.0,0.0,0.0,-127.161255,73.62488,14.309692
1766811663715,-0.9121094,-0.1665039,-0.16503906,6.591797,-17.39502,5.9814453,0.0,0.0,0.0,-127.161255,73.62488,14.309692
1766811663726,-0.9121094,-0.1665039,-0.16503906,6.591797,-17.39502,5.9814453,0.0,0.0,0.0,-124.92554,74.871826,16.68274
1766811663814,-0.90283203,-0.20410156,-0.14892578,-21.118164,4.4555664,5.3100586,0.0,0.0,0.0,-124.92554,74.871826,16.68274
1766811663826,-0.90283203,-0.20410156,-0.14892578,-21.118164,4.4555664,5.3100586,0.0,0.0,0.0,-124.37622,75.71228,17.891235
1766811663914,-0.9536133,-0.30615234,-0.24707031,0.8544922,-1.0986328,1.4648438,0.0,0.0,0.0,-124.37622,75.71228,17.891235
1766811663925,-0.9536133,-0.30615234,-0.24707031,0.8544922,-1.0986328,1.4648438,0.0,0.0,0.0,-124.93103,76.135254,17.924194
1766811664014,-0.9819336,-0.12158203,-0.13916016,6.286621,5.79834,5.1879883,0.0,0.0,0.0,-124.93103,76.135254,17.924194
1766811664025,-0.9819336,-0.12158203,-0.13916016,6.286621,5.79834,5.1879883,0.0,0.0,0.0,-127.67761,75.64087,15.26001
1766811664113,-0.9213867,-0.2788086,-0.140625,-13.366699,20.935059,-8.178711,0.0,0.0,0.0,-127.67761,75.64087,15.26001
1766811664125,-0.9213867,-0.2788086,-0.140625,-13.366699,20.935059,-8.178711,0.0,0.0,0.0,-133.42346,74.34448,10.145874
1766811664213,-0.99072266,-0.16455078,-0.1821289,0.48828125,14.770508,-3.7841797,0.0,0.0,0.0,-133.42346,74.34448,10.145874
1766811664225,-0.99072266,-0.16455078,-0.1821289,0.48828125,14.770508,-3.7841797,0.0,0.0,0.0,-135.3186,72.82837,8.173828
1766811664313,-0.9980469,-0.20605469,-0.19189453,-18.249512,16.296387,-4.8217773,0.0,0.0,0.0,-135.3186,72.82837,8.173828
1766811664324,-0.9980469,-0.20605469,-0.19189453,-18.249512,16.296387,-4.8217773,0.0,0.0,0.0,-139.05396,71.3562,5.3723145
1766811664413,-0.96875,-0.25195312,-0.23779297,-16.723633,2.380371,-5.79834,0.0,0.0,0.0,-139.05396,71.3562,5.3723145
1766811664424,-0.96875,-0.25195312,-0.23779297,-16.723633,2.380371,-5.79834,0.0,0.0,0.0,-141.11938,70.58716,4.86145
1766811664512,-1.0078125,-0.25048828,-0.25097656,2.6855469,-10.803223,2.0141602,0.0,0.0,0.0,-141.11938,70.58716,4.86145
1766811664524,-1.0078125,-0.25048828,-0.25097656,2.6855469,-10.803223,2.0141602,0.0,0.0,0.0,-138.79578,71.30127,7.492676
1766811664612,-0.90283203,-0.23046875,-0.19580078,10.437012,-15.74707,2.6245117,0.0,0.0,0.0,-138.79578,71.30127,7.492676
1766811664624,-0.90283203,-0.23046875,-0.19580078,10.437012,-15.74707,2.6245117,0.0,0.0,0.0,-137.04895,71.96594,9.316406
1766811664712,-0.91845703,-0.21289062,-0.26953125,27.46582,-15.869141,4.5776367,0.0,0.0,0.0,-137.04895,71.96594,9.316406
1766811664723,-0.91845703,-0.21289062,-0.26953125,27.46582,-15.869141,4.5776367,0.0,0.0,0.0,-131.17676,73.47656,13.062744
1766811664811,-0.8544922,-0.15820312,-0.23583984,4.5166016,0.5493164,-4.272461,0.0,0.0,0.0,-131.17676,73.47656,13.062744
1766811664823,-0.8544922,-0.15820312,-0.23583984,4.5166016,0.5493164,-4.272461,0.0,0.0,0.0,-129.63318,73.91052,13.145142
1766811664911,-1.059082,-0.16015625,-0.2475586,-3.90625,8.728027,-0.24414062,0.0,0.0,0.0,-129.63318,73.91052,13.145142
1766811664923,-1.059082,-0.16015625,-0.2475586,-3.90625,8.728027,-0.24414062,0.0,0.0,0.0,-128.60046,73.90503,13.568115
1766811665011,-0.91845703,-0.2548828,-0.18798828,-2.6245117,5.1879883,-5.9814453,0.0,0.0,0.0,-128.60046,73.90503,13.568115
1766811665022,-0.91845703,-0.2548828,-0.18798828,-2.6245117,5.1879883,-5.9814453,0.0,0.0,0.0,-134.4342,71.86157,9.959106
1766811665111,-0.9501953,-0.107910156,-0.21435547,-10.070801,8.605957,-4.760742,0.0,0.0,0.0,-134.4342,71.86157,9.959106
1766811665122,-0.9501953,-0.107910156,-0.21435547,-10.070801,8.605957,-4.760742,0.0,0.0,0.0,-132.95105,72.0813,10.673218
1766811665211,-0.98583984,-0.26464844,-0.14746094,-12.512207,13.671875,-5.6762695,0.0,0.0,0.0,-132.95105,72.0813,10.673218
1766811665222,-0.98583984,-0.26464844,-0.14746094,-12.512207,13.671875,-5.6762695,0.0,0.0,0.0,-137.75208,70.48828,7.4816895
1766811665310,-0.9868164,-0.20800781,-0.18115234,7.080078,-1.2817383,-0.12207031,0.0,0.0,0.0,-137.75208,70.48828,7.4816895
1766811665321,-0.9868164,-0.20800781,-0.18115234,7.080078,-1.2817383,-0.12207031,0.0,0.0,0.0,-137.13684,70.53772,7.2784424
1766811665410,-0.9941406,-0.20361328,-0.19628906,17.211914,-16.845703,7.6293945,0.0,0.0,0.0,-137.13684,70.53772,7.2784424
1766811665421,-0.9941406,-0.20361328,-0.19628906,17.211914,-16.845703,7.6293945,0.0,0.0,0.0,-134.4342,71.449585,8.909912
1766811665509,-0.9614258,-0.24560547,-0.23876953,7.8125,-11.413574,-0.36621094,0.0,0.0,0.0,-134.4342,71.449585,8.909912
1766811665521,-0.9614258,-0.24560547,-0.23876953,7.8125,-11.413574,-0.36621094,0.0,0.0,0.0,-130.61096,72.76245,11.491699
1766811665609,-0.9301758,-0.1381836,-0.1586914,-7.385254,-6.652832,7.8125,0.0,0.0,0.0,-130.61096,72.76245,11.491699
1766811665620,-0.9301758,-0.1381836,-0.1586914,-7.385254,-6.652832,7.8125,0.0,0.0,0.0,-129.48486,73.89404,12.55188
1766811665709,-0.921875,-0.19384766,-0.19091797,-8.300781,-3.6010742,6.286621,0.0,0.0,0.0,-129.48486,73.89404,12.55188
1766811665723,-0.921875,-0.19384766,-0.19091797,-8.300781,-3.6010742,6.286621,0.0,0.0,0.0,-130.03418,74.62463,12.832031
1766811665809,-0.8955078,-0.2607422,-0.24511719,-1.5869141,2.0141602,4.0283203,0.0,0.0,0.0,-130.03418,74.62463,12.832031
1766811665820,-0.8955078,-0.2607422,-0.24511719,-1.5869141,2.0141602,4.0283203,0.0,0.0,0.0,-131.59973,75.097046,11.766357
1766811665909,-1.0161133,-0.140625,-0.1850586,1.3427734,7.507324,6.3476562,0.0,0.0,0.0,-131.59973,75.097046,11.766357
1766811665920,-1.0161133,-0.140625,-0.1850586,1.3427734,7.507324,6.3476562,0.0,0.0,0.0,-135.04395,74.52026,8.563843
1766811666010,-0.91259766,-0.2475586,-0.20654297,-15.74707,18.249512,-2.1362305,0.0,0.0,0.0,-135.04395,74.52026,8.563843
1766811666021,-0.91259766,-0.2475586,-0.20654297,-15.74707,18.249512,-2.1362305,0.0,0.0,0.0,-138.91113,73.89404,5.0427246
1766811666108,-0.9428711,-0.20605469,-0.21728516,13.366699,8.300781,-0.4272461,0.0,0.0,0.0,-138.91113,73.89404,5.0427246
1766811666119,-0.9428711,-0.20605469,-0.21728516,13.366699,8.300781,-0.4272461,0.0,0.0,0.0,-141.19629,72.614136,2.9718018
1766811666207,-0.9692383,-0.19873047,-0.19238281,-8.361816,19.28711,-4.638672,0.0,0.0,0.0,-141.19629,72.614136,2.9718018
1766811666219,-0.9692383,-0.19873047,-0.19238281,-8.361816,19.28711,-4.638672,0.0,0.0,0.0,-142.64648,71.1969,1.3568115
1766811666307,-1.0068359,-0.24023438,-0.26220703,-6.713867,-2.9296875,-3.6010742,0.0,0.0,0.0,-142.64648,71.1969,1.3568115
1766811666319,-1.0068359,-0.24023438,-0.26220703,-6.713867,-2.9296875,-3.6010742,0.0,0.0,0.0,-143.47595,70.36194,0.95581055
1766811666408,-1.0629883,-0.24023438,-0.24511719,-3.112793,-34.484863,0.91552734,0.0,0.0,0.0,-143.47595,70.36194,0.95581055
1766811666419,-1.0629883,-0.24023438,-0.24511719,-3.112793,-34.484863,0.91552734,0.0,0.0,0.0,-140.27344,71.658325,4.9438477
1766811666507,-0.9091797,-0.19970703,-0.14013672,-10.864258,0.061035156,-4.333496,0.0,0.0,0.0,-140.27344,71.658325,4.9438477
1766811666518,-0.9091797,-0.19970703,-0.14013672,-10.864258,0.061035156,-4.333496,0.0,0.0,0.0,-136.11511,73.25134,9.019775
1766811666606,-0.90478516,-0.28710938,-0.26171875,27.893066,-4.9438477,-4.5776367,0.0,0.0,0.0,-136.11511,73.25134,9.019775
1766811666618,-0.90478516,-0.28710938,-0.26171875,27.893066,-4.9438477,-4.5776367,0.0,0.0,0.0,-132.12708,73.32825,12.139893
1766811666706,-0.9082031,-0.07421875,-0.2758789,25.634766,2.5024414,-5.065918,0.0,0.0,0.0,-132.12708,73.32825,12.139893
1766811666717,-0.9082031,-0.07421875,-0.2758789,25.634766,2.5024414,-5.065918,0.0,0.0,0.0,-130.16602,72.95471,11.645508
1766811666806,-1.0175781,-0.21142578,-0.2529297,-1.953125,20.812988,-0.7324219,0.0,0.0,0.0,-130.16602,72.95471,11.645508
1766811666817,-1.0175781,-0.21142578,-0.2529297,-1.953125,20.812988,-0.7324219,0.0,0.0,0.0,-131.25366,71.971436,9.475708
1766811666905,-0.92529297,-0.15722656,-0.19824219,5.859375,3.112793,-2.0141602,0.0,0.0,0.0,-131.25366,71.971436,9.475708
1766811666917,-0.92529297,-0.15722656,-0.19824219,5.859375,3.112793,-2.0141602,0.0,0.0,0.0,-132.65442,70.88379,8.393555
1766811667005,-0.95410156,-0.21972656,-0.21972656,-7.9345703,15.258789,0.12207031,0.0,0.0,0.0,-132.65442,70.88379,8.393555
1766811667018,-0.95410156,-0.21972656,-0.21972656,-7.9345703,15.258789,0.12207031,0.0,0.0,0.0,-135.86243,70.252075,5.685425
1766811667105,-1.0136719,-0.19140625,-0.2084961,-7.6293945,12.634277,-1.5258789,0.0,0.0,0.0,-135.86243,70.252075,5.685425
1766811667116,-1.0136719,-0.19140625,-0.2084961,-7.6293945,12.634277,-1.5258789,0.0,0.0,0.0,-138.95508,69.23035,2.9718018
1766811667205,-0.96240234,-0.2133789,-0.22314453,0.48828125,-7.2631836,0.8544922,0.0,0.0,0.0,-138.95508,69.23035,2.9718018
1766811667216,-0.96240234,-0.2133789,-0.22314453,0.48828125,-7.2631836,0.8544922,0.0,0.0,0.0,-138.6914,69.45557,3.416748
1766811667304,-1.0102539,-0.2265625,-0.203125,3.4179688,-20.019531,1.8310547,0.0,0.0,0.0,-138.6914,69.45557,3.416748
1766811667316,-1.0102539,-0.2265625,-0.203125,3.4179688,-20.019531,1.8310547,0.0,0.0,0.0,-135.73059,70.718994,6.256714
1766811667404,-0.8261719,-0.13476562,-0.24121094,-5.554199,-17.700195,0.5493164,0.0,0.0,0.0,-135.73059,70.718994,6.256714
1766811667416,-0.8261719,-0.13476562,-0.24121094,-5.554199,-17.700195,0.5493164,0.0,0.0,0.0,-128.86963,72.54822,12.694702
1766811667504,-0.9458008,-0.22167969,-0.24072266,5.3100586,-22.277832,6.3476562,0.0,0.0,0.0,-128.86963,72.54822,12.694702
1766811667515,-0.9458008,-0.22167969,-0.24072266,5.3100586,-22.277832,6.3476562,0.0,0.0,0.0,-126.16699,73.965454,16.001587
1766811667603,-0.89697266,-0.21142578,-0.16699219,-14.282227,-1.0986328,9.155273,0.0,0.0,0.0,-126.16699,73.965454,16.001587
1766811667615,-0.89697266,-0.21142578,-0.16699219,-14.282227,-1.0986328,9.155273,0.0,0.0,0.0,-127.38098,74.77844,15.968628
1766811667703,-1.0268555,-0.24609375,-0.19482422,6.591797,-5.493164,6.3476562,0.0,0.0,0.0,-127.38098,74.77844,15.968628
1766811667715,-1.0268555,-0.24609375,-0.19482422,6.591797,-5.493164,6.3476562,0.0,0.0,0.0,-127.21619,75.46509,16.067505
1766811667803,-0.93310547,-0.21484375,-0.11767578,-5.79834,8.544922,4.1503906,0.0,0.0,0.0,-127.21619,75.46509,16.067505
1766811667814,-0.93310547,-0.21484375,-0.11767578,-5.79834,8.544922,4.1503906,0.0,0.0,0.0,-130.13306,75.64087,13.238525
1766811667903,-0.9448242,-0.21044922,-0.15283203,-4.8217773,6.7749023,-4.5166016,0.0,0.0,0.0,-130.13306,75.64087,13.238525
1766811667914,-0.9448242,-0.21044922,-0.15283203,-4.8217773,6.7749023,-4.5166016,0.0,0.0,0.0,-131.27014,74.94873,12.453003
1766811668003,-0.9609375,-0.234375,-0.119628906,-13.183594,9.094238,-4.8828125,0.0,0.0,0.0,-131.27014,74.94873,12.453003
1766811668014,-0.9609375,-0.234375,-0.119628906,-13.183594,9.094238,-4.8828125,0.0,0.0,0.0,-133.60474,74.02588,11.304932
1766811668102,-0.9746094,-0.23730469,-0.1694336,-8.666992,7.3242188,-5.79834,0.0,0.0,0.0,-133.60474,74.02588,11.304932
1766811668113,-0.9746094,-0.23730469,-0.1694336,-8.666992,7.3242188,-5.79834,0.0,0.0,0.0,-134.50012,72.99866,11.337891
1766811668202,-1.1142578,-0.27246094,-0.23242188,-1.3427734,-9.643555,-11.71875,0.0,0.0,0.0,-134.50012,72.99866,11.337891
1766811668213,-1.1142578,-0.27246094,-0.23242188,-1.3427734,-9.643555,-11.71875,0.0,0.0,0.0,-132.76428,72.58118,13.782349
1766811668301,-1.0019531,-0.19873047,-0.16357422,-27.22168,7.507324,-11.779785,0.0,0.0,0.0,-132.76428,72.58118,13.782349
1766811668313,-1.0019531,-0.19873047,-0.16357422,-27.22168,7.507324,-11.779785,0.0,0.0,0.0,-132.65442,71.60889,14.946899
1766811668401,-0.8330078,-0.2607422,-0.29589844,-3.8452148,0.24414062,-8.117676,0.0,0.0,0.0,-132.65442,71.60889,14.946899
1766811668413,-0.8330078,-0.2607422,-0.29589844,-3.8452148,0.24414062,-8.117676,0.0,0.0,0.0,-131.67114,70.82886,16.913452
1766811668501,-0.9296875,-0.15625,-0.27441406,1.6479492,10.498047,-4.211426,0.0,0.0,0.0,-131.67114,70.82886,16.913452
1766811668512,-0.9296875,-0.15625,-0.27441406,1.6479492,10.498047,-4.211426,0.0,0.0,0.0,-132.13806,70.14221,15.968628
1766811668601,-1.0083008,-0.25927734,-0.19726562,-13.427734,17.944336,-3.540039,0.0,0.0,0.0,-132.13806,70.14221,15.968628
1766811668612,-1.0083008,-0.25927734,-0.19726562,-13.427734,17.944336,-3.540039,0.0,0.0,0.0,-135.99426,68.71399,12.403564
1766811668700,-0.8964844,-0.18896484,-0.24414062,7.3242188,-6.7749023,1.8310547,0.0,0.0,0.0,-135.99426,68.71399,12.403564
1766811668712,-0.8964844,-0.18896484,-0.24414062,7.3242188,-6.7749023,1.8310547,0.0,0.0,0.0,-135.18677,68.703,12.963867
1766811668800,-0.9790039,-0.23632812,-0.25097656,-9.216309,8.972168,-0.6713867,0.0,0.0,0.0,-135.18677,68.703,12.963867
1766811668811,-0.9790039,-0.23632812,-0.25097656,-9.216309,8.972168,-0.6713867,0.0,0.0,0.0,-136.73035,68.395386,11.832275
1766811668900,-0.95751953,-0.20410156,-0.2475586,-6.0424805,0.61035156,-0.61035156,0.0,0.0,0.0,-136.73035,68.395386,11.832275
1766811668911,-0.95751953,-0.20410156,-0.2475586,-6.0424805,0.61035156,-0.61035156,0.0,0.0,0.0,-137.50488,68.323975,11.167603
1766811668999,-0.98779297,-0.2626953,-0.24511719,0.0,-6.5307617,0.8544922,0.0,0.0,0.0,-137.50488,68.323975,11.167603
1766811669011,-0.98779297,-0.2626953,-0.24511719,0.0,-6.5307617,0.8544922,0.0,0.0,0.0,-138.56506,68.48877,10.568848
1766811669099,-1.0019531,-0.21777344,-0.203125,0.12207031,-10.681152,5.004883,0.0,0.0,0.0,-138.56506,68.48877,10.568848
1766811669111,-1.0019531,-0.21777344,-0.203125,0.12207031,-10.681152,5.004883,0.0,0.0,0.0,-137.02698,69.81262,11.403809
1766811669199,-0.8955078,-0.1796875,-0.23828125,0.5493164,-12.939453,5.493164,0.0,0.0,0.0,-137.02698,69.81262,11.403809
1766811669210,-0.8955078,-0.1796875,-0.23828125,0.5493164,-12.939453,5.493164,0.0,0.0,0.0,-134.34082,71.02112,13.579102
1766811669299,-0.8496094,-0.2758789,-0.29736328,-7.9345703,-7.2021484,4.4555664,0.0,0.0,0.0,-134.34082,71.02112,13.579102
1766811669310,-0.8496094,-0.2758789,-0.29736328,-7.9345703,-7.2021484,4.4555664,0.0,0.0,0.0,-133.90137,72.26257,14.518433
1766811669398,-1.0322266,-0.32373047,-0.30029297,7.873535,2.380371,9.765625,0.0,0.0,0.0,-133.90137,72.26257,14.518433
1766811669410,-1.0322266,-0.32373047,-0.30029297,7.873535,2.380371,9.765625,0.0,0.0,0.0,-136.34583,72.284546,12.463989
1766811669498,-0.921875,-0.15576172,-0.24658203,5.7373047,12.390137,5.9814453,0.0,0.0,0.0,-136.34583,72.284546,12.463989
1766811669510,-0.921875,-0.15576172,-0.24658203,5.7373047,12.390137,5.9814453,0.0,0.0,0.0,-137.53235,72.559204,9.4592285
1766811669598,-0.9370117,-0.26660156,-0.24316406,15.869141,4.3945312,1.6479492,0.0,0.0,0.0,-137.53235,72.559204,9.4592285
1766811669610,-0.9370117,-0.26660156,-0.24316406,15.869141,4.3945312,1.6479492,0.0,0.0,0.0,-140.07019,71.47705,6.366577
1766811669697,-0.9472656,-0.21679688,-0.22021484,3.0517578,10.192871,-0.4272461,0.0,0.0,0.0,-140.07019,71.47705,6.366577
1766811669709,-0.9472656,-0.21679688,-0.22021484,3.0517578,10.192871,-0.4272461,0.0,0.0,0.0,-140.36133,71.10901,4.685669
1766811669797,-0.9423828,-0.23779297,-0.2290039,8.178711,7.3242188,-0.24414062,0.0,0.0,0.0,-140.36133,71.10901,4.685669
1766811669809,-0.9423828,-0.23779297,-0.2290039,8.178711,7.3242188,-0.24414062,0.0,0.0,0.0,-140.55359,70.60913,3.6914062
1766811669897,-0.97998047,-0.27001953,-0.23779297,10.314941,-0.7324219,-3.2348633,0.0,0.0,0.0,-140.55359,70.60913,3.6914062
1766811669908,-0.97998047,-0.27001953,-0.23779297,10.314941,-0.7324219,-3.2348633,0.0,0.0,0.0,-139.86145,70.13672,3.5266113
1766811669996,-1.0019531,-0.2607422,-0.2890625,10.375977,-2.9296875,-5.2490234,0.0,0.0,0.0,-139.86145,70.13672,3.5266113
1766811670008,-1.0019531,-0.2607422,-0.2890625,10.375977,-2.9296875,-5.2490234,0.0,0.0,0.0,-136.13159,70.27954,6.3116455
1766811670096,-0.8964844,-0.1430664,-0.22851562,-0.8544922,-3.3569336,-2.380371,0.0,0.0,0.0,-136.13159,70.27954,6.3116455
1766811670108,-0.8964844,-0.1430664,-0.22851562,-0.8544922,-3.3569336,-2.380371,0.0,0.0,0.0,-135.03845,70.147705,7.7508545
1766811670196,-0.8564453,-0.23144531,-0.3149414,9.94873,-1.0375977,-3.540039,0.0,0.0,0.0,-135.03845,70.147705,7.7508545
1766811670207,-0.8564453,-0.23144531,-0.3149414,9.94873,-1.0375977,-3.540039,0.0,0.0,0.0,-133.99475,69.8291,8.942871
1766811670296,-0.97265625,-0.18896484,-0.28808594,4.272461,7.873535,-6.0424805,0.0,0.0,0.0,-133.99475,69.8291,8.942871
1766811670307,-0.97265625,-0.18896484,-0.28808594,4.272461,7.873535,-6.0424805,0.0,0.0,0.0,-132.76978,69.52698,8.931885
1766811670395,-0.9501953,-0.22851562,-0.24414062,-3.7231445,4.5776367,-3.479004,0.0,0.0,0.0,-132.76978,69.52698,8.931885
1766811670407,-0.9501953,-0.22851562,-0.24414062,-3.7231445,4.5776367,-3.479004,0.0,0.0,0.0,-135.27466,68.637085,6.8389893
1766811670495,-0.95703125,-0.17236328,-0.234375,-7.446289,6.958008,0.4272461,0.0,0.0,0.0,-135.27466,68.637085,6.8389893
1766811670506,-0.95703125,-0.17236328,-0.234375,-7.446289,6.958008,0.4272461,0.0,0.0,0.0,-136.08215,68.4613,6.1358643
1766811670595,-0.9301758,-0.25683594,-0.23144531,1.5258789,4.333496,-1.7700195,0.0,0.0,0.0,-136.08215,68.4613,6.1358643
1766811670607,-0.9301758,-0.25683594,-0.23144531,1.5258789,4.333496,-1.7700195,0.0,0.0,0.0,-138.01575,67.96692,4.883423
1766811670694,-0.9667969,-0.23291016,-0.25634766,-8.605957,8.300781,-3.6621094,0.0,0.0,0.0,-138.01575,67.96692,4.883423
1766811670706,-0.9667969,-0.23291016,-0.25634766,-8.605957,8.300781,-3.6621094,0.0,0.0,0.0,-138.4497,67.52197,4.421997
1766811670794,-0.9916992,-0.23144531,-0.26757812,4.8217773,-5.493164,2.319336,0.0,0.0,0.0,-138.4497,67.52197,4.421997
1766811670806,-0.9916992,-0.23144531,-0.26757812,4.8217773,-5.493164,2.319336,0.0,0.0,0.0,-139.14185,67.36267,3.9935303
1766811670895,-1.0605469,-0.32910156,-0.26611328,4.4555664,-14.770508,3.479004,0.0,0.0,0.0,-139.14185,67.36267,3.9935303
1766811670906,-1.0605469,-0.32910156,-0.26611328,4.4555664,-14.770508,3.479004,0.0,0.0,0.0,-138.16956,68.532715,4.389038
1766811670994,-0.890625,-0.09375,-0.2055664,3.4179688,-16.235352,12.023926,0.0,0.0,0.0,-138.16956,68.532715,4.389038
1766811671005,-0.890625,-0.09375,-0.2055664,3.4179688,-16.235352,12.023926,0.0,0.0,0.0,-135.86243,69.84558,6.2127686
1766811671093,-0.91064453,-0.25976562,-0.3149414,1.2207031,-16.967773,1.2207031,0.0,0.0,0.0,-135.86243,69.84558,6.2127686
1766811671105,-0.91064453,-0.25976562,-0.3149414,1.2207031,-16.967773,1.2207031,0.0,0.0,0.0,-134.73633,71.41113,7.6135254
1766811671193,-0.88378906,-0.16748047,-0.22558594,-7.2631836,-0.7324219,11.84082,0.0,0.0,0.0,-134.73633,71.41113,7.6135254
1766811671205,-0.88378906,-0.16748047,-0.22558594,-7.2631836,-0.7324219,11.84082,0.0,0.0,0.0,-135.45044,72.66907,7.2564697
1766811671293,-0.9506836,-0.28271484,-0.3330078,10.314941,3.112793,11.474609,0.0,0.0,0.0,-135.45044,72.66907,7.2564697
1766811671304,-0.9506836,-0.28271484,-0.3330078,10.314941,3.112793,11.474609,0.0,0.0,0.0,-137.63123,72.55371,5.0811768
1766811671392,-0.9213867,-0.19433594,-0.24072266,-10.131836,22.888184,0.061035156,0.0,0.0,0.0,-137.63123,72.55371,5.0811768
1766811671404,-0.9213867,-0.19433594,-0.24072266,-10.131836,22.888184,0.061035156,0.0,0.0,0.0,-141.93237,71.99341,0.1373291
1766811671492,-0.9472656,-0.23388672,-0.23779297,10.559082,10.986328,6.0424805,0.0,0.0,0.0,-141.93237,71.99341,0.1373291
1766811671504,-0.9472656,-0.23388672,-0.23779297,10.559082,10.986328,6.0424805,0.0,0.0,0.0,-144.89868,70.81787,-3.1420898
1766811671592,-0.96875,-0.20117188,-0.25634766,-7.2021484,12.268066,-0.8544922,0.0,0.0,0.0,-144.89868,70.81787,-3.1420898
1766811671604,-0.96875,-0.20117188,-0.25634766,-7.2021484,12.268066,-0.8544922,0.0,0.0,0.0,-146.83777,70.10376,-5.2734375
1766811671692,-0.99560547,-0.2133789,-0.28564453,-5.126953,-1.4038086,-5.3100586,0.0,0.0,0.0,-146.83777,70.10376,-5.2734375
1766811671703,-0.99560547,-0.2133789,-0.28564453,-5.126953,-1.4038086,-5.3100586,0.0,0.0,0.0,-146.9751,69.66431,-4.7735596
1766811671791,-1.0698242,-0.21875,-0.22216797,-8.422852,-20.446777,-7.751465,0.0,0.0,0.0,-146.9751,69.66431,-4.7735596
1766811671803,-1.0698242,-0.21875,-0.22216797,-8.422852,-20.446777,-7.751465,0.0,0.0,0.0,-144.60205,70.25757,-1.2524414
1766811671891,-0.82470703,-0.19482422,-0.23144531,-6.958008,-4.638672,-0.79345703,0.0,0.0,0.0,-144.60205,70.25757,-1.2524414
1766811671903,-0.82470703,-0.19482422,-0.23144531,-6.958008,-4.638672,-0.79345703,0.0,0.0,0.0,-141.2622,71.26831,2.4279785
1766811671991,-0.95458984,-0.27539062,-0.29101562,26.97754,-14.6484375,0.24414062,0.0,0.0,0.0,-141.2622,71.26831,2.4279785
1766811672003,-0.95458984,-0.27539062,-0.29101562,26.97754,-14.6484375,0.24414062,0.0,0.0,0.0,-136.61499,72.08679,6.1523438
1766811672091,-0.8745117,-0.110839844,-0.25048828,20.446777,-6.7749023,-2.0751953,0.0,0.0,0.0,-136.61499,72.08679,6.1523438
1766811672102,-0.8745117,-0.110839844,-0.25048828,20.446777,-6.7749023,-2.0751953,0.0,0.0,0.0,-133.62671,72.18567,7.168579
1766811672190,-1.0444336,-0.21142578,-0.25390625,-7.751465,2.319336,-6.4086914,0.0,0.0,0.0,-133.62671,72.18567,7.168579
1766811672202,-1.0444336,-0.21142578,-0.25390625,-7.751465,2.319336,-6.4086914,0.0,0.0,0.0,-131.77002,72.07031,8.382568
1766811672290,-0.90185547,-0.18164062,-0.19726562,-12.451172,-0.30517578,-11.169434,0.0,0.0,0.0,-131.77002,72.07031,8.382568
1766811672301,-0.90185547,-0.18164062,-0.19726562,-12.451172,-0.30517578,-11.169434,0.0,0.0,0.0,-131.02295,71.29028,10.343628
1766811672390,-0.953125,-0.17822266,-0.20751953,-19.104004,7.446289,-5.859375,0.0,0.0,0.0,-131.02295,71.29028,10.343628
1766811672401,-0.953125,-0.17822266,-0.20751953,-19.104004,7.446289,-5.859375,0.0,0.0,0.0,-132.28638,70.5542,10.706177
1766811672489,-0.93896484,-0.24121094,-0.20996094,-13.916016,10.681152,-5.2490234,0.0,0.0,0.0,-132.28638,70.5542,10.706177
1766811672501,-0.93896484,-0.24121094,-0.20996094,-13.916016,10.681152,-5.2490234,0.0,0.0,0.0,-134.98901,69.609375,9.547119
1766811672589,-0.97558594,-0.25,-0.20507812,0.30517578,1.4038086,1.8920898,0.0,0.0,0.0,-134.98901,69.609375,9.547119
1766811672601,-0.97558594,-0.25,-0.20507812,0.30517578,1.4038086,1.8920898,0.0,0.0,0.0,-135.8789,69.191895,9.1571045
1766811672689,-0.95410156,-0.22216797,-0.22851562,11.71875,-7.9956055,9.094238,0.0,0.0,0.0,-135.8789,69.191895,9.1571045
1766811672700,-0.95410156,-0.22216797,-0.22851562,11.71875,-7.9956055,9.094238,0.0,0.0,0.0,-134.93958,70.076294,9.250488
1766811672789,-0.92822266,-0.24267578,-0.24414062,7.3242188,-8.605957,5.3710938,0.0,0.0,0.0,-134.93958,70.076294,9.250488
1766811672800,-0.92822266,-0.24267578,-0.24414062,7.3242188,-8.605957,5.3710938,0.0,0.0,0.0,-133.61572,71.02112,9.640503
1766811672888,-0.9223633,-0.15527344,-0.2163086,-0.12207031,-12.207031,10.559082,0.0,0.0,0.0,-133.61572,71.02112,9.640503
1766811672900,-0.9223633,-0.15527344,-0.2163086,-0.12207031,-12.207031,10.559082,0.0,0.0,0.0,-132.91809,72.54822,10.074463
1766811672988,-0.9086914,-0.19580078,-0.18017578,-13.427734,-4.4555664,6.652832,0.0,0.0,0.0,-132.91809,72.54822,10.074463
1766811672999,-0.9086914,-0.19580078,-0.18017578,-13.427734,-4.4555664,6.652832,0.0,0.0,0.0,-133.65967,73.707275,10.085449
1766811673088,-0.9296875,-0.28222656,-0.27685547,-1.4038086,-1.953125,6.0424805,0.0,0.0,0.0,-133.65967,73.707275,10.085449
1766811673099,-0.9296875,-0.28222656,-0.27685547,-1.4038086,-1.953125,6.0424805,0.0,0.0,0.0,-134.34082,74.63562,9.7229
1766811673187,-1.0112305,-0.10986328,-0.16601562,11.108398,0.7324219,8.728027,0.0,0.0,0.0,-134.34082,74.63562,9.7229
1766811673199,-1.0112305,-0.10986328,-0.16601562,11.108398,0.7324219,8.728027,0.0,0.0,0.0,-136.59302,74.51477,7.1411133
1766811673287,-0.93359375,-0.25146484,-0.18115234,-4.333496,9.521484,-0.36621094,0.0,0.0,0.0,-136.59302,74.51477,7.1411133
1766811673299,-0.93359375,-0.25146484,-0.18115234,-4.333496,9.521484,-0.36621094,0.0,0.0,0.0,-139.69666,73.99841,4.053955
1766811673387,-0.9663086,-0.17529297,-0.18652344,8.666992,3.6010742,4.760742,0.0,0.0,0.0,-139.69666,73.99841,4.053955
1766811673398,-0.9663086,-0.17529297,-0.18652344,8.666992,3.6010742,4.760742,0.0,0.0,0.0,-140.44922,73.72925,2.6971436
1766811673487,-0.9770508,-0.203125,-0.18798828,-9.033203,12.390137,-2.6855469,0.0,0.0,0.0,-140.44922,73.72925,2.6971436
1766811673498,-0.9770508,-0.203125,-0.18798828,-9.033203,12.390137,-2.6855469,0.0,0.0,0.0,-142.34436,73.125,0.99975586
1766811673586,-1.0239258,-0.22558594,-0.26660156,-3.9672852,8.728027,-6.4697266,0.0,0.0,0.0,-142.34436,73.125,0.99975586
1766811673598,-1.0239258,-0.22558594,-0.26660156,-3.9672852,8.728027,-6.4697266,0.0,0.0,0.0,-143.12439,72.03735,0.5163574
1766811673686,-0.9824219,-0.20410156,-0.17041016,-4.3945312,-10.559082,-4.638672,0.0,0.0,0.0,-143.12439,72.03735,0.5163574
1766811673698,-0.9824219,-0.20410156,-0.17041016,-4.3945312,-10.559082,-4.638672,0.0,0.0,0.0,-142.6355,71.433105,2.0269775
1766811673786,-0.82714844,-0.21826172,-0.2529297,1.5258789,1.953125,-0.9765625,0.0,0.0,0.0,-142.6355,71.433105,2.0269775
1766811673797,-0.82714844,-0.21826172,-0.2529297,1.5258789,1.953125,-0.9765625,0.0,0.0,0.0,-140.02625,71.91101,4.350586
1766811673885,-0.9814453,-0.20654297,-0.24121094,25.20752,-2.6245117,3.4179688,0.0,0.0,0.0,-140.02625,71.91101,4.350586
1766811673897,-0.9814453,-0.20654297,-0.24121094,25.20752,-2.6245117,3.4179688,0.0,0.0,0.0,-138.31238,71.762695,5.218506
1766811673985,-0.88916016,-0.07373047,-0.28320312,17.028809,-6.8359375,-1.2207031,0.0,0.0,0.0,-138.31238,71.762695,5.218506
1766811673997,-0.88916016,-0.07373047,-0.28320312,17.028809,-6.8359375,-1.2207031,0.0,0.0,0.0,-135.8899,71.92749,5.559082
1766811674085,-0.9975586,-0.26123047,-0.27197266,-21.484375,9.277344,-5.004883,0.0,0.0,0.0,-135.8899,71.92749,5.559082
1766811674098,-0.9975586,-0.26123047,-0.27197266,-21.484375,9.277344,-5.004883,0.0,0.0,0.0,-137.07642,71.795654,4.7735596
1766811674185,-0.9379883,-0.15478516,-0.25634766,-1.4038086,-14.282227,-9.460449,0.0,0.0,0.0,-137.07642,71.795654,4.7735596
1766811674196,-0.9379883,-0.15478516,-0.25634766,-1.4038086,-14.282227,-9.460449,0.0,0.0,0.0,-135.6372,71.18591,8.201294
1766811674284,-0.9248047,-0.2055664,-0.22998047,-24.108887,8.178711,-6.958008,0.0,0.0,0.0,-135.6372,71.18591,8.201294
1766811674296,-0.9248047,-0.2055664,-0.22998047,-24.108887,8.178711,-6.958008,0.0,0.0,0.0,-135.17029,70.97717,10.184326
1766811674384,-0.94140625,-0.23779297,-0.24267578,6.0424805,0.4272461,-1.7089844,0.0,0.0,0.0,-135.17029,70.97717,10.184326
1766811674395,-0.94140625,-0.23779297,-0.24267578,6.0424805,0.4272461,-1.7089844,0.0,0.0,0.0,-136.22498,70.27405,10.217285
1766811674484,-0.95654297,-0.2475586,-0.22802734,-0.9765625,7.385254,-1.5869141,0.0,0.0,0.0,-136.22498,70.27405,10.217285
1766811674495,-0.95654297,-0.2475586,-0.22802734,-0.9765625,7.385254,-1.5869141,0.0,0.0,0.0,-136.88965,69.77966,9.387817
1766811674583,-0.9838867,-0.23730469,-0.18261719,14.160156,-2.380371,5.3710938,0.0,0.0,0.0,-136.88965,69.77966,9.387817
1766811674595,-0.9838867,-0.23730469,-0.18261719,14.160156,-2.380371,5.3710938,0.0,0.0,0.0,-136.85669,69.93347,8.305664
1766811674683,-1.0307617,-0.23046875,-0.22705078,18.676758,-14.6484375,4.9438477,0.0,0.0,0.0,-136.85669,69.93347,8.305664
1766811674695,-1.0307617,-0.23046875,-0.22705078,18.676758,-14.6484375,4.9438477,0.0,0.0,0.0,-134.63196,70.911255,8.7561035
1766811674783,-0.9213867,-0.123046875,-0.13964844,-9.033203,-13.671875,6.286621,0.0,0.0,0.0,-134.63196,70.911255,8.7561035
1766811674794,-0.9213867,-0.123046875,-0.13964844,-9.033203,-13.671875,6.286621,0.0,0.0,0.0,-132.20947,72.20764,10.321655
1766811674883,-0.90771484,-0.2421875,-0.2133789,-9.155273,-9.58252,5.92041,0.0,0.0,0.0,-132.20947,72.20764,10.321655
1766811674894,-0.90771484,-0.2421875,-0.2133789,-9.155273,-9.58252,5.92041,0.0,0.0,0.0,-130.97351,73.844604,12.496948
1766811674982,-0.92578125,-0.26416016,-0.23876953,9.82666,-2.0751953,8.850098,0.0,0.0,0.0,-130.97351,73.844604,12.496948
1766811674994,-0.92578125,-0.26416016,-0.23876953,9.82666,-2.0751953,8.850098,0.0,0.0,0.0,-131.2976,74.43237,12.65625
1766811675082,-0.99316406,-0.14794922,-0.23291016,3.0517578,8.7890625,6.8969727,0.0,0.0,0.0,-131.2976,74.43237,12.65625
1766811675093,-0.99316406,-0.14794922,-0.23291016,3.0517578,8.7890625,6.8969727,0.0,0.0,0.0,-132.594,74.6521,10.211792
1766811675182,-0.9189453,-0.22509766,-0.18603516,-4.3945312,14.404297,1.4648438,0.0,0.0,0.0,-132.594,74.6521,10.211792
1766811675194,-0.9189453,-0.22509766,-0.18603516,-4.3945312,14.404297,1.4648438,0.0,0.0,0.0,-138.38379,73.85559,4.713135
1766811675281,-0.97558594,-0.17041016,-0.18164062,5.554199,7.446289,1.8920898,0.0,0.0,0.0,-138.38379,73.85559,4.713135
1766811675293,-0.97558594,-0.17041016,-0.18164062,5.554199,7.446289,1.8920898,0.0,0.0,0.0,-140.55908,73.16345,2.0819092
1766811675381,-0.9946289,-0.18798828,-0.1850586,-3.9672852,9.033203,-3.2958984,0.0,0.0,0.0,-140.55908,73.16345,2.0819092
1766811675393,-0.9946289,-0.18798828,-0.1850586,-3.9672852,9.033203,-3.2958984,0.0,0.0,0.0,-141.6742,72.647095,0.80200195
1766811675481,-0.98828125,-0.21484375,-0.2290039,-7.507324,10.498047,-7.6904297,0.0,0.0,0.0,-141.6742,72.647095,0.80200195
1766811675492,-0.98828125,-0.21484375,-0.2290039,-7.507324,10.498047,-7.6904297,0.0,0.0,0.0,-142.0752,71.71875,0.81848145
1766811675580,-0.9873047,-0.23242188,-0.17822266,-13.73291,-0.5493164,-4.5776367,0.0,0.0,0.0,-142.0752,71.71875,0.81848145
1766811675592,-0.9873047,-0.23242188,-0.17822266,-13.73291,-0.5493164,-4.5776367,0.0,0.0,0.0,-141.84998,71.152954,2.1972656
1766811675680,-0.94433594,-0.22216797,-0.25146484,4.272461,-10.314941,-2.6855469,0.0,0.0,0.0,-141.84998,71.152954,2.1972656
1766811675692,-0.94433594,-0.22216797,-0.25146484,4.272461,-10.314941,-2.6855469,0.0,0.0,0.0,-138.2135,71.83411,5.828247
1766811675780,-0.9477539,-0.23046875,-0.22363281,15.441895,-8.728027,0.061035156,0.0,0.0,0.0,-138.2135,71.83411,5.828247
1766811675791,-0.9477539,-0.23046875,-0.22363281,15.441895,-8.728027,0.061035156,0.0,0.0,0.0,-134.97253,72.333984,7.998047
1766811675880,-0.84033203,-0.16308594,-0.2631836,11.535645,-2.746582,-3.7231445,0.0,0.0,0.0,-134.97253,72.333984,7.998047
1766811675891,-0.84033203,-0.16308594,-0.2631836,11.535645,-2.746582,-3.7231445,0.0,0.0,0.0,-132.45667,72.47131,9.266968
1766811675979,-0.97558594,-0.18847656,-0.3173828,1.8310547,1.5869141,-6.0424805,0.0,0.0,0.0,-132.45667,72.47131,9.266968
1766811675991,-0.97558594,-0.18847656,-0.3173828,1.8310547,1.5869141,-6.0424805,0.0,0.0,0.0,-131.91833,72.02637,9.464722
1766811676079,-0.93310547,-0.22802734,-0.2133789,-8.239746,7.446289,-6.7749023,0.0,0.0,0.0,-131.91833,72.02637,9.464722
1766811676091,-0.93310547,-0.22802734,-0.2133789,-8.239746,7.446289,-6.7749023,0.0,0.0,0.0,-133.9563,71.103516,7.943115
1766811676179,-0.95458984,-0.17333984,-0.2163086,-12.451172,1.6479492,-5.79834,0.0,0.0,0.0,-133.9563,71.103516,7.943115
1766811676191,-0.95458984,-0.17333984,-0.2163086,-12.451172,1.6479492,-5.79834,0.0,0.0,0.0,-134.63745,70.6366,8.036499
1766811676279,-0.95166016,-0.2290039,-0.19628906,-4.0283203,2.9296875,-0.18310547,0.0,0.0,0.0,-134.63745,70.6366,8.036499
1766811676290,-0.95166016,-0.2290039,-0.19628906,-4.0283203,2.9296875,-0.18310547,0.0,0.0,0.0,-135.71411,70.40588,7.7948
1766811676378,-0.96972656,-0.23095703,-0.1875,2.0141602,-0.24414062,0.30517578,0.0,0.0,0.0,-135.71411,70.40588,7.7948
1766811676390,-0.96972656,-0.23095703,-0.1875,2.0141602,-0.24414062,0.30517578,0.0,0.0,0.0,-135.76904,70.42786,7.6519775
1766811676478,-1.0039062,-0.20507812,-0.1875,14.770508,-13.427734,7.1411133,0.0,0.0,0.0,-135.76904,70.42786,7.6519775
1766811676489,-1.0039062,-0.20507812,-0.1875,14.770508,-13.427734,7.1411133,0.0,0.0,0.0,-133.64868,71.33972,8.811035
1766811676578,-1.0874023,-0.27197266,-0.20117188,8.728027,-15.197754,4.272461,0.0,0.0,0.0,-133.64868,71.33972,8.811035
1766811676589,-1.0874023,-0.27197266,-0.20117188,8.728027,-15.197754,4.272461,0.0,0.0,0.0,-130.83618,72.8009,10.700684
1766811676677,-0.9477539,-0.07080078,-0.115234375,4.760742,-16.235352,11.779785,0.0,0.0,0.0,-130.83618,72.8009,10.700684
1766811676689,-0.9477539,-0.07080078,-0.115234375,4.760742,-16.235352,11.779785,0.0,0.0,0.0,-127.91382,74.17969,12.694702
1766811676777,-0.9321289,-0.20214844,-0.21240234,-13.061523,-3.479004,6.652832,0.0,0.0,0.0,-127.91382,74.17969,12.694702
1766811676788,-0.9321289,-0.20214844,-0.21240234,-13.061523,-3.479004,6.652832,0.0,0.0,0.0,-128.46313,75.41565,12.854004
1766811676877,-0.8857422,-0.23583984,-0.21142578,-3.1738281,-1.2817383,7.2021484,0.0,0.0,0.0,-128.46313,75.41565,12.854004
1766811676888,-0.8857422,-0.23583984,-0.21142578,-3.1738281,-1.2817383,7.2021484,0.0,0.0,0.0,-131.31409,75.83313,11.293945
1766811676977,-1.0263672,-0.25097656,-0.25195312,-3.4179688,14.953613,3.7841797,0.0,0.0,0.0,-131.31409,75.83313,11.293945
1766811676988,-1.0263672,-0.25097656,-0.25195312,-3.4179688,14.953613,3.7841797,0.0,0.0,0.0,-134.41772,75.28931,8.481445
1766811677076,-0.9399414,-0.17626953,-0.17822266,-5.1879883,13.000488,1.8310547,0.0,0.0,0.0,-134.41772,75.28931,8.481445
1766811677088,-0.9399414,-0.17626953,-0.17822266,-5.1879883,13.000488,1.8310547,0.0,0.0,0.0,-138.68591,74.558716,4.312134
1766811677176,-0.9506836,-0.22314453,-0.19970703,7.507324,9.887695,1.7700195,0.0,0.0,0.0,-138.68591,74.558716,4.312134
1766811677187,-0.9506836,-0.22314453,-0.19970703,7.507324,9.887695,1.7700195,0.0,0.0,0.0,-141.30066,73.39966,1.9281006
1766811677276,-0.9746094,-0.16894531,-0.20654297,-4.272461,19.28711,-8.056641,0.0,0.0,0.0,-141.30066,73.39966,1.9281006
1766811677287,-0.9746094,-0.16894531,-0.20654297,-4.272461,19.28711,-8.056641,0.0,0.0,0.0,-142.41028,72.10327,0.38452148
1766811677375,-0.98535156,-0.19042969,-0.22949219,-10.620117,12.084961,-1.4648438,0.0,0.0,0.0,-142.41028,72.10327,0.38452148
1766811677387,-0.98535156,-0.19042969,-0.22949219,-10.620117,12.084961,-1.4648438,0.0,0.0,0.0,-144.245,70.944214,-0.9338379
1766811677475,-1.0541992,-0.24365234,-0.2265625,-4.1503906,-11.047363,-1.8920898,0.0,0.0,0.0,-144.245,70.944214,-0.9338379
1766811677486,-1.0541992,-0.24365234,-0.2265625,-4.1503906,-11.047363,-1.8920898,0.0,0.0,0.0,-144.25598,70.81787,0.005493164
1766811677575,-0.9238281,-0.21777344,-0.22851562,-0.5493164,-9.399414,1.8310547,0.0,0.0,0.0,-144.25598,70.81787,0.005493164
1766811677586,-0.9238281,-0.21777344,-0.22851562,-0.5493164,-9.399414,1.8310547,0.0,0.0,0.0,-140.74036,72.01538,3.2739258
1766811677674,-0.93115234,-0.20019531,-0.2524414,13.305664,-26.367188,-1.2207031,0.0,0.0,0.0,-140.74036,72.01538,3.2739258
1766811677686,-0.93115234,-0.20019531,-0.2524414,13.305664,-26.367188,-1.2207031,0.0,0.0,0.0,-136.25793,73.31726,7.4816895
1766811677774,-0.85009766,-0.19482422,-0.25341797,9.94873,-7.3242188,0.5493164,0.0,0.0,0.0,-136.25793,73.31726,7.4816895
1766811677786,-0.85009766,-0.19482422,-0.25341797,9.94873,-7.3242188,0.5493164,0.0,0.0,0.0,-131.9513,74.174194,11.030273
1766811677874,-1.0371094,-0.115722656,-0.24365234,2.1362305,0.061035156,-0.7324219,0.0,0.0,0.0,-131.9513,74.174194,11.030273
1766811677885,-1.0371094,-0.115722656,-0.24365234,2.1362305,0.061035156,-0.7324219,0.0,0.0,0.0,-129.89685,74.26758,12.189331
1766811677974,-0.9013672,-0.21582031,-0.1977539,-7.751465,-4.638672,-10.803223,0.0,0.0,0.0,-129.89685,74.26758,12.189331
1766811677985,-0.9013672,-0.21582031,-0.1977539,-7.751465,-4.638672,-10.803223,0.0,0.0,0.0,-130.86365,73.53699,12.34314
1766811678073,-0.9633789,-0.15820312,-0.17089844,-18.798828,5.6152344,-4.0893555,0.0,0.0,0.0,-130.86365,73.53699,12.34314
1766811678085,-0.9633789,-0.15820312,-0.17089844,-18.798828,5.6152344,-4.0893555,0.0,0.0,0.0,-130.9076,73.16345,13.370361
1766811678173,-0.95166016,-0.22509766,-0.14794922,-5.859375,5.554199,-3.7231445,0.0,0.0,0.0,-130.9076,73.16345,13.370361
1766811678184,-0.95166016,-0.22509766,-0.14794922,-5.859375,5.554199,-3.7231445,0.0,0.0,0.0,-132.59949,72.66907,12.716675
1766811678273,-0.9902344,-0.22558594,-0.14453125,3.7841797,-0.9765625,-4.699707,0.0,0.0,0.0,-132.59949,72.66907,12.716675
1766811678284,-0.9902344,-0.22558594,-0.14453125,3.7841797,-0.9765625,-4.699707,0.0,0.0,0.0,-132.5885,72.13074,12.892456
1766811678372,-1.0029297,-0.2133789,-0.14404297,13.916016,-13.793945,1.2207031,0.0,0.0,0.0,-132.5885,72.13074,12.892456
1766811678384,-1.0029297,-0.2133789,-0.14404297,13.916016,-13.793945,1.2207031,0.0,0.0,0.0,-129.02344,72.69653,15.380859
1766811678472,-1.0605469,-0.29003906,-0.15283203,28.381348,-28.381348,0.8544922,0.0,0.0,0.0,-129.02344,72.69653,15.380859
1766811678484,-1.0605469,-0.29003906,-0.15283203,28.381348,-28.381348,0.8544922,0.0,0.0,0.0,-121.85486,74.07532,20.824585
1766811678572,-0.9350586,-0.12597656,-0.10253906,6.8359375,-12.939453,7.2021484,0.0,0.0,0.0,-121.85486,74.07532,20.824585
1766811678584,-0.9350586,-0.12597656,-0.10253906,6.8359375,-12.939453,7.2021484,0.0,0.0,0.0,-116.032104,75.27283,25.675049
1766811678672,-0.9135742,-0.23046875,-0.16113281,-3.6010742,-2.380371,5.493164,0.0,0.0,0.0,-116.032104,75.27283,25.675049
1766811678684,-0.9135742,-0.23046875,-0.16113281,-3.6010742,-2.380371,5.493164,0.0,0.0,0.0,-113.99414,76.47583,27.57019
1766811678771,-0.9033203,-0.20751953,-0.15478516,-1.953125,2.5634766,3.2958984,0.0,0.0,0.0,-113.99414,76.47583,27.57019
1766811678783,-0.9033203,-0.20751953,-0.15478516,-1.953125,2.5634766,3.2958984,0.0,0.0,0.0,-115.74646,76.657104,26.40564
1766811678871,-1.0546875,-0.22216797,-0.13964844,6.713867,7.507324,5.065918,0.0,0.0,0.0,-115.74646,76.657104,26.40564
1766811678882,-1.0546875,-0.22216797,-0.13964844,6.713867,7.507324,5.065918,0.0,0.0,0.0,-118.53699,76.398926,23.543701
1766811678971,-0.9067383,-0.23095703,-0.099121094,-2.8076172,15.869141,3.7231445,0.0,0.0,0.0,-118.53699,76.398926,23.543701
1766811678982,-0.9067383,-0.23095703,-0.099121094,-2.8076172,15.869141,3.7231445,0.0,0.0,0.0,-123.46985,76.31653,18.253784
1766811679070,-0.95996094,-0.21044922,-0.13378906,2.319336,17.944336,-2.1972656,0.0,0.0,0.0,-123.46985,76.31653,18.253784
1766811679082,-0.95996094,-0.21044922,-0.13378906,2.319336,17.944336,-2.1972656,0.0,0.0,0.0,-127.628174,75.32776,13.705444
1766811679170,-0.9970703,-0.17333984,-0.12207031,-10.681152,23.4375,-1.7700195,0.0,0.0,0.0,-127.628174,75.32776,13.705444
1766811679182,-0.9970703,-0.17333984,-0.12207031,-10.681152,23.4375,-1.7700195,0.0,0.0,0.0,-133.35754,73.81714,8.300171
1766811679270,-1.0087891,-0.1772461,-0.14355469,-9.643555,14.160156,1.953125,0.0,0.0,0.0,-133.35754,73.81714,8.300171
1766811679281,-1.0087891,-0.1772461,-0.14355469,-9.643555,14.160156,1.953125,0.0,0.0,0.0,-138.01575,72.58118,4.2681885
1766811679370,-1.0605469,-0.20361328,-0.22753906,-7.2021484,-10.620117,1.3427734,0.0,0.0,0.0,-138.01575,72.58118,4.2681885
1766811679381,-1.0605469,-0.20361328,-0.22753906,-7.2021484,-10.620117,1.3427734,0.0,0.0,0.0,-139.4989,72.68555,3.5430908
1766811679469,-0.9160156,-0.26416016,-0.23144531,-6.286621,-4.760742,-0.4272461,0.0,0.0,0.0,-139.4989,72.68555,3.5430908
1766811679481,-0.9160156,-0.26416016,-0.23144531,-6.286621,-4.760742,-0.4272461,0.0,0.0,0.0,-138.66943,73.482056,4.526367
1766811679569,-0.93652344,-0.2631836,-0.22753906,1.3427734,-13.793945,-3.6010742,0.0,0.0,0.0,-138.66943,73.482056,4.526367
1766811679581,-0.93652344,-0.2631836,-0.22753906,1.3427734,-13.793945,-3.6010742,0.0,0.0,0.0,-136.2909,73.932495,7.662964
1766811679669,-0.8569336,-0.18066406,-0.26757812,16.723633,-7.019043,-0.4272461,0.0,0.0,0.0,-136.2909,73.932495,7.662964
1766811679680,-0.8569336,-0.18066406,-0.26757812,16.723633,-7.019043,-0.4272461,0.0,0.0,0.0,-131.47339,74.18518,11.552124
1766811679768,-1.0327148,-0.1875,-0.28710938,-2.6855469,-1.6479492,-6.7749023,0.0,0.0,0.0,-131.47339,74.18518,11.552124
1766811679780,-1.0327148,-0.1875,-0.28710938,-2.6855469,-1.6479492,-6.7749023,0.0,0.0,0.0,-130.7428,73.83911,12.095947
1766811679868,-0.9628906,-0.23388672,-0.1977539,-4.5776367,-10.253906,-10.253906,0.0,0.0,0.0,-130.7428,73.83911,12.095947
1766811679880,-0.9628906,-0.23388672,-0.1977539,-4.5776367,-10.253906,-10.253906,0.0,0.0,0.0,-128.59497,73.54797,14.798584
1766811679968,-0.93603516,-0.1352539,-0.12158203,-0.79345703,-6.225586,-7.5683594,0.0,0.0,0.0,-128.59497,73.54797,14.798584
1766811679979,-0.93603516,-0.1352539,-0.12158203,-0.79345703,-6.225586,-7.5683594,0.0,0.0,0.0,-124.524536,73.55896,18.95691
1766811680068,-0.9506836,-0.23486328,-0.100097656,-1.8310547,7.8125,-8.911133,0.0,0.0,0.0,-124.524536,73.55896,18.95691
1766811680079,-0.9506836,-0.23486328,-0.100097656,-1.8310547,7.8125,-8.911133,0.0,0.0,0.0,-124.21692,72.85034,19.594116
1766811680167,-0.9873047,-0.2680664,-0.13867188,0.4272461,12.878418,-3.7841797,0.0,0.0,0.0,-124.21692,72.85034,19.594116
1766811680179,-0.9873047,-0.2680664,-0.13867188,0.4272461,12.878418,-3.7841797,0.0,0.0,0.0,-126.23291,71.78467,17.572632
1766811680267,-0.98876953,-0.22753906,-0.14892578,12.145996,1.4648438,1.4648438,0.0,0.0,0.0,-126.23291,71.78467,17.572632
1766811680279,-0.98876953,-0.22753906,-0.14892578,12.145996,1.4648438,1.4648438,0.0,0.0,0.0,-126.260376,71.482544,16.490479
1766811680367,-1.0395508,-0.33154297,-0.14941406,29.60205,-7.2021484,7.446289,0.0,0.0,0.0,-126.260376,71.482544,16.490479
1766811680378,-1.0395508,-0.33154297,-0.14941406,29.60205,-7.2021484,7.446289,0.0,0.0,0.0,-123.947754,72.301025,16.726685
1766811680467,-0.9375,-0.11425781,-0.123046875,-0.12207031,3.3569336,15.136719,0.0,0.0,0.0,-123.947754,72.301025,16.726685
1766811680478,-0.9375,-0.11425781,-0.123046875,-0.12207031,3.3569336,15.136719,0.0,0.0,0.0,-127.08984,72.839355,13.134155
1766811680566,-0.9614258,-0.19335938,-0.22265625,-17.51709,-1.159668,4.9438477,0.0,0.0,0.0,-127.08984,72.839355,13.134155
1766811680578,-0.9614258,-0.19335938,-0.22265625,-17.51709,-1.159668,4.9438477,0.0,0.0,0.0,-129.1278,73.91052,11.409302
1766811680666,-0.9082031,-0.20654297,-0.22998047,-22.094727,-2.5024414,5.79834,0.0,0.0,0.0,-129.1278,73.91052,11.409302
1766811680678,-0.9082031,-0.20654297,-0.22998047,-22.094727,-2.5024414,5.79834,0.0,0.0,0.0,-132.35779,74.64661,10.255737
1766811680766,-0.99365234,-0.24267578,-0.25146484,-18.554688,-1.4038086,0.61035156,0.0,0.0,0.0,-132.35779,74.64661,10.255737
1766811680777,-0.99365234,-0.24267578,-0.25146484,-18.554688,-1.4038086,0.61035156,0.0,0.0,0.0,-135.21973,74.60266,9.816284
1766811680865,-0.95947266,-0.17822266,-0.21679688,-17.822266,6.591797,0.48828125,0.0,0.0,0.0,-135.21973,74.60266,9.816284
1766811680877,-0.95947266,-0.17822266,-0.21679688,-17.822266,6.591797,0.48828125,0.0,0.0,0.0,-137.75757,74.349976,8.887939
1766811680965,-0.91552734,-0.24023438,-0.20947266,-8.361816,9.277344,-1.159668,0.0,0.0,0.0,-137.75757,74.349976,8.887939
1766811680976,-0.91552734,-0.24023438,-0.20947266,-8.361816,9.277344,-1.159668,0.0,0.0,0.0,-140.7074,73.56445,7.1520996
1766811681065,-0.98339844,-0.1953125,-0.20263672,2.6855469,9.70459,0.18310547,0.0,0.0,0.0,-140.7074,73.56445,7.1520996
1766811681076,-0.98339844,-0.1953125,-0.20263672,2.6855469,9.70459,0.18310547,0.0,0.0,0.0,-141.89392,72.68555,5.795288
1766811681164,-0.9970703,-0.23339844,-0.22753906,-4.0893555,13.73291,-3.112793,0.0,0.0,0.0,-141.89392,72.68555,5.795288
1766811681176,-0.9970703,-0.23339844,-0.22753906,-4.0893555,13.73291,-3.112793,0.0,0.0,0.0,-143.95386,71.53198,3.7957764
1766811681264,-0.9794922,-0.19921875,-0.18261719,-16.723633,2.380371,-5.92041,0.0,0.0,0.0,-143.95386,71.53198,3.7957764
1766811681276,-0.9794922,-0.19921875,-0.18261719,-16.723633,2.380371,-5.92041,0.0,0.0,0.0,-144.78882,70.57068,3.7792969
1766811681364,-1.0073242,-0.24414062,-0.26611328,-3.2348633,-23.132324,-6.164551,0.0,0.0,0.0,-144.78882,70.57068,3.7792969
1766811681375,-1.0073242,-0.24414062,-0.26611328,-3.2348633,-23.132324,-6.164551,0.0,0.0,0.0,-141.76758,71.449585,7.7838135
1766811681464,-0.8823242,-0.25341797,-0.20263672,13.73291,-10.7421875,-2.6855469,0.0,0.0,0.0,-141.76758,71.449585,7.7838135
1766811681475,-0.8823242,-0.25341797,-0.20263672,13.73291,-10.7421875,-2.6855469,0.0,0.0,0.0,-137.4115,72.2406,10.991821
1766811681563,-0.91015625,-0.2055664,-0.27001953,25.390625,-9.338379,1.0986328,0.0,0.0,0.0,-137.4115,72.2406,10.991821
1766811681575,-0.91015625,-0.2055664,-0.27001953,25.390625,-9.338379,1.0986328,0.0,0.0,0.0,-132.14905,72.95471,13.85376
1766811681663,-1.0131836,-0.14208984,-0.29345703,17.76123,-11.84082,-5.3710938,0.0,0.0,0.0,-132.14905,72.95471,13.85376
1766811681675,-1.0131836,-0.14208984,-0.29345703,17.76123,-11.84082,-5.3710938,0.0,0.0,0.0,-127.44141,73.3667,16.430054
1766811681763,-0.9555664,-0.22705078,-0.17089844,3.7841797,-3.8452148,-4.0283203,0.0,0.0,0.0,-127.44141,73.3667,16.430054
1766811681774,-0.9555664,-0.22705078,-0.17089844,3.7841797,-3.8452148,-4.0283203,0.0,0.0,0.0,-126.4801,73.21289,17.18811
1766811681863,-0.95996094,-0.1694336,-0.16845703,-1.2817383,-0.5493164,-3.0517578,0.0,0.0,0.0,-126.4801,73.21289,17.18811
1766811681874,-0.95996094,-0.1694336,-0.16845703,-1.2817383,-0.5493164,-3.0517578,0.0,0.0,0.0,-125.49133,73.097534,18.215332
1766811681962,-0.9663086,-0.21728516,-0.12841797,4.0893555,-3.2348633,-2.319336,0.0,0.0,0.0,-125.49133,73.097534,18.215332
1766811681974,-0.9663086,-0.21728516,-0.12841797,4.0893555,-3.2348633,-2.319336,0.0,0.0,0.0,-125.079346,73.05359,18.643799
1766811682062,-0.97314453,-0.23046875,-0.095214844,6.8359375,-6.5307617,0.18310547,0.0,0.0,0.0,-125.079346,73.05359,18.643799
1766811682073,-0.97314453,-0.23046875,-0.095214844,6.8359375,-6.5307617,0.18310547,0.0,0.0,0.0,-123.1073,73.306274,20.181885
1766811682162,-0.99316406,-0.2055664,-0.095703125,10.986328,-11.71875,2.1972656,0.0,0.0,0.0,-123.1073,73.306274,20.181885
1766811682173,-0.99316406,-0.2055664,-0.095703125,10.986328,-11.71875,2.1972656,0.0,0.0,0.0,-119.58618,73.89404,22.868042
1766811682261,-0.9970703,-0.23876953,-0.083984375,11.71875,-9.58252,3.112793,0.0,0.0,0.0,-119.58618,73.89404,22.868042
1766811682273,-0.9970703,-0.23876953,-0.083984375,11.71875,-9.58252,3.112793,0.0,0.0,0.0,-115.86182,74.679565,25.795898
1766811682361,-0.9482422,-0.16259766,-0.078125,4.333496,-4.0283203,6.5307617,0.0,0.0,0.0,-115.86182,74.679565,25.795898
1766811682373,-0.9482422,-0.16259766,-0.078125,4.333496,-4.0283203,6.5307617,0.0,0.0,0.0,-111.61011,75.44861,29.08081
1766811682461,-0.9428711,-0.16992188,-0.13574219,-3.7231445,-2.319336,7.873535,0.0,0.0,0.0,-111.61011,75.44861,29.08081
1766811682472,-0.9428711,-0.16992188,-0.13574219,-3.7231445,-2.319336,7.873535,0.0,0.0,0.0,-110.57739,76.56372,29.926758
1766811682560,-0.9057617,-0.23535156,-0.12402344,-6.4697266,1.7089844,7.080078,0.0,0.0,0.0,-110.57739,76.56372,29.926758
1766811682572,-0.9057617,-0.23535156,-0.12402344,-6.4697266,1.7089844,7.080078,0.0,0.0,0.0,-113.43933,77.211914,28.042603
1766811682660,-0.95947266,-0.2734375,-0.18115234,-5.6762695,10.7421875,1.4038086,0.0,0.0,0.0,-113.43933,77.211914,28.042603
1766811682672,-0.95947266,-0.2734375,-0.18115234,-5.6762695,10.7421875,1.4038086,0.0,0.0,0.0,-118.081055,77.25037,24.175415
1766811682760,-0.98779297,-0.13330078,-0.12939453,-8.911133,19.836426,2.9907227,0.0,0.0,0.0,-118.081055,77.25037,24.175415
1766811682771,-0.98779297,-0.13330078,-0.12939453,-8.911133,19.836426,2.9907227,0.0,0.0,0.0,-123.79944,76.5802,18.71521
1766811682860,-0.92089844,-0.25341797,-0.14941406,-12.939453,20.263672,-5.1879883,0.0,0.0,0.0,-123.79944,76.5802,18.71521
1766811682871,-0.92089844,-0.25341797,-0.14941406,-12.939453,20.263672,-5.1879883,0.0,0.0,0.0,-133.15979,75.12451,10.942383
1766811682959,-1.0131836,-0.1694336,-0.13867188,1.2817383,12.145996,-1.6479492,0.0,0.0,0.0,-133.15979,75.12451,10.942383
1766811682972,-1.0131836,-0.1694336,-0.13867188,1.2817383,12.145996,-1.6479492,0.0,0.0,0.0,-135.9613,73.69629,8.415527
1766811683059,-0.98535156,-0.20507812,-0.16748047,-6.4086914,15.74707,-1.2207031,0.0,0.0,0.0,-135.9613,73.69629,8.415527
1766811683071,-0.98535156,-0.20507812,-0.16748047,-6.4086914,15.74707,-1.2207031,0.0,0.0,0.0,-138.83972,72.454834,5.6744385
1766811683159,-0.9970703,-0.23876953,-0.19628906,-13.244629,2.5634766,-4.8828125,0.0,0.0,0.0,-138.83972,72.454834,5.6744385
1766811683170,-0.9970703,-0.23876953,-0.19628906,-13.244629,2.5634766,-4.8828125,0.0,0.0,0.0,-140.80078,71.658325,4.2956543
1766811683258,-1.0336914,-0.21582031,-0.19726562,2.319336,-15.50293,-1.0375977,0.0,0.0,0.0,-140.80078,71.658325,4.2956543
1766811683270,-1.0336914,-0.21582031,-0.19726562,2.319336,-15.50293,-1.0375977,0.0,0.0,0.0,-138.50464,72.26807,7.2509766
1766811683358,-0.93603516,-0.26171875,-0.1899414,9.521484,-12.6953125,-1.0986328,0.0,0.0,0.0,-138.50464,72.26807,7.2509766
1766811683370,-0.93603516,-0.26171875,-0.1899414,9.521484,-12.6953125,-1.0986328,0.0,0.0,0.0,-134.92859,73.26782,10.26123
1766811683458,-0.92578125,-0.18554688,-0.171875,24.536133,-12.145996,5.126953,0.0,0.0,0.0,-134.92859,73.26782,10.26123
1766811683469,-0.92578125,-0.18554688,-0.171875,24.536133,-12.145996,5.126953,0.0,0.0,0.0,-129.97925,74.34448,13.271484
1766811683558,-0.8652344,-0.11376953,-0.26220703,11.047363,-5.79834,-0.91552734,0.0,0.0,0.0,-129.97925,74.34448,13.271484
1766811683569,-0.8652344,-0.11376953,-0.26220703,11.047363,-5.79834,-0.91552734,0.0,0.0,0.0,-126.06262,74.9762,15.584106
1766811683657,-1.0375977,-0.22753906,-0.14941406,-15.625,10.498047,-3.3569336,0.0,0.0,0.0,-126.06262,74.9762,15.584106
1766811683669,-1.0375977,-0.22753906,-0.14941406,-15.625,10.498047,-3.3569336,0.0,0.0,0.0,-128.07312,74.47632,13.831787
1766811683757,-0.9213867,-0.13916016,-0.17871094,-7.446289,3.8452148,-6.958008,0.0,0.0,0.0,-128.07312,74.47632,13.831787
1766811683768,-0.9213867,-0.13916016,-0.17871094,-7.446289,3.8452148,-6.958008,0.0,0.0,0.0,-129.30908,73.56995,13.590088
1766811683857,-0.96435547,-0.1772461,-0.1616211,-16.967773,9.460449,-5.859375,0.0,0.0,0.0,-129.30908,73.56995,13.590088
1766811683868,-0.96435547,-0.1772461,-0.1616211,-16.967773,9.460449,-5.859375,0.0,0.0,0.0,-131.3855,72.83386,12.854004
1766811683956,-0.97802734,-0.21044922,-0.1430664,-7.5683594,9.82666,-7.1411133,0.0,0.0,0.0,-131.3855,72.83386,12.854004
1766811683968,-0.97802734,-0.21044922,-0.1430664,-7.5683594,9.82666,-7.1411133,0.0,0.0,0.0,-133.01697,71.81763,12.046509
1766811684056,-1.0102539,-0.22363281,-0.1328125,-0.24414062,-1.7700195,-1.0986328,0.0,0.0,0.0,-133.01697,71.81763,12.046509
1766811684068,-1.0102539,-0.22363281,-0.1328125,-0.24414062,-1.7700195,-1.0986328,0.0,0.0,0.0,-133.01147,71.52649,12.211304
1766811684156,-1.0048828,-0.21044922,-0.14160156,13.305664,-17.51709,4.8217773,0.0,0.0,0.0,-133.01147,71.52649,12.211304
1766811684167,-1.0048828,-0.21044922,-0.14160156,13.305664,-17.51709,4.8217773,0.0,0.0,0.0,-129.03992,72.77344,15.122681
1766811684255,-0.9145508,-0.20947266,-0.20263672,9.033203,-19.40918,1.0986328,0.0,0.0,0.0,-129.03992,72.77344,15.122681
1766811684267,-0.9145508,-0.20947266,-0.20263672,9.033203,-19.40918,1.0986328,0.0,0.0,0.0,-122.11304,74.25659,20.714722
1766811684355,-0.9316406,-0.15136719,-0.19091797,0.7324219,-9.94873,11.047363,0.0,0.0,0.0,-122.11304,74.25659,20.714722
1766811684367,-0.9316406,-0.15136719,-0.19091797,0.7324219,-9.94873,11.047363,0.0,0.0,0.0,-119.58618,75.8551,23.17566
1766811684455,-0.8798828,-0.23535156,-0.15332031,3.7231445,0.5493164,10.192871,0.0,0.0,0.0,-119.58618,75.8551,23.17566
1766811684467,-0.8798828,-0.23535156,-0.15332031,3.7231445,0.5493164,10.192871,0.0,0.0,0.0,-121.96472,76.55823,21.170654
1766811684555,-1.0239258,-0.2446289,-0.19384766,6.8969727,12.084961,1.7089844,0.0,0.0,0.0,-121.96472,76.55823,21.170654
1766811684567,-1.0239258,-0.2446289,-0.19384766,6.8969727,12.084961,1.7089844,0.0,0.0,0.0,-124.28833,76.48132,17.907715
1766811684654,-0.91015625,-0.17578125,-0.11669922,-7.385254,21.42334,4.760742,0.0,0.0,0.0,-124.28833,76.48132,17.907715
1766811684666,-0.91015625,-0.17578125,-0.11669922,-7.385254,21.42334,4.760742,0.0,0.0,0.0,-130.75928,75.8551,11.277466
1766811684754,-0.9404297,-0.26708984,-0.15283203,4.8217773,16.845703,-5.3710938,0.0,0.0,0.0,-130.75928,75.8551,11.277466
1766811684766,-0.9404297,-0.26708984,-0.15283203,4.8217773,16.845703,-5.3710938,0.0,0.0,0.0,-134.0387,74.35547,8.129883
1766811684854,-0.99609375,-0.18457031,-0.16699219,-7.385254,27.70996,-4.1503906,0.0,0.0,0.0,-134.0387,74.35547,8.129883
1766811684865,-0.99609375,-0.18457031,-0.16699219,-7.385254,27.70996,-4.1503906,0.0,0.0,0.0,-138.16406,72.493286,3.9385986
1766811684954,-0.9946289,-0.18896484,-0.20458984,-10.253906,12.512207,-2.380371,0.0,0.0,0.0,-138.16406,72.493286,3.9385986
1766811684965,-0.9946289,-0.18896484,-0.20458984,-10.253906,12.512207,-2.380371,0.0,0.0,0.0,-141.58081,70.98816,1.3293457
1766811685053,-1.0859375,-0.23095703,-0.28173828,-9.277344,-11.71875,-3.1738281,0.0,0.0,0.0,-141.58081,70.98816,1.3293457
1766811685065,-1.0859375,-0.23095703,-0.28173828,-9.277344,-11.71875,-3.1738281,0.0,0.0,0.0,-141.63025,71.02661,2.3950195
1766811685153,-0.93847656,-0.20996094,-0.19433594,-11.59668,-6.7749023,2.6855469,0.0,0.0,0.0,-141.63025,71.02661,2.3950195
1766811685165,-0.93847656,-0.20996094,-0.19433594,-11.59668,-6.7749023,2.6855469,0.0,0.0,0.0,-140.20203,72.004395,4.224243
1766811685253,-0.9189453,-0.22949219,-0.2783203,19.77539,-25.390625,2.6855469,0.0,0.0,0.0,-140.20203,72.004395,4.224243
1766811685264,-0.9189453,-0.22949219,-0.2783203,19.77539,-25.390625,2.6855469,0.0,0.0,0.0,-134.79126,73.58093,9.283447
1766811685352,-0.8491211,-0.15429688,-0.25146484,9.94873,-6.225586,0.0,0.0,0.0,0.0,-134.79126,73.58093,9.283447
1766811685364,-0.8491211,-0.15429688,-0.25146484,9.94873,-6.225586,0.0,0.0,0.0,0.0,-131.39648,74.328,11.497192
1766811685452,-1.0678711,-0.2055664,-0.20117188,-4.0893555,-0.7324219,-2.2583008,0.0,0.0,0.0,-131.39648,74.328,11.497192
1766811685464,-1.0678711,-0.2055664,-0.20117188,-4.0893555,-0.7324219,-2.2583008,0.0,0.0,0.0,-130.60547,74.26758,12.090454
1766811685552,-0.91796875,-0.08154297,-0.2006836,-20.385742,5.432129,3.8452148,0.0,0.0,0.0,-130.60547,74.26758,12.090454
1766811685563,-0.91796875,-0.08154297,-0.2006836,-20.385742,5.432129,3.8452148,0.0,0.0,0.0,-131.35803,73.86658,12.568359
1766811685652,-0.9145508,-0.15771484,-0.17871094,-31.433105,5.126953,-4.760742,0.0,0.0,0.0,-131.35803,73.86658,12.568359
1766811685663,-0.9145508,-0.15771484,-0.17871094,-31.433105,5.126953,-4.760742,0.0,0.0,0.0,-136.13159,73.482056,10.772095
1766811685752,-0.9614258,-0.25927734,-0.19238281,-16.113281,5.859375,-10.131836,0.0,0.0,0.0,-136.13159,73.482056,10.772095
1766811685763,-0.9614258,-0.25927734,-0.19238281,-16.113281,5.859375,-10.131836,0.0,0.0,0.0,-138.76282,72.333984,10.733643
1766811685851,-1.0249023,-0.22509766,-0.12597656,6.713867,-5.92041,-2.746582,0.0,0.0,0.0,-138.76282,72.333984,10.733643
1766811685862,-1.0249023,-0.22509766,-0.12597656,6.713867,-5.92041,-2.746582,0.0,0.0,0.0,-137.2522,72.17468,12.079468
1766811685951,-1.090332,-0.21484375,-0.19921875,18.981934,-22.155762,-0.4272461,0.0,0.0,0.0,-137.2522,72.17468,12.079468
1766811685962,-1.090332,-0.21484375,-0.19921875,18.981934,-22.155762,-0.4272461,0.0,0.0,0.0,-131.38,73.427124,16.270752
1766811686051,-0.9482422,-0.08691406,-0.16210938,12.878418,-15.014648,6.8359375,0.0,0.0,0.0,-131.38,73.427124,16.270752
1766811686062,-0.9482422,-0.08691406,-0.16210938,12.878418,-15.014648,6.8359375,0.0,0.0,0.0,-124.62891,74.41589,21.456299
1766811686150,-0.9165039,-0.1821289,-0.23144531,4.638672,-10.009766,4.0893555,0.0,0.0,0.0,-124.62891,74.41589,21.456299
1766811686162,-0.9165039,-0.1821289,-0.23144531,4.638672,-10.009766,4.0893555,0.0,0.0,0.0,-121.35498,75.88806,23.796387
1766811686250,-0.89453125,-0.2626953,-0.15136719,5.79834,-2.319336,5.79834,0.0,0.0,0.0,-121.35498,75.88806,23.796387
1766811686262,-0.89453125,-0.2626953,-0.15136719,5.79834,-2.319336,5.79834,0.0,0.0,0.0,-123.0249,76.2616,22.510986
1766811686350,-1.0478516,-0.20800781,-0.16699219,11.291504,8.850098,1.7089844,0.0,0.0,0.0,-123.0249,76.2616,22.510986
1766811686361,-1.0478516,-0.20800781,-0.16699219,11.291504,8.850098,1.7089844,0.0,0.0,0.0,-124.035645,76.05835,20.286255
1766811686449,-0.9350586,-0.23632812,-0.11767578,-7.2631836,18.859863,0.18310547,0.0,0.0,0.0,-124.035645,76.05835,20.286255
1766811686461,-0.9350586,-0.23632812,-0.11767578,-7.2631836,18.859863,0.18310547,0.0,0.0,0.0,-128.79822,75.67932,15.1171875
1766811686549,-0.92871094,-0.24853516,-0.15771484,12.023926,14.404297,-2.9296875,0.0,0.0,0.0,-128.79822,75.67932,15.1171875
1766811686561,-0.92871094,-0.24853516,-0.15771484,12.023926,14.404297,-2.9296875,0.0,0.0,0.0,-130.78674,74.54773,12.667236
1766811686649,-0.99316406,-0.19238281,-0.1381836,-4.638672,22.705078,-1.2207031,0.0,0.0,0.0,-130.78674,74.54773,12.667236
1766811686660,-0.99316406,-0.19238281,-0.1381836,-4.638672,22.705078,-1.2207031,0.0,0.0,0.0,-134.18701,73.19092,8.717651
1766811686749,-1.046875,-0.2524414,-0.17236328,-3.7841797,10.925293,1.8310547,0.0,0.0,0.0,-134.18701,73.19092,8.717651
1766811686760,-1.046875,-0.2524414,-0.17236328,-3.7841797,10.925293,1.8310547,0.0,0.0,0.0,-137.78503,72.1637,5.394287
1766811686848,-1.0322266,-0.2446289,-0.2397461,26.306152,-18.066406,0.79345703,0.0,0.0,0.0,-137.78503,72.1637,5.394287
1766811686860,-1.0322266,-0.2446289,-0.2397461,26.306152,-18.066406,0.79345703,0.0,0.0,0.0,-135.87341,72.734985,6.591797
1766811686948,-0.9770508,-0.15576172,-0.19628906,-6.286621,-3.0517578,-1.2207031,0.0,0.0,0.0,-135.87341,72.734985,6.591797
1766811686959,-0.9770508,-0.15576172,-0.19628906,-6.286621,-3.0517578,-1.2207031,0.0,0.0,0.0,-132.72583,73.21289,8.97583
1766811687048,-0.8515625,-0.19726562,-0.25195312,1.5258789,-6.958008,-4.760742,0.0,0.0,0.0,-132.72583,73.21289,8.97583
1766811687059,-0.8515625,-0.19726562,-0.25195312,1.5258789,-6.958008,-4.760742,0.0,0.0,0.0,-131.35803,73.19092,10.876465
1766811687147,-0.95703125,-0.15332031,-0.27685547,3.7231445,7.6904297,-2.9296875,0.0,0.0,0.0,-131.35803,73.19092,10.876465
1766811687159,-0.95703125,-0.15332031,-0.27685547,3.7231445,7.6904297,-2.9296875,0.0,0.0,0.0,-130.3418,72.927246,11.442261
1766811687247,-0.9448242,-0.1953125,-0.15185547,-10.559082,7.507324,-4.3945312,0.0,0.0,0.0,-130.3418,72.927246,11.442261
1766811687259,-0.9448242,-0.1953125,-0.15185547,-10.559082,7.507324,-4.3945312,0.0,0.0,0.0,-134.21448,71.81213,8.481445
1766811687347,-0.93310547,-0.17138672,-0.24511719,-12.268066,3.7841797,-0.48828125,0.0,0.0,0.0,-134.21448,71.81213,8.481445
1766811687359,-0.93310547,-0.17138672,-0.24511719,-12.268066,3.7841797,-0.48828125,0.0,0.0,0.0,-134.86816,71.54846,8.745117
1766811687447,-0.95947266,-0.23828125,-0.19091797,-3.479004,1.4648438,-3.0517578,0.0,0.0,0.0,-134.86816,71.54846,8.745117
1766811687458,-0.95947266,-0.23828125,-0.19091797,-3.479004,1.4648438,-3.0517578,0.0,0.0,0.0,-137.35657,71.087036,7.492676
1766811687546,-0.98779297,-0.23535156,-0.20996094,-2.5024414,1.2207031,-4.333496,0.0,0.0,0.0,-137.35657,71.087036,7.492676
1766811687558,-0.98779297,-0.23535156,-0.20996094,-2.5024414,1.2207031,-4.333496,0.0,0.0,0.0,-137.07092,70.911255,7.976074
1766811687646,-1.0131836,-0.20605469,-0.15576172,6.1035156,-2.5634766,0.91552734,0.0,0.0,0.0,-137.07092,70.911255,7.976074
1766811687657,-1.0131836,-0.20605469,-0.15576172,6.1035156,-2.5634766,0.91552734,0.0,0.0,0.0,-135.82397,71.07056,8.618774
1766811687746,-0.9995117,-0.17089844,-0.15576172,15.74707,-15.075684,6.225586,0.0,0.0,0.0,-135.82397,71.07056,8.618774
1766811687757,-0.9995117,-0.17089844,-0.15576172,15.74707,-15.075684,6.225586,0.0,0.0,0.0,-133.37402,71.89453,10.217285
1766811687845,-0.91503906,-0.20996094,-0.22753906,8.239746,-14.221191,4.3945312,0.0,0.0,0.0,-133.37402,71.89453,10.217285
1766811687857,-0.91503906,-0.20996094,-0.22753906,8.239746,-14.221191,4.3945312,0.0,0.0,0.0,-128.74878,73.306274,13.474731
1766811687945,-0.9272461,-0.1743164,-0.20263672,-0.12207031,-13.061523,9.216309,0.0,0.0,0.0,-128.74878,73.306274,13.474731
1766811687957,-0.9272461,-0.1743164,-0.20263672,-0.12207031,-13.061523,9.216309,0.0,0.0,0.0,-126.87012,74.70703,15.441284
1766811688045,-0.8925781,-0.24902344,-0.1694336,-8.361816,-1.8310547,4.211426,0.0,0.0,0.0,-126.87012,74.70703,15.441284
1766811688056,-0.8925781,-0.24902344,-0.1694336,-8.361816,-1.8310547,4.211426,0.0,0.0,0.0,-127.369995,75.426636,15.88623
1766811688145,-1.0253906,-0.21191406,-0.25146484,-0.91552734,12.145996,-0.91552734,0.0,0.0,0.0,-127.369995,75.426636,15.88623
1766811688156,-1.0253906,-0.21191406,-0.25146484,-0.91552734,12.145996,-0.91552734,0.0,0.0,0.0,-127.386475,75.563965,15.166626
1766811688244,-0.9526367,-0.1616211,-0.115234375,-7.2021484,22.705078,6.3476562,0.0,0.0,0.0,-127.386475,75.563965,15.166626
1766811688256,-0.9526367,-0.1616211,-0.115234375,-7.2021484,22.705078,6.3476562,0.0,0.0,0.0,-134.07715,74.70703,8.657227
1766811688344,-0.9394531,-0.29785156,-0.18310547,8.117676,15.686035,-1.8310547,0.0,0.0,0.0,-134.07715,74.70703,8.657227
1766811688355,-0.9394531,-0.29785156,-0.18310547,8.117676,15.686035,-1.8310547,0.0,0.0,0.0,-137.74658,73.361206,4.883423
1766811688444,-0.9838867,-0.13232422,-0.17285156,-0.48828125,20.874023,-4.638672,0.0,0.0,0.0,-137.74658,73.361206,4.883423
1766811688455,-0.9838867,-0.13232422,-0.17285156,-0.48828125,20.874023,-4.638672,0.0,0.0,0.0,-138.74634,72.125244,2.9058838
1766811688543,-0.9970703,-0.203125,-0.18310547,-3.0517578,6.0424805,-2.9907227,0.0,0.0,0.0,-138.74634,72.125244,2.9058838
1766811688555,-0.9970703,-0.203125,-0.18310547,-3.0517578,6.0424805,-2.9907227,0.0,0.0,0.0,-139.92188,71.1145,1.7687988
1766811688643,-1.0541992,-0.22607422,-0.33496094,-8.728027,-8.7890625,-3.7841797,0.0,0.0,0.0,-139.92188,71.1145,1.7687988
1766811688654,-1.0541992,-0.22607422,-0.33496094,-8.728027,-8.7890625,-3.7841797,0.0,0.0,0.0,-139.2572,71.40015,3.5430908
1766811688743,-0.9819336,-0.25195312,-0.1665039,-25.939941,-10.009766,-1.6479492,0.0,0.0,0.0,-139.2572,71.40015,3.5430908
1766811688754,-0.9819336,-0.25195312,-0.1665039,-25.939941,-10.009766,-1.6479492,0.0,0.0,0.0,-140.05371,71.520996,4.5648193
1766811688842,-0.9057617,-0.2368164,-0.27783203,1.3427734,-22.216797,1.3427734,0.0,0.0,0.0,-140.05371,71.520996,4.5648193
1766811688854,-0.9057617,-0.2368164,-0.27783203,1.3427734,-22.216797,1.3427734,0.0,0.0,0.0,-135.6427,73.26782,9.536133
1766811688942,-0.84228516,-0.1928711,-0.21289062,13.427734,-17.028809,0.12207031,0.0,0.0,0.0,-135.6427,73.26782,9.536133
1766811688954,-0.84228516,-0.1928711,-0.21289062,13.427734,-17.028809,0.12207031,0.0,0.0,0.0,-131.2207,74.229126,13.491211
1766811689042,-1.0439453,-0.1328125,-0.2841797,-4.8217773,8.361816,-5.6762695,0.0,0.0,0.0,-131.2207,74.229126,13.491211
1766811689053,-1.0439453,-0.1328125,-0.2841797,-4.8217773,8.361816,-5.6762695,0.0,0.0,0.0,-129.375,73.76221,15.128174
1766811689142,-0.89941406,-0.25,-0.18408203,-11.962891,5.432129,-9.887695,0.0,0.0,0.0,-129.375,73.76221,15.128174
1766811689153,-0.89941406,-0.25,-0.18408203,-11.962891,5.432129,-9.887695,0.0,0.0,0.0,-132.6709,72.350464,13.623047
1766811689241,-0.95410156,-0.16357422,-0.19189453,-23.4375,12.6953125,-7.446289,0.0,0.0,0.0,-132.6709,72.350464,13.623047
1766811689253,-0.95410156,-0.16357422,-0.19189453,-23.4375,12.6953125,-7.446289,0.0,0.0,0.0,-133.74756,71.570435,13.831787
1766811689341,-0.9482422,-0.2890625,-0.21679688,5.3710938,8.117676,-1.6479492,0.0,0.0,0.0,-133.74756,71.570435,13.831787
1766811689353,-0.9482422,-0.2890625,-0.21679688,5.3710938,8.117676,-1.6479492,0.0,0.0,0.0,-136.46118,70.24658,12.453003
1766811689441,-1.0507812,-0.23486328,-0.12402344,1.8920898,-0.24414062,-3.4179688,0.0,0.0,0.0,-136.46118,70.24658,12.453003
1766811689452,-1.0507812,-0.23486328,-0.12402344,1.8920898,-0.24414062,-3.4179688,0.0,0.0,0.0,-136.4502,69.746704,11.694946
1766811689540,-0.97509766,-0.2211914,-0.19824219,12.145996,-13.427734,1.8310547,0.0,0.0,0.0,-136.4502,69.746704,11.694946
1766811689552,-0.97509766,-0.2211914,-0.19824219,12.145996,-13.427734,1.8310547,0.0,0.0,0.0,-131.17126,71.01013,15.133667
1766811689640,-1.0244141,-0.3022461,-0.1484375,27.893066,-18.066406,5.554199,0.0,0.0,0.0,-131.17126,71.01013,15.133667
1766811689652,-1.0244141,-0.3022461,-0.1484375,27.893066,-18.066406,5.554199,0.0,0.0,0.0,-126.61743,72.30652,18.045044
1766811689740,-0.9399414,-0.064941406,-0.14453125,5.7373047,-4.333496,12.878418,0.0,0.0,0.0,-126.61743,72.30652,18.045044
1766811689752,-0.9399414,-0.064941406,-0.14453125,5.7373047,-4.333496,12.878418,0.0,0.0,0.0,-125.216675,73.38867,18.330688
1766811689840,-0.8803711,-0.26123047,-0.22070312,-2.4414062,-0.5493164,5.859375,0.0,0.0,0.0,-125.216675,73.38867,18.330688
1766811689852,-0.8803711,-0.26123047,-0.22070312,-2.4414062,-0.5493164,5.859375,0.0,0.0,0.0,-126.02966,74.62463,17.078247
1766811689939,-0.90234375,-0.2788086,-0.25878906,2.6245117,5.2490234,5.432129,0.0,0.0,0.0,-126.02966,74.62463,17.078247
1766811689951,-0.90234375,-0.2788086,-0.25878906,2.6245117,5.2490234,5.432129,0.0,0.0,0.0,-129.30908,74.86084,14.177856
1766811690039,-1.012207,-0.12841797,-0.19042969,-14.038086,19.470215,2.5024414,0.0,0.0,0.0,-129.30908,74.86084,14.177856
1766811690051,-1.012207,-0.12841797,-0.19042969,-14.038086,19.470215,2.5024414,0.0,0.0,0.0,-134.96704,73.465576,9.398804
1766811690139,-0.9189453,-0.2841797,-0.2211914,-13.61084,22.521973,-6.3476562,0.0,0.0,0.0,-134.96704,73.465576,9.398804
1766811690150,-0.9189453,-0.2841797,-0.2211914,-13.61084,22.521973,-6.3476562,0.0,0.0,0.0,-139.86145,72.13623,5.218506
1766811690239,-0.9555664,-0.14746094,-0.22607422,8.422852,13.061523,4.211426,0.0,0.0,0.0,-139.86145,72.13623,5.218506
1766811690250,-0.9555664,-0.14746094,-0.22607422,8.422852,13.061523,4.211426,0.0,0.0,0.0,-141.87195,70.70801,3.0377197
1766811690338,-0.9941406,-0.22167969,-0.22265625,-14.404297,20.568848,-4.272461,0.0,0.0,0.0,-141.87195,70.70801,3.0377197
1766811690350,-0.9941406,-0.22167969,-0.22265625,-14.404297,20.568848,-4.272461,0.0,0.0,0.0,-145.73914,68.8678,-0.14831543
1766811690438,-0.97509766,-0.19580078,-0.26464844,-11.779785,-3.8452148,3.8452148,0.0,0.0,0.0,-145.73914,68.8678,-0.14831543
1766811690449,-0.97509766,-0.19580078,-0.26464844,-11.779785,-3.8452148,3.8452148,0.0,0.0,0.0,-146.90369,68.73047,-0.8898926
1766811690538,-1.0073242,-0.22753906,-0.32373047,-0.24414062,-21.1792,-0.18310547,0.0,0.0,0.0,-146.90369,68.73047,-0.8898926
1766811690549,-1.0073242,-0.22753906,-0.32373047,-0.24414062,-21.1792,-0.18310547,0.0,0.0,0.0,-147.03003,69.60388,0.5657959
1766811690637,-0.92285156,-0.25439453,-0.22607422,-9.399414,-9.58252,-2.0141602,0.0,0.0,0.0,-147.03003,69.60388,0.5657959
1766811690649,-0.92285156,-0.25439453,-0.22607422,-9.399414,-9.58252,-2.0141602,0.0,0.0,0.0,-143.7561,71.48804,3.317871
1766811690737,-0.91552734,-0.21875,-0.265625,14.6484375,-22.827148,2.1362305,0.0,0.0,0.0,-143.7561,71.48804,3.317871
1766811690748,-0.91552734,-0.21875,-0.265625,14.6484375,-22.827148,2.1362305,0.0,0.0,0.0,-140.89417,72.27905,6.531372
1766811690837,-0.8598633,-0.140625,-0.2446289,3.7231445,0.12207031,-2.5634766,0.0,0.0,0.0,-140.89417,72.27905,6.531372
1766811690849,-0.8598633,-0.140625,-0.2446289,3.7231445,0.12207031,-2.5634766,0.0,0.0,0.0,-137.19727,73.22937,8.87146
1766811690936,-0.97216797,-0.203125,-0.31591797,-1.2207031,13.244629,-2.5024414,0.0,0.0,0.0,-137.19727,73.22937,8.87146
1766811690948,-0.97216797,-0.203125,-0.31591797,-1.2207031,13.244629,-2.5024414,0.0,0.0,0.0,-138.66394,72.17468,7.706909
1766811691036,-0.93115234,-0.15820312,-0.21142578,-9.94873,9.94873,-11.291504,0.0,0.0,0.0,-138.66394,72.17468,7.706909
1766811691048,-0.93115234,-0.15820312,-0.21142578,-9.94873,9.94873,-11.291504,0.0,0.0,0.0,-141.47095,70.389404,5.762329
1766811691136,-0.93652344,-0.13720703,-0.2553711,-11.047363,4.5776367,-5.126953,0.0,0.0,0.0,-141.47095,70.389404,5.762329
1766811691147,-0.93652344,-0.13720703,-0.2553711,-11.047363,4.5776367,-5.126953,0.0,0.0,0.0,-141.1084,70.043335,6.459961
1766811691236,-0.96484375,-0.20117188,-0.23046875,-15.625,15.625,-3.9672852,0.0,0.0,0.0,-141.1084,70.043335,6.459961
1766811691247,-0.96484375,-0.20117188,-0.23046875,-15.625,15.625,-3.9672852,0.0,0.0,0.0,-143.66272,69.06555,4.8394775
1766811691335,-0.9477539,-0.20898438,-0.2397461,16.296387,-3.7231445,-0.18310547,0.0,0.0,0.0,-143.66272,69.06555,4.8394775
1766811691347,-0.9477539,-0.20898438,-0.2397461,16.296387,-3.7231445,-0.18310547,0.0,0.0,0.0,-143.98682,68.4613,4.317627
1766811691435,-0.9555664,-0.18261719,-0.23095703,12.145996,-11.291504,6.225586,0.0,0.0,0.0,-143.98682,68.4613,4.317627
1766811691447,-0.9555664,-0.18261719,-0.23095703,12.145996,-11.291504,6.225586,0.0,0.0,0.0,-141.64124,69.505005,5.0097656
1766811691535,-0.99902344,-0.23583984,-0.31640625,19.348145,-21.1792,1.953125,0.0,0.0,0.0,-141.64124,69.505005,5.0097656
1766811691547,-0.99902344,-0.23583984,-0.31640625,19.348145,-21.1792,1.953125,0.0,0.0,0.0,-137.86743,71.2738,6.8499756
1766811691635,-0.91308594,-0.0703125,-0.1977539,-22.888184,11.535645,10.375977,0.0,0.0,0.0,-137.86743,71.2738,6.8499756
1766811691646,-0.91308594,-0.0703125,-0.1977539,-22.888184,11.535645,10.375977,0.0,0.0,0.0,-136.2799,73.03711,7.4432373
1766811691735,-0.8754883,-0.28857422,-0.29541016,9.216309,-6.8359375,11.71875,0.0,0.0,0.0,-136.2799,73.03711,7.4432373
1766811691746,-0.8754883,-0.28857422,-0.29541016,9.216309,-6.8359375,11.71875,0.0,0.0,0.0,-141.14685,72.52075,3.6749268
1766811691834,-0.9526367,-0.19970703,-0.32080078,5.065918,4.9438477,1.8920898,0.0,0.0,0.0,-141.14685,72.52075,3.6749268
1766811691845,-0.9526367,-0.19970703,-0.32080078,5.065918,4.9438477,1.8920898,0.0,0.0,0.0,-141.9928,73.40515,0.8074951
1766811691934,-0.9863281,-0.13671875,-0.2241211,-10.009766,14.221191,5.79834,0.0,0.0,0.0,-141.9928,73.40515,0.8074951
1766811691945,-0.9863281,-0.13671875,-0.2241211,-10.009766,14.221191,5.79834,0.0,0.0,0.0,-146.44226,72.37244,-3.2080078
1766811692033,-0.9042969,-0.25976562,-0.25976562,-0.30517578,7.9345703,1.6479492,0.0,0.0,0.0,-146.44226,72.37244,-3.2080078
1766811692045,-0.9042969,-0.25976562,-0.25976562,-0.30517578,7.9345703,1.6479492,0.0,0.0,0.0,-149.49646,71.691284,-5.597534
1766811692133,-0.9741211,-0.13183594,-0.24023438,1.4038086,13.916016,-2.9296875,0.0,0.0,0.0,-149.49646,71.691284,-5.597534
1766811692144,-0.9741211,-0.13183594,-0.24023438,1.4038086,13.916016,-2.9296875,0.0,0.0,0.0,-149.7821,70.57068,-6.190796
1766811692233,-0.97998047,-0.18066406,-0.23339844,-10.375977,13.366699,-6.4086914,0.0,0.0,0.0,-149.7821,70.57068,-6.190796
1766811692244,-0.97998047,-0.18066406,-0.23339844,-10.375977,13.366699,-6.4086914,0.0,0.0,0.0,-151.13342,69.12598,-7.0202637
1766811692333,-0.9921875,-0.1850586,-0.25341797,-2.746582,-15.563965,0.36621094,0.0,0.0,0.0,-151.13342,69.12598,-7.0202637
1766811692344,-0.9921875,-0.1850586,-0.25341797,-2.746582,-15.563965,0.36621094,0.0,0.0,0.0,-150.15564,69.208374,-5.454712
1766811692432,-0.9770508,-0.2446289,-0.3022461,17.211914,-18.981934,4.699707,0.0,0.0,0.0,-150.15564,69.208374,-5.454712
1766811692444,-0.9770508,-0.2446289,-0.3022461,17.211914,-18.981934,4.699707,0.0,0.0,0.0,-146.62903,71.24634,-2.2576904
1766811692532,-0.9394531,-0.18310547,-0.19970703,7.9345703,-13.183594,2.8076172,0.0,0.0,0.0,-146.62903,71.24634,-2.2576904
1766811692543,-0.9394531,-0.18310547,-0.19970703,7.9345703,-13.183594,2.8076172,0.0,0.0,0.0,-143.79456,72.37244,-0.26916504
1766811692632,-0.91748047,-0.1875,-0.26123047,13.427734,-17.089844,-1.159668,0.0,0.0,0.0,-143.79456,72.37244,-0.26916504
1766811692643,-0.91748047,-0.1875,-0.26123047,13.427734,-17.089844,-1.159668,0.0,0.0,0.0,-138.49915,73.811646,3.7792969
1766811692731,-0.87841797,-0.18945312,-0.23388672,18.920898,-10.314941,0.18310547,0.0,0.0,0.0,-138.49915,73.811646,3.7792969
1766811692743,-0.87841797,-0.18945312,-0.23388672,18.920898,-10.314941,0.18310547,0.0,0.0,0.0,-134.65393,74.54224,6.328125
1766811692831,-1.0224609,-0.12548828,-0.27441406,4.9438477,2.1362305,-5.065918,0.0,0.0,0.0,-134.65393,74.54224,6.328125
1766811692842,-1.0224609,-0.12548828,-0.27441406,4.9438477,2.1362305,-5.065918,0.0,0.0,0.0,-132.23145,74.35547,7.8881836
1766811692931,-0.9423828,-0.19238281,-0.15576172,-3.0517578,2.9907227,-9.521484,0.0,0.0,0.0,-132.23145,74.35547,7.8881836
1766811692942,-0.9423828,-0.19238281,-0.15576172,-3.0517578,2.9907227,-9.521484,0.0,0.0,0.0,-132.64343,73.322754,8.360596
1766811693030,-0.94677734,-0.15478516,-0.19384766,-16.357422,7.5683594,-4.333496,0.0,0.0,0.0,-132.64343,73.322754,8.360596
1766811693043,-0.94677734,-0.15478516,-0.19384766,-16.357422,7.5683594,-4.333496,0.0,0.0,0.0,-133.72559,72.69653,8.4210205
1766811693130,-0.97021484,-0.20947266,-0.17773438,-9.460449,10.437012,-2.6245117,0.0,0.0,0.0,-133.72559,72.69653,8.4210205
1766811693143,-0.97021484,-0.20947266,-0.17773438,-9.460449,10.437012,-2.6245117,0.0,0.0,0.0,-136.2799,71.94397,6.959839
1766811693230,-0.9506836,-0.18652344,-0.15283203,10.009766,-1.4648438,-2.319336,0.0,0.0,0.0,-136.2799,71.94397,6.959839
1766811693241,-0.9506836,-0.18652344,-0.15283203,10.009766,-1.4648438,-2.319336,0.0,0.0,0.0,-135.70312,71.641846,7.3553467
1766811693330,-1.0063477,-0.18701172,-0.15722656,12.878418,-12.512207,2.9907227,0.0,0.0,0.0,-135.70312,71.641846,7.3553467
1766811693341,-1.0063477,-0.18701172,-0.15722656,12.878418,-12.512207,2.9907227,0.0,0.0,0.0,-133.3081,72.27356,8.986816
1766811693429,-0.9951172,-0.24658203,-0.18554688,16.052246,-12.329102,4.5776367,0.0,0.0,0.0,-133.3081,72.27356,8.986816
1766811693441,-0.9951172,-0.24658203,-0.18554688,16.052246,-12.329102,4.5776367,0.0,0.0,0.0,-128.52356,73.73474,12.11792
1766811693529,-0.9238281,-0.08935547,-0.18310547,-1.8310547,-9.033203,11.962891,0.0,0.0,0.0,-128.52356,73.73474,12.11792
1766811693540,-0.9238281,-0.08935547,-0.18310547,-1.8310547,-9.033203,11.962891,0.0,0.0,0.0,-127.63916,75.113525,12.755127
1766811693629,-0.89208984,-0.2529297,-0.20019531,-1.2207031,-4.699707,5.432129,0.0,0.0,0.0,-127.63916,75.113525,12.755127
1766811693640,-0.89208984,-0.2529297,-0.20019531,-1.2207031,-4.699707,5.432129,0.0,0.0,0.0,-128.86414,76.118774,12.057495
1766811693728,-0.99609375,-0.2631836,-0.24902344,1.8310547,2.8076172,4.5166016,0.0,0.0,0.0,-128.86414,76.118774,12.057495
1766811693740,-0.99609375,-0.2631836,-0.24902344,1.8310547,2.8076172,4.5166016,0.0,0.0,0.0,-130.30884,76.45935,10.612793
1766811693828,-1.0214844,-0.10888672,-0.14697266,-15.808105,11.291504,7.446289,0.0,0.0,0.0,-130.30884,76.45935,10.612793
1766811693841,-1.0214844,-0.10888672,-0.14697266,-15.808105,11.291504,7.446289,0.0,0.0,0.0,-135.54382,75.981445,6.1688232
1766811693928,-0.9082031,-0.25341797,-0.1928711,-8.972168,7.2631836,-3.479004,0.0,0.0,0.0,-135.54382,75.981445,6.1688232
1766811693939,-0.9082031,-0.25341797,-0.1928711,-8.972168,7.2631836,-3.479004,0.0,0.0,0.0,-139.07043,75.51453,3.817749
1766811694028,-1.0053711,-0.15917969,-0.19873047,-8.422852,4.1503906,-5.9814453,0.0,0.0,0.0,-139.07043,75.51453,3.817749
1766811694039,-1.0053711,-0.15917969,-0.19873047,-8.422852,4.1503906,-5.9814453,0.0,0.0,0.0,-139.67468,74.470825,4.213257
1766811694127,-0.87646484,-0.19580078,-0.17138672,-7.6904297,14.831543,-5.065918,0.0,0.0,0.0,-139.67468,74.470825,4.213257
1766811694139,-0.87646484,-0.19580078,-0.17138672,-7.6904297,14.831543,-5.065918,0.0,0.0,0.0,-140.68542,73.61389,4.1363525
1766811694227,-1.0249023,-0.22070312,-0.13623047,-9.765625,15.625,-4.8828125,0.0,0.0,0.0,-140.68542,73.61389,4.1363525
1766811694239,-1.0249023,-0.22070312,-0.13623047,-9.765625,15.625,-4.8828125,0.0,0.0,0.0,-142.96509,71.96045,2.8125
1766811694327,-1.0297852,-0.23876953,-0.23632812,-6.8969727,-2.4414062,0.24414062,0.0,0.0,0.0,-142.96509,71.96045,2.8125
1766811694339,-1.0297852,-0.23876953,-0.23632812,-6.8969727,-2.4414062,0.24414062,0.0,0.0,0.0,-143.95386,71.520996,2.4279785
1766811694426,-0.91748047,-0.2763672,-0.2548828,-1.0986328,3.90625,-3.112793,0.0,0.0,0.0,-143.95386,71.520996,2.4279785
1766811694438,-0.91748047,-0.2763672,-0.2548828,-1.0986328,3.90625,-3.112793,0.0,0.0,0.0,-143.21777,71.39465,2.7410889
1766811694526,-0.93603516,-0.2578125,-0.27197266,9.338379,-7.873535,-3.9672852,0.0,0.0,0.0,-143.21777,71.39465,2.7410889
1766811694538,-0.93603516,-0.2578125,-0.27197266,9.338379,-7.873535,-3.9672852,0.0,0.0,0.0,-140.26794,71.53198,5.048218
1766811694626,-0.8984375,-0.107910156,-0.27441406,6.958008,-3.2958984,1.5258789,0.0,0.0,0.0,-140.26794,71.53198,5.048218
1766811694638,-0.8984375,-0.107910156,-0.27441406,6.958008,-3.2958984,1.5258789,0.0,0.0,0.0,-137.58179,71.482544,6.959839
1766811694726,-0.99902344,-0.13232422,-0.3227539,-14.160156,-1.5869141,-7.751465,0.0,0.0,0.0,-137.58179,71.482544,6.959839
1766811694737,-0.99902344,-0.13232422,-0.3227539,-14.160156,-1.5869141,-7.751465,0.0,0.0,0.0,-136.87317,71.136475,8.706665
1766811694825,-0.9189453,-0.21289062,-0.2529297,-12.268066,-3.7841797,-12.634277,0.0,0.0,0.0,-136.87317,71.136475,8.706665
1766811694837,-0.9189453,-0.21289062,-0.2529297,-12.268066,-3.7841797,-12.634277,0.0,0.0,0.0,-137.12036,70.40588,10.085449
1766811694925,-0.9272461,-0.16845703,-0.2319336,-18.432617,0.9765625,-9.58252,0.0,0.0,0.0,-137.12036,70.40588,10.085449
1766811694936,-0.9272461,-0.16845703,-0.2319336,-18.432617,0.9765625,-9.58252,0.0,0.0,0.0,-135.69763,70.40588,12.420044
1766811695025,-0.921875,-0.24121094,-0.25585938,-4.4555664,10.375977,-6.8359375,0.0,0.0,0.0,-135.69763,70.40588,12.420044
1766811695036,-0.921875,-0.24121094,-0.25585938,-4.4555664,10.375977,-6.8359375,0.0,0.0,0.0,-136.78528,69.263306,12.584839
1766811695124,-0.97216797,-0.26416016,-0.2084961,1.5869141,9.70459,-4.1503906,0.0,0.0,0.0,-136.78528,69.263306,12.584839
1766811695136,-0.97216797,-0.26416016,-0.2084961,1.5869141,9.70459,-4.1503906,0.0,0.0,0.0,-138.03772,68.07678,11.008301
1766811695224,-0.95751953,-0.21044922,-0.24414062,-5.6152344,9.277344,-0.61035156,0.0,0.0,0.0,-138.03772,68.07678,11.008301
1766811695236,-0.95751953,-0.21044922,-0.24414062,-5.6152344,9.277344,-0.61035156,0.0,0.0,0.0,-138.33435,67.576904,10.178833
1766811695324,-0.9375,-0.24853516,-0.2705078,9.155273,1.0986328,11.657715,0.0,0.0,0.0,-138.33435,67.576904,10.178833
1766811695335,-0.9375,-0.24853516,-0.2705078,9.155273,1.0986328,11.657715,0.0,0.0,0.0,-139.81201,67.560425,8.311157
1766811695424,-1.0102539,-0.3046875,-0.33251953,19.65332,-14.465332,2.8686523,0.0,0.0,0.0,-139.81201,67.560425,8.311157
1766811695435,-1.0102539,-0.3046875,-0.33251953,19.65332,-14.465332,2.8686523,0.0,0.0,0.0,-139.05945,68.33496,7.8771973
1766811695523,-0.92041016,-0.096191406,-0.18115234,-8.300781,3.479004,4.211426,0.0,0.0,0.0,-139.05945,68.33496,7.8771973
1766811695535,-0.92041016,-0.096191406,-0.18115234,-8.300781,3.479004,4.211426,0.0,0.0,0.0,-137.59827,69.592896,7.9156494
1766811695623,-0.9921875,-0.2397461,-0.30273438,-6.7749023,-11.352539,2.6855469,0.0,0.0,0.0,-137.59827,69.592896,7.9156494
1766811695634,-0.9921875,-0.2397461,-0.30273438,-6.7749023,-11.352539,2.6855469,0.0,0.0,0.0,-139.5758,69.505005,7.904663
1766811695723,-0.8984375,-0.25683594,-0.29492188,-9.155273,-7.6904297,0.36621094,0.0,0.0,0.0,-139.5758,69.505005,7.904663
1766811695734,-0.8984375,-0.25683594,-0.29492188,-9.155273,-7.6904297,0.36621094,0.0,0.0,0.0,-139.5044,70.08179,8.761597
1766811695822,-0.91552734,-0.24169922,-0.32421875,1.6479492,-15.136719,2.2583008,0.0,0.0,0.0,-139.5044,70.08179,8.761597
1766811695834,-0.91552734,-0.24169922,-0.32421875,1.6479492,-15.136719,2.2583008,0.0,0.0,0.0,-137.42249,71.00464,10.750122
1766811695922,-0.98828125,-0.2758789,-0.23095703,3.6010742,-13.183594,3.6621094,0.0,0.0,0.0,-137.42249,71.00464,10.750122
1766811695934,-0.98828125,-0.2758789,-0.23095703,3.6010742,-13.183594,3.6621094,0.0,0.0,0.0,-137.76306,71.39465,10.964355
1766811696022,-0.88964844,-0.20800781,-0.23632812,-0.4272461,-0.12207031,1.159668,0.0,0.0,0.0,-137.76306,71.39465,10.964355
1766811696033,-0.88964844,-0.20800781,-0.23632812,-0.4272461,-0.12207031,1.159668,0.0,0.0,0.0,-134.46167,72.61963,12.837524
1766811696122,-0.9536133,-0.23388672,-0.17236328,0.4272461,2.9296875,-2.380371,0.0,0.0,0.0,-134.46167,72.61963,12.837524
1766811696133,-0.9536133,-0.23388672,-0.17236328,0.4272461,2.9296875,-2.380371,0.0,0.0,0.0,-136.10413,71.91101,11.293945
1766811696221,-0.95166016,-0.23095703,-0.17675781,-4.4555664,17.211914,-5.3100586,0.0,0.0,0.0,-136.10413,71.91101,11.293945
1766811696233,-0.95166016,-0.23095703,-0.17675781,-4.4555664,17.211914,-5.3100586,0.0,0.0,0.0,-135.54932,71.2738,11.167603
1766811696321,-0.9765625,-0.23388672,-0.20166016,7.8125,7.5683594,-2.1972656,0.0,0.0,0.0,-135.54932,71.2738,11.167603
1766811696333,-0.9765625,-0.23388672,-0.20166016,7.8125,7.5683594,-2.1972656,0.0,0.0,0.0,-137.30713,69.77417,9.442749
1766811696421,-1.0209961,-0.23535156,-0.18652344,-12.084961,2.8686523,-4.5776367,0.0,0.0,0.0,-137.30713,69.77417,9.442749
1766811696432,-1.0209961,-0.23535156,-0.18652344,-12.084961,2.8686523,-4.5776367,0.0,0.0,0.0,-137.28516,69.23035,9.321899
1766811696520,-0.95410156,-0.27392578,-0.234375,14.343262,-4.760742,7.2021484,0.0,0.0,0.0,-137.28516,69.23035,9.321899
1766811696532,-0.95410156,-0.27392578,-0.234375,14.343262,-4.760742,7.2021484,0.0,0.0,0.0,-135.65918,70.04883,10.437012
1766811696620,-0.9379883,-0.24658203,-0.18896484,32.470703,-11.047363,10.070801,0.0,0.0,0.0,-135.65918,70.04883,10.437012
1766811696632,-0.9379883,-0.24658203,-0.18896484,32.470703,-11.047363,10.070801,0.0,0.0,0.0,-134.34082,70.76294,10.17334
1766811696720,-0.97558594,-0.25439453,-0.23046875,27.22168,-6.0424805,6.7749023,0.0,0.0,0.0,-134.34082,70.76294,10.17334
1766811696731,-0.97558594,-0.25439453,-0.23046875,27.22168,-6.0424805,6.7749023,0.0,0.0,0.0,-130.81421,72.11975,10.585327
1766811696819,-0.8798828,-0.2133789,-0.1953125,30.151367,-9.521484,5.7373047,0.0,0.0,0.0,-130.81421,72.11975,10.585327
1766811696831,-0.8798828,-0.2133789,-0.1953125,30.151367,-9.521484,5.7373047,0.0,0.0,0.0,-128.02917,73.13599,10.508423
1766811696919,-0.96484375,-0.19873047,-0.32470703,36.254883,-10.070801,0.30517578,0.0,0.0,0.0,-128.02917,73.13599,10.508423
1766811696931,-0.96484375,-0.19873047,-0.32470703,36.254883,-10.070801,0.30517578,0.0,0.0,0.0,-121.52527,73.74573,13.815308
1766811697019,-0.99853516,-0.20751953,-0.110839844,-5.92041,-4.3945312,-8.972168,0.0,0.0,0.0,-121.52527,73.74573,13.815308
1766811697030,-0.99853516,-0.20751953,-0.110839844,-5.92041,-4.3945312,-8.972168,0.0,0.0,0.0,-121.569214,73.081055,14.007568
1766811697119,-0.93115234,-0.16845703,-0.16894531,-12.023926,-1.4038086,-6.958008,0.0,0.0,0.0,-121.569214,73.081055,14.007568
1766811697131,-0.93115234,-0.16845703,-0.16894531,-12.023926,-1.4038086,-6.958008,0.0,0.0,0.0,-119.75647,72.77893,17.089233
1766811697218,-0.9536133,-0.24316406,-0.14111328,-6.4697266,7.2631836,-2.8686523,0.0,0.0,0.0,-119.75647,72.77893,17.089233
1766811697230,-0.9536133,-0.24316406,-0.14111328,-6.4697266,7.2631836,-2.8686523,0.0,0.0,0.0,-121.51428,72.26257,16.56189
1766811697318,-0.9501953,-0.2446289,-0.1352539,-12.756348,12.390137,-2.0751953,0.0,0.0,0.0,-121.51428,72.26257,16.56189
1766811697330,-0.9501953,-0.2446289,-0.1352539,-12.756348,12.390137,-2.0751953,0.0,0.0,0.0,-125.60669,71.50452,13.50769
1766811697418,-0.90966797,-0.24609375,-0.16210938,1.2207031,17.028809,2.380371,0.0,0.0,0.0,-125.60669,71.50452,13.50769
1766811697429,-0.90966797,-0.24609375,-0.16210938,1.2207031,17.028809,2.380371,0.0,0.0,0.0,-128.46313,71.0376,10.662231
1766811697518,-1.0458984,-0.20703125,-0.15283203,13.61084,3.4179688,4.272461,0.0,0.0,0.0,-128.46313,71.0376,10.662231
1766811697529,-1.0458984,-0.20703125,-0.15283203,13.61084,3.4179688,4.272461,0.0,0.0,0.0,-130.31433,70.62561,7.937622
1766811697617,-0.9667969,-0.26611328,-0.25976562,6.7749023,-9.643555,5.6152344,0.0,0.0,0.0,-130.31433,70.62561,7.937622
1766811697629,-0.9667969,-0.26611328,-0.25976562,6.7749023,-9.643555,5.6152344,0.0,0.0,0.0,-129.375,71.257324,8.887939
1766811697717,-0.9326172,-0.1953125,-0.17626953,-18.188477,-7.9956055,5.432129,0.0,0.0,0.0,-129.375,71.257324,8.887939
1766811697728,-0.9326172,-0.1953125,-0.17626953,-18.188477,-7.9956055,5.432129,0.0,0.0,0.0,-129.33655,72.61963,10.074463
1766811697817,-0.93359375,-0.2006836,-0.1977539,-4.333496,-11.962891,7.5683594,0.0,0.0,0.0,-129.33655,72.61963,10.074463
1766811697828,-0.93359375,-0.2006836,-0.1977539,-4.333496,-11.962891,7.5683594,0.0,0.0,0.0,-127.72156,74.262085,12.381592
1766811697916,-0.8847656,-0.24511719,-0.22314453,-7.019043,-0.24414062,5.3710938,0.0,0.0,0.0,-127.72156,74.262085,12.381592
1766811697928,-0.8847656,-0.24511719,-0.22314453,-7.019043,-0.24414062,5.3710938,0.0,0.0,0.0,-128.11707,74.98718,12.98584
1766811698016,-1.0092773,-0.2397461,-0.26904297,7.6293945,7.2631836,7.2021484,0.0,0.0,0.0,-128.11707,74.98718,12.98584
1766811698028,-1.0092773,-0.2397461,-0.26904297,7.6293945,7.2631836,7.2021484,0.0,0.0,0.0,-130.44067,74.54773,10.69519
1766811698116,-0.93115234,-0.20166016,-0.14746094,-8.117676,10.498047,2.8076172,0.0,0.0,0.0,-130.44067,74.54773,10.69519
1766811698127,-0.93115234,-0.20166016,-0.14746094,-8.117676,10.498047,2.8076172,0.0,0.0,0.0,-134.78027,74.124756,6.602783
1766811698216,-0.94140625,-0.23144531,-0.17236328,-4.760742,9.82666,-2.8076172,0.0,0.0,0.0,-134.78027,74.124756,6.602783
1766811698227,-0.94140625,-0.23144531,-0.17236328,-4.760742,9.82666,-2.8076172,0.0,0.0,0.0,-136.70837,73.49304,5.1470947
1766811698315,-0.9663086,-0.19042969,-0.19482422,-3.3569336,13.183594,-1.5869141,0.0,0.0,0.0,-136.70837,73.49304,5.1470947
1766811698327,-0.9663086,-0.19042969,-0.19482422,-3.3569336,13.183594,-1.5869141,0.0,0.0,0.0,-137.68616,72.70203,4.0759277
1766811698415,-0.99609375,-0.22851562,-0.21679688,-11.901855,6.8969727,-5.92041,0.0,0.0,0.0,-137.68616,72.70203,4.0759277
1766811698427,-0.99609375,-0.22851562,-0.21679688,-11.901855,6.8969727,-5.92041,0.0,0.0,0.0,-139.88342,71.60889,2.7740479
1766811698515,-1.0249023,-0.23535156,-0.18408203,-11.108398,-12.390137,-3.3569336,0.0,0.0,0.0,-139.88342,71.60889,2.7740479
1766811698526,-1.0249023,-0.23535156,-0.18408203,-11.108398,-12.390137,-3.3569336,0.0,0.0,0.0,-139.30664,71.55945,4.7625732
1766811698614,-0.9316406,-0.2241211,-0.20117188,3.8452148,-10.498047,0.7324219,0.0,0.0,0.0,-139.30664,71.55945,4.7625732
1766811698626,-0.9316406,-0.2241211,-0.20117188,3.8452148,-10.498047,0.7324219,0.0,0.0,0.0,-135.0769,72.767944,8.728638
1766811698714,-0.9199219,-0.25439453,-0.21435547,21.606445,-17.63916,2.380371,0.0,0.0,0.0,-135.0769,72.767944,8.728638
1766811698726,-0.9199219,-0.25439453,-0.21435547,21.606445,-17.63916,2.380371,0.0,0.0,0.0,-130.6659,73.73474,12.128906
1766811698814,-0.8808594,-0.16503906,-0.22265625,12.023926,-2.746582,-1.4648438,0.0,0.0,0.0,-130.6659,73.73474,12.128906
1766811698825,-0.8808594,-0.16503906,-0.22265625,12.023926,-2.746582,-1.4648438,0.0,0.0,0.0,-126.27136,74.23462,14.935913
1766811698913,-1.0053711,-0.14892578,-0.30273438,3.7841797,2.319336,-6.225586,0.0,0.0,0.0,-126.27136,74.23462,14.935913
1766811698926,-1.0053711,-0.14892578,-0.30273438,3.7841797,2.319336,-6.225586,0.0,0.0,0.0,-125.31555,73.70178,15.655518
1766811699013,-0.9819336,-0.28271484,-0.16845703,-18.005371,8.7890625,-12.634277,0.0,0.0,0.0,-125.31555,73.70178,15.655518
1766811699025,-0.9819336,-0.28271484,-0.16845703,-18.005371,8.7890625,-12.634277,0.0,0.0,0.0,-129.5398,72.46582,12.88147
1766811699113,-0.9692383,-0.12109375,-0.14404297,-5.126953,1.953125,-3.9672852,0.0,0.0,0.0,-129.5398,72.46582,12.88147
1766811699124,-0.9692383,-0.12109375,-0.14404297,-5.126953,1.953125,-3.9672852,0.0,0.0,0.0,-129.12231,72.14722,13.293457
1766811699213,-0.9506836,-0.265625,-0.16552734,5.859375,-1.4038086,-1.8920898,0.0,0.0,0.0,-129.12231,72.14722,13.293457
1766811699224,-0.9506836,-0.265625,-0.16552734,5.859375,-1.4038086,-1.8920898,0.0,0.0,0.0,-130.13306,71.61438,12.886963
1766811699312,-0.95458984,-0.24072266,-0.14794922,5.065918,2.5024414,0.91552734,0.0,0.0,0.0,-130.13306,71.61438,12.886963
1766811699324,-0.95458984,-0.24072266,-0.14794922,5.065918,2.5024414,0.91552734,0.0,0.0,0.0,-128.8092,71.71875,13.458252
1766811699412,-1.0063477,-0.24658203,-0.14404297,18.981934,-11.962891,3.6010742,0.0,0.0,0.0,-128.8092,71.71875,13.458252
1766811699424,-1.0063477,-0.24658203,-0.14404297,18.981934,-11.962891,3.6010742,0.0,0.0,0.0,-127.32605,72.15271,13.936157
1766811699512,-1.1000977,-0.26953125,-0.17529297,21.850586,-14.770508,5.432129,0.0,0.0,0.0,-127.32605,72.15271,13.936157
1766811699526,-1.1000977,-0.26953125,-0.17529297,21.850586,-14.770508,5.432129,0.0,0.0,0.0,-122.41516,73.48755,16.902466
1766811699612,-0.9267578,-0.14160156,-0.1303711,-0.30517578,-2.380371,8.728027,0.0,0.0,0.0,-122.41516,73.48755,16.902466
1766811699623,-0.9267578,-0.14160156,-0.1303711,-0.30517578,-2.380371,8.728027,0.0,0.0,0.0,-119.25659,74.53125,18.94043
1766811699711,-0.9428711,-0.19384766,-0.17236328,5.2490234,-5.432129,11.169434,0.0,0.0,0.0,-119.25659,74.53125,18.94043
1766811699723,-0.9428711,-0.19384766,-0.17236328,5.2490234,-5.432129,11.169434,0.0,0.0,0.0,-118.97095,75.95398,18.709717
1766811699811,-0.8959961,-0.20898438,-0.1665039,-0.061035156,-1.2817383,9.155273,0.0,0.0,0.0,-118.97095,75.95398,18.709717
1766811699822,-0.8959961,-0.20898438,-0.1665039,-0.061035156,-1.2817383,9.155273,0.0,0.0,0.0,-120.70679,76.82739,17.303467
1766811699911,-1.0336914,-0.25146484,-0.1977539,5.432129,6.286621,5.004883,0.0,0.0,0.0,-120.70679,76.82739,17.303467
1766811699922,-1.0336914,-0.25146484,-0.1977539,5.432129,6.286621,5.004883,0.0,0.0,0.0,-123.49182,76.85486,14.683228
1766811700010,-0.93603516,-0.1586914,-0.12451172,-7.446289,15.869141,3.9672852,0.0,0.0,0.0,-123.49182,76.85486,14.683228
1766811700022,-0.93603516,-0.1586914,-0.12451172,-7.446289,15.869141,3.9672852,0.0,0.0,0.0,-128.51807,76.53076,9.755859
1766811700110,-0.94677734,-0.19824219,-0.14941406,-5.1879883,10.070801,-5.79834,0.0,0.0,0.0,-128.51807,76.53076,9.755859
1766811700122,-0.94677734,-0.19824219,-0.14941406,-5.1879883,10.070801,-5.79834,0.0,0.0,0.0,-132.22595,75.44861,7.0202637
1766811700210,-0.9760742,-0.19140625,-0.13720703,-13.305664,12.817383,-4.8828125,0.0,0.0,0.0,-132.22595,75.44861,7.0202637
1766811700221,-0.9760742,-0.19140625,-0.13720703,-13.305664,12.817383,-4.8828125,0.0,0.0,0.0,-134.5935,74.27307,5.828247
1766811700309,-1.0214844,-0.19433594,-0.13378906,-17.211914,11.84082,-4.8217773,0.0,0.0,0.0,-134.5935,74.27307,5.828247
1766811700321,-1.0214844,-0.19433594,-0.13378906,-17.211914,11.84082,-4.8217773,0.0,0.0,0.0,-137.52686,73.11401,4.257202
1766811700409,-0.9946289,-0.20507812,-0.20361328,-12.573242,-2.9907227,-3.2348633,0.0,0.0,0.0,-137.52686,73.11401,4.257202
1766811700421,-0.9946289,-0.20507812,-0.20361328,-12.573242,-2.9907227,-3.2348633,0.0,0.0,0.0,-138.49365,72.71301,4.6417236
1766811700509,-1.0429688,-0.2524414,-0.20117188,-5.432129,-9.399414,-2.0751953,0.0,0.0,0.0,-138.49365,72.71301,4.6417236
1766811700521,-1.0429688,-0.2524414,-0.20117188,-5.432129,-9.399414,-2.0751953,0.0,0.0,0.0,-137.20825,73.16345,7.305908
1766811700609,-0.8955078,-0.19335938,-0.15039062,2.1972656,-15.258789,-2.0751953,0.0,0.0,0.0,-137.20825,73.16345,7.305908
1766811700620,-0.8955078,-0.19335938,-0.15039062,2.1972656,-15.258789,-2.0751953,0.0,0.0,0.0,-134.50562,73.64136,10.458984
1766811700708,-0.9555664,-0.21582031,-0.20605469,4.8217773,-11.779785,-3.3569336,0.0,0.0,0.0,-134.50562,73.64136,10.458984
1766811700720,-0.9555664,-0.21582031,-0.20605469,4.8217773,-11.779785,-3.3569336,0.0,0.0,0.0,-128.43018,74.53125,16.149902
1766811700808,-0.8491211,-0.171875,-0.23144531,8.117676,-6.225586,-5.92041,0.0,0.0,0.0,-128.43018,74.53125,16.149902
1766811700819,-0.8491211,-0.171875,-0.23144531,8.117676,-6.225586,-5.92041,0.0,0.0,0.0,-124.75525,74.5697,19.489746
1766811700908,-1.0463867,-0.20117188,-0.18066406,-13.061523,11.108398,-4.8217773,0.0,0.0,0.0,-124.75525,74.5697,19.489746
1766811700919,-1.0463867,-0.20117188,-0.18066406,-13.061523,11.108398,-4.8217773,0.0,0.0,0.0,-124.590454,74.0094,19.59961
1766811701008,-0.91552734,-0.24023438,-0.15185547,-5.859375,4.4555664,-6.591797,0.0,0.0,0.0,-124.590454,74.0094,19.59961
1766811701020,-0.91552734,-0.24023438,-0.15185547,-5.859375,4.4555664,-6.591797,0.0,0.0,0.0,-126.639404,72.98218,18.479004
1766811701107,-0.9638672,-0.15283203,-0.16503906,-16.662598,8.850098,-4.760742,0.0,0.0,0.0,-126.639404,72.98218,18.479004
1766811701119,-0.9638672,-0.15283203,-0.16503906,-16.662598,8.850098,-4.760742,0.0,0.0,0.0,-127.908325,72.36145,18.023071
1766811701207,-0.95458984,-0.28955078,-0.15673828,-4.211426,12.451172,-3.0517578,0.0,0.0,0.0,-127.908325,72.36145,18.023071
1766811701218,-0.95458984,-0.28955078,-0.15673828,-4.211426,12.451172,-3.0517578,0.0,0.0,0.0,-131.51184,71.44409,15.331421
1766811701307,-0.98535156,-0.2084961,-0.15283203,1.2207031,4.5776367,-1.3427734,0.0,0.0,0.0,-131.51184,71.44409,15.331421
1766811701318,-0.98535156,-0.2084961,-0.15283203,1.2207031,4.5776367,-1.3427734,0.0,0.0,0.0,-132.19849,70.86182,14.304199
1766811701406,-0.9980469,-0.2241211,-0.16748047,12.878418,-12.329102,5.126953,0.0,0.0,0.0,-132.19849,70.86182,14.304199
1766811701418,-0.9980469,-0.2241211,-0.16748047,12.878418,-12.329102,5.126953,0.0,0.0,0.0,-130.24292,71.60889,15.26001
1766811701506,-1.0029297,-0.30371094,-0.20019531,13.977051,-12.023926,4.0893555,0.0,0.0,0.0,-130.24292,71.60889,15.26001
1766811701517,-1.0029297,-0.30371094,-0.20019531,13.977051,-12.023926,4.0893555,0.0,0.0,0.0,-126.518555,72.93823,17.825317
1766811701606,-0.94384766,-0.053222656,-0.13769531,0.8544922,-11.169434,7.446289,0.0,0.0,0.0,-126.518555,72.93823,17.825317
1766811701617,-0.94384766,-0.053222656,-0.13769531,0.8544922,-11.169434,7.446289,0.0,0.0,0.0,-124.3103,74.03137,19.67102
1766811701706,-0.87402344,-0.28173828,-0.21533203,-10.253906,-1.2817383,4.333496,0.0,0.0,0.0,-124.3103,74.03137,19.67102
1766811701717,-0.87402344,-0.28173828,-0.21533203,-10.253906,-1.2817383,4.333496,0.0,0.0,0.0,-125.38147,75.025635,19.110718
1766811701805,-0.9667969,-0.2734375,-0.24169922,5.3100586,-1.953125,9.643555,0.0,0.0,0.0,-125.38147,75.025635,19.110718
1766811701816,-0.9667969,-0.2734375,-0.24169922,5.3100586,-1.953125,9.643555,0.0,0.0,0.0,-127.474365,75.82764,16.913452
1766811701905,-1.0141602,-0.14794922,-0.15966797,3.3569336,4.0893555,6.713867,0.0,0.0,0.0,-127.474365,75.82764,16.913452
1766811701916,-1.0141602,-0.14794922,-0.15966797,3.3569336,4.0893555,6.713867,0.0,0.0,0.0,-130.55054,75.72327,13.650513
1766811702004,-0.90625,-0.24951172,-0.16357422,-1.5869141,11.230469,-0.4272461,0.0,0.0,0.0,-130.55054,75.72327,13.650513
1766811702016,-0.90625,-0.24951172,-0.16357422,-1.5869141,11.230469,-0.4272461,0.0,0.0,0.0,-133.99475,75.28931,10.085449
1766811702104,-0.98291016,-0.1977539,-0.14746094,2.8686523,7.446289,-2.4414062,0.0,0.0,0.0,-133.99475,75.28931,10.085449
1766811702116,-0.98291016,-0.1977539,-0.14746094,2.8686523,7.446289,-2.4414062,0.0,0.0,0.0,-135.0769,74.470825,8.651733
1766811702204,-1.0141602,-0.18066406,-0.125,-1.6479492,14.953613,-2.6855469,0.0,0.0,0.0,-135.0769,74.470825,8.651733
1766811702216,-1.0141602,-0.18066406,-0.125,-1.6479492,14.953613,-2.6855469,0.0,0.0,0.0,-136.6095,73.39966,6.8444824
1766811702304,-0.9711914,-0.19335938,-0.17578125,-2.5634766,2.9296875,1.7700195,0.0,0.0,0.0,-136.6095,73.39966,6.8444824
1766811702315,-0.9711914,-0.19335938,-0.17578125,-2.5634766,2.9296875,1.7700195,0.0,0.0,0.0,-137.87292,73.01514,5.5480957
1766811702403,-1.1044922,-0.22998047,-0.18945312,-2.4414062,-9.887695,-1.3427734,0.0,0.0,0.0,-137.87292,73.01514,5.5480957
1766811702415,-1.1044922,-0.22998047,-0.18945312,-2.4414062,-9.887695,-1.3427734,0.0,0.0,0.0,-137.79602,73.081055,6.2182617
1766811702503,-0.9121094,-0.22705078,-0.203125,-11.535645,-4.272461,-5.6762695,0.0,0.0,0.0,-137.79602,73.081055,6.2182617
1766811702515,-0.9121094,-0.22705078,-0.203125,-11.535645,-4.272461,-5.6762695,0.0,0.0,0.0,-135.32959,73.35571,8.926392
1766811702603,-0.9145508,-0.28466797,-0.25341797,8.544922,-13.549805,-9.70459,0.0,0.0,0.0,-135.32959,73.35571,8.926392
1766811702614,-0.9145508,-0.28466797,-0.25341797,8.544922,-13.549805,-9.70459,0.0,0.0,0.0,-130.45715,73.56995,14.210815
1766811702702,-0.8666992,-0.09667969,-0.23730469,16.418457,-4.5776367,-1.5869141,0.0,0.0,0.0,-130.45715,73.56995,14.210815
1766811702714,-0.8666992,-0.09667969,-0.23730469,16.418457,-4.5776367,-1.5869141,0.0,0.0,0.0,-125.722046,73.526,17.633057
1766811702802,-1.0332031,-0.21777344,-0.17333984,-3.540039,2.319336,-6.713867,0.0,0.0,0.0,-125.722046,73.526,17.633057
1766811702814,-1.0332031,-0.21777344,-0.17333984,-3.540039,2.319336,-6.713867,0.0,0.0,0.0,-125.667114,72.89978,17.314453
1766811702902,-0.9370117,-0.18115234,-0.16064453,-11.657715,-2.8076172,-7.5683594,0.0,0.0,0.0,-125.667114,72.89978,17.314453
1766811702913,-0.9370117,-0.18115234,-0.16064453,-11.657715,-2.8076172,-7.5683594,0.0,0.0,0.0,-125.392456,72.41638,18.544922
1766811703002,-0.9555664,-0.21875,-0.16015625,-14.770508,1.7089844,-4.8828125,0.0,0.0,0.0,-125.392456,72.41638,18.544922
1766811703014,-0.9555664,-0.21875,-0.16015625,-14.770508,1.7089844,-4.8828125,0.0,0.0,0.0,-125.79346,72.17468,19.522705
1766811703101,-0.9589844,-0.24853516,-0.12939453,-4.4555664,3.0517578,-6.591797,0.0,0.0,0.0,-125.79346,72.17468,19.522705
1766811703113,-0.9589844,-0.24853516,-0.12939453,-4.4555664,3.0517578,-6.591797,0.0,0.0,0.0,-126.24939,71.641846,19.885254
1766811703201,-0.9892578,-0.24658203,-0.109375,2.9296875,-2.5634766,-1.159668,0.0,0.0,0.0,-126.24939,71.641846,19.885254
1766811703213,-0.9892578,-0.24658203,-0.109375,2.9296875,-2.5634766,-1.159668,0.0,0.0,0.0,-125.6781,71.35071,20.440063
1766811703301,-1.0161133,-0.23632812,-0.140625,12.390137,-13.48877,3.9672852,0.0,0.0,0.0,-125.6781,71.35071,20.440063
1766811703312,-1.0161133,-0.23632812,-0.140625,12.390137,-13.48877,3.9672852,0.0,0.0,0.0,-122.547,72.19116,22.357178
1766811703400,-0.88623047,-0.17138672,-0.17529297,1.4648438,-11.71875,7.8125,0.0,0.0,0.0,-122.547,72.19116,22.357178
1766811703412,-0.88623047,-0.17138672,-0.17529297,1.4648438,-11.71875,7.8125,0.0,0.0,0.0,-117.03735,73.41614,26.801147
1766811703500,-0.9199219,-0.23095703,-0.16503906,16.967773,-11.71875,10.314941,0.0,0.0,0.0,-117.03735,73.41614,26.801147
1766811703512,-0.9199219,-0.23095703,-0.16503906,16.967773,-11.71875,10.314941,0.0,0.0,0.0,-115.18616,74.888306,28.201904
1766811703600,-0.9189453,-0.2211914,-0.12158203,0.0,9.58252,10.559082,0.0,0.0,0.0,-115.18616,74.888306,28.201904
1766811703611,-0.9189453,-0.2211914,-0.12158203,0.0,9.58252,10.559082,0.0,0.0,0.0,-117.53174,75.54199,25.345459
1766811703700,-1.0141602,-0.33740234,-0.17871094,12.817383,16.113281,5.432129,0.0,0.0,0.0,-117.53174,75.54199,25.345459
1766811703711,-1.0141602,-0.33740234,-0.17871094,12.817383,16.113281,5.432129,0.0,0.0,0.0,-121.75598,75.371704,20.20935
1766811703799,-0.92871094,-0.18652344,-0.13623047,2.5634766,28.747559,6.164551,0.0,0.0,0.0,-121.75598,75.371704,20.20935
1766811703811,-0.92871094,-0.18652344,-0.13623047,2.5634766,28.747559,6.164551,0.0,0.0,0.0,-127.96326,74.89929,12.463989
1766811703899,-0.95214844,-0.23388672,-0.15966797,13.061523,17.028809,0.61035156,0.0,0.0,0.0,-127.96326,74.89929,12.463989
1766811703910,-0.95214844,-0.23388672,-0.15966797,13.061523,17.028809,0.61035156,0.0,0.0,0.0,-132.84668,73.55896,6.8554688
1766811703999,-0.9916992,-0.22509766,-0.1743164,-1.2207031,20.080566,-1.0986328,0.0,0.0,0.0,-132.84668,73.55896,6.8554688
1766811704010,-0.9916992,-0.22509766,-0.1743164,-1.2207031,20.080566,-1.0986328,0.0,0.0,0.0,-136.23596,72.21863,2.9058838
1766811704098,-1.0039062,-0.24902344,-0.24609375,-3.6010742,7.2021484,-6.0424805,0.0,0.0,0.0,-136.23596,72.21863,2.9058838
1766811704110,-1.0039062,-0.24902344,-0.24609375,-3.6010742,7.2021484,-6.0424805,0.0,0.0,0.0,-137.90588,71.119995,1.4666748
1766811704198,-1.03125,-0.20458984,-0.21777344,2.4414062,-14.221191,-3.8452148,0.0,0.0,0.0,-137.90588,71.119995,1.4666748
1766811704210,-1.03125,-0.20458984,-0.21777344,2.4414062,-14.221191,-3.8452148,0.0,0.0,0.0,-136.96655,70.90576,3.1860352
1766811704298,-0.9067383,-0.2421875,-0.2241211,-5.7373047,-12.023926,0.12207031,0.0,0.0,0.0,-136.96655,70.90576,3.1860352
1766811704309,-0.9067383,-0.2421875,-0.2241211,-5.7373047,-12.023926,0.12207031,0.0,0.0,0.0,-134.50012,71.8396,5.987549
1766811704397,-0.890625,-0.22851562,-0.25830078,20.324707,-5.432129,3.90625,0.0,0.0,0.0,-134.50012,71.8396,5.987549
1766811704409,-0.890625,-0.22851562,-0.25830078,20.324707,-5.432129,3.90625,0.0,0.0,0.0,-131.08337,72.49878,8.723145
1766811704497,-0.9428711,-0.1430664,-0.25927734,11.352539,-10.559082,-4.1503906,0.0,0.0,0.0,-131.08337,72.49878,8.723145
1766811704509,-0.9428711,-0.1430664,-0.25927734,11.352539,-10.559082,-4.1503906,0.0,0.0,0.0,-128.91907,72.86133,9.497681
1766811704597,-0.98583984,-0.23730469,-0.18457031,-10.009766,0.0,-4.9438477,0.0,0.0,0.0,-128.91907,72.86133,9.497681
1766811704608,-0.98583984,-0.23730469,-0.18457031,-10.009766,0.0,-4.9438477,0.0,0.0,0.0,-127.353516,72.751465,11.365356
1766811704697,-0.9140625,-0.17480469,-0.18652344,-7.507324,1.4038086,-8.605957,0.0,0.0,0.0,-127.353516,72.751465,11.365356
1766811704708,-0.9140625,-0.17480469,-0.18652344,-7.507324,1.4038086,-8.605957,0.0,0.0,0.0,-126.9635,72.09778,12.782593
1766811704796,-0.96777344,-0.21289062,-0.16601562,-15.50293,7.080078,-7.6904297,0.0,0.0,0.0,-126.9635,72.09778,12.782593
1766811704808,-0.96777344,-0.21289062,-0.16601562,-15.50293,7.080078,-7.6904297,0.0,0.0,0.0,-128.01819,71.40015,12.996826
1766811704896,-0.94677734,-0.2685547,-0.16259766,-4.5166016,8.7890625,-6.591797,0.0,0.0,0.0,-128.01819,71.40015,12.996826
1766811704908,-0.94677734,-0.2685547,-0.16259766,-4.5166016,8.7890625,-6.591797,0.0,0.0,0.0,-129.74854,70.52124,12.365112
1766811704996,-0.9746094,-0.21142578,-0.18701172,2.319336,0.9765625,0.5493164,0.0,0.0,0.0,-129.74854,70.52124,12.365112
1766811705007,-0.9746094,-0.21142578,-0.18701172,2.319336,0.9765625,0.5493164,0.0,0.0,0.0,-130.06165,70.03235,12.084961
1766811705095,-1.0415039,-0.2631836,-0.20214844,0.30517578,-1.159668,4.1503906,0.0,0.0,0.0,-130.06165,70.03235,12.084961
1766811705107,-1.0415039,-0.2631836,-0.20214844,0.30517578,-1.159668,4.1503906,0.0,0.0,0.0,-130.36926,70.40039,11.5686035
1766811705195,-0.9423828,-0.24951172,-0.21728516,-3.7231445,-1.2207031,2.9907227,0.0,0.0,0.0,-130.36926,70.40039,11.5686035
1766811705207,-0.9423828,-0.24951172,-0.21728516,-3.7231445,-1.2207031,2.9907227,0.0,0.0,0.0,-130.3363,70.7959,11.491699
1766811705295,-0.93066406,-0.24169922,-0.24707031,6.4086914,-5.432129,11.291504,0.0,0.0,0.0,-130.3363,70.7959,11.491699
1766811705307,-0.93066406,-0.24169922,-0.24707031,6.4086914,-5.432129,11.291504,0.0,0.0,0.0,-130.95154,71.89453,10.728149
1766811705395,-0.921875,-0.22705078,-0.20605469,10.131836,-7.2631836,12.573242,0.0,0.0,0.0,-130.95154,71.89453,10.728149
1766811705407,-0.921875,-0.22705078,-0.20605469,10.131836,-7.2631836,12.573242,0.0,0.0,0.0,-131.47888,72.99866,9.536133
1766811705494,-0.9272461,-0.2861328,-0.22363281,5.554199,-0.36621094,9.216309,0.0,0.0,0.0,-131.47888,72.99866,9.536133
1766811705506,-0.9272461,-0.2861328,-0.22363281,5.554199,-0.36621094,9.216309,0.0,0.0,0.0,-132.03369,73.97095,8.113403
1766811705594,-0.9814453,-0.19140625,-0.19580078,27.70996,4.3945312,10.681152,0.0,0.0,0.0,-132.03369,73.97095,8.113403
1766811705606,-0.9814453,-0.19140625,-0.19580078,27.70996,4.3945312,10.681152,0.0,0.0,0.0,-131.68213,74.44885,6.459961
1766811705694,-0.921875,-0.21923828,-0.17480469,7.507324,15.136719,5.004883,0.0,0.0,0.0,-131.68213,74.44885,6.459961
1766811705706,-0.921875,-0.21923828,-0.17480469,7.507324,15.136719,5.004883,0.0,0.0,0.0,-135.79102,74.141235,1.038208
1766811705793,-0.97509766,-0.140625,-0.17871094,8.483887,13.427734,1.8310547,0.0,0.0,0.0,-135.79102,74.141235,1.038208
1766811705805,-0.97509766,-0.140625,-0.17871094,8.483887,13.427734,1.8310547,0.0,0.0,0.0,-138.14209,73.23486,-2.2247314
1766811705893,-0.99560547,-0.18896484,-0.17919922,-6.8359375,8.7890625,-1.5258789,0.0,0.0,0.0,-138.14209,73.23486,-2.2247314
1766811705904,-0.99560547,-0.18896484,-0.17919922,-6.8359375,8.7890625,-1.5258789,0.0,0.0,0.0,-140.41626,72.39441,-4.0319824
1766811705993,-0.9975586,-0.171875,-0.17138672,-5.7373047,-4.0893555,-0.9765625,0.0,0.0,0.0,-140.41626,72.39441,-4.0319824
1766811706004,-0.9975586,-0.171875,-0.17138672,-5.7373047,-4.0893555,-0.9765625,0.0,0.0,0.0,-140.55359,72.38342,-3.3892822
1766811706092,-1.0083008,-0.23486328,-0.22705078,-6.8969727,-14.343262,-5.432129,0.0,0.0,0.0,-140.55359,72.38342,-3.3892822
1766811706104,-1.0083008,-0.23486328,-0.22705078,-6.8969727,-14.343262,-5.432129,0.0,0.0,0.0,-138.18054,73.14697,0.36254883
1766811706192,-0.93603516,-0.27001953,-0.15478516,-14.343262,-9.521484,-11.474609,0.0,0.0,0.0,-138.18054,73.14697,0.36254883
1766811706204,-0.93603516,-0.27001953,-0.15478516,-14.343262,-9.521484,-11.474609,0.0,0.0,0.0,-135.86792,72.9657,4.416504
1766811706292,-0.92041016,-0.22998047,-0.23388672,15.075684,-13.244629,-5.554199,0.0,0.0,0.0,-135.86792,72.9657,4.416504
1766811706304,-0.92041016,-0.22998047,-0.23388672,15.075684,-13.244629,-5.554199,0.0,0.0,0.0,-129.41895,73.273315,10.667725
1766811706392,-0.8808594,-0.15527344,-0.27392578,8.850098,-4.638672,-5.432129,0.0,0.0,0.0,-129.41895,73.273315,10.667725
1766811706403,-0.8808594,-0.15527344,-0.27392578,8.850098,-4.638672,-5.432129,0.0,0.0,0.0,-125.62866,73.32825,13.309937
1766811706491,-0.99609375,-0.26953125,-0.17919922,-10.070801,7.446289,-5.79834,0.0,0.0,0.0,-125.62866,73.32825,13.309937
1766811706503,-0.99609375,-0.26953125,-0.17919922,-10.070801,7.446289,-5.79834,0.0,0.0,0.0,-126.51306,72.85034,12.65625
1766811706591,-0.91796875,-0.13769531,-0.17675781,-9.399414,5.432129,-4.5166016,0.0,0.0,0.0,-126.51306,72.85034,12.65625
1766811706602,-0.91796875,-0.13769531,-0.17675781,-9.399414,5.432129,-4.5166016,0.0,0.0,0.0,-127.5293,72.092285,12.546387
1766811706691,-0.94140625,-0.2397461,-0.18798828,-5.9814453,10.803223,-2.6245117,0.0,0.0,0.0,-127.5293,72.092285,12.546387
1766811706702,-0.94140625,-0.2397461,-0.18798828,-5.9814453,10.803223,-2.6245117,0.0,0.0,0.0,-130.14404,71.52649,10.761108
1766811706790,-0.9506836,-0.21972656,-0.17773438,-1.3427734,13.85498,-3.6010742,0.0,0.0,0.0,-130.14404,71.52649,10.761108
1766811706802,-0.9506836,-0.21972656,-0.17773438,-1.3427734,13.85498,-3.6010742,0.0,0.0,0.0,-132.37427,70.48279,8.778076
1766811706890,-0.97509766,-0.24267578,-0.19042969,2.9296875,3.7231445,-3.90625,0.0,0.0,0.0,-132.37427,70.48279,8.778076
1766811706901,-0.97509766,-0.24267578,-0.19042969,2.9296875,3.7231445,-3.90625,0.0,0.0,0.0,-133.52783,69.64783,7.734375
1766811706990,-0.99658203,-0.22705078,-0.17675781,12.634277,-12.573242,2.380371,0.0,0.0,0.0,-133.52783,69.64783,7.734375
1766811707001,-0.99658203,-0.22705078,-0.17675781,12.634277,-12.573242,2.380371,0.0,0.0,0.0,-131.3086,70.1532,9.019775
1766811707089,-0.89746094,-0.20117188,-0.23388672,-3.0517578,-11.047363,-2.9907227,0.0,0.0,0.0,-131.3086,70.1532,9.019775
1766811707101,-0.89746094,-0.20117188,-0.23388672,-3.0517578,-11.047363,-2.9907227,0.0,0.0,0.0,-126.73828,71.20239,12.782593
1766811707189,-0.92089844,-0.2109375,-0.28808594,4.0893555,-10.925293,4.638672,0.0,0.0,0.0,-126.73828,71.20239,12.782593
1766811707201,-0.92089844,-0.2109375,-0.28808594,4.0893555,-10.925293,4.638672,0.0,0.0,0.0,-124.453125,72.24609,15.221558
1766811707289,-0.9135742,-0.2919922,-0.1772461,-1.0375977,1.0375977,2.6245117,0.0,0.0,0.0,-124.453125,72.24609,15.221558
1766811707301,-0.9135742,-0.2919922,-0.1772461,-1.0375977,1.0375977,2.6245117,0.0,0.0,0.0,-127.03491,72.454834,13.293457
1766811707389,-0.96972656,-0.3076172,-0.25390625,10.009766,6.4086914,5.126953,0.0,0.0,0.0,-127.03491,72.454834,13.293457
1766811707400,-0.96972656,-0.3076172,-0.25390625,10.009766,6.4086914,5.126953,0.0,0.0,0.0,-128.0127,72.42737,11.299438
1766811707488,-0.97021484,-0.1953125,-0.17285156,4.8217773,11.535645,7.6904297,0.0,0.0,0.0,-128.0127,72.42737,11.299438
1766811707500,-0.97021484,-0.1953125,-0.17285156,4.8217773,11.535645,7.6904297,0.0,0.0,0.0,-130.46814,72.37793,7.7508545
1766811707588,-0.92333984,-0.26367188,-0.1899414,11.352539,13.000488,1.6479492,0.0,0.0,0.0,-130.46814,72.37793,7.7508545
1766811707599,-0.92333984,-0.26367188,-0.1899414,11.352539,13.000488,1.6479492,0.0,0.0,0.0,-133.0664,71.76819,4.4714355
1766811707688,-0.9682617,-0.20166016,-0.18457031,-1.4038086,14.465332,-2.1362305,0.0,0.0,0.0,-133.0664,71.76819,4.4714355
1766811707700,-0.9682617,-0.20166016,-0.18457031,-1.4038086,14.465332,-2.1362305,0.0,0.0,0.0,-135.34058,70.76294,1.6369629
1766811707787,-0.9863281,-0.23925781,-0.1953125,-4.1503906,7.507324,-2.8076172,0.0,0.0,0.0,-135.34058,70.76294,1.6369629
1766811707799,-0.9863281,-0.23925781,-0.1953125,-4.1503906,7.507324,-2.8076172,0.0,0.0,0.0,-137.2522,69.82361,0.10437012
1766811707887,-1.0341797,-0.2133789,-0.1538086,-9.399414,-10.375977,-1.5869141,0.0,0.0,0.0,-137.2522,69.82361,0.10437012
1766811707899,-1.0341797,-0.2133789,-0.1538086,-9.399414,-10.375977,-1.5869141,0.0,0.0,0.0,-136.62048,69.93347,1.2908936
1766811707987,-0.9638672,-0.24804688,-0.2993164,-15.014648,-12.084961,-2.0751953,0.0,0.0,0.0,-136.62048,69.93347,1.2908936
1766811707998,-0.9638672,-0.24804688,-0.2993164,-15.014648,-12.084961,-2.0751953,0.0,0.0,0.0,-134.00024,71.31775,4.993286
1766811708086,-0.9091797,-0.17822266,-0.17626953,-37.902832,-15.380859,-12.573242,0.0,0.0,0.0,-134.00024,71.31775,4.993286
1766811708098,-0.9091797,-0.17822266,-0.17626953,-37.902832,-15.380859,-12.573242,0.0,0.0,0.0,-132.30835,71.64734,9.761353
1766811708186,-0.8129883,-0.2241211,-0.27001953,-17.578125,-11.962891,-9.887695,0.0,0.0,0.0,-132.30835,71.64734,9.761353
1766811708198,-0.8129883,-0.2241211,-0.27001953,-17.578125,-11.962891,-9.887695,0.0,0.0,0.0,-129.10583,71.72974,16.034546
1766811708286,-0.9794922,-0.2685547,-0.20800781,-11.047363,3.540039,-8.972168,0.0,0.0,0.0,-129.10583,71.72974,16.034546
1766811708297,-0.9794922,-0.2685547,-0.20800781,-11.047363,3.540039,-8.972168,0.0,0.0,0.0,-128.3313,70.85083,18.303223
1766811708386,-0.92041016,-0.20703125,-0.1743164,-3.6621094,-3.7841797,-7.873535,0.0,0.0,0.0,-128.3313,70.85083,18.303223
1766811708397,-0.92041016,-0.20703125,-0.1743164,-3.6621094,-3.7841797,-7.873535,0.0,0.0,0.0,-127.194214,70.15869,19.89624
1766811708485,-0.95410156,-0.2685547,-0.15820312,-5.493164,-0.5493164,-3.90625,0.0,0.0,0.0,-127.194214,70.15869,19.89624
