timestamp,accX,accY,accZ,gyroX,gyroY,gyroZ,magX,magY,magZ,roll,pitch,yaw
1768999750127,-0.8930664,0.13867188,0.51171875,29.11377,32.226562,-9.277344,0.0,0.0,0.0,12.722168,56.870728,-10.645752
1768999750138,-0.8930664,0.13867188,0.51171875,29.11377,32.226562,-9.277344,0.0,0.0,0.0,14.91394,60.26001,-11.887207
1768999750227,-0.9091797,0.099609375,0.5493164,18.859863,-9.765625,2.6855469,0.0,0.0,0.0,14.91394,60.26001,-11.887207
1768999750242,-0.9091797,0.099609375,0.5493164,18.859863,-9.765625,2.6855469,0.0,0.0,0.0,17.391357,61.605835,-11.585083
1768999750326,-0.7626953,0.028808594,0.49267578,-15.319824,-16.357422,18.554688,0.0,0.0,0.0,17.391357,61.605835,-11.585083
1768999750338,-0.7626953,0.028808594,0.49267578,-15.319824,-16.357422,18.554688,0.0,0.0,0.0,17.792358,58.952637,-10.299683
1768999750426,-0.81591797,0.15039062,0.55810547,33.14209,4.4555664,-1.6479492,0.0,0.0,0.0,17.792358,58.952637,-10.299683
1768999750439,-0.81591797,0.15039062,0.55810547,33.14209,4.4555664,-1.6479492,0.0,0.0,0.0,19.885254,58.859253,-9.349365
1768999750526,-0.8432617,0.04296875,0.5517578,-14.770508,-11.047363,6.652832,0.0,0.0,0.0,19.885254,58.859253,-9.349365
1768999750537,-0.8432617,0.04296875,0.5517578,-14.770508,-11.047363,6.652832,0.0,0.0,0.0,19.522705,58.172607,-9.63501
1768999750625,-0.83935547,0.13964844,0.50439453,-8.483887,-4.638672,6.652832,0.0,0.0,0.0,19.522705,58.172607,-9.63501
1768999750637,-0.83935547,0.13964844,0.50439453,-8.483887,-4.638672,6.652832,0.0,0.0,0.0,18.57788,56.920166,-9.596558
1768999750725,-0.86865234,0.12841797,0.49316406,9.887695,4.1503906,-10.253906,0.0,0.0,0.0,18.57788,56.920166,-9.596558
1768999750737,-0.86865234,0.12841797,0.49316406,9.887695,4.1503906,-10.253906,0.0,0.0,0.0,17.98462,57.3761,-10.673218
1768999750826,-0.93310547,0.125,0.40966797,-21.850586,10.559082,10.070801,0.0,0.0,0.0,17.98462,57.3761,-10.673218
1768999750836,-0.93310547,0.125,0.40966797,-21.850586,10.559082,10.070801,0.0,0.0,0.0,17.08374,57.74414,-10.426025
1768999750924,-0.9145508,0.20166016,0.49414062,2.1972656,31.49414,-6.713867,0.0,0.0,0.0,17.08374,57.74414,-10.426025
1768999750936,-0.9145508,0.20166016,0.49414062,2.1972656,31.49414,-6.713867,0.0,0.0,0.0,18.248291,60.39734,-9.244995
1768999751024,-0.8803711,0.14501953,0.4638672,-10.070801,-6.4697266,6.4086914,0.0,0.0,0.0,18.248291,60.39734,-9.244995
1768999751036,-0.8803711,0.14501953,0.4638672,-10.070801,-6.4697266,6.4086914,0.0,0.0,0.0,17.764893,61.73767,-8.734131
1768999751124,-0.8676758,0.13134766,0.4272461,0.061035156,-9.765625,-4.3945312,0.0,0.0,0.0,17.764893,61.73767,-8.734131
1768999751135,-0.8676758,0.13134766,0.4272461,0.061035156,-9.765625,-4.3945312,0.0,0.0,0.0,16.512451,59.952393,-8.360596
1768999751224,-0.80126953,0.19921875,0.5185547,3.8452148,-12.390137,-5.432129,0.0,0.0,0.0,16.512451,59.952393,-8.360596
1768999751235,-0.80126953,0.19921875,0.5185547,3.8452148,-12.390137,-5.432129,0.0,0.0,0.0,15.688477,59.534912,-10.233765
1768999751323,-0.7480469,0.19921875,0.53222656,8.605957,-15.991211,-12.6953125,0.0,0.0,0.0,15.688477,59.534912,-10.233765
1768999751335,-0.7480469,0.19921875,0.53222656,8.605957,-15.991211,-12.6953125,0.0,0.0,0.0,14.716187,58.112183,-11.760864
1768999751423,-0.79052734,0.13378906,0.52978516,7.6904297,-7.8125,-6.5307617,0.0,0.0,0.0,14.716187,58.112183,-11.760864
1768999751435,-0.79052734,0.13378906,0.52978516,7.6904297,-7.8125,-6.5307617,0.0,0.0,0.0,13.688965,57.31018,-13.7438965
1768999751523,-0.7910156,0.14208984,0.5058594,-11.047363,-9.094238,-0.6713867,0.0,0.0,0.0,13.688965,57.31018,-13.7438965
1768999751534,-0.7910156,0.14208984,0.5058594,-11.047363,-9.094238,-0.6713867,0.0,0.0,0.0,12.496948,56.134644,-14.946899
1768999751623,-0.875,0.15722656,0.6176758,32.226562,21.118164,-13.977051,0.0,0.0,0.0,12.496948,56.134644,-14.946899
1768999751634,-0.875,0.15722656,0.6176758,32.226562,21.118164,-13.977051,0.0,0.0,0.0,12.875977,57.513428,-15.699463
1768999751722,-0.90966797,0.111816406,0.5078125,-52.001953,-49.438477,15.258789,0.0,0.0,0.0,12.875977,57.513428,-15.699463
1768999751734,-0.90966797,0.111816406,0.5078125,-52.001953,-49.438477,15.258789,0.0,0.0,0.0,12.716675,55.667725,-16.435547
1768999751822,-0.8964844,0.13720703,0.42285156,8.239746,-1.0986328,12.573242,0.0,0.0,0.0,12.716675,55.667725,-16.435547
1768999751833,-0.8964844,0.13720703,0.42285156,8.239746,-1.0986328,12.573242,0.0,0.0,0.0,11.656494,52.36084,-14.683228
1768999751922,-0.89404297,0.13134766,0.53271484,21.78955,40.161133,-9.70459,0.0,0.0,0.0,11.656494,52.36084,-14.683228
1768999751933,-0.89404297,0.13134766,0.53271484,21.78955,40.161133,-9.70459,0.0,0.0,0.0,13.666992,55.15686,-14.386597
1768999752021,-0.8520508,0.1171875,0.5761719,13.916016,25.878906,-7.385254,0.0,0.0,0.0,13.666992,55.15686,-14.386597
1768999752033,-0.8520508,0.1171875,0.5761719,13.916016,25.878906,-7.385254,0.0,0.0,0.0,15.946655,58.639526,-14.80957
1768999752121,-0.890625,0.23583984,0.50097656,-32.714844,-26.245117,26.245117,0.0,0.0,0.0,15.946655,58.639526,-14.80957
1768999752133,-0.890625,0.23583984,0.50097656,-32.714844,-26.245117,26.245117,0.0,0.0,0.0,17.385864,58.392334,-13.513184
1768999752221,-0.94189453,0.12109375,0.47216797,1.5258789,-1.8920898,13.305664,0.0,0.0,0.0,17.385864,58.392334,-13.513184
1768999752232,-0.94189453,0.12109375,0.47216797,1.5258789,-1.8920898,13.305664,0.0,0.0,0.0,17.715454,55.50293,-9.832764
1768999752321,-0.8066406,0.15332031,0.50439453,16.723633,25.08545,-0.48828125,0.0,0.0,0.0,17.715454,55.50293,-9.832764
1768999752332,-0.8066406,0.15332031,0.50439453,16.723633,25.08545,-0.48828125,0.0,0.0,0.0,20.302734,56.99707,-8.805542
1768999752420,-0.73779297,0.14404297,0.5419922,27.34375,23.742676,-3.8452148,0.0,0.0,0.0,20.302734,56.99707,-8.805542
1768999752432,-0.73779297,0.14404297,0.5419922,27.34375,23.742676,-3.8452148,0.0,0.0,0.0,23.098755,59.578857,-8.063965
1768999752520,-0.82421875,0.21728516,0.578125,-3.9672852,-20.751953,13.427734,0.0,0.0,0.0,23.098755,59.578857,-8.063965
1768999752531,-0.82421875,0.21728516,0.578125,-3.9672852,-20.751953,13.427734,0.0,0.0,0.0,24.658813,59.556885,-6.8719482
1768999752620,-0.83203125,0.13232422,0.48388672,-41.748047,-41.259766,24.658203,0.0,0.0,0.0,24.658813,59.556885,-6.8719482
1768999752631,-0.83203125,0.13232422,0.48388672,-41.748047,-41.259766,24.658203,0.0,0.0,0.0,22.131958,55.05249,-6.4050293
1768999752719,-0.83203125,0.23779297,0.47802734,15.441895,18.554688,-4.3945312,0.0,0.0,0.0,22.131958,55.05249,-6.4050293
1768999752731,-0.83203125,0.23779297,0.47802734,15.441895,18.554688,-4.3945312,0.0,0.0,0.0,21.66504,53.827515,-6.262207
1768999752819,-0.87158203,0.16503906,0.52490234,11.413574,17.700195,-10.437012,0.0,0.0,0.0,21.66504,53.827515,-6.262207
1768999752831,-0.87158203,0.16503906,0.52490234,11.413574,17.700195,-10.437012,0.0,0.0,0.0,22.93396,56.392822,-6.558838
1768999752919,-0.8720703,0.17578125,0.48876953,-19.89746,-1.8920898,7.8125,0.0,0.0,0.0,22.93396,56.392822,-6.558838
1768999752930,-0.8720703,0.17578125,0.48876953,-19.89746,-1.8920898,7.8125,0.0,0.0,0.0,22.467041,56.969604,-6.2127686
1768999753018,-0.9560547,0.18603516,0.41748047,-5.126953,13.48877,-3.90625,0.0,0.0,0.0,22.467041,56.969604,-6.2127686
1768999753030,-0.9560547,0.18603516,0.41748047,-5.126953,13.48877,-3.90625,0.0,0.0,0.0,21.71997,57.041016,-5.9710693
1768999753119,-0.89697266,0.21044922,0.5307617,11.047363,10.925293,-9.82666,0.0,0.0,0.0,21.71997,57.041016,-5.9710693
1768999753130,-0.89697266,0.21044922,0.5307617,11.047363,10.925293,-9.82666,0.0,0.0,0.0,21.582642,59.578857,-7.0092773
1768999753218,-0.9082031,0.107910156,0.39892578,-19.592285,-14.404297,-2.0141602,0.0,0.0,0.0,21.582642,59.578857,-7.0092773
1768999753229,-0.9082031,0.107910156,0.39892578,-19.592285,-14.404297,-2.0141602,0.0,0.0,0.0,19.561157,58.73291,-7.800293
1768999753318,-0.8100586,0.234375,0.51464844,-0.79345703,1.5258789,-7.507324,0.0,0.0,0.0,19.561157,58.73291,-7.800293
1768999753329,-0.8100586,0.234375,0.51464844,-0.79345703,1.5258789,-7.507324,0.0,0.0,0.0,18.682251,59.205322,-8.959351
1768999753417,-0.7260742,0.20361328,0.5410156,9.155273,-0.36621094,-9.521484,0.0,0.0,0.0,18.682251,59.205322,-8.959351
1768999753429,-0.7260742,0.20361328,0.5410156,9.155273,-0.36621094,-9.521484,0.0,0.0,0.0,17.902222,59.13391,-9.624023
1768999753517,-0.79833984,0.16015625,0.5673828,5.432129,-3.90625,-12.084961,0.0,0.0,0.0,17.902222,59.13391,-9.624023
1768999753528,-0.79833984,0.16015625,0.5673828,5.432129,-3.90625,-12.084961,0.0,0.0,0.0,17.089233,59.18335,-11.596069
1768999753617,-0.80078125,0.16357422,0.5107422,-22.033691,-28.503418,5.7373047,0.0,0.0,0.0,17.089233,59.18335,-11.596069
1768999753629,-0.80078125,0.16357422,0.5107422,-22.033691,-28.503418,5.7373047,0.0,0.0,0.0,15.57312,57.46399,-12.903442
1768999753716,-0.8100586,0.19580078,0.53759766,-4.3945312,-0.61035156,4.760742,0.0,0.0,0.0,15.57312,57.46399,-12.903442
1768999753728,-0.8100586,0.19580078,0.53759766,-4.3945312,-0.61035156,4.760742,0.0,0.0,0.0,14.529419,55.18982,-11.8927
1768999753816,-0.8442383,0.17382812,0.53759766,24.719238,2.2583008,-10.803223,0.0,0.0,0.0,14.529419,55.18982,-11.8927
1768999753828,-0.8442383,0.17382812,0.53759766,24.719238,2.2583008,-10.803223,0.0,0.0,0.0,15.617065,56.118164,-12.733154
1768999753916,-0.9042969,0.13232422,0.50097656,-30.639648,-37.78076,16.784668,0.0,0.0,0.0,15.617065,56.118164,-12.733154
1768999753927,-0.9042969,0.13232422,0.50097656,-30.639648,-37.78076,16.784668,0.0,0.0,0.0,14.985352,54.179077,-12.991333
1768999754016,-0.88378906,0.19970703,0.4423828,5.554199,-1.7089844,-2.0751953,0.0,0.0,0.0,14.985352,54.179077,-12.991333
1768999754027,-0.88378906,0.19970703,0.4423828,5.554199,-1.7089844,-2.0751953,0.0,0.0,0.0,14.276733,51.82251,-12.233276
1768999754115,-0.8461914,0.18408203,0.49169922,24.780273,30.88379,-8.7890625,0.0,0.0,0.0,14.276733,51.82251,-12.233276
1768999754130,-0.8461914,0.18408203,0.49169922,24.780273,30.88379,-8.7890625,0.0,0.0,0.0,16.375122,55.03601,-12.941895
1768999754215,-0.84033203,0.15478516,0.5830078,45.715332,36.193848,-20.019531,0.0,0.0,0.0,16.375122,55.03601,-12.941895
1768999754227,-0.84033203,0.15478516,0.5830078,45.715332,36.193848,-20.019531,0.0,0.0,0.0,19.055786,59.100952,-13.07373
1768999754315,-0.9160156,0.18261719,0.51416016,-42.96875,-28.076172,31.49414,0.0,0.0,0.0,19.055786,59.100952,-13.07373
1768999754326,-0.9160156,0.18261719,0.51416016,-42.96875,-28.076172,31.49414,0.0,0.0,0.0,20.044556,58.68347,-11.546631
1768999754415,-0.76220703,0.15136719,0.41357422,7.3242188,-12.878418,11.779785,0.0,0.0,0.0,20.044556,58.68347,-11.546631
1768999754429,-0.76220703,0.15136719,0.41357422,7.3242188,-12.878418,11.779785,0.0,0.0,0.0,19.9292,55.145874,-8.712158
1768999754514,-0.80566406,0.11669922,0.55322266,24.169922,33.38623,-5.126953,0.0,0.0,0.0,19.9292,55.145874,-8.712158
1768999754526,-0.80566406,0.11669922,0.55322266,24.169922,33.38623,-5.126953,0.0,0.0,0.0,22.911987,57.112427,-7.7178955
1768999754614,-0.8173828,0.21875,0.59277344,21.118164,13.122559,-1.0375977,0.0,0.0,0.0,22.911987,57.112427,-7.7178955
1768999754625,-0.8173828,0.21875,0.59277344,21.118164,13.122559,-1.0375977,0.0,0.0,0.0,26.141968,59.677734,-6.6412354
1768999754714,-0.81933594,0.15039062,0.51904297,-40.71045,-36.376953,20.080566,0.0,0.0,0.0,26.141968,59.677734,-6.6412354
1768999754726,-0.81933594,0.15039062,0.51904297,-40.71045,-36.376953,20.080566,0.0,0.0,0.0,23.950195,57.04651,-6.0369873
1768999754813,-0.8256836,0.21679688,0.4658203,-9.70459,-10.498047,8.728027,0.0,0.0,0.0,23.950195,57.04651,-6.0369873
1768999754825,-0.8256836,0.21679688,0.4658203,-9.70459,-10.498047,8.728027,0.0,0.0,0.0,21.851807,53.651733,-5.262451
1768999754913,-0.8647461,0.19238281,0.5292969,21.911621,31.677246,-18.005371,0.0,0.0,0.0,21.851807,53.651733,-5.262451
1768999754924,-0.8647461,0.19238281,0.5292969,21.911621,31.677246,-18.005371,0.0,0.0,0.0,23.02185,56.085205,-5.6744385
1768999755013,-0.8984375,0.1977539,0.47802734,-11.962891,-4.5166016,-1.5258789,0.0,0.0,0.0,23.02185,56.085205,-5.6744385
1768999755024,-0.8984375,0.1977539,0.47802734,-11.962891,-4.5166016,-1.5258789,0.0,0.0,0.0,22.758179,57.95288,-6.9213867
1768999755112,-0.94189453,0.18554688,0.43554688,-13.85498,-8.056641,-4.0893555,0.0,0.0,0.0,22.758179,57.95288,-6.9213867
1768999755124,-0.94189453,0.18554688,0.43554688,-13.85498,-8.056641,-4.0893555,0.0,0.0,0.0,20.12146,56.63452,-7.3828125
1768999755212,-0.9682617,0.19433594,0.52734375,19.16504,25.57373,-14.953613,0.0,0.0,0.0,20.12146,56.63452,-7.3828125
1768999755223,-0.9682617,0.19433594,0.52734375,19.16504,25.57373,-14.953613,0.0,0.0,0.0,19.363403,58.969116,-8.723145
1768999755312,-0.7807617,0.12988281,0.47753906,-10.437012,-22.766113,-5.92041,0.0,0.0,0.0,19.363403,58.969116,-8.723145
1768999755323,-0.7807617,0.12988281,0.47753906,-10.437012,-22.766113,-5.92041,0.0,0.0,0.0,17.770386,58.776855,-10.415039
1768999755411,-0.75,0.21972656,0.52734375,13.73291,5.493164,-15.686035,0.0,0.0,0.0,17.770386,58.776855,-10.415039
1768999755423,-0.75,0.21972656,0.52734375,13.73291,5.493164,-15.686035,0.0,0.0,0.0,16.116943,58.062744,-12.886963
1768999755511,-0.7368164,0.15136719,0.56640625,28.9917,14.6484375,-22.338867,0.0,0.0,0.0,16.116943,58.062744,-12.886963
1768999755523,-0.7368164,0.15136719,0.56640625,28.9917,14.6484375,-22.338867,0.0,0.0,0.0,16.210327,59.60083,-14.7491455
1768999755611,-0.76220703,0.22021484,0.51464844,-19.53125,-27.954102,4.211426,0.0,0.0,0.0,16.210327,59.60083,-14.7491455
1768999755622,-0.76220703,0.22021484,0.51464844,-19.53125,-27.954102,4.211426,0.0,0.0,0.0,15.622559,58.859253,-16.627808
1768999755711,-0.8310547,0.20703125,0.5649414,9.82666,-26.000977,3.6621094,0.0,0.0,0.0,15.622559,58.859253,-16.627808
1768999755722,-0.8310547,0.20703125,0.5649414,9.82666,-26.000977,3.6621094,0.0,0.0,0.0,14.436035,55.925903,-15.276489
1768999755810,-0.9243164,0.026367188,0.3540039,-19.16504,-11.779785,-2.6245117,0.0,0.0,0.0,14.436035,55.925903,-15.276489
1768999755822,-0.9243164,0.026367188,0.3540039,-19.16504,-11.779785,-2.6245117,0.0,0.0,0.0,13.568115,53.344116,-15.8532715
1768999755910,-0.8574219,0.19970703,0.5605469,4.1503906,10.864258,-0.8544922,0.0,0.0,0.0,13.568115,53.344116,-15.8532715
1768999755922,-0.8574219,0.19970703,0.5605469,4.1503906,10.864258,-0.8544922,0.0,0.0,0.0,15.0842285,55.079956,-15.952148
1768999756010,-0.9379883,0.10449219,0.38867188,-14.831543,-6.958008,4.272461,0.0,0.0,0.0,15.0842285,55.079956,-15.952148
1768999756022,-0.9379883,0.10449219,0.38867188,-14.831543,-6.958008,4.272461,0.0,0.0,0.0,14.655762,54.849243,-16.270752
1768999756109,-0.7651367,0.19921875,0.55322266,19.65332,15.991211,-16.357422,0.0,0.0,0.0,14.655762,54.849243,-16.270752
1768999756122,-0.7651367,0.19921875,0.55322266,19.65332,15.991211,-16.357422,0.0,0.0,0.0,15.792847,55.980835,-16.32019
1768999756209,-0.9135742,0.1875,0.58935547,36.071777,19.226074,-19.89746,0.0,0.0,0.0,15.792847,55.980835,-16.32019
1768999756221,-0.9135742,0.1875,0.58935547,36.071777,19.226074,-19.89746,0.0,0.0,0.0,16.957397,59.260254,-18.934937
1768999756309,-1.0141602,0.06689453,0.2631836,-10.375977,13.000488,4.3945312,0.0,0.0,0.0,16.957397,59.260254,-18.934937
1768999756320,-1.0141602,0.06689453,0.2631836,-10.375977,13.000488,4.3945312,0.0,0.0,0.0,16.875,58.826294,-17.891235
1768999756409,-0.86376953,0.12402344,0.5410156,9.887695,4.8217773,6.0424805,0.0,0.0,0.0,16.875,58.826294,-17.891235
1768999756420,-0.86376953,0.12402344,0.5410156,9.887695,4.8217773,6.0424805,0.0,0.0,0.0,20.247803,61.24878,-16.419067
1768999756508,-0.78027344,0.17675781,0.52001953,-19.89746,-19.104004,30.334473,0.0,0.0,0.0,20.247803,61.24878,-16.419067
1768999756520,-0.78027344,0.17675781,0.52001953,-19.89746,-19.104004,30.334473,0.0,0.0,0.0,21.813354,59.073486,-13.793335
1768999756608,-0.7578125,0.11279297,0.55908203,21.850586,13.671875,5.3710938,0.0,0.0,0.0,21.813354,59.073486,-13.793335
1768999756619,-0.7578125,0.11279297,0.55908203,21.850586,13.671875,5.3710938,0.0,0.0,0.0,23.241577,57.837524,-10.206299
1768999756708,-0.76904297,0.21923828,0.5214844,-19.592285,-5.065918,12.878418,0.0,0.0,0.0,23.241577,57.837524,-10.206299
1768999756719,-0.76904297,0.21923828,0.5214844,-19.592285,-5.065918,12.878418,0.0,0.0,0.0,25.186157,57.958374,-9.261475
1768999756808,-0.81591797,0.15429688,0.53222656,-4.211426,-13.305664,4.0283203,0.0,0.0,0.0,25.186157,57.958374,-9.261475
1768999756819,-0.81591797,0.15429688,0.53222656,-4.211426,-13.305664,4.0283203,0.0,0.0,0.0,23.7854,56.28296,-8.712158
1768999756907,-0.85009766,0.21972656,0.5161133,-7.2021484,-10.986328,7.873535,0.0,0.0,0.0,23.7854,56.28296,-8.712158
1768999756924,-0.85009766,0.21972656,0.5161133,-7.2021484,-10.986328,7.873535,0.0,0.0,0.0,22.994385,54.937134,-8.800049
1768999757007,-0.8754883,0.17089844,0.46533203,-1.5869141,-7.9956055,0.4272461,0.0,0.0,0.0,22.994385,54.937134,-8.800049
1768999757019,-0.8754883,0.17089844,0.46533203,-1.5869141,-7.9956055,0.4272461,0.0,0.0,0.0,22.351685,54.058228,-9.019775
1768999757106,-0.92041016,0.21923828,0.4584961,-17.028809,5.432129,9.277344,0.0,0.0,0.0,22.351685,54.058228,-9.019775
1768999757118,-0.92041016,0.21923828,0.4584961,-17.028809,5.432129,9.277344,0.0,0.0,0.0,21.94519,53.690186,-8.179321
1768999757206,-0.8666992,0.1459961,0.5371094,13.000488,42.60254,-13.977051,0.0,0.0,0.0,21.94519,53.690186,-8.179321
1768999757218,-0.8666992,0.1459961,0.5371094,13.000488,42.60254,-13.977051,0.0,0.0,0.0,22.318726,56.365356,-7.965088
1768999757306,-0.8540039,0.2133789,0.54248047,-7.873535,-4.1503906,-11.779785,0.0,0.0,0.0,22.318726,56.365356,-7.965088
1768999757317,-0.8540039,0.2133789,0.54248047,-7.873535,-4.1503906,-11.779785,0.0,0.0,0.0,22.763672,59.084473,-8.536377
1768999757406,-0.875,0.17675781,0.47802734,-29.663086,-35.40039,12.207031,0.0,0.0,0.0,22.763672,59.084473,-8.536377
1768999757417,-0.875,0.17675781,0.47802734,-29.663086,-35.40039,12.207031,0.0,0.0,0.0,19.187622,56.727905,-10.085449
1768999757505,-0.7548828,0.1928711,0.49804688,9.460449,8.850098,-15.74707,0.0,0.0,0.0,19.187622,56.727905,-10.085449
1768999757517,-0.7548828,0.1928711,0.49804688,9.460449,8.850098,-15.74707,0.0,0.0,0.0,17.30896,55.167847,-10.524902
1768999757605,-0.74560547,0.19628906,0.54345703,14.465332,18.493652,-22.094727,0.0,0.0,0.0,17.30896,55.167847,-10.524902
1768999757617,-0.74560547,0.19628906,0.54345703,14.465332,18.493652,-22.094727,0.0,0.0,0.0,17.29248,57.321167,-12.9748535
1768999757705,-0.7871094,0.19824219,0.5805664,10.375977,-1.8310547,-11.291504,0.0,0.0,0.0,17.29248,57.321167,-12.9748535
1768999757716,-0.7871094,0.19824219,0.5805664,10.375977,-1.8310547,-11.291504,0.0,0.0,0.0,16.517944,58.875732,-15.128174
1768999757804,-0.7836914,0.15917969,0.515625,-27.770996,-41.19873,7.8125,0.0,0.0,0.0,16.517944,58.875732,-15.128174
1768999757816,-0.7836914,0.15917969,0.515625,-27.770996,-41.19873,7.8125,0.0,0.0,0.0,14.529419,56.535645,-16.402588
1768999757904,-0.85253906,0.11816406,0.5859375,5.79834,2.0751953,-0.4272461,0.0,0.0,0.0,14.529419,56.535645,-16.402588
1768999757916,-0.85253906,0.11816406,0.5859375,5.79834,2.0751953,-0.4272461,0.0,0.0,0.0,12.628784,53.805542,-15.759888
1768999758004,-0.8754883,0.17138672,0.51953125,-9.094238,-13.73291,0.61035156,0.0,0.0,0.0,12.628784,53.805542,-15.759888
1768999758016,-0.8754883,0.17138672,0.51953125,-9.094238,-13.73291,0.61035156,0.0,0.0,0.0,13.886719,53.843994,-17.050781
1768999758103,-0.90185547,0.099609375,0.49121094,-11.657715,-16.296387,14.892578,0.0,0.0,0.0,13.886719,53.843994,-17.050781
1768999758115,-0.90185547,0.099609375,0.49121094,-11.657715,-16.296387,14.892578,0.0,0.0,0.0,13.21106,52.1521,-16.391602
1768999758203,-0.87158203,0.1508789,0.47998047,6.591797,18.005371,-1.3427734,0.0,0.0,0.0,13.21106,52.1521,-16.391602
1768999758215,-0.87158203,0.1508789,0.47998047,6.591797,18.005371,-1.3427734,0.0,0.0,0.0,13.73291,52.783813,-15.957642
1768999758303,-0.8745117,0.11035156,0.58154297,6.8969727,39.30664,-9.82666,0.0,0.0,0.0,13.73291,52.783813,-15.957642
1768999758315,-0.8745117,0.11035156,0.58154297,6.8969727,39.30664,-9.82666,0.0,0.0,0.0,14.985352,55.947876,-16.072998
1768999758403,-0.9189453,0.25390625,0.57910156,25.57373,28.869629,0.12207031,0.0,0.0,0.0,14.985352,55.947876,-16.072998
1768999758414,-0.9189453,0.25390625,0.57910156,25.57373,28.869629,0.12207031,0.0,0.0,0.0,18.435059,60.078735,-15.985107
1768999758502,-0.8745117,0.115234375,0.4892578,-35.40039,-36.376953,39.978027,0.0,0.0,0.0,18.435059,60.078735,-15.985107
1768999758514,-0.8745117,0.115234375,0.4892578,-35.40039,-36.376953,39.978027,0.0,0.0,0.0,20.53894,57.71118,-11.140137
1768999758602,-0.71972656,0.13916016,0.43652344,-8.056641,8.361816,14.953613,0.0,0.0,0.0,20.53894,57.71118,-11.140137
1768999758614,-0.71972656,0.13916016,0.43652344,-8.056641,8.361816,14.953613,0.0,0.0,0.0,21.154175,55.211792,-8.009033
1768999758702,-0.88720703,0.26220703,0.60058594,21.78955,21.78955,-6.7749023,0.0,0.0,0.0,21.154175,55.211792,-8.009033
1768999758713,-0.88720703,0.26220703,0.60058594,21.78955,21.78955,-6.7749023,0.0,0.0,0.0,22.263794,57.634277,-7.662964
1768999758801,-0.7915039,0.14013672,0.55859375,-1.8920898,-6.7749023,-5.1879883,0.0,0.0,0.0,22.263794,57.634277,-7.662964
1768999758813,-0.7915039,0.14013672,0.55859375,-1.8920898,-6.7749023,-5.1879883,0.0,0.0,0.0,22.478027,57.875977,-7.536621
1768999758901,-0.80029297,0.18896484,0.5366211,-21.057129,-14.099121,14.282227,0.0,0.0,0.0,22.478027,57.875977,-7.536621
1768999758913,-0.80029297,0.18896484,0.5366211,-21.057129,-14.099121,14.282227,0.0,0.0,0.0,20.85205,56.013794,-7.2784424
1768999759001,-0.85058594,0.19091797,0.51708984,17.63916,7.6293945,-13.85498,0.0,0.0,0.0,20.85205,56.013794,-7.2784424
1768999759012,-0.85058594,0.19091797,0.51708984,17.63916,7.6293945,-13.85498,0.0,0.0,0.0,20.286255,56.068726,-8.393555
1768999759101,-0.8725586,0.13623047,0.47558594,-4.272461,-1.0986328,-1.8920898,0.0,0.0,0.0,20.286255,56.068726,-8.393555
1768999759112,-0.8725586,0.13623047,0.47558594,-4.272461,-1.0986328,-1.8920898,0.0,0.0,0.0,19.692993,56.749878,-9.766846
1768999759200,-0.91748047,0.14648438,0.4477539,-11.657715,0.12207031,-0.30517578,0.0,0.0,0.0,19.692993,56.749878,-9.766846
1768999759212,-0.91748047,0.14648438,0.4477539,-11.657715,0.12207031,-0.30517578,0.0,0.0,0.0,18.69873,56.348877,-9.294434
1768999759300,-0.8808594,0.08935547,0.5136719,7.1411133,34.301758,-20.019531,0.0,0.0,0.0,18.69873,56.348877,-9.294434
1768999759312,-0.8808594,0.08935547,0.5136719,7.1411133,34.301758,-20.019531,0.0,0.0,0.0,18.045044,58.881226,-10.327148
1768999759400,-0.86328125,0.20605469,0.51220703,-7.080078,-4.3945312,-7.6904297,0.0,0.0,0.0,18.045044,58.881226,-10.327148
1768999759411,-0.86328125,0.20605469,0.51220703,-7.080078,-4.3945312,-7.6904297,0.0,0.0,0.0,17.330933,60.946655,-11.645508
1768999759499,-0.8964844,0.12109375,0.48486328,0.8544922,-15.869141,-0.30517578,0.0,0.0,0.0,17.330933,60.946655,-11.645508
1768999759511,-0.8964844,0.12109375,0.48486328,0.8544922,-15.869141,-0.30517578,0.0,0.0,0.0,14.886475,59.63379,-12.628784
1768999759599,-0.7783203,0.1743164,0.484375,0.9765625,-8.300781,-5.2490234,0.0,0.0,0.0,14.886475,59.63379,-12.628784
1768999759611,-0.7783203,0.1743164,0.484375,0.9765625,-8.300781,-5.2490234,0.0,0.0,0.0,14.304199,58.271484,-13.046265
1768999759699,-0.78027344,0.15283203,0.53222656,12.878418,5.432129,-14.404297,0.0,0.0,0.0,14.304199,58.271484,-13.046265
1768999759710,-0.78027344,0.15283203,0.53222656,12.878418,5.432129,-14.404297,0.0,0.0,0.0,13.496704,58.45276,-15.172119
1768999759799,-0.7919922,0.1772461,0.54296875,8.422852,-6.4086914,-7.5683594,0.0,0.0,0.0,13.496704,58.45276,-15.172119
1768999759810,-0.7919922,0.1772461,0.54296875,8.422852,-6.4086914,-7.5683594,0.0,0.0,0.0,12.903442,58.69995,-16.627808
1768999759898,-0.7944336,0.15917969,0.52685547,-12.756348,-17.333984,5.6152344,0.0,0.0,0.0,12.903442,58.69995,-16.627808
1768999759910,-0.7944336,0.15917969,0.52685547,-12.756348,-17.333984,5.6152344,0.0,0.0,0.0,12.139893,57.008057,-16.495972
1768999759998,-0.86572266,0.1484375,0.54833984,14.770508,-2.0751953,-0.6713867,0.0,0.0,0.0,12.139893,57.008057,-16.495972
1768999760010,-0.86572266,0.1484375,0.54833984,14.770508,-2.0751953,-0.6713867,0.0,0.0,0.0,12.513428,56.326904,-16.018066
1768999760098,-0.9189453,0.110839844,0.46191406,-21.1792,-32.348633,11.169434,0.0,0.0,0.0,12.513428,56.326904,-16.018066
1768999760110,-0.9189453,0.110839844,0.46191406,-21.1792,-32.348633,11.169434,0.0,0.0,0.0,12.678223,54.343872,-15.78186
1768999760197,-0.93310547,0.15283203,0.42822266,7.2021484,18.493652,-2.319336,0.0,0.0,0.0,12.678223,54.343872,-15.78186
1768999760209,-0.93310547,0.15283203,0.42822266,7.2021484,18.493652,-2.319336,0.0,0.0,0.0,12.683716,53.54187,-15.369873
1768999760297,-0.9121094,0.19335938,0.53759766,26.000977,51.818848,-13.244629,0.0,0.0,0.0,12.683716,53.54187,-15.369873
1768999760309,-0.9121094,0.19335938,0.53759766,26.000977,51.818848,-13.244629,0.0,0.0,0.0,15.353394,57.7771,-15.205078
1768999760397,-0.98876953,0.115722656,0.5473633,27.404785,15.258789,-6.4697266,0.0,0.0,0.0,15.353394,57.7771,-15.205078
1768999760408,-0.98876953,0.115722656,0.5473633,27.404785,15.258789,-6.4697266,0.0,0.0,0.0,18.094482,62.369385,-16.221313
1768999760497,-0.75,0.109375,0.47021484,-26.000977,-35.7666,34.301758,0.0,0.0,0.0,18.094482,62.369385,-16.221313
1768999760508,-0.75,0.109375,0.47021484,-26.000977,-35.7666,34.301758,0.0,0.0,0.0,19.429321,59.853516,-12.463989
1768999760596,-0.78222656,0.11816406,0.5029297,12.145996,0.91552734,7.507324,0.0,0.0,0.0,19.429321,59.853516,-12.463989
1768999760608,-0.78222656,0.11816406,0.5029297,12.145996,0.91552734,7.507324,0.0,0.0,0.0,20.549927,57.348633,-10.38208
1768999760696,-0.77685547,0.1538086,0.54248047,5.432129,8.361816,3.7231445,0.0,0.0,0.0,20.549927,57.348633,-10.38208
1768999760707,-0.77685547,0.1538086,0.54248047,5.432129,8.361816,3.7231445,0.0,0.0,0.0,22.582397,57.84851,-8.816528
1768999760796,-0.81152344,0.13720703,0.5385742,-4.699707,-6.225586,3.0517578,0.0,0.0,0.0,22.582397,57.84851,-8.816528
1768999760807,-0.81152344,0.13720703,0.5385742,-4.699707,-6.225586,3.0517578,0.0,0.0,0.0,22.670288,57.788086,-8.289185
1768999760895,-0.82421875,0.203125,0.5253906,-15.075684,-11.047363,11.230469,0.0,0.0,0.0,22.670288,57.788086,-8.289185
1768999760907,-0.82421875,0.203125,0.5253906,-15.075684,-11.047363,11.230469,0.0,0.0,0.0,21.71997,56.332397,-7.728882
1768999760995,-0.8881836,0.18603516,0.4663086,5.004883,-6.225586,-5.004883,0.0,0.0,0.0,21.71997,56.332397,-7.728882
1768999761007,-0.8881836,0.18603516,0.4663086,5.004883,-6.225586,-5.004883,0.0,0.0,0.0,21.154175,55.700684,-8.157349
1768999761095,-0.92626953,0.16796875,0.45751953,-11.230469,10.7421875,2.5024414,0.0,0.0,0.0,21.154175,55.700684,-8.157349
1768999761106,-0.92626953,0.16796875,0.45751953,-11.230469,10.7421875,2.5024414,0.0,0.0,0.0,20.511475,55.733643,-7.8112793
1768999761195,-0.84375,0.14355469,0.49267578,-8.361816,24.597168,-6.591797,0.0,0.0,0.0,20.511475,55.733643,-7.8112793
1768999761206,-0.84375,0.14355469,0.49267578,-8.361816,24.597168,-6.591797,0.0,0.0,0.0,20.593872,57.892456,-7.6574707
1768999761294,-0.84716797,0.203125,0.5048828,3.112793,1.2817383,-5.3100586,0.0,0.0,0.0,20.593872,57.892456,-7.6574707
1768999761306,-0.84716797,0.203125,0.5048828,3.112793,1.2817383,-5.3100586,0.0,0.0,0.0,20.819092,60.17212,-7.163086
1768999761394,-0.9711914,0.12158203,0.50439453,-26.855469,-33.569336,12.023926,0.0,0.0,0.0,20.819092,60.17212,-7.163086
1768999761406,-0.9711914,0.12158203,0.50439453,-26.855469,-33.569336,12.023926,0.0,0.0,0.0,19.154663,58.079224,-6.8829346
1768999761494,-0.79785156,0.21826172,0.49804688,5.065918,12.084961,-6.7749023,0.0,0.0,0.0,19.154663,58.079224,-6.8829346
1768999761505,-0.79785156,0.21826172,0.49804688,5.065918,12.084961,-6.7749023,0.0,0.0,0.0,17.5177,56.392822,-7.23999
1768999761593,-0.76708984,0.16845703,0.53808594,23.376465,17.028809,-24.719238,0.0,0.0,0.0,17.5177,56.392822,-7.23999
1768999761605,-0.76708984,0.16845703,0.53808594,23.376465,17.028809,-24.719238,0.0,0.0,0.0,17.589111,58.551636,-9.711914
1768999761693,-0.79003906,0.18457031,0.56103516,-6.7749023,-18.493652,-4.0893555,0.0,0.0,0.0,17.589111,58.551636,-9.711914
1768999761705,-0.79003906,0.18457031,0.56103516,-6.7749023,-18.493652,-4.0893555,0.0,0.0,0.0,16.798096,59.18335,-11.733398
1768999761793,-0.8149414,0.1430664,0.5161133,-30.334473,-35.949707,9.460449,0.0,0.0,0.0,16.798096,59.18335,-11.733398
1768999761804,-0.8149414,0.1430664,0.5161133,-30.334473,-35.949707,9.460449,0.0,0.0,0.0,14.529419,55.95337,-12.392578
1768999761893,-0.8354492,0.15429688,0.5385742,5.2490234,18.127441,-2.6245117,0.0,0.0,0.0,14.529419,55.95337,-12.392578
1768999761904,-0.8354492,0.15429688,0.5385742,5.2490234,18.127441,-2.6245117,0.0,0.0,0.0,13.348389,54.157104,-12.128906
1768999761992,-0.8574219,0.23486328,0.50146484,4.333496,-6.7749023,-5.432129,0.0,0.0,0.0,13.348389,54.157104,-12.128906
1768999762004,-0.8574219,0.23486328,0.50146484,4.333496,-6.7749023,-5.432129,0.0,0.0,0.0,15.0842285,55.947876,-12.947388
1768999762092,-0.8925781,0.09814453,0.43896484,-15.869141,-3.6621094,18.737793,0.0,0.0,0.0,15.0842285,55.947876,-12.947388
1768999762104,-0.8925781,0.09814453,0.43896484,-15.869141,-3.6621094,18.737793,0.0,0.0,0.0,13.518677,54.25049,-12.442017
1768999762192,-0.8613281,0.27734375,0.4975586,19.226074,28.320312,-8.056641,0.0,0.0,0.0,13.518677,54.25049,-12.442017
1768999762203,-0.8613281,0.27734375,0.4975586,19.226074,28.320312,-8.056641,0.0,0.0,0.0,15.408325,56.173096,-11.282959
1768999762291,-0.890625,0.0859375,0.5317383,27.404785,24.597168,-14.831543,0.0,0.0,0.0,15.408325,56.173096,-11.282959
1768999762303,-0.890625,0.0859375,0.5317383,27.404785,24.597168,-14.831543,0.0,0.0,0.0,16.902466,59.611816,-12.299194
1768999762391,-0.86376953,0.19140625,0.5463867,-25.45166,-14.6484375,28.015137,0.0,0.0,0.0,16.902466,59.611816,-12.299194
1768999762403,-0.86376953,0.19140625,0.5463867,-25.45166,-14.6484375,28.015137,0.0,0.0,0.0,18.890991,59.11194,-9.09668
1768999762491,-0.77490234,0.09326172,0.47314453,-2.0141602,-12.145996,12.573242,0.0,0.0,0.0,18.890991,59.11194,-9.09668
1768999762503,-0.77490234,0.09326172,0.47314453,-2.0141602,-12.145996,12.573242,0.0,0.0,0.0,19.692993,56.98059,-6.893921
1768999762590,-0.7915039,0.15673828,0.57128906,16.540527,14.831543,-0.12207031,0.0,0.0,0.0,19.692993,56.98059,-6.893921
1768999762602,-0.7915039,0.15673828,0.57128906,16.540527,14.831543,-0.12207031,0.0,0.0,0.0,21.022339,57.227783,-5.6744385
1768999762690,-0.7832031,0.1538086,0.55859375,-0.24414062,2.5634766,1.953125,0.0,0.0,0.0,21.022339,57.227783,-5.6744385
1768999762702,-0.7832031,0.1538086,0.55859375,-0.24414062,2.5634766,1.953125,0.0,0.0,0.0,21.96167,57.958374,-5.723877
1768999762790,-0.8178711,0.19189453,0.53466797,-11.535645,-23.254395,6.652832,0.0,0.0,0.0,21.96167,57.958374,-5.723877
1768999762801,-0.8178711,0.19189453,0.53466797,-11.535645,-23.254395,6.652832,0.0,0.0,0.0,20.654297,56.222534,-5.6469727
1768999762890,-0.84765625,0.1850586,0.48046875,-1.8310547,-9.70459,-0.91552734,0.0,0.0,0.0,20.654297,56.222534,-5.6469727
1768999762901,-0.84765625,0.1850586,0.48046875,-1.8310547,-9.70459,-0.91552734,0.0,0.0,0.0,19.242554,54.5636,-6.2512207
1768999762989,-0.8745117,0.13769531,0.49072266,9.765625,9.887695,-13.122559,0.0,0.0,0.0,19.242554,54.5636,-6.2512207
1768999763001,-0.8745117,0.13769531,0.49072266,9.765625,9.887695,-13.122559,0.0,0.0,0.0,18.85254,55.22827,-7.300415
1768999763089,-0.8935547,0.1772461,0.47851562,-10.375977,4.5776367,-2.746582,0.0,0.0,0.0,18.85254,55.22827,-7.300415
1768999763101,-0.8935547,0.1772461,0.47851562,-10.375977,4.5776367,-2.746582,0.0,0.0,0.0,18.171387,56.315918,-8.475952
1768999763189,-0.91845703,0.13769531,0.54003906,9.399414,15.808105,-16.296387,0.0,0.0,0.0,18.171387,56.315918,-8.475952
1768999763200,-0.91845703,0.13769531,0.54003906,9.399414,15.808105,-16.296387,0.0,0.0,0.0,17.138672,58.128662,-9.953613
1768999763289,-0.89453125,0.106933594,0.4819336,-20.690918,-18.676758,-4.5776367,0.0,0.0,0.0,17.138672,58.128662,-9.953613
1768999763300,-0.89453125,0.106933594,0.4819336,-20.690918,-18.676758,-4.5776367,0.0,0.0,0.0,15.3479,57.843018,-11.293945
1768999763388,-0.8149414,0.17919922,0.52685547,8.605957,10.559082,-11.169434,0.0,0.0,0.0,15.3479,57.843018,-11.293945
1768999763400,-0.8149414,0.17919922,0.52685547,8.605957,10.559082,-11.169434,0.0,0.0,0.0,13.64502,57.683716,-12.837524
1768999763488,-0.77783203,0.17871094,0.55126953,23.376465,5.79834,-18.493652,0.0,0.0,0.0,13.64502,57.683716,-12.837524
1768999763500,-0.77783203,0.17871094,0.55126953,23.376465,5.79834,-18.493652,0.0,0.0,0.0,13.557129,59.128418,-15.078735
1768999763588,-0.7944336,0.12109375,0.57958984,4.211426,-11.59668,-8.117676,0.0,0.0,0.0,13.557129,59.128418,-15.078735
1768999763600,-0.7944336,0.12109375,0.57958984,4.211426,-11.59668,-8.117676,0.0,0.0,0.0,12.469482,58.69995,-17.01233
1768999763687,-0.7832031,0.1303711,0.5229492,-7.385254,-29.968262,-0.061035156,0.0,0.0,0.0,12.469482,58.69995,-17.01233
1768999763699,-0.7832031,0.1303711,0.5229492,-7.385254,-29.968262,-0.061035156,0.0,0.0,0.0,11.019287,56.359863,-18.396606
1768999763787,-0.80908203,0.09863281,0.5239258,-1.8920898,-8.483887,-1.4648438,0.0,0.0,0.0,11.019287,56.359863,-18.396606
1768999763798,-0.80908203,0.09863281,0.5239258,-1.8920898,-8.483887,-1.4648438,0.0,0.0,0.0,9.63501,54.074707,-18.945923
1768999763887,-0.8491211,0.115234375,0.55371094,7.507324,17.822266,-5.859375,0.0,0.0,0.0,9.63501,54.074707,-18.945923
1768999763898,-0.8491211,0.115234375,0.55371094,7.507324,17.822266,-5.859375,0.0,0.0,0.0,9.94812,55.090942,-20.099487
1768999763986,-0.83691406,0.1850586,0.5102539,5.554199,-8.850098,7.6904297,0.0,0.0,0.0,9.94812,55.090942,-20.099487
1768999763998,-0.83691406,0.1850586,0.5102539,5.554199,-8.850098,7.6904297,0.0,0.0,0.0,11.705933,56.068726,-19.451294
1768999764086,-0.95410156,0.049804688,0.45166016,-20.446777,-7.2021484,19.40918,0.0,0.0,0.0,11.705933,56.068726,-19.451294
1768999764098,-0.95410156,0.049804688,0.45166016,-20.446777,-7.2021484,19.40918,0.0,0.0,0.0,11.211548,54.283447,-17.666016
1768999764186,-0.86865234,0.17871094,0.5410156,21.484375,49.560547,-10.7421875,0.0,0.0,0.0,11.211548,54.283447,-17.666016
1768999764197,-0.86865234,0.17871094,0.5410156,21.484375,49.560547,-10.7421875,0.0,0.0,0.0,13.760376,56.672974,-15.57312
1768999764286,-0.9711914,0.1303711,0.5332031,14.831543,22.766113,3.90625,0.0,0.0,0.0,13.760376,56.672974,-15.57312
1768999764297,-0.9711914,0.1303711,0.5332031,14.831543,22.766113,3.90625,0.0,0.0,0.0,16.809082,61.78711,-16.726685
1768999764385,-0.7519531,0.09716797,0.49365234,-13.916016,-35.52246,28.137207,0.0,0.0,0.0,16.809082,61.78711,-16.726685
1768999764397,-0.7519531,0.09716797,0.49365234,-13.916016,-35.52246,28.137207,0.0,0.0,0.0,18.704224,59.79309,-11.5686035
1768999764485,-0.83154297,0.11376953,0.53808594,-4.272461,-11.108398,11.84082,0.0,0.0,0.0,18.704224,59.79309,-11.5686035
1768999764497,-0.83154297,0.11376953,0.53808594,-4.272461,-11.108398,11.84082,0.0,0.0,0.0,18.934937,56.4093,-9.777832
1768999764585,-0.7758789,0.17285156,0.5332031,22.888184,11.901855,-7.2021484,0.0,0.0,0.0,18.934937,56.4093,-9.777832
1768999764596,-0.7758789,0.17285156,0.5332031,22.888184,11.901855,-7.2021484,0.0,0.0,0.0,20.280762,56.870728,-10.107422
1768999764684,-0.8105469,0.1328125,0.5810547,11.047363,3.1738281,-5.859375,0.0,0.0,0.0,20.280762,56.870728,-10.107422
1768999764697,-0.8105469,0.1328125,0.5810547,11.047363,3.1738281,-5.859375,0.0,0.0,0.0,20.698242,57.96936,-10.497437
1768999764784,-0.859375,0.17626953,0.54541016,-17.27295,-20.629883,4.638672,0.0,0.0,0.0,20.698242,57.96936,-10.497437
1768999764796,-0.859375,0.17626953,0.54541016,-17.27295,-20.629883,4.638672,0.0,0.0,0.0,19.37439,56.936646,-11.524658
1768999764884,-0.890625,0.12451172,0.4741211,-10.131836,-8.361816,1.2207031,0.0,0.0,0.0,19.37439,56.936646,-11.524658
1768999764896,-0.890625,0.12451172,0.4741211,-10.131836,-8.361816,1.2207031,0.0,0.0,0.0,17.286987,54.937134,-11.727905
1768999764984,-0.9042969,0.13134766,0.46435547,-4.5776367,19.592285,-4.5776367,0.0,0.0,0.0,17.286987,54.937134,-11.727905
1768999764995,-0.9042969,0.13134766,0.46435547,-4.5776367,19.592285,-4.5776367,0.0,0.0,0.0,16.583862,55.843506,-12.244263
1768999765083,-0.8671875,0.05419922,0.49804688,-2.8076172,31.799316,-13.366699,0.0,0.0,0.0,16.583862,55.843506,-12.244263
1768999765095,-0.8671875,0.05419922,0.49804688,-2.8076172,31.799316,-13.366699,0.0,0.0,0.0,16.04004,59.01306,-13.0078125
1768999765183,-0.8725586,0.19921875,0.5151367,3.0517578,-5.6152344,2.8686523,0.0,0.0,0.0,16.04004,59.01306,-13.0078125
1768999765195,-0.8725586,0.19921875,0.5151367,3.0517578,-5.6152344,2.8686523,0.0,0.0,0.0,15.704956,61.18286,-13.172607
1768999765283,-0.85302734,0.08886719,0.47851562,-18.310547,-21.728516,10.864258,0.0,0.0,0.0,15.704956,61.18286,-13.172607
1768999765294,-0.85302734,0.08886719,0.47851562,-18.310547,-21.728516,10.864258,0.0,0.0,0.0,13.535156,58.568115,-12.376099
1768999765382,-0.76904297,0.11035156,0.4897461,11.71875,15.075684,-12.817383,0.0,0.0,0.0,13.535156,58.568115,-12.376099
1768999765394,-0.76904297,0.11035156,0.4897461,11.71875,15.075684,-12.817383,0.0,0.0,0.0,13.018799,58.397827,-13.112183
1768999765482,-0.8066406,0.15039062,0.5522461,0.30517578,-4.8828125,-11.047363,0.0,0.0,0.0,13.018799,58.397827,-13.112183
1768999765494,-0.8066406,0.15039062,0.5522461,0.30517578,-4.8828125,-11.047363,0.0,0.0,0.0,12.606812,59.63379,-15.001831
1768999765582,-0.8154297,0.18896484,0.5488281,-26.306152,-39.42871,5.9814453,0.0,0.0,0.0,12.606812,59.63379,-15.001831
1768999765593,-0.8154297,0.18896484,0.5488281,-26.306152,-39.42871,5.9814453,0.0,0.0,0.0,10.524902,57.233276,-15.737915
1768999765682,-0.79296875,0.14794922,0.49121094,-12.634277,-12.451172,0.24414062,0.0,0.0,0.0,10.524902,57.233276,-15.737915
1768999765693,-0.79296875,0.14794922,0.49121094,-12.634277,-12.451172,0.24414062,0.0,0.0,0.0,8.811035,53.997803,-15.309448
1768999765781,-0.8754883,0.17773438,0.5620117,-12.939453,8.728027,-10.620117,0.0,0.0,0.0,8.811035,53.997803,-15.309448
1768999765793,-0.8754883,0.17773438,0.5620117,-12.939453,8.728027,-10.620117,0.0,0.0,0.0,7.4816895,54.14612,-16.836548
1768999765881,-0.86328125,0.24658203,0.56591797,18.127441,-5.3100586,1.2817383,0.0,0.0,0.0,7.4816895,54.14612,-16.836548
1768999765893,-0.86328125,0.24658203,0.56591797,18.127441,-5.3100586,1.2817383,0.0,0.0,0.0,7.8497314,54.992065,-17.468262
1768999765981,-0.87402344,-4.8828125E-4,0.44580078,-17.39502,-6.0424805,4.3945312,0.0,0.0,0.0,7.8497314,54.992065,-17.468262
1768999765992,-0.87402344,-4.8828125E-4,0.44580078,-17.39502,-6.0424805,4.3945312,0.0,0.0,0.0,7.761841,53.953857,-17.243042
1768999766080,-0.93115234,0.14990234,0.49267578,-0.12207031,30.944824,10.620117,0.0,0.0,0.0,7.761841,53.953857,-17.243042
1768999766092,-0.93115234,0.14990234,0.49267578,-0.12207031,30.944824,10.620117,0.0,0.0,0.0,9.299927,55.51941,-15.232544
1768999766180,-0.90722656,0.05908203,0.5864258,43.518066,55.29785,-15.441895,0.0,0.0,0.0,9.299927,55.51941,-15.232544
1768999766192,-0.90722656,0.05908203,0.5864258,43.518066,55.29785,-15.441895,0.0,0.0,0.0,11.870728,59.75464,-13.996582
1768999766280,-0.80029297,0.06982422,0.48632812,-21.606445,-16.601562,27.526855,0.0,0.0,0.0,11.870728,59.75464,-13.996582
1768999766291,-0.80029297,0.06982422,0.48632812,-21.606445,-16.601562,27.526855,0.0,0.0,0.0,16.083984,62.061768,-12.584839
1768999766380,-0.70947266,0.024414062,0.50097656,-10.314941,-6.652832,20.690918,0.0,0.0,0.0,16.083984,62.061768,-12.584839
1768999766391,-0.70947266,0.024414062,0.50097656,-10.314941,-6.652832,20.690918,0.0,0.0,0.0,17.215576,59.589844,-7.976074
1768999766479,-0.7788086,0.16748047,0.54003906,23.07129,12.817383,-6.4086914,0.0,0.0,0.0,17.215576,59.589844,-7.976074
1768999766491,-0.7788086,0.16748047,0.54003906,23.07129,12.817383,-6.4086914,0.0,0.0,0.0,20.269775,60.265503,-7.102661
1768999766579,-0.8383789,0.045410156,0.54052734,-13.48877,-15.319824,9.277344,0.0,0.0,0.0,20.269775,60.265503,-7.102661
1768999766591,-0.8383789,0.045410156,0.54052734,-13.48877,-15.319824,9.277344,0.0,0.0,0.0,19.407349,59.65027,-6.82251
1768999766679,-0.8598633,0.15673828,0.45751953,-16.540527,-23.4375,7.507324,0.0,0.0,0.0,19.407349,59.65027,-6.82251
1768999766691,-0.8598633,0.15673828,0.45751953,-16.540527,-23.4375,7.507324,0.0,0.0,0.0,18.006592,56.727905,-6.4050293
1768999766778,-0.8823242,0.12792969,0.45410156,12.634277,15.869141,-10.192871,0.0,0.0,0.0,18.006592,56.727905,-6.4050293
1768999766790,-0.8823242,0.12792969,0.45410156,12.634277,15.869141,-10.192871,0.0,0.0,0.0,17.578125,57.233276,-7.333374
1768999766878,-0.9160156,0.13769531,0.48486328,4.9438477,5.432129,-7.9956055,0.0,0.0,0.0,17.578125,57.233276,-7.333374
1768999766890,-0.9160156,0.13769531,0.48486328,4.9438477,5.432129,-7.9956055,0.0,0.0,0.0,17.556152,59.11743,-8.382568
1768999766978,-0.89746094,0.091308594,0.45703125,-4.4555664,0.36621094,-7.873535,0.0,0.0,0.0,17.556152,59.11743,-8.382568
1768999766989,-0.89746094,0.091308594,0.45703125,-4.4555664,0.36621094,-7.873535,0.0,0.0,0.0,16.259766,59.144897,-9.0802
1768999767078,-0.9633789,0.16308594,0.4794922,-4.0893555,-7.6293945,-8.117676,0.0,0.0,0.0,16.259766,59.144897,-9.0802
1768999767089,-0.9633789,0.16308594,0.4794922,-4.0893555,-7.6293945,-8.117676,0.0,0.0,0.0,14.952393,59.77112,-11.035767
1768999767177,-0.8051758,0.10205078,0.45996094,5.79834,-9.521484,-14.282227,0.0,0.0,0.0,14.952393,59.77112,-11.035767
1768999767189,-0.8051758,0.10205078,0.45996094,5.79834,-9.521484,-14.282227,0.0,0.0,0.0,12.991333,58.738403,-12.875977
1768999767277,-0.78222656,0.16064453,0.53271484,13.916016,8.422852,-15.930176,0.0,0.0,0.0,12.991333,58.738403,-12.875977
1768999767289,-0.78222656,0.16064453,0.53271484,13.916016,8.422852,-15.930176,0.0,0.0,0.0,11.722412,59.32068,-15.919189
1768999767377,-0.82958984,0.087402344,0.57373047,21.66748,8.605957,-18.981934,0.0,0.0,0.0,11.722412,59.32068,-15.919189
1768999767388,-0.82958984,0.087402344,0.57373047,21.66748,8.605957,-18.981934,0.0,0.0,0.0,10.338135,60.78186,-19.55017
1768999767476,-0.80371094,0.12939453,0.53027344,-22.338867,-28.808594,7.5683594,0.0,0.0,0.0,10.338135,60.78186,-19.55017
1768999767488,-0.80371094,0.12939453,0.53027344,-22.338867,-28.808594,7.5683594,0.0,0.0,0.0,9.030762,58.947144,-19.923706
1768999767577,-0.82128906,0.11230469,0.5053711,-5.6152344,-15.930176,3.8452148,0.0,0.0,0.0,9.030762,58.947144,-19.923706
1768999767588,-0.82128906,0.11230469,0.5053711,-5.6152344,-15.930176,3.8452148,0.0,0.0,0.0,8.014526,56.271973,-18.934937
1768999767676,-0.8779297,0.08691406,0.5229492,-2.0751953,3.1738281,0.24414062,0.0,0.0,0.0,8.014526,56.271973,-18.934937
1768999767687,-0.8779297,0.08691406,0.5229492,-2.0751953,3.1738281,0.24414062,0.0,0.0,0.0,8.102417,55.92041,-18.95691
1768999767775,-0.89990234,0.12451172,0.48828125,-3.8452148,-15.197754,1.4038086,0.0,0.0,0.0,8.102417,55.92041,-18.95691
1768999767787,-0.89990234,0.12451172,0.48828125,-3.8452148,-15.197754,1.4038086,0.0,0.0,0.0,8.448486,55.62378,-19.154663
1768999767875,-0.92089844,0.088378906,0.41210938,-7.446289,8.850098,9.58252,0.0,0.0,0.0,8.448486,55.62378,-19.154663
1768999767887,-0.92089844,0.088378906,0.41210938,-7.446289,8.850098,9.58252,0.0,0.0,0.0,8.140869,54.87671,-18.687744
1768999767975,-0.8925781,0.14160156,0.52783203,32.89795,42.541504,-18.981934,0.0,0.0,0.0,8.140869,54.87671,-18.687744
1768999767986,-0.8925781,0.14160156,0.52783203,32.89795,42.541504,-18.981934,0.0,0.0,0.0,10.338135,58.255005,-18.874512
1768999768075,-0.9711914,0.072753906,0.55078125,13.85498,20.568848,0.6713867,0.0,0.0,0.0,10.338135,58.255005,-18.874512
1768999768087,-0.9711914,0.072753906,0.55078125,13.85498,20.568848,0.6713867,0.0,0.0,0.0,11.953125,62.061768,-20.31372
1768999768174,-0.76953125,0.0703125,0.49853516,-4.333496,-13.244629,19.104004,0.0,0.0,0.0,11.953125,62.061768,-20.31372
1768999768186,-0.76953125,0.0703125,0.49853516,-4.333496,-13.244629,19.104004,0.0,0.0,0.0,14.694214,61.347656,-16.265259
1768999768274,-0.7861328,0.076171875,0.51660156,-1.0375977,9.033203,17.089844,0.0,0.0,0.0,14.694214,61.347656,-16.265259
1768999768285,-0.7861328,0.076171875,0.51660156,-1.0375977,9.033203,17.089844,0.0,0.0,0.0,16.44104,60.408325,-13.897705
1768999768374,-0.7788086,0.17285156,0.53271484,-3.9672852,-2.1972656,9.58252,0.0,0.0,0.0,16.44104,60.408325,-13.897705
1768999768385,-0.7788086,0.17285156,0.53271484,-3.9672852,-2.1972656,9.58252,0.0,0.0,0.0,18.73169,60.232544,-10.810547
1768999768473,-0.85058594,0.107910156,0.5024414,-18.554688,-21.728516,12.207031,0.0,0.0,0.0,18.73169,60.232544,-10.810547
1768999768485,-0.85058594,0.107910156,0.5024414,-18.554688,-21.728516,12.207031,0.0,0.0,0.0,18.330688,58.617554,-8.849487
1768999768573,-0.8745117,0.19921875,0.45214844,-11.047363,-6.591797,9.460449,0.0,0.0,0.0,18.330688,58.617554,-8.849487
1768999768585,-0.8745117,0.19921875,0.45214844,-11.047363,-6.591797,9.460449,0.0,0.0,0.0,17.330933,56.376343,-7.6519775
1768999768673,-0.9091797,0.11425781,0.40429688,22.949219,18.554688,-17.51709,0.0,0.0,0.0,17.330933,56.376343,-7.6519775
1768999768684,-0.9091797,0.11425781,0.40429688,22.949219,18.554688,-17.51709,0.0,0.0,0.0,17.808838,57.886963,-8.55835
1768999768773,-0.89453125,0.10205078,0.48339844,-18.127441,20.507812,4.211426,0.0,0.0,0.0,17.808838,57.886963,-8.55835
1768999768784,-0.89453125,0.10205078,0.48339844,-18.127441,20.507812,4.211426,0.0,0.0,0.0,18.067017,59.65027,-8.294678
1768999768872,-0.94384766,0.18017578,0.5053711,-2.1972656,7.9956055,-15.136719,0.0,0.0,0.0,18.067017,59.65027,-8.294678
1768999768884,-0.94384766,0.18017578,0.5053711,-2.1972656,7.9956055,-15.136719,0.0,0.0,0.0,18.676758,62.457275,-7.9101562
1768999768972,-0.7915039,0.053710938,0.44677734,-26.489258,-1.7700195,-3.6621094,0.0,0.0,0.0,18.676758,62.457275,-7.9101562
1768999768983,-0.7915039,0.053710938,0.44677734,-26.489258,-1.7700195,-3.6621094,0.0,0.0,0.0,15.342407,61.743164,-8.360596
1768999769072,-0.82128906,0.15722656,0.48535156,9.887695,21.057129,-19.16504,0.0,0.0,0.0,15.342407,61.743164,-8.360596
1768999769083,-0.82128906,0.15722656,0.48535156,9.887695,21.057129,-19.16504,0.0,0.0,0.0,12.546387,63.6438,-11.299438
1768999769171,-0.8666992,0.08203125,0.4482422,-37.475586,-33.081055,12.756348,0.0,0.0,0.0,12.546387,63.6438,-11.299438
1768999769183,-0.8666992,0.08203125,0.4482422,-37.475586,-33.081055,12.756348,0.0,0.0,0.0,11.052246,62.611084,-10.794067
1768999769271,-0.86035156,0.103515625,0.38134766,-21.728516,-0.9765625,-0.24414062,0.0,0.0,0.0,11.052246,62.611084,-10.794067
1768999769283,-0.86035156,0.103515625,0.38134766,-21.728516,-0.9765625,-0.24414062,0.0,0.0,0.0,8.827515,60.029297,-9.882202
1768999769371,-0.9550781,0.095214844,0.47998047,11.962891,33.63037,-21.118164,0.0,0.0,0.0,8.827515,60.029297,-9.882202
1768999769383,-0.9550781,0.095214844,0.47998047,11.962891,33.63037,-21.118164,0.0,0.0,0.0,7.399292,62.90222,-11.689453
1768999769471,-0.90625,0.05810547,0.4116211,-31.433105,-14.953613,-2.1362305,0.0,0.0,0.0,7.399292,62.90222,-11.689453
1768999769482,-0.90625,0.05810547,0.4116211,-31.433105,-14.953613,-2.1362305,0.0,0.0,0.0,4.713135,63.6438,-13.73291
1768999769570,-0.91259766,0.060546875,0.31054688,-12.573242,-1.6479492,3.4179688,0.0,0.0,0.0,4.713135,63.6438,-13.73291
1768999769582,-0.91259766,0.060546875,0.31054688,-12.573242,-1.6479492,3.4179688,0.0,0.0,0.0,2.6202393,62.111206,-13.683472
1768999769670,-0.9091797,0.14746094,0.3569336,32.592773,21.972656,-8.178711,0.0,0.0,0.0,2.6202393,62.111206,-13.683472
1768999769682,-0.9091797,0.14746094,0.3569336,32.592773,21.972656,-8.178711,0.0,0.0,0.0,3.4936523,64.05029,-14.342651
1768999769770,-0.9165039,0.110839844,0.4477539,32.592773,18.127441,-9.216309,0.0,0.0,0.0,3.4936523,64.05029,-14.342651
1768999769781,-0.9165039,0.110839844,0.4477539,32.592773,18.127441,-9.216309,0.0,0.0,0.0,5.487671,65.67627,-15.1501465
1768999769869,-1.0869141,-0.107421875,0.4453125,19.226074,8.361816,-35.7666,0.0,0.0,0.0,5.487671,65.67627,-15.1501465
1768999769881,-1.0869141,-0.107421875,0.4453125,19.226074,8.361816,-35.7666,0.0,0.0,0.0,3.0761719,67.8241,-21.11023
1768999769969,-0.7993164,-0.12402344,0.4008789,-16.967773,-1.7089844,-7.8125,0.0,0.0,0.0,3.0761719,67.8241,-21.11023
1768999769981,-0.7993164,-0.12402344,0.4008789,-16.967773,-1.7089844,-7.8125,0.0,0.0,0.0,-0.57128906,67.64282,-23.840332
1768999770069,-0.88427734,-0.052734375,0.4248047,-1.5258789,5.6762695,-13.427734,0.0,0.0,0.0,-0.57128906,67.64282,-23.840332
1768999770080,-0.88427734,-0.052734375,0.4248047,-1.5258789,5.6762695,-13.427734,0.0,0.0,0.0,-4.416504,67.85156,-27.279053
1768999770169,-0.8408203,-0.12060547,0.3305664,-20.080566,-20.202637,-3.90625,0.0,0.0,0.0,-4.416504,67.85156,-27.279053
1768999770180,-0.8408203,-0.12060547,0.3305664,-20.080566,-20.202637,-3.90625,0.0,0.0,0.0,-7.739868,66.71448,-29.042358
1768999770268,-0.8730469,-0.07910156,0.34277344,5.9814453,10.314941,-4.272461,0.0,0.0,0.0,-7.739868,66.71448,-29.042358
1768999770280,-0.8730469,-0.07910156,0.34277344,5.9814453,10.314941,-4.272461,0.0,0.0,0.0,-8.959351,66.19263,-28.399658
1768999770368,-0.8105469,-0.06933594,0.28515625,17.333984,-1.5869141,7.5683594,0.0,0.0,0.0,-8.959351,66.19263,-28.399658
1768999770380,-0.8105469,-0.06933594,0.28515625,17.333984,-1.5869141,7.5683594,0.0,0.0,0.0,-9.052734,67.25281,-30.355225
1768999770468,-1.0634766,-0.10205078,0.33447266,1.953125,-20.751953,24.169922,0.0,0.0,0.0,-9.052734,67.25281,-30.355225
1768999770479,-1.0634766,-0.10205078,0.33447266,1.953125,-20.751953,24.169922,0.0,0.0,0.0,-1.8951416,66.10474,-23.241577
1768999770567,-1.1469727,-0.033203125,0.37548828,11.474609,2.5634766,4.699707,0.0,0.0,0.0,-1.8951416,66.10474,-23.241577
1768999770579,-1.1469727,-0.033203125,0.37548828,11.474609,2.5634766,4.699707,0.0,0.0,0.0,1.7962646,65.10498,-20.423584
1768999770667,-1.0566406,0.087890625,0.4716797,50.1709,20.019531,-6.3476562,0.0,0.0,0.0,1.7962646,65.10498,-20.423584
1768999770679,-1.0566406,0.087890625,0.4716797,50.1709,20.019531,-6.3476562,0.0,0.0,0.0,4.454956,68.07678,-21.868286
1768999770767,-0.6225586,0.02734375,0.36865234,20.507812,-12.207031,4.333496,0.0,0.0,0.0,4.454956,68.07678,-21.868286
1768999770778,-0.6225586,0.02734375,0.36865234,20.507812,-12.207031,4.333496,0.0,0.0,0.0,2.2027588,67.247314,-24.68628
1768999770867,-0.91748047,-0.0024414062,0.5151367,12.084961,-11.352539,-9.155273,0.0,0.0,0.0,2.2027588,67.247314,-24.68628
1768999770878,-0.91748047,-0.0024414062,0.5151367,12.084961,-11.352539,-9.155273,0.0,0.0,0.0,4.350586,67.142944,-22.20337
1768999770966,-0.8730469,0.11279297,0.38330078,-46.26465,-41.809082,12.756348,0.0,0.0,0.0,4.350586,67.142944,-22.20337
1768999770978,-0.8730469,0.11279297,0.38330078,-46.26465,-41.809082,12.756348,0.0,0.0,0.0,4.3395996,62.616577,-20.9729
1768999771066,-0.89208984,0.07763672,0.39697266,31.555176,22.705078,-13.122559,0.0,0.0,0.0,4.3395996,62.616577,-20.9729
1768999771078,-0.89208984,0.07763672,0.39697266,31.555176,22.705078,-13.122559,0.0,0.0,0.0,3.5650635,62.995605,-22.022095
1768999771166,-0.8808594,0.103027344,0.43115234,2.6855469,-0.18310547,-15.991211,0.0,0.0,0.0,3.5650635,62.995605,-22.022095
1768999771177,-0.8808594,0.103027344,0.43115234,2.6855469,-0.18310547,-15.991211,0.0,0.0,0.0,2.411499,64.15466,-24.411621
1768999771265,-0.90966797,0.0546875,0.3642578,-8.7890625,-0.24414062,-2.6855469,0.0,0.0,0.0,2.411499,64.15466,-24.411621
1768999771277,-0.90966797,0.0546875,0.3642578,-8.7890625,-0.24414062,-2.6855469,0.0,0.0,0.0,0.5053711,63.781128,-26.345215
1768999771365,-0.9746094,0.01953125,0.38330078,8.239746,14.831543,-12.084961,0.0,0.0,0.0,0.5053711,63.781128,-26.345215
1768999771377,-0.9746094,0.01953125,0.38330078,8.239746,14.831543,-12.084961,0.0,0.0,0.0,-0.18127441,64.956665,-26.812134
1768999771465,-1.0,-0.009277344,0.43701172,1.159668,18.859863,-4.8828125,0.0,0.0,0.0,-0.18127441,64.956665,-26.812134
1768999771476,-1.0,-0.009277344,0.43701172,1.159668,18.859863,-4.8828125,0.0,0.0,0.0,-0.18127441,66.74194,-26.817627
1768999771564,-0.99072266,-0.051757812,0.40722656,-16.174316,17.456055,-2.1362305,0.0,0.0,0.0,-0.18127441,66.74194,-26.817627
1768999771576,-0.99072266,-0.051757812,0.40722656,-16.174316,17.456055,-2.1362305,0.0,0.0,0.0,-3.284912,68.395386,-30.39917
1768999771664,-0.796875,-0.072265625,0.37548828,-0.24414062,-0.48828125,-3.7841797,0.0,0.0,0.0,-3.284912,68.395386,-30.39917
1768999771676,-0.796875,-0.072265625,0.37548828,-0.24414062,-0.48828125,-3.7841797,0.0,0.0,0.0,-6.729126,69.087524,-31.541748
1768999771764,-0.8359375,-0.19238281,0.39648438,-14.282227,-0.5493164,-0.7324219,0.0,0.0,0.0,-6.729126,69.087524,-31.541748
1768999771775,-0.8359375,-0.19238281,0.39648438,-14.282227,-0.5493164,-0.7324219,0.0,0.0,0.0,-8.283691,68.55469,-30.932007
1768999771864,-0.8779297,-0.15234375,0.35839844,-13.61084,-21.057129,0.48828125,0.0,0.0,0.0,-8.283691,68.55469,-30.932007
1768999771876,-0.8779297,-0.15234375,0.35839844,-13.61084,-21.057129,0.48828125,0.0,0.0,0.0,-8.926392,67.15393,-30.377197
1768999771964,-0.8798828,-0.11279297,0.34326172,13.916016,0.48828125,-2.319336,0.0,0.0,0.0,-8.926392,67.15393,-30.377197
1768999771975,-0.8798828,-0.11279297,0.34326172,13.916016,0.48828125,-2.319336,0.0,0.0,0.0,-9.981079,66.17615,-31.898804
1768999772063,-0.91748047,-0.103027344,0.34765625,10.437012,-9.399414,12.756348,0.0,0.0,0.0,-9.981079,66.17615,-31.898804
1768999772075,-0.91748047,-0.103027344,0.34765625,10.437012,-9.399414,12.756348,0.0,0.0,0.0,-7.5531006,65.80261,-30.388184
1768999772163,-1.0146484,-0.11767578,0.2631836,6.4697266,-3.7231445,20.446777,0.0,0.0,0.0,-7.5531006,65.80261,-30.388184
1768999772174,-1.0146484,-0.11767578,0.2631836,6.4697266,-3.7231445,20.446777,0.0,0.0,0.0,-2.6531982,65.53345,-26.130981
1768999772263,-1.0395508,0.0043945312,0.48388672,42.907715,23.31543,6.7749023,0.0,0.0,0.0,-2.6531982,65.53345,-26.130981
1768999772274,-1.0395508,0.0043945312,0.48388672,42.907715,23.31543,6.7749023,0.0,0.0,0.0,2.043457,66.868286,-23.131714
1768999772362,-0.80029297,0.076660156,0.44433594,-3.6010742,-10.314941,-22.644043,0.0,0.0,0.0,2.043457,66.868286,-23.131714
1768999772374,-0.80029297,0.076660156,0.44433594,-3.6010742,-10.314941,-22.644043,0.0,0.0,0.0,4.350586,67.56592,-23.648071
1768999772462,-0.90722656,-0.041015625,0.47998047,-3.8452148,-3.112793,-4.638672,0.0,0.0,0.0,4.350586,67.56592,-23.648071
1768999772474,-0.90722656,-0.041015625,0.47998047,-3.8452148,-3.112793,-4.638672,0.0,0.0,0.0,0.31311035,67.29126,-26.608887
1768999772562,-0.8417969,0.17285156,0.3701172,-29.418945,-29.846191,18.981934,0.0,0.0,0.0,0.31311035,67.29126,-26.608887
1768999772573,-0.8417969,0.17285156,0.3701172,-29.418945,-29.846191,18.981934,0.0,0.0,0.0,2.1533203,64.47327,-22.730713
1768999772661,-0.8574219,0.10546875,0.38134766,26.794434,6.1035156,-26.550293,0.0,0.0,0.0,2.1533203,64.47327,-22.730713
1768999772673,-0.8574219,0.10546875,0.38134766,26.794434,6.1035156,-26.550293,0.0,0.0,0.0,1.0656738,63.59436,-23.884277
1768999772761,-0.9355469,0.025390625,0.42822266,-1.4648438,-11.108398,-16.906738,0.0,0.0,0.0,1.0656738,63.59436,-23.884277
1768999772773,-0.9355469,0.025390625,0.42822266,-1.4648438,-11.108398,-16.906738,0.0,0.0,0.0,-2.3345947,63.81958,-29.025879
1768999772861,-0.8613281,-0.008300781,0.38085938,18.127441,-17.578125,-35.095215,0.0,0.0,0.0,-2.3345947,63.81958,-29.025879
1768999772872,-0.8613281,-0.008300781,0.38085938,18.127441,-17.578125,-35.095215,0.0,0.0,0.0,-6.2182617,62.243042,-33.272095
1768999772961,-0.8613281,0.056152344,0.37890625,40.405273,13.549805,-9.521484,0.0,0.0,0.0,-6.2182617,62.243042,-33.272095
1768999772972,-0.8613281,0.056152344,0.37890625,40.405273,13.549805,-9.521484,0.0,0.0,0.0,-10.26123,61.627808,-40.91858
1768999773060,-0.9433594,-0.18896484,0.46289062,0.61035156,13.977051,-8.483887,0.0,0.0,0.0,-10.26123,61.627808,-40.91858
1768999773072,-0.9433594,-0.18896484,0.46289062,0.61035156,13.977051,-8.483887,0.0,0.0,0.0,-10.025024,63.429565,-41.92383
1768999773160,-0.9555664,-0.106933594,0.43310547,-15.319824,11.59668,25.878906,0.0,0.0,0.0,-10.025024,63.429565,-41.92383
1768999773171,-0.9555664,-0.106933594,0.43310547,-15.319824,11.59668,25.878906,0.0,0.0,0.0,-6.9763184,65.22034,-39.193726
1768999773260,-0.9628906,-0.056640625,0.4404297,-10.498047,-10.681152,18.920898,0.0,0.0,0.0,-6.9763184,65.22034,-39.193726
1768999773271,-0.9628906,-0.056640625,0.4404297,-10.498047,-10.681152,18.920898,0.0,0.0,0.0,-3.043213,65.077515,-32.739258
1768999773359,-0.77685547,-0.068847656,0.40673828,1.8920898,21.78955,17.8833,0.0,0.0,0.0,-3.043213,65.077515,-32.739258
1768999773371,-0.77685547,-0.068847656,0.40673828,1.8920898,21.78955,17.8833,0.0,0.0,0.0,-1.8347168,65.53345,-30.426636
1768999773459,-0.88378906,-0.041503906,0.52197266,-4.0283203,9.82666,29.785156,0.0,0.0,0.0,-1.8347168,65.53345,-30.426636
1768999773471,-0.88378906,-0.041503906,0.52197266,-4.0283203,9.82666,29.785156,0.0,0.0,0.0,3.619995,67.39563,-24.180908
1768999773559,-0.8183594,-0.029785156,0.3310547,-17.333984,-52.978516,44.49463,0.0,0.0,0.0,3.619995,67.39563,-24.180908
1768999773570,-0.8183594,-0.029785156,0.3310547,-17.333984,-52.978516,44.49463,0.0,0.0,0.0,7.7783203,64.2041,-18.067017
1768999773659,-0.9321289,0.025390625,0.45507812,19.836426,-8.239746,42.84668,0.0,0.0,0.0,7.7783203,64.2041,-18.067017
1768999773670,-0.9321289,0.025390625,0.45507812,19.836426,-8.239746,42.84668,0.0,0.0,0.0,15.430298,60.045776,-8.366089
1768999773758,-0.9716797,-0.0053710938,0.47314453,-1.4648438,7.3242188,2.9907227,0.0,0.0,0.0,15.430298,60.045776,-8.366089
1768999773770,-0.9716797,-0.0053710938,0.47314453,-1.4648438,7.3242188,2.9907227,0.0,0.0,0.0,19.951172,60.144653,-5.3723145
1768999773858,-0.96972656,0.09082031,0.5253906,-31.311035,27.770996,26.428223,0.0,0.0,0.0,19.951172,60.144653,-5.3723145
1768999773870,-0.96972656,0.09082031,0.5253906,-31.311035,27.770996,26.428223,0.0,0.0,0.0,20.006104,61.902466,-2.0544434
1768999773958,-0.9243164,0.33447266,0.43359375,-57.128906,0.7324219,26.367188,0.0,0.0,0.0,20.006104,61.902466,-2.0544434
1768999773970,-0.9243164,0.33447266,0.43359375,-57.128906,0.7324219,26.367188,0.0,0.0,0.0,20.36316,62.078247,3.0926514
1768999774057,-0.7973633,0.23339844,0.4663086,7.8125,-1.2817383,-19.89746,0.0,0.0,0.0,20.36316,62.078247,3.0926514
1768999774069,-0.7973633,0.23339844,0.4663086,7.8125,-1.2817383,-19.89746,0.0,0.0,0.0,19.171143,62.39685,5.256958
1768999774157,-0.6796875,0.34423828,0.46777344,-19.714355,-5.6762695,-2.5634766,0.0,0.0,0.0,19.171143,62.39685,5.256958
1768999774169,-0.6796875,0.34423828,0.46777344,-19.714355,-5.6762695,-2.5634766,0.0,0.0,0.0,16.572876,61.622314,2.8234863
1768999774257,-0.78466797,0.29296875,0.5229492,34.42383,2.6245117,-28.015137,0.0,0.0,0.0,16.572876,61.622314,2.8234863
1768999774268,-0.78466797,0.29296875,0.5229492,34.42383,2.6245117,-28.015137,0.0,0.0,0.0,16.14441,61.935425,1.2249756
1768999774356,-0.921875,0.22216797,0.45263672,-16.784668,-38.757324,-1.8310547,0.0,0.0,0.0,16.14441,61.935425,1.2249756
1768999774368,-0.921875,0.22216797,0.45263672,-16.784668,-38.757324,-1.8310547,0.0,0.0,0.0,14.716187,60.320435,-1.8182373
1768999774456,-0.85302734,0.18261719,0.50341797,36.254883,17.822266,-22.644043,0.0,0.0,0.0,14.716187,60.320435,-1.8182373
1768999774468,-0.85302734,0.18261719,0.50341797,36.254883,17.822266,-22.644043,0.0,0.0,0.0,14.254761,59.782104,-1.8841553
1768999774556,-0.93847656,0.111328125,0.4243164,-18.676758,-18.249512,3.90625,0.0,0.0,0.0,14.254761,59.782104,-1.8841553
1768999774568,-0.93847656,0.111328125,0.4243164,-18.676758,-18.249512,3.90625,0.0,0.0,0.0,14.820557,60.21057,-3.5211182
1768999774656,-0.8925781,0.16113281,0.43066406,16.784668,27.22168,-0.91552734,0.0,0.0,0.0,14.820557,60.21057,-3.5211182
1768999774667,-0.8925781,0.16113281,0.43066406,16.784668,27.22168,-0.91552734,0.0,0.0,0.0,15.287476,60.441284,-2.642212
1768999774755,-0.89697266,0.2133789,0.47558594,10.925293,15.197754,4.333496,0.0,0.0,0.0,15.287476,60.441284,-2.642212
1768999774767,-0.89697266,0.2133789,0.47558594,10.925293,15.197754,4.333496,0.0,0.0,0.0,17.896729,62.58362,-1.5875244
1768999774855,-0.90771484,0.095214844,0.41601562,0.5493164,-16.662598,12.573242,0.0,0.0,0.0,17.896729,62.58362,-1.5875244
1768999774867,-0.90771484,0.095214844,0.41601562,0.5493164,-16.662598,12.573242,0.0,0.0,0.0,19.802856,62.006836,-0.03845215
1768999774955,-0.8071289,0.080566406,0.3774414,-12.634277,-6.0424805,26.855469,0.0,0.0,0.0,19.802856,62.006836,-0.03845215
1768999774967,-0.8071289,0.080566406,0.3774414,-12.634277,-6.0424805,26.855469,0.0,0.0,0.0,20.687256,59.9469,3.1365967
1768999775055,-0.82177734,0.14160156,0.47802734,28.259277,19.53125,-5.1879883,0.0,0.0,0.0,20.687256,59.9469,3.1365967
1768999775066,-0.82177734,0.14160156,0.47802734,28.259277,19.53125,-5.1879883,0.0,0.0,0.0,23.845825,61.221313,5.2734375
1768999775154,-0.88671875,0.12109375,0.48486328,-29.541016,-30.517578,21.484375,0.0,0.0,0.0,23.845825,61.221313,5.2734375
1768999775166,-0.88671875,0.12109375,0.48486328,-29.541016,-30.517578,21.484375,0.0,0.0,0.0,24.11499,59.694214,5.0976562
1768999775254,-0.8300781,0.16357422,0.40966797,-3.540039,-1.0375977,9.033203,0.0,0.0,0.0,24.11499,59.694214,5.0976562
1768999775266,-0.8300781,0.16357422,0.40966797,-3.540039,-1.0375977,9.033203,0.0,0.0,0.0,22.818604,57.34314,6.157837
1768999775354,-0.9013672,0.111328125,0.49169922,33.75244,37.902832,-30.151367,0.0,0.0,0.0,22.818604,57.34314,6.157837
1768999775365,-0.9013672,0.111328125,0.49169922,33.75244,37.902832,-30.151367,0.0,0.0,0.0,23.92273,60.941162,5.361328
1768999775453,-0.93310547,0.122558594,0.44189453,-22.766113,-0.24414062,7.2631836,0.0,0.0,0.0,23.92273,60.941162,5.361328
1768999775465,-0.93310547,0.122558594,0.44189453,-22.766113,-0.24414062,7.2631836,0.0,0.0,0.0,23.208618,62.48474,4.3725586
1768999775553,-0.9897461,0.1616211,0.31201172,-23.498535,5.3100586,5.493164,0.0,0.0,0.0,23.208618,62.48474,4.3725586
1768999775565,-0.9897461,0.1616211,0.31201172,-23.498535,5.3100586,5.493164,0.0,0.0,0.0,21.483765,62.02881,4.784546
1768999775653,-0.89404297,0.23046875,0.4741211,27.954102,28.686523,-14.892578,0.0,0.0,0.0,21.483765,62.02881,4.784546
1768999775665,-0.89404297,0.23046875,0.4741211,27.954102,28.686523,-14.892578,0.0,0.0,0.0,22.582397,65.17639,5.152588
1768999775753,-0.81689453,0.12988281,0.46435547,-24.780273,-43.395996,5.3710938,0.0,0.0,0.0,22.582397,65.17639,5.152588
1768999775764,-0.81689453,0.12988281,0.46435547,-24.780273,-43.395996,5.3710938,0.0,0.0,0.0,19.819336,63.53943,3.3892822
1768999775852,-0.8486328,0.21289062,0.47460938,-8.117676,-23.498535,-9.82666,0.0,0.0,0.0,19.819336,63.53943,3.3892822
1768999775864,-0.8486328,0.21289062,0.47460938,-8.117676,-23.498535,-9.82666,0.0,0.0,0.0,16.254272,59.606323,1.5655518
1768999775952,-0.796875,0.1430664,0.4814453,9.277344,3.6621094,-22.216797,0.0,0.0,0.0,16.254272,59.606323,1.5655518
1768999775963,-0.796875,0.1430664,0.4814453,9.277344,3.6621094,-22.216797,0.0,0.0,0.0,13.64502,59.56787,-2.7960205
1768999776052,-0.84765625,0.123535156,0.5917969,-6.591797,4.3945312,-13.305664,0.0,0.0,0.0,13.64502,59.56787,-2.7960205
1768999776063,-0.84765625,0.123535156,0.5917969,-6.591797,4.3945312,-13.305664,0.0,0.0,0.0,11.409302,60.007324,-5.427246
1768999776151,-0.8964844,0.24267578,0.50927734,-7.9956055,-35.7666,-0.30517578,0.0,0.0,0.0,11.409302,60.007324,-5.427246
1768999776163,-0.8964844,0.24267578,0.50927734,-7.9956055,-35.7666,-0.30517578,0.0,0.0,0.0,10.640259,59.01306,-7.3553467
1768999776251,-0.9238281,0.0029296875,0.35351562,-6.958008,11.047363,-2.746582,0.0,0.0,0.0,10.640259,59.01306,-7.3553467
1768999776263,-0.9238281,0.0029296875,0.35351562,-6.958008,11.047363,-2.746582,0.0,0.0,0.0,8.898926,56.38733,-6.2457275
1768999776351,-0.8286133,0.1616211,0.49169922,17.211914,47.36328,-14.831543,0.0,0.0,0.0,8.898926,56.38733,-6.2457275
1768999776363,-0.8286133,0.1616211,0.49169922,17.211914,47.36328,-14.831543,0.0,0.0,0.0,11.25,61.122437,-7.3883057
1768999776451,-0.85253906,0.10839844,0.49365234,-6.5307617,8.239746,8.911133,0.0,0.0,0.0,11.25,61.122437,-7.3883057
1768999776462,-0.85253906,0.10839844,0.49365234,-6.5307617,8.239746,8.911133,0.0,0.0,0.0,12.491455,63.308716,-7.069702
1768999776550,-0.9501953,0.096191406,0.38623047,-11.535645,0.061035156,14.953613,0.0,0.0,0.0,12.491455,63.308716,-7.069702
1768999776562,-0.9501953,0.096191406,0.38623047,-11.535645,0.061035156,14.953613,0.0,0.0,0.0,13.320923,62.96814,-5.026245
1768999776650,-0.86279297,0.10595703,0.45703125,15.380859,2.746582,4.272461,0.0,0.0,0.0,13.320923,62.96814,-5.026245
1768999776661,-0.86279297,0.10595703,0.45703125,15.380859,2.746582,4.272461,0.0,0.0,0.0,16.594849,63.149414,-1.1590576
1768999776750,-0.78515625,0.03857422,0.44140625,-11.413574,-19.104004,15.075684,0.0,0.0,0.0,16.594849,63.149414,-1.1590576
1768999776761,-0.78515625,0.03857422,0.44140625,-11.413574,-19.104004,15.075684,0.0,0.0,0.0,17.874756,61.80359,-0.40649414
1768999776849,-0.9013672,0.18310547,0.5385742,9.216309,-14.587402,2.9296875,0.0,0.0,0.0,17.874756,61.80359,-0.40649414
1768999776861,-0.9013672,0.18310547,0.5385742,9.216309,-14.587402,2.9296875,0.0,0.0,0.0,18.967896,60.095215,0.7141113
1768999776949,-0.83691406,0.07910156,0.4609375,-4.760742,-15.625,2.1972656,0.0,0.0,0.0,18.967896,60.095215,0.7141113
1768999776961,-0.83691406,0.07910156,0.4609375,-4.760742,-15.625,2.1972656,0.0,0.0,0.0,17.880249,58.238525,-0.45043945
1768999777049,-0.8154297,0.114746094,0.51464844,17.089844,13.48877,-14.709473,0.0,0.0,0.0,17.880249,58.238525,-0.45043945
1768999777060,-0.8154297,0.114746094,0.51464844,17.089844,13.48877,-14.709473,0.0,0.0,0.0,17.451782,58.337402,-1.8017578
1768999777149,-0.9003906,0.119628906,0.50341797,-1.5258789,-13.549805,-2.9907227,0.0,0.0,0.0,17.451782,58.337402,-1.8017578
1768999777160,-0.9003906,0.119628906,0.50341797,-1.5258789,-13.549805,-2.9907227,0.0,0.0,0.0,16.820068,59.18335,-4.482422
1768999777248,-0.90527344,0.11230469,0.39794922,-18.737793,-10.803223,10.559082,0.0,0.0,0.0,16.820068,59.18335,-4.482422
1768999777260,-0.90527344,0.11230469,0.39794922,-18.737793,-10.803223,10.559082,0.0,0.0,0.0,15.430298,57.22229,-4.3670654
1768999777348,-0.93603516,0.07714844,0.4350586,9.521484,34.057617,-13.305664,0.0,0.0,0.0,15.430298,57.22229,-4.3670654
1768999777359,-0.93603516,0.07714844,0.4350586,9.521484,34.057617,-13.305664,0.0,0.0,0.0,15.836792,59.057007,-4.581299
1768999777448,-0.88623047,0.099609375,0.5107422,-2.380371,30.334473,-2.0141602,0.0,0.0,0.0,15.836792,59.057007,-4.581299
1768999777459,-0.88623047,0.099609375,0.5107422,-2.380371,30.334473,-2.0141602,0.0,0.0,0.0,16.078491,62.90222,-4.9053955
1768999777547,-0.9169922,0.16210938,0.4921875,-18.981934,-26.672363,6.225586,0.0,0.0,0.0,16.078491,62.90222,-4.9053955
1768999777559,-0.9169922,0.16210938,0.4921875,-18.981934,-26.672363,6.225586,0.0,0.0,0.0,15.974121,62.83081,-3.7628174
1768999777647,-0.8666992,0.14892578,0.41601562,-18.249512,-21.850586,13.244629,0.0,0.0,0.0,15.974121,62.83081,-3.7628174
1768999777659,-0.8666992,0.14892578,0.41601562,-18.249512,-21.850586,13.244629,0.0,0.0,0.0,14.430542,59.468994,-2.9333496
1768999777747,-0.75390625,0.19921875,0.5073242,31.311035,20.446777,-27.832031,0.0,0.0,0.0,14.430542,59.468994,-2.9333496
1768999777758,-0.75390625,0.19921875,0.5073242,31.311035,20.446777,-27.832031,0.0,0.0,0.0,14.699707,60.040283,-4.251709
1768999777847,-0.8144531,0.16552734,0.5493164,14.160156,-11.657715,-3.540039,0.0,0.0,0.0,14.699707,60.040283,-4.251709
1768999777858,-0.8144531,0.16552734,0.5493164,14.160156,-11.657715,-3.540039,0.0,0.0,0.0,14.523926,61.42456,-7.3223877
1768999777946,-0.87353516,0.2290039,0.53515625,-25.08545,-45.532227,17.150879,0.0,0.0,0.0,14.523926,61.42456,-7.3223877
1768999777958,-0.87353516,0.2290039,0.53515625,-25.08545,-45.532227,17.150879,0.0,0.0,0.0,13.639526,57.93091,-7.058716
1768999778046,-0.84228516,0.16357422,0.4736328,17.27295,11.59668,-4.211426,0.0,0.0,0.0,13.639526,57.93091,-7.058716
1768999778058,-0.84228516,0.16357422,0.4736328,17.27295,11.59668,-4.211426,0.0,0.0,0.0,13.353882,55.057983,-6.7456055
1768999778146,-0.86035156,0.2763672,0.5102539,19.592285,10.192871,0.6713867,0.0,0.0,0.0,13.353882,55.057983,-6.7456055
1768999778158,-0.86035156,0.2763672,0.5102539,19.592285,10.192871,0.6713867,0.0,0.0,0.0,16.051025,57.161865,-7.025757
1768999778246,-0.89453125,0.2006836,0.46777344,3.7231445,-5.859375,9.58252,0.0,0.0,0.0,16.051025,57.161865,-7.025757
1768999778257,-0.89453125,0.2006836,0.46777344,3.7231445,-5.859375,9.58252,0.0,0.0,0.0,17.814331,56.77185,-5.993042
1768999778345,-0.83691406,0.13867188,0.45996094,-4.5166016,28.137207,13.48877,0.0,0.0,0.0,17.814331,56.77185,-5.993042
1768999778357,-0.83691406,0.13867188,0.45996094,-4.5166016,28.137207,13.48877,0.0,0.0,0.0,20.967407,56.8927,-2.4279785
1768999778445,-0.98828125,0.20458984,0.49853516,12.084961,35.7666,-11.535645,0.0,0.0,0.0,20.967407,56.8927,-2.4279785
1768999778456,-0.98828125,0.20458984,0.49853516,12.084961,35.7666,-11.535645,0.0,0.0,0.0,24.13147,61.30371,-1.0821533
1768999778545,-0.93896484,0.095703125,0.5288086,-33.26416,10.375977,4.0283203,0.0,0.0,0.0,24.13147,61.30371,-1.0821533
1768999778556,-0.93896484,0.095703125,0.5288086,-33.26416,10.375977,4.0283203,0.0,0.0,0.0,23.840332,62.495728,1.2030029
1768999778644,-0.9248047,0.05419922,0.48095703,-19.53125,6.652832,-14.282227,0.0,0.0,0.0,23.840332,62.495728,1.2030029
1768999778656,-0.9248047,0.05419922,0.48095703,-19.53125,6.652832,-14.282227,0.0,0.0,0.0,21.187134,63.962402,0.31860352
1768999778744,-0.80859375,0.044433594,0.44873047,-29.296875,-21.54541,5.493164,0.0,0.0,0.0,21.187134,63.962402,0.31860352
1768999778756,-0.80859375,0.044433594,0.44873047,-29.296875,-21.54541,5.493164,0.0,0.0,0.0,16.265259,63.22632,-1.0491943
1768999778844,-0.92089844,0.09082031,0.44140625,-35.15625,-26.97754,8.056641,0.0,0.0,0.0,16.265259,63.22632,-1.0491943
1768999778855,-0.92089844,0.09082031,0.44140625,-35.15625,-26.97754,8.056641,0.0,0.0,0.0,13.562622,60.64453,-0.6866455
1768999778944,-0.93310547,0.0034179688,0.42333984,-29.907227,2.6245117,-6.958008,0.0,0.0,0.0,13.562622,60.64453,-0.6866455
1768999778955,-0.93310547,0.0034179688,0.42333984,-29.907227,2.6245117,-6.958008,0.0,0.0,0.0,10.519409,59.49646,-0.7525635
1768999779043,-0.8911133,0.04345703,0.43701172,-6.286621,23.4375,-22.277832,0.0,0.0,0.0,10.519409,59.49646,-0.7525635
1768999779055,-0.8911133,0.04345703,0.43701172,-6.286621,23.4375,-22.277832,0.0,0.0,0.0,5.3338623,61.94641,-6.454468
1768999779143,-0.90234375,0.020019531,0.38427734,-35.461426,-10.803223,3.3569336,0.0,0.0,0.0,5.3338623,61.94641,-6.454468
1768999779154,-0.90234375,0.020019531,0.38427734,-35.461426,-10.803223,3.3569336,0.0,0.0,0.0,2.307129,62.001343,-6.9104004
1768999779243,-0.9013672,-0.0087890625,0.33740234,1.953125,10.253906,-3.8452148,0.0,0.0,0.0,2.307129,62.001343,-6.9104004
1768999779255,-0.9013672,-0.0087890625,0.33740234,1.953125,10.253906,-3.8452148,0.0,0.0,0.0,1.137085,62.330933,-7.564087
1768999779342,-0.8769531,0.012207031,0.34375,15.74707,3.540039,7.3242188,0.0,0.0,0.0,1.137085,62.330933,-7.564087
1768999779354,-0.8769531,0.012207031,0.34375,15.74707,3.540039,7.3242188,0.0,0.0,0.0,3.8562012,63.462524,-7.0202637
1768999779442,-1.015625,0.08251953,0.5024414,15.991211,-0.7324219,37.17041,0.0,0.0,0.0,3.8562012,63.462524,-7.0202637
1768999779454,-1.015625,0.08251953,0.5024414,15.991211,-0.7324219,37.17041,0.0,0.0,0.0,10.349121,63.484497,-2.70813
1768999779542,-0.81591797,0.088378906,0.50634766,32.470703,-27.34375,0.061035156,0.0,0.0,0.0,10.349121,63.484497,-2.70813
1768999779553,-0.81591797,0.088378906,0.50634766,32.470703,-27.34375,0.061035156,0.0,0.0,0.0,13.881226,61.243286,-0.8239746
1768999779641,-0.7495117,0.09326172,0.5073242,12.145996,-10.559082,-0.91552734,0.0,0.0,0.0,13.881226,61.243286,-0.8239746
1768999779653,-0.7495117,0.09326172,0.5073242,12.145996,-10.559082,-0.91552734,0.0,0.0,0.0,13.969116,59.73816,-2.1368408
1768999779741,-0.8408203,0.1875,0.56347656,3.2958984,-5.79834,-0.061035156,0.0,0.0,0.0,13.969116,59.73816,-2.1368408
1768999779753,-0.8408203,0.1875,0.56347656,3.2958984,-5.79834,-0.061035156,0.0,0.0,0.0,14.16687,59.34265,-3.1695557
1768999779841,-0.81396484,0.17089844,0.51708984,-17.822266,-17.63916,9.094238,0.0,0.0,0.0,14.16687,59.34265,-3.1695557
1768999779852,-0.81396484,0.17089844,0.51708984,-17.822266,-17.63916,9.094238,0.0,0.0,0.0,13.73291,57.370605,-2.5268555
1768999779941,-0.8457031,0.17822266,0.48046875,-1.4038086,6.1035156,0.0,0.0,0.0,0.0,13.73291,57.370605,-2.5268555
1768999779952,-0.8457031,0.17822266,0.48046875,-1.4038086,6.1035156,0.0,0.0,0.0,0.0,13.50769,57.002563,-2.2521973
1768999780040,-0.8432617,0.17333984,0.49072266,-3.7841797,10.314941,1.5258789,0.0,0.0,0.0,13.50769,57.002563,-2.2521973
1768999780052,-0.8432617,0.17333984,0.49072266,-3.7841797,10.314941,1.5258789,0.0,0.0,0.0,14.122925,58.095703,-1.7797852
1768999780140,-0.87841797,0.14892578,0.39941406,-8.056641,5.3100586,7.446289,0.0,0.0,0.0,14.122925,58.095703,-1.7797852
1768999780152,-0.87841797,0.14892578,0.39941406,-8.056641,5.3100586,7.446289,0.0,0.0,0.0,14.60083,58.342896,-0.39001465
1768999780240,-0.8598633,0.2421875,0.4345703,18.310547,12.390137,-1.2207031,0.0,0.0,0.0,14.60083,58.342896,-0.39001465
1768999780251,-0.8598633,0.2421875,0.4345703,18.310547,12.390137,-1.2207031,0.0,0.0,0.0,17.028809,59.93042,0.5493164
1768999780339,-0.87646484,0.28857422,0.4741211,32.89795,-1.2817383,11.59668,0.0,0.0,0.0,17.028809,59.93042,0.5493164
1768999780352,-0.87646484,0.28857422,0.4741211,32.89795,-1.2817383,11.59668,0.0,0.0,0.0,21.148682,60.408325,2.0819092
1768999780439,-0.9169922,0.08251953,0.4038086,35.461426,7.751465,-9.58252,0.0,0.0,0.0,21.148682,60.408325,2.0819092
1768999780451,-0.9169922,0.08251953,0.4038086,35.461426,7.751465,-9.58252,0.0,0.0,0.0,23.411865,60.007324,1.5710449
1768999780539,-0.7758789,0.16894531,0.59277344,27.526855,13.183594,-13.122559,0.0,0.0,0.0,23.411865,60.007324,1.5710449
1768999780551,-0.7758789,0.16894531,0.59277344,27.526855,13.183594,-13.122559,0.0,0.0,0.0,28.311768,61.583862,3.9056396
1768999780639,-0.8383789,0.11767578,0.46044922,8.7890625,-34.301758,11.413574,0.0,0.0,0.0,28.311768,61.583862,3.9056396
1768999780651,-0.8383789,0.11767578,0.46044922,8.7890625,-34.301758,11.413574,0.0,0.0,0.0,26.954956,61.029053,-0.15930176
1768999780738,-0.9941406,0.06738281,0.54785156,4.1503906,-12.878418,-15.869141,0.0,0.0,0.0,26.954956,61.029053,-0.15930176
1768999780750,-0.9941406,0.06738281,0.54785156,4.1503906,-12.878418,-15.869141,0.0,0.0,0.0,25.22461,57.44751,-0.115356445
1768999780838,-0.7426758,0.21142578,0.4555664,-10.620117,16.479492,-13.61084,0.0,0.0,0.0,25.22461,57.44751,-0.115356445
1768999780850,-0.7426758,0.21142578,0.4555664,-10.620117,16.479492,-13.61084,0.0,0.0,0.0,22.928467,58.848267,-4.9823
1768999780938,-0.7910156,0.14990234,0.44433594,7.385254,-0.7324219,-25.512695,0.0,0.0,0.0,22.928467,58.848267,-4.9823
1768999780949,-0.7910156,0.14990234,0.44433594,7.385254,-0.7324219,-25.512695,0.0,0.0,0.0,20.709229,60.430298,-7.36084
1768999781037,-0.87646484,0.14404297,0.4814453,-8.972168,10.559082,-9.094238,0.0,0.0,0.0,20.709229,60.430298,-7.36084
1768999781049,-0.87646484,0.14404297,0.4814453,-8.972168,10.559082,-9.094238,0.0,0.0,0.0,18.704224,60.985107,-8.470459
1768999781137,-1.0151367,0.14697266,0.31152344,-11.352539,11.352539,-12.573242,0.0,0.0,0.0,18.704224,60.985107,-8.470459
1768999781149,-1.0151367,0.14697266,0.31152344,-11.352539,11.352539,-12.573242,0.0,0.0,0.0,16.045532,62.58911,-11.162109
1768999781237,-0.8623047,0.13085938,0.49560547,12.329102,16.723633,-23.925781,0.0,0.0,0.0,16.045532,62.58911,-11.162109
1768999781248,-0.8623047,0.13085938,0.49560547,12.329102,16.723633,-23.925781,0.0,0.0,0.0,14.529419,64.84131,-11.535645
1768999781343,-0.8491211,0.14794922,0.41552734,-34.118652,-30.456543,11.901855,0.0,0.0,0.0,14.529419,64.84131,-11.535645
1768999781348,-0.8491211,0.14794922,0.41552734,-34.118652,-30.456543,11.901855,0.0,0.0,0.0,12.3376465,63.967896,-12.628784
1768999781436,-0.7480469,0.16845703,0.49072266,13.549805,-9.643555,-20.874023,0.0,0.0,0.0,12.3376465,63.967896,-12.628784
1768999781448,-0.7480469,0.16845703,0.49072266,13.549805,-9.643555,-20.874023,0.0,0.0,0.0,10.83252,61.759644,-12.886963
1768999781536,-0.8886719,0.123535156,0.5727539,-0.24414062,-5.493164,-6.286621,0.0,0.0,0.0,10.83252,61.759644,-12.886963
1768999781548,-0.8886719,0.123535156,0.5727539,-0.24414062,-5.493164,-6.286621,0.0,0.0,0.0,9.8272705,61.688232,-15.210571
1768999781636,-0.8022461,0.1508789,0.48046875,-12.145996,-22.644043,2.5634766,0.0,0.0,0.0,9.8272705,61.688232,-15.210571
1768999781648,-0.8022461,0.1508789,0.48046875,-12.145996,-22.644043,2.5634766,0.0,0.0,0.0,8.585815,59.787598,-15.69397
1768999781736,-0.8491211,0.06542969,0.54785156,11.108398,9.70459,-12.145996,0.0,0.0,0.0,8.585815,59.787598,-15.69397
1768999781747,-0.8491211,0.06542969,0.54785156,11.108398,9.70459,-12.145996,0.0,0.0,0.0,7.800293,58.952637,-15.188599
1768999781835,-0.8901367,0.12548828,0.45214844,-12.573242,-24.414062,13.916016,0.0,0.0,0.0,7.800293,58.952637,-15.188599
1768999781847,-0.8901367,0.12548828,0.45214844,-12.573242,-24.414062,13.916016,0.0,0.0,0.0,8.745117,58.793335,-15.8203125
1768999781935,-0.91503906,0.037597656,0.32958984,-1.8920898,-8.361816,2.9296875,0.0,0.0,0.0,8.745117,58.793335,-15.8203125
1768999781946,-0.91503906,0.037597656,0.32958984,-1.8920898,-8.361816,2.9296875,0.0,0.0,0.0,8.157349,56.04126,-13.936157
1768999782035,-0.8901367,0.13330078,0.47021484,13.305664,23.620605,-7.446289,0.0,0.0,0.0,8.157349,56.04126,-13.936157
1768999782046,-0.8901367,0.13330078,0.47021484,13.305664,23.620605,-7.446289,0.0,0.0,0.0,9.4921875,58.238525,-15.172119
1768999782134,-0.8564453,0.13427734,0.484375,-4.0283203,10.070801,11.59668,0.0,0.0,0.0,9.4921875,58.238525,-15.172119
1768999782146,-0.8564453,0.13427734,0.484375,-4.0283203,10.070801,11.59668,0.0,0.0,0.0,11.277466,59.84253,-14.315186
1768999782234,-0.90966797,0.12011719,0.41992188,18.920898,22.705078,-2.4414062,0.0,0.0,0.0,11.277466,59.84253,-14.315186
1768999782246,-0.90966797,0.12011719,0.41992188,18.920898,22.705078,-2.4414062,0.0,0.0,0.0,13.222046,61.556396,-13.463745
1768999782334,-1.0283203,0.11376953,0.49121094,-4.0893555,21.30127,21.118164,0.0,0.0,0.0,13.222046,61.556396,-13.463745
1768999782345,-1.0283203,0.11376953,0.49121094,-4.0893555,21.30127,21.118164,0.0,0.0,0.0,16.940918,63.62732,-9.563599
1768999782434,-0.7558594,0.03564453,0.38085938,-8.911133,-14.526367,12.939453,0.0,0.0,0.0,16.940918,63.62732,-9.563599
1768999782445,-0.7558594,0.03564453,0.38085938,-8.911133,-14.526367,12.939453,0.0,0.0,0.0,19.594116,63.187866,-6.4434814
1768999782533,-0.86328125,0.09863281,0.5078125,6.8969727,-0.7324219,14.6484375,0.0,0.0,0.0,19.594116,63.187866,-6.4434814
1768999782545,-0.86328125,0.09863281,0.5078125,6.8969727,-0.7324219,14.6484375,0.0,0.0,0.0,20.549927,62.122192,-3.9715576
1768999782633,-0.88427734,0.114746094,0.5004883,-20.324707,-9.155273,10.498047,0.0,0.0,0.0,20.549927,62.122192,-3.9715576
1768999782644,-0.88427734,0.114746094,0.5004883,-20.324707,-9.155273,10.498047,0.0,0.0,0.0,21.307983,60.85327,-2.5543213
1768999782733,-0.9238281,0.119140625,0.46875,0.12207031,3.8452148,2.9907227,0.0,0.0,0.0,21.307983,60.85327,-2.5543213
1768999782744,-0.9238281,0.119140625,0.46875,0.12207031,3.8452148,2.9907227,0.0,0.0,0.0,20.64331,60.60608,-2.3565674
1768999782832,-0.91796875,0.109375,0.4296875,-0.18310547,7.1411133,-5.9814453,0.0,0.0,0.0,20.64331,60.60608,-2.3565674
1768999782844,-0.91796875,0.109375,0.4296875,-0.18310547,7.1411133,-5.9814453,0.0,0.0,0.0,20.072021,60.968628,-1.9171143
1768999782932,-1.0244141,0.13623047,0.36523438,-5.79834,16.296387,-2.380371,0.0,0.0,0.0,20.072021,60.968628,-1.9171143
1768999782944,-1.0244141,0.13623047,0.36523438,-5.79834,16.296387,-2.380371,0.0,0.0,0.0,19.313965,62.38037,-2.4279785
1768999783032,-1.0117188,0.14746094,0.43408203,-22.949219,9.338379,9.94873,0.0,0.0,0.0,19.313965,62.38037,-2.4279785
1768999783044,-1.0117188,0.14746094,0.43408203,-22.949219,9.338379,9.94873,0.0,0.0,0.0,19.385376,63.720703,-0.7141113
1768999783132,-0.76464844,0.17578125,0.37060547,-2.9907227,13.61084,-1.7700195,0.0,0.0,0.0,19.385376,63.720703,-0.7141113
1768999783143,-0.76464844,0.17578125,0.37060547,-2.9907227,13.61084,-1.7700195,0.0,0.0,0.0,20.247803,64.63257,1.5325928
1768999783231,-0.76904297,0.15429688,0.45751953,16.174316,14.6484375,-13.916016,0.0,0.0,0.0,20.247803,64.63257,1.5325928
1768999783243,-0.76904297,0.15429688,0.45751953,16.174316,14.6484375,-13.916016,0.0,0.0,0.0,20.912476,66.64856,1.5380859
1768999783331,-0.859375,0.15771484,0.49072266,-28.869629,-31.677246,16.967773,0.0,0.0,0.0,20.912476,66.64856,1.5380859
1768999783342,-0.859375,0.15771484,0.49072266,-28.869629,-31.677246,16.967773,0.0,0.0,0.0,19.841309,64.96216,2.8179932
1768999783431,-0.8261719,0.22363281,0.4111328,-26.123047,-28.320312,20.568848,0.0,0.0,0.0,19.841309,64.96216,2.8179932
1768999783442,-0.8261719,0.22363281,0.4111328,-26.123047,-28.320312,20.568848,0.0,0.0,0.0,18.413086,60.479736,5.256958
1768999783531,-0.8574219,0.22509766,0.44726562,15.808105,15.197754,-5.92041,0.0,0.0,0.0,18.413086,60.479736,5.256958
1768999783542,-0.8574219,0.22509766,0.44726562,15.808105,15.197754,-5.92041,0.0,0.0,0.0,19.050293,60.298462,5.9381104
1768999783630,-0.8881836,0.21533203,0.46728516,-4.5166016,-6.7749023,5.1879883,0.0,0.0,0.0,19.050293,60.298462,5.9381104
1768999783642,-0.8881836,0.21533203,0.46728516,-4.5166016,-6.7749023,5.1879883,0.0,0.0,0.0,20.066528,60.941162,6.2402344
1768999783730,-0.8754883,0.2211914,0.41503906,-9.460449,-19.40918,6.164551,0.0,0.0,0.0,20.066528,60.941162,6.2402344
1768999783741,-0.8754883,0.2211914,0.41503906,-9.460449,-19.40918,6.164551,0.0,0.0,0.0,19.539185,58.85376,6.8719482
1768999783830,-0.8935547,0.1953125,0.39794922,-1.5258789,15.74707,2.9907227,0.0,0.0,0.0,19.539185,58.85376,6.8719482
1768999783841,-0.8935547,0.1953125,0.39794922,-1.5258789,15.74707,2.9907227,0.0,0.0,0.0,20.143433,58.936157,7.734375
1768999783929,-0.8886719,0.26464844,0.48291016,14.099121,26.245117,-6.4086914,0.0,0.0,0.0,20.143433,58.936157,7.734375
1768999783942,-0.8886719,0.26464844,0.48291016,14.099121,26.245117,-6.4086914,0.0,0.0,0.0,22.747192,61.419067,8.997803
1768999784029,-0.9267578,0.20458984,0.42626953,-10.803223,-6.652832,14.282227,0.0,0.0,0.0,22.747192,61.419067,8.997803
1768999784040,-0.9267578,0.20458984,0.42626953,-10.803223,-6.652832,14.282227,0.0,0.0,0.0,24.56543,61.869507,10.288696
1768999784129,-0.93896484,0.22070312,0.4326172,9.82666,1.5869141,9.399414,0.0,0.0,0.0,24.56543,61.869507,10.288696
1768999784140,-0.93896484,0.22070312,0.4326172,9.82666,1.5869141,9.399414,0.0,0.0,0.0,26.394653,60.682983,13.474731
1768999784229,-0.7714844,0.11279297,0.4243164,15.563965,11.535645,-0.8544922,0.0,0.0,0.0,26.394653,60.682983,13.474731
1768999784240,-0.7714844,0.11279297,0.4243164,15.563965,11.535645,-0.8544922,0.0,0.0,0.0,28.822632,61.270752,14.018555
1768999784328,-0.8808594,0.24169922,0.5288086,20.935059,-16.479492,-2.8686523,0.0,0.0,0.0,28.822632,61.270752,14.018555
1768999784340,-0.8808594,0.24169922,0.5288086,20.935059,-16.479492,-2.8686523,0.0,0.0,0.0,30.140991,61.82007,13.348389
1768999784428,-0.8046875,0.12158203,0.47314453,-10.559082,-36.499023,5.004883,0.0,0.0,0.0,30.140991,61.82007,13.348389
1768999784439,-0.8046875,0.12158203,0.47314453,-10.559082,-36.499023,5.004883,0.0,0.0,0.0,27.438354,58.37036,11.392822
1768999784528,-0.85253906,0.18457031,0.46777344,6.1035156,-2.5024414,-2.4414062,0.0,0.0,0.0,27.438354,58.37036,11.392822
1768999784539,-0.85253906,0.18457031,0.46777344,6.1035156,-2.5024414,-2.4414062,0.0,0.0,0.0,25.740967,56.711426,9.393311
1768999784627,-0.8911133,0.17041016,0.4946289,19.28711,12.451172,-19.89746,0.0,0.0,0.0,25.740967,56.711426,9.393311
1768999784639,-0.8911133,0.17041016,0.4946289,19.28711,12.451172,-19.89746,0.0,0.0,0.0,25.872803,58.381348,7.459717
1768999784727,-0.91259766,0.17382812,0.45507812,-16.357422,-8.361816,2.9907227,0.0,0.0,0.0,25.872803,58.381348,7.459717
1768999784739,-0.91259766,0.17382812,0.45507812,-16.357422,-8.361816,2.9907227,0.0,0.0,0.0,24.746704,58.45276,6.2841797
1768999784827,-0.95703125,0.2133789,0.43554688,-2.9907227,17.700195,-5.9814453,0.0,0.0,0.0,24.746704,58.45276,6.2841797
1768999784838,-0.95703125,0.2133789,0.43554688,-2.9907227,17.700195,-5.9814453,0.0,0.0,0.0,23.66455,59.13391,5.284424
1768999784926,-0.9350586,0.20898438,0.46875,21.1792,10.498047,-10.803223,0.0,0.0,0.0,23.66455,59.13391,5.284424
1768999784938,-0.9350586,0.20898438,0.46875,21.1792,10.498047,-10.803223,0.0,0.0,0.0,23.444824,62.045288,4.2297363
1768999785026,-0.84472656,0.10595703,0.3935547,-30.944824,-31.00586,13.73291,0.0,0.0,0.0,23.444824,62.045288,4.2297363
1768999785038,-0.84472656,0.10595703,0.3935547,-30.944824,-31.00586,13.73291,0.0,0.0,0.0,21.264038,59.55139,4.691162
1768999785126,-0.8310547,0.25195312,0.4897461,14.099121,12.512207,-17.27295,0.0,0.0,0.0,21.264038,59.55139,4.691162
1768999785137,-0.8310547,0.25195312,0.4897461,14.099121,12.512207,-17.27295,0.0,0.0,0.0,20.22583,59.414062,3.3728027
1768999785226,-0.80371094,0.19970703,0.53125,3.6010742,13.671875,-12.268066,0.0,0.0,0.0,20.22583,59.414062,3.3728027
1768999785238,-0.80371094,0.19970703,0.53125,3.6010742,13.671875,-12.268066,0.0,0.0,0.0,19.951172,61.16089,1.2579346
1768999785325,-0.7915039,0.25341797,0.4921875,-6.591797,-30.395508,-4.8828125,0.0,0.0,0.0,19.951172,61.16089,1.2579346
1768999785338,-0.7915039,0.25341797,0.4921875,-6.591797,-30.395508,-4.8828125,0.0,0.0,0.0,18.500977,60.320435,-1.170044
1768999785425,-0.8276367,0.17529297,0.4716797,-1.159668,-13.549805,-5.6152344,0.0,0.0,0.0,18.500977,60.320435,-1.170044
1768999785437,-0.8276367,0.17529297,0.4716797,-1.159668,-13.549805,-5.6152344,0.0,0.0,0.0,16.259766,57.524414,-2.4389648
1768999785525,-0.8901367,0.18652344,0.48779297,9.70459,5.6152344,-3.7231445,0.0,0.0,0.0,16.259766,57.524414,-2.4389648
1768999785536,-0.8901367,0.18652344,0.48779297,9.70459,5.6152344,-3.7231445,0.0,0.0,0.0,16.331177,57.722168,-3.8891602
1768999785625,-0.91503906,0.17138672,0.45947266,-6.8969727,-11.535645,2.6855469,0.0,0.0,0.0,16.331177,57.722168,-3.8891602
1768999785636,-0.91503906,0.17138672,0.45947266,-6.8969727,-11.535645,2.6855469,0.0,0.0,0.0,16.726685,57.38159,-4.2077637
1768999785724,-0.93603516,0.1484375,0.4321289,0.61035156,14.526367,-1.6479492,0.0,0.0,0.0,16.726685,57.38159,-4.2077637
1768999785736,-0.93603516,0.1484375,0.4321289,0.61035156,14.526367,-1.6479492,0.0,0.0,0.0,16.732178,57.436523,-4.5428467
1768999785824,-0.8652344,0.19580078,0.50634766,18.554688,35.52246,-9.58252,0.0,0.0,0.0,16.732178,57.436523,-4.5428467
1768999785835,-0.8652344,0.19580078,0.50634766,18.554688,35.52246,-9.58252,0.0,0.0,0.0,18.643799,59.957886,-4.4110107
1768999785924,-0.9165039,0.19384766,0.47460938,12.084961,-7.507324,6.713867,0.0,0.0,0.0,18.643799,59.957886,-4.4110107
1768999785935,-0.9165039,0.19384766,0.47460938,12.084961,-7.507324,6.713867,0.0,0.0,0.0,20.802612,62.407837,-5.3723145
1768999786023,-0.7734375,0.10205078,0.48339844,1.0986328,-27.893066,11.657715,0.0,0.0,0.0,20.802612,62.407837,-5.3723145
1768999786035,-0.7734375,0.10205078,0.48339844,1.0986328,-27.893066,11.657715,0.0,0.0,0.0,21.52771,59.265747,-2.9553223
1768999786123,-0.7944336,0.12939453,0.5209961,8.605957,-5.554199,0.24414062,0.0,0.0,0.0,21.52771,59.265747,-2.9553223
1768999786134,-0.7944336,0.12939453,0.5209961,8.605957,-5.554199,0.24414062,0.0,0.0,0.0,22.060547,57.683716,-3.817749
1768999786223,-0.8276367,0.1899414,0.546875,5.3100586,-14.221191,-4.272461,0.0,0.0,0.0,22.060547,57.683716,-3.817749
1768999786234,-0.8276367,0.1899414,0.546875,5.3100586,-14.221191,-4.272461,0.0,0.0,0.0,22.181396,57.041016,-5.1800537
1768999786322,-0.8222656,0.12890625,0.5151367,-3.540039,-5.9814453,-0.4272461,0.0,0.0,0.0,22.181396,57.041016,-5.1800537
1768999786334,-0.8222656,0.12890625,0.5151367,-3.540039,-5.9814453,-0.4272461,0.0,0.0,0.0,20.917969,55.821533,-6.5039062
1768999786422,-0.87939453,0.16357422,0.5234375,3.9672852,6.0424805,-11.535645,0.0,0.0,0.0,20.917969,55.821533,-6.5039062
1768999786434,-0.87939453,0.16357422,0.5234375,3.9672852,6.0424805,-11.535645,0.0,0.0,0.0,19.605103,56.211548,-8.349609
1768999786522,-0.90771484,0.14355469,0.4560547,-5.7373047,1.2207031,-4.272461,0.0,0.0,0.0,19.605103,56.211548,-8.349609
1768999786533,-0.90771484,0.14355469,0.4560547,-5.7373047,1.2207031,-4.272461,0.0,0.0,0.0,18.116455,56.887207,-10.250244
1768999786622,-0.9291992,0.11376953,0.43896484,1.7700195,22.033691,-13.366699,0.0,0.0,0.0,18.116455,56.887207,-10.250244
1768999786633,-0.9291992,0.11376953,0.43896484,1.7700195,22.033691,-13.366699,0.0,0.0,0.0,17.133179,58.10669,-10.859985
1768999786721,-0.9926758,0.16748047,0.5463867,6.0424805,20.812988,-3.4179688,0.0,0.0,0.0,17.133179,58.10669,-10.859985
1768999786733,-0.9926758,0.16748047,0.5463867,6.0424805,20.812988,-3.4179688,0.0,0.0,0.0,16.397095,61.001587,-12.079468
1768999786821,-0.8208008,0.12792969,0.4350586,-16.601562,-28.015137,0.79345703,0.0,0.0,0.0,16.397095,61.001587,-12.079468
1768999786832,-0.8208008,0.12792969,0.4350586,-16.601562,-28.015137,0.79345703,0.0,0.0,0.0,15.611572,60.41931,-12.821045
1768999786921,-0.7080078,0.1586914,0.54541016,6.286621,12.023926,-16.784668,0.0,0.0,0.0,15.611572,60.41931,-12.821045
1768999786932,-0.7080078,0.1586914,0.54541016,6.286621,12.023926,-16.784668,0.0,0.0,0.0,14.534912,59.15039,-13.584595
1768999787020,-0.75390625,0.1977539,0.5214844,19.348145,-2.746582,-12.023926,0.0,0.0,0.0,14.534912,59.15039,-13.584595
1768999787032,-0.75390625,0.1977539,0.5214844,19.348145,-2.746582,-12.023926,0.0,0.0,0.0,14.957886,60.57312,-16.30371
1768999787120,-0.8100586,0.0859375,0.46826172,-61.09619,-41.07666,36.315918,0.0,0.0,0.0,14.957886,60.57312,-16.30371
1768999787132,-0.8100586,0.0859375,0.46826172,-61.09619,-41.07666,36.315918,0.0,0.0,0.0,12.799072,56.94214,-14.853516
1768999787220,-0.8886719,0.23339844,0.5649414,65.55176,26.428223,-21.850586,0.0,0.0,0.0,12.799072,56.94214,-14.853516
1768999787231,-0.8886719,0.23339844,0.5649414,65.55176,26.428223,-21.850586,0.0,0.0,0.0,14.035034,57.387085,-13.535156
1768999787320,-0.89208984,0.11376953,0.44384766,-51.879883,-18.981934,22.399902,0.0,0.0,0.0,14.035034,57.387085,-13.535156
1768999787331,-0.89208984,0.11376953,0.44384766,-51.879883,-18.981934,22.399902,0.0,0.0,0.0,14.837036,57.35962,-13.40332
1768999787419,-0.8666992,0.20800781,0.48583984,32.836914,26.123047,1.0986328,0.0,0.0,0.0,14.837036,57.35962,-13.40332
1768999787431,-0.8666992,0.20800781,0.48583984,32.836914,26.123047,1.0986328,0.0,0.0,0.0,16.133423,58.375854,-11.195068
1768999787519,-0.89990234,0.08691406,0.43896484,-22.644043,-6.0424805,5.065918,0.0,0.0,0.0,16.133423,58.375854,-11.195068
1768999787531,-0.89990234,0.08691406,0.43896484,-22.644043,-6.0424805,5.065918,0.0,0.0,0.0,15.726929,58.359375,-10.964355
1768999787619,-0.7836914,0.22558594,0.49414062,11.779785,15.563965,1.5869141,0.0,0.0,0.0,15.726929,58.359375,-10.964355
1768999787630,-0.7836914,0.22558594,0.49414062,11.779785,15.563965,1.5869141,0.0,0.0,0.0,17.539673,60.15564,-10.112915
1768999787718,-0.92041016,0.1328125,0.4638672,10.437012,-5.92041,-1.2207031,0.0,0.0,0.0,17.539673,60.15564,-10.112915
1768999787730,-0.92041016,0.1328125,0.4638672,10.437012,-5.92041,-1.2207031,0.0,0.0,0.0,18.720703,60.924683,-8.97583
1768999787818,-0.8779297,0.23632812,0.5185547,-0.36621094,5.493164,20.751953,0.0,0.0,0.0,18.720703,60.924683,-8.97583
1768999787830,-0.8779297,0.23632812,0.5185547,-0.36621094,5.493164,20.751953,0.0,0.0,0.0,21.428833,60.85327,-5.163574
1768999787918,-0.7729492,0.118652344,0.40771484,-0.12207031,-12.817383,7.446289,0.0,0.0,0.0,21.428833,60.85327,-5.163574
1768999787930,-0.7729492,0.118652344,0.40771484,-0.12207031,-12.817383,7.446289,0.0,0.0,0.0,22.549438,59.79309,-4.5428467
1768999788017,-0.8647461,0.19580078,0.56396484,18.798828,-3.540039,7.446289,0.0,0.0,0.0,22.549438,59.79309,-4.5428467
1768999788029,-0.8647461,0.19580078,0.56396484,18.798828,-3.540039,7.446289,0.0,0.0,0.0,23.59314,59.024048,-3.515625
1768999788117,-0.7993164,0.18359375,0.49267578,-16.479492,-22.583008,14.038086,0.0,0.0,0.0,23.59314,59.024048,-3.515625
1768999788129,-0.7993164,0.18359375,0.49267578,-16.479492,-22.583008,14.038086,0.0,0.0,0.0,23.010864,56.722412,-3.6254883
1768999788217,-0.82470703,0.17333984,0.50634766,11.535645,0.0,-6.5307617,0.0,0.0,0.0,23.010864,56.722412,-3.6254883
1768999788228,-0.82470703,0.17333984,0.50634766,11.535645,0.0,-6.5307617,0.0,0.0,0.0,22.560425,55.898438,-4.2352295
1768999788317,-0.86865234,0.18359375,0.51464844,3.540039,-0.91552734,-10.253906,0.0,0.0,0.0,22.560425,55.898438,-4.2352295
1768999788328,-0.86865234,0.18359375,0.51464844,3.540039,-0.91552734,-10.253906,0.0,0.0,0.0,21.846313,56.376343,-6.196289
1768999788416,-0.8833008,0.20458984,0.48583984,-5.493164,1.0986328,-1.0986328,0.0,0.0,0.0,21.846313,56.376343,-6.196289
1768999788428,-0.8833008,0.20458984,0.48583984,-5.493164,1.0986328,-1.0986328,0.0,0.0,0.0,20.961914,56.640015,-7.124634
1768999788516,-0.91503906,0.15332031,0.4663086,-5.1879883,12.756348,-3.8452148,0.0,0.0,0.0,20.961914,56.640015,-7.124634
1768999788527,-0.91503906,0.15332031,0.4663086,-5.1879883,12.756348,-3.8452148,0.0,0.0,0.0,20.45105,57.31018,-7.3883057
1768999788616,-0.91552734,0.20507812,0.52001953,2.2583008,8.483887,-4.9438477,0.0,0.0,0.0,20.45105,57.31018,-7.3883057
1768999788627,-0.91552734,0.20507812,0.52001953,2.2583008,8.483887,-4.9438477,0.0,0.0,0.0,20.039062,59.18335,-8.31665
1768999788715,-0.93603516,0.10595703,0.48291016,-11.779785,-2.1972656,-2.319336,0.0,0.0,0.0,20.039062,59.18335,-8.31665
1768999788727,-0.93603516,0.10595703,0.48291016,-11.779785,-2.1972656,-2.319336,0.0,0.0,0.0,18.083496,58.73291,-9.014282
1768999788815,-0.8095703,0.19921875,0.48632812,-3.4179688,-3.7841797,-2.4414062,0.0,0.0,0.0,18.083496,58.73291,-9.014282
1768999788827,-0.8095703,0.19921875,0.48632812,-3.4179688,-3.7841797,-2.4414062,0.0,0.0,0.0,17.539673,59.0625,-9.783325
1768999788915,-0.7080078,0.16845703,0.49365234,1.4648438,-2.0141602,-6.1035156,0.0,0.0,0.0,17.539673,59.0625,-9.783325
1768999788926,-0.7080078,0.16845703,0.49365234,1.4648438,-2.0141602,-6.1035156,0.0,0.0,0.0,16.803589,58.694458,-10.552368
1768999789015,-0.8378906,0.19921875,0.56396484,18.432617,-5.065918,-12.390137,0.0,0.0,0.0,16.803589,58.694458,-10.552368
1768999789026,-0.8378906,0.19921875,0.56396484,18.432617,-5.065918,-12.390137,0.0,0.0,0.0,16.14441,59.02954,-12.595825
1768999789114,-0.8027344,0.16552734,0.52734375,-22.399902,-24.169922,11.59668,0.0,0.0,0.0,16.14441,59.02954,-12.595825
1768999789126,-0.8027344,0.16552734,0.52734375,-22.399902,-24.169922,11.59668,0.0,0.0,0.0,15.018311,56.99707,-12.821045
1768999789214,-0.8198242,0.1665039,0.47265625,-7.6293945,-8.605957,4.699707,0.0,0.0,0.0,15.018311,56.99707,-12.821045
1768999789226,-0.8198242,0.1665039,0.47265625,-7.6293945,-8.605957,4.699707,0.0,0.0,0.0,14.512939,54.799805,-11.749878
1768999789314,-0.9013672,0.16015625,0.5385742,8.7890625,12.756348,-1.8920898,0.0,0.0,0.0,14.512939,54.799805,-11.749878
1768999789325,-0.9013672,0.16015625,0.5385742,8.7890625,12.756348,-1.8920898,0.0,0.0,0.0,15.562134,55.914917,-11.782837
1768999789413,-0.8925781,0.13378906,0.43310547,-13.000488,-2.380371,3.8452148,0.0,0.0,0.0,15.562134,55.914917,-11.782837
1768999789425,-0.8925781,0.13378906,0.43310547,-13.000488,-2.380371,3.8452148,0.0,0.0,0.0,15.952148,55.88745,-11.348877
1768999789513,-0.8779297,0.18115234,0.515625,11.352539,30.578613,-5.7373047,0.0,0.0,0.0,15.952148,55.88745,-11.348877
1768999789525,-0.8779297,0.18115234,0.515625,11.352539,30.578613,-5.7373047,0.0,0.0,0.0,16.831055,58.458252,-11.947632
1768999789613,-0.8496094,0.19238281,0.5761719,5.92041,7.019043,-4.211426,0.0,0.0,0.0,16.831055,58.458252,-11.947632
1768999789625,-0.8496094,0.19238281,0.5761719,5.92041,7.019043,-4.211426,0.0,0.0,0.0,18.17688,59.91394,-11.239014
1768999789713,-0.9453125,0.14160156,0.36816406,-17.456055,-2.6855469,14.892578,0.0,0.0,0.0,18.17688,59.91394,-11.239014
1768999789724,-0.9453125,0.14160156,0.36816406,-17.456055,-2.6855469,14.892578,0.0,0.0,0.0,18.248291,59.3042,-10.689697
1768999789812,-0.8823242,0.17089844,0.5253906,7.873535,11.71875,-0.12207031,0.0,0.0,0.0,18.248291,59.3042,-10.689697
1768999789824,-0.8823242,0.17089844,0.5253906,7.873535,11.71875,-0.12207031,0.0,0.0,0.0,20.12146,60.199585,-8.486938
1768999789912,-0.83496094,0.13183594,0.44335938,-11.169434,-18.188477,14.343262,0.0,0.0,0.0,20.12146,60.199585,-8.486938
1768999789924,-0.83496094,0.13183594,0.44335938,-11.169434,-18.188477,14.343262,0.0,0.0,0.0,20.64331,59.485474,-7.871704
1768999790012,-0.7675781,0.11279297,0.51464844,9.338379,2.5024414,-3.3569336,0.0,0.0,0.0,20.64331,59.485474,-7.871704
1768999790023,-0.7675781,0.11279297,0.51464844,9.338379,2.5024414,-3.3569336,0.0,0.0,0.0,20.835571,58.167114,-7.1905518
1768999790111,-0.8774414,0.2055664,0.54296875,11.108398,-14.343262,-0.48828125,0.0,0.0,0.0,20.835571,58.167114,-7.1905518
1768999790123,-0.8774414,0.2055664,0.54296875,11.108398,-14.343262,-0.48828125,0.0,0.0,0.0,21.472778,58.485718,-8.415527
1768999790211,-0.80566406,0.111328125,0.50439453,-20.385742,-19.89746,11.962891,0.0,0.0,0.0,21.472778,58.485718,-8.415527
1768999790223,-0.80566406,0.111328125,0.50439453,-20.385742,-19.89746,11.962891,0.0,0.0,0.0,19.863281,55.612793,-8.377075
1768999790311,-0.85058594,0.1665039,0.51904297,14.831543,6.591797,-15.563965,0.0,0.0,0.0,19.863281,55.612793,-8.377075
1768999790322,-0.85058594,0.1665039,0.51904297,14.831543,6.591797,-15.563965,0.0,0.0,0.0,19.385376,55.65674,-9.8602295
1768999790411,-0.8598633,0.16894531,0.5229492,-3.7841797,1.7700195,-3.479004,0.0,0.0,0.0,19.385376,55.65674,-9.8602295
1768999790422,-0.8598633,0.16894531,0.5229492,-3.7841797,1.7700195,-3.479004,0.0,0.0,0.0,18.660278,56.44226,-11.541138
1768999790510,-0.90185547,0.17382812,0.4765625,-11.352539,0.8544922,3.2958984,0.0,0.0,0.0,18.660278,56.44226,-11.541138
1768999790522,-0.90185547,0.17382812,0.4765625,-11.352539,0.8544922,3.2958984,0.0,0.0,0.0,17.918701,56.585083,-11.546631
1768999790610,-0.92089844,0.111816406,0.48046875,-3.479004,16.601562,-4.1503906,0.0,0.0,0.0,17.918701,56.585083,-11.546631
1768999790621,-0.92089844,0.111816406,0.48046875,-3.479004,16.601562,-4.1503906,0.0,0.0,0.0,17.578125,57.27722,-11.239014
1768999790710,-0.8461914,0.19433594,0.51953125,2.319336,10.925293,-1.6479492,0.0,0.0,0.0,17.578125,57.27722,-11.239014
1768999790721,-0.8461914,0.19433594,0.51953125,2.319336,10.925293,-1.6479492,0.0,0.0,0.0,17.825317,59.40857,-10.887451
1768999790809,-0.82470703,0.13183594,0.47460938,-3.90625,-19.89746,-1.0375977,0.0,0.0,0.0,17.825317,59.40857,-10.887451
1768999790821,-0.82470703,0.13183594,0.47460938,-3.90625,-19.89746,-1.0375977,0.0,0.0,0.0,16.605835,59.00757,-11.980591
1768999790909,-0.7871094,0.13964844,0.49072266,7.8125,-0.18310547,-13.61084,0.0,0.0,0.0,16.605835,59.00757,-11.980591
1768999790921,-0.7871094,0.13964844,0.49072266,7.8125,-0.18310547,-13.61084,0.0,0.0,0.0,14.815063,57.81006,-13.101196
1768999791009,-0.8305664,0.19189453,0.5361328,-0.061035156,-3.540039,-6.8969727,0.0,0.0,0.0,14.815063,57.81006,-13.101196
1768999791020,-0.8305664,0.19189453,0.5361328,-0.061035156,-3.540039,-6.8969727,0.0,0.0,0.0,14.144897,58.28247,-14.7052
1768999791108,-0.84472656,0.1665039,0.4790039,-11.169434,-13.000488,5.004883,0.0,0.0,0.0,14.144897,58.28247,-14.7052
1768999791120,-0.84472656,0.1665039,0.4790039,-11.169434,-13.000488,5.004883,0.0,0.0,0.0,13.348389,57.420044,-15.358887
1768999791208,-0.84277344,0.13476562,0.5024414,5.493164,17.028809,-6.4697266,0.0,0.0,0.0,13.348389,57.420044,-15.358887
1768999791220,-0.84277344,0.13476562,0.5024414,5.493164,17.028809,-6.4697266,0.0,0.0,0.0,13.062744,57.31018,-14.886475
1768999791308,-0.88671875,0.19091797,0.5161133,-4.0893555,10.009766,3.479004,0.0,0.0,0.0,13.062744,57.31018,-14.886475
1768999791319,-0.88671875,0.19091797,0.5161133,-4.0893555,10.009766,3.479004,0.0,0.0,0.0,13.776855,59.210815,-14.727173
1768999791408,-0.9145508,0.11621094,0.4111328,-12.512207,1.2817383,9.82666,0.0,0.0,0.0,13.776855,59.210815,-14.727173
1768999791419,-0.9145508,0.11621094,0.4111328,-12.512207,1.2817383,9.82666,0.0,0.0,0.0,14.47998,59.227295,-12.6397705
1768999791507,-0.9633789,0.18652344,0.42285156,12.634277,45.959473,1.0375977,0.0,0.0,0.0,14.47998,59.227295,-12.6397705
1768999791519,-0.9633789,0.18652344,0.42285156,12.634277,45.959473,1.0375977,0.0,0.0,0.0,16.44104,61.913452,-10.568848
1768999791607,-0.92529297,0.20996094,0.50390625,-5.9814453,8.300781,15.74707,0.0,0.0,0.0,16.44104,61.913452,-10.568848
1768999791619,-0.92529297,0.20996094,0.50390625,-5.9814453,8.300781,15.74707,0.0,0.0,0.0,20.126953,64.193115,-6.2786865
1768999791707,-0.9194336,0.1484375,0.42089844,12.634277,20.568848,7.2021484,0.0,0.0,0.0,20.126953,64.193115,-6.2786865
1768999791719,-0.9194336,0.1484375,0.42089844,12.634277,20.568848,7.2021484,0.0,0.0,0.0,22.521973,64.49524,-2.6037598
1768999791806,-0.71191406,0.11279297,0.4555664,-0.12207031,-10.864258,6.8359375,0.0,0.0,0.0,22.521973,64.49524,-2.6037598
1768999791818,-0.71191406,0.11279297,0.4555664,-0.12207031,-10.864258,6.8359375,0.0,0.0,0.0,24.274292,64.193115,-0.1373291
1768999791906,-0.8803711,0.1616211,0.546875,8.972168,-13.305664,5.065918,0.0,0.0,0.0,24.274292,64.193115,-0.1373291
1768999791918,-0.8803711,0.1616211,0.546875,8.972168,-13.305664,5.065918,0.0,0.0,0.0,24.21936,62.825317,0.5053711
1768999792006,-0.8798828,0.1274414,0.39208984,-6.286621,-12.6953125,1.0986328,0.0,0.0,0.0,24.21936,62.825317,0.5053711
1768999792018,-0.8798828,0.1274414,0.39208984,-6.286621,-12.6953125,1.0986328,0.0,0.0,0.0,23.027344,60.39734,0.25268555
1768999792106,-0.8623047,0.1538086,0.5,6.0424805,-7.019043,-8.7890625,0.0,0.0,0.0,23.027344,60.39734,0.25268555
1768999792117,-0.8623047,0.1538086,0.5,6.0424805,-7.019043,-8.7890625,0.0,0.0,0.0,22.214355,60.402832,-1.9335938
1768999792205,-0.8847656,0.18066406,0.4658203,3.7841797,-15.808105,-6.652832,0.0,0.0,0.0,22.214355,60.402832,-1.9335938
1768999792217,-0.8847656,0.18066406,0.4658203,3.7841797,-15.808105,-6.652832,0.0,0.0,0.0,20.489502,59.3042,-4.086914
1768999792305,-0.90283203,0.14208984,0.4716797,3.7841797,0.9765625,-7.9345703,0.0,0.0,0.0,20.489502,59.3042,-4.086914
1768999792317,-0.90283203,0.14208984,0.4716797,3.7841797,0.9765625,-7.9345703,0.0,0.0,0.0,19.506226,58.76587,-4.888916
1768999792405,-0.92871094,0.13330078,0.328125,-9.70459,-2.1972656,-0.36621094,0.0,0.0,0.0,19.506226,58.76587,-4.888916
1768999792416,-0.92871094,0.13330078,0.328125,-9.70459,-2.1972656,-0.36621094,0.0,0.0,0.0,18.517456,59.3042,-6.9488525
1768999792505,-0.86083984,0.114746094,0.45654297,1.5258789,15.991211,-10.009766,0.0,0.0,0.0,18.517456,59.3042,-6.9488525
1768999792516,-0.86083984,0.114746094,0.45654297,1.5258789,15.991211,-10.009766,0.0,0.0,0.0,18.14392,60.64453,-6.6796875
1768999792604,-0.88916016,0.17480469,0.47216797,-17.700195,4.638672,6.8359375,0.0,0.0,0.0,18.14392,60.64453,-6.6796875
1768999792616,-0.88916016,0.17480469,0.47216797,-17.700195,4.638672,6.8359375,0.0,0.0,0.0,17.874756,62.10022,-5.9490967
1768999792704,-0.9692383,0.111328125,0.43652344,-2.8076172,12.939453,-3.8452148,0.0,0.0,0.0,17.874756,62.10022,-5.9490967
1768999792715,-0.9692383,0.111328125,0.43652344,-2.8076172,12.939453,-3.8452148,0.0,0.0,0.0,16.880493,62.42981,-5.1361084
1768999792804,-0.87060547,0.19140625,0.45751953,-0.6713867,-8.361816,-2.8076172,0.0,0.0,0.0,16.880493,62.42981,-5.1361084
1768999792815,-0.87060547,0.19140625,0.45751953,-0.6713867,-8.361816,-2.8076172,0.0,0.0,0.0,16.715698,63.0011,-5.427246
1768999792903,-0.76904297,0.111328125,0.46240234,1.8920898,-16.662598,-8.300781,0.0,0.0,0.0,16.715698,63.0011,-5.427246
1768999792915,-0.76904297,0.111328125,0.46240234,1.8920898,-16.662598,-8.300781,0.0,0.0,0.0,15.03479,61.358643,-7.058716
1768999793003,-0.80029297,0.16357422,0.5341797,8.300781,1.953125,-9.765625,0.0,0.0,0.0,15.03479,61.358643,-7.058716
1768999793014,-0.80029297,0.16357422,0.5341797,8.300781,1.953125,-9.765625,0.0,0.0,0.0,13.903198,60.913696,-8.882446
1768999793103,-0.79589844,0.12695312,0.53222656,-3.112793,-14.6484375,-0.9765625,0.0,0.0,0.0,13.903198,60.913696,-8.882446
1768999793115,-0.79589844,0.12695312,0.53222656,-3.112793,-14.6484375,-0.9765625,0.0,0.0,0.0,13.688965,60.1062,-9.354858
1768999793202,-0.83203125,0.16894531,0.50146484,-12.329102,-18.371582,5.432129,0.0,0.0,0.0,13.688965,60.1062,-9.354858
1768999793214,-0.83203125,0.16894531,0.50146484,-12.329102,-18.371582,5.432129,0.0,0.0,0.0,13.178101,58.062744,-9.481201
1768999793302,-0.8803711,0.1640625,0.48632812,3.3569336,-8.361816,4.0893555,0.0,0.0,0.0,13.178101,58.062744,-9.481201
1768999793314,-0.8803711,0.1640625,0.48632812,3.3569336,-8.361816,4.0893555,0.0,0.0,0.0,13.590088,56.87622,-8.937378
1768999793402,-0.9423828,0.091796875,0.40625,-7.751465,-4.638672,1.4648438,0.0,0.0,0.0,13.590088,56.87622,-8.937378
1768999793413,-0.9423828,0.091796875,0.40625,-7.751465,-4.638672,1.4648438,0.0,0.0,0.0,13.85376,55.97534,-8.585815
1768999793502,-0.88378906,0.13427734,0.49121094,4.8828125,29.174805,-5.1879883,0.0,0.0,0.0,13.85376,55.97534,-8.585815
1768999793513,-0.88378906,0.13427734,0.49121094,4.8828125,29.174805,-5.1879883,0.0,0.0,0.0,14.82605,58.26599,-8.849487
1768999793601,-0.8129883,0.18261719,0.48388672,7.8125,9.094238,-4.8217773,0.0,0.0,0.0,14.82605,58.26599,-8.849487
1768999793613,-0.8129883,0.18261719,0.48388672,7.8125,9.094238,-4.8217773,0.0,0.0,0.0,15.825806,60.31494,-9.865723
1768999793701,-0.9614258,0.13623047,0.48828125,-2.8686523,-11.962891,7.9956055,0.0,0.0,0.0,15.825806,60.31494,-9.865723
1768999793713,-0.9614258,0.13623047,0.48828125,-2.8686523,-11.962891,7.9956055,0.0,0.0,0.0,16.14441,60.507202,-9.926147
1768999793801,-0.9355469,0.1328125,0.4868164,-7.9956055,-6.4086914,15.808105,0.0,0.0,0.0,16.14441,60.507202,-9.926147
1768999793812,-0.9355469,0.1328125,0.4868164,-7.9956055,-6.4086914,15.808105,0.0,0.0,0.0,17.050781,58.425293,-6.454468
1768999793900,-0.75097656,0.095214844,0.4506836,7.6293945,15.869141,0.79345703,0.0,0.0,0.0,17.050781,58.425293,-6.454468
1768999793912,-0.75097656,0.095214844,0.4506836,7.6293945,15.869141,0.79345703,0.0,0.0,0.0,18.85254,59.084473,-6.1468506
1768999794000,-0.74121094,0.118652344,0.5517578,21.30127,15.930176,-5.1879883,0.0,0.0,0.0,18.85254,59.084473,-6.1468506
1768999794012,-0.74121094,0.118652344,0.5517578,21.30127,15.930176,-5.1879883,0.0,0.0,0.0,20.824585,60.875244,-5.026245
1768999794100,-0.82128906,0.17675781,0.55810547,-15.014648,-29.052734,9.033203,0.0,0.0,0.0,20.824585,60.875244,-5.026245
1768999794112,-0.82128906,0.17675781,0.55810547,-15.014648,-29.052734,9.033203,0.0,0.0,0.0,21.340942,60.36438,-4.8449707
1768999794200,-0.8364258,0.11035156,0.45458984,-32.77588,-38.879395,16.540527,0.0,0.0,0.0,21.340942,60.36438,-4.8449707
1768999794211,-0.8364258,0.11035156,0.45458984,-32.77588,-38.879395,16.540527,0.0,0.0,0.0,18.325195,55.67871,-4.592285
1768999794299,-0.8828125,0.15185547,0.5073242,23.925781,22.338867,-21.362305,0.0,0.0,0.0,18.325195,55.67871,-4.592285
1768999794311,-0.8828125,0.15185547,0.5073242,23.925781,22.338867,-21.362305,0.0,0.0,0.0,17.660522,55.376587,-5.8502197
1768999794399,-0.8925781,0.1640625,0.47558594,-10.437012,-0.61035156,2.380371,0.0,0.0,0.0,17.660522,55.376587,-5.8502197
1768999794411,-0.8925781,0.1640625,0.47558594,-10.437012,-0.61035156,2.380371,0.0,0.0,0.0,17.567139,57.41455,-8.21228
1768999794499,-0.9057617,0.12548828,0.46484375,-2.8076172,4.333496,-4.5166016,0.0,0.0,0.0,17.567139,57.41455,-8.21228
1768999794511,-0.9057617,0.12548828,0.46484375,-2.8076172,4.333496,-4.5166016,0.0,0.0,0.0,16.550903,57.288208,-7.5091553
1768999794598,-0.9091797,0.049804688,0.48291016,-15.197754,18.432617,-6.713867,0.0,0.0,0.0,16.550903,57.288208,-7.5091553
1768999794610,-0.9091797,0.049804688,0.48291016,-15.197754,18.432617,-6.713867,0.0,0.0,0.0,15.424805,58.78235,-8.4539795
1768999794698,-0.8833008,0.23291016,0.49902344,-6.225586,-8.361816,-0.61035156,0.0,0.0,0.0,15.424805,58.78235,-8.4539795
1768999794710,-0.8833008,0.23291016,0.49902344,-6.225586,-8.361816,-0.61035156,0.0,0.0,0.0,15.040283,60.46875,-9.168091
1768999794798,-0.734375,0.1303711,0.5029297,0.24414062,-6.591797,-4.5166016,0.0,0.0,0.0,15.040283,60.46875,-9.168091
1768999794809,-0.734375,0.1303711,0.5029297,0.24414062,-6.591797,-4.5166016,0.0,0.0,0.0,13.601074,59.073486,-8.85498
1768999794898,-0.796875,0.1694336,0.5834961,20.629883,14.831543,-20.690918,0.0,0.0,0.0,13.601074,59.073486,-8.85498
1768999794909,-0.796875,0.1694336,0.5834961,20.629883,14.831543,-20.690918,0.0,0.0,0.0,12.711182,59.63379,-11.629028
1768999794997,-0.7910156,0.18359375,0.578125,0.4272461,-21.972656,-5.3100586,0.0,0.0,0.0,12.711182,59.63379,-11.629028
1768999795009,-0.7910156,0.18359375,0.578125,0.4272461,-21.972656,-5.3100586,0.0,0.0,0.0,12.277222,59.727173,-13.546143
1768999795097,-0.8251953,0.122558594,0.5439453,-20.751953,-23.254395,12.756348,0.0,0.0,0.0,12.277222,59.727173,-13.546143
1768999795109,-0.8251953,0.122558594,0.5439453,-20.751953,-23.254395,12.756348,0.0,0.0,0.0,10.783081,56.749878,-13.21106
1768999795197,-0.8925781,0.15185547,0.5253906,0.36621094,1.953125,6.0424805,0.0,0.0,0.0,10.783081,56.749878,-13.21106
1768999795208,-0.8925781,0.15185547,0.5253906,0.36621094,1.953125,6.0424805,0.0,0.0,0.0,10.733643,54.91516,-12.255249
1768999795297,-0.8691406,0.13720703,0.4921875,8.544922,-2.4414062,-3.7231445,0.0,0.0,0.0,10.733643,54.91516,-12.255249
1768999795308,-0.8691406,0.13720703,0.4921875,8.544922,-2.4414062,-3.7231445,0.0,0.0,0.0,12.156372,55.618286,-12.211304
1768999795396,-0.89404297,0.11328125,0.44580078,-13.549805,-4.4555664,7.5683594,0.0,0.0,0.0,12.156372,55.618286,-12.211304
1768999795408,-0.89404297,0.11328125,0.44580078,-13.549805,-4.4555664,7.5683594,0.0,0.0,0.0,12.167358,54.975586,-12.156372
1768999795496,-0.8808594,0.1665039,0.49121094,16.723633,22.338867,0.30517578,0.0,0.0,0.0,12.167358,54.975586,-12.156372
1768999795508,-0.8808594,0.1665039,0.49121094,16.723633,22.338867,0.30517578,0.0,0.0,0.0,13.656006,56.255493,-10.706177
1768999795596,-0.92333984,0.14697266,0.53564453,23.132324,29.296875,-6.0424805,0.0,0.0,0.0,13.656006,56.255493,-10.706177
1768999795607,-0.92333984,0.14697266,0.53564453,23.132324,29.296875,-6.0424805,0.0,0.0,0.0,16.166382,59.589844,-10.469971
1768999795695,-0.82373047,0.099609375,0.49609375,-19.470215,-4.333496,26.306152,0.0,0.0,0.0,16.166382,59.589844,-10.469971
1768999795707,-0.82373047,0.099609375,0.49609375,-19.470215,-4.333496,26.306152,0.0,0.0,0.0,18.841553,60.13916,-7.025757
1768999795795,-0.73535156,0.1303711,0.4711914,10.803223,-2.6245117,4.638672,0.0,0.0,0.0,18.841553,60.13916,-7.025757
1768999795807,-0.73535156,0.1303711,0.4711914,10.803223,-2.6245117,4.638672,0.0,0.0,0.0,20.473022,59.0625,-5.0317383
1768999795895,-0.8359375,0.16552734,0.55371094,4.699707,3.112793,12.634277,0.0,0.0,0.0,20.473022,59.0625,-5.0317383
1768999795906,-0.8359375,0.16552734,0.55371094,4.699707,3.112793,12.634277,0.0,0.0,0.0,21.763916,58.8208,-3.9770508
1768999795999,-0.80029297,0.15625,0.5449219,10.070801,-1.7700195,-5.1879883,0.0,0.0,0.0,21.763916,58.8208,-3.9770508
1768999796006,-0.80029297,0.15625,0.5449219,10.070801,-1.7700195,-5.1879883,0.0,0.0,0.0,22.2583,58.502197,-3.9715576
1768999796094,-0.8466797,0.14941406,0.5229492,-12.451172,-19.592285,5.6762695,0.0,0.0,0.0,22.2583,58.502197,-3.9715576
1768999796106,-0.8466797,0.14941406,0.5229492,-12.451172,-19.592285,5.6762695,0.0,0.0,0.0,21.23108,57.090454,-4.5977783
1768999796194,-0.875,0.18066406,0.47558594,3.6010742,-4.1503906,-5.3710938,0.0,0.0,0.0,21.23108,57.090454,-4.5977783
1768999796206,-0.875,0.18066406,0.47558594,3.6010742,-4.1503906,-5.3710938,0.0,0.0,0.0,19.863281,55.925903,-5.9436035
1768999796294,-0.91552734,0.13720703,0.46679688,3.6010742,8.544922,-5.79834,0.0,0.0,0.0,19.863281,55.925903,-5.9436035
1768999796305,-0.91552734,0.13720703,0.46679688,3.6010742,8.544922,-5.79834,0.0,0.0,0.0,19.588623,56.826782,-6.965332
1768999796393,-0.95751953,0.1274414,0.43798828,-11.901855,5.432129,0.12207031,0.0,0.0,0.0,19.588623,56.826782,-6.965332
1768999796405,-0.95751953,0.1274414,0.43798828,-11.901855,5.432129,0.12207031,0.0,0.0,0.0,19.02832,57.590332,-7.03125
1768999796493,-0.97265625,0.1640625,0.52001953,3.6621094,29.724121,-6.591797,0.0,0.0,0.0,19.02832,57.590332,-7.03125
1768999796504,-0.97265625,0.1640625,0.52001953,3.6621094,29.724121,-6.591797,0.0,0.0,0.0,18.528442,59.72168,-7.2180176
1768999796593,-0.89990234,0.15625,0.4790039,-7.6293945,-13.793945,-2.5024414,0.0,0.0,0.0,18.528442,59.72168,-7.2180176
1768999796604,-0.89990234,0.15625,0.4790039,-7.6293945,-13.793945,-2.5024414,0.0,0.0,0.0,17.265015,60.60608,-8.7561035
1768999796693,-0.71533203,0.1484375,0.4970703,8.178711,-3.0517578,-16.418457,0.0,0.0,0.0,17.265015,60.60608,-8.7561035
1768999796704,-0.71533203,0.1484375,0.4970703,8.178711,-3.0517578,-16.418457,0.0,0.0,0.0,15.463257,59.414062,-10.184326
1768999796792,-0.8129883,0.16845703,0.5834961,26.306152,10.803223,-20.812988,0.0,0.0,0.0,15.463257,59.414062,-10.184326
1768999796804,-0.8129883,0.16845703,0.5834961,26.306152,10.803223,-20.812988,0.0,0.0,0.0,14.677734,60.688477,-13.606567
1768999796892,-0.7729492,0.1484375,0.55566406,-17.8833,-21.54541,1.5258789,0.0,0.0,0.0,14.677734,60.688477,-13.606567
1768999796903,-0.7729492,0.1484375,0.55566406,-17.8833,-21.54541,1.5258789,0.0,0.0,0.0,13.397827,59.49646,-14.957886
1768999796992,-0.82666016,0.18798828,0.51123047,-22.033691,-27.70996,13.793945,0.0,0.0,0.0,13.397827,59.49646,-14.957886
1768999797003,-0.82666016,0.18798828,0.51123047,-22.033691,-27.70996,13.793945,0.0,0.0,0.0,12.485962,56.62903,-13.859253
1768999797091,-0.9135742,0.14550781,0.46875,7.019043,2.8076172,-2.6245117,0.0,0.0,0.0,12.485962,56.62903,-13.859253
1768999797103,-0.9135742,0.14550781,0.46875,7.019043,2.8076172,-2.6245117,0.0,0.0,0.0,12.34314,55.046997,-13.21106
1768999797191,-0.87939453,0.12597656,0.45898438,2.9907227,7.751465,-3.90625,0.0,0.0,0.0,12.34314,55.046997,-13.21106
1768999797202,-0.87939453,0.12597656,0.45898438,2.9907227,7.751465,-3.90625,0.0,0.0,0.0,12.859497,56.167603,-14.128418
1768999797291,-0.9375,0.14941406,0.43310547,1.6479492,14.160156,-3.7841797,0.0,0.0,0.0,12.859497,56.167603,-14.128418
1768999797302,-0.9375,0.14941406,0.43310547,1.6479492,14.160156,-3.7841797,0.0,0.0,0.0,13.408813,57.43103,-14.18335
1768999797391,-0.90234375,0.18408203,0.5366211,1.0375977,23.498535,0.91552734,0.0,0.0,0.0,13.408813,57.43103,-14.18335
1768999797402,-0.90234375,0.18408203,0.5366211,1.0375977,23.498535,0.91552734,0.0,0.0,0.0,14.650269,59.65576,-13.3428955
1768999797490,-1.003418,0.13574219,0.47070312,-0.9765625,7.080078,12.756348,0.0,0.0,0.0,14.650269,59.65576,-13.3428955
1768999797502,-1.003418,0.13574219,0.47070312,-0.9765625,7.080078,12.756348,0.0,0.0,0.0,16.468506,61.04004,-12.23877
1768999797590,-0.7480469,0.09667969,0.4741211,12.390137,5.126953,8.361816,0.0,0.0,0.0,16.468506,61.04004,-12.23877
1768999797602,-0.7480469,0.09667969,0.4741211,12.390137,5.126953,8.361816,0.0,0.0,0.0,19.385376,60.9906,-8.442993
1768999797690,-0.78515625,0.095703125,0.5307617,1.3427734,9.094238,9.887695,0.0,0.0,0.0,19.385376,60.9906,-8.442993
1768999797701,-0.78515625,0.095703125,0.5307617,1.3427734,9.094238,9.887695,0.0,0.0,0.0,21.681519,61.35315,-6.5478516
1768999797789,-0.77197266,0.20263672,0.5209961,-14.6484375,-21.057129,13.61084,0.0,0.0,0.0,21.681519,61.35315,-6.5478516
1768999797801,-0.77197266,0.20263672,0.5209961,-14.6484375,-21.057129,13.61084,0.0,0.0,0.0,22.857056,59.831543,-4.6362305
1768999797889,-0.8496094,0.09423828,0.49853516,-11.779785,-21.1792,6.652832,0.0,0.0,0.0,22.857056,59.831543,-4.6362305
1768999797901,-0.8496094,0.09423828,0.49853516,-11.779785,-21.1792,6.652832,0.0,0.0,0.0,21.538696,57.041016,-3.6639404
1768999797989,-0.8823242,0.18652344,0.47998047,6.713867,8.422852,-4.333496,0.0,0.0,0.0,21.538696,57.041016,-3.6639404
1768999798000,-0.8823242,0.18652344,0.47998047,6.713867,8.422852,-4.333496,0.0,0.0,0.0,20.835571,56.453247,-4.356079
1768999798089,-0.90185547,0.1381836,0.4345703,-2.2583008,5.79834,-2.746582,0.0,0.0,0.0,20.835571,56.453247,-4.356079
1768999798100,-0.90185547,0.1381836,0.4345703,-2.2583008,5.79834,-2.746582,0.0,0.0,0.0,20.950928,57.63977,-5.1800537
1768999798189,-0.9707031,0.15820312,0.36328125,-3.479004,22.216797,0.4272461,0.0,0.0,0.0,20.950928,57.63977,-5.1800537
1768999798200,-0.9707031,0.15820312,0.36328125,-3.479004,22.216797,0.4272461,0.0,0.0,0.0,20.917969,58.826294,-4.487915
1768999798288,-0.9428711,0.15673828,0.5102539,-2.6855469,18.981934,-8.605957,0.0,0.0,0.0,20.917969,58.826294,-4.487915
1768999798299,-0.9428711,0.15673828,0.5102539,-2.6855469,18.981934,-8.605957,0.0,0.0,0.0,21.00586,61.583862,-4.75708
1768999798388,-0.9238281,0.17089844,0.42871094,-20.812988,-14.831543,8.300781,0.0,0.0,0.0,21.00586,61.583862,-4.75708
1768999798399,-0.9238281,0.17089844,0.42871094,-20.812988,-14.831543,8.300781,0.0,0.0,0.0,19.440308,61.309204,-4.3615723
1768999798487,-0.72753906,0.18652344,0.48535156,10.070801,-5.6152344,-11.291504,0.0,0.0,0.0,19.440308,61.309204,-4.3615723
1768999798499,-0.72753906,0.18652344,0.48535156,10.070801,-5.6152344,-11.291504,0.0,0.0,0.0,18.57788,60.60608,-4.921875
1768999798587,-0.7939453,0.18261719,0.57177734,14.160156,4.333496,-15.74707,0.0,0.0,0.0,18.57788,60.60608,-4.921875
1768999798599,-0.7939453,0.18261719,0.57177734,14.160156,4.333496,-15.74707,0.0,0.0,0.0,17.600098,60.946655,-7.0147705
1768999798687,-0.8017578,0.2290039,0.52197266,-19.958496,-36.010742,4.4555664,0.0,0.0,0.0,17.600098,60.946655,-7.0147705
1768999798698,-0.8017578,0.2290039,0.52197266,-19.958496,-36.010742,4.4555664,0.0,0.0,0.0,16.089478,59.42505,-8.360596
1768999798786,-0.8198242,0.18457031,0.50439453,-9.277344,-14.465332,13.916016,0.0,0.0,0.0,16.089478,59.42505,-8.360596
1768999798798,-0.8198242,0.18457031,0.50439453,-9.277344,-14.465332,13.916016,0.0,0.0,0.0,15.018311,56.26648,-6.5808105
1768999798886,-0.8803711,0.2319336,0.48583984,-6.225586,3.9672852,13.000488,0.0,0.0,0.0,15.018311,56.26648,-6.5808105
1768999798898,-0.8803711,0.2319336,0.48583984,-6.225586,3.9672852,13.000488,0.0,0.0,0.0,15.880737,55.112915,-5.218506
1768999798986,-0.8666992,0.2607422,0.48828125,8.178711,10.070801,0.91552734,0.0,0.0,0.0,15.880737,55.112915,-5.218506
1768999798997,-0.8666992,0.2607422,0.48828125,8.178711,10.070801,0.91552734,0.0,0.0,0.0,18.116455,56.052246,-3.5046387
1768999799085,-0.8989258,0.24804688,0.45996094,-2.9907227,7.6293945,6.7749023,0.0,0.0,0.0,18.116455,56.052246,-3.5046387
1768999799097,-0.8989258,0.24804688,0.45996094,-2.9907227,7.6293945,6.7749023,0.0,0.0,0.0,19.632568,56.381836,-2.279663
1768999799185,-0.8330078,0.2529297,0.48291016,17.76123,41.68701,-7.080078,0.0,0.0,0.0,19.632568,56.381836,-2.279663
1768999799197,-0.8330078,0.2529297,0.48291016,17.76123,41.68701,-7.080078,0.0,0.0,0.0,22.37915,58.78784,-0.09887695
1768999799285,-1.0527344,0.030761719,0.546875,6.1035156,23.68164,-13.122559,0.0,0.0,0.0,22.37915,58.78784,-0.09887695
1768999799296,-1.0527344,0.030761719,0.546875,6.1035156,23.68164,-13.122559,0.0,0.0,0.0,26.345215,63.215332,2.5378418
1768999799385,-0.91308594,0.04638672,0.44189453,-32.043457,-8.117676,7.9345703,0.0,0.0,0.0,26.345215,63.215332,2.5378418
1768999799396,-0.91308594,0.04638672,0.44189453,-32.043457,-8.117676,7.9345703,0.0,0.0,0.0,21.890259,63.325195,0.34057617
1768999799484,-0.8623047,0.17285156,0.37939453,-19.958496,5.79834,-3.7841797,0.0,0.0,0.0,21.890259,63.325195,0.34057617
1768999799496,-0.8623047,0.17285156,0.37939453,-19.958496,5.79834,-3.7841797,0.0,0.0,0.0,16.52893,62.995605,-2.043457
1768999799584,-0.8574219,-0.032226562,0.4116211,-4.333496,20.202637,-23.07129,0.0,0.0,0.0,16.52893,62.995605,-2.043457
1768999799596,-0.8574219,-0.032226562,0.4116211,-4.333496,20.202637,-23.07129,0.0,0.0,0.0,12.667236,64.555664,-3.4771729
1768999799684,-0.9267578,0.052246094,0.38720703,-32.958984,-19.16504,1.0375977,0.0,0.0,0.0,12.667236,64.555664,-3.4771729
1768999799695,-0.9267578,0.052246094,0.38720703,-32.958984,-19.16504,1.0375977,0.0,0.0,0.0,7.6190186,65.302734,-7.827759
1768999799783,-0.9003906,-0.03466797,0.3334961,-25.878906,4.699707,-2.5634766,0.0,0.0,0.0,7.6190186,65.302734,-7.827759
1768999799795,-0.9003906,-0.03466797,0.3334961,-25.878906,4.699707,-2.5634766,0.0,0.0,0.0,4.822998,63.237305,-5.685425
1768999799883,-0.8334961,-0.032714844,0.35791016,22.583008,33.935547,-38.635254,0.0,0.0,0.0,4.822998,63.237305,-5.685425
1768999799895,-0.8334961,-0.032714844,0.35791016,22.583008,33.935547,-38.635254,0.0,0.0,0.0,0.38452148,66.121216,-11.629028
1768999799983,-0.8964844,-0.04248047,0.3876953,-25.32959,-18.432617,9.82666,0.0,0.0,0.0,0.38452148,66.121216,-11.629028
1768999799995,-0.8964844,-0.04248047,0.3876953,-25.32959,-18.432617,9.82666,0.0,0.0,0.0,-0.016479492,66.41785,-12.398071
