timestamp,accX,accY,accZ,gyroX,gyroY,gyroZ,magX,magY,magZ,roll,pitch,yaw
1765377704267,-0.6923828,-0.67333984,0.20898438,44.37256,13.916016,-15.563965,0.0,0.0,0.0,-72.493286,51.262207,-34.60144
1765377704279,-0.6923828,-0.67333984,0.20898438,44.37256,13.916016,-15.563965,0.0,0.0,0.0,-69.48303,52.646484,-34.436646
1765377704367,-0.80810547,-0.6425781,0.16064453,31.066895,19.226074,-7.9345703,0.0,0.0,0.0,-69.48303,52.646484,-34.436646
1765377704379,-0.80810547,-0.6425781,0.16064453,31.066895,19.226074,-7.9345703,0.0,0.0,0.0,-68.85132,51.168823,-38.814697
1765377704467,-0.71484375,-0.68603516,0.171875,7.6904297,10.986328,-5.7373047,0.0,0.0,0.0,-68.85132,51.168823,-38.814697
1765377704478,-0.71484375,-0.68603516,0.171875,7.6904297,10.986328,-5.7373047,0.0,0.0,0.0,-69.72473,51.33362,-41.226196
1765377704566,-0.72314453,-0.71240234,0.14013672,-25.634766,-1.8920898,-6.591797,0.0,0.0,0.0,-69.72473,51.33362,-41.226196
1765377704578,-0.72314453,-0.71240234,0.14013672,-25.634766,-1.8920898,-6.591797,0.0,0.0,0.0,-71.29578,50.218506,-41.00647
1765377704666,-0.8154297,-0.50341797,0.30566406,-32.104492,-24.047852,18.371582,0.0,0.0,0.0,-71.29578,50.218506,-41.00647
1765377704677,-0.8154297,-0.50341797,0.30566406,-32.104492,-24.047852,18.371582,0.0,0.0,0.0,-73.86658,50.32837,-39.1333
1765377704766,-0.5908203,-0.5361328,0.1328125,14.709473,14.099121,-20.324707,0.0,0.0,0.0,-73.86658,50.32837,-39.1333
1765377704777,-0.5908203,-0.5361328,0.1328125,14.709473,14.099121,-20.324707,0.0,0.0,0.0,-73.02612,50.322876,-37.523804
1765377704866,-0.9082031,-0.6191406,0.2626953,13.244629,21.42334,-19.16504,0.0,0.0,0.0,-73.02612,50.322876,-37.523804
1765377704877,-0.9082031,-0.6191406,0.2626953,13.244629,21.42334,-19.16504,0.0,0.0,0.0,-74.15222,48.57605,-41.04492
1765377704965,-0.7426758,-0.65185547,0.1586914,-5.432129,-35.7666,-13.122559,0.0,0.0,0.0,-74.15222,48.57605,-41.04492
1765377704976,-0.7426758,-0.65185547,0.1586914,-5.432129,-35.7666,-13.122559,0.0,0.0,0.0,-71.87256,47.175293,-38.759766
1765377705065,-0.8041992,-0.54296875,0.12158203,-19.348145,-10.253906,12.329102,0.0,0.0,0.0,-71.87256,47.175293,-38.759766
1765377705076,-0.8041992,-0.54296875,0.12158203,-19.348145,-10.253906,12.329102,0.0,0.0,0.0,-71.15845,47.026978,-35.46936
1765377705165,-0.7685547,-0.60839844,0.15234375,-5.79834,0.48828125,-5.004883,0.0,0.0,0.0,-71.15845,47.026978,-35.46936
1765377705176,-0.7685547,-0.60839844,0.15234375,-5.79834,0.48828125,-5.004883,0.0,0.0,0.0,-72.07031,47.389526,-36.29883
1765377705264,-0.8491211,-0.69189453,0.15039062,-34.179688,-2.4414062,11.901855,0.0,0.0,0.0,-72.07031,47.389526,-36.29883
1765377705276,-0.8491211,-0.69189453,0.15039062,-34.179688,-2.4414062,11.901855,0.0,0.0,0.0,-73.965454,47.927856,-36.188965
1765377705364,-0.6953125,-0.5185547,0.2109375,-1.6479492,-8.666992,10.681152,0.0,0.0,0.0,-73.965454,47.927856,-36.188965
1765377705376,-0.6953125,-0.5185547,0.2109375,-1.6479492,-8.666992,10.681152,0.0,0.0,0.0,-74.95972,49.075928,-35.2771
1765377705464,-0.6870117,-0.56347656,0.1586914,-4.0893555,27.954102,11.413574,0.0,0.0,0.0,-74.95972,49.075928,-35.2771
1765377705475,-0.6870117,-0.56347656,0.1586914,-4.0893555,27.954102,11.413574,0.0,0.0,0.0,-75.76172,50.256958,-36.33728
1765377705564,-0.6723633,-0.6748047,0.24902344,16.845703,4.760742,-5.6152344,0.0,0.0,0.0,-75.76172,50.256958,-36.33728
1765377705575,-0.6723633,-0.6748047,0.24902344,16.845703,4.760742,-5.6152344,0.0,0.0,0.0,-76.96472,50.76233,-38.897095
1765377705663,-0.8520508,-0.6616211,0.22558594,3.479004,-4.760742,15.197754,0.0,0.0,0.0,-76.96472,50.76233,-38.897095
1765377705675,-0.8520508,-0.6616211,0.22558594,3.479004,-4.760742,15.197754,0.0,0.0,0.0,-75.322266,50.95459,-37.402954
1765377705763,-0.6899414,-0.59521484,0.18115234,29.11377,10.803223,-2.8686523,0.0,0.0,0.0,-75.322266,50.95459,-37.402954
1765377705774,-0.6899414,-0.59521484,0.18115234,29.11377,10.803223,-2.8686523,0.0,0.0,0.0,-73.02063,51.83899,-36.30432
1765377705863,-0.71533203,-0.7133789,0.1484375,29.907227,10.7421875,-24.169922,0.0,0.0,0.0,-73.02063,51.83899,-36.30432
1765377705874,-0.71533203,-0.7133789,0.1484375,29.907227,10.7421875,-24.169922,0.0,0.0,0.0,-72.25708,50.169067,-39.46289
1765377705962,-0.75341797,-0.6616211,0.14355469,0.24414062,-4.0893555,-4.638672,0.0,0.0,0.0,-72.25708,50.169067,-39.46289
1765377705974,-0.75341797,-0.6616211,0.14355469,0.24414062,-4.0893555,-4.638672,0.0,0.0,0.0,-71.54846,48.73535,-39.517822
1765377706062,-0.7519531,-0.65234375,0.08300781,19.89746,17.822266,-15.441895,0.0,0.0,0.0,-71.54846,48.73535,-39.517822
1765377706074,-0.7519531,-0.65234375,0.08300781,19.89746,17.822266,-15.441895,0.0,0.0,0.0,-71.89453,47.922363,-41.660156
1765377706162,-0.6635742,-0.7236328,0.07128906,5.432129,21.240234,-12.145996,0.0,0.0,0.0,-71.89453,47.922363,-41.660156
1765377706173,-0.6635742,-0.7236328,0.07128906,5.432129,21.240234,-12.145996,0.0,0.0,0.0,-73.47656,47.142334,-46.192017
1765377706262,-1.0302734,-0.8261719,0.2890625,-17.51709,25.08545,-2.8076172,0.0,0.0,0.0,-73.47656,47.142334,-46.192017
1765377706273,-1.0302734,-0.8261719,0.2890625,-17.51709,25.08545,-2.8076172,0.0,0.0,0.0,-77.88757,47.076416,-51.05896
1765377706361,-0.54052734,-0.7089844,0.23046875,0.12207031,-6.286621,-0.6713867,0.0,0.0,0.0,-77.88757,47.076416,-51.05896
1765377706373,-0.54052734,-0.7089844,0.23046875,0.12207031,-6.286621,-0.6713867,0.0,0.0,0.0,-77.82715,47.955322,-49.432983
1765377706461,-0.7871094,-0.51904297,0.15820312,-26.123047,2.9296875,-0.6713867,0.0,0.0,0.0,-77.82715,47.955322,-49.432983
1765377706473,-0.7871094,-0.51904297,0.15820312,-26.123047,2.9296875,-0.6713867,0.0,0.0,0.0,-79.68933,46.428223,-49.41101
1765377706561,-0.82910156,-0.69384766,0.18017578,-7.507324,-7.9956055,13.305664,0.0,0.0,0.0,-79.68933,46.428223,-49.41101
1765377706572,-0.82910156,-0.69384766,0.18017578,-7.507324,-7.9956055,13.305664,0.0,0.0,0.0,-79.93103,48.202515,-46.35681
1765377706660,-0.6977539,-0.5961914,0.087402344,-7.385254,-19.65332,4.211426,0.0,0.0,0.0,-79.93103,48.202515,-46.35681
1765377706672,-0.6977539,-0.5961914,0.087402344,-7.385254,-19.65332,4.211426,0.0,0.0,0.0,-78.898315,48.290405,-45.021973
1765377706760,-0.8286133,-0.57177734,0.103027344,-16.601562,-29.23584,16.540527,0.0,0.0,0.0,-78.898315,48.290405,-45.021973
1765377706772,-0.8286133,-0.57177734,0.103027344,-16.601562,-29.23584,16.540527,0.0,0.0,0.0,-76.92078,49.0979,-40.264893
1765377706860,-0.81152344,-0.5961914,0.05419922,1.5869141,-12.268066,3.3569336,0.0,0.0,0.0,-76.92078,49.0979,-40.264893
1765377706871,-0.81152344,-0.5961914,0.05419922,1.5869141,-12.268066,3.3569336,0.0,0.0,0.0,-75.26184,49.696655,-38.441162
1765377706960,-0.7788086,-0.57128906,0.092285156,-9.521484,-14.465332,4.1503906,0.0,0.0,0.0,-75.26184,49.696655,-38.441162
1765377706971,-0.7788086,-0.57128906,0.092285156,-9.521484,-14.465332,4.1503906,0.0,0.0,0.0,-74.295044,49.921875,-37.77649
1765377707059,-0.8676758,-0.55566406,0.063964844,3.2958984,6.0424805,-0.91552734,0.0,0.0,0.0,-74.295044,49.921875,-37.77649
1765377707071,-0.8676758,-0.55566406,0.063964844,3.2958984,6.0424805,-0.91552734,0.0,0.0,0.0,-74.24011,50.394287,-38.0896
1765377707159,-0.91308594,-0.95947266,0.3305664,-9.887695,26.550293,-2.6855469,0.0,0.0,0.0,-74.24011,50.394287,-38.0896
1765377707171,-0.91308594,-0.95947266,0.3305664,-9.887695,26.550293,-2.6855469,0.0,0.0,0.0,-77.64038,50.476685,-42.96753
1765377707259,-0.76660156,-0.37353516,0.1665039,-12.390137,-47.60742,26.550293,0.0,0.0,0.0,-77.64038,50.476685,-42.96753
1765377707270,-0.76660156,-0.37353516,0.1665039,-12.390137,-47.60742,26.550293,0.0,0.0,0.0,-75.99243,51.11389,-40.2594
1765377707359,-0.6948242,-0.69140625,0.19042969,2.1972656,31.799316,6.591797,0.0,0.0,0.0,-75.99243,51.11389,-40.2594
1765377707370,-0.6948242,-0.69140625,0.19042969,2.1972656,31.799316,6.591797,0.0,0.0,0.0,-77.03064,53.90442,-39.46289
1765377707458,-0.734375,-0.64697266,0.1665039,26.245117,8.728027,-15.319824,0.0,0.0,0.0,-77.03064,53.90442,-39.46289
1765377707470,-0.734375,-0.64697266,0.1665039,26.245117,8.728027,-15.319824,0.0,0.0,0.0,-77.700806,52.146606,-43.43994
1765377707558,-0.8286133,-0.65527344,0.16601562,-9.460449,-9.70459,15.808105,0.0,0.0,0.0,-77.700806,52.146606,-43.43994
1765377707570,-0.8286133,-0.65527344,0.16601562,-9.460449,-9.70459,15.808105,0.0,0.0,0.0,-76.657104,52.443237,-42.039185
1765377707658,-0.6699219,-0.5913086,0.13671875,27.46582,10.620117,-14.709473,0.0,0.0,0.0,-76.657104,52.443237,-42.039185
1765377707669,-0.6699219,-0.5913086,0.13671875,27.46582,10.620117,-14.709473,0.0,0.0,0.0,-75.009155,52.349854,-41.154785
1765377707757,-0.72998047,-0.70996094,0.11425781,15.50293,-7.080078,-14.038086,0.0,0.0,0.0,-75.009155,52.349854,-41.154785
1765377707769,-0.72998047,-0.70996094,0.11425781,15.50293,-7.080078,-14.038086,0.0,0.0,0.0,-74.37195,50.64148,-43.445435
1765377707857,-0.765625,-0.6308594,0.10058594,5.2490234,-3.8452148,1.159668,0.0,0.0,0.0,-74.37195,50.64148,-43.445435
1765377707869,-0.765625,-0.6308594,0.10058594,5.2490234,-3.8452148,1.159668,0.0,0.0,0.0,-72.90527,49.691162,-42.302856
1765377707957,-0.7290039,-0.6479492,0.08154297,16.235352,5.7373047,-4.4555664,0.0,0.0,0.0,-72.90527,49.691162,-42.302856
1765377707969,-0.7290039,-0.6479492,0.08154297,16.235352,5.7373047,-4.4555664,0.0,0.0,0.0,-72.66907,49.53186,-44.23645
1765377708057,-0.73779297,-0.6958008,0.10595703,10.620117,3.2348633,-2.9296875,0.0,0.0,0.0,-72.66907,49.53186,-44.23645
1765377708068,-0.73779297,-0.6958008,0.10595703,10.620117,3.2348633,-2.9296875,0.0,0.0,0.0,-72.30652,49.361572,-46.115112
1765377708156,-0.99853516,-0.80908203,0.27734375,-1.159668,25.024414,-4.638672,0.0,0.0,0.0,-72.30652,49.361572,-46.115112
1765377708168,-0.99853516,-0.80908203,0.27734375,-1.159668,25.024414,-4.638672,0.0,0.0,0.0,-73.899536,49.30664,-49.46045
1765377708257,-0.55566406,-0.578125,0.25390625,21.362305,-6.8969727,-0.9765625,0.0,0.0,0.0,-73.899536,49.30664,-49.46045
1765377708271,-0.55566406,-0.578125,0.25390625,21.362305,-6.8969727,-0.9765625,0.0,0.0,0.0,-73.3667,49.44397,-49.625244
1765377708357,-0.7734375,-0.5029297,0.23046875,-4.760742,26.550293,-23.132324,0.0,0.0,0.0,-73.3667,49.44397,-49.625244
1765377708368,-0.7734375,-0.5029297,0.23046875,-4.760742,26.550293,-23.132324,0.0,0.0,0.0,-74.11926,47.82898,-50.877686
1765377708456,-0.9145508,-0.66503906,0.2446289,-5.9814453,-16.479492,10.681152,0.0,0.0,0.0,-74.11926,47.82898,-50.877686
1765377708467,-0.9145508,-0.66503906,0.2446289,-5.9814453,-16.479492,10.681152,0.0,0.0,0.0,-74.503784,47.785034,-49.822998
1765377708555,-0.5786133,-0.66015625,0.17626953,-6.713867,3.2348633,-27.34375,0.0,0.0,0.0,-74.503784,47.785034,-49.822998
1765377708571,-0.5786133,-0.66015625,0.17626953,-6.713867,3.2348633,-27.34375,0.0,0.0,0.0,-74.7345,46.257935,-49.32312
1765377708655,-0.80029297,-0.6191406,0.17578125,-52.856445,-54.504395,28.198242,0.0,0.0,0.0,-74.7345,46.257935,-49.32312
1765377708666,-0.80029297,-0.6191406,0.17578125,-52.856445,-54.504395,28.198242,0.0,0.0,0.0,-74.75098,45.91736,-43.132324
1765377708755,-0.81152344,-0.5761719,0.18652344,-18.432617,-16.601562,4.638672,0.0,0.0,0.0,-74.75098,45.91736,-43.132324
1765377708766,-0.81152344,-0.5761719,0.18652344,-18.432617,-16.601562,4.638672,0.0,0.0,0.0,-74.26758,46.82373,-37.677612
1765377708854,-0.8017578,-0.58935547,0.13476562,-6.4697266,-13.916016,13.85498,0.0,0.0,0.0,-74.26758,46.82373,-37.677612
1765377708866,-0.8017578,-0.58935547,0.13476562,-6.4697266,-13.916016,13.85498,0.0,0.0,0.0,-73.498535,47.559814,-36.381226
1765377708954,-0.73876953,-0.5878906,0.15673828,-15.50293,-14.953613,12.451172,0.0,0.0,0.0,-73.498535,47.559814,-36.381226
1765377708966,-0.73876953,-0.5878906,0.15673828,-15.50293,-14.953613,12.451172,0.0,0.0,0.0,-72.62512,48.746338,-34.03015
1765377709054,-0.8535156,-0.5551758,0.08496094,-29.296875,-4.4555664,17.76123,0.0,0.0,0.0,-72.62512,48.746338,-34.03015
1765377709065,-0.8535156,-0.5551758,0.08496094,-29.296875,-4.4555664,17.76123,0.0,0.0,0.0,-73.27881,49.99878,-32.365723
1765377709154,-0.78027344,-0.5722656,0.23925781,11.169434,13.183594,4.333496,0.0,0.0,0.0,-73.27881,49.99878,-32.365723
1765377709165,-0.78027344,-0.5722656,0.23925781,11.169434,13.183594,4.333496,0.0,0.0,0.0,-75.92102,51.49292,-35.15625
1765377709253,-0.6513672,-0.5048828,0.1743164,9.460449,9.094238,3.7231445,0.0,0.0,0.0,-75.92102,51.49292,-35.15625
1765377709265,-0.6513672,-0.5048828,0.1743164,9.460449,9.094238,3.7231445,0.0,0.0,0.0,-74.48181,51.65222,-36.00769
1765377709353,-0.71728516,-0.734375,0.28857422,9.155273,-3.6010742,0.79345703,0.0,0.0,0.0,-74.48181,51.65222,-36.00769
1765377709364,-0.71728516,-0.734375,0.28857422,9.155273,-3.6010742,0.79345703,0.0,0.0,0.0,-74.21814,52.382812,-36.166992
1765377709453,-0.8120117,-0.60595703,0.26220703,1.159668,-10.314941,17.578125,0.0,0.0,0.0,-74.21814,52.382812,-36.166992
1765377709464,-0.8120117,-0.60595703,0.26220703,1.159668,-10.314941,17.578125,0.0,0.0,0.0,-71.900024,52.29492,-33.409424
1765377709553,-0.75439453,-0.5385742,0.20410156,33.447266,6.1035156,2.8686523,0.0,0.0,0.0,-71.900024,52.29492,-33.409424
1765377709564,-0.75439453,-0.5385742,0.20410156,33.447266,6.1035156,2.8686523,0.0,0.0,0.0,-68.79089,53.327637,-31.574707
1765377709652,-0.7548828,-0.6303711,0.25439453,50.476074,20.629883,-22.399902,0.0,0.0,0.0,-68.79089,53.327637,-31.574707
1765377709664,-0.7548828,-0.6303711,0.25439453,50.476074,20.629883,-22.399902,0.0,0.0,0.0,-66.85181,52.426758,-34.75525
1765377709752,-0.7758789,-0.6279297,0.21240234,26.97754,7.8125,-9.765625,0.0,0.0,0.0,-66.85181,52.426758,-34.75525
1765377709764,-0.7758789,-0.6279297,0.21240234,26.97754,7.8125,-9.765625,0.0,0.0,0.0,-65.75867,51.427002,-37.908325
1765377709852,-0.7558594,-0.6123047,0.171875,16.601562,3.0517578,-8.850098,0.0,0.0,0.0,-65.75867,51.427002,-37.908325
1765377709863,-0.7558594,-0.6123047,0.171875,16.601562,3.0517578,-8.850098,0.0,0.0,0.0,-64.90173,50.718384,-39.09485
1765377709951,-0.76123047,-0.6435547,0.16601562,7.446289,2.1362305,-9.216309,0.0,0.0,0.0,-64.90173,50.718384,-39.09485
1765377709963,-0.76123047,-0.6435547,0.16601562,7.446289,2.1362305,-9.216309,0.0,0.0,0.0,-64.85779,49.91089,-40.561523
1765377710051,-0.7519531,-0.6621094,0.17041016,2.5024414,6.164551,-5.7373047,0.0,0.0,0.0,-64.85779,49.91089,-40.561523
1765377710063,-0.7519531,-0.6621094,0.17041016,2.5024414,6.164551,-5.7373047,0.0,0.0,0.0,-65.67627,49.438477,-42.09961
1765377710151,-0.8720703,-0.6088867,0.28125,-11.657715,10.375977,2.746582,0.0,0.0,0.0,-65.67627,49.438477,-42.09961
1765377710162,-0.8720703,-0.6088867,0.28125,-11.657715,10.375977,2.746582,0.0,0.0,0.0,-68.291016,49.608765,-44.53308
1765377710251,-0.6879883,-0.62353516,0.38330078,-13.366699,2.0141602,-1.2207031,0.0,0.0,0.0,-68.291016,49.608765,-44.53308
1765377710262,-0.6879883,-0.62353516,0.38330078,-13.366699,2.0141602,-1.2207031,0.0,0.0,0.0,-69.609375,50.202026,-44.351807
1765377710350,-0.7451172,-0.59277344,0.22998047,-9.70459,25.20752,-22.705078,0.0,0.0,0.0,-69.609375,50.202026,-44.351807
1765377710362,-0.7451172,-0.59277344,0.22998047,-9.70459,25.20752,-22.705078,0.0,0.0,0.0,-72.075806,48.71338,-45.598755
1765377710450,-0.77246094,-0.54345703,0.2631836,-25.57373,-20.080566,12.084961,0.0,0.0,0.0,-72.075806,48.71338,-45.598755
1765377710461,-0.77246094,-0.54345703,0.2631836,-25.57373,-20.080566,12.084961,0.0,0.0,0.0,-74.10828,48.828735,-44.08264
1765377710550,-0.73583984,-0.5986328,0.15771484,-6.5307617,3.3569336,-5.004883,0.0,0.0,0.0,-74.10828,48.828735,-44.08264
1765377710561,-0.73583984,-0.5986328,0.15771484,-6.5307617,3.3569336,-5.004883,0.0,0.0,0.0,-73.65784,48.669434,-41.791992
1765377710649,-0.7675781,-0.6044922,0.114746094,-32.958984,-40.893555,19.28711,0.0,0.0,0.0,-73.65784,48.669434,-41.791992
1765377710661,-0.7675781,-0.6044922,0.114746094,-32.958984,-40.893555,19.28711,0.0,0.0,0.0,-73.59192,49.136353,-39.01245
1765377710749,-0.8564453,-0.5371094,0.080566406,-22.644043,-22.216797,14.343262,0.0,0.0,0.0,-73.59192,49.136353,-39.01245
1765377710761,-0.8564453,-0.5371094,0.080566406,-22.644043,-22.216797,14.343262,0.0,0.0,0.0,-72.22412,50.004272,-33.980713
1765377710849,-0.84033203,-0.5463867,0.068359375,-4.760742,-6.4697266,6.4697266,0.0,0.0,0.0,-72.22412,50.004272,-33.980713
1765377710860,-0.84033203,-0.5463867,0.068359375,-4.760742,-6.4697266,6.4697266,0.0,0.0,0.0,-71.96045,50.872192,-33.184204
1765377710949,-0.8378906,-0.55371094,0.07763672,23.07129,6.713867,-5.065918,0.0,0.0,0.0,-71.96045,50.872192,-33.184204
1765377710961,-0.8378906,-0.55371094,0.07763672,23.07129,6.713867,-5.065918,0.0,0.0,0.0,-71.30676,51.42151,-34.94751
1765377711048,-0.8833008,-0.72265625,0.14404297,-2.6245117,17.089844,-9.58252,0.0,0.0,0.0,-71.30676,51.42151,-34.94751
1765377711065,-0.8833008,-0.72265625,0.14404297,-2.6245117,17.089844,-9.58252,0.0,0.0,0.0,-71.520996,51.11389,-38.92456
1765377711149,-0.73046875,-0.5571289,0.34033203,-5.493164,-17.76123,2.0751953,0.0,0.0,0.0,-71.520996,51.11389,-38.92456
1765377711160,-0.73046875,-0.5571289,0.34033203,-5.493164,-17.76123,2.0751953,0.0,0.0,0.0,-72.81738,51.14685,-40.319824
1765377711248,-0.6748047,-0.50683594,0.19628906,-14.099121,-9.765625,20.629883,0.0,0.0,0.0,-72.81738,51.14685,-40.319824
1765377711259,-0.6748047,-0.50683594,0.19628906,-14.099121,-9.765625,20.629883,0.0,0.0,0.0,-69.87305,51.306152,-35.529785
1765377711348,-0.70947266,-0.6513672,0.31152344,4.760742,11.108398,-13.305664,0.0,0.0,0.0,-69.87305,51.306152,-35.529785
1765377711359,-0.70947266,-0.6513672,0.31152344,4.760742,11.108398,-13.305664,0.0,0.0,0.0,-71.01013,51.679688,-35.93628
1765377711447,-0.7792969,-0.65185547,0.2446289,-6.8359375,-21.911621,9.94873,0.0,0.0,0.0,-71.01013,51.679688,-35.93628
1765377711459,-0.7792969,-0.65185547,0.2446289,-6.8359375,-21.911621,9.94873,0.0,0.0,0.0,-69.84009,51.152344,-33.986206
1765377711547,-0.74316406,-0.54833984,0.20947266,11.657715,-12.512207,6.4697266,0.0,0.0,0.0,-69.84009,51.152344,-33.986206
1765377711558,-0.74316406,-0.54833984,0.20947266,11.657715,-12.512207,6.4697266,0.0,0.0,0.0,-66.659546,51.17981,-29.641113
1765377711647,-0.75927734,-0.6015625,0.22558594,34.179688,11.413574,-15.869141,0.0,0.0,0.0,-66.659546,51.17981,-29.641113
1765377711658,-0.75927734,-0.6015625,0.22558594,34.179688,11.413574,-15.869141,0.0,0.0,0.0,-64.91821,50.55359,-30.41565
1765377711746,-0.74365234,-0.6435547,0.19433594,20.385742,5.859375,-9.521484,0.0,0.0,0.0,-64.91821,50.55359,-30.41565
1765377711758,-0.74365234,-0.6435547,0.19433594,20.385742,5.859375,-9.521484,0.0,0.0,0.0,-63.737183,49.718628,-32.816162
1765377711846,-0.75927734,-0.61816406,0.17578125,12.329102,11.413574,-13.427734,0.0,0.0,0.0,-63.737183,49.718628,-32.816162
1765377711858,-0.75927734,-0.61816406,0.17578125,12.329102,11.413574,-13.427734,0.0,0.0,0.0,-64.2041,49.015503,-35.134277
1765377711946,-0.72998047,-0.6689453,0.21240234,13.061523,26.062012,-6.8969727,0.0,0.0,0.0,-64.2041,49.015503,-35.134277
1765377711958,-0.72998047,-0.6689453,0.21240234,13.061523,26.062012,-6.8969727,0.0,0.0,0.0,-65.51697,48.927612,-38.336792
1765377712046,-1.0673828,-0.7910156,0.40234375,-1.6479492,24.963379,-5.6152344,0.0,0.0,0.0,-65.51697,48.927612,-38.336792
1765377712058,-1.0673828,-0.7910156,0.40234375,-1.6479492,24.963379,-5.6152344,0.0,0.0,0.0,-69.32922,49.196777,-43.08838
1765377712145,-0.4111328,-0.42529297,0.24804688,13.85498,12.451172,-12.023926,0.0,0.0,0.0,-69.32922,49.196777,-43.08838
1765377712157,-0.4111328,-0.42529297,0.24804688,13.85498,12.451172,-12.023926,0.0,0.0,0.0,-69.84558,49.328613,-44.14856
1765377712245,-1.0478516,-0.6635742,0.33447266,-4.8828125,9.033203,-11.230469,0.0,0.0,0.0,-69.84558,49.328613,-44.14856
1765377712257,-1.0478516,-0.6635742,0.33447266,-4.8828125,9.033203,-11.230469,0.0,0.0,0.0,-71.51001,48.411255,-45.302124
1765377712345,-0.5209961,-0.5703125,0.16259766,-5.3710938,20.385742,-11.962891,0.0,0.0,0.0,-71.51001,48.411255,-45.302124
1765377712356,-0.5209961,-0.5703125,0.16259766,-5.3710938,20.385742,-11.962891,0.0,0.0,0.0,-70.93323,47.054443,-46.43921
1765377712445,-0.77490234,-0.5678711,0.1796875,-43.640137,-68.54248,24.108887,0.0,0.0,0.0,-70.93323,47.054443,-46.43921
1765377712456,-0.77490234,-0.5678711,0.1796875,-43.640137,-68.54248,24.108887,0.0,0.0,0.0,-71.466064,46.818237,-41.73706
1765377712545,-0.79833984,-0.60595703,0.20898438,-22.705078,-26.489258,7.1411133,0.0,0.0,0.0,-71.466064,46.818237,-41.73706
1765377712556,-0.79833984,-0.60595703,0.20898438,-22.705078,-26.489258,7.1411133,0.0,0.0,0.0,-69.37866,47.235718,-33.239136
1765377712644,-0.7988281,-0.58251953,0.09033203,-3.7841797,-8.056641,3.6621094,0.0,0.0,0.0,-69.37866,47.235718,-33.239136
1765377712655,-0.7988281,-0.58251953,0.09033203,-3.7841797,-8.056641,3.6621094,0.0,0.0,0.0,-68.8678,47.1698,-31.646118
1765377712744,-0.8149414,-0.5605469,0.16259766,2.0751953,-7.6293945,4.8217773,0.0,0.0,0.0,-68.8678,47.1698,-31.646118
1765377712755,-0.8149414,-0.5605469,0.16259766,2.0751953,-7.6293945,4.8217773,0.0,0.0,0.0,-68.236084,47.686157,-30.9375
1765377712843,-0.8652344,-0.59277344,0.21142578,11.657715,23.986816,2.9296875,0.0,0.0,0.0,-68.236084,47.686157,-30.9375
1765377712855,-0.8652344,-0.59277344,0.21142578,11.657715,23.986816,2.9296875,0.0,0.0,0.0,-68.40637,48.636475,-32.854614
1765377712943,-0.84716797,-0.7207031,0.36621094,18.920898,31.37207,-6.7749023,0.0,0.0,0.0,-68.40637,48.636475,-32.854614
1765377712955,-0.84716797,-0.7207031,0.36621094,18.920898,31.37207,-6.7749023,0.0,0.0,0.0,-70.444336,49.674683,-38.051147
1765377713043,-0.6191406,-0.4794922,0.16259766,-8.056641,19.53125,23.31543,0.0,0.0,0.0,-70.444336,49.674683,-38.051147
1765377713054,-0.6191406,-0.4794922,0.16259766,-8.056641,19.53125,23.31543,0.0,0.0,0.0,-71.86157,51.43799,-40.061646
1765377713143,-0.57714844,-0.6855469,0.3203125,-8.544922,1.3427734,-1.5258789,0.0,0.0,0.0,-71.86157,51.43799,-40.061646
1765377713154,-0.57714844,-0.6855469,0.3203125,-8.544922,1.3427734,-1.5258789,0.0,0.0,0.0,-73.482056,52.48169,-40.50659
1765377713242,-0.88378906,-0.59033203,0.20361328,-31.555176,-48.40088,12.939453,0.0,0.0,0.0,-73.482056,52.48169,-40.50659
1765377713254,-0.88378906,-0.59033203,0.20361328,-31.555176,-48.40088,12.939453,0.0,0.0,0.0,-71.07056,50.960083,-34.172974
1765377713342,-0.6669922,-0.54248047,0.18261719,3.6621094,-13.122559,13.366699,0.0,0.0,0.0,-71.07056,50.960083,-34.172974
1765377713354,-0.6669922,-0.54248047,0.18261719,3.6621094,-13.122559,13.366699,0.0,0.0,0.0,-67.81311,52.437744,-28.103027
1765377713442,-0.78808594,-0.64404297,0.20703125,33.325195,1.4038086,-28.686523,0.0,0.0,0.0,-67.81311,52.437744,-28.103027
1765377713453,-0.78808594,-0.64404297,0.20703125,33.325195,1.4038086,-28.686523,0.0,0.0,0.0,-65.40161,50.11963,-28.515015
1765377713541,-0.76416016,-0.5917969,0.1665039,5.554199,-7.6293945,9.399414,0.0,0.0,0.0,-65.40161,50.11963,-28.515015
1765377713553,-0.76416016,-0.5917969,0.1665039,5.554199,-7.6293945,9.399414,0.0,0.0,0.0,-64.53369,49.921875,-29.86084
1765377713641,-0.75439453,-0.59228516,0.22851562,26.000977,18.981934,-8.666992,0.0,0.0,0.0,-64.53369,49.921875,-29.86084
1765377713653,-0.75439453,-0.59228516,0.22851562,26.000977,18.981934,-8.666992,0.0,0.0,0.0,-64.209595,50.289917,-32.019653
1765377713741,-0.90771484,-0.71972656,0.1928711,-17.700195,30.578613,-3.6010742,0.0,0.0,0.0,-64.209595,50.289917,-32.019653
1765377713752,-0.90771484,-0.71972656,0.1928711,-17.700195,30.578613,-3.6010742,0.0,0.0,0.0,-67.29126,50.509644,-37.243652
1765377713841,-0.734375,-0.5097656,0.39160156,-13.427734,17.27295,18.249512,0.0,0.0,0.0,-67.29126,50.509644,-37.243652
1765377713852,-0.734375,-0.5097656,0.39160156,-13.427734,17.27295,18.249512,0.0,0.0,0.0,-72.020874,52.646484,-40.00122
1765377713940,-0.49804688,-0.5058594,0.20214844,24.047852,28.076172,-51.3916,0.0,0.0,0.0,-72.020874,52.646484,-40.00122
1765377713952,-0.49804688,-0.5058594,0.20214844,24.047852,28.076172,-51.3916,0.0,0.0,0.0,-72.542725,50.965576,-41.325073
1765377714040,-0.9897461,-0.68652344,0.22753906,4.760742,-5.79834,5.9814453,0.0,0.0,0.0,-72.542725,50.965576,-41.325073
1765377714052,-0.9897461,-0.68652344,0.22753906,4.760742,-5.79834,5.9814453,0.0,0.0,0.0,-75.03662,49.317627,-44.41223
1765377714140,-0.6010742,-0.58447266,0.19091797,-10.681152,-18.127441,-18.737793,0.0,0.0,0.0,-75.03662,49.317627,-44.41223
1765377714151,-0.6010742,-0.58447266,0.19091797,-10.681152,-18.127441,-18.737793,0.0,0.0,0.0,-73.427124,48.169556,-41.61621
1765377714240,-0.8022461,-0.59521484,0.14941406,-43.884277,-49.865723,19.65332,0.0,0.0,0.0,-73.427124,48.169556,-41.61621
1765377714251,-0.8022461,-0.59521484,0.14941406,-43.884277,-49.865723,19.65332,0.0,0.0,0.0,-72.32849,47.460938,-35.700073
1765377714339,-0.8017578,-0.63427734,0.1430664,-17.089844,-18.981934,-1.7700195,0.0,0.0,0.0,-72.32849,47.460938,-35.700073
1765377714351,-0.8017578,-0.63427734,0.1430664,-17.089844,-18.981934,-1.7700195,0.0,0.0,0.0,-71.60339,47.477417,-31.036377
1765377714439,-0.7890625,-0.5732422,0.087402344,-28.198242,-13.793945,13.061523,0.0,0.0,0.0,-71.60339,47.477417,-31.036377
1765377714451,-0.7890625,-0.5732422,0.087402344,-28.198242,-13.793945,13.061523,0.0,0.0,0.0,-72.06482,47.647705,-29.613647
1765377714539,-0.7739258,-0.70947266,0.30126953,2.380371,0.30517578,6.4697266,0.0,0.0,0.0,-72.06482,47.647705,-29.613647
1765377714550,-0.7739258,-0.70947266,0.30126953,2.380371,0.30517578,6.4697266,0.0,0.0,0.0,-73.37219,48.94409,-29.750977
1765377714638,-0.7211914,-0.57958984,0.19726562,3.112793,8.483887,-2.2583008,0.0,0.0,0.0,-73.37219,48.94409,-29.750977
1765377714650,-0.7211914,-0.57958984,0.19726562,3.112793,8.483887,-2.2583008,0.0,0.0,0.0,-72.69104,48.33435,-30.662842
1765377714738,-0.6699219,-0.6328125,0.21582031,-14.892578,-10.314941,9.094238,0.0,0.0,0.0,-72.69104,48.33435,-30.662842
1765377714750,-0.6699219,-0.6328125,0.21582031,-14.892578,-10.314941,9.094238,0.0,0.0,0.0,-72.71301,49.328613,-29.229126
1765377714838,-0.85302734,-0.61816406,0.2241211,11.352539,2.2583008,-0.9765625,0.0,0.0,0.0,-72.71301,49.328613,-29.229126
1765377714849,-0.85302734,-0.61816406,0.2241211,11.352539,2.2583008,-0.9765625,0.0,0.0,0.0,-72.53723,49.383545,-28.57544
1765377714938,-0.69140625,-0.5991211,0.17626953,21.972656,28.381348,-2.0751953,0.0,0.0,0.0,-72.53723,49.383545,-28.57544
1765377714949,-0.69140625,-0.5991211,0.17626953,21.972656,28.381348,-2.0751953,0.0,0.0,0.0,-72.526245,49.833984,-31.206665
1765377715037,-0.69677734,-0.6459961,0.19726562,17.150879,2.0141602,-5.859375,0.0,0.0,0.0,-72.526245,49.833984,-31.206665
1765377715049,-0.69677734,-0.6459961,0.19726562,17.150879,2.0141602,-5.859375,0.0,0.0,0.0,-72.6416,49.713135,-33.931274
1765377715137,-0.8300781,-0.57421875,0.2607422,18.493652,-8.972168,7.507324,0.0,0.0,0.0,-72.6416,49.713135,-33.931274
1765377715149,-0.8300781,-0.57421875,0.2607422,18.493652,-8.972168,7.507324,0.0,0.0,0.0,-70.32898,49.630737,-32.799683
1765377715237,-0.74609375,-0.6352539,0.2607422,40.83252,27.70996,-6.591797,0.0,0.0,0.0,-70.32898,49.630737,-32.799683
1765377715248,-0.74609375,-0.6352539,0.2607422,40.83252,27.70996,-6.591797,0.0,0.0,0.0,-67.95593,50.05371,-33.83789
1765377715337,-0.6972656,-0.64990234,0.2055664,38.33008,14.953613,-9.155273,0.0,0.0,0.0,-67.95593,50.05371,-33.83789
1765377715348,-0.6972656,-0.64990234,0.2055664,38.33008,14.953613,-9.155273,0.0,0.0,0.0,-67.08801,50.11963,-38.02368
1765377715436,-0.73779297,-0.7036133,0.18408203,14.099121,9.58252,-4.272461,0.0,0.0,0.0,-67.08801,50.11963,-38.02368
1765377715448,-0.73779297,-0.7036133,0.18408203,14.099121,9.58252,-4.272461,0.0,0.0,0.0,-66.14868,49.570312,-39.42993
1765377715536,-0.72998047,-0.6953125,0.13085938,-8.422852,5.6762695,3.7231445,0.0,0.0,0.0,-66.14868,49.570312,-39.42993
1765377715547,-0.72998047,-0.6953125,0.13085938,-8.422852,5.6762695,3.7231445,0.0,0.0,0.0,-67.20337,49.641724,-40.31433
1765377715636,-0.8989258,-0.7290039,0.2241211,-28.869629,16.601562,4.0283203,0.0,0.0,0.0,-67.20337,49.641724,-40.31433
1765377715647,-0.8989258,-0.7290039,0.2241211,-28.869629,16.601562,4.0283203,0.0,0.0,0.0,-70.823364,50.17456,-42.528076
1765377715735,-0.7636719,-0.4790039,0.20214844,-15.136719,-10.437012,14.038086,0.0,0.0,0.0,-70.823364,50.17456,-42.528076
1765377715747,-0.7636719,-0.4790039,0.20214844,-15.136719,-10.437012,14.038086,0.0,0.0,0.0,-73.57544,51.102905,-42.74231
1765377715835,-0.5839844,-0.43603516,0.21386719,9.338379,27.09961,-26.794434,0.0,0.0,0.0,-73.57544,51.102905,-42.74231
1765377715847,-0.5839844,-0.43603516,0.21386719,9.338379,27.09961,-26.794434,0.0,0.0,0.0,-74.937744,50.756836,-44.956055
1765377715935,-1.050293,-0.8535156,0.13427734,0.9765625,-32.409668,-2.5634766,0.0,0.0,0.0,-74.937744,50.756836,-44.956055
1765377715947,-1.050293,-0.8535156,0.13427734,0.9765625,-32.409668,-2.5634766,0.0,0.0,0.0,-75.097046,49.224243,-46.175537
1765377716035,-0.67871094,-0.5131836,0.1328125,-11.71875,-34.973145,4.8217773,0.0,0.0,0.0,-75.097046,49.224243,-46.175537
1765377716046,-0.67871094,-0.5131836,0.1328125,-11.71875,-34.973145,4.8217773,0.0,0.0,0.0,-71.92749,48.779297,-40.786743
1765377716134,-0.8642578,-0.5234375,0.109375,6.164551,-35.88867,5.3710938,0.0,0.0,0.0,-71.92749,48.779297,-40.786743
1765377716146,-0.8642578,-0.5234375,0.109375,6.164551,-35.88867,5.3710938,0.0,0.0,0.0,-68.81836,47.922363,-37.27112
1765377716234,-0.83203125,-0.63964844,0.18310547,3.112793,-2.1362305,1.2817383,0.0,0.0,0.0,-68.81836,47.922363,-37.27112
1765377716245,-0.83203125,-0.63964844,0.18310547,3.112793,-2.1362305,1.2817383,0.0,0.0,0.0,-65.61035,48.15857,-35.161743
1765377716334,-0.79248047,-0.5751953,0.20361328,-20.935059,13.305664,-3.90625,0.0,0.0,0.0,-65.61035,48.15857,-35.161743
1765377716345,-0.79248047,-0.5751953,0.20361328,-20.935059,13.305664,-3.90625,0.0,0.0,0.0,-67.60986,48.36731,-37.738037
1765377716433,-0.68310547,-0.58740234,0.35498047,-18.737793,-7.446289,15.930176,0.0,0.0,0.0,-67.60986,48.36731,-37.738037
1765377716445,-0.68310547,-0.58740234,0.35498047,-18.737793,-7.446289,15.930176,0.0,0.0,0.0,-69.9115,49.35608,-38.534546
1765377716533,-0.56591797,-0.41748047,0.26708984,-13.671875,-19.470215,30.334473,0.0,0.0,0.0,-69.9115,49.35608,-38.534546
1765377716545,-0.56591797,-0.41748047,0.26708984,-13.671875,-19.470215,30.334473,0.0,0.0,0.0,-68.43384,50.861206,-34.101562
1765377716633,-0.87939453,-0.7988281,0.3569336,9.94873,1.2207031,-19.104004,0.0,0.0,0.0,-68.43384,50.861206,-34.101562
1765377716644,-0.87939453,-0.7988281,0.3569336,9.94873,1.2207031,-19.104004,0.0,0.0,0.0,-66.79138,51.58081,-30.855103
1765377716733,-0.7158203,-0.44873047,0.20263672,3.8452148,-4.272461,32.89795,0.0,0.0,0.0,-66.79138,51.58081,-30.855103
1765377716744,-0.7158203,-0.44873047,0.20263672,3.8452148,-4.272461,32.89795,0.0,0.0,0.0,-65.061035,51.99829,-29.014893
1765377716833,-0.77783203,-0.6455078,0.1743164,33.63037,20.507812,-18.005371,0.0,0.0,0.0,-65.061035,51.99829,-29.014893
1765377716844,-0.77783203,-0.6455078,0.1743164,33.63037,20.507812,-18.005371,0.0,0.0,0.0,-63.841553,53.041992,-30.36621
1765377716932,-0.74072266,-0.61083984,0.12207031,-0.061035156,6.225586,0.79345703,0.0,0.0,0.0,-63.841553,53.041992,-30.36621
1765377716943,-0.74072266,-0.61083984,0.12207031,-0.061035156,6.225586,0.79345703,0.0,0.0,0.0,-65.044556,52.630005,-34.89258
1765377717032,-0.79003906,-0.58935547,0.15136719,-3.479004,13.671875,3.0517578,0.0,0.0,0.0,-65.044556,52.630005,-34.89258
1765377717043,-0.79003906,-0.58935547,0.15136719,-3.479004,13.671875,3.0517578,0.0,0.0,0.0,-66.87378,53.063965,-37.34253
1765377717131,-0.91503906,-0.60546875,0.18652344,-18.981934,17.089844,6.713867,0.0,0.0,0.0,-66.87378,53.063965,-37.34253
1765377717143,-0.91503906,-0.60546875,0.18652344,-18.981934,17.089844,6.713867,0.0,0.0,0.0,-69.906006,53.964844,-40.528564
1765377717231,-0.8823242,-0.5209961,0.41357422,23.132324,7.385254,19.16504,0.0,0.0,0.0,-69.906006,53.964844,-40.528564
1765377717243,-0.8823242,-0.5209961,0.41357422,23.132324,7.385254,19.16504,0.0,0.0,0.0,-72.77344,56.035767,-42.87964
1765377717331,-0.47998047,-0.36083984,0.28222656,14.343262,20.751953,-35.827637,0.0,0.0,0.0,-72.77344,56.035767,-42.87964
1765377717342,-0.47998047,-0.36083984,0.28222656,14.343262,20.751953,-35.827637,0.0,0.0,0.0,-71.16943,54.926147,-44.708862
1765377717431,-0.9296875,-0.6503906,0.20751953,52.124023,0.8544922,-37.963867,0.0,0.0,0.0,-71.16943,54.926147,-44.708862
1765377717442,-0.9296875,-0.6503906,0.20751953,52.124023,0.8544922,-37.963867,0.0,0.0,0.0,-71.7572,51.54236,-48.164062
1765377717530,-0.70410156,-0.49072266,0.1508789,-28.259277,-28.9917,8.544922,0.0,0.0,0.0,-71.7572,51.54236,-48.164062
1765377717542,-0.70410156,-0.49072266,0.1508789,-28.259277,-28.9917,8.544922,0.0,0.0,0.0,-73.740234,50.76233,-49.224243
1765377717630,-0.85546875,-0.62060547,0.15283203,-35.705566,-14.221191,20.202637,0.0,0.0,0.0,-73.740234,50.76233,-49.224243
1765377717641,-0.85546875,-0.62060547,0.15283203,-35.705566,-14.221191,20.202637,0.0,0.0,0.0,-71.06506,51.784058,-42.44568
1765377717730,-0.7973633,-0.5913086,0.10107422,-47.60742,-23.864746,16.296387,0.0,0.0,0.0,-71.06506,51.784058,-42.44568
1765377717741,-0.7973633,-0.5913086,0.10107422,-47.60742,-23.864746,16.296387,0.0,0.0,0.0,-72.718506,53.096924,-40.374756
1765377717829,-0.87646484,-0.46240234,0.10546875,-57.739258,-16.601562,20.324707,0.0,0.0,0.0,-72.718506,53.096924,-40.374756
1765377717841,-0.87646484,-0.46240234,0.10546875,-57.739258,-16.601562,20.324707,0.0,0.0,0.0,-75.27832,54.244995,-37.089844
1765377717929,-0.91748047,-0.56933594,0.19921875,-10.070801,4.8217773,0.61035156,0.0,0.0,0.0,-75.27832,54.244995,-37.089844
1765377717940,-0.91748047,-0.56933594,0.19921875,-10.070801,4.8217773,0.61035156,0.0,0.0,0.0,-77.50305,55.629272,-37.11731
1765377718029,-0.70947266,-0.41357422,0.12792969,-11.962891,-3.90625,3.9672852,0.0,0.0,0.0,-77.50305,55.629272,-37.11731
1765377718040,-0.70947266,-0.41357422,0.12792969,-11.962891,-3.90625,3.9672852,0.0,0.0,0.0,-77.43713,55.3656,-37.578735
1765377718129,-0.8276367,-0.63134766,0.18261719,-4.760742,9.094238,-7.6293945,0.0,0.0,0.0,-77.43713,55.3656,-37.578735
1765377718140,-0.8276367,-0.63134766,0.18261719,-4.760742,9.094238,-7.6293945,0.0,0.0,0.0,-78.92029,55.684204,-38.8916
1765377718228,-0.7832031,-0.61816406,0.17578125,7.385254,-9.521484,-0.9765625,0.0,0.0,0.0,-78.92029,55.684204,-38.8916
1765377718240,-0.7832031,-0.61816406,0.17578125,7.385254,-9.521484,-0.9765625,0.0,0.0,0.0,-78.14575,55.17334,-38.35327
1765377718328,-0.8076172,-0.56689453,0.14208984,9.58252,-12.878418,-7.2631836,0.0,0.0,0.0,-78.14575,55.17334,-38.35327
1765377718339,-0.8076172,-0.56689453,0.14208984,9.58252,-12.878418,-7.2631836,0.0,0.0,0.0,-75.426636,54.019775,-36.727295
1765377718428,-0.7631836,-0.58203125,0.12646484,24.780273,14.587402,-6.4697266,0.0,0.0,0.0,-75.426636,54.019775,-36.727295
1765377718439,-0.7631836,-0.58203125,0.12646484,24.780273,14.587402,-6.4697266,0.0,0.0,0.0,-74.10278,53.624268,-37.41394
1765377718527,-0.78222656,-0.61621094,0.099609375,26.184082,10.498047,-10.498047,0.0,0.0,0.0,-74.10278,53.624268,-37.41394
1765377718539,-0.78222656,-0.61621094,0.099609375,26.184082,10.498047,-10.498047,0.0,0.0,0.0,-73.811646,52.800293,-40.984497
1765377718627,-0.7832031,-0.59472656,0.095703125,9.94873,11.59668,8.056641,0.0,0.0,0.0,-73.811646,52.800293,-40.984497
1765377718639,-0.7832031,-0.59472656,0.095703125,9.94873,11.59668,8.056641,0.0,0.0,0.0,-73.498535,53.069458,-43.14331
1765377718727,-0.7807617,-0.56884766,0.021484375,7.2631836,9.155273,3.9672852,0.0,0.0,0.0,-73.498535,53.069458,-43.14331
1765377718738,-0.7807617,-0.56884766,0.021484375,7.2631836,9.155273,3.9672852,0.0,0.0,0.0,-74.44885,53.94287,-45.823975
1765377718826,-0.8041992,-0.55908203,0.021972656,5.065918,5.9814453,6.0424805,0.0,0.0,0.0,-74.44885,53.94287,-45.823975
1765377718838,-0.8041992,-0.55908203,0.021972656,5.065918,5.9814453,6.0424805,0.0,0.0,0.0,-75.267334,54.711914,-48.460693
1765377718926,-1.0390625,-0.6875,0.11425781,11.657715,11.413574,-5.004883,0.0,0.0,0.0,-75.267334,54.711914,-48.460693
1765377718938,-1.0390625,-0.6875,0.11425781,11.657715,11.413574,-5.004883,0.0,0.0,0.0,-75.82214,54.87671,-51.602783
1765377719026,-0.77978516,-0.64501953,0.2836914,28.198242,3.8452148,-2.5634766,0.0,0.0,0.0,-75.82214,54.87671,-51.602783
1765377719037,-0.77978516,-0.64501953,0.2836914,28.198242,3.8452148,-2.5634766,0.0,0.0,0.0,-74.190674,55.1239,-52.65747
1765377719126,-0.64990234,-0.44726562,0.20605469,-2.5024414,15.014648,-23.742676,0.0,0.0,0.0,-74.190674,55.1239,-52.65747
1765377719137,-0.64990234,-0.44726562,0.20605469,-2.5024414,15.014648,-23.742676,0.0,0.0,0.0,-74.937744,53.239746,-54.15161
1765377719225,-0.95996094,-0.68603516,0.30273438,36.8042,15.441895,5.065918,0.0,0.0,0.0,-74.937744,53.239746,-54.15161
1765377719237,-0.95996094,-0.68603516,0.30273438,36.8042,15.441895,5.065918,0.0,0.0,0.0,-74.65759,53.569336,-55.145874
1765377719325,-0.6611328,-0.50683594,0.038085938,12.390137,11.413574,-22.827148,0.0,0.0,0.0,-74.65759,53.569336,-55.145874
1765377719337,-0.6611328,-0.50683594,0.038085938,12.390137,11.413574,-22.827148,0.0,0.0,0.0,-74.49829,51.800537,-57.95288
1765377719425,-0.86376953,-0.5673828,0.13720703,-21.54541,-36.68213,13.244629,0.0,0.0,0.0,-74.49829,51.800537,-57.95288
1765377719436,-0.86376953,-0.5673828,0.13720703,-21.54541,-36.68213,13.244629,0.0,0.0,0.0,-72.83386,51.465454,-53.70117
1765377719524,-0.7939453,-0.5600586,0.13623047,8.972168,-5.004883,-12.145996,0.0,0.0,0.0,-72.83386,51.465454,-53.70117
1765377719536,-0.7939453,-0.5600586,0.13623047,8.972168,-5.004883,-12.145996,0.0,0.0,0.0,-71.72424,50.83374,-51.98181
1765377719624,-0.8066406,-0.5996094,0.17919922,-30.334473,-34.851074,9.765625,0.0,0.0,0.0,-71.72424,50.83374,-51.98181
1765377719636,-0.8066406,-0.5996094,0.17919922,-30.334473,-34.851074,9.765625,0.0,0.0,0.0,-70.356445,50.289917,-48.80127
1765377719724,-0.8364258,-0.5551758,0.115234375,-35.88867,-18.249512,-1.2207031,0.0,0.0,0.0,-70.356445,50.289917,-48.80127
1765377719735,-0.8364258,-0.5551758,0.115234375,-35.88867,-18.249512,-1.2207031,0.0,0.0,0.0,-70.58716,49.92737,-44.780273
1765377719824,-0.90966797,-0.7241211,0.34423828,-10.314941,-10.864258,1.0375977,0.0,0.0,0.0,-70.58716,49.92737,-44.780273
1765377719835,-0.90966797,-0.7241211,0.34423828,-10.314941,-10.864258,1.0375977,0.0,0.0,0.0,-72.79541,49.713135,-43.59375
1765377719923,-0.5834961,-0.38476562,0.15478516,-1.3427734,-1.8920898,12.268066,0.0,0.0,0.0,-72.79541,49.713135,-43.59375
1765377719935,-0.5834961,-0.38476562,0.15478516,-1.3427734,-1.8920898,12.268066,0.0,0.0,0.0,-71.658325,49.905396,-41.16028
1765377720023,-0.7104492,-0.8046875,0.34765625,0.7324219,18.859863,0.24414062,0.0,0.0,0.0,-71.658325,49.905396,-41.16028
1765377720035,-0.7104492,-0.8046875,0.34765625,0.7324219,18.859863,0.24414062,0.0,0.0,0.0,-72.51526,51.350098,-41.80298
1765377720123,-0.84228516,-0.6123047,0.23095703,-15.136719,-21.057129,11.169434,0.0,0.0,0.0,-72.51526,51.350098,-41.80298
1765377720134,-0.84228516,-0.6123047,0.23095703,-15.136719,-21.057129,11.169434,0.0,0.0,0.0,-71.63635,50.44922,-39.32007
1765377720223,-0.66015625,-0.5292969,0.18408203,15.075684,6.652832,4.8828125,0.0,0.0,0.0,-71.63635,50.44922,-39.32007
1765377720234,-0.66015625,-0.5292969,0.18408203,15.075684,6.652832,4.8828125,0.0,0.0,0.0,-70.581665,51.795044,-36.82617
1765377720322,-0.80078125,-0.65722656,0.17041016,37.41455,22.827148,-20.935059,0.0,0.0,0.0,-70.581665,51.795044,-36.82617
1765377720334,-0.80078125,-0.65722656,0.17041016,37.41455,22.827148,-20.935059,0.0,0.0,0.0,-69.77966,50.718384,-39.347534
1765377720422,-0.7548828,-0.6040039,0.1821289,28.198242,-0.9765625,-0.7324219,0.0,0.0,0.0,-69.77966,50.718384,-39.347534
1765377720433,-0.7548828,-0.6040039,0.1821289,28.198242,-0.9765625,-0.7324219,0.0,0.0,0.0,-68.829346,50.36133,-41.506348
1765377720522,-0.71728516,-0.6640625,0.14111328,22.766113,3.540039,-6.591797,0.0,0.0,0.0,-68.829346,50.36133,-41.506348
1765377720533,-0.71728516,-0.6640625,0.14111328,22.766113,3.540039,-6.591797,0.0,0.0,0.0,-66.18713,49.822998,-41.621704
1765377720621,-0.70996094,-0.67626953,0.15234375,-10.498047,-5.79834,7.2631836,0.0,0.0,0.0,-66.18713,49.822998,-41.621704
1765377720633,-0.70996094,-0.67626953,0.15234375,-10.498047,-5.79834,7.2631836,0.0,0.0,0.0,-66.121216,49.81201,-42.32483
1765377720721,-0.8198242,-0.66259766,0.20996094,-21.42334,5.065918,7.2021484,0.0,0.0,0.0,-66.121216,49.81201,-42.32483
1765377720733,-0.8198242,-0.66259766,0.20996094,-21.42334,5.065918,7.2021484,0.0,0.0,0.0,-67.13196,50.03723,-40.847168
1765377720821,-0.90527344,-0.6743164,0.4399414,-27.404785,-11.352539,13.305664,0.0,0.0,0.0,-67.13196,50.03723,-40.847168
1765377720833,-0.90527344,-0.6743164,0.4399414,-27.404785,-11.352539,13.305664,0.0,0.0,0.0,-70.043335,51.080933,-40.638428
1765377720921,-0.5366211,-0.3564453,0.18408203,2.9296875,14.282227,-15.991211,0.0,0.0,0.0,-70.043335,51.080933,-40.638428
1765377720932,-0.5366211,-0.3564453,0.18408203,2.9296875,14.282227,-15.991211,0.0,0.0,0.0,-69.592896,50.685425,-38.616943
1765377721020,-1.0297852,-0.7578125,0.31347656,21.78955,9.765625,-14.831543,0.0,0.0,0.0,-69.592896,50.685425,-38.616943
1765377721032,-1.0297852,-0.7578125,0.31347656,21.78955,9.765625,-14.831543,0.0,0.0,0.0,-71.65283,50.03723,-40.786743
1765377721120,-0.6401367,-0.52685547,0.18359375,-1.0375977,-2.0751953,-11.962891,0.0,0.0,0.0,-71.65283,50.03723,-40.786743
1765377721132,-0.6401367,-0.52685547,0.18359375,-1.0375977,-2.0751953,-11.962891,0.0,0.0,0.0,-70.823364,47.90039,-42.302856
1765377721220,-0.8027344,-0.52490234,0.19726562,-16.967773,-50.842285,25.268555,0.0,0.0,0.0,-70.823364,47.90039,-42.302856
1765377721231,-0.8027344,-0.52490234,0.19726562,-16.967773,-50.842285,25.268555,0.0,0.0,0.0,-67.79114,47.839966,-35.84839
1765377721319,-0.81884766,-0.65478516,0.22998047,2.380371,-6.8969727,-1.159668,0.0,0.0,0.0,-67.79114,47.839966,-35.84839
1765377721332,-0.81884766,-0.65478516,0.22998047,2.380371,-6.8969727,-1.159668,0.0,0.0,0.0,-65.5719,48.09265,-31.937256
1765377721419,-0.75878906,-0.63134766,0.107910156,-22.338867,-7.080078,4.699707,0.0,0.0,0.0,-65.5719,48.09265,-31.937256
1765377721431,-0.75878906,-0.63134766,0.107910156,-22.338867,-7.080078,4.699707,0.0,0.0,0.0,-66.65405,48.24646,-32.58545
1765377721519,-0.8671875,-0.49658203,0.1796875,-17.578125,5.6762695,15.258789,0.0,0.0,0.0,-66.65405,48.24646,-32.58545
1765377721531,-0.8671875,-0.49658203,0.1796875,-17.578125,5.6762695,15.258789,0.0,0.0,0.0,-67.96692,49.44397,-31.453857
1765377721619,-0.9355469,-0.8828125,0.3334961,22.949219,42.907715,-19.16504,0.0,0.0,0.0,-67.96692,49.44397,-31.453857
1765377721630,-0.9355469,-0.8828125,0.3334961,22.949219,42.907715,-19.16504,0.0,0.0,0.0,-70.50476,50.31189,-36.50757
1765377721719,-0.6352539,-0.41796875,0.22216797,-18.554688,-14.770508,15.74707,0.0,0.0,0.0,-70.50476,50.31189,-36.50757
1765377721730,-0.6352539,-0.41796875,0.22216797,-18.554688,-14.770508,15.74707,0.0,0.0,0.0,-72.42737,50.289917,-39.001465
1765377721818,-0.7163086,-0.57470703,0.21582031,-15.136719,2.8076172,20.263672,0.0,0.0,0.0,-72.42737,50.289917,-39.001465
1765377721830,-0.7163086,-0.57470703,0.21582031,-15.136719,2.8076172,20.263672,0.0,0.0,0.0,-71.53198,52.404785,-35.145264
1765377721918,-0.66064453,-0.625,0.3334961,1.0375977,16.723633,-24.841309,0.0,0.0,0.0,-71.53198,52.404785,-35.145264
1765377721929,-0.66064453,-0.625,0.3334961,1.0375977,16.723633,-24.841309,0.0,0.0,0.0,-72.97119,51.102905,-36.864624
1765377722018,-0.83935547,-0.5864258,0.20166016,-6.591797,-54.626465,28.686523,0.0,0.0,0.0,-72.97119,51.102905,-36.864624
1765377722029,-0.83935547,-0.5864258,0.20166016,-6.591797,-54.626465,28.686523,0.0,0.0,0.0,-69.13696,51.1084,-30.020142
1765377722117,-0.6303711,-0.55908203,0.30615234,23.132324,5.6152344,-12.6953125,0.0,0.0,0.0,-69.13696,51.1084,-30.020142
1765377722129,-0.6303711,-0.55908203,0.30615234,23.132324,5.6152344,-12.6953125,0.0,0.0,0.0,-66.71997,50.795288,-28.806152
1765377722217,-0.7949219,-0.66845703,0.23925781,30.944824,18.859863,-21.362305,0.0,0.0,0.0,-66.71997,50.795288,-28.806152
1765377722228,-0.7949219,-0.66845703,0.23925781,30.944824,18.859863,-21.362305,0.0,0.0,0.0,-66.15967,49.438477,-31.607666
1765377722317,-0.72998047,-0.61865234,0.27783203,8.239746,-9.643555,1.4038086,0.0,0.0,0.0,-66.15967,49.438477,-31.607666
1765377722328,-0.72998047,-0.61865234,0.27783203,8.239746,-9.643555,1.4038086,0.0,0.0,0.0,-65.374146,48.933105,-32.49756
1765377722416,-0.75,-0.62646484,0.28222656,-0.79345703,7.873535,-5.3100586,0.0,0.0,0.0,-65.374146,48.933105,-32.49756
1765377722429,-0.75,-0.62646484,0.28222656,-0.79345703,7.873535,-5.3100586,0.0,0.0,0.0,-65.22583,48.466187,-32.321777
1765377722516,-0.75390625,-0.62109375,0.23779297,-4.699707,2.9907227,-1.7089844,0.0,0.0,0.0,-65.22583,48.466187,-32.321777
1765377722528,-0.75390625,-0.62109375,0.23779297,-4.699707,2.9907227,-1.7089844,0.0,0.0,0.0,-66.28052,48.466187,-32.700806
1765377722616,-0.74316406,-0.6147461,0.27783203,4.4555664,12.573242,-5.554199,0.0,0.0,0.0,-66.28052,48.466187,-32.700806
1765377722627,-0.74316406,-0.6147461,0.27783203,4.4555664,12.573242,-5.554199,0.0,0.0,0.0,-67.35718,48.323364,-33.90381
1765377722716,-0.7241211,-0.6542969,0.2290039,5.3100586,11.108398,-9.216309,0.0,0.0,0.0,-67.35718,48.323364,-33.90381
1765377722727,-0.7241211,-0.6542969,0.2290039,5.3100586,11.108398,-9.216309,0.0,0.0,0.0,-68.38989,48.03772,-35.74951
1765377722815,-0.7348633,-0.62402344,0.21826172,-7.1411133,0.48828125,1.4038086,0.0,0.0,0.0,-68.38989,48.03772,-35.74951
1765377722827,-0.7348633,-0.62402344,0.21826172,-7.1411133,0.48828125,1.4038086,0.0,0.0,0.0,-69.279785,47.77954,-35.97473
1765377722915,-0.70654297,-0.62353516,0.21533203,12.023926,-4.5166016,1.0375977,0.0,0.0,0.0,-69.279785,47.77954,-35.97473
1765377722927,-0.70654297,-0.62353516,0.21533203,12.023926,-4.5166016,1.0375977,0.0,0.0,0.0,-68.703,47.856445,-35.568237
1765377723015,-0.74609375,-0.62158203,0.19140625,0.61035156,-9.765625,11.535645,0.0,0.0,0.0,-68.703,47.856445,-35.568237
1765377723026,-0.74609375,-0.62158203,0.19140625,0.61035156,-9.765625,11.535645,0.0,0.0,0.0,-67.07703,47.98828,-34.12903
1765377723114,-0.75097656,-0.62402344,0.16259766,7.2631836,-2.1362305,7.446289,0.0,0.0,0.0,-67.07703,47.98828,-34.12903
1765377723126,-0.75097656,-0.62402344,0.16259766,7.2631836,-2.1362305,7.446289,0.0,0.0,0.0,-65.99487,48.757324,-33.024902
1765377723214,-0.7661133,-0.6533203,0.12158203,20.385742,2.0141602,-0.5493164,0.0,0.0,0.0,-65.99487,48.757324,-33.024902
1765377723226,-0.7661133,-0.6533203,0.12158203,20.385742,2.0141602,-0.5493164,0.0,0.0,0.0,-64.95117,49.020996,-34.299316
1765377723314,-0.79248047,-0.7080078,0.18017578,-13.916016,12.084961,6.958008,0.0,0.0,0.0,-64.95117,49.020996,-34.299316
1765377723326,-0.79248047,-0.7080078,0.18017578,-13.916016,12.084961,6.958008,0.0,0.0,0.0,-65.65979,49.691162,-36.260376
1765377723414,-0.85839844,-0.67626953,0.14501953,-36.8042,12.573242,3.479004,0.0,0.0,0.0,-65.65979,49.691162,-36.260376
1765377723425,-0.85839844,-0.67626953,0.14501953,-36.8042,12.573242,3.479004,0.0,0.0,0.0,-70.97168,50.59204,-40.2594
1765377723513,-0.84765625,-0.61328125,0.31640625,1.5258789,-38.269043,-0.36621094,0.0,0.0,0.0,-70.97168,50.59204,-40.2594
1765377723525,-0.84765625,-0.61328125,0.31640625,1.5258789,-38.269043,-0.36621094,0.0,0.0,0.0,-71.80664,50.57556,-38.605957
1765377723613,-0.56884766,-0.3930664,0.21777344,19.28711,-0.6713867,-26.611328,0.0,0.0,0.0,-71.80664,50.57556,-38.605957
1765377723624,-0.56884766,-0.3930664,0.21777344,19.28711,-0.6713867,-26.611328,0.0,0.0,0.0,-68.32947,48.389282,-36.73828
1765377723713,-0.8364258,-0.76708984,0.45996094,2.4414062,-26.916504,-14.099121,0.0,0.0,0.0,-68.32947,48.389282,-36.73828
1765377723725,-0.8364258,-0.76708984,0.45996094,2.4414062,-26.916504,-14.099121,0.0,0.0,0.0,-67.34619,46.257935,-36.150513
1765377723812,-0.7348633,-0.49267578,0.15625,-27.770996,-14.160156,1.5258789,0.0,0.0,0.0,-67.34619,46.257935,-36.150513
1765377723824,-0.7348633,-0.49267578,0.15625,-27.770996,-14.160156,1.5258789,0.0,0.0,0.0,-66.52222,43.780518,-33.49182
1765377723912,-0.77441406,-0.6279297,0.3251953,-3.6010742,-18.066406,7.019043,0.0,0.0,0.0,-66.52222,43.780518,-33.49182
1765377723924,-0.77441406,-0.6279297,0.3251953,-3.6010742,-18.066406,7.019043,0.0,0.0,0.0,-66.121216,44.5166,-29.888306
1765377724012,-0.74658203,-0.62841797,0.25195312,18.493652,25.634766,-13.48877,0.0,0.0,0.0,-66.121216,44.5166,-29.888306
1765377724024,-0.74658203,-0.62841797,0.25195312,18.493652,25.634766,-13.48877,0.0,0.0,0.0,-65.67627,44.26941,-30.997925
1765377724112,-0.7080078,-0.6538086,0.18554688,0.7324219,8.544922,6.286621,0.0,0.0,0.0,-65.67627,44.26941,-30.997925
1765377724123,-0.7080078,-0.6538086,0.18554688,0.7324219,8.544922,6.286621,0.0,0.0,0.0,-67.19238,45.0,-34.96399
1765377724211,-0.6791992,-0.60009766,0.22216797,-30.639648,-19.65332,11.291504,0.0,0.0,0.0,-67.19238,45.0,-34.96399
1765377724223,-0.6791992,-0.60009766,0.22216797,-30.639648,-19.65332,11.291504,0.0,0.0,0.0,-67.576904,45.90088,-32.788696
1765377724311,-0.91015625,-0.7363281,0.22021484,-37.719727,-5.3100586,2.380371,0.0,0.0,0.0,-67.576904,45.90088,-32.788696
1765377724323,-0.91015625,-0.7363281,0.22021484,-37.719727,-5.3100586,2.380371,0.0,0.0,0.0,-68.933716,45.48889,-30.10254
1765377724411,-0.47216797,-0.47460938,0.22607422,-27.893066,25.20752,0.0,0.0,0.0,0.0,-68.933716,45.48889,-30.10254
1765377724422,-0.47216797,-0.47460938,0.22607422,-27.893066,25.20752,0.0,0.0,0.0,0.0,-72.26257,46.30188,-32.145996
1765377724510,-0.7055664,-0.66503906,0.48291016,10.864258,-32.65381,22.033691,0.0,0.0,0.0,-72.26257,46.30188,-32.145996
1765377724522,-0.7055664,-0.66503906,0.48291016,10.864258,-32.65381,22.033691,0.0,0.0,0.0,-72.58118,47.6532,-30.585938
1765377724610,-0.7348633,-0.60595703,0.16699219,-3.2958984,7.9345703,2.9907227,0.0,0.0,0.0,-72.58118,47.6532,-30.585938
1765377724622,-0.7348633,-0.60595703,0.16699219,-3.2958984,7.9345703,2.9907227,0.0,0.0,0.0,-66.63208,46.724854,-24.483032
1765377724710,-0.6201172,-0.6489258,0.2998047,4.699707,-21.972656,15.686035,0.0,0.0,0.0,-66.63208,46.724854,-24.483032
1765377724721,-0.6201172,-0.6489258,0.2998047,4.699707,-21.972656,15.686035,0.0,0.0,0.0,-66.58264,48.554077,-23.12622
1765377724810,-0.8413086,-0.6118164,0.1694336,12.939453,16.113281,-16.113281,0.0,0.0,0.0,-66.58264,48.554077,-23.12622
1765377724821,-0.8413086,-0.6118164,0.1694336,12.939453,16.113281,-16.113281,0.0,0.0,0.0,-64.81384,47.29065,-22.269287
1765377724909,-0.78808594,-0.5917969,0.22753906,16.052246,22.033691,-0.61035156,0.0,0.0,0.0,-64.81384,47.29065,-22.269287
1765377724921,-0.78808594,-0.5917969,0.22753906,16.052246,22.033691,-0.61035156,0.0,0.0,0.0,-66.24756,47.680664,-25.773926
1765377725009,-0.66845703,-0.75097656,0.2397461,36.376953,50.1709,-31.37207,0.0,0.0,0.0,-66.24756,47.680664,-25.773926
1765377725021,-0.66845703,-0.75097656,0.2397461,36.376953,50.1709,-31.37207,0.0,0.0,0.0,-67.08252,47.609253,-31.300049
1765377725109,-0.82177734,-0.69970703,0.23535156,5.6152344,49.987793,-11.108398,0.0,0.0,0.0,-67.08252,47.609253,-31.300049
1765377725120,-0.82177734,-0.69970703,0.23535156,5.6152344,49.987793,-11.108398,0.0,0.0,0.0,-72.004395,47.005005,-40.720825
1765377725208,-0.43945312,-0.44873047,0.3149414,20.141602,13.183594,-7.751465,0.0,0.0,0.0,-72.004395,47.005005,-40.720825
1765377725220,-0.43945312,-0.44873047,0.3149414,20.141602,13.183594,-7.751465,0.0,0.0,0.0,-74.31702,47.235718,-44.066162
1765377725308,-0.8623047,-0.9086914,0.24121094,37.719727,1.5258789,-32.89795,0.0,0.0,0.0,-74.31702,47.235718,-44.066162
1765377725320,-0.8623047,-0.9086914,0.24121094,37.719727,1.5258789,-32.89795,0.0,0.0,0.0,-71.954956,46.07666,-42.253418
1765377725408,-0.56640625,-0.5595703,0.2602539,-7.751465,-4.9438477,-4.8828125,0.0,0.0,0.0,-71.954956,46.07666,-42.253418
1765377725420,-0.56640625,-0.5595703,0.2602539,-7.751465,-4.9438477,-4.8828125,0.0,0.0,0.0,-71.05957,43.36853,-43.253174
1765377725508,-0.7573242,-0.62890625,0.18164062,-7.507324,-52.246094,15.014648,0.0,0.0,0.0,-71.05957,43.36853,-43.253174
1765377725519,-0.7573242,-0.62890625,0.18164062,-7.507324,-52.246094,15.014648,0.0,0.0,0.0,-67.76367,42.91809,-36.11206
1765377725607,-0.6845703,-0.72265625,0.28955078,-1.0986328,-12.756348,3.9672852,0.0,0.0,0.0,-67.76367,42.91809,-36.11206
1765377725619,-0.6845703,-0.72265625,0.28955078,-1.0986328,-12.756348,3.9672852,0.0,0.0,0.0,-65.791626,43.027954,-31.569214
1765377725707,-0.64990234,-0.74316406,0.2578125,-25.024414,-45.166016,5.2490234,0.0,0.0,0.0,-65.791626,43.027954,-31.569214
1765377725719,-0.64990234,-0.74316406,0.2578125,-25.024414,-45.166016,5.2490234,0.0,0.0,0.0,-64.27551,41.868896,-26.47705
1765377725807,-0.7988281,-0.6376953,0.2709961,-35.339355,-34.973145,19.226074,0.0,0.0,0.0,-64.27551,41.868896,-26.47705
1765377725819,-0.7988281,-0.6376953,0.2709961,-35.339355,-34.973145,19.226074,0.0,0.0,0.0,-64.59961,41.610718,-20.390625
1765377725907,-0.7885742,-0.6567383,0.3149414,-10.7421875,1.953125,5.9814453,0.0,0.0,0.0,-64.59961,41.610718,-20.390625
1765377725919,-0.7885742,-0.6567383,0.3149414,-10.7421875,1.953125,5.9814453,0.0,0.0,0.0,-64.62158,42.165527,-17.929688
1765377726006,-0.6171875,-0.5751953,0.40429688,16.052246,29.23584,3.540039,0.0,0.0,0.0,-64.62158,42.165527,-17.929688
1765377726019,-0.6171875,-0.5751953,0.40429688,16.052246,29.23584,3.540039,0.0,0.0,0.0,-64.42932,43.12683,-20.170898
1765377726106,-0.6542969,-0.6269531,0.3017578,-4.5776367,1.953125,25.6958,0.0,0.0,0.0,-64.42932,43.12683,-20.170898
1765377726117,-0.6542969,-0.6269531,0.3017578,-4.5776367,1.953125,25.6958,0.0,0.0,0.0,-64.34143,45.565796,-20.170898
1765377726206,-0.65234375,-0.61816406,0.3149414,-31.37207,-10.864258,16.967773,0.0,0.0,0.0,-64.34143,45.565796,-20.170898
1765377726218,-0.65234375,-0.61816406,0.3149414,-31.37207,-10.864258,16.967773,0.0,0.0,0.0,-65.43457,46.988525,-18.006592
1765377726305,-0.7114258,-0.61621094,0.3647461,-17.51709,-44.921875,15.014648,0.0,0.0,0.0,-65.43457,46.988525,-18.006592
1765377726317,-0.7114258,-0.61621094,0.3647461,-17.51709,-44.921875,15.014648,0.0,0.0,0.0,-63.23181,46.757812,-11.80481
1765377726405,-0.7602539,-0.5917969,0.28955078,3.6010742,-9.765625,8.117676,0.0,0.0,0.0,-63.23181,46.757812,-11.80481
1765377726417,-0.7602539,-0.5917969,0.28955078,3.6010742,-9.765625,8.117676,0.0,0.0,0.0,-61.16638,46.73584,-8.267212
1765377726505,-0.7265625,-0.6098633,0.27539062,8.605957,-6.4697266,-0.061035156,0.0,0.0,0.0,-61.16638,46.73584,-8.267212
1765377726516,-0.7265625,-0.6098633,0.27539062,8.605957,-6.4697266,-0.061035156,0.0,0.0,0.0,-59.75464,46.75232,-7.8771973
1765377726605,-0.8129883,-0.6044922,0.26904297,11.108398,-0.061035156,1.4038086,0.0,0.0,0.0,-59.75464,46.75232,-7.8771973
1765377726616,-0.8129883,-0.6044922,0.26904297,11.108398,-0.061035156,1.4038086,0.0,0.0,0.0,-58.68347,46.49414,-8.278198
1765377726704,-0.7036133,-0.640625,0.22998047,7.385254,25.756836,9.887695,0.0,0.0,0.0,-58.68347,46.49414,-8.278198
1765377726716,-0.7036133,-0.640625,0.22998047,7.385254,25.756836,9.887695,0.0,0.0,0.0,-58.672485,48.218994,-10.349121
1765377726804,-0.7524414,-0.62060547,0.25878906,-14.465332,8.728027,3.4179688,0.0,0.0,0.0,-58.672485,48.218994,-10.349121
1765377726815,-0.7524414,-0.62060547,0.25878906,-14.465332,8.728027,3.4179688,0.0,0.0,0.0,-61.40808,49.400024,-13.7109375
1765377726904,-1.0102539,-0.63623047,0.3955078,-13.916016,32.592773,10.498047,0.0,0.0,0.0,-61.40808,49.400024,-13.7109375
1765377726915,-1.0102539,-0.63623047,0.3955078,-13.916016,32.592773,10.498047,0.0,0.0,0.0,-66.19812,50.861206,-17.281494
1765377727004,-0.51464844,-0.38916016,0.2783203,24.963379,29.846191,-23.4375,0.0,0.0,0.0,-66.19812,50.861206,-17.281494
1765377727015,-0.51464844,-0.38916016,0.2783203,24.963379,29.846191,-23.4375,0.0,0.0,0.0,-66.86279,51.30066,-21.500244
1765377727103,-0.8520508,-0.74072266,0.3671875,60.11963,50.29297,-38.45215,0.0,0.0,0.0,-66.86279,51.30066,-21.500244
1765377727115,-0.8520508,-0.74072266,0.3671875,60.11963,50.29297,-38.45215,0.0,0.0,0.0,-68.91724,50.05371,-28.284302
1765377727203,-0.74072266,-0.54345703,0.032226562,19.958496,41.07666,-22.399902,0.0,0.0,0.0,-68.91724,50.05371,-28.284302
1765377727214,-0.74072266,-0.54345703,0.032226562,19.958496,41.07666,-22.399902,0.0,0.0,0.0,-69.46655,47.6532,-35.793457
1765377727303,-0.7993164,-0.67871094,0.2006836,-36.315918,-42.419434,30.273438,0.0,0.0,0.0,-69.46655,47.6532,-35.793457
1765377727314,-0.7993164,-0.67871094,0.2006836,-36.315918,-42.419434,30.273438,0.0,0.0,0.0,-68.97217,49.37805,-31.876831
1765377727402,-0.7993164,-0.48779297,0.17285156,-5.2490234,-4.5776367,3.3569336,0.0,0.0,0.0,-68.97217,49.37805,-31.876831
1765377727414,-0.7993164,-0.48779297,0.17285156,-5.2490234,-4.5776367,3.3569336,0.0,0.0,0.0,-68.87329,49.641724,-29.94873
1765377727502,-0.80126953,-0.54003906,0.24707031,-1.4648438,-0.4272461,20.874023,0.0,0.0,0.0,-68.87329,49.641724,-29.94873
1765377727513,-0.80126953,-0.54003906,0.24707031,-1.4648438,-0.4272461,20.874023,0.0,0.0,0.0,-68.97217,51.30066,-29.87732
1765377727602,-0.9453125,-0.51708984,0.16259766,19.28711,14.953613,14.6484375,0.0,0.0,0.0,-68.97217,51.30066,-29.87732
1765377727613,-0.9453125,-0.51708984,0.16259766,19.28711,14.953613,14.6484375,0.0,0.0,0.0,-67.02759,53.305664,-30.06958
1765377727701,-0.8120117,-0.5498047,0.22607422,14.343262,33.325195,13.61084,0.0,0.0,0.0,-67.02759,53.305664,-30.06958
1765377727713,-0.8120117,-0.5498047,0.22607422,14.343262,33.325195,13.61084,0.0,0.0,0.0,-68.56018,55.51941,-35.112305
1765377727801,-0.6826172,-0.4267578,0.27978516,-14.709473,-10.620117,35.339355,0.0,0.0,0.0,-68.56018,55.51941,-35.112305
1765377727813,-0.6826172,-0.4267578,0.27978516,-14.709473,-10.620117,35.339355,0.0,0.0,0.0,-68.50525,58.31543,-35.15625
1765377727901,-0.88134766,-0.6479492,0.296875,5.2490234,-7.1411133,-1.953125,0.0,0.0,0.0,-68.50525,58.31543,-35.15625
1765377727913,-0.88134766,-0.6479492,0.296875,5.2490234,-7.1411133,-1.953125,0.0,0.0,0.0,-65.59387,59.205322,-31.5802
1765377728001,-0.8779297,-0.4423828,0.18164062,-44.49463,-11.657715,29.052734,0.0,0.0,0.0,-65.59387,59.205322,-31.5802
1765377728012,-0.8779297,-0.4423828,0.18164062,-44.49463,-11.657715,29.052734,0.0,0.0,0.0,-65.69275,59.60083,-29.66858
1765377728100,-0.7841797,-0.50927734,0.24951172,-3.540039,-6.0424805,-2.1362305,0.0,0.0,0.0,-65.69275,59.60083,-29.66858
1765377728112,-0.7841797,-0.50927734,0.24951172,-3.540039,-6.0424805,-2.1362305,0.0,0.0,0.0,-65.69824,60.858765,-26.921997
1765377728200,-0.8803711,-0.47705078,0.1928711,9.216309,4.8217773,-9.094238,0.0,0.0,0.0,-65.69824,60.858765,-26.921997
1765377728211,-0.8803711,-0.47705078,0.1928711,9.216309,4.8217773,-9.094238,0.0,0.0,0.0,-65.8136,59.28772,-28.586426
1765377728300,-0.8208008,-0.4321289,0.19628906,2.4414062,-7.5683594,-0.79345703,0.0,0.0,0.0,-65.8136,59.28772,-28.586426
1765377728311,-0.8208008,-0.4321289,0.19628906,2.4414062,-7.5683594,-0.79345703,0.0,0.0,0.0,-65.87952,59.0625,-30.064087
1765377728399,-0.8798828,-0.45898438,0.24072266,-3.540039,-8.972168,0.4272461,0.0,0.0,0.0,-65.87952,59.0625,-30.064087
1765377728411,-0.8798828,-0.45898438,0.24072266,-3.540039,-8.972168,0.4272461,0.0,0.0,0.0,-64.297485,58.59558,-29.168701
1765377728499,-0.85009766,-0.45166016,0.2241211,6.652832,-5.92041,-0.7324219,0.0,0.0,0.0,-64.297485,58.59558,-29.168701
1765377728511,-0.85009766,-0.45166016,0.2241211,6.652832,-5.92041,-0.7324219,0.0,0.0,0.0,-62.957153,58.45276,-28.569946
1765377728599,-0.8232422,-0.45898438,0.25878906,1.5258789,-11.413574,-2.2583008,0.0,0.0,0.0,-62.957153,58.45276,-28.569946
1765377728610,-0.8232422,-0.45898438,0.25878906,1.5258789,-11.413574,-2.2583008,0.0,0.0,0.0,-61.523438,57.88147,-28.33374
1765377728699,-0.8618164,-0.4555664,0.2602539,-0.4272461,-7.873535,-3.479004,0.0,0.0,0.0,-61.523438,57.88147,-28.33374
1765377728710,-0.8618164,-0.4555664,0.2602539,-0.4272461,-7.873535,-3.479004,0.0,0.0,0.0,-60.095215,57.139893,-27.262573
1765377728798,-0.8642578,-0.4345703,0.26904297,8.666992,-4.638672,-5.1879883,0.0,0.0,0.0,-60.095215,57.139893,-27.262573
1765377728810,-0.8642578,-0.4345703,0.26904297,8.666992,-4.638672,-5.1879883,0.0,0.0,0.0,-59.331665,56.68396,-27.388916
1765377728898,-0.8354492,-0.46728516,0.2944336,16.906738,-1.2207031,-8.850098,0.0,0.0,0.0,-59.331665,56.68396,-27.388916
1765377728910,-0.8354492,-0.46728516,0.2944336,16.906738,-1.2207031,-8.850098,0.0,0.0,0.0,-58.00232,55.980835,-28.053589
1765377728998,-0.8100586,-0.5107422,0.30859375,13.48877,-5.1879883,-10.131836,0.0,0.0,0.0,-58.00232,55.980835,-28.053589
1765377729009,-0.8100586,-0.5107422,0.30859375,13.48877,-5.1879883,-10.131836,0.0,0.0,0.0,-57.32666,55.283203,-29.333496
1765377729097,-0.76904297,-0.50097656,0.34472656,-0.4272461,-23.742676,-9.643555,0.0,0.0,0.0,-57.32666,55.283203,-29.333496
1765377729109,-0.76904297,-0.50097656,0.34472656,-0.4272461,-23.742676,-9.643555,0.0,0.0,0.0,-55.684204,53.54187,-28.515015
1765377729197,-0.80615234,-0.5053711,0.3251953,-7.751465,-20.385742,2.319336,0.0,0.0,0.0,-55.684204,53.54187,-28.515015
1765377729209,-0.80615234,-0.5053711,0.3251953,-7.751465,-20.385742,2.319336,0.0,0.0,0.0,-53.876953,51.954346,-25.22461
1765377729297,-0.81396484,-0.46972656,0.30322266,-0.12207031,-5.2490234,4.760742,0.0,0.0,0.0,-53.876953,51.954346,-25.22461
1765377729308,-0.81396484,-0.46972656,0.30322266,-0.12207031,-5.2490234,4.760742,0.0,0.0,0.0,-52.926636,51.44348,-23.60962
1765377729397,-0.8022461,-0.47070312,0.3022461,1.7700195,-11.901855,6.164551,0.0,0.0,0.0,-52.926636,51.44348,-23.60962
1765377729408,-0.8022461,-0.47070312,0.3022461,1.7700195,-11.901855,6.164551,0.0,0.0,0.0,-51.696167,51.68518,-22.384644
1765377729496,-0.8383789,-0.4555664,0.34326172,-0.48828125,-6.591797,5.92041,0.0,0.0,0.0,-51.696167,51.68518,-22.384644
1765377729508,-0.8383789,-0.4555664,0.34326172,-0.48828125,-6.591797,5.92041,0.0,0.0,0.0,-50.322876,51.641235,-20.79712
1765377729596,-0.8256836,-0.48828125,0.34423828,4.699707,10.803223,-0.79345703,0.0,0.0,0.0,-50.322876,51.641235,-20.79712
1765377729608,-0.8256836,-0.48828125,0.34423828,4.699707,10.803223,-0.79345703,0.0,0.0,0.0,-50.355835,52.278442,-21.253052
1765377729696,-0.90478516,-0.6176758,0.23876953,11.71875,23.254395,-12.145996,0.0,0.0,0.0,-50.355835,52.278442,-21.253052
1765377729708,-0.90478516,-0.6176758,0.23876953,11.71875,23.254395,-12.145996,0.0,0.0,0.0,-52.025757,53.080444,-24.466553
1765377729796,-0.8144531,-0.69189453,0.37402344,-1.3427734,2.9296875,-22.216797,0.0,0.0,0.0,-52.025757,53.080444,-24.466553
1765377729807,-0.8144531,-0.69189453,0.37402344,-1.3427734,2.9296875,-22.216797,0.0,0.0,0.0,-54.63501,52.5531,-29.42688
1765377729895,-0.8461914,-0.49951172,0.2709961,-45.288086,-6.7749023,-2.0751953,0.0,0.0,0.0,-54.63501,52.5531,-29.42688
1765377729907,-0.8461914,-0.49951172,0.2709961,-45.288086,-6.7749023,-2.0751953,0.0,0.0,0.0,-57.947388,51.020508,-30.580444
1765377729995,-0.6254883,-0.31152344,0.36865234,-25.57373,0.061035156,5.432129,0.0,0.0,0.0,-57.947388,51.020508,-30.580444
1765377730007,-0.6254883,-0.31152344,0.36865234,-25.57373,0.061035156,5.432129,0.0,0.0,0.0,-61.375122,51.98181,-29.987183
1765377730095,-0.5996094,-0.5805664,0.59814453,-13.183594,-22.216797,-7.8125,0.0,0.0,0.0,-61.375122,51.98181,-29.987183
1765377730106,-0.5996094,-0.5805664,0.59814453,-13.183594,-22.216797,-7.8125,0.0,0.0,0.0,-61.06201,51.036987,-27.636108
1765377730194,-0.8071289,-0.53564453,0.076171875,35.217285,40.405273,-52.79541,0.0,0.0,0.0,-61.06201,51.036987,-27.636108
1765377730206,-0.8071289,-0.53564453,0.076171875,35.217285,40.405273,-52.79541,0.0,0.0,0.0,-61.138916,47.235718,-30.805664
1765377730294,-0.8076172,-0.53222656,0.23876953,23.864746,57.9834,-27.648926,0.0,0.0,0.0,-61.138916,47.235718,-30.805664
1765377730306,-0.8076172,-0.53222656,0.23876953,23.864746,57.9834,-27.648926,0.0,0.0,0.0,-65.74768,46.68091,-39.42444
1765377730394,-0.7211914,-0.79833984,0.12988281,-24.414062,-41.19873,8.483887,0.0,0.0,0.0,-65.74768,46.68091,-39.42444
1765377730406,-0.7211914,-0.79833984,0.12988281,-24.414062,-41.19873,8.483887,0.0,0.0,0.0,-63.984375,46.444702,-35.013428
1765377730494,-0.75683594,-0.5541992,0.14990234,-26.367188,2.319336,-6.958008,0.0,0.0,0.0,-63.984375,46.444702,-35.013428
1765377730505,-0.75683594,-0.5541992,0.14990234,-26.367188,2.319336,-6.958008,0.0,0.0,0.0,-67.093506,45.74707,-35.46936
1765377730593,-0.87158203,-0.6347656,0.19091797,-31.066895,-13.977051,13.427734,0.0,0.0,0.0,-67.093506,45.74707,-35.46936
1765377730605,-0.87158203,-0.6347656,0.19091797,-31.066895,-13.977051,13.427734,0.0,0.0,0.0,-68.99414,46.323853,-34.420166
1765377730693,-0.89990234,-0.67822266,0.1381836,-20.141602,8.972168,14.892578,0.0,0.0,0.0,-68.99414,46.323853,-34.420166
1765377730705,-0.89990234,-0.67822266,0.1381836,-20.141602,8.972168,14.892578,0.0,0.0,0.0,-70.22461,47.96631,-33.64563
1765377730793,-0.6894531,-0.6723633,0.38671875,-6.0424805,7.9956055,10.559082,0.0,0.0,0.0,-70.22461,47.96631,-33.64563
1765377730804,-0.6894531,-0.6723633,0.38671875,-6.0424805,7.9956055,10.559082,0.0,0.0,0.0,-73.59192,49.729614,-36.28784
1765377730893,-0.6044922,-0.5234375,0.39794922,0.30517578,-19.28711,28.320312,0.0,0.0,0.0,-73.59192,49.729614,-36.28784
1765377730904,-0.6044922,-0.5234375,0.39794922,0.30517578,-19.28711,28.320312,0.0,0.0,0.0,-70.41687,50.751343,-32.140503
1765377730992,-0.75878906,-0.640625,0.29541016,10.681152,-15.563965,3.8452148,0.0,0.0,0.0,-70.41687,50.751343,-32.140503
1765377731004,-0.75878906,-0.640625,0.29541016,10.681152,-15.563965,3.8452148,0.0,0.0,0.0,-65.88501,51.487427,-26.42212
1765377731092,-0.65478516,-0.5361328,0.35742188,2.319336,-4.3945312,-3.479004,0.0,0.0,0.0,-65.88501,51.487427,-26.42212
1765377731103,-0.65478516,-0.5361328,0.35742188,2.319336,-4.3945312,-3.479004,0.0,0.0,0.0,-64.09424,50.635986,-25.147705
1765377731192,-0.8178711,-0.6333008,0.31689453,12.390137,18.859863,-11.291504,0.0,0.0,0.0,-64.09424,50.635986,-25.147705
1765377731203,-0.8178711,-0.6333008,0.31689453,12.390137,18.859863,-11.291504,0.0,0.0,0.0,-64.30298,50.07019,-25.5542
1765377731291,-0.7524414,-0.5473633,0.24511719,11.352539,16.906738,0.18310547,0.0,0.0,0.0,-64.30298,50.07019,-25.5542
1765377731303,-0.7524414,-0.5473633,0.24511719,11.352539,16.906738,0.18310547,0.0,0.0,0.0,-65.599365,50.317383,-28.57544
1765377731391,-0.72998047,-0.61035156,0.25976562,7.9956055,3.540039,-1.2207031,0.0,0.0,0.0,-65.599365,50.317383,-28.57544
1765377731403,-0.72998047,-0.61035156,0.25976562,7.9956055,3.540039,-1.2207031,0.0,0.0,0.0,-65.61035,50.625,-29.783936
1765377731491,-0.74121094,-0.5786133,0.2763672,11.535645,-9.58252,2.5634766,0.0,0.0,0.0,-65.61035,50.625,-29.783936
1765377731503,-0.74121094,-0.5786133,0.2763672,11.535645,-9.58252,2.5634766,0.0,0.0,0.0,-64.35242,50.476685,-28.97644
1765377731591,-0.7211914,-0.6142578,0.2915039,3.90625,-10.925293,1.0986328,0.0,0.0,0.0,-64.35242,50.476685,-28.97644
1765377731602,-0.7211914,-0.6142578,0.2915039,3.90625,-10.925293,1.0986328,0.0,0.0,0.0,-62.144165,49.905396,-27.202148
1765377731690,-0.7392578,-0.57958984,0.3017578,-8.605957,-26.428223,6.652832,0.0,0.0,0.0,-62.144165,49.905396,-27.202148
1765377731702,-0.7392578,-0.57958984,0.3017578,-8.605957,-26.428223,6.652832,0.0,0.0,0.0,-60.55664,49.361572,-24.136963
1765377731790,-0.7529297,-0.5566406,0.3251953,-1.7089844,-21.1792,1.953125,0.0,0.0,0.0,-60.55664,49.361572,-24.136963
1765377731801,-0.7529297,-0.5566406,0.3251953,-1.7089844,-21.1792,1.953125,0.0,0.0,0.0,-58.36487,48.411255,-20.484009
1765377731890,-0.75341797,-0.55566406,0.35839844,5.92041,-10.803223,-1.5869141,0.0,0.0,0.0,-58.36487,48.411255,-20.484009
1765377731901,-0.75341797,-0.55566406,0.35839844,5.92041,-10.803223,-1.5869141,0.0,0.0,0.0,-56.83777,47.686157,-18.841553
1765377731989,-0.7451172,-0.5488281,0.3540039,7.446289,-3.479004,-3.1738281,0.0,0.0,0.0,-56.83777,47.686157,-18.841553
1765377732001,-0.7451172,-0.5488281,0.3540039,7.446289,-3.479004,-3.1738281,0.0,0.0,0.0,-55.733643,47.180786,-18.330688
1765377732089,-0.7475586,-0.5488281,0.36523438,6.4086914,1.159668,-0.48828125,0.0,0.0,0.0,-55.733643,47.180786,-18.330688
1765377732101,-0.7475586,-0.5488281,0.36523438,6.4086914,1.159668,-0.48828125,0.0,0.0,0.0,-55.24475,47.08191,-18.511963
1765377732189,-0.7480469,-0.56884766,0.3671875,10.131836,-0.36621094,-0.79345703,0.0,0.0,0.0,-55.24475,47.08191,-18.511963
1765377732201,-0.7480469,-0.56884766,0.3671875,10.131836,-0.36621094,-0.79345703,0.0,0.0,0.0,-54.541626,47.092896,-18.616333
1765377732289,-0.6972656,-0.56152344,0.4189453,10.253906,-6.8969727,0.91552734,0.0,0.0,0.0,-54.541626,47.092896,-18.616333
1765377732300,-0.6972656,-0.56152344,0.4189453,10.253906,-6.8969727,0.91552734,0.0,0.0,0.0,-53.464966,47.01599,-18.36914
1765377732388,-0.7285156,-0.56591797,0.40966797,7.6293945,-8.422852,2.9296875,0.0,0.0,0.0,-53.464966,47.01599,-18.36914
1765377732400,-0.7285156,-0.56591797,0.40966797,7.6293945,-8.422852,2.9296875,0.0,0.0,0.0,-51.65222,46.54358,-16.710205
1765377732488,-0.7368164,-0.52490234,0.4091797,9.094238,-4.4555664,2.6855469,0.0,0.0,0.0,-51.65222,46.54358,-16.710205
1765377732499,-0.7368164,-0.52490234,0.4091797,9.094238,-4.4555664,2.6855469,0.0,0.0,0.0,-50.234985,46.378784,-15.441284
1765377732588,-0.7783203,-0.5786133,0.38720703,10.253906,11.535645,-2.6855469,0.0,0.0,0.0,-50.234985,46.378784,-15.441284
1765377732599,-0.7783203,-0.5786133,0.38720703,10.253906,11.535645,-2.6855469,0.0,0.0,0.0,-49.553833,46.549072,-15.534668
1765377732688,-0.8417969,-0.5996094,0.265625,1.2207031,38.45215,-10.375977,0.0,0.0,0.0,-49.553833,46.549072,-15.534668
1765377732700,-0.8417969,-0.5996094,0.265625,1.2207031,38.45215,-10.375977,0.0,0.0,0.0,-52.01477,47.79602,-19.489746
1765377732787,-0.79296875,-0.6479492,0.35986328,-12.6953125,23.986816,-9.94873,0.0,0.0,0.0,-52.01477,47.79602,-19.489746
1765377732799,-0.79296875,-0.6479492,0.35986328,-12.6953125,23.986816,-9.94873,0.0,0.0,0.0,-56.914673,49.08142,-25.43335
1765377732887,-0.828125,-0.5390625,0.3251953,-27.893066,-9.765625,13.549805,0.0,0.0,0.0,-56.914673,49.08142,-25.43335
1765377732899,-0.828125,-0.5390625,0.3251953,-27.893066,-9.765625,13.549805,0.0,0.0,0.0,-59.282227,49.152832,-25.691528
1765377732987,-0.67529297,-0.5366211,0.3310547,-2.380371,-10.009766,-2.4414062,0.0,0.0,0.0,-59.282227,49.152832,-25.691528
1765377732998,-0.67529297,-0.5366211,0.3310547,-2.380371,-10.009766,-2.4414062,0.0,0.0,0.0,-59.386597,49.663696,-23.90625
1765377733086,-0.6767578,-0.50097656,0.38623047,-5.493164,-21.78955,-9.70459,0.0,0.0,0.0,-59.386597,49.663696,-23.90625
1765377733098,-0.6767578,-0.50097656,0.38623047,-5.493164,-21.78955,-9.70459,0.0,0.0,0.0,-58.650513,48.081665,-22.714233
1765377733186,-0.6748047,-0.47265625,0.4584961,-11.779785,-39.367676,6.7749023,0.0,0.0,0.0,-58.650513,48.081665,-22.714233
1765377733198,-0.6748047,-0.47265625,0.4584961,-11.779785,-39.367676,6.7749023,0.0,0.0,0.0,-56.497192,46.170044,-18.198853
1765377733286,-0.6191406,-0.5673828,0.4951172,-4.333496,-33.935547,6.4697266,0.0,0.0,0.0,-56.497192,46.170044,-18.198853
1765377733297,-0.6191406,-0.5673828,0.4951172,-4.333496,-33.935547,6.4697266,0.0,0.0,0.0,-53.569336,44.77478,-12.491455
1765377733386,-0.6958008,-0.5332031,0.48046875,10.253906,-24.475098,-7.6904297,0.0,0.0,0.0,-53.569336,44.77478,-12.491455
1765377733397,-0.6958008,-0.5332031,0.48046875,10.253906,-24.475098,-7.6904297,0.0,0.0,0.0,-50.614014,42.802734,-8.778076
1765377733485,-0.65185547,-0.5288086,0.5024414,16.052246,-14.770508,-13.793945,0.0,0.0,0.0,-50.614014,42.802734,-8.778076
1765377733497,-0.65185547,-0.5288086,0.5024414,16.052246,-14.770508,-13.793945,0.0,0.0,0.0,-48.35083,40.704346,-7.272949
1765377733585,-0.6123047,-0.56689453,0.55078125,19.592285,-10.009766,-21.240234,0.0,0.0,0.0,-48.35083,40.704346,-7.272949
1765377733596,-0.6123047,-0.56689453,0.55078125,19.592285,-10.009766,-21.240234,0.0,0.0,0.0,-46.796265,38.831177,-7.338867
1765377733685,-0.5957031,-0.58691406,0.5571289,18.188477,-14.587402,-14.770508,0.0,0.0,0.0,-46.796265,38.831177,-7.338867
1765377733697,-0.5957031,-0.58691406,0.5571289,18.188477,-14.587402,-14.770508,0.0,0.0,0.0,-45.214233,36.61194,-7.300415
1765377733785,-0.6069336,-0.5942383,0.52734375,9.765625,-17.028809,-9.155273,0.0,0.0,0.0,-45.214233,36.61194,-7.300415
1765377733796,-0.6069336,-0.5942383,0.52734375,9.765625,-17.028809,-9.155273,0.0,0.0,0.0,-43.687134,34.81018,-6.361084
1765377733884,-0.5878906,-0.5991211,0.56103516,-8.422852,-7.2021484,-2.5024414,0.0,0.0,0.0,-43.687134,34.81018,-6.361084
1765377733896,-0.5878906,-0.5991211,0.56103516,-8.422852,-7.2021484,-2.5024414,0.0,0.0,0.0,-43.33557,33.502808,-5.2075195
1765377733984,-0.55810547,-0.5727539,0.59277344,-16.601562,-3.112793,6.225586,0.0,0.0,0.0,-43.33557,33.502808,-5.2075195
1765377733995,-0.55810547,-0.5727539,0.59277344,-16.601562,-3.112793,6.225586,0.0,0.0,0.0,-44.62097,33.49182,-4.125366
1765377734084,-0.56103516,-0.5776367,0.5888672,-3.2958984,-0.9765625,7.6904297,0.0,0.0,0.0,-44.62097,33.49182,-4.125366
1765377734095,-0.56103516,-0.5776367,0.5888672,-3.2958984,-0.9765625,7.6904297,0.0,0.0,0.0,-45.291138,33.980713,-2.8125
1765377734183,-0.5732422,-0.60253906,0.57958984,3.1738281,-3.0517578,6.652832,0.0,0.0,0.0,-45.291138,33.980713,-2.8125
1765377734195,-0.5732422,-0.60253906,0.57958984,3.1738281,-3.0517578,6.652832,0.0,0.0,0.0,-44.708862,34.293823,-1.4447021
1765377734283,-0.62646484,-0.6196289,0.546875,-2.1972656,2.1362305,7.9345703,0.0,0.0,0.0,-44.708862,34.293823,-1.4447021
1765377734294,-0.62646484,-0.6196289,0.546875,-2.1972656,2.1362305,7.9345703,0.0,0.0,0.0,-44.362793,34.782715,-0.335083
1765377734383,-0.68896484,-0.64453125,0.5932617,-19.348145,9.887695,24.047852,0.0,0.0,0.0,-44.362793,34.782715,-0.335083
1765377734394,-0.68896484,-0.64453125,0.5932617,-19.348145,9.887695,24.047852,0.0,0.0,0.0,-45.390015,36.677856,0.703125
1765377734482,-0.6586914,-0.57910156,0.58447266,8.728027,2.2583008,5.065918,0.0,0.0,0.0,-45.390015,36.677856,0.703125
1765377734494,-0.6586914,-0.57910156,0.58447266,8.728027,2.2583008,5.065918,0.0,0.0,0.0,-45.351562,38.007202,1.6259766
1765377734582,-0.58691406,-0.4892578,0.4580078,11.352539,8.605957,-3.112793,0.0,0.0,0.0,-45.351562,38.007202,1.6259766
1765377734594,-0.58691406,-0.4892578,0.4580078,11.352539,8.605957,-3.112793,0.0,0.0,0.0,-44.280396,38.413696,1.2304688
1765377734682,-0.58935547,-0.53808594,0.59472656,-34.42383,26.794434,11.108398,0.0,0.0,0.0,-44.280396,38.413696,1.2304688
1765377734693,-0.58935547,-0.53808594,0.59472656,-34.42383,26.794434,11.108398,0.0,0.0,0.0,-46.955566,40.094604,-0.20874023
1765377734782,-0.60009766,-0.48779297,0.6352539,-7.446289,2.8686523,13.183594,0.0,0.0,0.0,-46.955566,40.094604,-0.20874023
1765377734793,-0.60009766,-0.48779297,0.6352539,-7.446289,2.8686523,13.183594,0.0,0.0,0.0,-49.262695,42.055664,-0.26367188
1765377734881,-0.6088867,-0.5336914,0.60058594,34.606934,-35.03418,1.7700195,0.0,0.0,0.0,-49.262695,42.055664,-0.26367188
1765377734893,-0.6088867,-0.5336914,0.60058594,34.606934,-35.03418,1.7700195,0.0,0.0,0.0,-44.961548,40.81421,3.0541992
1765377734981,-0.59521484,-0.53222656,0.50683594,32.65381,-19.958496,-6.164551,0.0,0.0,0.0,-44.961548,40.81421,3.0541992
1765377734993,-0.59521484,-0.53222656,0.50683594,32.65381,-19.958496,-6.164551,0.0,0.0,0.0,-39.468384,38.17749,5.19104
1765377735081,-0.63378906,-0.5415039,0.6171875,-13.366699,11.779785,5.432129,0.0,0.0,0.0,-39.468384,38.17749,5.19104
1765377735093,-0.63378906,-0.5415039,0.6171875,-13.366699,11.779785,5.432129,0.0,0.0,0.0,-39.292603,38.55652,5.1361084
1765377735181,-0.6069336,-0.51953125,0.67578125,-11.352539,7.2631836,12.634277,0.0,0.0,0.0,-39.292603,38.55652,5.1361084
1765377735193,-0.6069336,-0.51953125,0.67578125,-11.352539,7.2631836,12.634277,0.0,0.0,0.0,-40.91858,39.935303,5.1361084
1765377735280,-0.6772461,-0.54541016,0.63720703,33.935547,-39.0625,-14.038086,0.0,0.0,0.0,-40.91858,39.935303,5.1361084
1765377735292,-0.6772461,-0.54541016,0.63720703,33.935547,-39.0625,-14.038086,0.0,0.0,0.0,-38.292847,38.336792,6.723633
1765377735380,-0.70947266,-0.5488281,0.51660156,39.0625,-37.475586,-10.925293,0.0,0.0,0.0,-38.292847,38.336792,6.723633
1765377735391,-0.70947266,-0.5488281,0.51660156,39.0625,-37.475586,-10.925293,0.0,0.0,0.0,-33.310547,34.249878,8.267212
1765377735480,-0.7475586,-0.5854492,0.57128906,-29.174805,33.14209,13.61084,0.0,0.0,0.0,-33.310547,34.249878,8.267212
1765377735491,-0.7475586,-0.5854492,0.57128906,-29.174805,33.14209,13.61084,0.0,0.0,0.0,-33.83789,35.024414,7.608032
1765377735579,-0.7680664,-0.5654297,0.6386719,-24.475098,28.686523,11.901855,0.0,0.0,0.0,-33.83789,35.024414,7.608032
1765377735591,-0.7680664,-0.5654297,0.6386719,-24.475098,28.686523,11.901855,0.0,0.0,0.0,-38.254395,39.2157,6.020508
1765377735679,-0.6538086,-0.4321289,0.49414062,-33.935547,50.53711,-2.2583008,0.0,0.0,0.0,-38.254395,39.2157,6.020508
1765377735691,-0.6538086,-0.4321289,0.49414062,-33.935547,50.53711,-2.2583008,0.0,0.0,0.0,-42.27539,41.879883,2.9223633
1765377735779,-0.53564453,-0.41992188,0.6645508,-44.49463,61.828613,6.286621,0.0,0.0,0.0,-42.27539,41.879883,2.9223633
1765377735790,-0.53564453,-0.41992188,0.6645508,-44.49463,61.828613,6.286621,0.0,0.0,0.0,-50.65796,46.274414,-2.7960205
1765377735879,-0.5942383,-0.5576172,0.58203125,42.907715,-7.507324,-31.066895,0.0,0.0,0.0,-50.65796,46.274414,-2.7960205
1765377735890,-0.5942383,-0.5576172,0.58203125,42.907715,-7.507324,-31.066895,0.0,0.0,0.0,-52.278442,46.713867,-6.2841797
1765377735978,-0.8149414,-0.6479492,0.25048828,34.179688,47.790527,-61.035156,0.0,0.0,0.0,-52.278442,46.713867,-6.2841797
1765377735990,-0.8149414,-0.6479492,0.25048828,34.179688,47.790527,-61.035156,0.0,0.0,0.0,-49.746094,42.27539,-11.288452
1765377736078,-0.78515625,-0.5810547,0.4819336,-9.460449,49.37744,4.699707,0.0,0.0,0.0,-49.746094,42.27539,-11.288452
1765377736090,-0.78515625,-0.5810547,0.4819336,-9.460449,49.37744,4.699707,0.0,0.0,0.0,-55.030518,44.18701,-19.215088
1765377736178,-0.66748047,-0.6225586,0.17626953,-20.385742,19.77539,-1.4648438,0.0,0.0,0.0,-55.030518,44.18701,-19.215088
1765377736190,-0.66748047,-0.6225586,0.17626953,-20.385742,19.77539,-1.4648438,0.0,0.0,0.0,-57.139893,45.53833,-20.368652
1765377736278,-0.6660156,-0.48486328,0.20117188,-69.51904,-13.549805,27.038574,0.0,0.0,0.0,-57.139893,45.53833,-20.368652
1765377736289,-0.6660156,-0.48486328,0.20117188,-69.51904,-13.549805,27.038574,0.0,0.0,0.0,-62.25952,47.373047,-20.286255
1765377736377,-0.8598633,-0.8544922,0.58496094,-53.222656,-33.203125,21.30127,0.0,0.0,0.0,-62.25952,47.373047,-20.286255
1765377736389,-0.8598633,-0.8544922,0.58496094,-53.222656,-33.203125,21.30127,0.0,0.0,0.0,-65.86304,49.020996,-15.611572
1765377736477,-0.671875,-0.4404297,0.39453125,-20.996094,-53.833008,15.563965,0.0,0.0,0.0,-65.86304,49.020996,-15.611572
1765377736489,-0.671875,-0.4404297,0.39453125,-20.996094,-53.833008,15.563965,0.0,0.0,0.0,-64.176636,47.911377,-8.157349
1765377736577,-0.85839844,-0.65185547,0.16064453,24.291992,8.544922,-10.498047,0.0,0.0,0.0,-64.176636,47.911377,-8.157349
1765377736588,-0.85839844,-0.65185547,0.16064453,24.291992,8.544922,-10.498047,0.0,0.0,0.0,-57.15088,46.867676,-1.1315918
1765377736676,-0.6381836,-0.51416016,0.34179688,52.856445,44.37256,-20.996094,0.0,0.0,0.0,-57.15088,46.867676,-1.1315918
1765377736688,-0.6381836,-0.51416016,0.34179688,52.856445,44.37256,-20.996094,0.0,0.0,0.0,-58.38684,47.03247,-8.151855
1765377736776,-0.60009766,-0.8071289,0.31201172,40.405273,82.336426,-38.085938,0.0,0.0,0.0,-58.38684,47.03247,-8.151855
1765377736788,-0.60009766,-0.8071289,0.31201172,40.405273,82.336426,-38.085938,0.0,0.0,0.0,-59.381104,47.76306,-17.753906
1765377736876,-0.72509766,-0.6035156,0.21386719,-47.302246,18.432617,13.183594,0.0,0.0,0.0,-59.381104,47.76306,-17.753906
1765377736887,-0.72509766,-0.6035156,0.21386719,-47.302246,18.432617,13.183594,0.0,0.0,0.0,-68.444824,48.867188,-28.811646
1765377736976,-1.0830078,-0.6982422,0.5644531,-16.601562,-5.859375,10.437012,0.0,0.0,0.0,-68.444824,48.867188,-28.811646
1765377736987,-1.0830078,-0.6982422,0.5644531,-16.601562,-5.859375,10.437012,0.0,0.0,0.0,-70.14221,50.427246,-25.40039
1765377737075,-0.40429688,-0.25732422,0.1850586,13.48877,43.518066,-19.470215,0.0,0.0,0.0,-70.14221,50.427246,-25.40039
1765377737087,-0.40429688,-0.25732422,0.1850586,13.48877,43.518066,-19.470215,0.0,0.0,0.0,-71.466064,50.43274,-28.10852
1765377737175,-1.0585938,-0.93652344,0.34716797,75.68359,-0.12207031,-58.10547,0.0,0.0,0.0,-71.466064,50.43274,-28.10852
1765377737187,-1.0585938,-0.93652344,0.34716797,75.68359,-0.12207031,-58.10547,0.0,0.0,0.0,-70.45532,48.4552,-32.041626
1765377737275,-0.6582031,-0.5,0.02734375,0.5493164,65.42969,-6.4086914,0.0,0.0,0.0,-70.45532,48.4552,-32.041626
1765377737287,-0.6582031,-0.5,0.02734375,0.5493164,65.42969,-6.4086914,0.0,0.0,0.0,-72.31201,45.994263,-39.49585
1765377737374,-0.8691406,-0.69970703,0.11230469,-32.104492,-64.697266,19.53125,0.0,0.0,0.0,-72.31201,45.994263,-39.49585
1765377737387,-0.8691406,-0.69970703,0.11230469,-32.104492,-64.697266,19.53125,0.0,0.0,0.0,-72.89429,47.279663,-38.259888
1765377737474,-0.58447266,-0.83691406,0.2944336,-21.911621,33.081055,-7.9345703,0.0,0.0,0.0,-72.89429,47.279663,-38.259888
1765377737486,-0.58447266,-0.83691406,0.2944336,-21.911621,33.081055,-7.9345703,0.0,0.0,0.0,-73.861084,47.88391,-35.71106
1765377737574,-0.6176758,-0.37304688,0.1796875,-61.706543,-55.786133,35.949707,0.0,0.0,0.0,-73.861084,47.88391,-35.71106
1765377737585,-0.6176758,-0.37304688,0.1796875,-61.706543,-55.786133,35.949707,0.0,0.0,0.0,-78.62366,47.955322,-35.282593
1765377737674,-0.83203125,-0.7553711,0.2006836,-32.53174,-42.72461,29.785156,0.0,0.0,0.0,-78.62366,47.955322,-35.282593
1765377737685,-0.83203125,-0.7553711,0.2006836,-32.53174,-42.72461,29.785156,0.0,0.0,0.0,-72.47131,51.32263,-21.401367
1765377737773,-0.84765625,-0.5209961,0.19140625,-1.6479492,-22.277832,9.765625,0.0,0.0,0.0,-72.47131,51.32263,-21.401367
1765377737785,-0.84765625,-0.5209961,0.19140625,-1.6479492,-22.277832,9.765625,0.0,0.0,0.0,-70.52673,51.54785,-17.177124
1765377737873,-0.76904297,-0.55322266,0.2475586,22.399902,-5.432129,0.79345703,0.0,0.0,0.0,-70.52673,51.54785,-17.177124
1765377737884,-0.76904297,-0.55322266,0.2475586,22.399902,-5.432129,0.79345703,0.0,0.0,0.0,-67.736206,51.833496,-15.7873535
1765377737973,-0.80566406,-0.6152344,0.29541016,18.676758,11.962891,-10.314941,0.0,0.0,0.0,-67.736206,51.833496,-15.7873535
1765377737984,-0.80566406,-0.6152344,0.29541016,18.676758,11.962891,-10.314941,0.0,0.0,0.0,-66.07178,51.262207,-17.523193
1765377738073,-0.82470703,-0.5498047,0.18603516,6.164551,18.737793,5.2490234,0.0,0.0,0.0,-66.07178,51.262207,-17.523193
1765377738084,-0.82470703,-0.5498047,0.18603516,6.164551,18.737793,5.2490234,0.0,0.0,0.0,-66.76941,51.70166,-20.275269
1765377738172,-0.7338867,-0.6166992,0.15576172,13.61084,41.68701,-8.911133,0.0,0.0,0.0,-66.76941,51.70166,-20.275269
1765377738184,-0.7338867,-0.6166992,0.15576172,13.61084,41.68701,-8.911133,0.0,0.0,0.0,-69.44458,52.695923,-25.708008
1765377738272,-0.83447266,-0.67089844,0.1484375,-6.164551,-0.18310547,-1.3427734,0.0,0.0,0.0,-69.44458,52.695923,-25.708008
1765377738283,-0.83447266,-0.67089844,0.1484375,-6.164551,-0.18310547,-1.3427734,0.0,0.0,0.0,-72.78992,52.65747,-31.607666
1765377738372,-0.8774414,-0.5996094,0.15185547,2.2583008,-13.671875,4.4555664,0.0,0.0,0.0,-72.78992,52.65747,-31.607666
1765377738383,-0.8774414,-0.5996094,0.15185547,2.2583008,-13.671875,4.4555664,0.0,0.0,0.0,-71.86157,52.630005,-30.217896
1765377738471,-0.7001953,-0.4711914,0.08300781,25.024414,-0.8544922,-0.18310547,0.0,0.0,0.0,-71.86157,52.630005,-30.217896
1765377738483,-0.7001953,-0.4711914,0.08300781,25.024414,-0.8544922,-0.18310547,0.0,0.0,0.0,-69.66431,52.668457,-30.223389
1765377738571,-0.6772461,-0.5371094,0.07714844,16.845703,-0.24414062,-4.0893555,0.0,0.0,0.0,-69.66431,52.668457,-30.223389
1765377738582,-0.6772461,-0.5371094,0.07714844,16.845703,-0.24414062,-4.0893555,0.0,0.0,0.0,-68.170166,52.591553,-32.420654
1765377738671,-0.9057617,-0.63720703,0.08691406,9.338379,5.6152344,2.0141602,0.0,0.0,0.0,-68.170166,52.591553,-32.420654
1765377738682,-0.9057617,-0.63720703,0.08691406,9.338379,5.6152344,2.0141602,0.0,0.0,0.0,-68.03284,52.630005,-34.804688
1765377738771,-0.97753906,-0.7055664,0.13964844,3.8452148,40.222168,1.7089844,0.0,0.0,0.0,-68.03284,52.630005,-34.804688
1765377738782,-0.97753906,-0.7055664,0.13964844,3.8452148,40.222168,1.7089844,0.0,0.0,0.0,-71.18591,54.0802,-40.88562
1765377738870,-0.5576172,-0.35058594,0.2109375,28.930664,2.5634766,-9.338379,0.0,0.0,0.0,-71.18591,54.0802,-40.88562
1765377738882,-0.5576172,-0.35058594,0.2109375,28.930664,2.5634766,-9.338379,0.0,0.0,0.0,-72.54822,54.107666,-45.543823
1765377738970,-1.0195312,-0.67285156,0.2685547,31.677246,-3.479004,-15.930176,0.0,0.0,0.0,-72.54822,54.107666,-45.543823
1765377738981,-1.0195312,-0.67285156,0.2685547,31.677246,-3.479004,-15.930176,0.0,0.0,0.0,-69.537964,52.88269,-44.527588
1765377739070,-0.62890625,-0.5,0.234375,16.601562,41.870117,-32.104492,0.0,0.0,0.0,-69.537964,52.88269,-44.527588
1765377739081,-0.62890625,-0.5,0.234375,16.601562,41.870117,-32.104492,0.0,0.0,0.0,-71.0376,50.60852,-50.619507
1765377739169,-0.8300781,-0.5449219,0.18554688,-16.723633,-40.95459,13.48877,0.0,0.0,0.0,-71.0376,50.60852,-50.619507
1765377739181,-0.8300781,-0.5449219,0.18554688,-16.723633,-40.95459,13.48877,0.0,0.0,0.0,-71.26282,49.93286,-50.932617
1765377739269,-0.8701172,-0.6381836,0.24414062,-26.97754,-30.88379,12.023926,0.0,0.0,0.0,-71.26282,49.93286,-50.932617
1765377739281,-0.8701172,-0.6381836,0.24414062,-26.97754,-30.88379,12.023926,0.0,0.0,0.0,-68.9447,50.839233,-43.59375
1765377739369,-0.69384766,-0.49414062,0.096191406,-28.076172,-5.004883,1.2207031,0.0,0.0,0.0,-68.9447,50.839233,-43.59375
1765377739380,-0.69384766,-0.49414062,0.096191406,-28.076172,-5.004883,1.2207031,0.0,0.0,0.0,-69.505005,50.509644,-41.621704
1765377739469,-0.71728516,-0.5180664,0.15332031,-66.52832,-39.916992,12.329102,0.0,0.0,0.0,-69.505005,50.509644,-41.621704
1765377739480,-0.71728516,-0.5180664,0.15332031,-66.52832,-39.916992,12.329102,0.0,0.0,0.0,-71.66931,50.7843,-38.633423
1765377739569,-0.78515625,-0.63916016,0.41552734,-41.19873,-54.748535,15.50293,0.0,0.0,0.0,-71.66931,50.7843,-38.633423
1765377739581,-0.78515625,-0.63916016,0.41552734,-41.19873,-54.748535,15.50293,0.0,0.0,0.0,-71.015625,51.080933,-30.915527
1765377739668,-0.5419922,-0.37548828,0.24267578,-32.77588,-27.70996,31.677246,0.0,0.0,0.0,-71.015625,51.080933,-30.915527
1765377739679,-0.5419922,-0.37548828,0.24267578,-32.77588,-27.70996,31.677246,0.0,0.0,0.0,-67.85156,51.784058,-22.994385
1765377739768,-0.9838867,-0.7416992,0.359375,1.2817383,-18.371582,-7.3242188,0.0,0.0,0.0,-67.85156,51.784058,-22.994385
1765377739779,-0.9838867,-0.7416992,0.359375,1.2817383,-18.371582,-7.3242188,0.0,0.0,0.0,-63.55591,52.46521,-16.935425
1765377739867,-0.66845703,-0.4482422,0.29589844,23.132324,17.089844,-16.113281,0.0,0.0,0.0,-63.55591,52.46521,-16.935425
1765377739880,-0.66845703,-0.4482422,0.29589844,23.132324,17.089844,-16.113281,0.0,0.0,0.0,-64.35242,51.64673,-19.154663
1765377739967,-0.7998047,-0.6904297,0.2758789,29.907227,46.813965,-31.61621,0.0,0.0,0.0,-64.35242,51.64673,-19.154663
1765377739979,-0.7998047,-0.6904297,0.2758789,29.907227,46.813965,-31.61621,0.0,0.0,0.0,-66.0553,50.476685,-25.241089
1765377740067,-0.7573242,-0.50634766,0.21972656,22.460938,18.615723,-5.126953,0.0,0.0,0.0,-66.0553,50.476685,-25.241089
1765377740078,-0.7573242,-0.50634766,0.21972656,22.460938,18.615723,-5.126953,0.0,0.0,0.0,-68.69202,49.91089,-31.904297
1765377740167,-0.69921875,-0.66796875,0.30273438,36.254883,10.498047,-15.930176,0.0,0.0,0.0,-68.69202,49.91089,-31.904297
1765377740178,-0.69921875,-0.66796875,0.30273438,36.254883,10.498047,-15.930176,0.0,0.0,0.0,-67.19238,49.663696,-33.447876
1765377740266,-0.6982422,-0.6464844,0.25,20.446777,-3.2348633,-3.7841797,0.0,0.0,0.0,-67.19238,49.663696,-33.447876
1765377740278,-0.6982422,-0.6464844,0.25,20.446777,-3.2348633,-3.7841797,0.0,0.0,0.0,-65.286255,48.581543,-33.953247
1765377740366,-0.7050781,-0.6660156,0.2680664,4.638672,-14.587402,0.5493164,0.0,0.0,0.0,-65.286255,48.581543,-33.953247
1765377740378,-0.7050781,-0.6660156,0.2680664,4.638672,-14.587402,0.5493164,0.0,0.0,0.0,-63.391113,47.93335,-31.849365
1765377740466,-0.7338867,-0.6435547,0.21972656,-8.605957,-28.076172,7.6904297,0.0,0.0,0.0,-63.391113,47.93335,-31.849365
1765377740477,-0.7338867,-0.6435547,0.21972656,-8.605957,-28.076172,7.6904297,0.0,0.0,0.0,-61.68274,47.10388,-28.223877
1765377740566,-0.7211914,-0.63427734,0.203125,-15.74707,-25.57373,6.4697266,0.0,0.0,0.0,-61.68274,47.10388,-28.223877
1765377740577,-0.7211914,-0.63427734,0.203125,-15.74707,-25.57373,6.4697266,0.0,0.0,0.0,-60.50171,46.395264,-24.362183
1765377740665,-0.78027344,-0.64941406,0.20507812,-17.8833,-9.887695,7.9345703,0.0,0.0,0.0,-60.50171,46.395264,-24.362183
1765377740677,-0.78027344,-0.64941406,0.20507812,-17.8833,-9.887695,7.9345703,0.0,0.0,0.0,-60.836792,46.219482,-22.098999
1765377740765,-0.80029297,-0.60791016,0.16992188,-8.361816,14.6484375,7.385254,0.0,0.0,0.0,-60.836792,46.219482,-22.098999
1765377740777,-0.80029297,-0.60791016,0.16992188,-8.361816,14.6484375,7.385254,0.0,0.0,0.0,-62.616577,47.1698,-22.868042
1765377740865,-1.1318359,-0.82470703,0.42773438,5.9814453,37.475586,1.159668,0.0,0.0,0.0,-62.616577,47.1698,-22.868042
1765377740876,-1.1318359,-0.82470703,0.42773438,5.9814453,37.475586,1.159668,0.0,0.0,0.0,-65.945435,48.83423,-27.322998
1765377740964,-0.45654297,-0.43896484,0.2446289,18.249512,21.057129,-3.2958984,0.0,0.0,0.0,-65.945435,48.83423,-27.322998
1765377740976,-0.45654297,-0.43896484,0.2446289,18.249512,21.057129,-3.2958984,0.0,0.0,0.0,-66.604614,49.817505,-30.042114
1765377741064,-0.79248047,-0.3569336,0.40576172,0.12207031,15.930176,-4.0283203,0.0,0.0,0.0,-66.604614,49.817505,-30.042114
1765377741076,-0.79248047,-0.3569336,0.40576172,0.12207031,15.930176,-4.0283203,0.0,0.0,0.0,-68.82385,49.822998,-33.200684
1765377741164,-0.69433594,-0.65527344,0.2631836,33.325195,13.977051,-44.86084,0.0,0.0,0.0,-68.82385,49.822998,-33.200684
1765377741175,-0.69433594,-0.65527344,0.2631836,33.325195,13.977051,-44.86084,0.0,0.0,0.0,-65.84656,48.22998,-34.118042
1765377741263,-0.7705078,-0.51953125,0.18652344,7.9345703,-12.817383,6.0424805,0.0,0.0,0.0,-65.84656,48.22998,-34.118042
1765377741275,-0.7705078,-0.51953125,0.18652344,7.9345703,-12.817383,6.0424805,0.0,0.0,0.0,-67.04956,47.285156,-37.95227
1765377741363,-0.81152344,-0.70214844,0.2788086,-2.2583008,-37.841797,7.3242188,0.0,0.0,0.0,-67.04956,47.285156,-37.95227
1765377741375,-0.81152344,-0.70214844,0.2788086,-2.2583008,-37.841797,7.3242188,0.0,0.0,0.0,-62.627563,46.779785,-31.316528
1765377741463,-0.72216797,-0.55566406,0.21044922,-12.817383,-11.230469,1.4648438,0.0,0.0,0.0,-62.627563,46.779785,-31.316528
1765377741475,-0.72216797,-0.55566406,0.21044922,-12.817383,-11.230469,1.4648438,0.0,0.0,0.0,-61.28723,46.09314,-29.064331
1765377741563,-0.8564453,-0.73291016,0.34765625,-67.44385,-14.221191,25.756836,0.0,0.0,0.0,-61.28723,46.09314,-29.064331
1765377741574,-0.8564453,-0.73291016,0.34765625,-67.44385,-14.221191,25.756836,0.0,0.0,0.0,-63.792114,46.75232,-26.427612
1765377741663,-0.5961914,-0.5751953,0.4663086,-31.12793,-24.597168,21.66748,0.0,0.0,0.0,-63.792114,46.75232,-26.427612
1765377741674,-0.5961914,-0.5751953,0.4663086,-31.12793,-24.597168,21.66748,0.0,0.0,0.0,-64.80835,48.71338,-21.697998
1765377741762,-0.69921875,-0.40820312,0.2109375,-11.779785,-20.141602,36.071777,0.0,0.0,0.0,-64.80835,48.71338,-21.697998
1765377741774,-0.69921875,-0.40820312,0.2109375,-11.779785,-20.141602,36.071777,0.0,0.0,0.0,-61.375122,49.4989,-14.622803
1765377741862,-0.796875,-0.70751953,0.45947266,11.291504,9.460449,-18.005371,0.0,0.0,0.0,-61.375122,49.4989,-14.622803
1765377741874,-0.796875,-0.70751953,0.45947266,11.291504,9.460449,-18.005371,0.0,0.0,0.0,-60.69397,50.372314,-13.661499
1765377741962,-0.7138672,-0.5810547,0.2631836,-1.7700195,19.714355,4.760742,0.0,0.0,0.0,-60.69397,50.372314,-13.661499
1765377741973,-0.7138672,-0.5810547,0.2631836,-1.7700195,19.714355,4.760742,0.0,0.0,0.0,-61.85852,50.256958,-15.540161
1765377742061,-0.72998047,-0.57910156,0.31054688,9.460449,2.319336,-23.010254,0.0,0.0,0.0,-61.85852,50.256958,-15.540161
1765377742073,-0.72998047,-0.57910156,0.31054688,9.460449,2.319336,-23.010254,0.0,0.0,0.0,-62.907715,49.68567,-17.698975
1765377742161,-0.73291016,-0.57958984,0.28564453,11.169434,21.66748,-4.3945312,0.0,0.0,0.0,-62.907715,49.68567,-17.698975
1765377742173,-0.73291016,-0.57958984,0.28564453,11.169434,21.66748,-4.3945312,0.0,0.0,0.0,-64.06677,48.94409,-20.24231
1765377742261,-0.7348633,-0.61035156,0.29101562,17.944336,-4.211426,-6.652832,0.0,0.0,0.0,-64.06677,48.94409,-20.24231
1765377742272,-0.7348633,-0.61035156,0.29101562,17.944336,-4.211426,-6.652832,0.0,0.0,0.0,-63.50647,48.762817,-21.71997
1765377742361,-0.7207031,-0.62402344,0.27441406,6.164551,-4.272461,-0.36621094,0.0,0.0,0.0,-63.50647,48.762817,-21.71997
1765377742372,-0.7207031,-0.62402344,0.27441406,6.164551,-4.272461,-0.36621094,0.0,0.0,0.0,-61.951904,48.186035,-20.863037
1765377742460,-0.72265625,-0.6171875,0.3076172,10.314941,-2.2583008,-2.2583008,0.0,0.0,0.0,-61.951904,48.186035,-20.863037
1765377742472,-0.72265625,-0.6171875,0.3076172,10.314941,-2.2583008,-2.2583008,0.0,0.0,0.0,-61.270752,47.86194,-20.736694
1765377742560,-0.74316406,-0.6328125,0.29882812,0.24414062,1.4648438,0.5493164,0.0,0.0,0.0,-61.270752,47.86194,-20.736694
1765377742572,-0.74316406,-0.6328125,0.29882812,0.24414062,1.4648438,0.5493164,0.0,0.0,0.0,-60.578613,47.631226,-20.527954
1765377742660,-0.73046875,-0.63427734,0.29882812,-8.178711,1.0375977,3.90625,0.0,0.0,0.0,-60.578613,47.631226,-20.527954
1765377742671,-0.73046875,-0.63427734,0.29882812,-8.178711,1.0375977,3.90625,0.0,0.0,0.0,-61.12793,47.807007,-20.566406
1765377742759,-0.75146484,-0.64990234,0.30810547,-21.42334,7.080078,6.8359375,0.0,0.0,0.0,-61.12793,47.807007,-20.566406
1765377742771,-0.75146484,-0.64990234,0.30810547,-21.42334,7.080078,6.8359375,0.0,0.0,0.0,-62.907715,48.30139,-20.632324
1765377742859,-0.7207031,-0.4819336,0.33935547,-21.911621,-15.319824,9.399414,0.0,0.0,0.0,-62.907715,48.30139,-20.632324
1765377742871,-0.7207031,-0.4819336,0.33935547,-21.911621,-15.319824,9.399414,0.0,0.0,0.0,-64.4458,48.81775,-19.407349
1765377742959,-0.7363281,-0.56396484,0.2680664,2.1972656,6.225586,-2.0751953,0.0,0.0,0.0,-64.4458,48.81775,-19.407349
1765377742970,-0.7363281,-0.56396484,0.2680664,2.1972656,6.225586,-2.0751953,0.0,0.0,0.0,-64.16565,49.053955,-18.132935
1765377743059,-0.7207031,-0.44482422,0.33007812,15.014648,-2.319336,-7.6293945,0.0,0.0,0.0,-64.16565,49.053955,-18.132935
1765377743070,-0.7207031,-0.44482422,0.33007812,15.014648,-2.319336,-7.6293945,0.0,0.0,0.0,-63.446045,48.460693,-19.797363
1765377743158,-0.87060547,-0.66064453,0.26708984,7.080078,-4.4555664,-0.36621094,0.0,0.0,0.0,-63.446045,48.460693,-19.797363
1765377743170,-0.87060547,-0.66064453,0.26708984,7.080078,-4.4555664,-0.36621094,0.0,0.0,0.0,-61.506958,48.339844,-18.841553
1765377743258,-0.76123047,-0.48339844,0.17285156,5.126953,-7.8125,6.1035156,0.0,0.0,0.0,-61.506958,48.339844,-18.841553
1765377743270,-0.76123047,-0.48339844,0.17285156,5.126953,-7.8125,6.1035156,0.0,0.0,0.0,-60.05127,48.47168,-18.319702
1765377743358,-0.8457031,-0.59765625,0.2368164,10.498047,16.296387,-11.59668,0.0,0.0,0.0,-60.05127,48.47168,-18.319702
1765377743369,-0.8457031,-0.59765625,0.2368164,10.498047,16.296387,-11.59668,0.0,0.0,0.0,-60.490723,48.916626,-20.86853
1765377743458,-0.85595703,-0.6015625,0.14208984,-5.3710938,29.785156,-11.962891,0.0,0.0,0.0,-60.490723,48.916626,-20.86853
1765377743469,-0.85595703,-0.6015625,0.14208984,-5.3710938,29.785156,-11.962891,0.0,0.0,0.0,-64.16016,48.933105,-26.586914
1765377743557,-0.90478516,-0.7050781,0.3486328,-21.606445,12.756348,5.2490234,0.0,0.0,0.0,-64.16016,48.933105,-26.586914
1765377743569,-0.90478516,-0.7050781,0.3486328,-21.606445,12.756348,5.2490234,0.0,0.0,0.0,-68.36792,49.866943,-30.95398
1765377743657,-0.6645508,-0.44921875,0.24169922,20.874023,-16.601562,-0.7324219,0.0,0.0,0.0,-68.36792,49.866943,-30.95398
1765377743669,-0.6645508,-0.44921875,0.24169922,20.874023,-16.601562,-0.7324219,0.0,0.0,0.0,-66.02783,50.163574,-29.20166
1765377743757,-0.49853516,-0.4736328,0.2685547,6.7749023,14.038086,7.1411133,0.0,0.0,0.0,-66.02783,50.163574,-29.20166
1765377743768,-0.49853516,-0.4736328,0.2685547,6.7749023,14.038086,7.1411133,0.0,0.0,0.0,-64.80835,50.388794,-29.295044
1765377743857,-1.059082,-0.8276367,0.5175781,26.916504,-20.019531,-1.4038086,0.0,0.0,0.0,-64.80835,50.388794,-29.295044
1765377743868,-1.059082,-0.8276367,0.5175781,26.916504,-20.019531,-1.4038086,0.0,0.0,0.0,-63.742676,51.13037,-28.14148
1765377743956,-0.5908203,-0.47607422,0.16748047,20.751953,31.982422,5.859375,0.0,0.0,0.0,-63.742676,51.13037,-28.14148
1765377743968,-0.5908203,-0.47607422,0.16748047,20.751953,31.982422,5.859375,0.0,0.0,0.0,-62.14966,51.289673,-27.921753
1765377744056,-0.77783203,-0.70214844,0.22558594,28.137207,-6.164551,-20.690918,0.0,0.0,0.0,-62.14966,51.289673,-27.921753
1765377744067,-0.77783203,-0.70214844,0.22558594,28.137207,-6.164551,-20.690918,0.0,0.0,0.0,-62.072754,50.927124,-31.151733
1765377744156,-0.77197266,-0.6118164,0.24853516,-8.850098,-15.563965,4.211426,0.0,0.0,0.0,-62.072754,50.927124,-31.151733
1765377744167,-0.77197266,-0.6118164,0.24853516,-8.850098,-15.563965,4.211426,0.0,0.0,0.0,-61.14441,49.729614,-29.657593
1765377744255,-0.7709961,-0.6328125,0.21679688,-6.5307617,11.047363,2.746582,0.0,0.0,0.0,-61.14441,49.729614,-29.657593
1765377744267,-0.7709961,-0.6328125,0.21679688,-6.5307617,11.047363,2.746582,0.0,0.0,0.0,-61.69922,49.872437,-29.415894
1765377744355,-0.8569336,-0.6694336,0.22509766,-14.526367,10.925293,-0.061035156,0.0,0.0,0.0,-61.69922,49.872437,-29.415894
1765377744367,-0.8569336,-0.6694336,0.22509766,-14.526367,10.925293,-0.061035156,0.0,0.0,0.0,-64.59961,50.388794,-31.920776
1765377744455,-0.8305664,-0.6411133,0.3310547,-11.230469,20.996094,-2.380371,0.0,0.0,0.0,-64.59961,50.388794,-31.920776
1765377744466,-0.8305664,-0.6411133,0.3310547,-11.230469,20.996094,-2.380371,0.0,0.0,0.0,-67.994385,50.927124,-34.733276
1765377744554,-0.4033203,-0.25390625,0.26660156,-5.3710938,-2.2583008,-7.9956055,0.0,0.0,0.0,-67.994385,50.927124,-34.733276
1765377744566,-0.4033203,-0.25390625,0.26660156,-5.3710938,-2.2583008,-7.9956055,0.0,0.0,0.0,-69.09851,50.559082,-35.99121
1765377744654,-1.121582,-0.97998047,0.24414062,24.169922,-31.799316,-12.756348,0.0,0.0,0.0,-69.09851,50.559082,-35.99121
1765377744666,-1.121582,-0.97998047,0.24414062,24.169922,-31.799316,-12.756348,0.0,0.0,0.0,-66.40686,49.575806,-30.662842
1765377744754,-0.6098633,-0.39160156,0.15576172,-19.53125,42.541504,4.0283203,0.0,0.0,0.0,-66.40686,49.575806,-30.662842
1765377744766,-0.6098633,-0.39160156,0.15576172,-19.53125,42.541504,4.0283203,0.0,0.0,0.0,-69.576416,49.3396,-34.936523
1765377744854,-0.93066406,-0.65966797,0.026855469,-38.024902,-54.44336,23.31543,0.0,0.0,0.0,-69.576416,49.3396,-34.936523
1765377744865,-0.93066406,-0.65966797,0.026855469,-38.024902,-54.44336,23.31543,0.0,0.0,0.0,-67.77466,50.196533,-29.262085
1765377744954,-0.7807617,-0.43945312,0.13769531,-27.58789,10.498047,12.817383,0.0,0.0,0.0,-67.77466,50.196533,-29.262085
1765377744965,-0.7807617,-0.43945312,0.13769531,-27.58789,10.498047,12.817383,0.0,0.0,0.0,-70.43884,52.069702,-28.916016
1765377745053,-0.93359375,-0.46923828,0.15429688,-8.7890625,0.91552734,10.314941,0.0,0.0,0.0,-70.43884,52.069702,-28.916016
1765377745065,-0.93359375,-0.46923828,0.15429688,-8.7890625,0.91552734,10.314941,0.0,0.0,0.0,-71.56494,53.102417,-30.10254
1765377745153,-0.88671875,-0.61572266,0.32421875,15.319824,23.986816,-12.573242,0.0,0.0,0.0,-71.56494,53.102417,-30.10254
1765377745165,-0.88671875,-0.61572266,0.32421875,15.319824,23.986816,-12.573242,0.0,0.0,0.0,-73.43811,53.745117,-34.293823
1765377745253,-0.49560547,-0.34472656,0.16503906,-0.6713867,-2.1362305,15.014648,0.0,0.0,0.0,-73.43811,53.745117,-34.293823
1765377745265,-0.49560547,-0.34472656,0.16503906,-0.6713867,-2.1362305,15.014648,0.0,0.0,0.0,-73.61389,54.25598,-35.53528
1765377745353,-0.9916992,-1.0483398,0.41748047,17.944336,2.6855469,-21.42334,0.0,0.0,0.0,-73.61389,54.25598,-35.53528
1765377745364,-0.9916992,-1.0483398,0.41748047,17.944336,2.6855469,-21.42334,0.0,0.0,0.0,-73.19641,55.014038,-34.60144
1765377745452,-0.6972656,-0.4013672,0.14355469,-11.59668,-21.606445,27.648926,0.0,0.0,0.0,-73.19641,55.014038,-34.60144
1765377745464,-0.6972656,-0.4013672,0.14355469,-11.59668,-21.606445,27.648926,0.0,0.0,0.0,-69.592896,53.12439,-30.651855
1765377745552,-0.73339844,-0.6459961,0.2680664,30.700684,-6.164551,-24.780273,0.0,0.0,0.0,-69.592896,53.12439,-30.651855
1765377745563,-0.73339844,-0.6459961,0.2680664,30.700684,-6.164551,-24.780273,0.0,0.0,0.0,-67.099,53.580322,-28.685303
1765377745652,-0.8652344,-0.55810547,0.17041016,31.37207,25.512695,-16.784668,0.0,0.0,0.0,-67.099,53.580322,-28.685303
1765377745663,-0.8652344,-0.55810547,0.17041016,31.37207,25.512695,-16.784668,0.0,0.0,0.0,-66.297,50.93811,-32.283325
1765377745751,-0.70654297,-0.61376953,0.17773438,31.860352,10.009766,-4.4555664,0.0,0.0,0.0,-66.297,50.93811,-32.283325
1765377745763,-0.70654297,-0.61376953,0.17773438,31.860352,10.009766,-4.4555664,0.0,0.0,0.0,-65.78613,51.40503,-35.095825
1765377745851,-0.7324219,-0.7480469,0.1977539,17.578125,-6.0424805,-15.625,0.0,0.0,0.0,-65.78613,51.40503,-35.095825
1765377745863,-0.7324219,-0.7480469,0.1977539,17.578125,-6.0424805,-15.625,0.0,0.0,0.0,-64.86328,50.125122,-37.683105
1765377745951,-0.6591797,-0.65478516,0.20117188,-50.354004,-31.860352,15.319824,0.0,0.0,0.0,-64.86328,50.125122,-37.683105
1765377745962,-0.6591797,-0.65478516,0.20117188,-50.354004,-31.860352,15.319824,0.0,0.0,0.0,-64.330444,49.01001,-33.447876
1765377746051,-1.0048828,-0.484375,0.3955078,-53.588867,-6.0424805,23.55957,0.0,0.0,0.0,-64.330444,49.01001,-33.447876
1765377746062,-1.0048828,-0.484375,0.3955078,-53.588867,-6.0424805,23.55957,0.0,0.0,0.0,-68.21411,49.54834,-30.393677
1765377746150,-0.6669922,-0.6591797,0.3701172,2.4414062,-17.63916,-5.065918,0.0,0.0,0.0,-68.21411,49.54834,-30.393677
1765377746162,-0.6669922,-0.6591797,0.3701172,2.4414062,-17.63916,-5.065918,0.0,0.0,0.0,-68.45581,51.61377,-27.163696
1765377746250,-0.8251953,-0.6220703,0.27246094,28.503418,23.4375,-30.700684,0.0,0.0,0.0,-68.45581,51.61377,-27.163696
1765377746261,-0.8251953,-0.6220703,0.27246094,28.503418,23.4375,-30.700684,0.0,0.0,0.0,-67.14844,48.83423,-28.536987
1765377746350,-0.69873047,-0.5151367,0.18457031,1.0375977,-24.780273,2.2583008,0.0,0.0,0.0,-67.14844,48.83423,-28.536987
1765377746361,-0.69873047,-0.5151367,0.18457031,1.0375977,-24.780273,2.2583008,0.0,0.0,0.0,-67.8241,47.84546,-32.228394
1765377746450,-0.84521484,-0.56152344,0.25,-11.84082,-21.42334,19.836426,0.0,0.0,0.0,-67.8241,47.84546,-32.228394
1765377746461,-0.84521484,-0.56152344,0.25,-11.84082,-21.42334,19.836426,0.0,0.0,0.0,-64.41284,47.856445,-25.98816
1765377746549,-0.77978516,-0.5761719,0.19628906,26.184082,-15.014648,-14.831543,0.0,0.0,0.0,-64.41284,47.856445,-25.98816
1765377746561,-0.77978516,-0.5761719,0.19628906,26.184082,-15.014648,-14.831543,0.0,0.0,0.0,-61.984863,47.719116,-24.049072
1765377746649,-0.796875,-0.5385742,0.31884766,-11.291504,-3.3569336,8.666992,0.0,0.0,0.0,-61.984863,47.719116,-24.049072
1765377746660,-0.796875,-0.5385742,0.31884766,-11.291504,-3.3569336,8.666992,0.0,0.0,0.0,-61.484985,47.296143,-24.938965
1765377746749,-0.84765625,-0.73876953,0.35205078,-12.207031,8.239746,-9.70459,0.0,0.0,0.0,-61.484985,47.296143,-24.938965
1765377746760,-0.84765625,-0.73876953,0.35205078,-12.207031,8.239746,-9.70459,0.0,0.0,0.0,-61.56189,47.46643,-24.175415
1765377746848,-0.72998047,-0.46533203,0.33740234,-20.263672,-7.5683594,8.544922,0.0,0.0,0.0,-61.56189,47.46643,-24.175415
1765377746860,-0.72998047,-0.46533203,0.33740234,-20.263672,-7.5683594,8.544922,0.0,0.0,0.0,-64.35791,47.719116,-25.515747
1765377746948,-0.5493164,-0.4921875,0.27392578,-4.9438477,12.756348,20.935059,0.0,0.0,0.0,-64.35791,47.719116,-25.515747
1765377746960,-0.5493164,-0.4921875,0.27392578,-4.9438477,12.756348,20.935059,0.0,0.0,0.0,-64.0448,49.246216,-23.417358
1765377747048,-0.828125,-0.8203125,0.5136719,25.390625,12.6953125,-26.367188,0.0,0.0,0.0,-64.0448,49.246216,-23.417358
1765377747059,-0.828125,-0.8203125,0.5136719,25.390625,12.6953125,-26.367188,0.0,0.0,0.0,-64.70398,49.735107,-25.389404
1765377747148,-0.7211914,-0.49414062,0.17773438,6.652832,0.12207031,23.925781,0.0,0.0,0.0,-64.70398,49.735107,-25.389404
1765377747159,-0.7211914,-0.49414062,0.17773438,6.652832,0.12207031,23.925781,0.0,0.0,0.0,-64.05029,49.5813,-26.021118
1765377747247,-0.68066406,-0.66259766,0.30371094,23.620605,-8.483887,-13.793945,0.0,0.0,0.0,-64.05029,49.5813,-26.021118
1765377747259,-0.68066406,-0.66259766,0.30371094,23.620605,-8.483887,-13.793945,0.0,0.0,0.0,-60.9906,49.41101,-23.911743
1765377747347,-0.7817383,-0.65185547,0.24853516,7.751465,8.483887,-4.9438477,0.0,0.0,0.0,-60.9906,49.41101,-23.911743
1765377747359,-0.7817383,-0.65185547,0.24853516,7.751465,8.483887,-4.9438477,0.0,0.0,0.0,-60.85327,48.493652,-25.213623
1765377747447,-0.7348633,-0.60595703,0.1953125,-10.559082,-3.112793,8.056641,0.0,0.0,0.0,-60.85327,48.493652,-25.213623
1765377747458,-0.7348633,-0.60595703,0.1953125,-10.559082,-3.112793,8.056641,0.0,0.0,0.0,-61.24878,48.87268,-25.076294
1765377747547,-0.75683594,-0.6791992,0.21777344,-17.333984,14.953613,3.7841797,0.0,0.0,0.0,-61.24878,48.87268,-25.076294
1765377747558,-0.75683594,-0.6791992,0.21777344,-17.333984,14.953613,3.7841797,0.0,0.0,0.0,-63.41858,49.526367,-25.839844
1765377747646,-0.8144531,-0.390625,0.39941406,-22.766113,5.065918,32.958984,0.0,0.0,0.0,-63.41858,49.526367,-25.839844
1765377747659,-0.8144531,-0.390625,0.39941406,-22.766113,5.065918,32.958984,0.0,0.0,0.0,-66.604614,51.569824,-26.378174
1765377747746,-0.51660156,-0.5576172,0.2890625,17.333984,13.85498,-36.376953,0.0,0.0,0.0,-66.604614,51.569824,-26.378174
1765377747757,-0.51660156,-0.5576172,0.2890625,17.333984,13.85498,-36.376953,0.0,0.0,0.0,-67.439575,51.328125,-27.597656
1765377747846,-0.9897461,-0.6894531,0.3305664,15.869141,19.836426,-23.55957,0.0,0.0,0.0,-67.439575,51.328125,-27.597656
1765377747857,-0.9897461,-0.6894531,0.3305664,15.869141,19.836426,-23.55957,0.0,0.0,0.0,-69.55444,49.108887,-31.882324
1765377747945,-0.6689453,-0.5,0.18896484,-15.808105,-20.324707,-9.521484,0.0,0.0,0.0,-69.55444,49.108887,-31.882324
1765377747957,-0.6689453,-0.5,0.18896484,-15.808105,-20.324707,-9.521484,0.0,0.0,0.0,-70.5542,47.406006,-33.57422
1765377748045,-0.8256836,-0.56103516,0.18310547,-1.2207031,-8.422852,8.300781,0.0,0.0,0.0,-70.5542,47.406006,-33.57422
1765377748057,-0.8256836,-0.56103516,0.18310547,-1.2207031,-8.422852,8.300781,0.0,0.0,0.0,-68.38989,47.614746,-29.586182
1765377748145,-0.7265625,-0.6347656,0.21923828,12.573242,23.620605,-14.038086,0.0,0.0,0.0,-68.38989,47.614746,-29.586182
1765377748156,-0.7265625,-0.6347656,0.21923828,12.573242,23.620605,-14.038086,0.0,0.0,0.0,-68.97217,47.510376,-32.217407
1765377748245,-0.77978516,-0.63916016,0.11621094,-24.414062,-4.4555664,5.554199,0.0,0.0,0.0,-68.97217,47.510376,-32.217407
1765377748256,-0.77978516,-0.63916016,0.11621094,-24.414062,-4.4555664,5.554199,0.0,0.0,0.0,-71.17493,47.477417,-35.29358
1765377748344,-0.80029297,-0.74853516,0.390625,-3.2958984,-4.8828125,7.080078,0.0,0.0,0.0,-71.17493,47.477417,-35.29358
1765377748356,-0.80029297,-0.74853516,0.390625,-3.2958984,-4.8828125,7.080078,0.0,0.0,0.0,-72.47681,48.66394,-34.370728
1765377748444,-0.71533203,-0.40673828,0.14355469,0.9765625,-7.2631836,6.652832,0.0,0.0,0.0,-72.47681,48.66394,-34.370728
1765377748456,-0.71533203,-0.40673828,0.14355469,0.9765625,-7.2631836,6.652832,0.0,0.0,0.0,-70.85083,47.834473,-32.926025
1765377748544,-0.54345703,-0.66015625,0.25878906,16.235352,-8.117676,11.169434,0.0,0.0,0.0,-70.85083,47.834473,-32.926025
1765377748555,-0.54345703,-0.66015625,0.25878906,16.235352,-8.117676,11.169434,0.0,0.0,0.0,-68.43384,49.822998,-30.322266
1765377748644,-0.94677734,-0.70458984,0.2607422,24.108887,-22.094727,-3.0517578,0.0,0.0,0.0,-68.43384,49.822998,-30.322266
1765377748655,-0.94677734,-0.70458984,0.2607422,24.108887,-22.094727,-3.0517578,0.0,0.0,0.0,-64.91272,48.131104,-28.476562
1765377748743,-0.64941406,-0.5756836,0.20117188,17.822266,2.0751953,8.056641,0.0,0.0,0.0,-64.91272,48.131104,-28.476562
1765377748755,-0.64941406,-0.5756836,0.20117188,17.822266,2.0751953,8.056641,0.0,0.0,0.0,-62.495728,48.988037,-26.169434
1765377748843,-0.7783203,-0.65722656,0.17871094,18.127441,-3.112793,-3.1738281,0.0,0.0,0.0,-62.495728,48.988037,-26.169434
1765377748855,-0.7783203,-0.65722656,0.17871094,18.127441,-3.112793,-3.1738281,0.0,0.0,0.0,-60.611572,48.40576,-26.740723
1765377748943,-0.75439453,-0.6225586,0.21435547,-1.0375977,8.483887,7.1411133,0.0,0.0,0.0,-60.611572,48.40576,-26.740723
1765377748954,-0.75439453,-0.6225586,0.21435547,-1.0375977,8.483887,7.1411133,0.0,0.0,0.0,-60.891724,49.05945,-27.57019
1765377749042,-0.76220703,-0.62597656,0.18457031,2.8686523,9.155273,5.2490234,0.0,0.0,0.0,-60.891724,49.05945,-27.57019
1765377749054,-0.76220703,-0.62597656,0.18457031,2.8686523,9.155273,5.2490234,0.0,0.0,0.0,-61.80359,49.82849,-29.278564
1765377749142,-1.0761719,-0.7368164,0.53125,-15.075684,7.080078,10.314941,0.0,0.0,0.0,-61.80359,49.82849,-29.278564
1765377749154,-1.0761719,-0.7368164,0.53125,-15.075684,7.080078,10.314941,0.0,0.0,0.0,-64.79187,51.16333,-31.322021
1765377749242,-0.34326172,-0.30371094,0.21972656,16.357422,10.559082,-24.169922,0.0,0.0,0.0,-64.79187,51.16333,-31.322021
1765377749253,-0.34326172,-0.30371094,0.21972656,16.357422,10.559082,-24.169922,0.0,0.0,0.0,-65.0061,50.43274,-31.865845
1765377749342,-1.0693359,-0.74560547,0.4951172,33.081055,-20.568848,-13.977051,0.0,0.0,0.0,-65.0061,50.43274,-31.865845
1765377749353,-1.0693359,-0.74560547,0.4951172,33.081055,-20.568848,-13.977051,0.0,0.0,0.0,-64.731445,48.658447,-31.937256
1765377749441,-0.62060547,-0.48339844,0.24365234,-9.887695,34.42383,-17.51709,0.0,0.0,0.0,-64.731445,48.658447,-31.937256
1765377749453,-0.62060547,-0.48339844,0.24365234,-9.887695,34.42383,-17.51709,0.0,0.0,0.0,-63.896484,46.516113,-32.755737
1765377749541,-0.8154297,-0.57128906,0.23339844,-39.733887,-58.776855,26.184082,0.0,0.0,0.0,-63.896484,46.516113,-32.755737
1765377749553,-0.8154297,-0.57128906,0.23339844,-39.733887,-58.776855,26.184082,0.0,0.0,0.0,-64.401855,46.955566,-29.800415
1765377749641,-0.7861328,-0.47070312,0.2529297,-29.35791,-5.004883,15.258789,0.0,0.0,0.0,-64.401855,46.955566,-29.800415
1765377749652,-0.7861328,-0.47070312,0.2529297,-29.35791,-5.004883,15.258789,0.0,0.0,0.0,-63.792114,47.75757,-24.450073
1765377749741,-1.0004883,-0.8881836,0.44970703,-8.056641,27.46582,2.6855469,0.0,0.0,0.0,-63.792114,47.75757,-24.450073
1765377749753,-1.0004883,-0.8881836,0.44970703,-8.056641,27.46582,2.6855469,0.0,0.0,0.0,-67.04407,49.520874,-26.207886
1765377749840,-0.58691406,-0.40771484,0.12548828,-11.230469,2.8686523,0.30517578,0.0,0.0,0.0,-67.04407,49.520874,-26.207886
1765377749852,-0.58691406,-0.40771484,0.12548828,-11.230469,2.8686523,0.30517578,0.0,0.0,0.0,-69.61487,49.196777,-28.795166
1765377749940,-0.56640625,-0.4921875,0.30810547,-35.88867,-22.033691,39.18457,0.0,0.0,0.0,-69.61487,49.196777,-28.795166
1765377749952,-0.56640625,-0.4921875,0.30810547,-35.88867,-22.033691,39.18457,0.0,0.0,0.0,-68.97217,51.1084,-24.439087
1765377750040,-0.9975586,-0.72021484,0.2705078,1.2207031,-3.540039,-11.169434,0.0,0.0,0.0,-68.97217,51.1084,-24.439087
1765377750051,-0.9975586,-0.72021484,0.2705078,1.2207031,-3.540039,-11.169434,0.0,0.0,0.0,-66.659546,51.053467,-20.566406
1765377750139,-0.6508789,-0.47460938,0.17919922,6.5307617,6.286621,19.470215,0.0,0.0,0.0,-66.659546,51.053467,-20.566406
1765377750151,-0.6508789,-0.47460938,0.17919922,6.5307617,6.286621,19.470215,0.0,0.0,0.0,-69.29077,52.564087,-23.252563
1765377750239,-0.72558594,-0.6899414,0.21289062,13.549805,-25.817871,-18.188477,0.0,0.0,0.0,-69.29077,52.564087,-23.252563
1765377750251,-0.72558594,-0.6899414,0.21289062,13.549805,-25.817871,-18.188477,0.0,0.0,0.0,-65.753174,51.679688,-20.841064
1765377750339,-0.859375,-0.56152344,0.16845703,-13.48877,-26.916504,15.380859,0.0,0.0,0.0,-65.753174,51.679688,-20.841064
1765377750352,-0.859375,-0.56152344,0.16845703,-13.48877,-26.916504,15.380859,0.0,0.0,0.0,-63.08899,50.042725,-17.199097
1765377750439,-0.7192383,-0.5673828,0.19384766,17.700195,17.333984,-10.131836,0.0,0.0,0.0,-63.08899,50.042725,-17.199097
1765377750450,-0.7192383,-0.5673828,0.19384766,17.700195,17.333984,-10.131836,0.0,0.0,0.0,-62.79785,50.872192,-17.286987
1765377750538,-0.80078125,-0.68408203,0.14697266,16.296387,43.5791,-15.380859,0.0,0.0,0.0,-62.79785,50.872192,-17.286987
1765377750550,-0.80078125,-0.68408203,0.14697266,16.296387,43.5791,-15.380859,0.0,0.0,0.0,-65.253296,50.509644,-23.878784
1765377750638,-0.95751953,-0.6542969,0.44433594,-11.901855,6.0424805,11.352539,0.0,0.0,0.0,-65.253296,50.509644,-23.878784
1765377750650,-0.95751953,-0.6542969,0.44433594,-11.901855,6.0424805,11.352539,0.0,0.0,0.0,-70.339966,51.56433,-30.184937
1765377750738,-0.44140625,-0.32177734,0.19091797,14.160156,16.906738,-26.367188,0.0,0.0,0.0,-70.339966,51.56433,-30.184937
1765377750749,-0.44140625,-0.32177734,0.19091797,14.160156,16.906738,-26.367188,0.0,0.0,0.0,-70.12024,51.448975,-30.701294
1765377750838,-1.1655273,-0.7861328,0.34814453,42.48047,31.49414,-15.686035,0.0,0.0,0.0,-70.12024,51.448975,-30.701294
1765377750849,-1.1655273,-0.7861328,0.34814453,42.48047,31.49414,-15.686035,0.0,0.0,0.0,-71.553955,50.273438,-34.837646
1765377750937,-0.61376953,-0.52246094,0.12695312,27.893066,37.17041,-31.00586,0.0,0.0,0.0,-71.553955,50.273438,-34.837646
1765377750949,-0.61376953,-0.52246094,0.12695312,27.893066,37.17041,-31.00586,0.0,0.0,0.0,-71.466064,48.43872,-40.33081
1765377751037,-0.8208008,-0.58251953,0.14208984,-22.033691,-30.761719,25.024414,0.0,0.0,0.0,-71.466064,48.43872,-40.33081
1765377751048,-0.8208008,-0.58251953,0.14208984,-22.033691,-30.761719,25.024414,0.0,0.0,0.0,-70.53223,48.098145,-38.76526
1765377751137,-0.7470703,-0.62646484,0.21923828,-6.958008,3.1738281,-6.164551,0.0,0.0,0.0,-70.53223,48.098145,-38.76526
1765377751148,-0.7470703,-0.62646484,0.21923828,-6.958008,3.1738281,-6.164551,0.0,0.0,0.0,-71.09253,49.229736,-37.249146
1765377751236,-0.8330078,-0.62402344,0.12548828,-47.48535,-12.268066,8.972168,0.0,0.0,0.0,-71.09253,49.229736,-37.249146
1765377751248,-0.8330078,-0.62402344,0.12548828,-47.48535,-12.268066,8.972168,0.0,0.0,0.0,-72.81189,48.565063,-36.881104
1765377751336,-0.62841797,-0.6586914,0.24560547,-8.361816,0.0,-2.5634766,0.0,0.0,0.0,-72.81189,48.565063,-36.881104
1765377751348,-0.62841797,-0.6586914,0.24560547,-8.361816,0.0,-2.5634766,0.0,0.0,0.0,-75.95398,49.80652,-36.046143
1765377751436,-0.79589844,-0.6254883,0.14697266,-14.343262,2.4414062,-9.643555,0.0,0.0,0.0,-75.95398,49.80652,-36.046143
1765377751447,-0.79589844,-0.6254883,0.14697266,-14.343262,2.4414062,-9.643555,0.0,0.0,0.0,-76.761475,48.251953,-36.348267
1765377751535,-0.6503906,-0.53759766,0.1850586,-7.019043,-23.986816,32.592773,0.0,0.0,0.0,-76.761475,48.251953,-36.348267
1765377751547,-0.6503906,-0.53759766,0.1850586,-7.019043,-23.986816,32.592773,0.0,0.0,0.0,-75.71228,50.77881,-32.31079
1765377751635,-0.84521484,-0.7290039,0.22558594,33.996582,-1.0375977,-10.253906,0.0,0.0,0.0,-75.71228,50.77881,-32.31079
1765377751647,-0.84521484,-0.7290039,0.22558594,33.996582,-1.0375977,-10.253906,0.0,0.0,0.0,-72.82837,50.916138,-31.272583
1765377751735,-0.65771484,-0.6557617,0.16259766,3.2958984,-17.578125,6.8969727,0.0,0.0,0.0,-72.82837,50.916138,-31.272583
1765377751746,-0.65771484,-0.6557617,0.16259766,3.2958984,-17.578125,6.8969727,0.0,0.0,0.0,-70.57617,50.333862,-30.80017
1765377751835,-0.7558594,-0.61376953,0.17919922,-0.7324219,-35.27832,3.3569336,0.0,0.0,0.0,-70.57617,50.333862,-30.80017
1765377751846,-0.7558594,-0.61376953,0.17919922,-0.7324219,-35.27832,3.3569336,0.0,0.0,0.0,-67.10449,49.487915,-26.1969
1765377751934,-0.8022461,-0.625,0.18701172,-0.30517578,-19.470215,2.9296875,0.0,0.0,0.0,-67.10449,49.487915,-26.1969
1765377751946,-0.8022461,-0.625,0.18701172,-0.30517578,-19.470215,2.9296875,0.0,0.0,0.0,-64.72046,48.64746,-23.164673
1765377752034,-0.77001953,-0.60058594,0.15576172,-0.12207031,-9.216309,5.1879883,0.0,0.0,0.0,-64.72046,48.64746,-23.164673
1765377752050,-0.77001953,-0.60058594,0.15576172,-0.12207031,-9.216309,5.1879883,0.0,0.0,0.0,-63.704224,48.60901,-22.126465
1765377752134,-0.83154297,-0.62109375,0.16015625,-0.24414062,18.310547,1.5258789,0.0,0.0,0.0,-63.704224,48.60901,-22.126465
1765377752145,-0.83154297,-0.62109375,0.16015625,-0.24414062,18.310547,1.5258789,0.0,0.0,0.0,-64.885254,49.400024,-24.14795
1765377752234,-1.0,-0.7182617,0.26367188,-14.587402,46.203613,-4.4555664,0.0,0.0,0.0,-64.885254,49.400024,-24.14795
1765377752245,-1.0,-0.7182617,0.26367188,-14.587402,46.203613,-4.4555664,0.0,0.0,0.0,-69.9939,50.443726,-31.080322
1765377752333,-0.73291016,-0.6557617,0.3725586,-10.070801,12.878418,13.73291,0.0,0.0,0.0,-69.9939,50.443726,-31.080322
1765377752345,-0.73291016,-0.6557617,0.3725586,-10.070801,12.878418,13.73291,0.0,0.0,0.0,-72.767944,52.48169,-32.964478
1765377752433,-0.6166992,-0.44140625,0.1352539,18.676758,33.14209,-31.12793,0.0,0.0,0.0,-72.767944,52.48169,-32.964478
1765377752444,-0.6166992,-0.44140625,0.1352539,18.676758,33.14209,-31.12793,0.0,0.0,0.0,-74.72351,50.663452,-37.106323
1765377752533,-0.85253906,-0.6845703,0.19726562,-9.399414,-22.705078,20.263672,0.0,0.0,0.0,-74.72351,50.663452,-37.106323
1765377752544,-0.85253906,-0.6845703,0.19726562,-9.399414,-22.705078,20.263672,0.0,0.0,0.0,-76.16272,51.1084,-38.188477
1765377752633,-0.74560547,-0.44091797,0.15234375,20.324707,-1.0986328,-16.906738,0.0,0.0,0.0,-76.16272,51.1084,-38.188477
1765377752644,-0.74560547,-0.44091797,0.15234375,20.324707,-1.0986328,-16.906738,0.0,0.0,0.0,-73.87207,50.180054,-36.584473
1765377752732,-0.81591797,-0.6171875,0.12695312,17.944336,-3.7841797,-1.5869141,0.0,0.0,0.0,-73.87207,50.180054,-36.584473
1765377752744,-0.81591797,-0.6171875,0.12695312,17.944336,-3.7841797,-1.5869141,0.0,0.0,0.0,-71.658325,50.152588,-36.886597
1765377752832,-0.7788086,-0.59765625,0.07861328,8.178711,-4.638672,-11.108398,0.0,0.0,0.0,-71.658325,50.152588,-36.886597
1765377752844,-0.7788086,-0.59765625,0.07861328,8.178711,-4.638672,-11.108398,0.0,0.0,0.0,-70.30701,49.328613,-37.738037
1765377752932,-0.8041992,-0.59716797,0.16748047,-9.216309,-9.82666,0.061035156,0.0,0.0,0.0,-70.30701,49.328613,-37.738037
1765377752943,-0.8041992,-0.59716797,0.16748047,-9.216309,-9.82666,0.061035156,0.0,0.0,0.0,-70.55969,48.988037,-38.16101
1765377753031,-1.0610352,-0.8022461,0.28320312,-6.286621,-0.24414062,7.385254,0.0,0.0,0.0,-70.55969,48.988037,-38.16101
1765377753043,-1.0610352,-0.8022461,0.28320312,-6.286621,-0.24414062,7.385254,0.0,0.0,0.0,-70.66406,49.284668,-37.633667
1765377753131,-0.6660156,-0.46826172,0.2055664,-15.380859,4.1503906,12.084961,0.0,0.0,0.0,-70.66406,49.284668,-37.633667
1765377753143,-0.6660156,-0.46826172,0.2055664,-15.380859,4.1503906,12.084961,0.0,0.0,0.0,-72.82837,50.67444,-38.589478
1765377753231,-0.51464844,-0.5185547,0.2607422,-29.052734,-6.8969727,27.09961,0.0,0.0,0.0,-72.82837,50.67444,-38.589478
1765377753242,-0.51464844,-0.5185547,0.2607422,-29.052734,-6.8969727,27.09961,0.0,0.0,0.0,-73.097534,52.76184,-36.194458
1765377753331,-0.88134766,-0.7915039,0.3232422,-29.47998,-31.860352,-17.700195,0.0,0.0,0.0,-73.097534,52.76184,-36.194458
1765377753343,-0.88134766,-0.7915039,0.3232422,-29.47998,-31.860352,-17.700195,0.0,0.0,0.0,-73.56445,52.08069,-32.140503
1765377753430,-0.76708984,-0.4248047,0.19873047,-9.887695,-20.385742,32.592773,0.0,0.0,0.0,-73.56445,52.08069,-32.140503
1765377753442,-0.76708984,-0.4248047,0.19873047,-9.887695,-20.385742,32.592773,0.0,0.0,0.0,-70.29602,52.261963,-23.81836
1765377753530,-0.6748047,-0.6826172,0.265625,32.165527,11.291504,-29.11377,0.0,0.0,0.0,-70.29602,52.261963,-23.81836
1765377753542,-0.6748047,-0.6826172,0.265625,32.165527,11.291504,-29.11377,0.0,0.0,0.0,-68.829346,52.097168,-24.01062
1765377753630,-0.87646484,-0.5527344,0.13720703,24.902344,5.6762695,-1.5869141,0.0,0.0,0.0,-68.829346,52.097168,-24.01062
1765377753642,-0.87646484,-0.5527344,0.13720703,24.902344,5.6762695,-1.5869141,0.0,0.0,0.0,-68.10425,50.108643,-28.201904
1765377753729,-0.74609375,-0.5839844,0.18554688,41.07666,23.498535,-3.8452148,0.0,0.0,0.0,-68.10425,50.108643,-28.201904
1765377753741,-0.74609375,-0.5839844,0.18554688,41.07666,23.498535,-3.8452148,0.0,0.0,0.0,-65.93994,51.141357,-29.212646
