timestamp,accX,accY,accZ,gyroX,gyroY,gyroZ,magX,magY,magZ,roll,pitch,yaw
1766812699300,-0.97558594,0.106933594,-0.21142578,1.3427734,-0.36621094,-1.0986328,0.0,0.0,0.0,153.09448,76.15173,-171.55151
1766812699311,-0.97558594,0.106933594,-0.21142578,1.3427734,-0.36621094,-1.0986328,0.0,0.0,0.0,153.3197,76.23413,-171.34277
1766812699400,-0.9760742,0.109375,-0.20898438,0.30517578,0.0,-0.5493164,0.0,0.0,0.0,153.3197,76.23413,-171.34277
1766812699411,-0.9760742,0.109375,-0.20898438,0.30517578,0.0,-0.5493164,0.0,0.0,0.0,153.62183,76.278076,-171.0791
1766812699499,-0.9824219,0.10058594,-0.21533203,0.18310547,-0.061035156,-0.36621094,0.0,0.0,0.0,153.62183,76.278076,-171.0791
1766812699511,-0.9824219,0.10058594,-0.21533203,0.18310547,-0.061035156,-0.36621094,0.0,0.0,0.0,153.7207,76.31653,-170.97473
1766812699602,-0.9682617,0.11230469,-0.20361328,0.0,0.30517578,-0.48828125,0.0,0.0,0.0,153.7207,76.31653,-170.97473
1766812699611,-0.9682617,0.11230469,-0.20361328,0.0,0.30517578,-0.48828125,0.0,0.0,0.0,153.83606,76.294556,-170.84839
1766812699703,-0.9824219,0.10449219,-0.21191406,0.7324219,-0.30517578,-0.6713867,0.0,0.0,0.0,153.83606,76.294556,-170.84839
1766812699711,-0.9824219,0.10449219,-0.21191406,0.7324219,-0.30517578,-0.6713867,0.0,0.0,0.0,153.9679,76.36047,-170.71106
1766812699799,-0.96875,0.103027344,-0.2084961,-0.18310547,-0.061035156,-0.061035156,0.0,0.0,0.0,153.9679,76.36047,-170.71106
1766812699810,-0.96875,0.103027344,-0.2084961,-0.18310547,-0.061035156,-0.061035156,0.0,0.0,0.0,154.07227,76.35498,-170.57373
1766812699898,-0.9790039,0.107910156,-0.20703125,-0.18310547,-0.12207031,-0.30517578,0.0,0.0,0.0,154.07227,76.35498,-170.57373
1766812699910,-0.9790039,0.107910156,-0.20703125,-0.18310547,-0.12207031,-0.30517578,0.0,0.0,0.0,154.11621,76.38245,-170.5133
1766812699998,-0.9741211,0.10107422,-0.21044922,0.061035156,0.0,0.0,0.0,0.0,0.0,154.11621,76.38245,-170.5133
1766812700009,-0.9741211,0.10107422,-0.21044922,0.061035156,0.0,0.0,0.0,0.0,0.0,154.1272,76.38245,-170.46387
1766812700097,-0.9760742,0.10644531,-0.20800781,-0.18310547,0.12207031,-0.18310547,0.0,0.0,0.0,154.1272,76.38245,-170.46387
1766812700109,-0.9760742,0.10644531,-0.20800781,-0.18310547,0.12207031,-0.18310547,0.0,0.0,0.0,154.17114,76.37695,-170.41992
1766812700198,-0.9746094,0.104003906,-0.20703125,0.061035156,-0.061035156,0.0,0.0,0.0,0.0,154.17114,76.37695,-170.41992
1766812700209,-0.9746094,0.104003906,-0.20703125,0.061035156,-0.061035156,0.0,0.0,0.0,0.0,154.16016,76.37146,-170.38696
1766812700297,-0.97558594,0.10205078,-0.20947266,-0.12207031,0.36621094,-0.36621094,0.0,0.0,0.0,154.16016,76.37146,-170.38696
1766812700308,-0.97558594,0.10205078,-0.20947266,-0.12207031,0.36621094,-0.36621094,0.0,0.0,0.0,154.22058,76.36047,-170.31006
1766812700397,-0.9790039,0.103515625,-0.2055664,-0.61035156,-0.48828125,-0.061035156,0.0,0.0,0.0,154.22058,76.36047,-170.31006
1766812700408,-0.9790039,0.103515625,-0.2055664,-0.61035156,-0.48828125,-0.061035156,0.0,0.0,0.0,154.22607,76.36597,-170.2716
1766812700496,-0.97509766,0.107910156,-0.20996094,0.0,-0.4272461,-0.12207031,0.0,0.0,0.0,154.22607,76.36597,-170.2716
1766812700508,-0.97509766,0.107910156,-0.20996094,0.0,-0.4272461,-0.12207031,0.0,0.0,0.0,154.30298,76.37695,-170.17822
1766812700596,-0.9765625,0.10253906,-0.20996094,-0.12207031,-0.24414062,-0.24414062,0.0,0.0,0.0,154.30298,76.37695,-170.17822
1766812700607,-0.9765625,0.10253906,-0.20996094,-0.12207031,-0.24414062,-0.24414062,0.0,0.0,0.0,154.30847,76.38794,-170.15076
1766812700696,-0.9760742,0.10205078,-0.20996094,-0.36621094,-0.061035156,-0.12207031,0.0,0.0,0.0,154.30847,76.38794,-170.15076
1766812700707,-0.9760742,0.10205078,-0.20996094,-0.36621094,-0.061035156,-0.12207031,0.0,0.0,0.0,154.3634,76.398926,-170.06836
1766812700795,-0.97802734,0.10888672,-0.20751953,-0.18310547,0.18310547,0.12207031,0.0,0.0,0.0,154.3634,76.398926,-170.06836
1766812700807,-0.97802734,0.10888672,-0.20751953,-0.18310547,0.18310547,0.12207031,0.0,0.0,0.0,154.33044,76.38794,-170.06287
1766812700895,-0.9741211,0.103515625,-0.20947266,-0.30517578,-0.061035156,0.24414062,0.0,0.0,0.0,154.33044,76.38794,-170.06287
1766812700906,-0.9741211,0.103515625,-0.20947266,-0.30517578,-0.061035156,0.24414062,0.0,0.0,0.0,154.23706,76.36597,-170.10132
1766812700995,-0.9760742,0.103027344,-0.2109375,-0.79345703,-0.061035156,0.12207031,0.0,0.0,0.0,154.23706,76.36597,-170.10132
1766812701006,-0.9760742,0.103027344,-0.2109375,-0.79345703,-0.061035156,0.12207031,0.0,0.0,0.0,154.08875,76.36047,-170.2002
1766812701094,-0.9746094,0.107421875,-0.21142578,-0.79345703,0.0,0.4272461,0.0,0.0,0.0,154.08875,76.36047,-170.2002
1766812701107,-0.9746094,0.107421875,-0.21142578,-0.79345703,0.0,0.4272461,0.0,0.0,0.0,153.89648,76.3385,-170.31555
1766812701194,-0.9707031,0.10839844,-0.20800781,-0.7324219,-0.5493164,0.6713867,0.0,0.0,0.0,153.89648,76.3385,-170.31555
1766812701206,-0.9707031,0.10839844,-0.20800781,-0.7324219,-0.5493164,0.6713867,0.0,0.0,0.0,153.63281,76.31653,-170.5133
1766812701294,-0.9746094,0.107421875,-0.20800781,-0.24414062,0.5493164,0.24414062,0.0,0.0,0.0,153.63281,76.31653,-170.5133
1766812701305,-0.9746094,0.107421875,-0.20800781,-0.24414062,0.5493164,0.24414062,0.0,0.0,0.0,153.35266,76.31653,-170.74402
1766812701393,-0.9746094,0.110839844,-0.20996094,-0.36621094,-0.061035156,0.36621094,0.0,0.0,0.0,153.35266,76.31653,-170.74402
1766812701405,-0.9746094,0.110839844,-0.20996094,-0.36621094,-0.061035156,0.36621094,0.0,0.0,0.0,153.11096,76.294556,-170.93079
1766812701493,-0.9741211,0.10888672,-0.20751953,-0.9765625,-0.18310547,0.24414062,0.0,0.0,0.0,153.11096,76.294556,-170.93079
1766812701505,-0.9741211,0.10888672,-0.20751953,-0.9765625,-0.18310547,0.24414062,0.0,0.0,0.0,152.90771,76.294556,-171.05164
1766812701593,-0.9760742,0.10986328,-0.20800781,-0.7324219,-0.24414062,0.36621094,0.0,0.0,0.0,152.90771,76.294556,-171.05164
1766812701605,-0.9760742,0.10986328,-0.20800781,-0.7324219,-0.24414062,0.36621094,0.0,0.0,0.0,152.64954,76.30005,-171.2384
1766812701693,-0.97265625,0.11230469,-0.20458984,-0.6713867,0.30517578,0.24414062,0.0,0.0,0.0,152.64954,76.30005,-171.2384
1766812701704,-0.97265625,0.11230469,-0.20458984,-0.6713867,0.30517578,0.24414062,0.0,0.0,0.0,152.45178,76.278076,-171.35376
1766812701792,-0.9746094,0.11328125,-0.20507812,-0.24414062,0.061035156,-0.12207031,0.0,0.0,0.0,152.45178,76.278076,-171.35376
1766812701804,-0.9746094,0.11328125,-0.20507812,-0.24414062,0.061035156,-0.12207031,0.0,0.0,0.0,152.40234,76.27258,-171.33179
1766812701892,-0.97216797,0.111816406,-0.20703125,0.0,0.12207031,-0.36621094,0.0,0.0,0.0,152.40234,76.27258,-171.33179
1766812701903,-0.97216797,0.111816406,-0.20703125,0.0,0.12207031,-0.36621094,0.0,0.0,0.0,152.47925,76.2616,-171.20544
1766812701992,-0.97558594,0.110839844,-0.20947266,0.5493164,0.24414062,-0.6713867,0.0,0.0,0.0,152.47925,76.2616,-171.20544
1766812702003,-0.97558594,0.110839844,-0.20947266,0.5493164,0.24414062,-0.6713867,0.0,0.0,0.0,152.70447,76.278076,-170.95825
1766812702091,-0.97802734,0.10546875,-0.20605469,0.4272461,-0.12207031,-0.61035156,0.0,0.0,0.0,152.70447,76.278076,-170.95825
1766812702103,-0.97802734,0.10546875,-0.20605469,0.4272461,-0.12207031,-0.61035156,0.0,0.0,0.0,152.85828,76.327515,-170.80994
1766812702191,-0.97753906,0.111328125,-0.2084961,0.48828125,-0.4272461,-0.5493164,0.0,0.0,0.0,152.85828,76.327515,-170.80994
1766812702203,-0.97753906,0.111328125,-0.2084961,0.48828125,-0.4272461,-0.5493164,0.0,0.0,0.0,153.12195,76.37695,-170.6012
1766812702291,-0.9760742,0.106933594,-0.20751953,0.24414062,0.061035156,-0.5493164,0.0,0.0,0.0,153.12195,76.37695,-170.6012
1766812702303,-0.9760742,0.106933594,-0.20751953,0.24414062,0.061035156,-0.5493164,0.0,0.0,0.0,153.42407,76.38794,-170.30457
1766812702391,-0.97558594,0.107910156,-0.20703125,0.24414062,-0.061035156,-0.4272461,0.0,0.0,0.0,153.42407,76.38794,-170.30457
1766812702402,-0.97558594,0.107910156,-0.20703125,0.24414062,-0.061035156,-0.4272461,0.0,0.0,0.0,153.55042,76.40991,-170.16724
1766812702490,-0.9760742,0.10546875,-0.20751953,-0.061035156,0.12207031,-0.36621094,0.0,0.0,0.0,153.55042,76.40991,-170.16724
1766812702502,-0.9760742,0.10546875,-0.20751953,-0.061035156,0.12207031,-0.36621094,0.0,0.0,0.0,153.75916,76.40991,-169.94202
1766812702590,-0.97558594,0.107421875,-0.20751953,0.061035156,-0.061035156,-0.18310547,0.0,0.0,0.0,153.75916,76.40991,-169.94202
1766812702601,-0.97558594,0.107421875,-0.20751953,0.061035156,-0.061035156,-0.18310547,0.0,0.0,0.0,153.83606,76.4209,-169.84314
1766812702690,-0.97509766,0.10449219,-0.20654297,0.061035156,0.061035156,-0.061035156,0.0,0.0,0.0,153.83606,76.4209,-169.84314
1766812702702,-0.97509766,0.10449219,-0.20654297,0.061035156,0.061035156,-0.061035156,0.0,0.0,0.0,153.86902,76.4209,-169.78271
1766812702789,-0.97558594,0.10449219,-0.2055664,0.0,0.0,-0.12207031,0.0,0.0,0.0,153.86902,76.4209,-169.78271
1766812702801,-0.97558594,0.10449219,-0.2055664,0.0,0.0,-0.12207031,0.0,0.0,0.0,153.85803,76.415405,-169.77722
1766812702889,-0.9760742,0.10644531,-0.20654297,-0.061035156,-0.5493164,-0.12207031,0.0,0.0,0.0,153.85803,76.415405,-169.77722
1766812702900,-0.9760742,0.10644531,-0.20654297,-0.061035156,-0.5493164,-0.12207031,0.0,0.0,0.0,153.92395,76.40991,-169.7113
1766812702989,-0.97509766,0.10595703,-0.20898438,-0.061035156,-0.30517578,-0.12207031,0.0,0.0,0.0,153.92395,76.40991,-169.7113
1766812703000,-0.97509766,0.10595703,-0.20898438,-0.061035156,-0.30517578,-0.12207031,0.0,0.0,0.0,154.00635,76.40991,-169.61792
1766812703088,-0.97558594,0.104003906,-0.20898438,0.061035156,-0.12207031,-0.18310547,0.0,0.0,0.0,154.00635,76.40991,-169.61792
1766812703100,-0.97558594,0.104003906,-0.20898438,0.061035156,-0.12207031,-0.18310547,0.0,0.0,0.0,154.06677,76.415405,-169.54651
1766812703189,-0.97509766,0.103027344,-0.20947266,0.0,-0.24414062,-0.18310547,0.0,0.0,0.0,154.06677,76.415405,-169.54651
1766812703200,-0.97509766,0.103027344,-0.20947266,0.0,-0.24414062,-0.18310547,0.0,0.0,0.0,154.11072,76.4209,-169.49707
1766812703288,-0.9760742,0.10498047,-0.20751953,-0.061035156,0.0,-0.061035156,0.0,0.0,0.0,154.11072,76.4209,-169.49707
1766812703300,-0.9760742,0.10498047,-0.20751953,-0.061035156,0.0,-0.061035156,0.0,0.0,0.0,154.08875,76.431885,-169.50256
1766812703389,-0.97558594,0.103515625,-0.20800781,-0.12207031,-0.061035156,0.0,0.0,0.0,0.0,154.08875,76.431885,-169.50256
1766812703399,-0.97558594,0.103515625,-0.20800781,-0.12207031,-0.061035156,0.0,0.0,0.0,0.0,154.06677,76.42639,-169.50256
1766812703487,-0.9760742,0.10498047,-0.20800781,-0.12207031,0.18310547,0.0,0.0,0.0,0.0,154.06677,76.42639,-169.50256
1766812703503,-0.9760742,0.10498047,-0.20800781,-0.12207031,0.18310547,0.0,0.0,0.0,0.0,154.05579,76.4209,-169.49158
1766812703588,-0.9760742,0.10546875,-0.20947266,0.0,0.0,0.0,0.0,0.0,0.0,154.05579,76.4209,-169.49158
1766812703599,-0.9760742,0.10546875,-0.20947266,0.0,0.0,0.0,0.0,0.0,0.0,154.0448,76.40991,-169.48059
1766812703688,-0.97314453,0.103515625,-0.21142578,-0.18310547,0.24414062,0.0,0.0,0.0,0.0,154.0448,76.40991,-169.48059
1766812703699,-0.97314453,0.103515625,-0.21142578,-0.18310547,0.24414062,0.0,0.0,0.0,0.0,154.0503,76.398926,-169.46411
1766812703787,-0.9736328,0.103027344,-0.20703125,0.48828125,0.36621094,-0.30517578,0.0,0.0,0.0,154.0503,76.398926,-169.46411
1766812703798,-0.9736328,0.103027344,-0.20703125,0.48828125,0.36621094,-0.30517578,0.0,0.0,0.0,154.02832,76.40442,-169.4751
1766812703886,-0.97509766,0.10546875,-0.20751953,0.12207031,0.061035156,-0.24414062,0.0,0.0,0.0,154.02832,76.40442,-169.4751
1766812703897,-0.97509766,0.10546875,-0.20751953,0.12207031,0.061035156,-0.24414062,0.0,0.0,0.0,154.09973,76.40991,-169.3872
1766812703986,-0.9765625,0.10205078,-0.20751953,-0.18310547,0.0,-0.061035156,0.0,0.0,0.0,154.09973,76.40991,-169.3872
1766812703997,-0.9765625,0.10205078,-0.20751953,-0.18310547,0.0,-0.061035156,0.0,0.0,0.0,154.1217,76.4209,-169.34326
1766812704085,-0.9770508,0.10498047,-0.2084961,-0.24414062,0.0,0.12207031,0.0,0.0,0.0,154.1217,76.4209,-169.34326
1766812704097,-0.9770508,0.10498047,-0.2084961,-0.24414062,0.0,0.12207031,0.0,0.0,0.0,154.09424,76.4209,-169.34875
1766812704185,-0.9765625,0.104003906,-0.20898438,-0.4272461,-0.12207031,0.18310547,0.0,0.0,0.0,154.09424,76.4209,-169.34875
1766812704197,-0.9765625,0.104003906,-0.20898438,-0.4272461,-0.12207031,0.18310547,0.0,0.0,0.0,154.01733,76.40991,-169.3927
1766812704285,-0.97509766,0.103515625,-0.2084961,-0.61035156,0.0,0.30517578,0.0,0.0,0.0,154.01733,76.40991,-169.3927
1766812704296,-0.97509766,0.103515625,-0.2084961,-0.61035156,0.0,0.30517578,0.0,0.0,0.0,153.85254,76.398926,-169.51355
1766812704385,-0.97558594,0.107910156,-0.20703125,-0.7324219,0.061035156,0.36621094,0.0,0.0,0.0,153.85254,76.398926,-169.51355
1766812704396,-0.97558594,0.107910156,-0.20703125,-0.7324219,0.061035156,0.36621094,0.0,0.0,0.0,153.6438,76.38794,-169.65637
1766812704484,-0.9736328,0.107421875,-0.20507812,-1.0375977,-0.6713867,0.12207031,0.0,0.0,0.0,153.6438,76.38794,-169.65637
1766812704496,-0.9736328,0.107421875,-0.20507812,-1.0375977,-0.6713867,0.12207031,0.0,0.0,0.0,153.4021,76.38794,-169.7992
1766812704584,-0.98095703,0.106933594,-0.19970703,-0.4272461,-0.79345703,0.5493164,0.0,0.0,0.0,153.4021,76.38794,-169.7992
1766812704595,-0.98095703,0.106933594,-0.19970703,-0.4272461,-0.79345703,0.5493164,0.0,0.0,0.0,152.95715,76.43738,-170.16724
1766812704684,-0.9716797,0.111328125,-0.20996094,-0.6713867,0.0,0.5493164,0.0,0.0,0.0,152.95715,76.43738,-170.16724
1766812704695,-0.9716797,0.111328125,-0.20996094,-0.6713867,0.0,0.5493164,0.0,0.0,0.0,152.88025,76.39343,-170.24414
1766812704783,-0.9770508,0.11035156,-0.20507812,0.0,0.12207031,-0.18310547,0.0,0.0,0.0,152.88025,76.39343,-170.24414
1766812704795,-0.9770508,0.11035156,-0.20507812,0.0,0.12207031,-0.18310547,0.0,0.0,0.0,152.79785,76.36597,-170.2771
1766812704883,-0.9746094,0.10839844,-0.20703125,-0.6713867,0.0,0.18310547,0.0,0.0,0.0,152.79785,76.36597,-170.2771
1766812704894,-0.9746094,0.10839844,-0.20703125,-0.6713867,0.0,0.18310547,0.0,0.0,0.0,152.77039,76.343994,-170.25513
1766812704983,-0.9765625,0.11279297,-0.2055664,-0.4272461,0.12207031,0.18310547,0.0,0.0,0.0,152.77039,76.343994,-170.25513
1766812704994,-0.9765625,0.11279297,-0.2055664,-0.4272461,0.12207031,0.18310547,0.0,0.0,0.0,152.6825,76.327515,-170.2826
1766812705082,-0.9711914,0.11279297,-0.20703125,-0.36621094,0.0,0.18310547,0.0,0.0,0.0,152.6825,76.327515,-170.2826
1766812705094,-0.9711914,0.11279297,-0.20703125,-0.36621094,0.0,0.18310547,0.0,0.0,0.0,152.58362,76.28906,-170.32104
1766812705182,-0.97216797,0.10839844,-0.20507812,-0.36621094,0.061035156,0.12207031,0.0,0.0,0.0,152.58362,76.28906,-170.32104
1766812705194,-0.97216797,0.10839844,-0.20507812,-0.36621094,0.061035156,0.12207031,0.0,0.0,0.0,152.42981,76.28357,-170.40344
1766812705282,-0.97558594,0.11328125,-0.20947266,0.0,0.061035156,-0.48828125,0.0,0.0,0.0,152.42981,76.28357,-170.40344
1766812705293,-0.97558594,0.11328125,-0.20947266,0.0,0.061035156,-0.48828125,0.0,0.0,0.0,152.44629,76.27258,-170.354
1766812705382,-0.97314453,0.11279297,-0.20751953,0.0,-0.30517578,-0.30517578,0.0,0.0,0.0,152.44629,76.27258,-170.354
1766812705393,-0.97314453,0.11279297,-0.20751953,0.0,-0.30517578,-0.30517578,0.0,0.0,0.0,152.60559,76.28357,-170.17273
1766812705481,-0.97216797,0.11035156,-0.20800781,0.61035156,0.30517578,-0.7324219,0.0,0.0,0.0,152.60559,76.28357,-170.17273
1766812705493,-0.97216797,0.11035156,-0.20800781,0.61035156,0.30517578,-0.7324219,0.0,0.0,0.0,152.8418,76.28906,-169.93652
1766812705581,-0.9760742,0.11230469,-0.20947266,0.7324219,0.061035156,-0.61035156,0.0,0.0,0.0,152.8418,76.28906,-169.93652
1766812705592,-0.9760742,0.11230469,-0.20947266,0.7324219,0.061035156,-0.61035156,0.0,0.0,0.0,153.06152,76.311035,-169.72229
1766812705681,-0.97558594,0.10498047,-0.20947266,0.18310547,0.0,-0.48828125,0.0,0.0,0.0,153.06152,76.311035,-169.72229
1766812705692,-0.97558594,0.10498047,-0.20947266,0.18310547,0.0,-0.48828125,0.0,0.0,0.0,153.27576,76.33301,-169.51355
1766812705780,-0.97216797,0.10546875,-0.20800781,0.061035156,-0.18310547,-0.30517578,0.0,0.0,0.0,153.27576,76.33301,-169.51355
1766812705793,-0.97216797,0.10546875,-0.20800781,0.061035156,-0.18310547,-0.30517578,0.0,0.0,0.0,153.42407,76.343994,-169.35974
1766812705880,-0.97509766,0.11279297,-0.20751953,0.4272461,0.4272461,-0.61035156,0.0,0.0,0.0,153.42407,76.343994,-169.35974
1766812705892,-0.97509766,0.11279297,-0.20751953,0.4272461,0.4272461,-0.61035156,0.0,0.0,0.0,153.59985,76.33301,-169.16748
1766812705980,-0.98291016,0.10498047,-0.21484375,0.61035156,0.061035156,-0.5493164,0.0,0.0,0.0,153.59985,76.33301,-169.16748
1766812705991,-0.98291016,0.10498047,-0.21484375,0.61035156,0.061035156,-0.5493164,0.0,0.0,0.0,153.67676,76.38245,-169.09607
1766812706080,-0.96728516,0.10644531,-0.20410156,-0.061035156,-0.5493164,0.0,0.0,0.0,0.0,153.67676,76.38245,-169.09607
1766812706091,-0.96728516,0.10644531,-0.20410156,-0.061035156,-0.5493164,0.0,0.0,0.0,0.0,153.84155,76.35498,-168.93127
1766812706179,-0.9785156,0.10449219,-0.20751953,0.4272461,0.30517578,-0.61035156,0.0,0.0,0.0,153.84155,76.35498,-168.93127
1766812706191,-0.9785156,0.10449219,-0.20751953,0.4272461,0.30517578,-0.61035156,0.0,0.0,0.0,154.0393,76.36047,-168.72803
1766812706280,-0.98046875,0.1015625,-0.20996094,0.18310547,0.36621094,0.18310547,0.0,0.0,0.0,154.0393,76.36047,-168.72803
1766812706291,-0.98046875,0.1015625,-0.20996094,0.18310547,0.36621094,0.18310547,0.0,0.0,0.0,154.0503,76.34949,-168.72253
1766812706379,-0.9819336,0.11230469,-0.21386719,-1.159668,1.0986328,1.2817383,0.0,0.0,0.0,154.0503,76.34949,-168.72253
1766812706390,-0.9819336,0.11230469,-0.21386719,-1.159668,1.0986328,1.2817383,0.0,0.0,0.0,153.9624,76.2561,-168.79944
1766812706478,-0.97216797,0.106933594,-0.21191406,-1.6479492,-0.4272461,1.7089844,0.0,0.0,0.0,153.9624,76.2561,-168.79944
1766812706490,-0.97216797,0.106933594,-0.21191406,-1.6479492,-0.4272461,1.7089844,0.0,0.0,0.0,153.09448,76.118774,-169.49707
1766812706578,-0.9746094,0.111328125,-0.21044922,-1.7089844,-0.18310547,0.79345703,0.0,0.0,0.0,153.09448,76.118774,-169.49707
1766812706589,-0.9746094,0.111328125,-0.21044922,-1.7089844,-0.18310547,0.79345703,0.0,0.0,0.0,152.49573,76.085815,-169.96399
1766812706678,-0.97021484,0.11816406,-0.20654297,-1.4648438,0.18310547,1.0375977,0.0,0.0,0.0,152.49573,76.085815,-169.96399
1766812706689,-0.97021484,0.11816406,-0.20654297,-1.4648438,0.18310547,1.0375977,0.0,0.0,0.0,152.12769,76.014404,-170.21667
1766812706777,-0.9682617,0.115722656,-0.21044922,-0.24414062,-0.12207031,-0.061035156,0.0,0.0,0.0,152.12769,76.014404,-170.21667
1766812706789,-0.9682617,0.115722656,-0.21044922,-0.24414062,-0.12207031,-0.061035156,0.0,0.0,0.0,151.86401,75.99243,-170.39246
1766812706877,-0.97216797,0.11376953,-0.20898438,0.0,0.061035156,-0.30517578,0.0,0.0,0.0,151.86401,75.99243,-170.39246
1766812706890,-0.97216797,0.11376953,-0.20898438,0.0,0.061035156,-0.30517578,0.0,0.0,0.0,151.92993,76.014404,-170.29907
1766812706977,-0.97216797,0.1171875,-0.21191406,0.18310547,-0.12207031,-0.61035156,0.0,0.0,0.0,151.92993,76.014404,-170.29907
1766812706989,-0.97216797,0.1171875,-0.21191406,0.18310547,-0.12207031,-0.61035156,0.0,0.0,0.0,151.99585,76.03088,-170.20569
1766812707076,-0.97314453,0.11767578,-0.20800781,0.48828125,-0.48828125,-0.5493164,0.0,0.0,0.0,151.99585,76.03088,-170.20569
1766812707088,-0.97314453,0.11767578,-0.20800781,0.48828125,-0.48828125,-0.5493164,0.0,0.0,0.0,152.21558,76.069336,-169.99146
1766812707176,-0.97314453,0.11621094,-0.21044922,1.0986328,0.36621094,-0.5493164,0.0,0.0,0.0,152.21558,76.069336,-169.99146
1766812707188,-0.97314453,0.11621094,-0.21044922,1.0986328,0.36621094,-0.5493164,0.0,0.0,0.0,152.39136,76.08032,-169.82666
1766812707276,-0.9746094,0.111816406,-0.2133789,0.5493164,0.18310547,-0.48828125,0.0,0.0,0.0,152.39136,76.08032,-169.82666
1766812707287,-0.9746094,0.111816406,-0.2133789,0.5493164,0.18310547,-0.48828125,0.0,0.0,0.0,152.57263,76.085815,-169.65637
1766812707376,-0.97314453,0.111816406,-0.2109375,0.24414062,0.0,-0.36621094,0.0,0.0,0.0,152.57263,76.085815,-169.65637
1766812707387,-0.97314453,0.111816406,-0.2109375,0.24414062,0.0,-0.36621094,0.0,0.0,0.0,152.74292,76.09131,-169.48608
1766812707475,-0.97314453,0.110839844,-0.21044922,0.36621094,0.0,-0.48828125,0.0,0.0,0.0,152.74292,76.09131,-169.48608
1766812707487,-0.97314453,0.110839844,-0.21044922,0.36621094,0.0,-0.48828125,0.0,0.0,0.0,152.86926,76.11328,-169.36523
1766812707575,-0.97558594,0.11035156,-0.2109375,0.5493164,0.18310547,-0.4272461,0.0,0.0,0.0,152.86926,76.11328,-169.36523
1766812707586,-0.97558594,0.11035156,-0.2109375,0.5493164,0.18310547,-0.4272461,0.0,0.0,0.0,153.08899,76.12427,-169.16199
1766812707675,-0.97753906,0.11279297,-0.21240234,0.4272461,0.36621094,-0.12207031,0.0,0.0,0.0,153.08899,76.12427,-169.16199
1766812707686,-0.97753906,0.11279297,-0.21240234,0.4272461,0.36621094,-0.12207031,0.0,0.0,0.0,153.22083,76.11328,-169.04114
1766812707774,-0.9765625,0.111328125,-0.2133789,0.061035156,0.0,0.12207031,0.0,0.0,0.0,153.22083,76.11328,-169.04114
1766812707786,-0.9765625,0.111328125,-0.2133789,0.061035156,0.0,0.12207031,0.0,0.0,0.0,153.22083,76.08032,-169.01367
1766812707874,-0.9814453,0.11230469,-0.2163086,0.18310547,1.0986328,0.79345703,0.0,0.0,0.0,153.22083,76.08032,-169.01367
1766812707886,-0.9814453,0.11230469,-0.2163086,0.18310547,1.0986328,0.79345703,0.0,0.0,0.0,153.28125,76.05286,-168.9917
1766812707974,-0.96972656,0.111816406,-0.21289062,0.6713867,0.24414062,1.0375977,0.0,0.0,0.0,153.28125,76.05286,-168.9917
1766812707985,-0.96972656,0.111816406,-0.21289062,0.6713867,0.24414062,1.0375977,0.0,0.0,0.0,152.68799,75.9375,-169.56848
1766812708073,-0.97753906,0.109375,-0.20361328,0.4272461,0.48828125,1.2207031,0.0,0.0,0.0,152.68799,75.9375,-169.56848
1766812708085,-0.97753906,0.109375,-0.20361328,0.4272461,0.48828125,1.2207031,0.0,0.0,0.0,152.6825,75.87158,-169.65088
1766812708173,-0.9663086,0.10449219,-0.21923828,0.061035156,-1.5258789,0.12207031,0.0,0.0,0.0,152.6825,75.87158,-169.65088
1766812708185,-0.9663086,0.10449219,-0.21923828,0.061035156,-1.5258789,0.12207031,0.0,0.0,0.0,152.29797,75.87158,-170.10132
1766812708273,-0.9667969,0.10546875,-0.22167969,-1.5869141,-0.6713867,-1.7700195,0.0,0.0,0.0,152.29797,75.87158,-170.10132
1766812708284,-0.9667969,0.10546875,-0.22167969,-1.5869141,-0.6713867,-1.7700195,0.0,0.0,0.0,152.3584,75.98694,-170.0299
1766812708373,-0.9692383,0.12646484,-0.2006836,0.5493164,-0.061035156,-0.4272461,0.0,0.0,0.0,152.3584,75.98694,-170.0299
1766812708384,-0.9692383,0.12646484,-0.2006836,0.5493164,-0.061035156,-0.4272461,0.0,0.0,0.0,152.80884,76.05286,-169.59045
1766812708472,-0.9770508,0.12060547,-0.21044922,0.61035156,-1.159668,1.3427734,0.0,0.0,0.0,152.80884,76.05286,-169.59045
1766812708484,-0.9770508,0.12060547,-0.21044922,0.61035156,-1.159668,1.3427734,0.0,0.0,0.0,152.22107,76.118774,-170.16724
1766812708572,-0.9848633,0.10498047,-0.21484375,-1.2817383,0.7324219,0.61035156,0.0,0.0,0.0,152.22107,76.118774,-170.16724
1766812708583,-0.9848633,0.10498047,-0.21484375,-1.2817383,0.7324219,0.61035156,0.0,0.0,0.0,151.73767,76.08032,-170.55725
1766812708672,-0.96972656,0.10888672,-0.20654297,-1.2207031,0.7324219,0.7324219,0.0,0.0,0.0,151.73767,76.08032,-170.55725
1766812708684,-0.96972656,0.10888672,-0.20654297,-1.2207031,0.7324219,0.7324219,0.0,0.0,0.0,151.69373,75.98694,-170.56824
1766812708771,-0.9736328,0.12451172,-0.2133789,-2.0141602,-2.1972656,0.6713867,0.0,0.0,0.0,151.69373,75.98694,-170.56824
1766812708783,-0.9736328,0.12451172,-0.2133789,-2.0141602,-2.1972656,0.6713867,0.0,0.0,0.0,151.21033,76.04736,-171.02966
1766812708871,-0.9794922,0.13964844,-0.20117188,-1.4038086,-1.953125,0.6713867,0.0,0.0,0.0,151.21033,76.04736,-171.02966
1766812708883,-0.9794922,0.13964844,-0.20117188,-1.4038086,-1.953125,0.6713867,0.0,0.0,0.0,150.69946,76.118774,-171.3977
1766812708971,-0.96972656,0.1328125,-0.2006836,0.5493164,0.24414062,-0.36621094,0.0,0.0,0.0,150.69946,76.118774,-171.3977
1766812708982,-0.96972656,0.1328125,-0.2006836,0.5493164,0.24414062,-0.36621094,0.0,0.0,0.0,150.46326,76.09131,-171.45813
1766812709070,-0.9868164,0.10644531,-0.21191406,1.5258789,0.30517578,-1.0986328,0.0,0.0,0.0,150.46326,76.09131,-171.45813
1766812709082,-0.9868164,0.10644531,-0.21191406,1.5258789,0.30517578,-1.0986328,0.0,0.0,0.0,150.74341,76.07483,-171.12305
1766812709170,-0.9633789,0.11425781,-0.21191406,1.0375977,1.953125,-0.7324219,0.0,0.0,0.0,150.74341,76.07483,-171.12305
1766812709182,-0.9633789,0.11425781,-0.21191406,1.0375977,1.953125,-0.7324219,0.0,0.0,0.0,151.49048,75.97595,-170.46387
1766812709270,-0.9682617,0.12011719,-0.203125,0.9765625,-1.0375977,-0.9765625,0.0,0.0,0.0,151.49048,75.97595,-170.46387
1766812709281,-0.9682617,0.12011719,-0.203125,0.9765625,-1.0375977,-0.9765625,0.0,0.0,0.0,151.82007,76.00891,-170.18372
1766812709370,-0.98583984,0.11669922,-0.20410156,-1.6479492,1.4648438,0.9765625,0.0,0.0,0.0,151.82007,76.00891,-170.18372
1766812709381,-0.98583984,0.11669922,-0.20410156,-1.6479492,1.4648438,0.9765625,0.0,0.0,0.0,151.74316,76.085815,-170.21667
1766812709469,-0.9584961,0.110839844,-0.22705078,-0.7324219,0.7324219,0.7324219,0.0,0.0,0.0,151.74316,76.085815,-170.21667
1766812709481,-0.9584961,0.110839844,-0.22705078,-0.7324219,0.7324219,0.7324219,0.0,0.0,0.0,151.3092,75.8551,-170.55725
1766812709569,-0.9863281,0.11669922,-0.19677734,-3.2348633,1.2207031,0.79345703,0.0,0.0,0.0,151.3092,75.8551,-170.55725
1766812709580,-0.9863281,0.11669922,-0.19677734,-3.2348633,1.2207031,0.79345703,0.0,0.0,0.0,151.47949,75.82214,-170.29907
1766812709669,-0.9716797,0.11425781,-0.21679688,-1.5869141,-1.0375977,3.479004,0.0,0.0,0.0,151.47949,75.82214,-170.29907
1766812709680,-0.9716797,0.11425781,-0.21679688,-1.5869141,-1.0375977,3.479004,0.0,0.0,0.0,150.47974,75.635376,-171.0846
1766812709768,-0.9506836,0.14160156,-0.2163086,0.18310547,0.36621094,-0.12207031,0.0,0.0,0.0,150.47974,75.635376,-171.0846
1766812709780,-0.9506836,0.14160156,-0.2163086,0.18310547,0.36621094,-0.12207031,0.0,0.0,0.0,149.88647,75.56946,-171.6394
1766812709868,-0.98291016,0.14111328,-0.20019531,1.0986328,-0.79345703,-0.6713867,0.0,0.0,0.0,149.88647,75.56946,-171.6394
1766812709879,-0.98291016,0.14111328,-0.20019531,1.0986328,-0.79345703,-0.6713867,0.0,0.0,0.0,149.469,75.69031,-171.9635
1766812709968,-0.9736328,0.10839844,-0.21826172,-0.6713867,-0.4272461,0.91552734,0.0,0.0,0.0,149.469,75.69031,-171.9635
1766812709979,-0.9736328,0.10839844,-0.21826172,-0.6713867,-0.4272461,0.91552734,0.0,0.0,0.0,149.2273,75.66284,-172.16675
1766812710067,-0.96533203,0.123046875,-0.21191406,0.18310547,0.79345703,-1.953125,0.0,0.0,0.0,149.2273,75.66284,-172.16675
1766812710079,-0.96533203,0.123046875,-0.21191406,0.18310547,0.79345703,-1.953125,0.0,0.0,0.0,149.88098,75.67932,-171.61743
1766812710167,-0.9667969,0.12988281,-0.19677734,-0.30517578,-0.6713867,-1.8310547,0.0,0.0,0.0,149.88098,75.67932,-171.61743
1766812710179,-0.9667969,0.12988281,-0.19677734,-0.30517578,-0.6713867,-1.8310547,0.0,0.0,0.0,150.54565,75.79468,-170.9253
1766812710267,-0.9790039,0.13378906,-0.20703125,1.7089844,0.48828125,-0.91552734,0.0,0.0,0.0,150.54565,75.79468,-170.9253
1766812710278,-0.9790039,0.13378906,-0.20703125,1.7089844,0.48828125,-0.91552734,0.0,0.0,0.0,151.00708,75.88257,-170.37598
1766812710367,-0.98095703,0.11669922,-0.21289062,1.3427734,0.6713867,0.48828125,0.0,0.0,0.0,151.00708,75.88257,-170.37598
1766812710378,-0.98095703,0.11669922,-0.21289062,1.3427734,0.6713867,0.48828125,0.0,0.0,0.0,150.83679,75.82764,-170.47485
1766812710466,-0.97265625,0.10498047,-0.22265625,0.61035156,-0.30517578,-1.0986328,0.0,0.0,0.0,150.83679,75.82764,-170.47485
1766812710478,-0.97265625,0.10498047,-0.22265625,0.61035156,-0.30517578,-1.0986328,0.0,0.0,0.0,151.21033,75.84961,-170.26611
1766812710566,-0.9711914,0.123046875,-0.20751953,-0.9765625,-0.4272461,-0.18310547,0.0,0.0,0.0,151.21033,75.84961,-170.26611
1766812710577,-0.9711914,0.123046875,-0.20751953,-0.9765625,-0.4272461,-0.18310547,0.0,0.0,0.0,151.45203,75.88806,-170.0409
1766812710666,-0.9848633,0.123046875,-0.21289062,0.0,0.12207031,0.48828125,0.0,0.0,0.0,151.45203,75.88806,-170.0409
1766812710677,-0.9848633,0.123046875,-0.21289062,0.0,0.12207031,0.48828125,0.0,0.0,0.0,151.29822,75.89905,-170.17273
1766812710765,-0.9760742,0.11425781,-0.19970703,-0.18310547,-1.0986328,0.061035156,0.0,0.0,0.0,151.29822,75.89905,-170.17273
1766812710777,-0.9760742,0.11425781,-0.19970703,-0.18310547,-1.0986328,0.061035156,0.0,0.0,0.0,150.9137,75.9375,-170.54626
1766812710865,-0.9682617,0.12548828,-0.21582031,0.6713867,2.0751953,0.36621094,0.0,0.0,0.0,150.9137,75.9375,-170.54626
1766812710877,-0.9682617,0.12548828,-0.21582031,0.6713867,2.0751953,0.36621094,0.0,0.0,0.0,151.08398,75.84961,-170.39795
1766812710965,-0.9765625,0.12060547,-0.21044922,0.36621094,-0.30517578,-0.18310547,0.0,0.0,0.0,151.08398,75.84961,-170.39795
1766812710976,-0.9765625,0.12060547,-0.21044922,0.36621094,-0.30517578,-0.18310547,0.0,0.0,0.0,150.93567,75.84961,-170.52429
1766812711064,-0.9658203,0.12451172,-0.2084961,0.24414062,-0.12207031,-0.48828125,0.0,0.0,0.0,150.93567,75.84961,-170.52429
1766812711077,-0.9658203,0.12451172,-0.2084961,0.24414062,-0.12207031,-0.48828125,0.0,0.0,0.0,151.10596,75.84412,-170.38696
1766812711164,-0.97753906,0.11621094,-0.21289062,1.2207031,1.7700195,-0.6713867,0.0,0.0,0.0,151.10596,75.84412,-170.38696
1766812711176,-0.97753906,0.11621094,-0.21289062,1.2207031,1.7700195,-0.6713867,0.0,0.0,0.0,151.53992,75.82764,-169.96399
1766812711264,-0.9711914,0.115722656,-0.20751953,1.0375977,-0.6713867,0.24414062,0.0,0.0,0.0,151.53992,75.82764,-169.96399
1766812711276,-0.9711914,0.115722656,-0.20751953,1.0375977,-0.6713867,0.24414062,0.0,0.0,0.0,151.3971,75.83313,-170.13977
1766812711364,-0.97802734,0.107421875,-0.22460938,-1.0375977,0.79345703,-0.61035156,0.0,0.0,0.0,151.3971,75.83313,-170.13977
1766812711375,-0.97802734,0.107421875,-0.22460938,-1.0375977,0.79345703,-0.61035156,0.0,0.0,0.0,151.67725,75.82214,-169.92004
1766812711463,-0.9633789,0.13916016,-0.19970703,-0.12207031,-0.5493164,-0.24414062,0.0,0.0,0.0,151.67725,75.82214,-169.92004
1766812711475,-0.9633789,0.13916016,-0.19970703,-0.12207031,-0.5493164,-0.24414062,0.0,0.0,0.0,151.84753,75.80017,-169.7113
1766812711563,-0.9770508,0.11230469,-0.21484375,1.5869141,-0.30517578,-0.61035156,0.0,0.0,0.0,151.84753,75.80017,-169.7113
1766812711574,-0.9770508,0.11230469,-0.21484375,1.5869141,-0.30517578,-0.61035156,0.0,0.0,0.0,151.94641,75.84412,-169.57947
1766812711663,-0.96533203,0.103027344,-0.22167969,0.36621094,-1.159668,-1.7089844,0.0,0.0,0.0,151.94641,75.84412,-169.57947
1766812711674,-0.96533203,0.103027344,-0.22167969,0.36621094,-1.159668,-1.7089844,0.0,0.0,0.0,152.2815,75.95398,-169.33777
1766812711762,-0.98339844,0.1171875,-0.20654297,-1.2207031,-1.6479492,-2.0141602,0.0,0.0,0.0,152.2815,75.95398,-169.33777
1766812711774,-0.98339844,0.1171875,-0.20654297,-1.2207031,-1.6479492,-2.0141602,0.0,0.0,0.0,152.8418,76.190186,-168.76648
1766812711862,-0.97509766,0.11621094,-0.20214844,-0.30517578,-1.4648438,-0.18310547,0.0,0.0,0.0,152.8418,76.190186,-168.76648
1766812711874,-0.97509766,0.11621094,-0.20214844,-0.30517578,-1.4648438,-0.18310547,0.0,0.0,0.0,152.78687,76.35498,-168.68958
1766812711962,-0.97998047,0.106933594,-0.20996094,-0.24414062,-0.61035156,-0.36621094,0.0,0.0,0.0,152.78687,76.35498,-168.68958
1766812711973,-0.97998047,0.106933594,-0.20996094,-0.24414062,-0.61035156,-0.36621094,0.0,0.0,0.0,152.61658,76.431885,-168.78845
1766812712061,-0.9765625,0.10839844,-0.20605469,-0.91552734,-0.30517578,0.061035156,0.0,0.0,0.0,152.61658,76.431885,-168.78845
1766812712074,-0.9765625,0.10839844,-0.20605469,-0.91552734,-0.30517578,0.061035156,0.0,0.0,0.0,152.70996,76.45386,-168.65662
1766812712162,-0.9741211,0.11230469,-0.20361328,0.061035156,0.7324219,0.061035156,0.0,0.0,0.0,152.70996,76.45386,-168.65662
1766812712173,-0.9741211,0.11230469,-0.20361328,0.061035156,0.7324219,0.061035156,0.0,0.0,0.0,152.49573,76.44287,-168.80493
1766812712261,-0.9765625,0.107421875,-0.20605469,-0.91552734,0.0,0.18310547,0.0,0.0,0.0,152.49573,76.44287,-168.80493
1766812712272,-0.9765625,0.107421875,-0.20605469,-0.91552734,0.0,0.18310547,0.0,0.0,0.0,152.29248,76.431885,-168.9093
1766812712360,-0.97753906,0.11279297,-0.20117188,-0.91552734,-0.24414062,0.12207031,0.0,0.0,0.0,152.29248,76.431885,-168.9093
1766812712372,-0.97753906,0.11279297,-0.20117188,-0.91552734,-0.24414062,0.12207031,0.0,0.0,0.0,152.06177,76.448364,-169.03564
1766812712460,-0.97509766,0.115722656,-0.20410156,-0.36621094,-0.061035156,0.5493164,0.0,0.0,0.0,152.06177,76.448364,-169.03564
1766812712472,-0.97509766,0.115722656,-0.20410156,-0.36621094,-0.061035156,0.5493164,0.0,0.0,0.0,151.7926,76.43738,-169.23889
1766812712560,-0.97753906,0.11279297,-0.20214844,0.061035156,0.24414062,0.7324219,0.0,0.0,0.0,151.7926,76.43738,-169.23889
1766812712571,-0.97753906,0.11279297,-0.20214844,0.061035156,0.24414062,0.7324219,0.0,0.0,0.0,151.49048,76.415405,-169.49707
1766812712660,-0.9760742,0.11376953,-0.20410156,-0.61035156,0.0,0.6713867,0.0,0.0,0.0,151.49048,76.415405,-169.49707
1766812712671,-0.9760742,0.11376953,-0.20410156,-0.61035156,0.0,0.6713867,0.0,0.0,0.0,151.21582,76.36597,-169.73877
1766812712759,-0.97265625,0.11767578,-0.20214844,-0.79345703,0.30517578,0.4272461,0.0,0.0,0.0,151.21582,76.36597,-169.73877
1766812712771,-0.97265625,0.11767578,-0.20214844,-0.79345703,0.30517578,0.4272461,0.0,0.0,0.0,151.00159,76.31653,-169.89807
1766812712859,-0.9716797,0.11425781,-0.20507812,-0.18310547,0.12207031,0.0,0.0,0.0,0.0,151.00159,76.31653,-169.89807
1766812712871,-0.9716797,0.11425781,-0.20507812,-0.18310547,0.12207031,0.0,0.0,0.0,0.0,150.9082,76.294556,-169.91455
1766812712959,-0.9760742,0.11669922,-0.203125,0.18310547,0.24414062,-0.4272461,0.0,0.0,0.0,150.9082,76.294556,-169.91455
1766812712970,-0.9760742,0.11669922,-0.203125,0.18310547,0.24414062,-0.4272461,0.0,0.0,0.0,150.84778,76.31653,-169.94751
1766812713058,-0.97753906,0.115234375,-0.20703125,-0.30517578,0.12207031,-0.18310547,0.0,0.0,0.0,150.84778,76.31653,-169.94751
1766812713070,-0.97753906,0.115234375,-0.20703125,-0.30517578,0.12207031,-0.18310547,0.0,0.0,0.0,150.89172,76.33301,-169.85962
1766812713158,-0.9707031,0.12011719,-0.19824219,0.061035156,0.0,-0.24414062,0.0,0.0,0.0,150.89172,76.33301,-169.85962
1766812713169,-0.9707031,0.12011719,-0.19824219,0.061035156,0.0,-0.24414062,0.0,0.0,0.0,150.9137,76.327515,-169.81018
1766812713258,-0.97998047,0.11328125,-0.20654297,0.61035156,-0.4272461,-0.9765625,0.0,0.0,0.0,150.9137,76.327515,-169.81018
1766812713269,-0.97998047,0.11328125,-0.20654297,0.61035156,-0.4272461,-0.9765625,0.0,0.0,0.0,151.1499,76.37695,-169.57397
1766812713358,-0.9741211,0.11279297,-0.20458984,-0.30517578,0.0,-0.061035156,0.0,0.0,0.0,151.1499,76.37695,-169.57397
1766812713369,-0.9741211,0.11279297,-0.20458984,-0.30517578,0.0,-0.061035156,0.0,0.0,0.0,151.37512,76.39343,-169.34875
1766812713457,-0.9765625,0.1171875,-0.2006836,0.061035156,0.18310547,-0.30517578,0.0,0.0,0.0,151.37512,76.39343,-169.34875
1766812713469,-0.9765625,0.1171875,-0.2006836,0.061035156,0.18310547,-0.30517578,0.0,0.0,0.0,151.3916,76.39343,-169.3103
1766812713557,-0.97265625,0.115234375,-0.20263672,1.0375977,0.061035156,-0.5493164,0.0,0.0,0.0,151.3916,76.39343,-169.3103
1766812713568,-0.97265625,0.115234375,-0.20263672,1.0375977,0.061035156,-0.5493164,0.0,0.0,0.0,151.58386,76.39343,-169.11804
1766812713656,-0.97802734,0.10839844,-0.20263672,0.4272461,0.36621094,-0.6713867,0.0,0.0,0.0,151.58386,76.39343,-169.11804
1766812713668,-0.97802734,0.10839844,-0.20263672,0.4272461,0.36621094,-0.6713867,0.0,0.0,0.0,151.7926,76.40991,-168.92578
1766812713756,-0.9790039,0.11279297,-0.20166016,0.18310547,-0.30517578,-0.30517578,0.0,0.0,0.0,151.7926,76.40991,-168.92578
1766812713768,-0.9790039,0.11279297,-0.20166016,0.18310547,-0.30517578,-0.30517578,0.0,0.0,0.0,152.00134,76.4209,-168.73901
1766812713856,-0.9716797,0.11425781,-0.20361328,0.30517578,-0.061035156,-0.48828125,0.0,0.0,0.0,152.00134,76.4209,-168.73901
1766812713867,-0.9716797,0.11425781,-0.20361328,0.30517578,-0.061035156,-0.48828125,0.0,0.0,0.0,152.25403,76.415405,-168.5083
1766812713956,-0.97802734,0.109375,-0.20605469,0.30517578,-0.061035156,-0.30517578,0.0,0.0,0.0,152.25403,76.415405,-168.5083
1766812713967,-0.97802734,0.109375,-0.20605469,0.30517578,-0.061035156,-0.30517578,0.0,0.0,0.0,152.3584,76.43738,-168.39294
1766812714055,-0.97509766,0.10839844,-0.20703125,0.30517578,0.18310547,-0.36621094,0.0,0.0,0.0,152.3584,76.43738,-168.39294
1766812714067,-0.97509766,0.10839844,-0.20703125,0.30517578,0.18310547,-0.36621094,0.0,0.0,0.0,152.5177,76.431885,-168.23914
1766812714155,-0.97558594,0.11035156,-0.2055664,-0.36621094,-0.061035156,-0.12207031,0.0,0.0,0.0,152.5177,76.431885,-168.23914
1766812714166,-0.97558594,0.11035156,-0.2055664,-0.36621094,-0.061035156,-0.12207031,0.0,0.0,0.0,152.53418,76.431885,-168.19519
1766812714255,-0.9765625,0.109375,-0.20410156,0.0,-0.12207031,-0.12207031,0.0,0.0,0.0,152.53418,76.431885,-168.19519
1766812714266,-0.9765625,0.109375,-0.20410156,0.0,-0.12207031,-0.12207031,0.0,0.0,0.0,152.55615,76.44287,-168.14026
1766812714355,-0.9741211,0.11035156,-0.20361328,0.0,0.0,-0.12207031,0.0,0.0,0.0,152.55615,76.44287,-168.14026
1766812714366,-0.9741211,0.11035156,-0.20361328,0.0,0.0,-0.12207031,0.0,0.0,0.0,152.57812,76.43738,-168.1073
1766812714454,-0.9794922,0.10839844,-0.20898438,-0.061035156,0.30517578,-0.30517578,0.0,0.0,0.0,152.57812,76.43738,-168.1073
1766812714466,-0.9794922,0.10839844,-0.20898438,-0.061035156,0.30517578,-0.30517578,0.0,0.0,0.0,152.64404,76.43738,-168.01392
1766812714554,-0.97314453,0.10986328,-0.20751953,0.0,0.061035156,0.0,0.0,0.0,0.0,152.64404,76.43738,-168.01392
1766812714565,-0.97314453,0.10986328,-0.20751953,0.0,0.061035156,0.0,0.0,0.0,0.0,152.77588,76.42639,-167.88208
1766812714653,-0.97265625,0.106933594,-0.20410156,0.48828125,0.36621094,-0.18310547,0.0,0.0,0.0,152.77588,76.42639,-167.88208
1766812714665,-0.97265625,0.106933594,-0.20410156,0.48828125,0.36621094,-0.18310547,0.0,0.0,0.0,152.81982,76.4209,-167.82166
1766812714753,-0.9765625,0.110839844,-0.20898438,-0.12207031,0.0,0.0,0.0,0.0,0.0,152.81982,76.4209,-167.82166
1766812714765,-0.9765625,0.110839844,-0.20898438,-0.12207031,0.0,0.0,0.0,0.0,0.0,152.78137,76.415405,-167.83264
1766812714853,-0.9741211,0.10644531,-0.20507812,-0.36621094,-0.36621094,0.0,0.0,0.0,0.0,152.78137,76.415405,-167.83264
1766812714865,-0.9741211,0.10644531,-0.20507812,-0.36621094,-0.36621094,0.0,0.0,0.0,0.0,152.67151,76.43738,-167.91504
1766812714953,-0.9765625,0.10839844,-0.20214844,-0.61035156,0.061035156,-0.12207031,0.0,0.0,0.0,152.67151,76.43738,-167.91504
1766812714964,-0.9765625,0.10839844,-0.20214844,-0.61035156,0.061035156,-0.12207031,0.0,0.0,0.0,152.66052,76.431885,-167.8656
1766812715052,-0.98095703,0.11621094,-0.20166016,0.48828125,-0.30517578,0.0,0.0,0.0,0.0,152.66052,76.431885,-167.8656
1766812715064,-0.98095703,0.11621094,-0.20166016,0.48828125,-0.30517578,0.0,0.0,0.0,0.0,152.6001,76.45935,-167.89856
1766812715152,-0.9760742,0.10498047,-0.20898438,-0.5493164,-0.12207031,0.30517578,0.0,0.0,0.0,152.6001,76.45935,-167.89856
1766812715164,-0.9760742,0.10498047,-0.20898438,-0.5493164,-0.12207031,0.30517578,0.0,0.0,0.0,152.57812,76.44287,-167.89856
1766812715252,-0.9741211,0.111816406,-0.20507812,-0.6713867,0.0,0.30517578,0.0,0.0,0.0,152.57812,76.44287,-167.89856
1766812715263,-0.9741211,0.111816406,-0.20507812,-0.6713867,0.0,0.30517578,0.0,0.0,0.0,152.46277,76.415405,-167.98645
1766812715351,-0.9770508,0.107910156,-0.20117188,-0.36621094,0.0,0.18310547,0.0,0.0,0.0,152.46277,76.415405,-167.98645
1766812715363,-0.9770508,0.107910156,-0.20117188,-0.36621094,0.0,0.18310547,0.0,0.0,0.0,152.3584,76.39343,-168.03589
1766812715451,-0.9760742,0.107910156,-0.2055664,-1.0986328,-0.61035156,0.6713867,0.0,0.0,0.0,152.3584,76.39343,-168.03589
1766812715463,-0.9760742,0.107910156,-0.2055664,-1.0986328,-0.61035156,0.6713867,0.0,0.0,0.0,152.05078,76.38245,-168.31055
1766812715551,-0.9746094,0.119628906,-0.20263672,-1.0986328,-0.12207031,0.4272461,0.0,0.0,0.0,152.05078,76.38245,-168.31055
1766812715562,-0.9746094,0.119628906,-0.20263672,-1.0986328,-0.12207031,0.4272461,0.0,0.0,0.0,151.91345,76.3385,-168.37646
1766812715651,-0.97509766,0.115722656,-0.2055664,-0.12207031,-0.30517578,0.30517578,0.0,0.0,0.0,151.91345,76.3385,-168.37646
1766812715662,-0.97509766,0.115722656,-0.2055664,-0.12207031,-0.30517578,0.30517578,0.0,0.0,0.0,151.67725,76.327515,-168.54675
1766812715750,-0.9746094,0.11035156,-0.20703125,-0.7324219,-0.12207031,0.061035156,0.0,0.0,0.0,151.67725,76.327515,-168.54675
1766812715762,-0.9746094,0.11035156,-0.20703125,-0.7324219,-0.12207031,0.061035156,0.0,0.0,0.0,151.57288,76.327515,-168.61267
1766812715850,-0.97558594,0.11816406,-0.20214844,-0.7324219,0.24414062,0.0,0.0,0.0,0.0,151.57288,76.327515,-168.61267
1766812715861,-0.97558594,0.11816406,-0.20214844,-0.7324219,0.24414062,0.0,0.0,0.0,0.0,151.52344,76.311035,-168.59619
1766812715949,-0.9746094,0.11816406,-0.20410156,-0.4272461,0.0,0.48828125,0.0,0.0,0.0,151.52344,76.311035,-168.59619
1766812715961,-0.9746094,0.11816406,-0.20410156,-0.4272461,0.0,0.48828125,0.0,0.0,0.0,151.37512,76.28357,-168.6676
1766812716049,-0.9736328,0.11621094,-0.20458984,-0.61035156,0.12207031,0.4272461,0.0,0.0,0.0,151.37512,76.28357,-168.6676
1766812716061,-0.9736328,0.11621094,-0.20458984,-0.61035156,0.12207031,0.4272461,0.0,0.0,0.0,151.11694,76.2561,-168.84888
1766812716149,-0.9746094,0.118652344,-0.20458984,-0.24414062,0.12207031,-0.24414062,0.0,0.0,0.0,151.11694,76.2561,-168.84888
1766812716160,-0.9746094,0.118652344,-0.20458984,-0.24414062,0.12207031,-0.24414062,0.0,0.0,0.0,151.01257,76.23413,-168.88733
1766812716249,-0.97265625,0.119140625,-0.20263672,0.061035156,-0.6713867,-0.24414062,0.0,0.0,0.0,151.01257,76.23413,-168.88733
1766812716260,-0.97265625,0.119140625,-0.20263672,0.061035156,-0.6713867,-0.24414062,0.0,0.0,0.0,151.02356,76.23413,-168.83789
1766812716348,-0.9716797,0.11816406,-0.20458984,-0.061035156,-0.061035156,-0.12207031,0.0,0.0,0.0,151.02356,76.23413,-168.83789
1766812716360,-0.9716797,0.11816406,-0.20458984,-0.061035156,-0.061035156,-0.12207031,0.0,0.0,0.0,151.21582,76.24512,-168.64014
1766812716448,-0.97314453,0.111328125,-0.20947266,-0.18310547,0.0,-0.7324219,0.0,0.0,0.0,151.21582,76.24512,-168.64014
1766812716460,-0.97314453,0.111328125,-0.20947266,-0.18310547,0.0,-0.7324219,0.0,0.0,0.0,151.28174,76.25061,-168.55225
1766812716548,-0.97753906,0.115722656,-0.20361328,-0.30517578,0.24414062,-0.8544922,0.0,0.0,0.0,151.28174,76.25061,-168.55225
1766812716559,-0.97753906,0.115722656,-0.20361328,-0.30517578,0.24414062,-0.8544922,0.0,0.0,0.0,151.4685,76.294556,-168.31055
1766812716647,-0.9746094,0.12402344,-0.20019531,0.6713867,-0.18310547,-0.30517578,0.0,0.0,0.0,151.4685,76.294556,-168.31055
1766812716659,-0.9746094,0.12402344,-0.20019531,0.6713867,-0.18310547,-0.30517578,0.0,0.0,0.0,151.54541,76.30554,-168.17322
1766812716747,-0.9760742,0.11230469,-0.20751953,0.9765625,-0.18310547,-0.79345703,0.0,0.0,0.0,151.54541,76.30554,-168.17322
1766812716759,-0.9760742,0.11230469,-0.20751953,0.9765625,-0.18310547,-0.79345703,0.0,0.0,0.0,151.70471,76.35498,-168.00293
1766812716847,-0.97558594,0.111816406,-0.203125,0.36621094,0.4272461,-0.48828125,0.0,0.0,0.0,151.70471,76.35498,-168.00293
1766812716858,-0.97558594,0.111816406,-0.203125,0.36621094,0.4272461,-0.48828125,0.0,0.0,0.0,151.90796,76.37695,-167.80518
1766812716947,-0.98046875,0.11230469,-0.2055664,0.4272461,-0.30517578,-0.48828125,0.0,0.0,0.0,151.90796,76.37695,-167.80518
1766812716958,-0.98046875,0.11230469,-0.2055664,0.4272461,-0.30517578,-0.48828125,0.0,0.0,0.0,152.12769,76.398926,-167.59644
1766812717046,-0.97509766,0.10888672,-0.20800781,0.18310547,0.36621094,-0.18310547,0.0,0.0,0.0,152.12769,76.398926,-167.59644
1766812717058,-0.97509766,0.10888672,-0.20800781,0.18310547,0.36621094,-0.18310547,0.0,0.0,0.0,152.39685,76.40991,-167.34375
1766812717146,-0.97558594,0.11035156,-0.20214844,0.9765625,0.4272461,-0.36621094,0.0,0.0,0.0,152.39685,76.40991,-167.34375
1766812717158,-0.97558594,0.11035156,-0.20214844,0.9765625,0.4272461,-0.36621094,0.0,0.0,0.0,152.41333,76.415405,-167.33826
1766812717245,-0.9765625,0.111816406,-0.20654297,0.6713867,0.18310547,-0.18310547,0.0,0.0,0.0,152.41333,76.415405,-167.33826
1766812717257,-0.9765625,0.111816406,-0.20654297,0.6713867,0.18310547,-0.18310547,0.0,0.0,0.0,152.60559,76.415405,-167.18445
1766812717345,-0.97558594,0.107421875,-0.20751953,0.30517578,0.12207031,-0.24414062,0.0,0.0,0.0,152.60559,76.415405,-167.18445
1766812717358,-0.97558594,0.107421875,-0.20751953,0.30517578,0.12207031,-0.24414062,0.0,0.0,0.0,152.70996,76.40442,-167.09656
1766812717445,-0.9746094,0.106933594,-0.20751953,-0.12207031,0.18310547,-0.30517578,0.0,0.0,0.0,152.70996,76.40442,-167.09656
1766812717456,-0.9746094,0.106933594,-0.20751953,-0.12207031,0.18310547,-0.30517578,0.0,0.0,0.0,152.81982,76.40442,-166.99219
1766812717545,-0.97558594,0.11035156,-0.20507812,0.0,0.061035156,-0.061035156,0.0,0.0,0.0,152.81982,76.40442,-166.99219
1766812717556,-0.97558594,0.11035156,-0.20507812,0.0,0.061035156,-0.061035156,0.0,0.0,0.0,152.90222,76.39343,-166.8988
1766812717644,-0.97558594,0.10839844,-0.20800781,-0.061035156,-0.061035156,-0.12207031,0.0,0.0,0.0,152.90222,76.39343,-166.8988
1766812717656,-0.97558594,0.10839844,-0.20800781,-0.061035156,-0.061035156,-0.12207031,0.0,0.0,0.0,152.9242,76.39343,-166.86035
1766812717744,-0.97509766,0.107910156,-0.20507812,0.0,0.0,-0.061035156,0.0,0.0,0.0,152.9242,76.39343,-166.86035
1766812717755,-0.97509766,0.107910156,-0.20507812,0.0,0.0,-0.061035156,0.0,0.0,0.0,152.93518,76.38794,-166.83289
1766812717844,-0.9765625,0.107421875,-0.20800781,0.0,0.36621094,-0.18310547,0.0,0.0,0.0,152.93518,76.38794,-166.83289
1766812717855,-0.9765625,0.107421875,-0.20800781,0.0,0.36621094,-0.18310547,0.0,0.0,0.0,153.00659,76.37695,-166.75049
1766812717943,-0.97509766,0.11035156,-0.20458984,0.0,-0.48828125,0.0,0.0,0.0,0.0,153.00659,76.37695,-166.75049
1766812717955,-0.97509766,0.11035156,-0.20458984,0.0,-0.48828125,0.0,0.0,0.0,0.0,153.00659,76.37146,-166.73401
1766812718043,-0.97509766,0.107910156,-0.20996094,0.0,-0.12207031,-0.24414062,0.0,0.0,0.0,153.00659,76.37146,-166.73401
1766812718054,-0.97509766,0.107910156,-0.20996094,0.0,-0.12207031,-0.24414062,0.0,0.0,0.0,153.0835,76.36597,-166.6571
1766812718143,-0.97558594,0.106933594,-0.20800781,-0.12207031,-0.061035156,-0.12207031,0.0,0.0,0.0,153.0835,76.36597,-166.6571
1766812718154,-0.97558594,0.106933594,-0.20800781,-0.12207031,-0.061035156,-0.12207031,0.0,0.0,0.0,153.14392,76.36597,-166.5857
1766812718242,-0.9736328,0.10839844,-0.20800781,-0.061035156,-0.36621094,-0.12207031,0.0,0.0,0.0,153.14392,76.36597,-166.5857
1766812718254,-0.9736328,0.10839844,-0.20800781,-0.061035156,-0.36621094,-0.12207031,0.0,0.0,0.0,153.14941,76.37695,-166.56372
1766812718342,-0.97753906,0.106933594,-0.20751953,-0.12207031,-0.12207031,-0.061035156,0.0,0.0,0.0,153.14941,76.37695,-166.56372
1766812718353,-0.97753906,0.106933594,-0.20751953,-0.12207031,-0.12207031,-0.061035156,0.0,0.0,0.0,153.0835,76.39343,-166.60767
1766812718442,-0.9770508,0.10888672,-0.20605469,-0.18310547,0.12207031,0.061035156,0.0,0.0,0.0,153.0835,76.39343,-166.60767
1766812718453,-0.9770508,0.10888672,-0.20605469,-0.18310547,0.12207031,0.061035156,0.0,0.0,0.0,153.08899,76.38245,-166.5857
1766812718542,-0.9760742,0.10986328,-0.2084961,-0.4272461,0.12207031,0.12207031,0.0,0.0,0.0,153.08899,76.38245,-166.5857
1766812718553,-0.9760742,0.10986328,-0.2084961,-0.4272461,0.12207031,0.12207031,0.0,0.0,0.0,152.96814,76.36047,-166.6626
1766812718641,-0.9770508,0.10839844,-0.20996094,-0.4272461,0.061035156,0.18310547,0.0,0.0,0.0,152.96814,76.36047,-166.6626
1766812718653,-0.9770508,0.10839844,-0.20996094,-0.4272461,0.061035156,0.18310547,0.0,0.0,0.0,152.88025,76.343994,-166.70105
1766812718741,-0.97216797,0.111816406,-0.2084961,-0.79345703,-0.18310547,0.61035156,0.0,0.0,0.0,152.88025,76.343994,-166.70105
1766812718752,-0.97216797,0.111816406,-0.2084961,-0.79345703,-0.18310547,0.61035156,0.0,0.0,0.0,152.74292,76.31653,-166.78894
1766812718841,-0.9716797,0.11376953,-0.20458984,0.061035156,0.24414062,0.24414062,0.0,0.0,0.0,152.74292,76.31653,-166.78894
1766812718852,-0.9716797,0.11376953,-0.20458984,0.061035156,0.24414062,0.24414062,0.0,0.0,0.0,152.53967,76.30005,-166.95374
1766812718940,-0.9785156,0.110839844,-0.21191406,-0.48828125,0.4272461,0.18310547,0.0,0.0,0.0,152.53967,76.30005,-166.95374
1766812718952,-0.9785156,0.110839844,-0.21191406,-0.48828125,0.4272461,0.18310547,0.0,0.0,0.0,152.32544,76.28357,-167.11304
1766812719040,-0.97314453,0.1171875,-0.20507812,-0.4272461,-0.18310547,0.24414062,0.0,0.0,0.0,152.32544,76.28357,-167.11304
1766812719052,-0.97314453,0.1171875,-0.20507812,-0.4272461,-0.18310547,0.24414062,0.0,0.0,0.0,152.13318,76.27258,-167.26135
1766812719140,-0.97558594,0.110839844,-0.20654297,-0.30517578,0.0,0.24414062,0.0,0.0,0.0,152.13318,76.27258,-167.26135
1766812719151,-0.97558594,0.110839844,-0.20654297,-0.30517578,0.0,0.24414062,0.0,0.0,0.0,152.00684,76.26709,-167.32727
1766812719239,-0.9760742,0.111816406,-0.20947266,-0.6713867,0.24414062,0.36621094,0.0,0.0,0.0,152.00684,76.26709,-167.32727
1766812719251,-0.9760742,0.111816406,-0.20947266,-0.6713867,0.24414062,0.36621094,0.0,0.0,0.0,151.80908,76.25061,-167.48108
1766812719339,-0.9736328,0.118652344,-0.20361328,-0.5493164,0.0,0.48828125,0.0,0.0,0.0,151.80908,76.25061,-167.48108
1766812719351,-0.9736328,0.118652344,-0.20361328,-0.5493164,0.0,0.48828125,0.0,0.0,0.0,151.64978,76.21765,-167.59644
1766812719439,-0.9760742,0.114746094,-0.20947266,-0.4272461,0.0,0.4272461,0.0,0.0,0.0,151.64978,76.21765,-167.59644
1766812719451,-0.9760742,0.114746094,-0.20947266,-0.4272461,0.0,0.4272461,0.0,0.0,0.0,151.36963,76.18469,-167.79419
1766812719539,-0.9692383,0.11376953,-0.20947266,-0.5493164,0.061035156,0.30517578,0.0,0.0,0.0,151.36963,76.18469,-167.79419
1766812719551,-0.9692383,0.11376953,-0.20947266,-0.5493164,0.061035156,0.30517578,0.0,0.0,0.0,151.27625,76.16272,-167.8711
1766812719638,-0.97802734,0.119140625,-0.20410156,-0.061035156,0.8544922,-0.24414062,0.0,0.0,0.0,151.27625,76.16272,-167.8711
1766812719650,-0.97802734,0.119140625,-0.20410156,-0.061035156,0.8544922,-0.24414062,0.0,0.0,0.0,151.22131,76.15173,-167.88208
1766812719738,-0.97216797,0.12060547,-0.20898438,0.4272461,0.18310547,-0.36621094,0.0,0.0,0.0,151.22131,76.15173,-167.88208
1766812719750,-0.97216797,0.12060547,-0.20898438,0.4272461,0.18310547,-0.36621094,0.0,0.0,0.0,151.28174,76.14624,-167.77771
1766812719838,-0.9785156,0.114746094,-0.20800781,0.0,0.24414062,-0.5493164,0.0,0.0,0.0,151.28174,76.14624,-167.77771
1766812719849,-0.9785156,0.114746094,-0.20800781,0.0,0.24414062,-0.5493164,0.0,0.0,0.0,151.47949,76.16821,-167.56348
1766812719937,-0.9746094,0.114746094,-0.20751953,0.30517578,-0.061035156,-0.48828125,0.0,0.0,0.0,151.47949,76.16821,-167.56348
1766812719949,-0.9746094,0.114746094,-0.20751953,0.30517578,-0.061035156,-0.48828125,0.0,0.0,0.0,151.62231,76.190186,-167.40967
1766812720037,-0.9760742,0.11376953,-0.2055664,0.12207031,-0.061035156,-0.79345703,0.0,0.0,0.0,151.62231,76.190186,-167.40967
1766812720048,-0.9760742,0.11376953,-0.2055664,0.12207031,-0.061035156,-0.79345703,0.0,0.0,0.0,151.91895,76.21765,-167.12402
1766812720137,-0.97558594,0.11376953,-0.20507812,0.24414062,-0.48828125,-0.4272461,0.0,0.0,0.0,151.91895,76.21765,-167.12402
1766812720148,-0.97558594,0.11376953,-0.20507812,0.24414062,-0.48828125,-0.4272461,0.0,0.0,0.0,152.13318,76.2616,-166.8988
1766812720236,-0.97558594,0.11279297,-0.20605469,0.30517578,0.0,-0.12207031,0.0,0.0,0.0,152.13318,76.2616,-166.8988
1766812720248,-0.97558594,0.11279297,-0.20605469,0.30517578,0.0,-0.12207031,0.0,0.0,0.0,152.22656,76.27258,-166.78894
1766812720336,-0.97558594,0.10986328,-0.20703125,0.36621094,0.36621094,-0.4272461,0.0,0.0,0.0,152.22656,76.27258,-166.78894
1766812720347,-0.97558594,0.10986328,-0.20703125,0.36621094,0.36621094,-0.4272461,0.0,0.0,0.0,152.30896,76.27258,-166.70105
1766812720436,-0.97802734,0.11035156,-0.2055664,-0.24414062,0.0,-0.24414062,0.0,0.0,0.0,152.30896,76.27258,-166.70105
1766812720447,-0.97802734,0.11035156,-0.2055664,-0.24414062,0.0,-0.24414062,0.0,0.0,0.0,152.42432,76.27258,-166.5802
1766812720535,-0.97509766,0.11621094,-0.20654297,0.0,0.0,-0.24414062,0.0,0.0,0.0,152.42432,76.27258,-166.5802
1766812720547,-0.97509766,0.11621094,-0.20654297,0.0,0.0,-0.24414062,0.0,0.0,0.0,152.50671,76.25061,-166.45935
1766812720635,-0.9765625,0.111816406,-0.21142578,-0.12207031,0.30517578,0.061035156,0.0,0.0,0.0,152.50671,76.25061,-166.45935
1766812720647,-0.9765625,0.111816406,-0.21142578,-0.12207031,0.30517578,0.061035156,0.0,0.0,0.0,152.56714,76.23413,-166.36597
1766812720735,-0.9736328,0.107910156,-0.20703125,0.0,-0.30517578,0.0,0.0,0.0,0.0,152.56714,76.23413,-166.36597
1766812720746,-0.9736328,0.107910156,-0.20703125,0.0,-0.30517578,0.0,0.0,0.0,0.0,152.58362,76.223145,-166.35498
1766812720835,-0.9760742,0.11425781,-0.20947266,-0.48828125,0.79345703,0.18310547,0.0,0.0,0.0,152.58362,76.223145,-166.35498
1766812720846,-0.9760742,0.11425781,-0.20947266,-0.48828125,0.79345703,0.18310547,0.0,0.0,0.0,152.64404,76.1792,-166.28906
1766812720934,-0.97509766,0.11425781,-0.20947266,0.0,0.5493164,0.30517578,0.0,0.0,0.0,152.64404,76.1792,-166.28906
1766812720946,-0.97509766,0.11425781,-0.20947266,0.0,0.5493164,0.30517578,0.0,0.0,0.0,152.6825,76.102295,-166.19019
1766812721034,-0.9667969,0.12011719,-0.21142578,0.24414062,0.4272461,-0.12207031,0.0,0.0,0.0,152.6825,76.102295,-166.19019
1766812721045,-0.9667969,0.12011719,-0.21142578,0.24414062,0.4272461,-0.12207031,0.0,0.0,0.0,152.66052,76.05835,-166.20117
1766812721134,-0.9790039,0.11767578,-0.20605469,1.0986328,0.48828125,-0.24414062,0.0,0.0,0.0,152.66052,76.05835,-166.20117
1766812721145,-0.9790039,0.11767578,-0.20605469,1.0986328,0.48828125,-0.24414062,0.0,0.0,0.0,152.81982,75.99243,-165.97046
1766812721233,-0.9736328,0.095214844,-0.22070312,1.4648438,0.4272461,0.8544922,0.0,0.0,0.0,152.81982,75.99243,-165.97046
1766812721245,-0.9736328,0.095214844,-0.22070312,1.4648438,0.4272461,0.8544922,0.0,0.0,0.0,152.89124,75.9375,-165.99792
1766812721333,-0.9785156,0.11230469,-0.22753906,-2.1362305,2.0751953,1.7089844,0.0,0.0,0.0,152.89124,75.9375,-165.99792
1766812721345,-0.9785156,0.11230469,-0.22753906,-2.1362305,2.0751953,1.7089844,0.0,0.0,0.0,152.69897,75.84961,-166.3385
1766812721433,-0.96240234,0.13085938,-0.21191406,-1.5258789,-1.5869141,0.4272461,0.0,0.0,0.0,152.69897,75.84961,-166.3385
1766812721445,-0.96240234,0.13085938,-0.21191406,-1.5258789,-1.5869141,0.4272461,0.0,0.0,0.0,152.45728,75.72327,-166.47583
1766812721532,-0.9707031,0.125,-0.20654297,-0.12207031,-1.7089844,0.7324219,0.0,0.0,0.0,152.45728,75.72327,-166.47583
1766812721544,-0.9707031,0.125,-0.20654297,-0.12207031,-1.7089844,0.7324219,0.0,0.0,0.0,151.72668,75.7782,-167.02515
1766812721632,-0.9794922,0.10546875,-0.21777344,-0.5493164,-0.061035156,0.79345703,0.0,0.0,0.0,151.72668,75.7782,-167.02515
1766812721644,-0.9794922,0.10546875,-0.21777344,-0.5493164,-0.061035156,0.79345703,0.0,0.0,0.0,151.13892,75.81665,-167.52502
1766812721732,-0.97216797,0.12402344,-0.21289062,-1.8310547,0.18310547,0.79345703,0.0,0.0,0.0,151.13892,75.81665,-167.52502
1766812721743,-0.97216797,0.12402344,-0.21289062,-1.8310547,0.18310547,0.79345703,0.0,0.0,0.0,150.8313,75.81116,-167.83813
1766812721831,-0.9667969,0.1381836,-0.20263672,-1.4038086,0.061035156,1.3427734,0.0,0.0,0.0,150.8313,75.81116,-167.83813
1766812721843,-0.9667969,0.1381836,-0.20263672,-1.4038086,0.061035156,1.3427734,0.0,0.0,0.0,150.43579,75.72327,-168.1018
1766812721931,-0.96875,0.13085938,-0.21044922,-0.061035156,-0.79345703,0.79345703,0.0,0.0,0.0,150.43579,75.72327,-168.1018
1766812721943,-0.96875,0.13085938,-0.21044922,-0.061035156,-0.79345703,0.79345703,0.0,0.0,0.0,149.68872,75.69031,-168.66211
1766812722031,-0.9814453,0.11376953,-0.22021484,-0.7324219,-0.18310547,-0.12207031,0.0,0.0,0.0,149.68872,75.69031,-168.66211
1766812722043,-0.9814453,0.11376953,-0.22021484,-0.7324219,-0.18310547,-0.12207031,0.0,0.0,0.0,149.36462,75.69031,-168.88733
1766812722131,-0.9511719,0.13085938,-0.20117188,-0.12207031,1.4648438,-1.5869141,0.0,0.0,0.0,149.36462,75.69031,-168.88733
1766812722142,-0.9511719,0.13085938,-0.20117188,-0.12207031,1.4648438,-1.5869141,0.0,0.0,0.0,150.01282,75.72327,-168.29407
1766812722230,-0.98291016,0.13427734,-0.203125,0.91552734,-1.5258789,-2.380371,0.0,0.0,0.0,150.01282,75.72327,-168.29407
1766812722242,-0.98291016,0.13427734,-0.203125,0.91552734,-1.5258789,-2.380371,0.0,0.0,0.0,150.47974,75.84412,-167.66785
1766812722330,-0.9741211,0.09716797,-0.21826172,0.48828125,0.7324219,-0.48828125,0.0,0.0,0.0,150.47974,75.84412,-167.66785
1766812722341,-0.9741211,0.09716797,-0.21826172,0.48828125,0.7324219,-0.48828125,0.0,0.0,0.0,150.73242,75.9375,-167.39319
1766812722430,-0.97509766,0.123046875,-0.2109375,-0.30517578,-0.79345703,-1.0986328,0.0,0.0,0.0,150.73242,75.9375,-167.39319
1766812722441,-0.97509766,0.123046875,-0.2109375,-0.30517578,-0.79345703,-1.0986328,0.0,0.0,0.0,151.10046,75.981445,-167.15149
1766812722529,-0.9736328,0.12451172,-0.20263672,0.061035156,-0.4272461,-0.79345703,0.0,0.0,0.0,151.10046,75.981445,-167.15149
1766812722541,-0.9736328,0.12451172,-0.20263672,0.061035156,-0.4272461,-0.79345703,0.0,0.0,0.0,151.37512,76.05286,-166.8274
1766812722629,-0.9760742,0.11669922,-0.20898438,0.79345703,-0.6713867,-0.5493164,0.0,0.0,0.0,151.37512,76.05286,-166.8274
1766812722641,-0.9760742,0.11669922,-0.20898438,0.79345703,-0.6713867,-0.5493164,0.0,0.0,0.0,151.43005,76.135254,-166.77795
1766812722729,-0.9770508,0.11230469,-0.20996094,0.36621094,0.18310547,-0.7324219,0.0,0.0,0.0,151.43005,76.135254,-166.77795
1766812722740,-0.9770508,0.11230469,-0.20996094,0.36621094,0.18310547,-0.7324219,0.0,0.0,0.0,151.7157,76.16272,-166.5033
1766812722828,-0.9741211,0.115722656,-0.20898438,0.48828125,0.30517578,-0.61035156,0.0,0.0,0.0,151.7157,76.16272,-166.5033
1766812722840,-0.9741211,0.115722656,-0.20898438,0.48828125,0.30517578,-0.61035156,0.0,0.0,0.0,152.01782,76.16272,-166.22864
1766812722928,-0.9741211,0.11328125,-0.20605469,0.91552734,0.61035156,-0.61035156,0.0,0.0,0.0,152.01782,76.16272,-166.22864
1766812722940,-0.9741211,0.11328125,-0.20605469,0.91552734,0.61035156,-0.61035156,0.0,0.0,0.0,152.23755,76.1792,-166.00891
1766812723028,-0.97558594,0.111328125,-0.21289062,0.36621094,0.0,-0.30517578,0.0,0.0,0.0,152.23755,76.1792,-166.00891
1766812723039,-0.97558594,0.111328125,-0.21289062,0.36621094,0.0,-0.30517578,0.0,0.0,0.0,152.39685,76.190186,-165.87158
1766812723128,-0.97558594,0.11035156,-0.2084961,-0.24414062,-0.18310547,-0.061035156,0.0,0.0,0.0,152.39685,76.190186,-165.87158
1766812723139,-0.97558594,0.11035156,-0.2084961,-0.24414062,-0.18310547,-0.061035156,0.0,0.0,0.0,152.4408,76.19568,-165.82764
1766812723227,-0.9741211,0.114746094,-0.20654297,-0.18310547,-0.18310547,-0.061035156,0.0,0.0,0.0,152.4408,76.19568,-165.82764
1766812723239,-0.9741211,0.114746094,-0.20654297,-0.18310547,-0.18310547,-0.061035156,0.0,0.0,0.0,152.42432,76.21216,-165.82764
1766812723327,-0.9765625,0.110839844,-0.2084961,0.0,-0.12207031,-0.061035156,0.0,0.0,0.0,152.42432,76.21216,-165.82764
1766812723339,-0.9765625,0.110839844,-0.2084961,0.0,-0.12207031,-0.061035156,0.0,0.0,0.0,152.39685,76.21765,-165.83313
1766812723427,-0.9746094,0.11328125,-0.20898438,0.0,0.0,-0.18310547,0.0,0.0,0.0,152.39685,76.21765,-165.83313
1766812723438,-0.9746094,0.11328125,-0.20898438,0.0,0.0,-0.18310547,0.0,0.0,0.0,152.42432,76.21765,-165.79468
1766812723526,-0.97509766,0.11230469,-0.20703125,0.0,0.0,0.0,0.0,0.0,0.0,152.42432,76.21765,-165.79468
1766812723538,-0.97509766,0.11230469,-0.20703125,0.0,0.0,0.0,0.0,0.0,0.0,152.45178,76.21216,-165.74524
1766812723626,-0.97509766,0.10888672,-0.2109375,0.061035156,0.24414062,0.0,0.0,0.0,0.0,152.45178,76.21216,-165.74524
1766812723638,-0.97509766,0.10888672,-0.2109375,0.061035156,0.24414062,0.0,0.0,0.0,0.0,152.45178,76.206665,-165.73425
1766812723726,-0.97753906,0.110839844,-0.2055664,-0.24414062,0.0,0.0,0.0,0.0,0.0,152.45178,76.206665,-165.73425
1766812723738,-0.97753906,0.110839844,-0.2055664,-0.24414062,0.0,0.0,0.0,0.0,0.0,152.40234,76.21765,-165.7782
1766812723825,-0.9760742,0.11376953,-0.21044922,0.18310547,0.0,-0.12207031,0.0,0.0,0.0,152.40234,76.21765,-165.7782
1766812723837,-0.9760742,0.11376953,-0.21044922,0.18310547,0.0,-0.12207031,0.0,0.0,0.0,152.47925,76.21216,-165.71228
1766812723925,-0.9765625,0.111328125,-0.21044922,-0.48828125,0.12207031,0.24414062,0.0,0.0,0.0,152.47925,76.21216,-165.71228
1766812723937,-0.9765625,0.111328125,-0.21044922,-0.48828125,0.12207031,0.24414062,0.0,0.0,0.0,152.42981,76.190186,-165.72876
1766812724025,-0.9736328,0.11328125,-0.2084961,-0.79345703,-0.12207031,0.18310547,0.0,0.0,0.0,152.42981,76.190186,-165.72876
1766812724036,-0.9736328,0.11328125,-0.2084961,-0.79345703,-0.12207031,0.18310547,0.0,0.0,0.0,152.29797,76.16821,-165.81116
1766812724125,-0.97509766,0.11328125,-0.2084961,-0.79345703,-0.061035156,0.36621094,0.0,0.0,0.0,152.29797,76.16821,-165.81116
1766812724136,-0.97509766,0.11328125,-0.2084961,-0.79345703,-0.061035156,0.36621094,0.0,0.0,0.0,152.1112,76.15173,-165.92651
1766812724224,-0.9736328,0.114746094,-0.2084961,-0.8544922,-0.12207031,0.48828125,0.0,0.0,0.0,152.1112,76.15173,-165.92651
1766812724236,-0.9736328,0.114746094,-0.2084961,-0.8544922,-0.12207031,0.48828125,0.0,0.0,0.0,151.8695,76.12976,-166.0968
1766812724324,-0.9741211,0.11621094,-0.20703125,-0.91552734,0.061035156,0.5493164,0.0,0.0,0.0,151.8695,76.12976,-166.0968
1766812724335,-0.9741211,0.11621094,-0.20703125,-0.91552734,0.061035156,0.5493164,0.0,0.0,0.0,151.60034,76.102295,-166.29456
1766812724424,-0.97509766,0.11767578,-0.2084961,-0.61035156,0.0,0.30517578,0.0,0.0,0.0,151.60034,76.102295,-166.29456
1766812724435,-0.97509766,0.11767578,-0.2084961,-0.61035156,0.0,0.30517578,0.0,0.0,0.0,151.32019,76.069336,-166.4978
1766812724523,-0.97021484,0.119628906,-0.20605469,-0.7324219,-0.79345703,0.48828125,0.0,0.0,0.0,151.32019,76.069336,-166.4978
1766812724535,-0.97021484,0.119628906,-0.20605469,-0.7324219,-0.79345703,0.48828125,0.0,0.0,0.0,151.08398,76.04736,-166.66809
1766812724623,-0.97021484,0.12158203,-0.2055664,-0.5493164,0.18310547,0.61035156,0.0,0.0,0.0,151.08398,76.04736,-166.66809
1766812724634,-0.97021484,0.12158203,-0.2055664,-0.5493164,0.18310547,0.61035156,0.0,0.0,0.0,150.95764,76.0199,-166.75598
1766812724723,-0.97265625,0.119628906,-0.20800781,-0.18310547,-0.061035156,0.061035156,0.0,0.0,0.0,150.95764,76.0199,-166.75598
1766812724735,-0.97265625,0.119628906,-0.20800781,-0.18310547,-0.061035156,0.061035156,0.0,0.0,0.0,150.69946,75.99243,-166.95374
1766812724822,-0.9716797,0.118652344,-0.20703125,-0.24414062,0.0,-0.18310547,0.0,0.0,0.0,150.69946,75.99243,-166.95374
1766812724834,-0.9716797,0.118652344,-0.20703125,-0.24414062,0.0,-0.18310547,0.0,0.0,0.0,150.64453,75.99243,-166.95923
1766812724922,-0.97314453,0.122558594,-0.20507812,-0.18310547,0.0,-0.36621094,0.0,0.0,0.0,150.64453,75.99243,-166.95923
1766812724934,-0.97314453,0.122558594,-0.20507812,-0.18310547,0.0,-0.36621094,0.0,0.0,0.0,150.69397,75.997925,-166.87134
1766812725022,-0.97314453,0.119140625,-0.20800781,0.18310547,-0.12207031,-0.48828125,0.0,0.0,0.0,150.69397,75.997925,-166.87134
1766812725033,-0.97314453,0.119140625,-0.20800781,0.18310547,-0.12207031,-0.48828125,0.0,0.0,0.0,150.80933,76.014404,-166.72302
1766812725121,-0.9736328,0.119140625,-0.20751953,0.18310547,0.0,-0.6713867,0.0,0.0,0.0,150.80933,76.014404,-166.72302
1766812725133,-0.9736328,0.119140625,-0.20751953,0.18310547,0.0,-0.6713867,0.0,0.0,0.0,150.9851,76.04736,-166.53625
1766812725221,-0.9736328,0.11816406,-0.20898438,0.5493164,-0.12207031,-0.7324219,0.0,0.0,0.0,150.9851,76.04736,-166.53625
1766812725233,-0.9736328,0.11816406,-0.20898438,0.5493164,-0.12207031,-0.7324219,0.0,0.0,0.0,151.22131,76.069336,-166.30005
1766812725321,-0.97265625,0.11767578,-0.20800781,0.30517578,-0.4272461,-0.36621094,0.0,0.0,0.0,151.22131,76.069336,-166.30005
1766812725332,-0.97265625,0.11767578,-0.20800781,0.30517578,-0.4272461,-0.36621094,0.0,0.0,0.0,151.46301,76.0968,-166.08032
1766812725421,-0.9741211,0.115234375,-0.20703125,0.79345703,0.30517578,-0.7324219,0.0,0.0,0.0,151.46301,76.0968,-166.08032
1766812725432,-0.9741211,0.115234375,-0.20703125,0.79345703,0.30517578,-0.7324219,0.0,0.0,0.0,151.59485,76.14075,-165.95947
1766812725520,-0.97509766,0.1171875,-0.20800781,0.48828125,0.061035156,-0.61035156,0.0,0.0,0.0,151.59485,76.14075,-165.95947
1766812725532,-0.97509766,0.1171875,-0.20800781,0.48828125,0.061035156,-0.61035156,0.0,0.0,0.0,151.7981,76.16821,-165.76172
1766812725620,-0.9746094,0.11279297,-0.20703125,0.18310547,0.061035156,-0.4272461,0.0,0.0,0.0,151.7981,76.16821,-165.76172
1766812725631,-0.9746094,0.11279297,-0.20703125,0.18310547,0.061035156,-0.4272461,0.0,0.0,0.0,152.00134,76.18469,-165.54749
1766812725720,-0.97509766,0.111816406,-0.20898438,0.061035156,0.0,-0.30517578,0.0,0.0,0.0,152.00134,76.18469,-165.54749
1766812725731,-0.97509766,0.111816406,-0.20898438,0.061035156,0.0,-0.30517578,0.0,0.0,0.0,152.1167,76.206665,-165.43213
1766812725819,-0.97509766,0.11230469,-0.20654297,0.0,0.0,-0.18310547,0.0,0.0,0.0,152.1167,76.206665,-165.43213
1766812725831,-0.97509766,0.11230469,-0.20654297,0.0,0.0,-0.18310547,0.0,0.0,0.0,152.18811,76.21216,-165.34424
1766812725919,-0.9746094,0.11376953,-0.20751953,0.061035156,-0.061035156,-0.18310547,0.0,0.0,0.0,152.18811,76.21216,-165.34424
1766812725931,-0.9746094,0.11376953,-0.20751953,0.061035156,-0.061035156,-0.18310547,0.0,0.0,0.0,152.1991,76.21765,-165.31677
1766812726019,-0.9746094,0.111816406,-0.20703125,0.0,-0.061035156,-0.061035156,0.0,0.0,0.0,152.1991,76.21765,-165.31677
1766812726031,-0.9746094,0.111816406,-0.20703125,0.0,-0.061035156,-0.061035156,0.0,0.0,0.0,152.24304,76.223145,-165.25085
1766812726118,-0.9746094,0.111328125,-0.20605469,0.0,0.30517578,-0.24414062,0.0,0.0,0.0,152.24304,76.223145,-165.25085
1766812726130,-0.9746094,0.111328125,-0.20605469,0.0,0.30517578,-0.24414062,0.0,0.0,0.0,152.2815,76.223145,-165.20142
1766812726218,-0.97558594,0.11376953,-0.2055664,0.0,-0.48828125,-0.061035156,0.0,0.0,0.0,152.2815,76.223145,-165.20142
1766812726229,-0.97558594,0.11376953,-0.2055664,0.0,-0.48828125,-0.061035156,0.0,0.0,0.0,152.31995,76.223145,-165.15198
1766812726318,-0.97314453,0.110839844,-0.20703125,-0.12207031,-0.12207031,0.0,0.0,0.0,0.0,152.31995,76.223145,-165.15198
1766812726329,-0.97314453,0.110839844,-0.20703125,-0.12207031,-0.12207031,0.0,0.0,0.0,0.0,152.34741,76.21216,-165.11902
1766812726417,-0.97509766,0.111328125,-0.20751953,-0.12207031,-0.061035156,0.0,0.0,0.0,0.0,152.34741,76.21216,-165.11902
1766812726429,-0.97509766,0.111328125,-0.20751953,-0.12207031,-0.061035156,0.0,0.0,0.0,0.0,152.33643,76.206665,-165.12451
1766812726517,-0.9746094,0.11230469,-0.2084961,0.0,-0.30517578,0.0,0.0,0.0,0.0,152.33643,76.206665,-165.12451
1766812726529,-0.9746094,0.11230469,-0.2084961,0.0,-0.30517578,0.0,0.0,0.0,0.0,152.29797,76.21216,-165.15198
1766812726617,-0.9760742,0.111328125,-0.20703125,-0.12207031,0.0,0.0,0.0,0.0,0.0,152.29797,76.21216,-165.15198
1766812726628,-0.9760742,0.111328125,-0.20703125,-0.12207031,0.0,0.0,0.0,0.0,0.0,152.25403,76.223145,-165.18494
1766812726717,-0.9741211,0.111816406,-0.20751953,-0.061035156,0.0,0.0,0.0,0.0,0.0,152.25403,76.223145,-165.18494
1766812726728,-0.9741211,0.111816406,-0.20751953,-0.061035156,0.0,0.0,0.0,0.0,0.0,152.24304,76.21765,-165.18494
1766812726816,-0.9746094,0.11230469,-0.20703125,-0.061035156,0.0,0.0,0.0,0.0,0.0,152.24304,76.21765,-165.18494
1766812726828,-0.9746094,0.11230469,-0.20703125,-0.061035156,0.0,0.0,0.0,0.0,0.0,152.23206,76.21216,-165.18494
1766812726916,-0.9741211,0.111328125,-0.20703125,0.0,0.0,0.0,0.0,0.0,0.0,152.23206,76.21216,-165.18494
1766812726927,-0.9741211,0.111328125,-0.20703125,0.0,0.0,0.0,0.0,0.0,0.0,152.22107,76.21216,-165.18494
1766812727016,-0.97509766,0.109375,-0.20751953,-0.18310547,0.18310547,0.0,0.0,0.0,0.0,152.22107,76.21216,-165.18494
1766812727027,-0.97509766,0.109375,-0.20751953,-0.18310547,0.18310547,0.0,0.0,0.0,0.0,152.21558,76.206665,-165.19043
1766812727115,-0.9794922,0.111816406,-0.20703125,-0.61035156,-0.12207031,0.0,0.0,0.0,0.0,152.21558,76.206665,-165.19043
1766812727127,-0.9794922,0.111816406,-0.20703125,-0.61035156,-0.12207031,0.0,0.0,0.0,0.0,152.17163,76.21765,-165.22339
1766812727215,-0.97509766,0.11669922,-0.20800781,-0.4272461,0.0,0.30517578,0.0,0.0,0.0,152.17163,76.21765,-165.22339
1766812727227,-0.97509766,0.11669922,-0.20800781,-0.4272461,0.0,0.30517578,0.0,0.0,0.0,152.1112,76.20117,-165.23987
1766812727315,-0.9765625,0.111816406,-0.20800781,-0.61035156,-0.12207031,0.24414062,0.0,0.0,0.0,152.1112,76.20117,-165.23987
1766812727326,-0.9765625,0.111816406,-0.20800781,-0.61035156,-0.12207031,0.24414062,0.0,0.0,0.0,151.93542,76.190186,-165.35522
1766812727414,-0.9736328,0.114746094,-0.20654297,-0.7324219,-0.24414062,0.30517578,0.0,0.0,0.0,151.93542,76.190186,-165.35522
1766812727426,-0.9736328,0.114746094,-0.20654297,-0.7324219,-0.24414062,0.30517578,0.0,0.0,0.0,151.77612,76.18469,-165.46509
1766812727515,-0.9760742,0.11621094,-0.20605469,-0.4272461,0.18310547,0.061035156,0.0,0.0,0.0,151.77612,76.18469,-165.46509
1766812727526,-0.9760742,0.11621094,-0.20605469,-0.4272461,0.18310547,0.061035156,0.0,0.0,0.0,151.69373,76.173706,-165.49805
1766812727614,-0.97216797,0.114746094,-0.20800781,-0.48828125,0.0,0.30517578,0.0,0.0,0.0,151.69373,76.173706,-165.49805
1766812727625,-0.97216797,0.114746094,-0.20800781,-0.48828125,0.0,0.30517578,0.0,0.0,0.0,151.57288,76.14624,-165.56396
1766812727714,-0.97509766,0.115234375,-0.20605469,-0.8544922,0.061035156,0.48828125,0.0,0.0,0.0,151.57288,76.14624,-165.56396
1766812727725,-0.97509766,0.115234375,-0.20605469,-0.8544922,0.061035156,0.48828125,0.0,0.0,0.0,151.3916,76.12976,-165.68481
1766812727813,-0.9746094,0.11621094,-0.2084961,-0.91552734,-0.12207031,0.6713867,0.0,0.0,0.0,151.3916,76.12976,-165.68481
1766812727826,-0.9746094,0.11621094,-0.2084961,-0.91552734,-0.12207031,0.6713867,0.0,0.0,0.0,151.04004,76.0968,-165.95398
1766812727913,-0.97021484,0.12158203,-0.20458984,-1.0375977,-0.5493164,0.6713867,0.0,0.0,0.0,151.04004,76.0968,-165.95398
1766812727924,-0.97021484,0.12158203,-0.20458984,-1.0375977,-0.5493164,0.6713867,0.0,0.0,0.0,150.75989,76.07483,-166.1737
1766812728013,-0.97265625,0.123046875,-0.20458984,-0.18310547,0.5493164,0.18310547,0.0,0.0,0.0,150.75989,76.07483,-166.1737
1766812728025,-0.97265625,0.123046875,-0.20458984,-0.18310547,0.5493164,0.18310547,0.0,0.0,0.0,150.56213,76.05835,-166.30005
1766812728112,-0.97314453,0.12207031,-0.20751953,0.0,0.30517578,0.0,0.0,0.0,0.0,150.56213,76.05835,-166.30005
1766812728124,-0.97314453,0.12207031,-0.20751953,0.0,0.30517578,0.0,0.0,0.0,0.0,150.40833,76.03638,-166.39343
1766812728212,-0.9707031,0.11767578,-0.20703125,-0.18310547,0.0,-0.4272461,0.0,0.0,0.0,150.40833,76.03638,-166.39343
1766812728224,-0.9707031,0.11767578,-0.20703125,-0.18310547,0.0,-0.4272461,0.0,0.0,0.0,150.46326,76.03638,-166.29456
1766812728312,-0.9741211,0.12011719,-0.20654297,0.0,0.061035156,-0.5493164,0.0,0.0,0.0,150.46326,76.03638,-166.29456
1766812728323,-0.9741211,0.12011719,-0.20654297,0.0,0.061035156,-0.5493164,0.0,0.0,0.0,150.5896,76.06384,-166.14624
1766812728412,-0.97265625,0.119140625,-0.20605469,0.36621094,-0.061035156,-0.6713867,0.0,0.0,0.0,150.5896,76.06384,-166.14624
1766812728423,-0.97265625,0.119140625,-0.20605469,0.36621094,-0.061035156,-0.6713867,0.0,0.0,0.0,150.79834,76.09131,-165.91003
1766812728511,-0.97509766,0.11816406,-0.20605469,0.5493164,0.0,-0.79345703,0.0,0.0,0.0,150.79834,76.09131,-165.91003
1766812728523,-0.97509766,0.11816406,-0.20605469,0.5493164,0.0,-0.79345703,0.0,0.0,0.0,151.05103,76.12976,-165.66833
1766812728611,-0.9741211,0.115234375,-0.20654297,0.48828125,-0.24414062,-0.4272461,0.0,0.0,0.0,151.05103,76.12976,-165.66833
1766812728622,-0.9741211,0.115234375,-0.20654297,0.48828125,-0.24414062,-0.4272461,0.0,0.0,0.0,151.24329,76.16272,-165.48157
1766812728711,-0.9770508,0.11279297,-0.2084961,0.24414062,0.18310547,-0.4272461,0.0,0.0,0.0,151.24329,76.16272,-165.48157
1766812728722,-0.9770508,0.11279297,-0.2084961,0.24414062,0.18310547,-0.4272461,0.0,0.0,0.0,151.36963,76.19568,-165.36621
1766812728811,-0.9790039,0.115722656,-0.20361328,-0.12207031,-0.24414062,-0.30517578,0.0,0.0,0.0,151.36963,76.19568,-165.36621
1766812728822,-0.9790039,0.115722656,-0.20361328,-0.12207031,-0.24414062,-0.30517578,0.0,0.0,0.0,151.41357,76.22864,-165.31677
1766812728910,-0.9760742,0.11767578,-0.2055664,0.18310547,-0.18310547,-0.30517578,0.0,0.0,0.0,151.41357,76.22864,-165.31677
1766812728921,-0.9760742,0.11767578,-0.2055664,0.18310547,-0.18310547,-0.30517578,0.0,0.0,0.0,151.54541,76.239624,-165.17395
1766812729010,-0.9770508,0.11376953,-0.20800781,0.0,0.0,-0.24414062,0.0,0.0,0.0,151.54541,76.239624,-165.17395
1766812729021,-0.9770508,0.11376953,-0.20800781,0.0,0.0,-0.24414062,0.0,0.0,0.0,151.64429,76.25061,-165.0586
1766812729109,-0.9741211,0.115234375,-0.20605469,-0.18310547,-0.36621094,-0.24414062,0.0,0.0,0.0,151.64429,76.25061,-165.0586
1766812729121,-0.9741211,0.115234375,-0.20605469,-0.18310547,-0.36621094,-0.24414062,0.0,0.0,0.0,151.73767,76.26709,-164.94873
1766812729209,-0.97558594,0.11376953,-0.20361328,0.061035156,0.30517578,-0.30517578,0.0,0.0,0.0,151.73767,76.26709,-164.94873
1766812729221,-0.97558594,0.11376953,-0.20361328,0.061035156,0.30517578,-0.30517578,0.0,0.0,0.0,151.7981,76.27258,-164.85535
1766812729309,-0.98339844,0.115234375,-0.20263672,0.5493164,1.4038086,0.18310547,0.0,0.0,0.0,151.7981,76.27258,-164.85535
1766812729320,-0.98339844,0.115234375,-0.20263672,0.5493164,1.4038086,0.18310547,0.0,0.0,0.0,151.91345,76.223145,-164.71802
1766812729408,-0.9707031,0.110839844,-0.2109375,1.0375977,2.2583008,0.79345703,0.0,0.0,0.0,151.91345,76.223145,-164.71802
1766812729420,-0.9707031,0.110839844,-0.2109375,1.0375977,2.2583008,0.79345703,0.0,0.0,0.0,152.07275,76.03088,-164.5752
1766812729508,-0.9692383,0.11230469,-0.21923828,-0.6713867,-0.8544922,-0.18310547,0.0,0.0,0.0,152.07275,76.03088,-164.5752
1766812729520,-0.9692383,0.11230469,-0.21923828,-0.6713867,-0.8544922,-0.18310547,0.0,0.0,0.0,152.12769,75.94849,-164.55872
1766812729608,-0.9711914,0.119140625,-0.20947266,0.0,-0.12207031,-0.6713867,0.0,0.0,0.0,152.12769,75.94849,-164.55872
1766812729620,-0.9711914,0.119140625,-0.20947266,0.0,-0.12207031,-0.6713867,0.0,0.0,0.0,152.25952,75.98694,-164.42139
1766812729708,-0.9741211,0.111816406,-0.20947266,0.61035156,-0.36621094,-0.61035156,0.0,0.0,0.0,152.25952,75.98694,-164.42139
1766812729719,-0.9741211,0.111816406,-0.20947266,0.61035156,-0.36621094,-0.61035156,0.0,0.0,0.0,152.37488,76.08032,-164.30054
1766812729807,-0.9790039,0.109375,-0.21289062,0.6713867,1.5258789,0.0,0.0,0.0,0.0,152.37488,76.08032,-164.30054
1766812729819,-0.9790039,0.109375,-0.21289062,0.6713867,1.5258789,0.0,0.0,0.0,0.0,152.48474,76.085815,-164.17969
1766812729907,-0.9609375,0.12207031,-0.21044922,-0.48828125,-0.7324219,-0.7324219,0.0,0.0,0.0,152.48474,76.085815,-164.17969
1766812729919,-0.9609375,0.12207031,-0.21044922,-0.48828125,-0.7324219,-0.7324219,0.0,0.0,0.0,152.61108,76.04187,-164.05334
1766812730007,-0.98339844,0.106933594,-0.20654297,-0.24414062,-1.0986328,-0.79345703,0.0,0.0,0.0,152.61108,76.04187,-164.05334
1766812730018,-0.98339844,0.106933594,-0.20654297,-0.24414062,-1.0986328,-0.79345703,0.0,0.0,0.0,152.61658,76.18469,-163.93799
1766812730106,-0.9785156,0.107421875,-0.21142578,0.6713867,1.2207031,0.91552734,0.0,0.0,0.0,152.61658,76.18469,-163.93799
1766812730119,-0.9785156,0.107421875,-0.21142578,0.6713867,1.2207031,0.91552734,0.0,0.0,0.0,152.60559,76.190186,-163.96545
1766812730206,-0.9638672,0.119628906,-0.2133789,-0.6713867,-0.61035156,-0.30517578,0.0,0.0,0.0,152.60559,76.190186,-163.96545
1766812730218,-0.9638672,0.119628906,-0.2133789,-0.6713867,-0.61035156,-0.30517578,0.0,0.0,0.0,152.61658,76.11328,-164.0039
1766812730306,-0.9790039,0.11230469,-0.20019531,-0.36621094,-0.79345703,-0.5493164,0.0,0.0,0.0,152.61658,76.11328,-164.0039
1766812730318,-0.9790039,0.11230469,-0.20019531,-0.36621094,-0.79345703,-0.5493164,0.0,0.0,0.0,152.57812,76.19568,-163.94348
1766812730405,-0.97753906,0.104003906,-0.21142578,0.48828125,0.6713867,-0.18310547,0.0,0.0,0.0,152.57812,76.19568,-163.94348
1766812730417,-0.97753906,0.104003906,-0.21142578,0.48828125,0.6713867,-0.18310547,0.0,0.0,0.0,152.64954,76.206665,-163.86658
1766812730505,-0.9692383,0.12158203,-0.20507812,-0.48828125,-0.5493164,0.48828125,0.0,0.0,0.0,152.64954,76.206665,-163.86658
1766812730517,-0.9692383,0.12158203,-0.20507812,-0.48828125,-0.5493164,0.48828125,0.0,0.0,0.0,152.58362,76.15723,-163.927
1766812730605,-0.9741211,0.10888672,-0.21044922,0.061035156,-0.36621094,0.0,0.0,0.0,0.0,152.58362,76.15723,-163.927
1766812730616,-0.9741211,0.10888672,-0.21044922,0.061035156,-0.36621094,0.0,0.0,0.0,0.0,152.4408,76.16272,-164.0094
1766812730704,-0.9765625,0.107421875,-0.21435547,-0.8544922,0.30517578,0.36621094,0.0,0.0,0.0,152.4408,76.16272,-164.0094
1766812730716,-0.9765625,0.107421875,-0.21435547,-0.8544922,0.30517578,0.36621094,0.0,0.0,0.0,152.276,76.14075,-164.14673
1766812730804,-0.97216797,0.12060547,-0.20410156,-0.6713867,-0.18310547,0.30517578,0.0,0.0,0.0,152.276,76.14075,-164.14673
1766812730816,-0.97216797,0.12060547,-0.20410156,-0.6713867,-0.18310547,0.30517578,0.0,0.0,0.0,152.07825,76.12427,-164.27856
1766812730904,-0.97802734,0.111816406,-0.21142578,-0.4272461,0.0,0.24414062,0.0,0.0,0.0,152.07825,76.12427,-164.27856
1766812730915,-0.97802734,0.111816406,-0.21142578,-0.4272461,0.0,0.24414062,0.0,0.0,0.0,151.81458,76.135254,-164.45984
1766812731004,-0.97265625,0.11425781,-0.20751953,-0.6713867,0.061035156,0.61035156,0.0,0.0,0.0,151.81458,76.135254,-164.45984
1766812731015,-0.97265625,0.11425781,-0.20751953,-0.6713867,0.061035156,0.61035156,0.0,0.0,0.0,151.59485,76.0968,-164.63013
1766812731103,-0.9746094,0.12109375,-0.20654297,-0.7324219,0.0,0.4272461,0.0,0.0,0.0,151.59485,76.0968,-164.63013
1766812731115,-0.9746094,0.12109375,-0.20654297,-0.7324219,0.0,0.4272461,0.0,0.0,0.0,151.32568,76.069336,-164.82788
1766812731203,-0.97558594,0.118652344,-0.2109375,-0.7324219,0.0,0.6713867,0.0,0.0,0.0,151.32568,76.069336,-164.82788
1766812731215,-0.97558594,0.118652344,-0.2109375,-0.7324219,0.0,0.6713867,0.0,0.0,0.0,151.04553,76.03638,-165.02014
1766812731303,-0.9667969,0.11767578,-0.20898438,-0.24414062,0.061035156,0.4272461,0.0,0.0,0.0,151.04553,76.03638,-165.02014
1766812731314,-0.9667969,0.11767578,-0.20898438,-0.24414062,0.061035156,0.4272461,0.0,0.0,0.0,150.90271,75.997925,-165.11902
1766812731402,-0.9765625,0.11816406,-0.20507812,-0.30517578,0.91552734,0.061035156,0.0,0.0,0.0,150.90271,75.997925,-165.11902
1766812731414,-0.9765625,0.11816406,-0.20507812,-0.30517578,0.91552734,0.061035156,0.0,0.0,0.0,150.72693,75.99243,-165.23987
1766812731502,-0.97509766,0.12011719,-0.21289062,-0.18310547,0.48828125,-0.12207031,0.0,0.0,0.0,150.72693,75.99243,-165.23987
1766812731514,-0.97509766,0.12011719,-0.21289062,-0.18310547,0.48828125,-0.12207031,0.0,0.0,0.0,150.68848,75.97595,-165.24536
1766812731602,-0.96972656,0.12597656,-0.20117188,0.061035156,-0.61035156,-0.30517578,0.0,0.0,0.0,150.68848,75.97595,-165.24536
1766812731613,-0.96972656,0.12597656,-0.20117188,0.061035156,-0.61035156,-0.30517578,0.0,0.0,0.0,150.7544,75.97595,-165.12451
1766812731701,-0.97753906,0.114746094,-0.21142578,0.24414062,0.18310547,-0.7324219,0.0,0.0,0.0,150.7544,75.97595,-165.12451
1766812731713,-0.97753906,0.114746094,-0.21142578,0.24414062,0.18310547,-0.7324219,0.0,0.0,0.0,150.87524,76.02539,-164.98169
1766812731801,-0.9736328,0.12158203,-0.20800781,0.0,-0.18310547,-0.5493164,0.0,0.0,0.0,150.87524,76.02539,-164.98169
1766812731813,-0.9736328,0.12158203,-0.20800781,0.0,-0.18310547,-0.5493164,0.0,0.0,0.0,151.10046,76.05835,-164.76196
1766812731901,-0.97314453,0.123046875,-0.20507812,0.48828125,-0.4272461,-0.9765625,0.0,0.0,0.0,151.10046,76.05835,-164.76196
1766812731913,-0.97314453,0.123046875,-0.20507812,0.48828125,-0.4272461,-0.9765625,0.0,0.0,0.0,151.35315,76.10779,-164.48181
1766812732001,-0.9746094,0.11230469,-0.20410156,0.7324219,-0.7324219,-0.6713867,0.0,0.0,0.0,151.35315,76.10779,-164.48181
1766812732012,-0.9746094,0.11230469,-0.20410156,0.7324219,-0.7324219,-0.6713867,0.0,0.0,0.0,151.56738,76.15173,-164.22913
1766812732100,-0.9765625,0.11035156,-0.21240234,0.8544922,0.91552734,-0.8544922,0.0,0.0,0.0,151.56738,76.15173,-164.22913
1766812732112,-0.9765625,0.11035156,-0.21240234,0.8544922,0.91552734,-0.8544922,0.0,0.0,0.0,151.88599,76.18469,-163.97644
1766812732200,-0.9770508,0.111328125,-0.20263672,-0.24414062,-0.61035156,-0.24414062,0.0,0.0,0.0,151.88599,76.18469,-163.97644
1766812732211,-0.9770508,0.111328125,-0.20263672,-0.24414062,-0.61035156,-0.24414062,0.0,0.0,0.0,152.02881,76.20117,-163.83911
1766812732300,-0.97509766,0.11425781,-0.2133789,-0.4272461,0.12207031,-0.36621094,0.0,0.0,0.0,152.02881,76.20117,-163.83911
1766812732311,-0.97509766,0.11425781,-0.2133789,-0.4272461,0.12207031,-0.36621094,0.0,0.0,0.0,152.27051,76.18469,-163.6084
1766812732399,-0.9741211,0.12646484,-0.20263672,0.6713867,-0.4272461,-0.36621094,0.0,0.0,0.0,152.27051,76.18469,-163.6084
1766812732411,-0.9741211,0.12646484,-0.20263672,0.6713867,-0.4272461,-0.36621094,0.0,0.0,0.0,152.33093,76.20117,-163.52051
1766812732499,-0.9794922,0.096191406,-0.21289062,0.30517578,-0.6713867,-0.36621094,0.0,0.0,0.0,152.33093,76.20117,-163.52051
1766812732511,-0.9794922,0.096191406,-0.21289062,0.30517578,-0.6713867,-0.36621094,0.0,0.0,0.0,152.36938,76.239624,-163.43811
1766812732599,-0.97021484,0.115722656,-0.2084961,-0.5493164,0.48828125,-0.12207031,0.0,0.0,0.0,152.36938,76.239624,-163.43811
1766812732610,-0.97021484,0.115722656,-0.2084961,-0.5493164,0.48828125,-0.12207031,0.0,0.0,0.0,152.56165,76.223145,-163.31177
1766812732699,-0.9785156,0.115722656,-0.20458984,0.0,-0.18310547,-0.18310547,0.0,0.0,0.0,152.56165,76.223145,-163.31177
1766812732710,-0.9785156,0.115722656,-0.20458984,0.0,-0.18310547,-0.18310547,0.0,0.0,0.0,152.5946,76.23413,-163.22937
1766812732798,-0.9716797,0.10644531,-0.21191406,-0.18310547,-0.12207031,0.061035156,0.0,0.0,0.0,152.5946,76.23413,-163.22937
1766812732810,-0.9716797,0.10644531,-0.21191406,-0.18310547,-0.12207031,0.061035156,0.0,0.0,0.0,152.55066,76.23413,-163.24585
1766812732898,-0.97509766,0.115234375,-0.20361328,-0.061035156,0.0,-0.18310547,0.0,0.0,0.0,152.55066,76.23413,-163.24585
1766812732909,-0.97509766,0.115234375,-0.20361328,-0.061035156,0.0,-0.18310547,0.0,0.0,0.0,152.57263,76.22864,-163.21289
1766812732997,-0.97314453,0.110839844,-0.21191406,0.24414062,0.0,0.0,0.0,0.0,0.0,152.57263,76.22864,-163.21289
1766812733009,-0.97314453,0.110839844,-0.21191406,0.24414062,0.0,0.0,0.0,0.0,0.0,152.5946,76.22864,-163.16345
1766812733097,-0.9692383,0.10595703,-0.20751953,0.24414062,0.18310547,-0.12207031,0.0,0.0,0.0,152.5946,76.22864,-163.16345
1766812733109,-0.9692383,0.10595703,-0.20751953,0.24414062,0.18310547,-0.12207031,0.0,0.0,0.0,152.63306,76.223145,-163.125
1766812733197,-0.97265625,0.11621094,-0.20458984,-0.061035156,0.061035156,-0.18310547,0.0,0.0,0.0,152.63306,76.223145,-163.125
1766812733208,-0.97265625,0.11621094,-0.20458984,-0.061035156,0.061035156,-0.18310547,0.0,0.0,0.0,152.77588,76.20117,-162.97119
1766812733297,-0.9785156,0.11425781,-0.20996094,0.4272461,0.061035156,0.0,0.0,0.0,0.0,152.77588,76.20117,-162.97119
1766812733308,-0.9785156,0.11425781,-0.20996094,0.4272461,0.061035156,0.0,0.0,0.0,0.0,152.72095,76.223145,-162.99316
1766812733396,-0.9770508,0.09765625,-0.21582031,-0.5493164,0.12207031,0.24414062,0.0,0.0,0.0,152.72095,76.223145,-162.99316
1766812733408,-0.9770508,0.09765625,-0.21582031,-0.5493164,0.12207031,0.24414062,0.0,0.0,0.0,152.56165,76.21765,-163.1195
1766812733496,-0.97265625,0.118652344,-0.20458984,-1.159668,0.0,0.36621094,0.0,0.0,0.0,152.56165,76.21765,-163.1195
1766812733507,-0.97265625,0.118652344,-0.20458984,-1.159668,0.0,0.36621094,0.0,0.0,0.0,152.50122,76.173706,-163.16895
1766812733596,-0.97509766,0.11669922,-0.20605469,-0.79345703,-0.30517578,0.5493164,0.0,0.0,0.0,152.50122,76.173706,-163.16895
1766812733607,-0.97509766,0.11669922,-0.20605469,-0.79345703,-0.30517578,0.5493164,0.0,0.0,0.0,152.18262,76.16272,-163.3722
1766812733695,-0.97558594,0.11328125,-0.2084961,-0.48828125,-0.061035156,0.4272461,0.0,0.0,0.0,152.18262,76.16272,-163.3722
1766812733707,-0.97558594,0.11328125,-0.2084961,-0.48828125,-0.061035156,0.4272461,0.0,0.0,0.0,151.86401,76.15173,-163.6029
1766812733795,-0.97558594,0.11230469,-0.20800781,-0.61035156,0.36621094,0.24414062,0.0,0.0,0.0,151.86401,76.15173,-163.6029
1766812733807,-0.97558594,0.11230469,-0.20800781,-0.61035156,0.36621094,0.24414062,0.0,0.0,0.0,151.7157,76.12427,-163.69629
1766812733895,-0.97998047,0.11669922,-0.20605469,-0.79345703,0.18310547,0.4272461,0.0,0.0,0.0,151.7157,76.12427,-163.69629
1766812733906,-0.97998047,0.11669922,-0.20605469,-0.79345703,0.18310547,0.4272461,0.0,0.0,0.0,151.46301,76.10779,-163.89404
1766812733994,-0.9707031,0.12207031,-0.20751953,-0.48828125,-0.18310547,0.6713867,0.0,0.0,0.0,151.46301,76.10779,-163.89404
1766812734006,-0.9707031,0.12207031,-0.20751953,-0.48828125,-0.18310547,0.6713867,0.0,0.0,0.0,151.34766,76.04736,-163.94897
1766812734094,-0.97509766,0.11425781,-0.20996094,-0.61035156,-0.12207031,0.30517578,0.0,0.0,0.0,151.34766,76.04736,-163.94897
1766812734106,-0.97509766,0.11425781,-0.20996094,-0.61035156,-0.12207031,0.30517578,0.0,0.0,0.0,151.11694,76.02539,-164.12476
1766812734194,-0.97216797,0.12060547,-0.20800781,-0.9765625,-0.12207031,0.24414062,0.0,0.0,0.0,151.11694,76.02539,-164.12476
1766812734206,-0.97216797,0.12060547,-0.20800781,-0.9765625,-0.12207031,0.24414062,0.0,0.0,0.0,150.96863,76.014404,-164.21814
1766812734294,-0.97216797,0.12158203,-0.20458984,-0.24414062,0.0,-0.12207031,0.0,0.0,0.0,150.96863,76.014404,-164.21814
1766812734306,-0.97216797,0.12158203,-0.20458984,-0.24414062,0.0,-0.12207031,0.0,0.0,0.0,150.88074,76.00342,-164.22913
1766812734393,-0.97216797,0.11816406,-0.20800781,0.0,-0.061035156,-0.12207031,0.0,0.0,0.0,150.88074,76.00342,-164.22913
1766812734405,-0.97216797,0.11816406,-0.20800781,0.0,-0.061035156,-0.12207031,0.0,0.0,0.0,150.88074,76.00891,-164.18518
1766812734493,-0.97021484,0.119140625,-0.20654297,-0.061035156,-0.12207031,-0.61035156,0.0,0.0,0.0,150.88074,76.00891,-164.18518
1766812734505,-0.97021484,0.119140625,-0.20654297,-0.061035156,-0.12207031,-0.61035156,0.0,0.0,0.0,151.01257,76.03088,-164.03137
1766812734593,-0.9760742,0.12109375,-0.2084961,0.5493164,-0.061035156,-0.6713867,0.0,0.0,0.0,151.01257,76.03088,-164.03137
1766812734604,-0.9760742,0.12109375,-0.2084961,0.5493164,-0.061035156,-0.6713867,0.0,0.0,0.0,151.21582,76.06384,-163.81714
1766812734692,-0.9707031,0.1171875,-0.20996094,0.36621094,-0.30517578,-0.48828125,0.0,0.0,0.0,151.21582,76.06384,-163.81714
1766812734704,-0.9707031,0.1171875,-0.20996094,0.36621094,-0.30517578,-0.48828125,0.0,0.0,0.0,151.42456,76.085815,-163.6084
1766812734792,-0.97265625,0.115234375,-0.20751953,0.91552734,0.18310547,-0.91552734,0.0,0.0,0.0,151.42456,76.085815,-163.6084
1766812734803,-0.97265625,0.115234375,-0.20751953,0.91552734,0.18310547,-0.91552734,0.0,0.0,0.0,151.67175,76.12976,-163.37769
1766812734892,-0.97509766,0.11621094,-0.2084961,0.61035156,0.12207031,-0.61035156,0.0,0.0,0.0,151.67175,76.12976,-163.37769
1766812734903,-0.97509766,0.11621094,-0.2084961,0.61035156,0.12207031,-0.61035156,0.0,0.0,0.0,151.88599,76.15723,-163.16895
1766812734991,-0.97509766,0.11279297,-0.2084961,0.18310547,-0.061035156,-0.5493164,0.0,0.0,0.0,151.88599,76.15723,-163.16895
1766812735003,-0.97509766,0.11279297,-0.2084961,0.18310547,-0.061035156,-0.5493164,0.0,0.0,0.0,152.02332,76.18469,-163.02063
1766812735091,-0.9746094,0.11328125,-0.20800781,0.18310547,0.18310547,-0.48828125,0.0,0.0,0.0,152.02332,76.18469,-163.02063
1766812735103,-0.9746094,0.11328125,-0.20800781,0.18310547,0.18310547,-0.48828125,0.0,0.0,0.0,152.20459,76.20117,-162.82288
1766812735191,-0.97509766,0.11230469,-0.20800781,0.18310547,0.0,-0.30517578,0.0,0.0,0.0,152.20459,76.20117,-162.82288
1766812735202,-0.97509766,0.11230469,-0.20800781,0.18310547,0.0,-0.30517578,0.0,0.0,0.0,152.30896,76.21216,-162.69653
1766812735291,-0.9746094,0.111816406,-0.20898438,0.0,0.0,-0.30517578,0.0,0.0,0.0,152.30896,76.21216,-162.69653
1766812735302,-0.9746094,0.111816406,-0.20898438,0.0,0.0,-0.30517578,0.0,0.0,0.0,152.36389,76.21765,-162.63062
1766812735390,-0.97509766,0.111816406,-0.20751953,-0.18310547,0.0,-0.18310547,0.0,0.0,0.0,152.36389,76.21765,-162.63062
1766812735402,-0.97509766,0.111816406,-0.20751953,-0.18310547,0.0,-0.18310547,0.0,0.0,0.0,152.42432,76.223145,-162.53723
1766812735490,-0.9760742,0.111328125,-0.20751953,-0.12207031,0.24414062,-0.30517578,0.0,0.0,0.0,152.42432,76.223145,-162.53723
1766812735501,-0.9760742,0.111328125,-0.20751953,-0.12207031,0.24414062,-0.30517578,0.0,0.0,0.0,152.5122,76.223145,-162.42188
1766812735590,-0.9770508,0.111328125,-0.20703125,-0.30517578,-0.061035156,-0.18310547,0.0,0.0,0.0,152.5122,76.223145,-162.42188
1766812735601,-0.9770508,0.111328125,-0.20703125,-0.30517578,-0.061035156,-0.18310547,0.0,0.0,0.0,152.55615,76.22864,-162.35046
1766812735689,-0.9760742,0.11328125,-0.20947266,0.061035156,-0.12207031,-0.24414062,0.0,0.0,0.0,152.55615,76.22864,-162.35046
1766812735701,-0.9760742,0.11328125,-0.20947266,0.061035156,-0.12207031,-0.24414062,0.0,0.0,0.0,152.66052,76.23413,-162.22412
1766812735789,-0.97558594,0.11279297,-0.20751953,0.0,-0.12207031,0.0,0.0,0.0,0.0,152.66052,76.23413,-162.22412
1766812735801,-0.97558594,0.11279297,-0.20751953,0.0,-0.12207031,0.0,0.0,0.0,0.0,152.68799,76.23413,-162.18018
1766812735889,-0.9736328,0.11035156,-0.20898438,0.6713867,-0.12207031,-0.12207031,0.0,0.0,0.0,152.68799,76.23413,-162.18018
1766812735900,-0.9736328,0.11035156,-0.20898438,0.6713867,-0.12207031,-0.12207031,0.0,0.0,0.0,152.677,76.24512,-162.20764
1766812735989,-0.9770508,0.106933594,-0.2109375,-0.18310547,0.12207031,-0.18310547,0.0,0.0,0.0,152.677,76.24512,-162.20764
1766812736000,-0.9770508,0.106933594,-0.2109375,-0.18310547,0.12207031,-0.18310547,0.0,0.0,0.0,152.69348,76.24512,-162.18567
1766812736088,-0.97265625,0.114746094,-0.20507812,0.0,0.061035156,-0.061035156,0.0,0.0,0.0,152.69348,76.24512,-162.18567
1766812736100,-0.97265625,0.114746094,-0.20507812,0.0,0.061035156,-0.061035156,0.0,0.0,0.0,152.74841,76.23413,-162.12524
1766812736188,-0.97558594,0.10888672,-0.20898438,-0.12207031,0.0,0.0,0.0,0.0,0.0,152.74841,76.23413,-162.12524
1766812736199,-0.97558594,0.10888672,-0.20898438,-0.12207031,0.0,0.0,0.0,0.0,0.0,152.71545,76.239624,-162.12524
1766812736287,-0.98535156,0.099609375,-0.2133789,-0.61035156,1.8310547,-0.30517578,0.0,0.0,0.0,152.71545,76.239624,-162.12524
1766812736299,-0.98535156,0.099609375,-0.2133789,-0.61035156,1.8310547,-0.30517578,0.0,0.0,0.0,152.81433,76.206665,-162.03735
1766812736387,-0.99365234,0.1274414,-0.24707031,-2.2583008,4.211426,-1.953125,0.0,0.0,0.0,152.81433,76.206665,-162.03735
1766812736399,-0.99365234,0.1274414,-0.24707031,-2.2583008,4.211426,-1.953125,0.0,0.0,0.0,153.86902,75.94849,-160.7959
1766812736487,-0.953125,0.17773438,-0.21826172,10.314941,0.6713867,0.18310547,0.0,0.0,0.0,153.86902,75.94849,-160.7959
1766812736499,-0.953125,0.17773438,-0.21826172,10.314941,0.6713867,0.18310547,0.0,0.0,0.0,154.16016,75.789185,-160.52673
1766812736587,-0.9165039,0.19824219,-0.20800781,23.254395,-15.197754,-7.2021484,0.0,0.0,0.0,154.16016,75.789185,-160.52673
1766812736599,-0.9165039,0.19824219,-0.20800781,23.254395,-15.197754,-7.2021484,0.0,0.0,0.0,154.75342,76.28357,-161.01562
1766812736686,-1.019043,0.071777344,-0.1953125,24.658203,-2.9296875,-13.427734,0.0,0.0,0.0,154.75342,76.28357,-161.01562
1766812736699,-1.019043,0.071777344,-0.1953125,24.658203,-2.9296875,-13.427734,0.0,0.0,0.0,157.94495,77.61841,-159.25232
1766812736786,-0.99121094,-0.0053710938,-0.21191406,22.705078,-10.070801,-9.887695,0.0,0.0,0.0,157.94495,77.61841,-159.25232
1766812736797,-0.99121094,-0.0053710938,-0.21191406,22.705078,-10.070801,-9.887695,0.0,0.0,0.0,163.64685,78.47534,-155.64331
1766812736886,-0.9667969,0.005859375,-0.17578125,15.075684,-10.7421875,-9.460449,0.0,0.0,0.0,163.64685,78.47534,-155.64331
1766812736897,-0.9667969,0.005859375,-0.17578125,15.075684,-10.7421875,-9.460449,0.0,0.0,0.0,169.65088,79.27734,-151.80359
1766812736985,-0.9951172,0.0,-0.1484375,18.188477,-6.7749023,-13.366699,0.0,0.0,0.0,169.65088,79.27734,-151.80359
1766812736997,-0.9951172,0.0,-0.1484375,18.188477,-6.7749023,-13.366699,0.0,0.0,0.0,177.13806,80.321045,-146.07422
1766812737085,-1.0009766,-0.016601562,-0.13232422,10.864258,-11.59668,-12.512207,0.0,0.0,0.0,177.13806,80.321045,-146.07422
1766812737096,-1.0009766,-0.016601562,-0.13232422,10.864258,-11.59668,-12.512207,0.0,0.0,0.0,-175.28137,81.25488,-139.86694
1766812737185,-0.9848633,-0.083984375,-0.111328125,0.9765625,-8.300781,-17.578125,0.0,0.0,0.0,-175.28137,81.25488,-139.86694
1766812737196,-0.9848633,-0.083984375,-0.111328125,0.9765625,-8.300781,-17.578125,0.0,0.0,0.0,-163.73474,81.87561,-128.77075
1766812737284,-0.99853516,-0.091308594,-0.10546875,-7.751465,-9.94873,-13.793945,0.0,0.0,0.0,-163.73474,81.87561,-128.77075
1766812737296,-0.99853516,-0.091308594,-0.10546875,-7.751465,-9.94873,-13.793945,0.0,0.0,0.0,-150.69946,82.07886,-115.60913
1766812737384,-0.99365234,-0.100097656,-0.09863281,-5.432129,-7.8125,-10.437012,0.0,0.0,0.0,-150.69946,82.07886,-115.60913
1766812737396,-0.99365234,-0.100097656,-0.09863281,-5.432129,-7.8125,-10.437012,0.0,0.0,0.0,-139.45496,81.95801,-104.089966
1766812737484,-0.9892578,-0.100097656,-0.083496094,-3.112793,-8.728027,-8.117676,0.0,0.0,0.0,-139.45496,81.95801,-104.089966
1766812737496,-0.9892578,-0.100097656,-0.083496094,-3.112793,-8.728027,-8.117676,0.0,0.0,0.0,-131.08887,81.97449,-95.3064
1766812737584,-0.9897461,-0.111328125,-0.076171875,3.4179688,-4.4555664,-9.58252,0.0,0.0,0.0,-131.08887,81.97449,-95.3064
1766812737595,-0.9897461,-0.111328125,-0.076171875,3.4179688,-4.4555664,-9.58252,0.0,0.0,0.0,-123.4259,81.65588,-87.49512
1766812737683,-1.003418,-0.140625,-0.06347656,4.8828125,-2.1362305,-6.8969727,0.0,0.0,0.0,-123.4259,81.65588,-87.49512
1766812737695,-1.003418,-0.140625,-0.06347656,4.8828125,-2.1362305,-6.8969727,0.0,0.0,0.0,-118.531494,81.02966,-82.9303
1766812737783,-0.98583984,-0.16699219,-0.072753906,1.4038086,-3.8452148,-5.3710938,0.0,0.0,0.0,-118.531494,81.02966,-82.9303
1766812737795,-0.98583984,-0.16699219,-0.072753906,1.4038086,-3.8452148,-5.3710938,0.0,0.0,0.0,-115.164185,80.62866,-79.89807
1766812737883,-0.9711914,-0.14501953,-0.063964844,4.8828125,-5.3710938,-3.90625,0.0,0.0,0.0,-115.164185,80.62866,-79.89807
1766812737894,-0.9711914,-0.14501953,-0.063964844,4.8828125,-5.3710938,-3.90625,0.0,0.0,0.0,-111.22009,80.39795,-76.44287
1766812737982,-0.9941406,-0.16455078,-0.043945312,5.432129,-2.5634766,-2.746582,0.0,0.0,0.0,-111.22009,80.39795,-76.44287
1766812737994,-0.9941406,-0.16455078,-0.043945312,5.432129,-2.5634766,-2.746582,0.0,0.0,0.0,-108.03406,80.216675,-73.93799
1766812738082,-0.9838867,-0.1821289,-0.04736328,-3.4179688,-6.5307617,-3.2348633,0.0,0.0,0.0,-108.03406,80.216675,-73.93799
1766812738094,-0.9838867,-0.1821289,-0.04736328,-3.4179688,-6.5307617,-3.2348633,0.0,0.0,0.0,-105.43579,80.0354,-71.79016
1766812738182,-0.9790039,-0.15429688,-0.0390625,-2.5634766,-7.019043,-5.004883,0.0,0.0,0.0,-105.43579,80.0354,-71.79016
1766812738193,-0.9790039,-0.15429688,-0.0390625,-2.5634766,-7.019043,-5.004883,0.0,0.0,0.0,-101.54114,79.749756,-67.71973
1766812738282,-0.9897461,-0.16796875,-0.020996094,3.3569336,-5.004883,-2.8686523,0.0,0.0,0.0,-101.54114,79.749756,-67.71973
1766812738293,-0.9897461,-0.16796875,-0.020996094,3.3569336,-5.004883,-2.8686523,0.0,0.0,0.0,-98.0365,79.44763,-64.53369
1766812738381,-0.9848633,-0.203125,-0.0146484375,4.3945312,-5.1879883,-4.3945312,0.0,0.0,0.0,-98.0365,79.44763,-64.53369
1766812738393,-0.9848633,-0.203125,-0.0146484375,4.3945312,-5.1879883,-4.3945312,0.0,0.0,0.0,-94.954834,79.16199,-62.160645
1766812738481,-0.97753906,-0.19335938,-0.0073242188,0.0,-8.666992,-3.6010742,0.0,0.0,0.0,-94.954834,79.16199,-62.160645
1766812738492,-0.97753906,-0.19335938,-0.0073242188,0.0,-8.666992,-3.6010742,0.0,0.0,0.0,-90.60974,78.80493,-58.172607
1766812738581,-0.97998047,-0.1953125,0.0034179688,2.380371,-5.7373047,-2.8076172,0.0,0.0,0.0,-90.60974,78.80493,-58.172607
1766812738592,-0.97998047,-0.1953125,0.0034179688,2.380371,-5.7373047,-2.8076172,0.0,0.0,0.0,-87.36328,78.464355,-55.17334
1766812738680,-0.9770508,-0.19824219,0.029296875,4.0283203,-4.699707,-0.8544922,0.0,0.0,0.0,-87.36328,78.464355,-55.17334
1766812738692,-0.9770508,-0.19824219,0.029296875,4.0283203,-4.699707,-0.8544922,0.0,0.0,0.0,-84.97925,78.29407,-53.184814
1766812738780,-0.98095703,-0.21484375,0.03857422,6.7749023,-3.90625,-1.8310547,0.0,0.0,0.0,-84.97925,78.29407,-53.184814
1766812738792,-0.98095703,-0.21484375,0.03857422,6.7749023,-3.90625,-1.8310547,0.0,0.0,0.0,-82.21619,78.09631,-51.124878
1766812738880,-0.98291016,-0.22265625,0.046875,-0.30517578,-4.699707,-0.9765625,0.0,0.0,0.0,-82.21619,78.09631,-51.124878
1766812738891,-0.98291016,-0.22265625,0.046875,-0.30517578,-4.699707,-0.9765625,0.0,0.0,0.0,-79.77722,77.84363,-48.90564
1766812738979,-0.9760742,-0.19482422,0.052734375,2.2583008,0.0,-0.9765625,0.0,0.0,0.0,-79.77722,77.84363,-48.90564
1766812738991,-0.9760742,-0.19482422,0.052734375,2.2583008,0.0,-0.9765625,0.0,0.0,0.0,-78.56323,77.69531,-47.614746
1766812739079,-0.9765625,-0.20410156,0.064453125,5.554199,1.0986328,2.4414062,0.0,0.0,0.0,-78.56323,77.69531,-47.614746
1766812739090,-0.9765625,-0.20410156,0.064453125,5.554199,1.0986328,2.4414062,0.0,0.0,0.0,-77.733765,77.75574,-47.10388
1766812739179,-0.9916992,-0.2265625,0.06298828,6.3476562,5.859375,6.8969727,0.0,0.0,0.0,-77.733765,77.75574,-47.10388
1766812739190,-0.9916992,-0.2265625,0.06298828,6.3476562,5.859375,6.8969727,0.0,0.0,0.0,-78.5907,78.33801,-48.707886
1766812739278,-0.97753906,-0.22705078,0.049804688,4.1503906,10.375977,11.901855,0.0,0.0,0.0,-78.5907,78.33801,-48.707886
1766812739290,-0.97753906,-0.22705078,0.049804688,4.1503906,10.375977,11.901855,0.0,0.0,0.0,-80.738525,79.332275,-51.344604
1766812739378,-1.0029297,-0.18896484,0.046875,-2.1362305,13.244629,17.944336,0.0,0.0,0.0,-80.738525,79.332275,-51.344604
1766812739390,-1.0029297,-0.18896484,0.046875,-2.1362305,13.244629,17.944336,0.0,0.0,0.0,-86.0614,80.84839,-56.66748
1766812739478,-1.0019531,-0.15771484,0.032714844,-2.1362305,17.8833,18.127441,0.0,0.0,0.0,-86.0614,80.84839,-56.66748
1766812739492,-1.0019531,-0.15771484,0.032714844,-2.1362305,17.8833,18.127441,0.0,0.0,0.0,-96.05347,82.47986,-66.38489
1766812739578,-1.0146484,-0.106933594,-0.014160156,-10.437012,21.911621,20.019531,0.0,0.0,0.0,-96.05347,82.47986,-66.38489
1766812739589,-1.0146484,-0.106933594,-0.014160156,-10.437012,21.911621,20.019531,0.0,0.0,0.0,-116.900024,83.6499,-86.73157
1766812739677,-1.0014648,-0.047851562,-0.06201172,-5.859375,30.639648,18.310547,0.0,0.0,0.0,-116.900024,83.6499,-86.73157
1766812739696,-1.0014648,-0.047851562,-0.06201172,-5.859375,30.639648,18.310547,0.0,0.0,0.0,-146.14563,83.33679,-115.25757
1766812739777,-0.97753906,-0.011230469,-0.14257812,-12.634277,35.583496,20.324707,0.0,0.0,0.0,-146.14563,83.33679,-115.25757
1766812739788,-0.97753906,-0.011230469,-0.14257812,-12.634277,35.583496,20.324707,0.0,0.0,0.0,-169.68384,81.01318,-138.16956
1766812739877,-0.9394531,0.032226562,-0.25097656,-19.40918,29.174805,17.27295,0.0,0.0,0.0,-169.68384,81.01318,-138.16956
1766812739888,-0.9394531,0.032226562,-0.25097656,-19.40918,29.174805,17.27295,0.0,0.0,0.0,178.12134,78.10181,-149.26575
1766812739976,-0.9458008,0.08203125,-0.3461914,-14.343262,24.841309,10.803223,0.0,0.0,0.0,178.12134,78.10181,-149.26575
1766812739988,-0.9458008,0.08203125,-0.3461914,-14.343262,24.841309,10.803223,0.0,0.0,0.0,171.20544,75.46509,-155.07202
1766812740076,-0.88671875,0.11279297,-0.36083984,-20.019531,-1.5869141,6.652832,0.0,0.0,0.0,171.20544,75.46509,-155.07202
1766812740088,-0.88671875,0.11279297,-0.36083984,-20.019531,-1.5869141,6.652832,0.0,0.0,0.0,167.7008,73.76221,-157.76367
1766812740176,-0.9326172,0.095703125,-0.25634766,-10.314941,-1.0986328,-3.112793,0.0,0.0,0.0,167.7008,73.76221,-157.76367
1766812740187,-0.9326172,0.095703125,-0.25634766,-10.314941,-1.0986328,-3.112793,0.0,0.0,0.0,165.49805,73.97095,-159.1864
1766812740276,-0.97509766,0.080078125,-0.2475586,-10.620117,-3.7231445,2.2583008,0.0,0.0,0.0,165.49805,73.97095,-159.1864
1766812740287,-0.97509766,0.080078125,-0.2475586,-10.620117,-3.7231445,2.2583008,0.0,0.0,0.0,164.43237,74.14673,-159.84009
1766812740375,-0.9736328,0.15185547,-0.2607422,-0.91552734,-4.760742,3.7231445,0.0,0.0,0.0,164.43237,74.14673,-159.84009
1766812740387,-0.9736328,0.15185547,-0.2607422,-0.91552734,-4.760742,3.7231445,0.0,0.0,0.0,161.9165,74.63013,-162.32849
1766812740475,-0.9633789,0.07470703,-0.24365234,-7.6904297,-4.8217773,2.4414062,0.0,0.0,0.0,161.9165,74.63013,-162.32849
1766812740486,-0.9633789,0.07470703,-0.24365234,-7.6904297,-4.8217773,2.4414062,0.0,0.0,0.0,159.34021,74.77844,-164.9707
1766812740575,-0.9765625,0.09423828,-0.2475586,-5.554199,-3.6621094,-3.540039,0.0,0.0,0.0,159.34021,74.77844,-164.9707
1766812740586,-0.9765625,0.09423828,-0.2475586,-5.554199,-3.6621094,-3.540039,0.0,0.0,0.0,158.55469,75.26184,-165.6903
1766812740674,-0.9848633,0.12548828,-0.20703125,-1.7089844,-3.2958984,0.5493164,0.0,0.0,0.0,158.55469,75.26184,-165.6903
1766812740686,-0.9848633,0.12548828,-0.20703125,-1.7089844,-3.2958984,0.5493164,0.0,0.0,0.0,158.49976,75.60791,-166.00891
1766812740774,-0.9663086,0.10986328,-0.22070312,2.0751953,0.061035156,1.2817383,0.0,0.0,0.0,158.49976,75.60791,-166.00891
1766812740785,-0.9663086,0.10986328,-0.22070312,2.0751953,0.061035156,1.2817383,0.0,0.0,0.0,157.67029,75.67383,-167.20093
1766812740874,-0.9765625,0.11230469,-0.2319336,5.1879883,1.5258789,-0.7324219,0.0,0.0,0.0,157.67029,75.67383,-167.20093
1766812740885,-0.9765625,0.11230469,-0.2319336,5.1879883,1.5258789,-0.7324219,0.0,0.0,0.0,157.76917,75.64087,-167.74475
1766812740973,-0.9741211,0.08691406,-0.234375,3.4179688,3.0517578,-0.18310547,0.0,0.0,0.0,157.76917,75.64087,-167.74475
1766812740985,-0.9741211,0.08691406,-0.234375,3.4179688,3.0517578,-0.18310547,0.0,0.0,0.0,158.39539,75.39917,-167.8711
1766812741073,-0.96240234,0.08642578,-0.24365234,3.112793,5.79834,0.061035156,0.0,0.0,0.0,158.39539,75.39917,-167.8711
1766812741085,-0.96240234,0.08642578,-0.24365234,3.112793,5.79834,0.061035156,0.0,0.0,0.0,159.12598,75.02014,-167.77771
1766812741173,-0.95458984,0.099609375,-0.2631836,-2.9296875,-2.746582,-0.5493164,0.0,0.0,0.0,159.12598,75.02014,-167.77771
1766812741184,-0.95458984,0.099609375,-0.2631836,-2.9296875,-2.746582,-0.5493164,0.0,0.0,0.0,159.08203,74.921265,-168.17322
1766812741272,-0.97558594,0.11279297,-0.22998047,-3.1738281,-2.9907227,-0.061035156,0.0,0.0,0.0,159.08203,74.921265,-168.17322
1766812741284,-0.97558594,0.11279297,-0.22998047,-3.1738281,-2.9907227,-0.061035156,0.0,0.0,0.0,158.65356,75.146484,-168.76648
1766812741372,-0.9736328,0.104003906,-0.22314453,1.2817383,0.7324219,-0.061035156,0.0,0.0,0.0,158.65356,75.146484,-168.76648
1766812741384,-0.9736328,0.104003906,-0.22314453,1.2817383,0.7324219,-0.061035156,0.0,0.0,0.0,158.36792,75.22339,-169.2334
1766812741472,-0.9663086,0.096191406,-0.24853516,0.0,-0.12207031,0.61035156,0.0,0.0,0.0,158.36792,75.22339,-169.2334
1766812741483,-0.9663086,0.096191406,-0.24853516,0.0,-0.12207031,0.61035156,0.0,0.0,0.0,158.19763,75.19043,-169.7168
1766812741572,-0.97802734,0.1015625,-0.22998047,0.18310547,1.159668,-0.6713867,0.0,0.0,0.0,158.19763,75.19043,-169.7168
1766812741583,-0.97802734,0.1015625,-0.22998047,0.18310547,1.159668,-0.6713867,0.0,0.0,0.0,158.09875,75.162964,-170.12878
1766812741671,-0.96972656,0.11669922,-0.22851562,-0.4272461,-0.24414062,0.5493164,0.0,0.0,0.0,158.09875,75.162964,-170.12878
1766812741683,-0.96972656,0.11669922,-0.22851562,-0.4272461,-0.24414062,0.5493164,0.0,0.0,0.0,157.96143,75.130005,-170.4419
1766812741771,-0.9692383,0.08984375,-0.24316406,1.3427734,-0.6713867,-0.8544922,0.0,0.0,0.0,157.96143,75.130005,-170.4419
1766812741782,-0.9692383,0.08984375,-0.24316406,1.3427734,-0.6713867,-0.8544922,0.0,0.0,0.0,158.25256,75.06958,-170.46936
1766812741871,-0.9638672,0.08496094,-0.24511719,-1.2207031,0.12207031,0.24414062,0.0,0.0,0.0,158.25256,75.06958,-170.46936
1766812741882,-0.9638672,0.08496094,-0.24511719,-1.2207031,0.12207031,0.24414062,0.0,0.0,0.0,158.09875,75.11902,-170.84839
1766812741971,-0.9785156,0.11376953,-0.2290039,-0.18310547,-0.18310547,-0.36621094,0.0,0.0,0.0,158.09875,75.11902,-170.84839
1766812741982,-0.9785156,0.11376953,-0.2290039,-0.18310547,-0.18310547,-0.36621094,0.0,0.0,0.0,157.7472,75.20691,-171.37024
1766812742070,-0.96484375,0.10595703,-0.23876953,-0.061035156,0.4272461,1.2207031,0.0,0.0,0.0,157.7472,75.20691,-171.37024
1766812742082,-0.96484375,0.10595703,-0.23876953,-0.061035156,0.4272461,1.2207031,0.0,0.0,0.0,157.61536,75.15747,-171.71082
1766812742170,-0.9736328,0.10546875,-0.23583984,-0.061035156,0.0,-0.12207031,0.0,0.0,0.0,157.61536,75.15747,-171.71082
1766812742181,-0.9736328,0.10546875,-0.23583984,-0.061035156,0.0,-0.12207031,0.0,0.0,0.0,157.04407,75.162964,-172.37549
1766812742269,-0.9663086,0.107910156,-0.23486328,-2.1362305,-0.61035156,0.61035156,0.0,0.0,0.0,157.04407,75.162964,-172.37549
1766812742281,-0.9663086,0.107910156,-0.23486328,-2.1362305,-0.61035156,0.61035156,0.0,0.0,0.0,156.58813,75.17944,-172.8479
1766812742369,-0.96777344,0.109375,-0.23095703,0.12207031,0.0,0.61035156,0.0,0.0,0.0,156.58813,75.17944,-172.8479
1766812742381,-0.96777344,0.109375,-0.23095703,0.12207031,0.0,0.61035156,0.0,0.0,0.0,156.50024,75.1355,-173.07861
1766812742469,-0.9692383,0.109375,-0.2368164,-0.12207031,0.30517578,0.4272461,0.0,0.0,0.0,156.50024,75.1355,-173.07861
1766812742481,-0.9692383,0.109375,-0.2368164,-0.12207031,0.30517578,0.4272461,0.0,0.0,0.0,156.0498,75.12451,-173.60596
1766812742569,-0.96875,0.111328125,-0.22558594,-1.159668,-0.24414062,0.4272461,0.0,0.0,0.0,156.0498,75.12451,-173.60596
1766812742580,-0.96875,0.111328125,-0.22558594,-1.159668,-0.24414062,0.4272461,0.0,0.0,0.0,155.77515,75.113525,-173.95752
1766812742668,-0.9658203,0.11376953,-0.22949219,0.36621094,0.6713867,0.36621094,0.0,0.0,0.0,155.77515,75.113525,-173.95752
1766812742680,-0.9658203,0.11376953,-0.22949219,0.36621094,0.6713867,0.36621094,0.0,0.0,0.0,155.65979,75.06958,-174.14429
1766812742768,-0.96728516,0.104003906,-0.23730469,-0.8544922,0.12207031,0.061035156,0.0,0.0,0.0,155.65979,75.06958,-174.14429
1766812742780,-0.96728516,0.104003906,-0.23730469,-0.8544922,0.12207031,0.061035156,0.0,0.0,0.0,155.46204,75.01465,-174.41345
1766812742868,-0.96435547,0.111328125,-0.23388672,-0.18310547,0.24414062,-0.48828125,0.0,0.0,0.0,155.46204,75.01465,-174.41345
1766812742879,-0.96435547,0.111328125,-0.23388672,-0.18310547,0.24414062,-0.48828125,0.0,0.0,0.0,155.62683,74.99817,-174.36401
1766812742967,-0.9614258,0.122558594,-0.23242188,0.91552734,0.18310547,-1.4038086,0.0,0.0,0.0,155.62683,74.99817,-174.36401
1766812742979,-0.9614258,0.122558594,-0.23242188,0.91552734,0.18310547,-1.4038086,0.0,0.0,0.0,155.67078,75.06409,-174.40796
1766812743067,-0.9628906,0.103027344,-0.2421875,-0.9765625,0.8544922,-0.24414062,0.0,0.0,0.0,155.67078,75.06409,-174.40796
1766812743079,-0.9628906,0.103027344,-0.2421875,-0.9765625,0.8544922,-0.24414062,0.0,0.0,0.0,155.75867,75.08606,-174.43542
1766812743167,-0.9746094,0.1171875,-0.22802734,1.8310547,-0.30517578,-1.2207031,0.0,0.0,0.0,155.75867,75.08606,-174.43542
1766812743178,-0.9746094,0.1171875,-0.22802734,1.8310547,-0.30517578,-1.2207031,0.0,0.0,0.0,155.9784,75.15747,-174.33655
1766812743267,-0.96533203,0.10986328,-0.23925781,-0.30517578,0.24414062,-0.36621094,0.0,0.0,0.0,155.9784,75.15747,-174.33655
1766812743278,-0.96533203,0.10986328,-0.23925781,-0.30517578,0.24414062,-0.36621094,0.0,0.0,0.0,155.93994,75.162964,-174.41895
1766812743366,-0.97265625,0.10839844,-0.2290039,0.4272461,0.24414062,-0.36621094,0.0,0.0,0.0,155.93994,75.162964,-174.41895
1766812743378,-0.97265625,0.10839844,-0.2290039,0.4272461,0.24414062,-0.36621094,0.0,0.0,0.0,156.17065,75.146484,-174.2981
1766812743466,-0.9707031,0.10498047,-0.23291016,0.61035156,0.36621094,-0.4272461,0.0,0.0,0.0,156.17065,75.146484,-174.2981
1766812743478,-0.9707031,0.10498047,-0.23291016,0.61035156,0.36621094,-0.4272461,0.0,0.0,0.0,156.32446,75.146484,-174.22119
1766812743566,-0.9682617,0.107910156,-0.23486328,0.0,0.061035156,0.0,0.0,0.0,0.0,156.32446,75.146484,-174.22119
1766812743577,-0.9682617,0.107910156,-0.23486328,0.0,0.061035156,0.0,0.0,0.0,0.0,156.31348,75.113525,-174.28711
1766812743665,-0.97216797,0.10595703,-0.234375,0.36621094,0.5493164,-0.30517578,0.0,0.0,0.0,156.31348,75.113525,-174.28711
1766812743677,-0.97216797,0.10595703,-0.234375,0.36621094,0.5493164,-0.30517578,0.0,0.0,0.0,156.36841,75.097046,-174.30359
1766812743765,-0.96972656,0.109375,-0.2319336,-0.18310547,0.24414062,-0.061035156,0.0,0.0,0.0,156.36841,75.097046,-174.30359
1766812743776,-0.96972656,0.109375,-0.2319336,-0.18310547,0.24414062,-0.061035156,0.0,0.0,0.0,156.33545,75.06958,-174.3695
1766812743865,-0.9663086,0.111816406,-0.23486328,-0.18310547,-1.2817383,0.0,0.0,0.0,0.0,156.33545,75.06958,-174.3695
1766812743876,-0.9663086,0.111816406,-0.23486328,-0.18310547,-1.2817383,0.0,0.0,0.0,0.0,156.26404,75.09155,-174.47388
1766812743964,-0.9711914,0.11035156,-0.23046875,0.12207031,-0.061035156,-0.30517578,0.0,0.0,0.0,156.26404,75.09155,-174.47388
1766812743976,-0.9711914,0.11035156,-0.23046875,0.12207031,-0.061035156,-0.30517578,0.0,0.0,0.0,156.17615,75.1355,-174.58923
1766812744064,-0.9682617,0.10595703,-0.23095703,0.12207031,0.30517578,0.18310547,0.0,0.0,0.0,156.17615,75.1355,-174.58923
1766812744076,-0.9682617,0.10595703,-0.23095703,0.12207031,0.30517578,0.18310547,0.0,0.0,0.0,156.16516,75.12451,-174.6167
1766812744164,-0.97021484,0.109375,-0.23339844,-0.36621094,-0.61035156,-0.12207031,0.0,0.0,0.0,156.16516,75.12451,-174.6167
1766812744176,-0.97021484,0.109375,-0.23339844,-0.36621094,-0.61035156,-0.12207031,0.0,0.0,0.0,156.0553,75.12451,-174.75952
1766812744264,-0.9667969,0.107910156,-0.23730469,-0.061035156,-0.36621094,-0.061035156,0.0,0.0,0.0,156.0553,75.12451,-174.75952
1766812744275,-0.9667969,0.107910156,-0.23730469,-0.061035156,-0.36621094,-0.061035156,0.0,0.0,0.0,155.92346,75.11902,-174.86389
1766812744363,-0.96777344,0.115234375,-0.22851562,-0.36621094,-0.30517578,-0.061035156,0.0,0.0,0.0,155.92346,75.11902,-174.86389
1766812744375,-0.96777344,0.115234375,-0.22851562,-0.36621094,-0.30517578,-0.061035156,0.0,0.0,0.0,155.78064,75.1355,-174.95728
1766812744464,-0.9790039,0.10205078,-0.2265625,0.36621094,-0.48828125,-0.61035156,0.0,0.0,0.0,155.78064,75.1355,-174.95728
1766812744475,-0.9790039,0.10205078,-0.2265625,0.36621094,-0.48828125,-0.61035156,0.0,0.0,0.0,155.71472,75.22339,-175.06714
1766812744563,-0.96533203,0.104003906,-0.2319336,-2.319336,-1.2817383,0.30517578,0.0,0.0,0.0,155.71472,75.22339,-175.06714
1766812744574,-0.96533203,0.104003906,-0.2319336,-2.319336,-1.2817383,0.30517578,0.0,0.0,0.0,155.58838,75.250854,-175.16602
1766812744663,-0.9760742,0.119628906,-0.23095703,-1.7089844,-0.8544922,-0.6713867,0.0,0.0,0.0,155.58838,75.250854,-175.16602
1766812744674,-0.9760742,0.119628906,-0.23095703,-1.7089844,-0.8544922,-0.6713867,0.0,0.0,0.0,155.34668,75.34424,-175.27588
1766812744762,-0.9741211,0.11425781,-0.22265625,-0.8544922,-1.2207031,1.4648438,0.0,0.0,0.0,155.34668,75.34424,-175.27588
1766812744774,-0.9741211,0.11425781,-0.22265625,-0.8544922,-1.2207031,1.4648438,0.0,0.0,0.0,154.70947,75.34973,-175.78674
1766812744862,-0.9633789,0.11621094,-0.2241211,-1.5258789,-1.7700195,0.30517578,0.0,0.0,0.0,154.70947,75.34973,-175.78674
1766812744873,-0.9633789,0.11621094,-0.2241211,-1.5258789,-1.7700195,0.30517578,0.0,0.0,0.0,154.09973,75.426636,-176.2976
1766812744961,-0.98046875,0.11425781,-0.21826172,-1.2817383,-1.3427734,0.91552734,0.0,0.0,0.0,154.09973,75.426636,-176.2976
1766812744973,-0.98046875,0.11425781,-0.21826172,-1.2817383,-1.3427734,0.91552734,0.0,0.0,0.0,153.29773,75.54199,-176.97876
1766812745061,-0.9628906,0.10986328,-0.22607422,0.5493164,2.4414062,1.7700195,0.0,0.0,0.0,153.29773,75.54199,-176.97876
1766812745073,-0.9628906,0.10986328,-0.22607422,0.5493164,2.4414062,1.7700195,0.0,0.0,0.0,153.3966,75.48706,-176.91833
1766812745161,-0.9741211,0.10888672,-0.2265625,-4.638672,1.7700195,1.7700195,0.0,0.0,0.0,153.3966,75.48706,-176.91833
1766812745173,-0.9741211,0.10888672,-0.2265625,-4.638672,1.7700195,1.7700195,0.0,0.0,0.0,152.61108,75.34973,-177.52808
1766812745261,-0.9614258,0.1328125,-0.22363281,-5.1879883,0.48828125,2.746582,0.0,0.0,0.0,152.61108,75.34973,-177.52808
1766812745272,-0.9614258,0.1328125,-0.22363281,-5.1879883,0.48828125,2.746582,0.0,0.0,0.0,151.42456,75.14099,-178.28613
1766812745360,-0.9536133,0.14990234,-0.22460938,-3.3569336,-1.5258789,1.3427734,0.0,0.0,0.0,151.42456,75.14099,-178.28613
1766812745372,-0.9536133,0.14990234,-0.22460938,-3.3569336,-1.5258789,1.3427734,0.0,0.0,0.0,150.05676,75.06958,-179.26941
1766812745460,-0.96533203,0.15625,-0.20410156,0.5493164,-0.91552734,-1.159668,0.0,0.0,0.0,150.05676,75.06958,-179.26941
1766812745471,-0.96533203,0.15625,-0.20410156,0.5493164,-0.91552734,-1.159668,0.0,0.0,0.0,149.56238,75.15747,-179.47815
1766812745560,-0.9814453,0.13623047,-0.21289062,2.746582,-0.36621094,-0.48828125,0.0,0.0,0.0,149.56238,75.15747,-179.47815
1766812745571,-0.9814453,0.13623047,-0.21289062,2.746582,-0.36621094,-0.48828125,0.0,0.0,0.0,149.02954,75.34973,-179.93408
1766812745659,-0.96484375,0.1274414,-0.21923828,3.4179688,2.6855469,-2.8076172,0.0,0.0,0.0,149.02954,75.34973,-179.93408
1766812745671,-0.96484375,0.1274414,-0.21923828,3.4179688,2.6855469,-2.8076172,0.0,0.0,0.0,149.93042,75.30029,-179.14856
1766812745759,-0.9682617,0.11767578,-0.22363281,1.5258789,-0.91552734,-1.7089844,0.0,0.0,0.0,149.93042,75.30029,-179.14856
1766812745771,-0.9682617,0.11767578,-0.22363281,1.5258789,-0.91552734,-1.7089844,0.0,0.0,0.0,150.86975,75.33325,-178.33557
1766812745859,-0.9736328,0.11279297,-0.2133789,-0.6713867,1.4038086,-1.159668,0.0,0.0,0.0,150.86975,75.33325,-178.33557
1766812745870,-0.9736328,0.11279297,-0.2133789,-0.6713867,1.4038086,-1.159668,0.0,0.0,0.0,151.48499,75.41016,-177.8302
1766812745959,-0.96728516,0.12060547,-0.22460938,-1.5258789,0.24414062,0.36621094,0.0,0.0,0.0,151.48499,75.41016,-177.8302
1766812745970,-0.96728516,0.12060547,-0.22460938,-1.5258789,0.24414062,0.36621094,0.0,0.0,0.0,151.75964,75.338745,-177.48413
1766812746058,-0.9746094,0.13427734,-0.21679688,0.24414062,1.4038086,0.4272461,0.0,0.0,0.0,151.75964,75.338745,-177.48413
1766812746070,-0.9746094,0.13427734,-0.21679688,0.24414062,1.4038086,0.4272461,0.0,0.0,0.0,151.53442,75.26184,-177.6709
1766812746158,-0.9638672,0.12988281,-0.22265625,0.061035156,1.4648438,-0.12207031,0.0,0.0,0.0,151.53442,75.26184,-177.6709
1766812746169,-0.9638672,0.12988281,-0.22265625,0.061035156,1.4648438,-0.12207031,0.0,0.0,0.0,151.73218,75.10803,-177.39075
1766812746258,-0.96533203,0.12988281,-0.22851562,1.4648438,0.5493164,-0.7324219,0.0,0.0,0.0,151.73218,75.10803,-177.39075
1766812746269,-0.96533203,0.12988281,-0.22851562,1.4648438,0.5493164,-0.7324219,0.0,0.0,0.0,151.7926,75.05859,-177.2699
1766812746357,-0.9746094,0.12939453,-0.22363281,1.8920898,1.2207031,-0.5493164,0.0,0.0,0.0,151.7926,75.05859,-177.2699
1766812746369,-0.9746094,0.12939453,-0.22363281,1.8920898,1.2207031,-0.5493164,0.0,0.0,0.0,152.0343,75.04761,-177.07764
1766812746459,-0.9682617,0.119140625,-0.23046875,0.5493164,0.8544922,-1.0375977,0.0,0.0,0.0,152.0343,75.04761,-177.07764
1766812746469,-0.9682617,0.119140625,-0.23046875,0.5493164,0.8544922,-1.0375977,0.0,0.0,0.0,152.52869,74.9762,-176.61072
1766812746557,-0.9692383,0.12060547,-0.22998047,0.5493164,0.8544922,-0.36621094,0.0,0.0,0.0,152.52869,74.9762,-176.61072
1766812746568,-0.9692383,0.12060547,-0.22998047,0.5493164,0.8544922,-0.36621094,0.0,0.0,0.0,152.90222,74.921265,-176.24817
1766812746656,-0.9638672,0.12207031,-0.23242188,-0.12207031,-0.24414062,-0.061035156,0.0,0.0,0.0,152.90222,74.921265,-176.24817
1766812746668,-0.9638672,0.12207031,-0.23242188,-0.12207031,-0.24414062,-0.061035156,0.0,0.0,0.0,153.05603,74.888306,-176.11633
1766812746756,-0.9716797,0.12158203,-0.22851562,-0.5493164,-0.5493164,-0.24414062,0.0,0.0,0.0,153.05603,74.888306,-176.11633
1766812746768,-0.9716797,0.12158203,-0.22851562,-0.5493164,-0.5493164,-0.24414062,0.0,0.0,0.0,152.94067,74.93225,-176.19324
1766812746856,-0.97265625,0.123046875,-0.22851562,0.0,-0.24414062,0.0,0.0,0.0,0.0,152.94067,74.93225,-176.19324
1766812746867,-0.97265625,0.123046875,-0.22851562,0.0,-0.24414062,0.0,0.0,0.0,0.0,152.86377,74.95422,-176.23169
1766812746955,-0.96777344,0.122558594,-0.23095703,0.0,0.0,-0.12207031,0.0,0.0,0.0,152.86377,74.95422,-176.23169
1766812746967,-0.96777344,0.122558594,-0.23095703,0.0,0.0,-0.12207031,0.0,0.0,0.0,152.88025,74.94324,-176.20972
1766812747055,-0.9633789,0.118652344,-0.22949219,0.30517578,0.061035156,-0.18310547,0.0,0.0,0.0,152.88025,74.94324,-176.20972
1766812747067,-0.9633789,0.118652344,-0.22949219,0.30517578,0.061035156,-0.18310547,0.0,0.0,0.0,152.89124,74.94324,-176.18225
1766812747155,-0.9814453,0.123535156,-0.22509766,0.0,-0.7324219,0.0,0.0,0.0,0.0,152.89124,74.94324,-176.18225
1766812747167,-0.9814453,0.123535156,-0.22509766,0.0,-0.7324219,0.0,0.0,0.0,0.0,152.71545,75.03662,-176.35254
1766812747255,-0.96875,0.1303711,-0.2265625,1.2207031,1.7700195,-0.12207031,0.0,0.0,0.0,152.71545,75.03662,-176.35254
1766812747267,-0.96875,0.1303711,-0.2265625,1.2207031,1.7700195,-0.12207031,0.0,0.0,0.0,153.0011,74.921265,-176.11084
1766812747354,-0.96484375,0.12158203,-0.23291016,1.159668,0.4272461,-0.5493164,0.0,0.0,0.0,153.0011,74.921265,-176.11084
1766812747366,-0.96484375,0.12158203,-0.23291016,1.159668,0.4272461,-0.5493164,0.0,0.0,0.0,153.37463,74.83887,-175.77576
1766812747454,-0.9667969,0.111816406,-0.2368164,0.061035156,0.24414062,-0.61035156,0.0,0.0,0.0,153.37463,74.83887,-175.77576
1766812747465,-0.9667969,0.111816406,-0.2368164,0.061035156,0.24414062,-0.61035156,0.0,0.0,0.0,153.68225,74.82788,-175.49011
1766812747554,-0.97021484,0.12011719,-0.22998047,-0.12207031,-0.18310547,-0.12207031,0.0,0.0,0.0,153.68225,74.82788,-175.49011
1766812747565,-0.97021484,0.12011719,-0.22998047,-0.12207031,-0.18310547,-0.12207031,0.0,0.0,0.0,153.79211,74.83887,-175.38025
1766812747653,-0.9716797,0.12451172,-0.23291016,-0.24414062,-0.061035156,0.30517578,0.0,0.0,0.0,153.79211,74.83887,-175.38025
1766812747665,-0.9716797,0.12451172,-0.23291016,-0.24414062,-0.061035156,0.30517578,0.0,0.0,0.0,153.68774,74.82788,-175.46265
1766812747753,-0.9692383,0.12011719,-0.23388672,0.18310547,0.12207031,-0.18310547,0.0,0.0,0.0,153.68774,74.82788,-175.46265
1766812747764,-0.9692383,0.12011719,-0.23388672,0.18310547,0.12207031,-0.18310547,0.0,0.0,0.0,153.62183,74.80591,-175.49011
1766812747853,-0.9707031,0.11621094,-0.23242188,-0.61035156,-0.18310547,0.30517578,0.0,0.0,0.0,153.62183,74.80591,-175.49011
1766812747864,-0.9707031,0.11621094,-0.23242188,-0.61035156,-0.18310547,0.30517578,0.0,0.0,0.0,153.50647,74.800415,-175.578
1766812747953,-0.96728516,0.12890625,-0.23388672,0.12207031,-0.12207031,0.061035156,0.0,0.0,0.0,153.50647,74.800415,-175.578
1766812747964,-0.96728516,0.12890625,-0.23388672,0.12207031,-0.12207031,0.061035156,0.0,0.0,0.0,153.52844,74.77844,-175.56152
1766812748052,-0.9741211,0.12451172,-0.23291016,1.3427734,-0.79345703,-0.6713867,0.0,0.0,0.0,153.52844,74.77844,-175.56152
1766812748064,-0.9741211,0.12451172,-0.23291016,1.3427734,-0.79345703,-0.6713867,0.0,0.0,0.0,153.53394,74.80591,-175.56152
1766812748152,-0.96435547,0.118652344,-0.23144531,0.48828125,-0.9765625,0.18310547,0.0,0.0,0.0,153.53394,74.80591,-175.56152
1766812748164,-0.96435547,0.118652344,-0.23144531,0.48828125,-0.9765625,0.18310547,0.0,0.0,0.0,153.52844,74.84436,-175.56702
1766812748252,-0.9628906,0.114746094,-0.23583984,-0.48828125,-1.7700195,0.0,0.0,0.0,0.0,153.52844,74.84436,-175.56702
1766812748263,-0.9628906,0.114746094,-0.23583984,-0.48828125,-1.7700195,0.0,0.0,0.0,0.0,153.34167,74.91577,-175.77026
