timestamp,accX,accY,accZ,gyroX,gyroY,gyroZ,magX,magY,magZ,roll,pitch,yaw
1766899787204,-0.4921875,-0.67333984,0.5395508,-0.24414062,-1.2207031,-0.061035156,0.0,0.0,0.0,-50.982056,29.734497,-7.2235107
1766899787217,-0.4921875,-0.67333984,0.5395508,-0.24414062,-1.2207031,-0.061035156,0.0,0.0,0.0,-50.97107,29.718018,-7.2125244
1766899787304,-0.4921875,-0.67578125,0.5444336,-0.48828125,-0.061035156,0.24414062,0.0,0.0,0.0,-50.97107,29.718018,-7.2125244
1766899787315,-0.4921875,-0.67578125,0.5444336,-0.48828125,-0.061035156,0.24414062,0.0,0.0,0.0,-50.960083,29.701538,-7.1905518
1766899787405,-0.49609375,-0.68115234,0.5395508,-0.30517578,0.24414062,0.12207031,0.0,0.0,0.0,-50.960083,29.701538,-7.1905518
1766899787415,-0.49609375,-0.68115234,0.5395508,-0.30517578,0.24414062,0.12207031,0.0,0.0,0.0,-50.976562,29.690552,-7.201538
1766899787503,-0.49121094,-0.6748047,0.54296875,0.48828125,-0.24414062,0.061035156,0.0,0.0,0.0,-50.976562,29.690552,-7.201538
1766899787515,-0.49121094,-0.6748047,0.54296875,0.48828125,-0.24414062,0.061035156,0.0,0.0,0.0,-50.982056,29.701538,-7.2125244
1766899787603,-0.49853516,-0.6791992,0.546875,-0.5493164,1.0986328,0.4272461,0.0,0.0,0.0,-50.982056,29.701538,-7.2125244
1766899787615,-0.49853516,-0.6791992,0.546875,-0.5493164,1.0986328,0.4272461,0.0,0.0,0.0,-51.00952,29.745483,-7.2509766
1766899787703,-0.49072266,-0.6933594,0.5390625,1.6479492,-3.7841797,-1.6479492,0.0,0.0,0.0,-51.00952,29.745483,-7.2509766
1766899787714,-0.49072266,-0.6933594,0.5390625,1.6479492,-3.7841797,-1.6479492,0.0,0.0,0.0,-50.90515,29.630127,-7.2070312
1766899787802,-0.49560547,-0.66308594,0.55371094,0.61035156,0.12207031,0.48828125,0.0,0.0,0.0,-50.90515,29.630127,-7.2070312
1766899787814,-0.49560547,-0.66308594,0.55371094,0.61035156,0.12207031,0.48828125,0.0,0.0,0.0,-50.789795,29.432373,-7.0202637
1766899787902,-0.49365234,-0.6845703,0.54296875,-0.79345703,0.0,0.0,0.0,0.0,0.0,-50.789795,29.432373,-7.0202637
1766899787913,-0.49365234,-0.6845703,0.54296875,-0.79345703,0.0,0.0,0.0,0.0,0.0,-50.76233,29.481812,-7.025757
1766899788002,-0.4868164,-0.6748047,0.54345703,0.4272461,0.0,-0.24414062,0.0,0.0,0.0,-50.76233,29.481812,-7.025757
1766899788013,-0.4868164,-0.6748047,0.54345703,0.4272461,0.0,-0.24414062,0.0,0.0,0.0,-50.707397,29.437866,-7.0147705
1766899788101,-0.4897461,-0.67822266,0.55566406,0.91552734,-0.48828125,0.18310547,0.0,0.0,0.0,-50.707397,29.437866,-7.0147705
1766899788113,-0.4897461,-0.67822266,0.55566406,0.91552734,-0.48828125,0.18310547,0.0,0.0,0.0,-50.646973,29.388428,-6.9433594
1766899788201,-0.48388672,-0.67578125,0.55029297,0.18310547,-0.6713867,-0.12207031,0.0,0.0,0.0,-50.646973,29.388428,-6.9433594
1766899788213,-0.48388672,-0.67578125,0.55029297,0.18310547,-0.6713867,-0.12207031,0.0,0.0,0.0,-50.564575,29.344482,-6.833496
1766899788301,-0.4873047,-0.6767578,0.5498047,0.0,0.061035156,-0.061035156,0.0,0.0,0.0,-50.564575,29.344482,-6.833496
1766899788312,-0.4873047,-0.6767578,0.5498047,0.0,0.061035156,-0.061035156,0.0,0.0,0.0,-50.59204,29.311523,-6.833496
1766899788401,-0.4814453,-0.671875,0.55078125,0.0,1.5869141,-0.12207031,0.0,0.0,0.0,-50.59204,29.311523,-6.833496
1766899788412,-0.4814453,-0.671875,0.55078125,0.0,1.5869141,-0.12207031,0.0,0.0,0.0,-50.59204,29.328003,-6.866455
1766899788500,-0.48486328,-0.6767578,0.5498047,0.30517578,1.2207031,-0.79345703,0.0,0.0,0.0,-50.59204,29.328003,-6.866455
1766899788513,-0.48486328,-0.6767578,0.5498047,0.30517578,1.2207031,-0.79345703,0.0,0.0,0.0,-50.630493,29.360962,-7.0092773
1766899788600,-0.48779297,-0.67333984,0.5449219,0.24414062,1.5258789,0.24414062,0.0,0.0,0.0,-50.630493,29.360962,-7.0092773
1766899788611,-0.48779297,-0.67333984,0.5449219,0.24414062,1.5258789,0.24414062,0.0,0.0,0.0,-50.64148,29.388428,-7.1740723
1766899788700,-0.48339844,-0.6713867,0.5488281,-0.61035156,1.8920898,0.0,0.0,0.0,0.0,-50.64148,29.388428,-7.1740723
1766899788711,-0.48339844,-0.6713867,0.5488281,-0.61035156,1.8920898,0.0,0.0,0.0,0.0,-50.701904,29.476318,-7.2839355
1766899788800,-0.5019531,-0.6845703,0.5410156,0.48828125,2.5024414,-0.5493164,0.0,0.0,0.0,-50.701904,29.476318,-7.2839355
1766899788811,-0.5019531,-0.6845703,0.5410156,0.48828125,2.5024414,-0.5493164,0.0,0.0,0.0,-50.839233,29.586182,-7.56958
1766899788899,-0.49072266,-0.6801758,0.54541016,1.5258789,0.0,0.79345703,0.0,0.0,0.0,-50.839233,29.586182,-7.56958
1766899788911,-0.49072266,-0.6801758,0.54541016,1.5258789,0.0,0.79345703,0.0,0.0,0.0,-50.77881,29.630127,-7.6190186
1766899788999,-0.49414062,-0.66845703,0.55322266,0.79345703,0.7324219,0.36621094,0.0,0.0,0.0,-50.77881,29.630127,-7.6190186
1766899789011,-0.49414062,-0.66845703,0.55322266,0.79345703,0.7324219,0.36621094,0.0,0.0,0.0,-50.635986,29.685059,-7.608032
1766899789099,-0.4946289,-0.67285156,0.54589844,0.48828125,0.61035156,0.0,0.0,0.0,0.0,-50.635986,29.685059,-7.608032
1766899789110,-0.4946289,-0.67285156,0.54589844,0.48828125,0.61035156,0.0,0.0,0.0,0.0,-50.581055,29.696045,-7.5915527
1766899789198,-0.49414062,-0.67285156,0.54345703,0.061035156,0.36621094,0.12207031,0.0,0.0,0.0,-50.581055,29.696045,-7.5915527
1766899789213,-0.49414062,-0.67285156,0.54345703,0.061035156,0.36621094,0.12207031,0.0,0.0,0.0,-50.57007,29.679565,-7.6135254
1766899789298,-0.49804688,-0.67333984,0.54785156,-0.18310547,0.5493164,0.0,0.0,0.0,0.0,-50.57007,29.679565,-7.6135254
1766899789310,-0.49804688,-0.67333984,0.54785156,-0.18310547,0.5493164,0.0,0.0,0.0,0.0,-50.586548,29.679565,-7.608032
1766899789398,-0.49072266,-0.6738281,0.5498047,0.0,0.7324219,0.12207031,0.0,0.0,0.0,-50.586548,29.679565,-7.608032
1766899789410,-0.49072266,-0.6738281,0.5498047,0.0,0.7324219,0.12207031,0.0,0.0,0.0,-50.603027,29.696045,-7.635498
1766899789498,-0.49658203,-0.67529297,0.54589844,0.12207031,0.24414062,0.0,0.0,0.0,0.0,-50.603027,29.696045,-7.635498
1766899789509,-0.49658203,-0.67529297,0.54589844,0.12207031,0.24414062,0.0,0.0,0.0,0.0,-50.614014,29.707031,-7.6574707
1766899789597,-0.49414062,-0.671875,0.546875,0.0,0.61035156,0.0,0.0,0.0,0.0,-50.614014,29.707031,-7.6574707
1766899789609,-0.49414062,-0.671875,0.546875,0.0,0.61035156,0.0,0.0,0.0,0.0,-50.60852,29.72351,-7.6904297
1766899789698,-0.49902344,-0.6767578,0.54785156,0.0,0.4272461,0.12207031,0.0,0.0,0.0,-50.60852,29.72351,-7.6904297
1766899789709,-0.49902344,-0.6767578,0.54785156,0.0,0.4272461,0.12207031,0.0,0.0,0.0,-50.614014,29.745483,-7.7233887
1766899789797,-0.49267578,-0.67333984,0.5493164,0.12207031,0.6713867,0.4272461,0.0,0.0,0.0,-50.614014,29.745483,-7.7233887
1766899789808,-0.49267578,-0.67333984,0.5493164,0.12207031,0.6713867,0.4272461,0.0,0.0,0.0,-50.60852,29.778442,-7.7453613
1766899789897,-0.4975586,-0.6743164,0.5473633,0.0,0.6713867,0.30517578,0.0,0.0,0.0,-50.60852,29.778442,-7.7453613
1766899789908,-0.4975586,-0.6743164,0.5473633,0.0,0.6713867,0.30517578,0.0,0.0,0.0,-50.603027,29.822388,-7.772827
1766899789996,-0.49560547,-0.6738281,0.5493164,0.61035156,1.0375977,0.61035156,0.0,0.0,0.0,-50.603027,29.822388,-7.772827
1766899790008,-0.49560547,-0.6738281,0.5493164,0.61035156,1.0375977,0.61035156,0.0,0.0,0.0,-50.581055,29.87732,-7.800293
1766899790096,-0.4946289,-0.66064453,0.5385742,1.5258789,-0.8544922,-1.2207031,0.0,0.0,0.0,-50.581055,29.87732,-7.800293
1766899790109,-0.4946289,-0.66064453,0.5385742,1.5258789,-0.8544922,-1.2207031,0.0,0.0,0.0,-50.476685,29.882812,-7.7783203
1766899790196,-0.4873047,-0.6723633,0.546875,0.0,-0.9765625,0.18310547,0.0,0.0,0.0,-50.476685,29.882812,-7.7783203
1766899790207,-0.4873047,-0.6723633,0.546875,0.0,-0.9765625,0.18310547,0.0,0.0,0.0,-50.41626,29.696045,-7.7178955
1766899790296,-0.48632812,-0.66064453,0.5361328,-1.4648438,1.0986328,-2.8076172,0.0,0.0,0.0,-50.41626,29.696045,-7.7178955
1766899790307,-0.48632812,-0.66064453,0.5361328,-1.4648438,1.0986328,-2.8076172,0.0,0.0,0.0,-50.35034,29.476318,-7.5915527
1766899790395,-0.50097656,-0.6796875,0.5449219,-0.18310547,1.159668,0.36621094,0.0,0.0,0.0,-50.35034,29.476318,-7.5915527
1766899790407,-0.50097656,-0.6796875,0.5449219,-0.18310547,1.159668,0.36621094,0.0,0.0,0.0,-50.548096,29.487305,-7.8167725
1766899790495,-0.4868164,-0.6738281,0.55126953,0.18310547,0.6713867,0.4272461,0.0,0.0,0.0,-50.548096,29.487305,-7.8167725
1766899790506,-0.4868164,-0.6738281,0.55126953,0.18310547,0.6713867,0.4272461,0.0,0.0,0.0,-50.55359,29.553223,-7.860718
1766899790595,-0.49804688,-0.67285156,0.54589844,0.061035156,0.24414062,-0.061035156,0.0,0.0,0.0,-50.55359,29.553223,-7.860718
1766899790607,-0.49804688,-0.67285156,0.54589844,0.061035156,0.24414062,-0.061035156,0.0,0.0,0.0,-50.559082,29.608154,-7.8936768
1766899790694,-0.4868164,-0.671875,0.54833984,-0.061035156,-0.12207031,0.0,0.0,0.0,0.0,-50.559082,29.608154,-7.8936768
1766899790707,-0.4868164,-0.671875,0.54833984,-0.061035156,-0.12207031,0.0,0.0,0.0,0.0,-50.53711,29.580688,-7.871704
1766899790794,-0.48583984,-0.6699219,0.54833984,-0.5493164,0.061035156,0.12207031,0.0,0.0,0.0,-50.53711,29.580688,-7.871704
1766899790806,-0.48583984,-0.6699219,0.54833984,-0.5493164,0.061035156,0.12207031,0.0,0.0,0.0,-50.542603,29.575195,-7.8771973
1766899790894,-0.4951172,-0.67626953,0.54003906,0.30517578,-0.24414062,-0.36621094,0.0,0.0,0.0,-50.542603,29.575195,-7.8771973
1766899790906,-0.4951172,-0.67626953,0.54003906,0.30517578,-0.24414062,-0.36621094,0.0,0.0,0.0,-50.59204,29.580688,-7.9156494
1766899790993,-0.49560547,-0.6748047,0.54785156,-0.12207031,-0.9765625,0.0,0.0,0.0,0.0,-50.59204,29.580688,-7.9156494
1766899791005,-0.49560547,-0.6748047,0.54785156,-0.12207031,-0.9765625,0.0,0.0,0.0,0.0,-50.564575,29.520264,-7.8936768
1766899791093,-0.484375,-0.66796875,0.54589844,-0.36621094,-1.159668,-0.061035156,0.0,0.0,0.0,-50.564575,29.520264,-7.8936768
1766899791105,-0.484375,-0.66796875,0.54589844,-0.36621094,-1.159668,-0.061035156,0.0,0.0,0.0,-50.52063,29.481812,-7.8552246
1766899791193,-0.49121094,-0.67285156,0.55029297,-0.30517578,-0.30517578,0.48828125,0.0,0.0,0.0,-50.52063,29.481812,-7.8552246
1766899791205,-0.49121094,-0.67285156,0.55029297,-0.30517578,-0.30517578,0.48828125,0.0,0.0,0.0,-50.509644,29.476318,-7.8442383
1766899791293,-0.4873047,-0.67626953,0.55029297,0.0,0.12207031,0.24414062,0.0,0.0,0.0,-50.509644,29.476318,-7.8442383
1766899791304,-0.4873047,-0.67626953,0.55029297,0.0,0.12207031,0.24414062,0.0,0.0,0.0,-50.498657,29.459839,-7.8552246
1766899791392,-0.4970703,-0.6738281,0.54589844,-0.4272461,-0.18310547,0.12207031,0.0,0.0,0.0,-50.498657,29.459839,-7.8552246
1766899791404,-0.4970703,-0.6738281,0.54589844,-0.4272461,-0.18310547,0.12207031,0.0,0.0,0.0,-50.52063,29.470825,-7.860718
1766899791492,-0.48779297,-0.68115234,0.5546875,-0.4272461,-0.061035156,0.24414062,0.0,0.0,0.0,-50.52063,29.470825,-7.860718
1766899791504,-0.48779297,-0.68115234,0.5546875,-0.4272461,-0.061035156,0.24414062,0.0,0.0,0.0,-50.515137,29.415894,-7.805786
1766899791592,-0.4873047,-0.67333984,0.5493164,0.0,-0.4272461,-0.30517578,0.0,0.0,0.0,-50.515137,29.415894,-7.805786
1766899791603,-0.4873047,-0.67333984,0.5493164,0.0,-0.4272461,-0.30517578,0.0,0.0,0.0,-50.48767,29.382935,-7.7838135
1766899791691,-0.49267578,-0.68115234,0.5527344,0.0,-0.36621094,0.12207031,0.0,0.0,0.0,-50.48767,29.382935,-7.7838135
1766899791705,-0.49267578,-0.68115234,0.5527344,0.0,-0.36621094,0.12207031,0.0,0.0,0.0,-50.493164,29.33899,-7.761841
1766899791791,-0.4897461,-0.67822266,0.5527344,-0.24414062,0.0,0.0,0.0,0.0,0.0,-50.493164,29.33899,-7.761841
1766899791803,-0.4897461,-0.67822266,0.5527344,-0.24414062,0.0,0.0,0.0,0.0,0.0,-50.460205,29.284058,-7.7233887
1766899791893,-0.48828125,-0.67578125,0.55078125,-0.24414062,0.061035156,0.18310547,0.0,0.0,0.0,-50.460205,29.284058,-7.7233887
1766899791902,-0.48828125,-0.67578125,0.55078125,-0.24414062,0.061035156,0.18310547,0.0,0.0,0.0,-50.44922,29.284058,-7.7124023
1766899791991,-0.48486328,-0.66796875,0.55859375,0.061035156,0.24414062,0.12207031,0.0,0.0,0.0,-50.44922,29.284058,-7.7124023
1766899792002,-0.48486328,-0.66796875,0.55859375,0.061035156,0.24414062,0.12207031,0.0,0.0,0.0,-50.421753,29.267578,-7.6794434
1766899792090,-0.49023438,-0.68115234,0.55126953,-0.18310547,0.36621094,-0.12207031,0.0,0.0,0.0,-50.421753,29.267578,-7.6794434
1766899792102,-0.49023438,-0.68115234,0.55126953,-0.18310547,0.36621094,-0.12207031,0.0,0.0,0.0,-50.43274,29.251099,-7.6849365
1766899792191,-0.48095703,-0.6767578,0.55322266,-0.18310547,0.12207031,0.061035156,0.0,0.0,0.0,-50.43274,29.251099,-7.6849365
1766899792201,-0.48095703,-0.6767578,0.55322266,-0.18310547,0.12207031,0.061035156,0.0,0.0,0.0,-50.443726,29.256592,-7.6794434
1766899792290,-0.48632812,-0.67333984,0.5522461,-0.12207031,0.8544922,0.0,0.0,0.0,0.0,-50.443726,29.256592,-7.6794434
1766899792301,-0.48632812,-0.67333984,0.5522461,-0.12207031,0.8544922,0.0,0.0,0.0,0.0,-50.4657,29.28955,-7.739868
1766899792390,-0.48779297,-0.68359375,0.54785156,-0.5493164,-0.36621094,0.12207031,0.0,0.0,0.0,-50.4657,29.28955,-7.739868
1766899792401,-0.48779297,-0.68359375,0.54785156,-0.5493164,-0.36621094,0.12207031,0.0,0.0,0.0,-50.531616,29.30603,-7.772827
1766899792489,-0.48876953,-0.67529297,0.55126953,-0.6713867,0.0,-0.18310547,0.0,0.0,0.0,-50.531616,29.30603,-7.772827
1766899792501,-0.48876953,-0.67529297,0.55126953,-0.6713867,0.0,-0.18310547,0.0,0.0,0.0,-50.559082,29.273071,-7.7783203
1766899792589,-0.48632812,-0.6723633,0.5473633,-1.5869141,1.2817383,-0.4272461,0.0,0.0,0.0,-50.559082,29.273071,-7.7783203
1766899792600,-0.48632812,-0.6723633,0.5473633,-1.5869141,1.2817383,-0.4272461,0.0,0.0,0.0,-50.64148,29.245605,-7.8167725
1766899792689,-0.49316406,-0.68652344,0.5463867,-1.0986328,0.8544922,0.4272461,0.0,0.0,0.0,-50.64148,29.245605,-7.8167725
1766899792700,-0.49316406,-0.68652344,0.5463867,-1.0986328,0.8544922,0.4272461,0.0,0.0,0.0,-50.83374,29.32251,-7.9101562
1766899792788,-0.49023438,-0.6796875,0.54833984,0.0,0.7324219,0.5493164,0.0,0.0,0.0,-50.83374,29.32251,-7.9101562
1766899792800,-0.49023438,-0.6796875,0.54833984,0.0,0.7324219,0.5493164,0.0,0.0,0.0,-50.861206,29.366455,-7.9266357
1766899792888,-0.4897461,-0.6791992,0.54296875,0.36621094,0.61035156,0.7324219,0.0,0.0,0.0,-50.861206,29.366455,-7.9266357
1766899792900,-0.4897461,-0.6791992,0.54296875,0.36621094,0.61035156,0.7324219,0.0,0.0,0.0,-50.861206,29.44336,-7.937622
1766899792988,-0.4951172,-0.6777344,0.5410156,0.12207031,1.2817383,0.48828125,0.0,0.0,0.0,-50.861206,29.44336,-7.937622
1766899792999,-0.4951172,-0.6777344,0.5410156,0.12207031,1.2817383,0.48828125,0.0,0.0,0.0,-50.872192,29.525757,-7.9486084
1766899793088,-0.4873047,-0.67089844,0.5385742,0.18310547,0.4272461,1.7089844,0.0,0.0,0.0,-50.872192,29.525757,-7.9486084
1766899793100,-0.4873047,-0.67089844,0.5385742,0.18310547,0.4272461,1.7089844,0.0,0.0,0.0,-50.844727,29.624634,-7.8497314
1766899793190,-0.49316406,-0.6791992,0.54003906,0.0,0.61035156,0.36621094,0.0,0.0,0.0,-50.844727,29.624634,-7.8497314
1766899793200,-0.49316406,-0.6791992,0.54003906,0.0,0.61035156,0.36621094,0.0,0.0,0.0,-50.839233,29.696045,-7.8552246
1766899793287,-0.4975586,-0.67285156,0.5415039,0.6713867,1.3427734,0.5493164,0.0,0.0,0.0,-50.839233,29.696045,-7.8552246
1766899793298,-0.4975586,-0.67285156,0.5415039,0.6713867,1.3427734,0.5493164,0.0,0.0,0.0,-50.844727,29.767456,-7.9156494
1766899793387,-0.49609375,-0.6748047,0.5444336,-0.061035156,0.0,0.24414062,0.0,0.0,0.0,-50.844727,29.767456,-7.9156494
1766899793399,-0.49609375,-0.6748047,0.5444336,-0.061035156,0.0,0.24414062,0.0,0.0,0.0,-50.795288,29.800415,-7.9211426
1766899793486,-0.49560547,-0.6743164,0.5415039,0.0,0.30517578,0.36621094,0.0,0.0,0.0,-50.795288,29.800415,-7.9211426
1766899793498,-0.49560547,-0.6743164,0.5415039,0.0,0.30517578,0.36621094,0.0,0.0,0.0,-50.77881,29.82788,-7.932129
1766899793586,-0.49609375,-0.6743164,0.5439453,0.12207031,0.30517578,0.18310547,0.0,0.0,0.0,-50.77881,29.82788,-7.932129
1766899793599,-0.49609375,-0.6743164,0.5439453,0.12207031,0.30517578,0.18310547,0.0,0.0,0.0,-50.773315,29.84436,-7.932129
1766899793686,-0.49365234,-0.6699219,0.5439453,-0.18310547,0.12207031,0.24414062,0.0,0.0,0.0,-50.773315,29.84436,-7.932129
1766899793697,-0.49365234,-0.6699219,0.5439453,-0.18310547,0.12207031,0.24414062,0.0,0.0,0.0,-50.751343,29.86084,-7.9266357
1766899793786,-0.4975586,-0.6665039,0.5463867,-0.30517578,1.5258789,-0.5493164,0.0,0.0,0.0,-50.751343,29.86084,-7.9266357
1766899793797,-0.4975586,-0.6665039,0.5463867,-0.30517578,1.5258789,-0.5493164,0.0,0.0,0.0,-50.80078,29.866333,-7.9541016
1766899793885,-0.49951172,-0.68603516,0.54003906,0.12207031,0.12207031,0.0,0.0,0.0,0.0,-50.80078,29.866333,-7.9541016
1766899793897,-0.49951172,-0.68603516,0.54003906,0.12207031,0.12207031,0.0,0.0,0.0,0.0,-50.877686,29.855347,-7.9925537
1766899793985,-0.49560547,-0.67578125,0.54052734,0.6713867,0.79345703,-0.4272461,0.0,0.0,0.0,-50.877686,29.855347,-7.9925537
1766899793996,-0.49560547,-0.67578125,0.54052734,0.6713867,0.79345703,-0.4272461,0.0,0.0,0.0,-50.88867,29.86084,-8.036499
1766899794085,-0.50341797,-0.6972656,0.55566406,3.0517578,0.6713867,-1.2207031,0.0,0.0,0.0,-50.88867,29.86084,-8.036499
1766899794099,-0.50341797,-0.6972656,0.55566406,3.0517578,0.6713867,-1.2207031,0.0,0.0,0.0,-50.855713,29.82788,-8.12439
1766899794184,-0.5058594,-0.66259766,0.54296875,2.8686523,1.6479492,0.061035156,0.0,0.0,0.0,-50.855713,29.82788,-8.12439
1766899794196,-0.5058594,-0.66259766,0.54296875,2.8686523,1.6479492,0.061035156,0.0,0.0,0.0,-50.55359,29.86084,-8.195801
1766899794285,-0.4975586,-0.6694336,0.546875,0.36621094,1.5258789,1.0375977,0.0,0.0,0.0,-50.55359,29.86084,-8.195801
1766899794296,-0.4975586,-0.6694336,0.546875,0.36621094,1.5258789,1.0375977,0.0,0.0,0.0,-50.482178,29.976196,-8.33313
1766899794386,-0.50878906,-0.6777344,0.5444336,0.12207031,0.91552734,0.24414062,0.0,0.0,0.0,-50.482178,29.976196,-8.33313
1766899794396,-0.50878906,-0.6777344,0.5444336,0.12207031,0.91552734,0.24414062,0.0,0.0,0.0,-50.48767,30.097046,-8.366089
1766899794484,-0.49365234,-0.6567383,0.5473633,0.0,-0.12207031,-0.8544922,0.0,0.0,0.0,-50.48767,30.097046,-8.366089
1766899794495,-0.49365234,-0.6567383,0.5473633,0.0,-0.12207031,-0.8544922,0.0,0.0,0.0,-50.476685,30.06958,-8.4210205
1766899794584,-0.49560547,-0.6791992,0.55078125,-0.8544922,1.5258789,1.0986328,0.0,0.0,0.0,-50.476685,30.06958,-8.4210205
1766899794595,-0.49560547,-0.6791992,0.55078125,-0.8544922,1.5258789,1.0986328,0.0,0.0,0.0,-50.531616,30.097046,-8.393555
1766899794683,-0.49902344,-0.6694336,0.5541992,0.48828125,0.061035156,0.48828125,0.0,0.0,0.0,-50.531616,30.097046,-8.393555
1766899794695,-0.49902344,-0.6694336,0.5541992,0.48828125,0.061035156,0.48828125,0.0,0.0,0.0,-50.526123,30.19043,-8.4375
1766899794783,-0.50341797,-0.6665039,0.54785156,0.48828125,-0.18310547,-0.61035156,0.0,0.0,0.0,-50.526123,30.19043,-8.4375
1766899794795,-0.50341797,-0.6665039,0.54785156,0.48828125,-0.18310547,-0.61035156,0.0,0.0,0.0,-50.44922,30.19043,-8.442993
1766899794883,-0.49951172,-0.6660156,0.5439453,0.061035156,0.24414062,0.7324219,0.0,0.0,0.0,-50.44922,30.19043,-8.442993
1766899794894,-0.49951172,-0.6660156,0.5439453,0.061035156,0.24414062,0.7324219,0.0,0.0,0.0,-50.39978,30.179443,-8.442993
1766899794982,-0.50439453,-0.67089844,0.54785156,-0.12207031,0.30517578,0.24414062,0.0,0.0,0.0,-50.39978,30.179443,-8.442993
1766899794994,-0.50439453,-0.67089844,0.54785156,-0.12207031,0.30517578,0.24414062,0.0,0.0,0.0,-50.39978,30.239868,-8.442993
1766899795082,-0.50097656,-0.66552734,0.54541016,0.061035156,0.48828125,0.12207031,0.0,0.0,0.0,-50.39978,30.239868,-8.442993
1766899795093,-0.50097656,-0.66552734,0.54541016,0.061035156,0.48828125,0.12207031,0.0,0.0,0.0,-50.3833,30.250854,-8.464966
1766899795182,-0.5053711,-0.6694336,0.5463867,-0.36621094,0.0,0.0,0.0,0.0,0.0,-50.3833,30.250854,-8.464966
1766899795195,-0.5053711,-0.6694336,0.5463867,-0.36621094,0.0,0.0,0.0,0.0,0.0,-50.39978,30.272827,-8.497925
1766899795282,-0.5029297,-0.671875,0.5551758,0.12207031,-0.12207031,-0.24414062,0.0,0.0,0.0,-50.39978,30.272827,-8.497925
1766899795293,-0.5029297,-0.671875,0.5551758,0.12207031,-0.12207031,-0.24414062,0.0,0.0,0.0,-50.410767,30.26184,-8.514404
1766899795381,-0.49365234,-0.6772461,0.53759766,0.91552734,-4.0283203,-2.380371,0.0,0.0,0.0,-50.410767,30.26184,-8.514404
1766899795393,-0.49365234,-0.6772461,0.53759766,0.91552734,-4.0283203,-2.380371,0.0,0.0,0.0,-50.289917,29.98169,-8.360596
1766899795481,-0.4868164,-0.6508789,0.5527344,0.91552734,-1.7700195,-2.8076172,0.0,0.0,0.0,-50.289917,29.98169,-8.360596
1766899795493,-0.4868164,-0.6508789,0.5527344,0.91552734,-1.7700195,-2.8076172,0.0,0.0,0.0,-50.15808,29.553223,-8.283691
1766899795581,-0.46044922,-0.6582031,0.54833984,-0.4272461,-1.4038086,-0.9765625,0.0,0.0,0.0,-50.15808,29.553223,-8.283691
1766899795592,-0.46044922,-0.6582031,0.54833984,-0.4272461,-1.4038086,-0.9765625,0.0,0.0,0.0,-50.059204,29.382935,-8.206787
1766899795681,-0.4736328,-0.6308594,0.5292969,-2.319336,3.479004,-0.24414062,0.0,0.0,0.0,-50.059204,29.382935,-8.206787
1766899795692,-0.4736328,-0.6308594,0.5292969,-2.319336,3.479004,-0.24414062,0.0,0.0,0.0,-50.229492,29.42688,-8.371582
1766899795780,-0.49951172,-0.6953125,0.55566406,-3.540039,3.0517578,3.4179688,0.0,0.0,0.0,-50.229492,29.42688,-8.371582
1766899795792,-0.49951172,-0.6953125,0.55566406,-3.540039,3.0517578,3.4179688,0.0,0.0,0.0,-50.80078,29.833374,-8.684692
1766899795880,-0.50390625,-0.6826172,0.5263672,-0.79345703,-1.3427734,-2.4414062,0.0,0.0,0.0,-50.80078,29.833374,-8.684692
1766899795891,-0.50390625,-0.6826172,0.5263672,-0.79345703,-1.3427734,-2.4414062,0.0,0.0,0.0,-50.89966,29.767456,-8.640747
1766899795980,-0.48583984,-0.66748047,0.54589844,0.6713867,-0.8544922,-0.4272461,0.0,0.0,0.0,-50.89966,29.767456,-8.640747
1766899795991,-0.48583984,-0.66748047,0.54589844,0.6713867,-0.8544922,-0.4272461,0.0,0.0,0.0,-50.855713,29.586182,-8.684692
1766899796079,-0.49169922,-0.6801758,0.53759766,-0.61035156,-0.9765625,-0.30517578,0.0,0.0,0.0,-50.855713,29.586182,-8.684692
1766899796093,-0.49169922,-0.6801758,0.53759766,-0.61035156,-0.9765625,-0.30517578,0.0,0.0,0.0,-50.861206,29.503784,-8.585815
1766899796179,-0.48632812,-0.6777344,0.5493164,0.061035156,-1.5869141,0.0,0.0,0.0,0.0,-50.861206,29.503784,-8.585815
1766899796190,-0.48632812,-0.6777344,0.5493164,0.061035156,-1.5869141,0.0,0.0,0.0,0.0,-50.81726,29.377441,-8.4539795
1766899796279,-0.48486328,-0.67529297,0.54589844,-0.12207031,0.7324219,-0.12207031,0.0,0.0,0.0,-50.81726,29.377441,-8.4539795
1766899796293,-0.48486328,-0.67529297,0.54589844,-0.12207031,0.7324219,-0.12207031,0.0,0.0,0.0,-50.822754,29.355469,-8.459473
1766899796378,-0.4946289,-0.67822266,0.5361328,-0.6713867,-0.61035156,-0.48828125,0.0,0.0,0.0,-50.822754,29.355469,-8.459473
1766899796390,-0.4946289,-0.67822266,0.5361328,-0.6713867,-0.61035156,-0.48828125,0.0,0.0,0.0,-50.877686,29.300537,-8.492432
1766899796478,-0.47802734,-0.6772461,0.54541016,-0.30517578,-1.2817383,0.18310547,0.0,0.0,0.0,-50.877686,29.300537,-8.492432
1766899796493,-0.47802734,-0.6772461,0.54541016,-0.30517578,-1.2817383,0.18310547,0.0,0.0,0.0,-50.844727,29.251099,-8.415527
1766899796578,-0.48535156,-0.67871094,0.546875,-0.36621094,-1.159668,0.0,0.0,0.0,0.0,-50.844727,29.251099,-8.415527
1766899796589,-0.48535156,-0.67871094,0.546875,-0.36621094,-1.159668,0.0,0.0,0.0,0.0,-50.811768,29.196167,-8.366089
1766899796678,-0.48242188,-0.67529297,0.54589844,-0.79345703,0.9765625,0.061035156,0.0,0.0,0.0,-50.811768,29.196167,-8.366089
1766899796689,-0.48242188,-0.67529297,0.54589844,-0.79345703,0.9765625,0.061035156,0.0,0.0,0.0,-50.839233,29.168701,-8.366089
1766899796778,-0.4868164,-0.6796875,0.54589844,-1.0375977,-0.30517578,0.8544922,0.0,0.0,0.0,-50.839233,29.168701,-8.366089
1766899796789,-0.4868164,-0.6796875,0.54589844,-1.0375977,-0.30517578,0.8544922,0.0,0.0,0.0,-50.88867,29.21814,-8.355103
1766899796877,-0.49267578,-0.68408203,0.53808594,-0.36621094,-1.159668,0.30517578,0.0,0.0,0.0,-50.88867,29.21814,-8.355103
1766899796889,-0.49267578,-0.68408203,0.53808594,-0.36621094,-1.159668,0.30517578,0.0,0.0,0.0,-50.861206,29.190674,-8.239746
1766899796977,-0.4873047,-0.68115234,0.55029297,0.7324219,-0.24414062,1.159668,0.0,0.0,0.0,-50.861206,29.190674,-8.239746
1766899796988,-0.4873047,-0.68115234,0.55029297,0.7324219,-0.24414062,1.159668,0.0,0.0,0.0,-50.85022,29.223633,-8.157349
1766899797076,-0.4873047,-0.6743164,0.5410156,-0.12207031,1.159668,2.319336,0.0,0.0,0.0,-50.85022,29.223633,-8.157349
1766899797088,-0.4873047,-0.6743164,0.5410156,-0.12207031,1.159668,2.319336,0.0,0.0,0.0,-50.795288,29.360962,-8.10791
1766899797176,-0.48535156,-0.6791992,0.55371094,0.12207031,0.61035156,1.0986328,0.0,0.0,0.0,-50.795288,29.360962,-8.10791
1766899797188,-0.48535156,-0.6791992,0.55371094,0.12207031,0.61035156,1.0986328,0.0,0.0,0.0,-50.789795,29.525757,-8.041992
1766899797276,-0.48632812,-0.67626953,0.54296875,0.5493164,-0.61035156,0.36621094,0.0,0.0,0.0,-50.789795,29.525757,-8.041992
1766899797287,-0.48632812,-0.67626953,0.54296875,0.5493164,-0.61035156,0.36621094,0.0,0.0,0.0,-50.707397,29.520264,-7.970581
1766899797376,-0.4946289,-0.67871094,0.55322266,0.91552734,0.24414062,-0.061035156,0.0,0.0,0.0,-50.707397,29.520264,-7.970581
1766899797388,-0.4946289,-0.67871094,0.55322266,0.91552734,0.24414062,-0.061035156,0.0,0.0,0.0,-50.685425,29.503784,-7.9266357
1766899797476,-0.4897461,-0.67578125,0.54541016,0.4272461,0.5493164,-0.30517578,0.0,0.0,0.0,-50.685425,29.503784,-7.9266357
1766899797487,-0.4897461,-0.67578125,0.54541016,0.4272461,0.5493164,-0.30517578,0.0,0.0,0.0,-50.603027,29.432373,-7.8881836
1766899797575,-0.49072266,-0.6777344,0.55029297,0.061035156,0.7324219,-0.12207031,0.0,0.0,0.0,-50.603027,29.432373,-7.8881836
1766899797587,-0.49072266,-0.6777344,0.55029297,0.061035156,0.7324219,-0.12207031,0.0,0.0,0.0,-50.625,29.432373,-7.932129
1766899797675,-0.48632812,-0.6743164,0.5493164,0.12207031,0.5493164,-0.12207031,0.0,0.0,0.0,-50.625,29.432373,-7.932129
1766899797686,-0.48632812,-0.6743164,0.5493164,0.12207031,0.5493164,-0.12207031,0.0,0.0,0.0,-50.630493,29.44336,-7.9870605
1766899797774,-0.5004883,-0.6850586,0.55126953,0.0,0.18310547,-0.4272461,0.0,0.0,0.0,-50.630493,29.44336,-7.9870605
1766899797786,-0.5004883,-0.6850586,0.55126953,0.0,0.18310547,-0.4272461,0.0,0.0,0.0,-50.635986,29.415894,-8.031006
1766899797874,-0.48535156,-0.6694336,0.5522461,0.061035156,0.48828125,-0.24414062,0.0,0.0,0.0,-50.635986,29.415894,-8.031006
1766899797885,-0.48535156,-0.6694336,0.5522461,0.061035156,0.48828125,-0.24414062,0.0,0.0,0.0,-50.581055,29.4104,-8.02002
1766899797974,-0.4921875,-0.67822266,0.54541016,-0.36621094,0.36621094,-0.12207031,0.0,0.0,0.0,-50.581055,29.4104,-8.02002
1766899797985,-0.4921875,-0.67822266,0.54541016,-0.36621094,0.36621094,-0.12207031,0.0,0.0,0.0,-50.597534,29.4104,-8.047485
1766899798073,-0.49169922,-0.6791992,0.55322266,-0.48828125,-0.061035156,-0.061035156,0.0,0.0,0.0,-50.597534,29.4104,-8.047485
1766899798085,-0.49169922,-0.6791992,0.55322266,-0.48828125,-0.061035156,-0.061035156,0.0,0.0,0.0,-50.635986,29.360962,-8.0859375
1766899798173,-0.48828125,-0.6777344,0.5488281,-0.6713867,0.30517578,-0.30517578,0.0,0.0,0.0,-50.635986,29.360962,-8.0859375
1766899798185,-0.48828125,-0.6777344,0.5488281,-0.6713867,0.30517578,-0.30517578,0.0,0.0,0.0,-50.668945,29.32251,-8.113403
1766899798273,-0.49072266,-0.67578125,0.5517578,0.061035156,0.8544922,0.30517578,0.0,0.0,0.0,-50.668945,29.32251,-8.113403
1766899798285,-0.49072266,-0.67578125,0.5517578,0.061035156,0.8544922,0.30517578,0.0,0.0,0.0,-50.67993,29.30603,-8.096924
1766899798373,-0.48535156,-0.6772461,0.5463867,0.4272461,0.24414062,0.18310547,0.0,0.0,0.0,-50.67993,29.30603,-8.096924
1766899798384,-0.48535156,-0.6772461,0.5463867,0.4272461,0.24414062,0.18310547,0.0,0.0,0.0,-50.635986,29.262085,-8.041992
1766899798472,-0.4868164,-0.67578125,0.55078125,-0.36621094,1.5869141,0.061035156,0.0,0.0,0.0,-50.635986,29.262085,-8.041992
1766899798484,-0.4868164,-0.67578125,0.55078125,-0.36621094,1.5869141,0.061035156,0.0,0.0,0.0,-50.685425,29.328003,-8.074951
1766899798572,-0.4892578,-0.6801758,0.54833984,0.12207031,0.18310547,0.0,0.0,0.0,0.0,-50.685425,29.328003,-8.074951
1766899798584,-0.4892578,-0.6801758,0.54833984,0.12207031,0.18310547,0.0,0.0,0.0,0.0,-50.751343,29.360962,-8.157349
1766899798673,-0.4868164,-0.6870117,0.5517578,-1.3427734,0.48828125,-0.79345703,0.0,0.0,0.0,-50.751343,29.360962,-8.157349
1766899798684,-0.4868164,-0.6870117,0.5517578,-1.3427734,0.48828125,-0.79345703,0.0,0.0,0.0,-50.7843,29.344482,-8.168335
1766899798772,-0.40283203,-0.60302734,0.45751953,-22.277832,16.662598,-4.4555664,0.0,0.0,0.0,-50.7843,29.344482,-8.168335
1766899798783,-0.40283203,-0.60302734,0.45751953,-22.277832,16.662598,-4.4555664,0.0,0.0,0.0,-52.009277,29.437866,-8.959351
1766899798873,-0.57714844,-0.76220703,0.52490234,-12.207031,3.2348633,-1.3427734,0.0,0.0,0.0,-52.009277,29.437866,-8.959351
1766899798883,-0.57714844,-0.76220703,0.52490234,-12.207031,3.2348633,-1.3427734,0.0,0.0,0.0,-54.365845,29.712524,-9.926147
1766899798971,-0.52685547,-0.77441406,0.49951172,1.2207031,-4.4555664,-2.6855469,0.0,0.0,0.0,-54.365845,29.712524,-9.926147
1766899798982,-0.52685547,-0.77441406,0.49951172,1.2207031,-4.4555664,-2.6855469,0.0,0.0,0.0,-54.970093,29.77295,-10.096436
1766899799071,-0.44189453,-0.6694336,0.50683594,-2.4414062,0.6713867,-0.5493164,0.0,0.0,0.0,-54.970093,29.77295,-10.096436
1766899799082,-0.44189453,-0.6694336,0.50683594,-2.4414062,0.6713867,-0.5493164,0.0,0.0,0.0,-54.656982,29.487305,-10.019531
1766899799171,-0.5073242,-0.6586914,0.4921875,0.91552734,2.6245117,3.8452148,0.0,0.0,0.0,-54.656982,29.487305,-10.019531
1766899799182,-0.5073242,-0.6586914,0.4921875,0.91552734,2.6245117,3.8452148,0.0,0.0,0.0,-54.58557,29.690552,-10.15686
1766899799270,-0.48095703,-0.71777344,0.45410156,-6.225586,4.0893555,-3.0517578,0.0,0.0,0.0,-54.58557,29.690552,-10.15686
1766899799281,-0.48095703,-0.71777344,0.45410156,-6.225586,4.0893555,-3.0517578,0.0,0.0,0.0,-54.766846,29.608154,-10.1623535
1766899799370,-0.54052734,-0.74560547,0.5053711,-0.5493164,2.1362305,0.24414062,0.0,0.0,0.0,-54.766846,29.608154,-10.1623535
1766899799381,-0.54052734,-0.74560547,0.5053711,-0.5493164,2.1362305,0.24414062,0.0,0.0,0.0,-55.46997,29.580688,-10.585327
1766899799470,-0.4975586,-0.7373047,0.4970703,5.004883,-7.3242188,0.12207031,0.0,0.0,0.0,-55.46997,29.580688,-10.585327
1766899799481,-0.4975586,-0.7373047,0.4970703,5.004883,-7.3242188,0.12207031,0.0,0.0,0.0,-55.255737,29.613647,-10.497437
1766899799569,-0.4892578,-0.71875,0.5058594,-1.159668,2.6855469,2.6855469,0.0,0.0,0.0,-55.255737,29.613647,-10.497437
1766899799582,-0.4892578,-0.71875,0.5058594,-1.159668,2.6855469,2.6855469,0.0,0.0,0.0,-54.937134,29.536743,-10.415039
1766899799669,-0.51953125,-0.7163086,0.4970703,-6.286621,-0.24414062,2.0751953,0.0,0.0,0.0,-54.937134,29.536743,-10.415039
1766899799681,-0.51953125,-0.7163086,0.4970703,-6.286621,-0.24414062,2.0751953,0.0,0.0,0.0,-55.442505,29.816895,-10.426025
1766899799769,-0.50146484,-0.74902344,0.47070312,-1.0375977,-2.0141602,0.6713867,0.0,0.0,0.0,-55.442505,29.816895,-10.426025
1766899799780,-0.50146484,-0.74902344,0.47070312,-1.0375977,-2.0141602,0.6713867,0.0,0.0,0.0,-55.788574,29.888306,-10.338135
1766899799868,-0.48779297,-0.7265625,0.4716797,3.9672852,-1.159668,0.30517578,0.0,0.0,0.0,-55.788574,29.888306,-10.338135
1766899799880,-0.48779297,-0.7265625,0.4716797,3.9672852,-1.159668,0.30517578,0.0,0.0,0.0,-55.524902,29.811401,-10.140381
1766899799968,-0.4873047,-0.7211914,0.49169922,4.333496,-3.540039,0.24414062,0.0,0.0,0.0,-55.524902,29.811401,-10.140381
1766899799980,-0.4873047,-0.7211914,0.49169922,4.333496,-3.540039,0.24414062,0.0,0.0,0.0,-55.046997,29.690552,-9.898682
1766899800068,-0.48095703,-0.68359375,0.49951172,2.2583008,-0.18310547,-0.18310547,0.0,0.0,0.0,-55.046997,29.690552,-9.898682
1766899800080,-0.48095703,-0.68359375,0.49951172,2.2583008,-0.18310547,-0.18310547,0.0,0.0,0.0,-54.60205,29.509277,-9.580078
1766899800168,-0.4975586,-0.7128906,0.49072266,0.48828125,0.7324219,-0.12207031,0.0,0.0,0.0,-54.60205,29.509277,-9.580078
1766899800179,-0.4975586,-0.7128906,0.49072266,0.48828125,0.7324219,-0.12207031,0.0,0.0,0.0,-54.552612,29.487305,-9.678955
1766899800267,-0.48291016,-0.71191406,0.49853516,1.2207031,0.0,-0.18310547,0.0,0.0,0.0,-54.552612,29.487305,-9.678955
1766899800280,-0.48291016,-0.71191406,0.49853516,1.2207031,0.0,-0.18310547,0.0,0.0,0.0,-54.475708,29.503784,-9.733887
1766899800367,-0.4819336,-0.69628906,0.5029297,0.6713867,0.0,0.36621094,0.0,0.0,0.0,-54.475708,29.503784,-9.733887
1766899800379,-0.4819336,-0.69628906,0.5029297,0.6713867,0.0,0.36621094,0.0,0.0,0.0,-54.299927,29.520264,-9.706421
1766899800467,-0.48632812,-0.7104492,0.49560547,-0.36621094,-0.12207031,0.0,0.0,0.0,0.0,-54.299927,29.520264,-9.706421
1766899800478,-0.48632812,-0.7104492,0.49560547,-0.36621094,-0.12207031,0.0,0.0,0.0,0.0,-54.33838,29.51477,-9.706421
1766899800567,-0.4921875,-0.7163086,0.5126953,-0.36621094,-0.91552734,-0.7324219,0.0,0.0,0.0,-54.33838,29.51477,-9.706421
1766899800578,-0.4921875,-0.7163086,0.5126953,-0.36621094,-0.91552734,-0.7324219,0.0,0.0,0.0,-54.327393,29.454346,-9.678955
1766899800666,-0.48535156,-0.7060547,0.5058594,-0.30517578,0.48828125,0.0,0.0,0.0,0.0,-54.327393,29.454346,-9.678955
1766899800678,-0.48535156,-0.7060547,0.5058594,-0.30517578,0.48828125,0.0,0.0,0.0,0.0,-54.30542,29.459839,-9.684448
1766899800766,-0.49267578,-0.7128906,0.5048828,0.7324219,0.061035156,0.30517578,0.0,0.0,0.0,-54.30542,29.459839,-9.684448
1766899800777,-0.49267578,-0.7128906,0.5048828,0.7324219,0.061035156,0.30517578,0.0,0.0,0.0,-54.266968,29.476318,-9.695435
1766899800867,-0.49169922,-0.70751953,0.50341797,-0.48828125,0.7324219,-0.061035156,0.0,0.0,0.0,-54.266968,29.476318,-9.695435
1766899800877,-0.49169922,-0.70751953,0.50341797,-0.48828125,0.7324219,-0.061035156,0.0,0.0,0.0,-54.27246,29.476318,-9.728394
1766899800965,-0.49609375,-0.70996094,0.49658203,-0.48828125,-0.61035156,-0.7324219,0.0,0.0,0.0,-54.27246,29.476318,-9.728394
1766899800980,-0.49609375,-0.70996094,0.49658203,-0.48828125,-0.61035156,-0.7324219,0.0,0.0,0.0,-54.349365,29.432373,-9.750366
1766899801065,-0.48632812,-0.7104492,0.5004883,-0.5493164,-0.61035156,-0.91552734,0.0,0.0,0.0,-54.349365,29.432373,-9.750366
1766899801076,-0.48632812,-0.7104492,0.5004883,-0.5493164,-0.61035156,-0.91552734,0.0,0.0,0.0,-54.398804,29.295044,-9.73938
1766899801165,-0.48486328,-0.7158203,0.5019531,0.12207031,-0.4272461,-0.18310547,0.0,0.0,0.0,-54.398804,29.295044,-9.73938
1766899801176,-0.48486328,-0.7158203,0.5019531,0.12207031,-0.4272461,-0.18310547,0.0,0.0,0.0,-54.420776,29.20166,-9.7229
1766899801265,-0.48583984,-0.70996094,0.5019531,0.061035156,-0.36621094,0.0,0.0,0.0,0.0,-54.420776,29.20166,-9.7229
1766899801276,-0.48583984,-0.70996094,0.5019531,0.061035156,-0.36621094,0.0,0.0,0.0,0.0,-54.382324,29.163208,-9.684448
1766899801364,-0.48583984,-0.7133789,0.50439453,0.36621094,0.061035156,0.0,0.0,0.0,0.0,-54.382324,29.163208,-9.684448
1766899801376,-0.48583984,-0.7133789,0.50439453,0.36621094,0.061035156,0.0,0.0,0.0,0.0,-54.36035,29.135742,-9.678955
1766899801464,-0.4868164,-0.71484375,0.50097656,0.4272461,0.30517578,0.061035156,0.0,0.0,0.0,-54.36035,29.135742,-9.678955
1766899801476,-0.4868164,-0.71484375,0.50097656,0.4272461,0.30517578,0.061035156,0.0,0.0,0.0,-54.327393,29.119263,-9.684448
1766899801564,-0.48339844,-0.71191406,0.5058594,-0.12207031,0.6713867,-0.061035156,0.0,0.0,0.0,-54.327393,29.119263,-9.684448
1766899801575,-0.48339844,-0.71191406,0.5058594,-0.12207031,0.6713867,-0.061035156,0.0,0.0,0.0,-54.332886,29.124756,-9.711914
1766899801663,-0.48583984,-0.71435547,0.50390625,-0.12207031,0.4272461,0.0,0.0,0.0,0.0,-54.332886,29.124756,-9.711914
1766899801675,-0.48583984,-0.71435547,0.50390625,-0.12207031,0.4272461,0.0,0.0,0.0,0.0,-54.365845,29.141235,-9.755859
1766899801763,-0.4873047,-0.71191406,0.50146484,-0.18310547,-0.061035156,0.0,0.0,0.0,0.0,-54.365845,29.141235,-9.755859
1766899801775,-0.4873047,-0.71191406,0.50146484,-0.18310547,-0.061035156,0.0,0.0,0.0,0.0,-54.36035,29.130249,-9.777832
1766899801863,-0.48242188,-0.7089844,0.5053711,-0.7324219,-2.1362305,0.0,0.0,0.0,0.0,-54.36035,29.130249,-9.777832
1766899801874,-0.48242188,-0.7089844,0.5053711,-0.7324219,-2.1362305,0.0,0.0,0.0,0.0,-54.3219,29.075317,-9.711914
1766899801963,-0.47509766,-0.70703125,0.5029297,-0.36621094,-2.1362305,0.0,0.0,0.0,0.0,-54.3219,29.075317,-9.711914
1766899801975,-0.47509766,-0.70703125,0.5029297,-0.36621094,-2.1362305,0.0,0.0,0.0,0.0,-54.277954,28.97644,-9.580078
1766899802062,-0.47998047,-0.70751953,0.5053711,-0.30517578,0.7324219,0.36621094,0.0,0.0,0.0,-54.277954,28.97644,-9.580078
1766899802074,-0.47998047,-0.70751953,0.5053711,-0.30517578,0.7324219,0.36621094,0.0,0.0,0.0,-54.283447,28.932495,-9.541626
1766899802162,-0.48632812,-0.7128906,0.50341797,-1.0986328,0.18310547,-1.0375977,0.0,0.0,0.0,-54.283447,28.932495,-9.541626
1766899802174,-0.48632812,-0.7128906,0.50341797,-1.0986328,0.18310547,-1.0375977,0.0,0.0,0.0,-54.371338,28.943481,-9.63501
1766899802262,-0.47216797,-0.71435547,0.50097656,0.12207031,-0.79345703,-0.30517578,0.0,0.0,0.0,-54.371338,28.943481,-9.63501
1766899802273,-0.47216797,-0.71435547,0.50097656,0.12207031,-0.79345703,-0.30517578,0.0,0.0,0.0,-54.40979,28.850098,-9.645996
1766899802361,-0.4765625,-0.70947266,0.5053711,0.0,1.6479492,-0.8544922,0.0,0.0,0.0,-54.40979,28.850098,-9.645996
1766899802373,-0.4765625,-0.70947266,0.5053711,0.0,1.6479492,-0.8544922,0.0,0.0,0.0,-54.448242,28.811646,-9.733887
1766899802461,-0.4765625,-0.71484375,0.5004883,-1.7700195,1.2817383,-2.4414062,0.0,0.0,0.0,-54.448242,28.811646,-9.733887
1766899802473,-0.4765625,-0.71484375,0.5004883,-1.7700195,1.2817383,-2.4414062,0.0,0.0,0.0,-54.711914,28.740234,-10.008545
1766899802561,-0.47705078,-0.72216797,0.49853516,-3.7231445,0.7324219,-2.5024414,0.0,0.0,0.0,-54.711914,28.740234,-10.008545
1766899802572,-0.47705078,-0.72216797,0.49853516,-3.7231445,0.7324219,-2.5024414,0.0,0.0,0.0,-55.096436,28.591919,-10.283203
1766899802661,-0.46923828,-0.72753906,0.4873047,-4.3945312,-1.0375977,-2.5024414,0.0,0.0,0.0,-55.096436,28.591919,-10.283203
1766899802672,-0.46923828,-0.72753906,0.4873047,-4.3945312,-1.0375977,-2.5024414,0.0,0.0,0.0,-55.508423,28.35022,-10.437012
1766899802761,-0.46435547,-0.73583984,0.48583984,-3.6010742,-0.36621094,-1.953125,0.0,0.0,0.0,-55.508423,28.35022,-10.437012
1766899802772,-0.46435547,-0.73583984,0.48583984,-3.6010742,-0.36621094,-1.953125,0.0,0.0,0.0,-55.925903,28.14148,-10.5633545
1766899802860,-0.4633789,-0.73583984,0.4814453,-4.5776367,0.24414062,-1.0375977,0.0,0.0,0.0,-55.925903,28.14148,-10.5633545
1766899802872,-0.4633789,-0.73583984,0.4814453,-4.5776367,0.24414062,-1.0375977,0.0,0.0,0.0,-56.35437,28.015137,-10.678711
1766899802960,-0.46972656,-0.74853516,0.47216797,-2.4414062,1.2207031,-0.18310547,0.0,0.0,0.0,-56.35437,28.015137,-10.678711
1766899802974,-0.46972656,-0.74853516,0.47216797,-2.4414062,1.2207031,-0.18310547,0.0,0.0,0.0,-56.75537,27.971191,-10.805054
1766899803059,-0.46240234,-0.7451172,0.47460938,-1.3427734,0.4272461,0.0,0.0,0.0,0.0,-56.75537,27.971191,-10.805054
1766899803071,-0.46240234,-0.7451172,0.47460938,-1.3427734,0.4272461,0.0,0.0,0.0,0.0,-56.95862,27.993164,-10.903931
1766899803160,-0.46484375,-0.74609375,0.47607422,-0.24414062,0.4272461,0.61035156,0.0,0.0,0.0,-56.95862,27.993164,-10.903931
1766899803172,-0.46484375,-0.74609375,0.47607422,-0.24414062,0.4272461,0.61035156,0.0,0.0,0.0,-57.035522,28.02063,-10.9313965
1766899803261,-0.46777344,-0.7470703,0.47314453,-0.18310547,0.48828125,0.9765625,0.0,0.0,0.0,-57.035522,28.02063,-10.9313965
1766899803270,-0.46777344,-0.7470703,0.47314453,-0.18310547,0.48828125,0.9765625,0.0,0.0,0.0,-57.057495,28.103027,-10.997314
1766899803359,-0.46972656,-0.74121094,0.47216797,-0.24414062,0.8544922,0.79345703,0.0,0.0,0.0,-57.057495,28.103027,-10.997314
1766899803370,-0.46972656,-0.74121094,0.47216797,-0.24414062,0.8544922,0.79345703,0.0,0.0,0.0,-57.090454,28.190918,-11.035767
1766899803458,-0.46777344,-0.7446289,0.4716797,-0.4272461,0.61035156,0.36621094,0.0,0.0,0.0,-57.090454,28.190918,-11.035767
1766899803470,-0.46777344,-0.7446289,0.4716797,-0.4272461,0.61035156,0.36621094,0.0,0.0,0.0,-57.139893,28.240356,-11.052246
1766899803558,-0.4663086,-0.7373047,0.47460938,-0.48828125,0.5493164,0.18310547,0.0,0.0,0.0,-57.139893,28.240356,-11.052246
1766899803570,-0.4663086,-0.7373047,0.47460938,-0.48828125,0.5493164,0.18310547,0.0,0.0,0.0,-57.20581,28.289795,-11.085205
1766899803658,-0.47607422,-0.75,0.4711914,-0.7324219,-0.48828125,0.30517578,0.0,0.0,0.0,-57.20581,28.289795,-11.085205
1766899803669,-0.47607422,-0.75,0.4711914,-0.7324219,-0.48828125,0.30517578,0.0,0.0,0.0,-57.282715,28.295288,-11.112671
1766899803758,-0.46777344,-0.74365234,0.46875,-0.24414062,0.0,0.12207031,0.0,0.0,0.0,-57.282715,28.295288,-11.112671
1766899803769,-0.46777344,-0.74365234,0.46875,-0.24414062,0.0,0.12207031,0.0,0.0,0.0,-57.315674,28.273315,-11.085205
1766899803857,-0.4711914,-0.74560547,0.4716797,0.12207031,0.4272461,0.61035156,0.0,0.0,0.0,-57.315674,28.273315,-11.085205
1766899803869,-0.4711914,-0.74560547,0.4716797,0.12207031,0.4272461,0.61035156,0.0,0.0,0.0,-57.288208,28.278809,-11.057739
1766899803957,-0.47021484,-0.74121094,0.47021484,0.8544922,0.4272461,0.18310547,0.0,0.0,0.0,-57.288208,28.278809,-11.057739
1766899803969,-0.47021484,-0.74121094,0.47021484,0.8544922,0.4272461,0.18310547,0.0,0.0,0.0,-57.227783,28.322754,-11.063232
1766899804057,-0.47558594,-0.74121094,0.46923828,0.12207031,-0.18310547,0.061035156,0.0,0.0,0.0,-57.227783,28.322754,-11.063232
1766899804069,-0.47558594,-0.74121094,0.46923828,0.12207031,-0.18310547,0.061035156,0.0,0.0,0.0,-57.18933,28.322754,-11.079712
1766899804156,-0.46923828,-0.74121094,0.4736328,0.0,0.18310547,0.061035156,0.0,0.0,0.0,-57.18933,28.322754,-11.079712
1766899804168,-0.46923828,-0.74121094,0.4736328,0.0,0.18310547,0.061035156,0.0,0.0,0.0,-57.178345,28.306274,-11.079712
1766899804256,-0.47216797,-0.7421875,0.4711914,0.0,0.24414062,0.0,0.0,0.0,0.0,-57.178345,28.306274,-11.079712
1766899804269,-0.47216797,-0.7421875,0.4711914,0.0,0.24414062,0.0,0.0,0.0,0.0,-57.17285,28.295288,-11.085205
1766899804356,-0.46972656,-0.74316406,0.47558594,0.18310547,0.6713867,-0.30517578,0.0,0.0,0.0,-57.17285,28.295288,-11.085205
1766899804367,-0.46972656,-0.74316406,0.47558594,0.18310547,0.6713867,-0.30517578,0.0,0.0,0.0,-57.183838,28.295288,-11.101685
1766899804456,-0.47509766,-0.7451172,0.47021484,0.24414062,0.5493164,0.4272461,0.0,0.0,0.0,-57.183838,28.295288,-11.101685
1766899804467,-0.47509766,-0.7451172,0.47021484,0.24414062,0.5493164,0.4272461,0.0,0.0,0.0,-57.18933,28.289795,-11.101685
1766899804555,-0.4736328,-0.74658203,0.4736328,0.12207031,0.30517578,-0.061035156,0.0,0.0,0.0,-57.18933,28.289795,-11.101685
1766899804567,-0.4736328,-0.74658203,0.4736328,0.12207031,0.30517578,-0.061035156,0.0,0.0,0.0,-57.200317,28.289795,-11.096191
1766899804655,-0.47021484,-0.7392578,0.4765625,-0.12207031,0.79345703,0.0,0.0,0.0,0.0,-57.200317,28.289795,-11.096191
1766899804667,-0.47021484,-0.7392578,0.4765625,-0.12207031,0.79345703,0.0,0.0,0.0,0.0,-57.200317,28.295288,-11.123657
1766899804755,-0.4736328,-0.74609375,0.46923828,0.12207031,0.61035156,0.0,0.0,0.0,0.0,-57.200317,28.295288,-11.123657
1766899804766,-0.4736328,-0.74609375,0.46923828,0.12207031,0.61035156,0.0,0.0,0.0,0.0,-57.211304,28.300781,-11.162109
1766899804855,-0.47558594,-0.7397461,0.47070312,0.24414062,0.36621094,0.18310547,0.0,0.0,0.0,-57.211304,28.300781,-11.162109
1766899804866,-0.47558594,-0.7397461,0.47070312,0.24414062,0.36621094,0.18310547,0.0,0.0,0.0,-57.211304,28.322754,-11.206055
1766899804954,-0.47021484,-0.7441406,0.4711914,0.0,0.18310547,0.18310547,0.0,0.0,0.0,-57.211304,28.322754,-11.206055
1766899804966,-0.47021484,-0.7441406,0.4711914,0.0,0.18310547,0.18310547,0.0,0.0,0.0,-57.20581,28.328247,-11.200562
1766899805054,-0.4741211,-0.74365234,0.47216797,-0.061035156,0.061035156,0.061035156,0.0,0.0,0.0,-57.20581,28.328247,-11.200562
1766899805065,-0.4741211,-0.74365234,0.47216797,-0.061035156,0.061035156,0.061035156,0.0,0.0,0.0,-57.22229,28.328247,-11.206055
1766899805154,-0.47265625,-0.7451172,0.4663086,-0.4272461,-0.61035156,0.24414062,0.0,0.0,0.0,-57.22229,28.328247,-11.206055
1766899805168,-0.47265625,-0.7451172,0.4663086,-0.4272461,-0.61035156,0.24414062,0.0,0.0,0.0,-57.22229,28.31726,-11.206055
1766899805254,-0.4736328,-0.74072266,0.47265625,-0.48828125,-0.91552734,-0.061035156,0.0,0.0,0.0,-57.22229,28.31726,-11.206055
1766899805265,-0.4736328,-0.74072266,0.47265625,-0.48828125,-0.91552734,-0.061035156,0.0,0.0,0.0,-57.20581,28.289795,-11.189575
1766899805353,-0.46728516,-0.7451172,0.47558594,0.0,-0.18310547,0.0,0.0,0.0,0.0,-57.20581,28.289795,-11.189575
1766899805364,-0.46728516,-0.7451172,0.47558594,0.0,-0.18310547,0.0,0.0,0.0,0.0,-57.183838,28.267822,-11.178589
1766899805453,-0.4716797,-0.7426758,0.4736328,0.0,0.4272461,0.0,0.0,0.0,0.0,-57.183838,28.267822,-11.178589
1766899805465,-0.4716797,-0.7426758,0.4736328,0.0,0.4272461,0.0,0.0,0.0,0.0,-57.178345,28.256836,-11.206055
1766899805552,-0.46728516,-0.7402344,0.4736328,0.061035156,0.5493164,-0.061035156,0.0,0.0,0.0,-57.178345,28.256836,-11.206055
1766899805564,-0.46728516,-0.7402344,0.4736328,0.061035156,0.5493164,-0.061035156,0.0,0.0,0.0,-57.183838,28.278809,-11.260986
1766899805652,-0.47021484,-0.74365234,0.4741211,0.30517578,-0.061035156,0.061035156,0.0,0.0,0.0,-57.183838,28.278809,-11.260986
1766899805664,-0.47021484,-0.74365234,0.4741211,0.30517578,-0.061035156,0.061035156,0.0,0.0,0.0,-57.17285,28.273315,-11.288452
1766899805752,-0.47070312,-0.7416992,0.4741211,0.0,-0.061035156,0.0,0.0,0.0,0.0,-57.17285,28.273315,-11.288452
1766899805763,-0.47070312,-0.7416992,0.4741211,0.0,-0.061035156,0.0,0.0,0.0,0.0,-57.145386,28.26233,-11.288452
1766899805852,-0.47216797,-0.74365234,0.4716797,-0.18310547,0.0,0.12207031,0.0,0.0,0.0,-57.145386,28.26233,-11.288452
1766899805863,-0.47216797,-0.74365234,0.4716797,-0.18310547,0.0,0.12207031,0.0,0.0,0.0,-57.156372,28.256836,-11.277466
1766899805951,-0.4716797,-0.7426758,0.47265625,0.0,-0.061035156,0.0,0.0,0.0,0.0,-57.156372,28.256836,-11.277466
1766899805963,-0.4716797,-0.7426758,0.47265625,0.0,-0.061035156,0.0,0.0,0.0,0.0,-57.139893,28.24585,-11.271973
1766899806051,-0.46826172,-0.7392578,0.47558594,0.12207031,-0.4272461,0.12207031,0.0,0.0,0.0,-57.139893,28.24585,-11.271973
1766899806062,-0.46826172,-0.7392578,0.47558594,0.12207031,-0.4272461,0.12207031,0.0,0.0,0.0,-57.112427,28.223877,-11.244507
1766899806151,-0.4711914,-0.74365234,0.4790039,-0.061035156,-1.0986328,-0.12207031,0.0,0.0,0.0,-57.112427,28.223877,-11.244507
1766899806162,-0.4711914,-0.74365234,0.4790039,-0.061035156,-1.0986328,-0.12207031,0.0,0.0,0.0,-57.057495,28.179932,-11.206055
1766899806250,-0.46728516,-0.7426758,0.47802734,0.18310547,-0.79345703,0.12207031,0.0,0.0,0.0,-57.057495,28.179932,-11.206055
1766899806262,-0.46728516,-0.7426758,0.47802734,0.18310547,-0.79345703,0.12207031,0.0,0.0,0.0,-56.991577,28.135986,-11.14563
1766899806350,-0.4711914,-0.7421875,0.47851562,0.24414062,0.061035156,0.18310547,0.0,0.0,0.0,-56.991577,28.135986,-11.14563
1766899806362,-0.4711914,-0.7421875,0.47851562,0.24414062,0.061035156,0.18310547,0.0,0.0,0.0,-56.936646,28.125,-11.12915
1766899806450,-0.46777344,-0.7441406,0.48291016,0.12207031,0.061035156,0.061035156,0.0,0.0,0.0,-56.936646,28.125,-11.12915
1766899806462,-0.46777344,-0.7441406,0.48291016,0.12207031,0.061035156,0.061035156,0.0,0.0,0.0,-56.914673,28.125,-11.12915
1766899806549,-0.46435547,-0.7373047,0.47216797,0.30517578,-1.4648438,-0.5493164,0.0,0.0,0.0,-56.914673,28.125,-11.12915
1766899806561,-0.46435547,-0.7373047,0.47216797,0.30517578,-1.4648438,-0.5493164,0.0,0.0,0.0,-56.832275,28.048096,-11.085205
1766899806649,-0.46728516,-0.74121094,0.4819336,-0.4272461,-0.061035156,-0.12207031,0.0,0.0,0.0,-56.832275,28.048096,-11.085205
1766899806661,-0.46728516,-0.74121094,0.4819336,-0.4272461,-0.061035156,-0.12207031,0.0,0.0,0.0,-56.799316,28.00415,-11.068726
1766899806749,-0.47070312,-0.73828125,0.47802734,0.36621094,0.30517578,0.18310547,0.0,0.0,0.0,-56.799316,28.00415,-11.068726
1766899806760,-0.47070312,-0.73828125,0.47802734,0.36621094,0.30517578,0.18310547,0.0,0.0,0.0,-56.832275,27.998657,-11.112671
1766899806849,-0.4658203,-0.74072266,0.48046875,0.48828125,0.30517578,0.061035156,0.0,0.0,0.0,-56.832275,27.998657,-11.112671
1766899806860,-0.4658203,-0.74072266,0.48046875,0.48828125,0.30517578,0.061035156,0.0,0.0,0.0,-56.793823,27.98767,-11.107178
1766899806949,-0.46679688,-0.7426758,0.47460938,0.18310547,-0.061035156,0.18310547,0.0,0.0,0.0,-56.793823,27.98767,-11.107178
1766899806960,-0.46679688,-0.7426758,0.47460938,0.18310547,-0.061035156,0.18310547,0.0,0.0,0.0,-56.766357,27.982178,-11.118164
1766899807048,-0.46777344,-0.7368164,0.4736328,0.6713867,-0.12207031,0.18310547,0.0,0.0,0.0,-56.766357,27.982178,-11.118164
1766899807060,-0.46777344,-0.7368164,0.4736328,0.6713867,-0.12207031,0.18310547,0.0,0.0,0.0,-56.694946,27.982178,-11.085205
1766899807148,-0.4658203,-0.7392578,0.48046875,0.0,-0.36621094,0.36621094,0.0,0.0,0.0,-56.694946,27.982178,-11.085205
1766899807159,-0.4658203,-0.7392578,0.48046875,0.0,-0.36621094,0.36621094,0.0,0.0,0.0,-56.651,27.960205,-11.052246
1766899807248,-0.46484375,-0.7402344,0.4814453,0.24414062,-0.12207031,0.24414062,0.0,0.0,0.0,-56.651,27.960205,-11.052246
1766899807259,-0.46484375,-0.7402344,0.4814453,0.24414062,-0.12207031,0.24414062,0.0,0.0,0.0,-56.607056,27.938232,-10.991821
1766899807347,-0.46826172,-0.7363281,0.4819336,0.0,0.36621094,0.36621094,0.0,0.0,0.0,-56.607056,27.938232,-10.991821
1766899807359,-0.46826172,-0.7363281,0.4819336,0.0,0.36621094,0.36621094,0.0,0.0,0.0,-56.59607,27.960205,-10.991821
1766899807447,-0.46728516,-0.74121094,0.4819336,-0.24414062,0.5493164,0.12207031,0.0,0.0,0.0,-56.59607,27.960205,-10.991821
1766899807459,-0.46728516,-0.74121094,0.4819336,-0.24414062,0.5493164,0.12207031,0.0,0.0,0.0,-56.601562,27.971191,-11.008301
1766899807547,-0.46728516,-0.7368164,0.4814453,0.0,0.18310547,0.061035156,0.0,0.0,0.0,-56.601562,27.971191,-11.008301
1766899807558,-0.46728516,-0.7368164,0.4814453,0.0,0.18310547,0.061035156,0.0,0.0,0.0,-56.607056,27.993164,-11.04126
1766899807646,-0.46923828,-0.7441406,0.48535156,0.0,-0.30517578,0.12207031,0.0,0.0,0.0,-56.607056,27.993164,-11.04126
1766899807658,-0.46923828,-0.7441406,0.48535156,0.0,-0.30517578,0.12207031,0.0,0.0,0.0,-56.585083,27.976685,-11.02478
1766899807746,-0.4663086,-0.73779297,0.47851562,0.6713867,-0.79345703,0.18310547,0.0,0.0,0.0,-56.585083,27.976685,-11.02478
1766899807761,-0.4663086,-0.73779297,0.47851562,0.6713867,-0.79345703,0.18310547,0.0,0.0,0.0,-56.52466,27.938232,-10.958862
1766899807847,-0.46923828,-0.7368164,0.48388672,0.5493164,-0.061035156,0.0,0.0,0.0,0.0,-56.52466,27.938232,-10.958862
1766899807858,-0.46923828,-0.7368164,0.48388672,0.5493164,-0.061035156,0.0,0.0,0.0,0.0,-56.447754,27.894287,-10.914917
1766899807946,-0.45898438,-0.7373047,0.48291016,0.18310547,-0.48828125,0.30517578,0.0,0.0,0.0,-56.447754,27.894287,-10.914917
1766899807957,-0.45898438,-0.7373047,0.48291016,0.18310547,-0.48828125,0.30517578,0.0,0.0,0.0,-56.398315,27.888794,-10.909424
1766899808046,-0.46875,-0.7392578,0.4873047,-0.24414062,-0.5493164,0.061035156,0.0,0.0,0.0,-56.398315,27.888794,-10.909424
1766899808057,-0.46875,-0.7392578,0.4873047,-0.24414062,-0.5493164,0.061035156,0.0,0.0,0.0,-56.343384,27.855835,-10.892944
1766899808145,-0.4584961,-0.7368164,0.49121094,-0.48828125,-0.12207031,0.061035156,0.0,0.0,0.0,-56.343384,27.855835,-10.892944
1766899808156,-0.4584961,-0.7368164,0.49121094,-0.48828125,-0.12207031,0.061035156,0.0,0.0,0.0,-56.326904,27.844849,-10.876465
1766899808245,-0.4663086,-0.7363281,0.484375,-0.24414062,0.30517578,0.18310547,0.0,0.0,0.0,-56.326904,27.844849,-10.876465
1766899808256,-0.4663086,-0.7363281,0.484375,-0.24414062,0.30517578,0.18310547,0.0,0.0,0.0,-56.326904,27.850342,-10.8984375
1766899808344,-0.45898438,-0.73339844,0.48339844,-0.18310547,0.061035156,0.061035156,0.0,0.0,0.0,-56.326904,27.850342,-10.8984375
1766899808356,-0.45898438,-0.73339844,0.48339844,-0.18310547,0.061035156,0.061035156,0.0,0.0,0.0,-56.359863,27.8833,-10.947876
1766899808444,-0.46777344,-0.7416992,0.4892578,0.4272461,0.0,0.24414062,0.0,0.0,0.0,-56.359863,27.8833,-10.947876
1766899808456,-0.46777344,-0.7416992,0.4892578,0.4272461,0.0,0.24414062,0.0,0.0,0.0,-56.348877,27.8833,-10.964355
1766899808544,-0.46728516,-0.73876953,0.49023438,0.24414062,0.24414062,0.061035156,0.0,0.0,0.0,-56.348877,27.8833,-10.964355
1766899808557,-0.46728516,-0.73876953,0.49023438,0.24414062,0.24414062,0.061035156,0.0,0.0,0.0,-56.30493,27.8833,-10.980835
1766899808643,-0.46435547,-0.7363281,0.48583984,-0.061035156,0.48828125,0.061035156,0.0,0.0,0.0,-56.30493,27.8833,-10.980835
1766899808656,-0.46435547,-0.7363281,0.48583984,-0.061035156,0.48828125,0.061035156,0.0,0.0,0.0,-56.293945,27.894287,-11.008301
1766899808743,-0.46533203,-0.7373047,0.4868164,-0.12207031,0.30517578,0.0,0.0,0.0,0.0,-56.293945,27.894287,-11.008301
1766899808755,-0.46533203,-0.7373047,0.4868164,-0.12207031,0.30517578,0.0,0.0,0.0,0.0,-56.29944,27.894287,-11.04126
1766899808843,-0.46533203,-0.7392578,0.4868164,-0.48828125,0.36621094,0.0,0.0,0.0,0.0,-56.29944,27.894287,-11.04126
1766899808856,-0.46533203,-0.7392578,0.4868164,-0.48828125,0.36621094,0.0,0.0,0.0,0.0,-56.32141,27.905273,-11.063232
1766899808943,-0.46777344,-0.73535156,0.4921875,-0.30517578,0.8544922,0.36621094,0.0,0.0,0.0,-56.32141,27.905273,-11.063232
1766899808954,-0.46777344,-0.73535156,0.4921875,-0.30517578,0.8544922,0.36621094,0.0,0.0,0.0,-56.365356,27.954712,-11.101685
1766899809042,-0.46875,-0.7397461,0.48583984,-0.12207031,0.36621094,0.4272461,0.0,0.0,0.0,-56.365356,27.954712,-11.101685
1766899809054,-0.46875,-0.7397461,0.48583984,-0.12207031,0.36621094,0.4272461,0.0,0.0,0.0,-56.365356,27.976685,-11.107178
1766899809142,-0.46777344,-0.73828125,0.48583984,-0.12207031,0.30517578,0.5493164,0.0,0.0,0.0,-56.365356,27.976685,-11.107178
1766899809154,-0.46777344,-0.73828125,0.48583984,-0.12207031,0.30517578,0.5493164,0.0,0.0,0.0,-56.392822,28.031616,-11.090698
1766899809242,-0.46826172,-0.7363281,0.4868164,-0.30517578,0.6713867,0.36621094,0.0,0.0,0.0,-56.392822,28.031616,-11.090698
1766899809253,-0.46826172,-0.7363281,0.4868164,-0.30517578,0.6713867,0.36621094,0.0,0.0,0.0,-56.4093,28.081055,-11.118164
1766899809341,-0.4711914,-0.73876953,0.48339844,-0.061035156,0.36621094,0.36621094,0.0,0.0,0.0,-56.4093,28.081055,-11.118164
1766899809353,-0.4711914,-0.73876953,0.48339844,-0.061035156,0.36621094,0.36621094,0.0,0.0,0.0,-56.420288,28.135986,-11.12915
1766899809441,-0.47021484,-0.73583984,0.48242188,0.24414062,0.5493164,0.5493164,0.0,0.0,0.0,-56.420288,28.135986,-11.12915
1766899809453,-0.47021484,-0.73583984,0.48242188,0.24414062,0.5493164,0.5493164,0.0,0.0,0.0,-56.40381,28.174438,-11.140137
1766899809541,-0.4716797,-0.7368164,0.48242188,0.0,0.18310547,0.24414062,0.0,0.0,0.0,-56.40381,28.174438,-11.140137
1766899809552,-0.4716797,-0.7368164,0.48242188,0.0,0.18310547,0.24414062,0.0,0.0,0.0,-56.38733,28.207397,-11.151123
1766899809641,-0.47265625,-0.73535156,0.484375,0.18310547,0.24414062,0.36621094,0.0,0.0,0.0,-56.38733,28.207397,-11.151123
1766899809652,-0.47265625,-0.73535156,0.484375,0.18310547,0.24414062,0.36621094,0.0,0.0,0.0,-56.37085,28.234863,-11.156616
1766899809740,-0.4741211,-0.73583984,0.484375,-0.12207031,0.36621094,0.18310547,0.0,0.0,0.0,-56.37085,28.234863,-11.156616
1766899809755,-0.4741211,-0.73583984,0.484375,-0.12207031,0.36621094,0.18310547,0.0,0.0,0.0,-56.365356,28.251343,-11.167603
1766899809840,-0.4736328,-0.73291016,0.48095703,0.48828125,0.5493164,0.0,0.0,0.0,0.0,-56.365356,28.251343,-11.167603
1766899809851,-0.4736328,-0.73291016,0.48095703,0.48828125,0.5493164,0.0,0.0,0.0,0.0,-56.343384,28.26233,-11.162109
1766899809940,-0.4658203,-0.72998047,0.47851562,0.061035156,-0.061035156,0.24414062,0.0,0.0,0.0,-56.343384,28.26233,-11.162109
1766899809951,-0.4658203,-0.72998047,0.47851562,0.061035156,-0.061035156,0.24414062,0.0,0.0,0.0,-56.30493,28.24585,-11.118164
1766899810041,-0.47265625,-0.7348633,0.48486328,0.061035156,0.30517578,0.061035156,0.0,0.0,0.0,-56.30493,28.24585,-11.118164
1766899810052,-0.47265625,-0.7348633,0.48486328,0.061035156,0.30517578,0.061035156,0.0,0.0,0.0,-56.30493,28.240356,-11.118164
1766899810139,-0.47509766,-0.7338867,0.48583984,0.0,0.61035156,0.24414062,0.0,0.0,0.0,-56.30493,28.240356,-11.118164
1766899810151,-0.47509766,-0.7338867,0.48583984,0.0,0.61035156,0.24414062,0.0,0.0,0.0,-56.32141,28.256836,-11.156616
1766899810239,-0.47216797,-0.7368164,0.48486328,-0.12207031,0.6713867,0.0,0.0,0.0,0.0,-56.32141,28.256836,-11.156616
1766899810251,-0.47216797,-0.7368164,0.48486328,-0.12207031,0.6713867,0.0,0.0,0.0,0.0,-56.326904,28.273315,-11.184082
1766899810339,-0.4711914,-0.7319336,0.4814453,-0.36621094,-0.061035156,0.0,0.0,0.0,0.0,-56.326904,28.273315,-11.184082
1766899810350,-0.4711914,-0.7319336,0.4814453,-0.36621094,-0.061035156,0.0,0.0,0.0,0.0,-56.32141,28.284302,-11.206055
1766899810439,-0.47070312,-0.74072266,0.48095703,0.0,-0.18310547,0.12207031,0.0,0.0,0.0,-56.32141,28.284302,-11.206055
1766899810450,-0.47070312,-0.74072266,0.48095703,0.0,-0.18310547,0.12207031,0.0,0.0,0.0,-56.359863,28.240356,-11.222534
1766899810538,-0.47314453,-0.73291016,0.48583984,0.5493164,0.36621094,0.061035156,0.0,0.0,0.0,-56.359863,28.240356,-11.222534
1766899810549,-0.47314453,-0.73291016,0.48583984,0.5493164,0.36621094,0.061035156,0.0,0.0,0.0,-56.326904,28.26233,-11.206055
1766899810639,-0.47314453,-0.73535156,0.48876953,0.9765625,1.0375977,0.0,0.0,0.0,0.0,-56.326904,28.26233,-11.206055
1766899810649,-0.47314453,-0.73535156,0.48876953,0.9765625,1.0375977,0.0,0.0,0.0,0.0,-56.26648,28.273315,-11.222534
1766899810737,-0.47216797,-0.7324219,0.48046875,1.3427734,0.4272461,0.061035156,0.0,0.0,0.0,-56.26648,28.273315,-11.222534
1766899810749,-0.47216797,-0.7324219,0.48046875,1.3427734,0.4272461,0.061035156,0.0,0.0,0.0,-56.140137,28.278809,-11.206055
1766899810837,-0.4765625,-0.73046875,0.49169922,2.2583008,1.159668,0.79345703,0.0,0.0,0.0,-56.140137,28.278809,-11.206055
1766899810849,-0.4765625,-0.73046875,0.49169922,2.2583008,1.159668,0.79345703,0.0,0.0,0.0,-55.98633,28.339233,-11.228027
1766899810937,-0.47558594,-0.72998047,0.49560547,1.0986328,1.953125,0.18310547,0.0,0.0,0.0,-55.98633,28.339233,-11.228027
1766899810949,-0.47558594,-0.72998047,0.49560547,1.0986328,1.953125,0.18310547,0.0,0.0,0.0,-55.854492,28.416138,-11.25
1766899811036,-0.48095703,-0.7290039,0.48486328,0.0,0.24414062,-0.24414062,0.0,0.0,0.0,-55.854492,28.416138,-11.25
1766899811049,-0.48095703,-0.7290039,0.48486328,0.0,0.24414062,-0.24414062,0.0,0.0,0.0,-55.838013,28.47107,-11.337891
1766899811136,-0.47509766,-0.73095703,0.4892578,0.48828125,0.36621094,0.18310547,0.0,0.0,0.0,-55.838013,28.47107,-11.337891
1766899811148,-0.47509766,-0.73095703,0.4892578,0.48828125,0.36621094,0.18310547,0.0,0.0,0.0,-55.81604,28.465576,-11.337891
1766899811236,-0.47314453,-0.72753906,0.49072266,-0.12207031,0.0,0.5493164,0.0,0.0,0.0,-55.81604,28.465576,-11.337891
1766899811247,-0.47314453,-0.72753906,0.49072266,-0.12207031,0.0,0.5493164,0.0,0.0,0.0,-55.78308,28.476562,-11.304932
1766899811336,-0.48046875,-0.73828125,0.4970703,-0.91552734,-0.30517578,0.061035156,0.0,0.0,0.0,-55.78308,28.476562,-11.304932
1766899811347,-0.48046875,-0.73828125,0.4970703,-0.91552734,-0.30517578,0.061035156,0.0,0.0,0.0,-55.772095,28.45459,-11.293945
1766899811435,-0.47216797,-0.7207031,0.48632812,-0.30517578,-0.36621094,0.18310547,0.0,0.0,0.0,-55.772095,28.45459,-11.293945
1766899811447,-0.47216797,-0.7207031,0.48632812,-0.30517578,-0.36621094,0.18310547,0.0,0.0,0.0,-55.750122,28.476562,-11.260986
1766899811535,-0.47998047,-0.7319336,0.48291016,0.4272461,0.18310547,0.0,0.0,0.0,0.0,-55.750122,28.476562,-11.260986
1766899811546,-0.47998047,-0.7319336,0.48291016,0.4272461,0.18310547,0.0,0.0,0.0,0.0,-55.7666,28.460083,-11.282959
1766899811635,-0.46972656,-0.72509766,0.4873047,0.4272461,0.24414062,0.0,0.0,0.0,0.0,-55.7666,28.460083,-11.282959
1766899811646,-0.46972656,-0.72509766,0.4873047,0.4272461,0.24414062,0.0,0.0,0.0,0.0,-55.74463,28.399658,-11.25
1766899811734,-0.47851562,-0.73095703,0.4921875,0.48828125,0.12207031,0.0,0.0,0.0,0.0,-55.74463,28.399658,-11.25
1766899811748,-0.47851562,-0.73095703,0.4921875,0.48828125,0.12207031,0.0,0.0,0.0,0.0,-55.706177,28.377686,-11.222534
1766899811834,-0.47460938,-0.7314453,0.49169922,0.24414062,0.0,0.12207031,0.0,0.0,0.0,-55.706177,28.377686,-11.222534
1766899811848,-0.47460938,-0.7314453,0.49169922,0.24414062,0.0,0.12207031,0.0,0.0,0.0,-55.66223,28.355713,-11.222534
1766899811934,-0.47558594,-0.72802734,0.49414062,-0.061035156,-0.24414062,-0.18310547,0.0,0.0,0.0,-55.66223,28.355713,-11.222534
1766899811946,-0.47558594,-0.72802734,0.49414062,-0.061035156,-0.24414062,-0.18310547,0.0,0.0,0.0,-55.62378,28.328247,-11.200562
1766899812034,-0.4741211,-0.72998047,0.49365234,0.4272461,-0.061035156,0.0,0.0,0.0,0.0,-55.62378,28.328247,-11.200562
1766899812048,-0.4741211,-0.72998047,0.49365234,0.4272461,-0.061035156,0.0,0.0,0.0,0.0,-55.59082,28.295288,-11.184082
1766899812134,-0.4711914,-0.72802734,0.49560547,0.12207031,-0.30517578,0.0,0.0,0.0,0.0,-55.59082,28.295288,-11.184082
1766899812145,-0.4711914,-0.72802734,0.49560547,0.12207031,-0.30517578,0.0,0.0,0.0,0.0,-55.53589,28.26233,-11.134644
1766899812233,-0.47216797,-0.7265625,0.49560547,-0.30517578,-0.12207031,0.0,0.0,0.0,0.0,-55.53589,28.26233,-11.134644
1766899812244,-0.47216797,-0.7265625,0.49560547,-0.30517578,-0.12207031,0.0,0.0,0.0,0.0,-55.51941,28.22937,-11.112671
1766899812334,-0.46923828,-0.7294922,0.49560547,-0.12207031,0.12207031,0.0,0.0,0.0,0.0,-55.51941,28.22937,-11.112671
1766899812344,-0.46923828,-0.7294922,0.49560547,-0.12207031,0.12207031,0.0,0.0,0.0,0.0,-55.530396,28.207397,-11.101685
1766899812433,-0.4741211,-0.73535156,0.4951172,-0.12207031,0.7324219,0.0,0.0,0.0,0.0,-55.530396,28.207397,-11.101685
1766899812444,-0.4741211,-0.73535156,0.4951172,-0.12207031,0.7324219,0.0,0.0,0.0,0.0,-55.55237,28.196411,-11.112671
1766899812532,-0.4711914,-0.72998047,0.4897461,0.18310547,0.5493164,0.30517578,0.0,0.0,0.0,-55.55237,28.196411,-11.112671
1766899812544,-0.4711914,-0.72998047,0.4897461,0.18310547,0.5493164,0.30517578,0.0,0.0,0.0,-55.568848,28.185425,-11.107178
1766899812632,-0.4736328,-0.7285156,0.49365234,0.0,0.36621094,0.24414062,0.0,0.0,0.0,-55.568848,28.185425,-11.107178
1766899812643,-0.4736328,-0.7285156,0.49365234,0.0,0.36621094,0.24414062,0.0,0.0,0.0,-55.585327,28.201904,-11.107178
1766899812732,-0.47265625,-0.73046875,0.49365234,-0.4272461,0.79345703,0.36621094,0.0,0.0,0.0,-55.585327,28.201904,-11.107178
1766899812743,-0.47265625,-0.73046875,0.49365234,-0.4272461,0.79345703,0.36621094,0.0,0.0,0.0,-55.601807,28.240356,-11.123657
1766899812831,-0.47558594,-0.7290039,0.4921875,0.0,0.30517578,0.6713867,0.0,0.0,0.0,-55.601807,28.240356,-11.123657
1766899812843,-0.47558594,-0.7290039,0.4921875,0.0,0.30517578,0.6713867,0.0,0.0,0.0,-55.618286,28.284302,-11.134644
1766899812931,-0.47460938,-0.7260742,0.49121094,-0.4272461,-0.30517578,0.79345703,0.0,0.0,0.0,-55.618286,28.284302,-11.134644
1766899812943,-0.47460938,-0.7260742,0.49121094,-0.4272461,-0.30517578,0.79345703,0.0,0.0,0.0,-55.601807,28.322754,-11.079712
1766899813031,-0.47070312,-0.72558594,0.4946289,-0.4272461,0.18310547,-0.30517578,0.0,0.0,0.0,-55.601807,28.322754,-11.079712
1766899813044,-0.47070312,-0.72558594,0.4946289,-0.4272461,0.18310547,-0.30517578,0.0,0.0,0.0,-55.62378,28.306274,-11.046753
1766899813131,-0.46972656,-0.72802734,0.48828125,-0.5493164,-0.36621094,0.12207031,0.0,0.0,0.0,-55.62378,28.306274,-11.046753
1766899813143,-0.46972656,-0.72802734,0.48828125,-0.5493164,-0.36621094,0.12207031,0.0,0.0,0.0,-55.66223,28.273315,-11.013794
1766899813230,-0.4736328,-0.73291016,0.49414062,-0.24414062,0.24414062,0.61035156,0.0,0.0,0.0,-55.66223,28.273315,-11.013794
1766899813242,-0.4736328,-0.73291016,0.49414062,-0.24414062,0.24414062,0.61035156,0.0,0.0,0.0,-55.667725,28.284302,-10.986328
1766899813330,-0.48242188,-0.7270508,0.48632812,0.4272461,0.6713867,0.48828125,0.0,0.0,0.0,-55.667725,28.284302,-10.986328
1766899813342,-0.48242188,-0.7270508,0.48632812,0.4272461,0.6713867,0.48828125,0.0,0.0,0.0,-55.65674,28.35022,-11.030273
1766899813430,-0.4711914,-0.7363281,0.49267578,-0.4272461,-0.12207031,0.61035156,0.0,0.0,0.0,-55.65674,28.35022,-11.030273
1766899813441,-0.4711914,-0.7363281,0.49267578,-0.4272461,-0.12207031,0.61035156,0.0,0.0,0.0,-55.64026,28.35022,-10.969849
1766899813530,-0.47509766,-0.72314453,0.4921875,0.30517578,0.61035156,0.0,0.0,0.0,0.0,-55.64026,28.35022,-10.969849
1766899813541,-0.47509766,-0.72314453,0.4921875,0.30517578,0.61035156,0.0,0.0,0.0,0.0,-55.596313,28.372192,-10.969849
1766899813629,-0.4741211,-0.72558594,0.48876953,0.0,0.18310547,0.18310547,0.0,0.0,0.0,-55.596313,28.372192,-10.969849
1766899813641,-0.4741211,-0.72558594,0.48876953,0.0,0.18310547,0.18310547,0.0,0.0,0.0,-55.6073,28.399658,-11.02478
1766899813729,-0.4736328,-0.72753906,0.49414062,0.0,0.061035156,0.24414062,0.0,0.0,0.0,-55.6073,28.399658,-11.02478
1766899813740,-0.4736328,-0.72753906,0.49414062,0.0,0.061035156,0.24414062,0.0,0.0,0.0,-55.6073,28.399658,-11.046753
1766899813829,-0.47509766,-0.7294922,0.4921875,-0.12207031,0.24414062,0.061035156,0.0,0.0,0.0,-55.6073,28.399658,-11.046753
1766899813840,-0.47509766,-0.7294922,0.4921875,-0.12207031,0.24414062,0.061035156,0.0,0.0,0.0,-55.601807,28.405151,-11.068726
1766899813928,-0.4736328,-0.72753906,0.4921875,-0.061035156,0.18310547,0.061035156,0.0,0.0,0.0,-55.601807,28.405151,-11.068726
1766899813940,-0.4736328,-0.72753906,0.4921875,-0.061035156,0.18310547,0.061035156,0.0,0.0,0.0,-55.612793,28.405151,-11.085205
1766899814029,-0.4741211,-0.7265625,0.4892578,-0.061035156,0.061035156,0.0,0.0,0.0,0.0,-55.612793,28.405151,-11.085205
1766899814040,-0.4741211,-0.7265625,0.4892578,-0.061035156,0.061035156,0.0,0.0,0.0,0.0,-55.612793,28.399658,-11.101685
1766899814128,-0.4736328,-0.7290039,0.48876953,-0.4272461,-0.61035156,0.061035156,0.0,0.0,0.0,-55.612793,28.399658,-11.101685
1766899814142,-0.4736328,-0.7290039,0.48876953,-0.4272461,-0.61035156,0.061035156,0.0,0.0,0.0,-55.6073,28.3667,-11.107178
1766899814228,-0.4711914,-0.7270508,0.4946289,-0.4272461,-0.48828125,-0.36621094,0.0,0.0,0.0,-55.6073,28.3667,-11.107178
1766899814239,-0.4711914,-0.7270508,0.4946289,-0.4272461,-0.48828125,-0.36621094,0.0,0.0,0.0,-55.59082,28.33374,-11.12915
1766899814327,-0.46728516,-0.7324219,0.4946289,-0.30517578,-0.061035156,-0.12207031,0.0,0.0,0.0,-55.59082,28.33374,-11.12915
1766899814339,-0.46728516,-0.7324219,0.4946289,-0.30517578,-0.061035156,-0.12207031,0.0,0.0,0.0,-55.601807,28.306274,-11.167603
1766899814428,-0.4790039,-0.72753906,0.4951172,0.0,0.4272461,-0.12207031,0.0,0.0,0.0,-55.601807,28.306274,-11.167603
1766899814441,-0.4790039,-0.72753906,0.4951172,0.0,0.4272461,-0.12207031,0.0,0.0,0.0,-55.6073,28.300781,-11.239014
1766899814527,-0.46923828,-0.7270508,0.49316406,-0.061035156,0.36621094,-0.061035156,0.0,0.0,0.0,-55.6073,28.300781,-11.239014
1766899814538,-0.46923828,-0.7270508,0.49316406,-0.061035156,0.36621094,-0.061035156,0.0,0.0,0.0,-55.601807,28.295288,-11.271973
1766899814628,-0.4736328,-0.73095703,0.49414062,0.12207031,0.18310547,-0.061035156,0.0,0.0,0.0,-55.601807,28.295288,-11.271973
1766899814638,-0.4736328,-0.73095703,0.49414062,0.12207031,0.18310547,-0.061035156,0.0,0.0,0.0,-55.601807,28.284302,-11.310425
1766899814726,-0.47216797,-0.7285156,0.4921875,-0.12207031,0.0,0.12207031,0.0,0.0,0.0,-55.601807,28.284302,-11.310425
1766899814737,-0.47216797,-0.7285156,0.4921875,-0.12207031,0.0,0.12207031,0.0,0.0,0.0,-55.59082,28.273315,-11.321411
1766899814826,-0.47216797,-0.7285156,0.49316406,-0.12207031,0.18310547,0.0,0.0,0.0,0.0,-55.59082,28.273315,-11.321411
1766899814837,-0.47216797,-0.7285156,0.49316406,-0.12207031,0.18310547,0.0,0.0,0.0,0.0,-55.585327,28.267822,-11.326904
1766899814925,-0.47216797,-0.7285156,0.49169922,0.0,0.061035156,0.0,0.0,0.0,0.0,-55.585327,28.267822,-11.326904
1766899814937,-0.47216797,-0.7285156,0.49169922,0.0,0.061035156,0.0,0.0,0.0,0.0,-55.579834,28.251343,-11.332397
1766899815025,-0.4711914,-0.7290039,0.4892578,-0.061035156,0.061035156,0.0,0.0,0.0,0.0,-55.579834,28.251343,-11.332397
1766899815037,-0.4711914,-0.7290039,0.4892578,-0.061035156,0.061035156,0.0,0.0,0.0,0.0,-55.57434,28.24585,-11.343384
1766899815125,-0.47558594,-0.72265625,0.4892578,0.18310547,-0.24414062,-0.4272461,0.0,0.0,0.0,-55.57434,28.24585,-11.343384
1766899815137,-0.47558594,-0.72265625,0.4892578,0.18310547,-0.24414062,-0.4272461,0.0,0.0,0.0,-55.54138,28.251343,-11.420288
1766899815224,-0.46533203,-0.7241211,0.4975586,0.12207031,-0.18310547,0.061035156,0.0,0.0,0.0,-55.54138,28.251343,-11.420288
1766899815236,-0.46533203,-0.7241211,0.4975586,0.12207031,-0.18310547,0.061035156,0.0,0.0,0.0,-55.497437,28.22937,-11.387329
1766899815324,-0.4716797,-0.7285156,0.49804688,-0.12207031,0.0,0.4272461,0.0,0.0,0.0,-55.497437,28.22937,-11.387329
1766899815336,-0.4716797,-0.7285156,0.49804688,-0.12207031,0.0,0.4272461,0.0,0.0,0.0,-55.475464,28.22937,-11.403809
1766899815424,-0.47070312,-0.7260742,0.49365234,0.0,-0.18310547,0.12207031,0.0,0.0,0.0,-55.475464,28.22937,-11.403809
1766899815435,-0.47070312,-0.7260742,0.49365234,0.0,-0.18310547,0.12207031,0.0,0.0,0.0,-55.475464,28.240356,-11.425781
1766899815524,-0.47265625,-0.7265625,0.49658203,-0.30517578,0.18310547,0.0,0.0,0.0,0.0,-55.475464,28.240356,-11.425781
1766899815535,-0.47265625,-0.7265625,0.49658203,-0.30517578,0.18310547,0.0,0.0,0.0,0.0,-55.475464,28.234863,-11.447754
1766899815623,-0.4741211,-0.7294922,0.4970703,-0.5493164,0.6713867,-0.18310547,0.0,0.0,0.0,-55.475464,28.234863,-11.447754
1766899815635,-0.4741211,-0.7294922,0.4970703,-0.5493164,0.6713867,-0.18310547,0.0,0.0,0.0,-55.513916,28.223877,-11.497192
1766899815723,-0.47314453,-0.7270508,0.49560547,-0.24414062,0.48828125,-0.18310547,0.0,0.0,0.0,-55.513916,28.223877,-11.497192
1766899815735,-0.47314453,-0.7270508,0.49560547,-0.24414062,0.48828125,-0.18310547,0.0,0.0,0.0,-55.563354,28.21289,-11.535645
1766899815823,-0.4794922,-0.7397461,0.4873047,-1.4038086,-0.24414062,-0.061035156,0.0,0.0,0.0,-55.563354,28.21289,-11.535645
1766899815834,-0.4794922,-0.7397461,0.4873047,-1.4038086,-0.24414062,-0.061035156,0.0,0.0,0.0,-55.667725,28.179932,-11.645508
1766899815922,-0.46484375,-0.72216797,0.49414062,0.6713867,0.61035156,0.7324219,0.0,0.0,0.0,-55.667725,28.179932,-11.645508
1766899815934,-0.46484375,-0.72216797,0.49414062,0.6713867,0.61035156,0.7324219,0.0,0.0,0.0,-55.65674,28.21289,-11.519165
1766899816022,-0.46777344,-0.7241211,0.49804688,0.48828125,1.8310547,0.061035156,0.0,0.0,0.0,-55.65674,28.21289,-11.519165
1766899816034,-0.46777344,-0.7241211,0.49804688,0.48828125,1.8310547,0.061035156,0.0,0.0,0.0,-55.64026,28.267822,-11.574097
1766899816122,-0.4741211,-0.73535156,0.4892578,0.79345703,-0.12207031,1.3427734,0.0,0.0,0.0,-55.64026,28.267822,-11.574097
1766899816134,-0.4741211,-0.73535156,0.4892578,0.79345703,-0.12207031,1.3427734,0.0,0.0,0.0,-55.59082,28.311768,-11.590576
1766899816222,-0.4765625,-0.7192383,0.4970703,1.0375977,-0.24414062,0.18310547,0.0,0.0,0.0,-55.59082,28.311768,-11.590576
1766899816233,-0.4765625,-0.7192383,0.4970703,1.0375977,-0.24414062,0.18310547,0.0,0.0,0.0,-55.475464,28.33374,-11.47522
1766899816321,-0.4716797,-0.7270508,0.4970703,0.24414062,0.7324219,0.12207031,0.0,0.0,0.0,-55.475464,28.33374,-11.47522
1766899816336,-0.4716797,-0.7270508,0.4970703,0.24414062,0.7324219,0.12207031,0.0,0.0,0.0,-55.404053,28.33374,-11.464233
1766899816422,-0.47558594,-0.7265625,0.4951172,0.24414062,0.61035156,-0.18310547,0.0,0.0,0.0,-55.404053,28.33374,-11.464233
1766899816435,-0.47558594,-0.7265625,0.4951172,0.24414062,0.61035156,-0.18310547,0.0,0.0,0.0,-55.371094,28.35022,-11.502686
1766899816521,-0.47314453,-0.7241211,0.49560547,0.24414062,-0.24414062,0.061035156,0.0,0.0,0.0,-55.371094,28.35022,-11.502686
1766899816532,-0.47314453,-0.7241211,0.49560547,0.24414062,-0.24414062,0.061035156,0.0,0.0,0.0,-55.343628,28.344727,-11.513672
1766899816621,-0.4736328,-0.7246094,0.49658203,-0.24414062,0.24414062,0.0,0.0,0.0,0.0,-55.343628,28.344727,-11.513672
1766899816636,-0.4736328,-0.7246094,0.49658203,-0.24414062,0.24414062,0.0,0.0,0.0,0.0,-55.32715,28.33374,-11.513672
1766899816720,-0.47216797,-0.72509766,0.4946289,-0.18310547,0.12207031,0.0,0.0,0.0,0.0,-55.32715,28.33374,-11.513672
1766899816731,-0.47216797,-0.72509766,0.4946289,-0.18310547,0.12207031,0.0,0.0,0.0,0.0,-55.338135,28.322754,-11.530151
1766899816820,-0.4736328,-0.7265625,0.49121094,-0.7324219,-0.6713867,0.4272461,0.0,0.0,0.0,-55.338135,28.322754,-11.530151
1766899816831,-0.4736328,-0.7265625,0.49121094,-0.7324219,-0.6713867,0.4272461,0.0,0.0,0.0,-55.34912,28.311768,-11.541138
1766899816920,-0.47314453,-0.72802734,0.49902344,-0.7324219,-0.6713867,0.061035156,0.0,0.0,0.0,-55.34912,28.311768,-11.541138
1766899816931,-0.47314453,-0.72802734,0.49902344,-0.7324219,-0.6713867,0.061035156,0.0,0.0,0.0,-55.34912,28.300781,-11.552124
1766899817019,-0.47070312,-0.7285156,0.4975586,-0.48828125,0.0,0.24414062,0.0,0.0,0.0,-55.34912,28.300781,-11.552124
1766899817031,-0.47070312,-0.7285156,0.4975586,-0.48828125,0.0,0.24414062,0.0,0.0,0.0,-55.360107,28.295288,-11.552124
1766899817119,-0.4741211,-0.72753906,0.49609375,-0.18310547,0.30517578,0.18310547,0.0,0.0,0.0,-55.360107,28.295288,-11.552124
1766899817130,-0.4741211,-0.72753906,0.49609375,-0.18310547,0.30517578,0.18310547,0.0,0.0,0.0,-55.371094,28.300781,-11.574097
1766899817219,-0.46923828,-0.72558594,0.49609375,-0.12207031,-0.12207031,0.061035156,0.0,0.0,0.0,-55.371094,28.300781,-11.574097
1766899817230,-0.46923828,-0.72558594,0.49609375,-0.12207031,-0.12207031,0.061035156,0.0,0.0,0.0,-55.371094,28.311768,-11.6015625
1766899817318,-0.47509766,-0.7265625,0.49609375,-0.12207031,0.0,0.0,0.0,0.0,0.0,-55.371094,28.311768,-11.6015625
1766899817330,-0.47509766,-0.7265625,0.49609375,-0.12207031,0.0,0.0,0.0,0.0,0.0,-55.3656,28.306274,-11.618042
1766899817418,-0.4711914,-0.7265625,0.4970703,0.0,0.0,0.0,0.0,0.0,0.0,-55.3656,28.306274,-11.618042
1766899817429,-0.4711914,-0.7265625,0.4970703,0.0,0.0,0.0,0.0,0.0,0.0,-55.360107,28.295288,-11.629028
1766899817518,-0.4741211,-0.7260742,0.4951172,-0.061035156,0.18310547,0.0,0.0,0.0,0.0,-55.360107,28.295288,-11.629028
1766899817529,-0.4741211,-0.7260742,0.4951172,-0.061035156,0.18310547,0.0,0.0,0.0,0.0,-55.3656,28.284302,-11.645508
1766899817618,-0.47216797,-0.7270508,0.49609375,0.0,0.12207031,0.0,0.0,0.0,0.0,-55.3656,28.284302,-11.645508
1766899817630,-0.47216797,-0.7270508,0.49609375,0.0,0.12207031,0.0,0.0,0.0,0.0,-55.360107,28.273315,-11.656494
1766899817717,-0.47509766,-0.72802734,0.49316406,0.0,0.12207031,0.0,0.0,0.0,0.0,-55.360107,28.273315,-11.656494
1766899817729,-0.47509766,-0.72802734,0.49316406,0.0,0.12207031,0.0,0.0,0.0,0.0,-55.360107,28.267822,-11.672974
1766899817817,-0.47216797,-0.7216797,0.49023438,0.12207031,-0.79345703,0.0,0.0,0.0,0.0,-55.360107,28.267822,-11.672974
1766899817829,-0.47216797,-0.7216797,0.49023438,0.12207031,-0.79345703,0.0,0.0,0.0,0.0,-55.343628,28.24585,-11.66748
1766899817917,-0.46826172,-0.7236328,0.4921875,-0.12207031,-0.36621094,0.0,0.0,0.0,0.0,-55.343628,28.24585,-11.66748
1766899817928,-0.46826172,-0.7236328,0.4921875,-0.12207031,-0.36621094,0.0,0.0,0.0,0.0,-55.343628,28.223877,-11.651001
1766899818016,-0.47265625,-0.7265625,0.49853516,0.0,0.30517578,0.0,0.0,0.0,0.0,-55.343628,28.223877,-11.651001
1766899818028,-0.47265625,-0.7265625,0.49853516,0.0,0.30517578,0.0,0.0,0.0,0.0,-55.34912,28.207397,-11.651001
1766899818116,-0.4716797,-0.7260742,0.49267578,0.12207031,0.18310547,0.0,0.0,0.0,0.0,-55.34912,28.207397,-11.651001
1766899818128,-0.4716797,-0.7260742,0.49267578,0.12207031,0.18310547,0.0,0.0,0.0,0.0,-55.34912,28.201904,-11.66748
1766899818216,-0.47265625,-0.7285156,0.49853516,0.12207031,0.0,0.0,0.0,0.0,0.0,-55.34912,28.201904,-11.66748
1766899818227,-0.47265625,-0.7285156,0.49853516,0.12207031,0.0,0.0,0.0,0.0,0.0,-55.32715,28.179932,-11.656494
1766899818316,-0.47070312,-0.7265625,0.49804688,0.30517578,0.061035156,0.0,0.0,0.0,0.0,-55.32715,28.179932,-11.656494
1766899818327,-0.47070312,-0.7265625,0.49804688,0.30517578,0.061035156,0.0,0.0,0.0,0.0,-55.288696,28.168945,-11.661987
1766899818415,-0.4711914,-0.7265625,0.49804688,0.0,0.061035156,0.0,0.0,0.0,0.0,-55.288696,28.168945,-11.661987
1766899818427,-0.4711914,-0.7265625,0.49804688,0.0,0.061035156,0.0,0.0,0.0,0.0,-55.27771,28.146973,-11.656494
1766899818515,-0.47070312,-0.7270508,0.49853516,0.0,0.0,0.0,0.0,0.0,0.0,-55.27771,28.146973,-11.656494
1766899818526,-0.47070312,-0.7270508,0.49853516,0.0,0.0,0.0,0.0,0.0,0.0,-55.266724,28.130493,-11.656494
1766899818615,-0.46923828,-0.7260742,0.50097656,0.0,-0.061035156,0.0,0.0,0.0,0.0,-55.266724,28.130493,-11.656494
1766899818626,-0.46923828,-0.7260742,0.50097656,0.0,-0.061035156,0.0,0.0,0.0,0.0,-55.250244,28.114014,-11.651001
1766899818714,-0.47021484,-0.7285156,0.5053711,0.24414062,0.48828125,0.0,0.0,0.0,0.0,-55.250244,28.114014,-11.651001
1766899818726,-0.47021484,-0.7285156,0.5053711,0.24414062,0.48828125,0.0,0.0,0.0,0.0,-55.239258,28.092041,-11.640015
1766899818815,-0.47021484,-0.7265625,0.49609375,0.36621094,0.18310547,0.0,0.0,0.0,0.0,-55.239258,28.092041,-11.640015
1766899818826,-0.47021484,-0.7265625,0.49609375,0.36621094,0.18310547,0.0,0.0,0.0,0.0,-55.2063,28.064575,-11.612549
1766899818915,-0.4716797,-0.73046875,0.50146484,-0.24414062,0.36621094,0.0,0.0,0.0,0.0,-55.2063,28.064575,-11.612549
1766899818926,-0.4716797,-0.73046875,0.50146484,-0.24414062,0.36621094,0.0,0.0,0.0,0.0,-55.233765,28.064575,-11.618042
1766899819014,-0.46972656,-0.7265625,0.5024414,0.0,0.7324219,0.18310547,0.0,0.0,0.0,-55.233765,28.064575,-11.618042
1766899819025,-0.46972656,-0.7265625,0.5024414,0.0,0.7324219,0.18310547,0.0,0.0,0.0,-55.239258,28.086548,-11.6345215
1766899819114,-0.4716797,-0.7270508,0.49951172,0.0,0.48828125,0.24414062,0.0,0.0,0.0,-55.239258,28.086548,-11.6345215
1766899819126,-0.4716797,-0.7270508,0.49951172,0.0,0.48828125,0.24414062,0.0,0.0,0.0,-55.239258,28.125,-11.661987
1766899819214,-0.47070312,-0.7241211,0.4970703,0.12207031,0.5493164,0.12207031,0.0,0.0,0.0,-55.239258,28.125,-11.661987
1766899819224,-0.47070312,-0.7241211,0.4970703,0.12207031,0.5493164,0.12207031,0.0,0.0,0.0,-55.239258,28.157959,-11.694946
1766899819313,-0.4711914,-0.7265625,0.4970703,-0.12207031,0.36621094,0.24414062,0.0,0.0,0.0,-55.239258,28.157959,-11.694946
1766899819324,-0.4711914,-0.7265625,0.4970703,-0.12207031,0.36621094,0.24414062,0.0,0.0,0.0,-55.250244,28.179932,-11.722412
1766899819413,-0.4716797,-0.72558594,0.4975586,-0.061035156,0.4272461,0.30517578,0.0,0.0,0.0,-55.250244,28.179932,-11.722412
1766899819424,-0.4716797,-0.72558594,0.4975586,-0.061035156,0.4272461,0.30517578,0.0,0.0,0.0,-55.266724,28.218384,-11.749878
1766899819513,-0.46923828,-0.7246094,0.4975586,0.30517578,0.12207031,0.18310547,0.0,0.0,0.0,-55.266724,28.218384,-11.749878
1766899819524,-0.46923828,-0.7246094,0.4975586,0.30517578,0.12207031,0.18310547,0.0,0.0,0.0,-55.250244,28.234863,-11.760864
1766899819612,-0.4663086,-0.7211914,0.5019531,0.061035156,0.5493164,0.0,0.0,0.0,0.0,-55.250244,28.234863,-11.760864
1766899819624,-0.4663086,-0.7211914,0.5019531,0.061035156,0.5493164,0.0,0.0,0.0,0.0,-55.239258,28.240356,-11.738892
1766899819712,-0.47509766,-0.7270508,0.49951172,0.24414062,0.4272461,0.18310547,0.0,0.0,0.0,-55.239258,28.240356,-11.738892
1766899819723,-0.47509766,-0.7270508,0.49951172,0.24414062,0.4272461,0.18310547,0.0,0.0,0.0,-55.233765,28.234863,-11.749878
1766899819811,-0.47216797,-0.72558594,0.49609375,-0.18310547,0.61035156,-0.061035156,0.0,0.0,0.0,-55.233765,28.234863,-11.749878
1766899819823,-0.47216797,-0.72558594,0.49609375,-0.18310547,0.61035156,-0.061035156,0.0,0.0,0.0,-55.255737,28.251343,-11.771851
1766899819911,-0.4741211,-0.72509766,0.50146484,-0.24414062,0.8544922,0.0,0.0,0.0,0.0,-55.255737,28.251343,-11.771851
1766899819924,-0.4741211,-0.72509766,0.50146484,-0.24414062,0.8544922,0.0,0.0,0.0,0.0,-55.29419,28.267822,-11.815796
1766899820011,-0.47070312,-0.7265625,0.4951172,0.0,0.18310547,-0.061035156,0.0,0.0,0.0,-55.29419,28.267822,-11.815796
1766899820022,-0.47070312,-0.7265625,0.4951172,0.0,0.18310547,-0.061035156,0.0,0.0,0.0,-55.316162,28.278809,-11.859741
1766899820110,-0.47314453,-0.7241211,0.49267578,0.18310547,0.12207031,0.0,0.0,0.0,0.0,-55.316162,28.278809,-11.859741
1766899820122,-0.47314453,-0.7241211,0.49267578,0.18310547,0.12207031,0.0,0.0,0.0,0.0,-55.316162,28.273315,-11.887207
1766899820210,-0.47216797,-0.72558594,0.49609375,0.0,0.18310547,0.12207031,0.0,0.0,0.0,-55.316162,28.273315,-11.887207
1766899820222,-0.47216797,-0.72558594,0.49609375,0.0,0.18310547,0.12207031,0.0,0.0,0.0,-55.316162,28.273315,-11.898193
1766899820310,-0.47460938,-0.7270508,0.49658203,-0.12207031,0.18310547,0.0,0.0,0.0,0.0,-55.316162,28.273315,-11.898193
1766899820321,-0.47460938,-0.7270508,0.49658203,-0.12207031,0.18310547,0.0,0.0,0.0,0.0,-55.321655,28.267822,-11.914673
1766899820410,-0.47265625,-0.7270508,0.49658203,-0.061035156,0.12207031,0.0,0.0,0.0,0.0,-55.321655,28.267822,-11.914673
1766899820421,-0.47265625,-0.7270508,0.49658203,-0.061035156,0.12207031,0.0,0.0,0.0,0.0,-55.32715,28.26233,-11.920166
1766899820509,-0.4736328,-0.72998047,0.4970703,0.36621094,0.8544922,0.0,0.0,0.0,0.0,-55.32715,28.26233,-11.920166
1766899820521,-0.4736328,-0.72998047,0.4970703,0.36621094,0.8544922,0.0,0.0,0.0,0.0,-55.33264,28.24585,-11.920166
1766899820609,-0.4736328,-0.7285156,0.49414062,0.4272461,0.30517578,0.0,0.0,0.0,0.0,-55.33264,28.24585,-11.920166
1766899820620,-0.4736328,-0.7285156,0.49414062,0.4272461,0.30517578,0.0,0.0,0.0,0.0,-55.305176,28.21289,-11.8927
1766899820709,-0.4716797,-0.72509766,0.4970703,0.18310547,0.12207031,0.0,0.0,0.0,0.0,-55.305176,28.21289,-11.8927
1766899820721,-0.4716797,-0.72509766,0.4970703,0.18310547,0.12207031,0.0,0.0,0.0,0.0,-55.29419,28.196411,-11.870728
1766899820809,-0.47265625,-0.7265625,0.5004883,-0.12207031,0.4272461,-0.061035156,0.0,0.0,0.0,-55.29419,28.196411,-11.870728
1766899820822,-0.47265625,-0.7265625,0.5004883,-0.12207031,0.4272461,-0.061035156,0.0,0.0,0.0,-55.283203,28.190918,-11.881714
1766899820908,-0.47070312,-0.72753906,0.4970703,0.18310547,0.0,-0.061035156,0.0,0.0,0.0,-55.283203,28.190918,-11.881714
1766899820920,-0.47070312,-0.72753906,0.4970703,0.18310547,0.0,-0.061035156,0.0,0.0,0.0,-55.272217,28.174438,-11.881714
1766899821008,-0.47070312,-0.7260742,0.49658203,0.18310547,0.061035156,-0.061035156,0.0,0.0,0.0,-55.272217,28.174438,-11.881714
1766899821023,-0.47070312,-0.7260742,0.49658203,0.18310547,0.061035156,-0.061035156,0.0,0.0,0.0,-55.250244,28.163452,-11.887207
1766899821109,-0.4716797,-0.7270508,0.49902344,-0.18310547,0.0,0.061035156,0.0,0.0,0.0,-55.250244,28.163452,-11.887207
1766899821120,-0.4716797,-0.7270508,0.49902344,-0.18310547,0.0,0.061035156,0.0,0.0,0.0,-55.239258,28.146973,-11.887207
1766899821208,-0.46972656,-0.7260742,0.49804688,0.0,0.0,0.0,0.0,0.0,0.0,-55.239258,28.146973,-11.887207
1766899821219,-0.46972656,-0.7260742,0.49804688,0.0,0.0,0.0,0.0,0.0,0.0,-55.239258,28.130493,-11.887207
1766899821307,-0.46972656,-0.7285156,0.49902344,0.0,0.061035156,0.0,0.0,0.0,0.0,-55.239258,28.130493,-11.887207
1766899821318,-0.46972656,-0.7285156,0.49902344,0.0,0.061035156,0.0,0.0,0.0,0.0,-55.239258,28.114014,-11.887207
1766899821407,-0.46728516,-0.7241211,0.50439453,0.12207031,0.18310547,0.0,0.0,0.0,0.0,-55.239258,28.114014,-11.887207
1766899821418,-0.46728516,-0.7241211,0.50439453,0.12207031,0.18310547,0.0,0.0,0.0,0.0,-55.22827,28.092041,-11.876221
1766899821506,-0.4716797,-0.73095703,0.49902344,0.24414062,0.0,0.0,0.0,0.0,0.0,-55.22827,28.092041,-11.876221
1766899821518,-0.4716797,-0.73095703,0.49902344,0.24414062,0.0,0.0,0.0,0.0,0.0,-55.211792,28.070068,-11.859741
1766899821606,-0.46826172,-0.7270508,0.4975586,-0.18310547,0.36621094,-0.061035156,0.0,0.0,0.0,-55.211792,28.070068,-11.859741
1766899821618,-0.46826172,-0.7270508,0.4975586,-0.18310547,0.36621094,-0.061035156,0.0,0.0,0.0,-55.217285,28.059082,-11.859741
1766899821706,-0.47070312,-0.7285156,0.5,0.0,0.4272461,0.24414062,0.0,0.0,0.0,-55.217285,28.059082,-11.859741
1766899821717,-0.47070312,-0.7285156,0.5,0.0,0.4272461,0.24414062,0.0,0.0,0.0,-55.255737,28.092041,-11.903687
1766899821806,-0.46777344,-0.72753906,0.49951172,-0.061035156,0.0,0.24414062,0.0,0.0,0.0,-55.255737,28.092041,-11.903687
1766899821817,-0.46777344,-0.72753906,0.49951172,-0.061035156,0.0,0.24414062,0.0,0.0,0.0,-55.24475,28.114014,-11.90918
1766899821905,-0.4711914,-0.7270508,0.49951172,0.18310547,0.24414062,0.36621094,0.0,0.0,0.0,-55.24475,28.114014,-11.90918
1766899821917,-0.4711914,-0.7270508,0.49951172,0.18310547,0.24414062,0.36621094,0.0,0.0,0.0,-55.22278,28.135986,-11.914673
1766899822005,-0.46923828,-0.72753906,0.49804688,-0.061035156,0.12207031,0.24414062,0.0,0.0,0.0,-55.22278,28.135986,-11.914673
1766899822017,-0.46923828,-0.72753906,0.49804688,-0.061035156,0.12207031,0.24414062,0.0,0.0,0.0,-55.211792,28.146973,-11.925659
1766899822105,-0.4711914,-0.7260742,0.49853516,0.0,0.30517578,0.30517578,0.0,0.0,0.0,-55.211792,28.146973,-11.925659
1766899822116,-0.4711914,-0.7260742,0.49853516,0.0,0.30517578,0.30517578,0.0,0.0,0.0,-55.211792,28.174438,-11.9366455
1766899822204,-0.47216797,-0.7265625,0.49609375,-0.12207031,0.36621094,0.36621094,0.0,0.0,0.0,-55.211792,28.174438,-11.9366455
1766899822216,-0.47216797,-0.7265625,0.49609375,-0.12207031,0.36621094,0.36621094,0.0,0.0,0.0,-55.217285,28.201904,-11.953125
1766899822304,-0.47509766,-0.72802734,0.4892578,-0.48828125,-0.30517578,0.61035156,0.0,0.0,0.0,-55.217285,28.201904,-11.953125
1766899822317,-0.47509766,-0.72802734,0.4892578,-0.48828125,-0.30517578,0.61035156,0.0,0.0,0.0,-55.22278,28.223877,-11.953125
1766899822404,-0.4736328,-0.7260742,0.49853516,-0.7324219,-0.8544922,0.18310547,0.0,0.0,0.0,-55.22278,28.223877,-11.953125
1766899822416,-0.4736328,-0.7260742,0.49853516,-0.7324219,-0.8544922,0.18310547,0.0,0.0,0.0,-55.211792,28.218384,-11.958618
1766899822504,-0.46923828,-0.7260742,0.49951172,-0.30517578,-0.36621094,0.12207031,0.0,0.0,0.0,-55.211792,28.218384,-11.958618
1766899822515,-0.46923828,-0.7260742,0.49951172,-0.30517578,-0.36621094,0.12207031,0.0,0.0,0.0,-55.18982,28.21289,-11.931152
1766899822603,-0.47314453,-0.72558594,0.49902344,0.0,0.061035156,0.12207031,0.0,0.0,0.0,-55.18982,28.21289,-11.931152
1766899822615,-0.47314453,-0.72558594,0.49902344,0.0,0.061035156,0.12207031,0.0,0.0,0.0,-55.17334,28.207397,-11.942139
1766899822703,-0.46826172,-0.7216797,0.4951172,0.061035156,-0.12207031,0.12207031,0.0,0.0,0.0,-55.17334,28.207397,-11.942139
1766899822714,-0.46826172,-0.7216797,0.4951172,0.061035156,-0.12207031,0.12207031,0.0,0.0,0.0,-55.145874,28.218384,-11.958618
1766899822803,-0.4736328,-0.7265625,0.5,0.12207031,0.30517578,0.18310547,0.0,0.0,0.0,-55.145874,28.218384,-11.958618
1766899822814,-0.4736328,-0.7265625,0.5,0.12207031,0.30517578,0.18310547,0.0,0.0,0.0,-55.145874,28.218384,-11.975098
1766899822902,-0.47070312,-0.72509766,0.49951172,-0.24414062,0.30517578,0.0,0.0,0.0,0.0,-55.145874,28.218384,-11.975098
1766899822914,-0.47070312,-0.72509766,0.49951172,-0.24414062,0.30517578,0.0,0.0,0.0,0.0,-55.145874,28.218384,-11.99707
1766899823003,-0.47314453,-0.72509766,0.49951172,-0.30517578,0.30517578,0.0,0.0,0.0,0.0,-55.145874,28.218384,-11.99707
1766899823014,-0.47314453,-0.72509766,0.49951172,-0.30517578,0.30517578,0.0,0.0,0.0,0.0,-55.178833,28.223877,-12.035522
1766899823102,-0.47216797,-0.7265625,0.49658203,-0.12207031,0.61035156,0.0,0.0,0.0,0.0,-55.178833,28.223877,-12.035522
1766899823114,-0.47216797,-0.7265625,0.49658203,-0.12207031,0.61035156,0.0,0.0,0.0,0.0,-55.200806,28.223877,-12.068481
1766899823202,-0.47509766,-0.72558594,0.4946289,0.4272461,0.4272461,-0.12207031,0.0,0.0,0.0,-55.200806,28.223877,-12.068481
1766899823214,-0.47509766,-0.72558594,0.4946289,0.4272461,0.4272461,-0.12207031,0.0,0.0,0.0,-55.211792,28.22937,-12.095947
1766899823301,-0.46972656,-0.7236328,0.49560547,0.0,0.30517578,0.12207031,0.0,0.0,0.0,-55.211792,28.22937,-12.095947
1766899823313,-0.46972656,-0.7236328,0.49560547,0.0,0.30517578,0.12207031,0.0,0.0,0.0,-55.200806,28.207397,-12.084961
1766899823403,-0.4736328,-0.7260742,0.49902344,0.18310547,0.36621094,0.0,0.0,0.0,0.0,-55.200806,28.207397,-12.084961
1766899823412,-0.4736328,-0.7260742,0.49902344,0.18310547,0.36621094,0.0,0.0,0.0,0.0,-55.2063,28.196411,-12.084961
1766899823501,-0.4741211,-0.7294922,0.49804688,-0.12207031,0.4272461,0.0,0.0,0.0,0.0,-55.2063,28.196411,-12.084961
1766899823512,-0.4741211,-0.7294922,0.49804688,-0.12207031,0.4272461,0.0,0.0,0.0,0.0,-55.211792,28.190918,-12.10144
1766899823601,-0.47314453,-0.7265625,0.5,0.0,0.12207031,0.0,0.0,0.0,0.0,-55.211792,28.190918,-12.10144
1766899823612,-0.47314453,-0.7265625,0.5,0.0,0.12207031,0.0,0.0,0.0,0.0,-55.200806,28.179932,-12.10144
1766899823700,-0.4711914,-0.7260742,0.49853516,0.24414062,0.0,0.0,0.0,0.0,0.0,-55.200806,28.179932,-12.10144
1766899823711,-0.4711914,-0.7260742,0.49853516,0.24414062,0.0,0.0,0.0,0.0,0.0,-55.167847,28.163452,-12.10144
1766899823800,-0.4716797,-0.72558594,0.5,0.0,0.0,0.0,0.0,0.0,0.0,-55.167847,28.163452,-12.10144
1766899823811,-0.4716797,-0.72558594,0.5,0.0,0.0,0.0,0.0,0.0,0.0,-55.15686,28.146973,-12.10144
1766899823899,-0.4711914,-0.7260742,0.5,-0.061035156,0.0,0.0,0.0,0.0,0.0,-55.15686,28.146973,-12.10144
1766899823911,-0.4711914,-0.7260742,0.5,-0.061035156,0.0,0.0,0.0,0.0,0.0,-55.145874,28.135986,-12.10144
1766899823999,-0.46923828,-0.72558594,0.50097656,0.0,0.0,0.0,0.0,0.0,0.0,-55.145874,28.135986,-12.10144
1766899824011,-0.46923828,-0.72558594,0.50097656,0.0,0.0,0.0,0.0,0.0,0.0,-55.14038,28.119507,-12.10144
1766899824099,-0.46923828,-0.72802734,0.50390625,0.30517578,0.79345703,0.0,0.0,0.0,0.0,-55.14038,28.119507,-12.10144
1766899824110,-0.46923828,-0.72802734,0.50390625,0.30517578,0.79345703,0.0,0.0,0.0,0.0,-55.134888,28.097534,-12.095947
1766899824199,-0.4711914,-0.72802734,0.4975586,0.4272461,0.18310547,0.0,0.0,0.0,0.0,-55.134888,28.097534,-12.095947
1766899824211,-0.4711914,-0.72802734,0.4975586,0.4272461,0.18310547,0.0,0.0,0.0,0.0,-55.10193,28.070068,-12.068481
1766899824298,-0.46972656,-0.7246094,0.50097656,0.061035156,0.18310547,0.0,0.0,0.0,0.0,-55.10193,28.070068,-12.068481
1766899824312,-0.46972656,-0.7246094,0.50097656,0.061035156,0.18310547,0.0,0.0,0.0,0.0,-55.10193,28.048096,-12.057495
1766899824398,-0.46972656,-0.7260742,0.5029297,0.0,0.4272461,0.0,0.0,0.0,0.0,-55.10193,28.048096,-12.057495
1766899824410,-0.46972656,-0.7260742,0.5029297,0.0,0.4272461,0.0,0.0,0.0,0.0,-55.10193,28.042603,-12.084961
1766899824498,-0.47021484,-0.7260742,0.5004883,0.061035156,0.12207031,0.0,0.0,0.0,0.0,-55.10193,28.042603,-12.084961
1766899824510,-0.47021484,-0.7260742,0.5004883,0.061035156,0.12207031,0.0,0.0,0.0,0.0,-55.096436,28.03711,-12.095947
1766899824597,-0.4736328,-0.72802734,0.4970703,0.30517578,-0.36621094,0.0,0.0,0.0,0.0,-55.096436,28.03711,-12.095947
1766899824609,-0.4736328,-0.72802734,0.4970703,0.30517578,-0.36621094,0.0,0.0,0.0,0.0,-55.079956,28.026123,-12.106934
1766899824697,-0.4711914,-0.72265625,0.5,0.0,0.30517578,-0.061035156,0.0,0.0,0.0,-55.079956,28.026123,-12.106934
1766899824709,-0.4711914,-0.72265625,0.5,0.0,0.30517578,-0.061035156,0.0,0.0,0.0,-55.05249,28.026123,-12.112427
1766899824797,-0.46923828,-0.7241211,0.5024414,-0.5493164,0.36621094,-0.18310547,0.0,0.0,0.0,-55.05249,28.026123,-12.112427
1766899824808,-0.46923828,-0.7241211,0.5024414,-0.5493164,0.36621094,-0.18310547,0.0,0.0,0.0,-55.08545,28.015137,-12.134399
1766899824897,-0.46777344,-0.72802734,0.5004883,-0.61035156,0.5493164,0.0,0.0,0.0,0.0,-55.08545,28.015137,-12.134399
1766899824908,-0.46777344,-0.72802734,0.5004883,-0.61035156,0.5493164,0.0,0.0,0.0,0.0,-55.145874,28.009644,-12.178345
1766899824996,-0.4736328,-0.7314453,0.4975586,-0.48828125,0.6713867,0.24414062,0.0,0.0,0.0,-55.145874,28.009644,-12.178345
1766899825009,-0.4736328,-0.7314453,0.4975586,-0.48828125,0.6713867,0.24414062,0.0,0.0,0.0,-55.22278,28.031616,-12.23877
1766899825096,-0.46923828,-0.7216797,0.49560547,-0.12207031,-0.12207031,-0.12207031,0.0,0.0,0.0,-55.22278,28.031616,-12.23877
1766899825108,-0.46923828,-0.7216797,0.49560547,-0.12207031,-0.12207031,-0.12207031,0.0,0.0,0.0,-55.26123,28.053589,-12.260742
1766899825196,-0.4663086,-0.72802734,0.4970703,-0.6713867,0.0,0.36621094,0.0,0.0,0.0,-55.26123,28.053589,-12.260742
1766899825207,-0.4663086,-0.72802734,0.4970703,-0.6713867,0.0,0.36621094,0.0,0.0,0.0,-55.283203,28.048096,-12.2717285
1766899825296,-0.4716797,-0.72802734,0.4975586,0.0,0.4272461,0.30517578,0.0,0.0,0.0,-55.283203,28.048096,-12.2717285
1766899825307,-0.4716797,-0.72802734,0.4975586,0.0,0.4272461,0.30517578,0.0,0.0,0.0,-55.299683,28.053589,-12.2717285
1766899825395,-0.47070312,-0.72558594,0.49365234,0.12207031,0.6713867,0.12207031,0.0,0.0,0.0,-55.299683,28.053589,-12.2717285
1766899825407,-0.47070312,-0.72558594,0.49365234,0.12207031,0.6713867,0.12207031,0.0,0.0,0.0,-55.299683,28.081055,-12.3046875
1766899825495,-0.46923828,-0.7290039,0.49902344,0.0,0.30517578,0.18310547,0.0,0.0,0.0,-55.299683,28.081055,-12.3046875
1766899825510,-0.46923828,-0.7290039,0.49902344,0.0,0.30517578,0.18310547,0.0,0.0,0.0,-55.299683,28.092041,-12.332153
1766899825596,-0.4716797,-0.7265625,0.49560547,0.0,0.18310547,0.061035156,0.0,0.0,0.0,-55.299683,28.092041,-12.332153
1766899825606,-0.4716797,-0.7265625,0.49560547,0.0,0.18310547,0.061035156,0.0,0.0,0.0,-55.283203,28.103027,-12.354126
1766899825695,-0.46826172,-0.7265625,0.4970703,-0.12207031,-0.12207031,0.18310547,0.0,0.0,0.0,-55.283203,28.103027,-12.354126
1766899825706,-0.46826172,-0.7265625,0.4970703,-0.12207031,-0.12207031,0.18310547,0.0,0.0,0.0,-55.272217,28.092041,-12.332153
1766899825794,-0.4711914,-0.7270508,0.49902344,-0.18310547,-0.12207031,0.18310547,0.0,0.0,0.0,-55.272217,28.092041,-12.332153
1766899825806,-0.4711914,-0.7270508,0.49902344,-0.18310547,-0.12207031,0.18310547,0.0,0.0,0.0,-55.27771,28.086548,-12.315674
1766899825894,-0.46923828,-0.72558594,0.4951172,0.36621094,0.061035156,0.30517578,0.0,0.0,0.0,-55.27771,28.086548,-12.315674
1766899825905,-0.46923828,-0.72558594,0.4951172,0.36621094,0.061035156,0.30517578,0.0,0.0,0.0,-55.250244,28.070068,-12.3046875
1766899825994,-0.47314453,-0.7260742,0.49609375,-0.061035156,0.061035156,0.061035156,0.0,0.0,0.0,-55.250244,28.070068,-12.3046875
1766899826005,-0.47314453,-0.7260742,0.49609375,-0.061035156,0.061035156,0.061035156,0.0,0.0,0.0,-55.24475,28.075562,-12.315674
1766899826093,-0.46435547,-0.7260742,0.4951172,-0.30517578,-0.061035156,0.18310547,0.0,0.0,0.0,-55.24475,28.075562,-12.315674
1766899826105,-0.46435547,-0.7260742,0.4951172,-0.30517578,-0.061035156,0.18310547,0.0,0.0,0.0,-55.217285,28.070068,-12.277222
1766899826193,-0.47021484,-0.7265625,0.49853516,-0.18310547,0.6713867,0.0,0.0,0.0,0.0,-55.217285,28.070068,-12.277222
1766899826204,-0.47021484,-0.7265625,0.49853516,-0.18310547,0.6713867,0.0,0.0,0.0,0.0,-55.239258,28.059082,-12.293701
1766899826293,-0.47021484,-0.72753906,0.49609375,-0.12207031,0.8544922,0.12207031,0.0,0.0,0.0,-55.239258,28.059082,-12.293701
1766899826304,-0.47021484,-0.72753906,0.49609375,-0.12207031,0.8544922,0.12207031,0.0,0.0,0.0,-55.272217,28.086548,-12.348633
1766899826392,-0.4711914,-0.7290039,0.49902344,0.0,0.79345703,-0.18310547,0.0,0.0,0.0,-55.272217,28.086548,-12.348633
1766899826406,-0.4711914,-0.7290039,0.49902344,0.0,0.79345703,-0.18310547,0.0,0.0,0.0,-55.29419,28.092041,-12.398071
1766899826492,-0.47021484,-0.72509766,0.4951172,0.0,0.4272461,0.061035156,0.0,0.0,0.0,-55.29419,28.092041,-12.398071
1766899826504,-0.47021484,-0.72509766,0.4951172,0.0,0.4272461,0.061035156,0.0,0.0,0.0,-55.31067,28.103027,-12.436523
1766899826592,-0.46679688,-0.72802734,0.49609375,-0.12207031,0.30517578,0.0,0.0,0.0,0.0,-55.31067,28.103027,-12.436523
1766899826603,-0.46679688,-0.72802734,0.49609375,-0.12207031,0.30517578,0.0,0.0,0.0,0.0,-55.321655,28.097534,-12.44751
1766899826692,-0.46972656,-0.7260742,0.49951172,-0.4272461,0.30517578,0.0,0.0,0.0,0.0,-55.321655,28.097534,-12.44751
1766899826703,-0.46972656,-0.7260742,0.49951172,-0.4272461,0.30517578,0.0,0.0,0.0,0.0,-55.354614,28.097534,-12.474976
1766899826791,-0.4736328,-0.7294922,0.49267578,0.18310547,0.061035156,0.0,0.0,0.0,0.0,-55.354614,28.097534,-12.474976
1766899826803,-0.4736328,-0.7294922,0.49267578,0.18310547,0.061035156,0.0,0.0,0.0,0.0,-55.34912,28.097534,-12.496948
1766899826891,-0.46972656,-0.72558594,0.49560547,0.18310547,0.0,0.0,0.0,0.0,0.0,-55.34912,28.097534,-12.496948
1766899826902,-0.46972656,-0.72558594,0.49560547,0.18310547,0.0,0.0,0.0,0.0,0.0,-55.33264,28.092041,-12.502441
1766899826991,-0.46826172,-0.72509766,0.49365234,-0.4272461,0.0,0.061035156,0.0,0.0,0.0,-55.33264,28.092041,-12.502441
1766899827002,-0.46826172,-0.72509766,0.49365234,-0.4272461,0.0,0.061035156,0.0,0.0,0.0,-55.316162,28.064575,-12.474976
1766899827091,-0.46972656,-0.73046875,0.49853516,-0.061035156,0.061035156,0.061035156,0.0,0.0,0.0,-55.316162,28.064575,-12.474976
1766899827102,-0.46972656,-0.73046875,0.49853516,-0.061035156,0.061035156,0.061035156,0.0,0.0,0.0,-55.32715,28.053589,-12.474976
1766899827190,-0.47265625,-0.7246094,0.49804688,0.061035156,0.4272461,0.061035156,0.0,0.0,0.0,-55.32715,28.053589,-12.474976
1766899827202,-0.47265625,-0.7246094,0.49804688,0.061035156,0.4272461,0.061035156,0.0,0.0,0.0,-55.33264,28.059082,-12.502441
1766899827290,-0.46923828,-0.7319336,0.49804688,-0.061035156,0.12207031,0.0,0.0,0.0,0.0,-55.33264,28.059082,-12.502441
1766899827301,-0.46923828,-0.7319336,0.49804688,-0.061035156,0.12207031,0.0,0.0,0.0,0.0,-55.321655,28.048096,-12.491455
1766899827390,-0.46679688,-0.7236328,0.5029297,0.061035156,-0.79345703,0.0,0.0,0.0,0.0,-55.321655,28.048096,-12.491455
1766899827401,-0.46679688,-0.7236328,0.5029297,0.061035156,-0.79345703,0.0,0.0,0.0,0.0,-55.299683,28.02063,-12.469482
1766899827489,-0.46777344,-0.7265625,0.4970703,0.0,0.0,-0.24414062,0.0,0.0,0.0,-55.299683,28.02063,-12.469482
1766899827501,-0.46777344,-0.7265625,0.4970703,0.0,0.0,-0.24414062,0.0,0.0,0.0,-55.283203,28.009644,-12.442017
1766899827589,-0.46484375,-0.73095703,0.49658203,0.061035156,-0.18310547,0.18310547,0.0,0.0,0.0,-55.283203,28.009644,-12.442017
1766899827600,-0.46484375,-0.73095703,0.49658203,0.061035156,-0.18310547,0.18310547,0.0,0.0,0.0,-55.266724,27.998657,-12.442017
1766899827689,-0.4663086,-0.72314453,0.49951172,0.0,-0.9765625,0.36621094,0.0,0.0,0.0,-55.266724,27.998657,-12.442017
1766899827700,-0.4663086,-0.72314453,0.49951172,0.0,-0.9765625,0.36621094,0.0,0.0,0.0,-55.233765,27.971191,-12.398071
1766899827788,-0.4638672,-0.72265625,0.50390625,0.12207031,-0.30517578,-0.30517578,0.0,0.0,0.0,-55.233765,27.971191,-12.398071
1766899827800,-0.4638672,-0.72265625,0.50390625,0.12207031,-0.30517578,-0.30517578,0.0,0.0,0.0,-55.167847,27.960205,-12.32666
1766899827888,-0.46826172,-0.7319336,0.50439453,0.4272461,0.0,0.12207031,0.0,0.0,0.0,-55.167847,27.960205,-12.32666
1766899827900,-0.46826172,-0.7319336,0.50439453,0.4272461,0.0,0.12207031,0.0,0.0,0.0,-55.134888,27.905273,-12.288208
1766899827989,-0.4609375,-0.72509766,0.50146484,0.18310547,0.36621094,-0.18310547,0.0,0.0,0.0,-55.134888,27.905273,-12.288208
1766899828000,-0.4609375,-0.72509766,0.50146484,0.18310547,0.36621094,-0.18310547,0.0,0.0,0.0,-55.10742,27.888794,-12.277222
1766899828087,-0.47021484,-0.7324219,0.5029297,-0.18310547,0.18310547,-0.061035156,0.0,0.0,0.0,-55.10742,27.888794,-12.277222
1766899828100,-0.47021484,-0.7324219,0.5029297,-0.18310547,0.18310547,-0.061035156,0.0,0.0,0.0,-55.134888,27.91626,-12.381592
1766899828187,-0.46679688,-0.7265625,0.49658203,-0.24414062,-0.12207031,0.061035156,0.0,0.0,0.0,-55.134888,27.91626,-12.381592
1766899828199,-0.46679688,-0.7265625,0.49658203,-0.24414062,-0.12207031,0.061035156,0.0,0.0,0.0,-55.129395,27.89978,-12.381592
1766899828287,-0.46826172,-0.72998047,0.49853516,-0.36621094,0.79345703,0.0,0.0,0.0,0.0,-55.129395,27.89978,-12.381592
1766899828298,-0.46826172,-0.72998047,0.49853516,-0.36621094,0.79345703,0.0,0.0,0.0,0.0,-55.15686,27.905273,-12.43103
1766899828387,-0.46826172,-0.72753906,0.49951172,-0.36621094,0.5493164,0.24414062,0.0,0.0,0.0,-55.15686,27.905273,-12.43103
1766899828398,-0.46826172,-0.72753906,0.49951172,-0.36621094,0.5493164,0.24414062,0.0,0.0,0.0,-55.195312,27.927246,-12.463989
1766899828487,-0.46484375,-0.7260742,0.5,0.12207031,0.24414062,0.061035156,0.0,0.0,0.0,-55.195312,27.927246,-12.463989
1766899828498,-0.46484375,-0.7260742,0.5,0.12207031,0.24414062,0.061035156,0.0,0.0,0.0,-55.195312,27.943726,-12.469482
1766899828586,-0.46923828,-0.72802734,0.5004883,-0.12207031,0.61035156,0.24414062,0.0,0.0,0.0,-55.195312,27.943726,-12.469482
1766899828597,-0.46923828,-0.72802734,0.5004883,-0.12207031,0.61035156,0.24414062,0.0,0.0,0.0,-55.2063,27.965698,-12.518921
1766899828686,-0.4663086,-0.7265625,0.49804688,0.0,0.36621094,0.12207031,0.0,0.0,0.0,-55.2063,27.965698,-12.518921
1766899828697,-0.4663086,-0.7265625,0.49804688,0.0,0.36621094,0.12207031,0.0,0.0,0.0,-55.2063,27.982178,-12.524414
1766899828785,-0.46679688,-0.72753906,0.49804688,0.48828125,0.7324219,-0.12207031,0.0,0.0,0.0,-55.2063,27.982178,-12.524414
1766899828797,-0.46679688,-0.72753906,0.49804688,0.48828125,0.7324219,-0.12207031,0.0,0.0,0.0,-55.2063,28.00415,-12.5354
1766899828885,-0.46435547,-0.7265625,0.49609375,0.48828125,0.0,0.18310547,0.0,0.0,0.0,-55.2063,28.00415,-12.5354
1766899828897,-0.46435547,-0.7265625,0.49609375,0.48828125,0.0,0.18310547,0.0,0.0,0.0,-55.17334,27.982178,-12.513428
1766899828985,-0.46923828,-0.72558594,0.50146484,0.18310547,0.48828125,0.061035156,0.0,0.0,0.0,-55.17334,27.982178,-12.513428
1766899828996,-0.46923828,-0.72558594,0.50146484,0.18310547,0.48828125,0.061035156,0.0,0.0,0.0,-55.15686,27.976685,-12.513428
1766899829085,-0.47021484,-0.72753906,0.5,0.12207031,0.91552734,0.12207031,0.0,0.0,0.0,-55.15686,27.976685,-12.513428
1766899829096,-0.47021484,-0.72753906,0.5,0.12207031,0.91552734,0.12207031,0.0,0.0,0.0,-55.15686,27.993164,-12.546387
1766899829184,-0.46728516,-0.7260742,0.50146484,0.12207031,0.48828125,0.18310547,0.0,0.0,0.0,-55.15686,27.993164,-12.546387
1766899829196,-0.46728516,-0.7260742,0.50146484,0.12207031,0.48828125,0.18310547,0.0,0.0,0.0,-55.14038,28.009644,-12.579346
1766899829284,-0.46875,-0.7246094,0.49804688,0.18310547,0.36621094,0.0,0.0,0.0,0.0,-55.14038,28.009644,-12.579346
1766899829296,-0.46875,-0.7246094,0.49804688,0.18310547,0.36621094,0.0,0.0,0.0,0.0,-55.1239,28.02063,-12.606812
1766899829384,-0.4663086,-0.72314453,0.49951172,0.12207031,0.18310547,0.0,0.0,0.0,0.0,-55.1239,28.02063,-12.606812
1766899829395,-0.4663086,-0.72314453,0.49951172,0.12207031,0.18310547,0.0,0.0,0.0,0.0,-55.11841,28.009644,-12.617798
1766899829484,-0.46923828,-0.7260742,0.50097656,-0.18310547,0.18310547,0.0,0.0,0.0,0.0,-55.11841,28.009644,-12.617798
1766899829495,-0.46923828,-0.7260742,0.50097656,-0.18310547,0.18310547,0.0,0.0,0.0,0.0,-55.1239,28.00415,-12.6397705
1766899829583,-0.47070312,-0.72802734,0.5004883,-0.061035156,0.24414062,0.0,0.0,0.0,0.0,-55.1239,28.00415,-12.6397705
1766899829595,-0.47070312,-0.72802734,0.5004883,-0.061035156,0.24414062,0.0,0.0,0.0,0.0,-55.134888,27.998657,-12.650757
1766899829683,-0.4716797,-0.72314453,0.49609375,-0.12207031,-0.061035156,0.061035156,0.0,0.0,0.0,-55.134888,27.998657,-12.650757
1766899829698,-0.4716797,-0.72314453,0.49609375,-0.12207031,-0.061035156,0.061035156,0.0,0.0,0.0,-55.14038,28.00415,-12.65625
1766899829783,-0.46289062,-0.72509766,0.49853516,-0.30517578,-0.061035156,0.4272461,0.0,0.0,0.0,-55.14038,28.00415,-12.65625
1766899829794,-0.46289062,-0.72509766,0.49853516,-0.30517578,-0.061035156,0.4272461,0.0,0.0,0.0,-55.129395,27.98767,-12.612305
1766899829882,-0.47216797,-0.7265625,0.50097656,0.0,0.12207031,0.36621094,0.0,0.0,0.0,-55.129395,27.98767,-12.612305
1766899829894,-0.47216797,-0.7265625,0.50097656,0.0,0.12207031,0.36621094,0.0,0.0,0.0,-55.11841,27.98767,-12.590332
1766899829982,-0.46728516,-0.72265625,0.5019531,0.48828125,0.5493164,0.30517578,0.0,0.0,0.0,-55.11841,27.98767,-12.590332
1766899829993,-0.46728516,-0.72265625,0.5019531,0.48828125,0.5493164,0.30517578,0.0,0.0,0.0,-55.08545,28.015137,-12.562866
1766899830082,-0.46923828,-0.73046875,0.5019531,0.0,0.0,0.18310547,0.0,0.0,0.0,-55.08545,28.015137,-12.562866
1766899830096,-0.46923828,-0.73046875,0.5019531,0.0,0.0,0.18310547,0.0,0.0,0.0,-55.06897,28.015137,-12.568359
1766899830182,-0.46826172,-0.7207031,0.5019531,0.18310547,-0.12207031,0.0,0.0,0.0,0.0,-55.06897,28.015137,-12.568359
1766899830193,-0.46826172,-0.7207031,0.5019531,0.18310547,-0.12207031,0.0,0.0,0.0,0.0,-55.01953,28.02063,-12.55188
1766899830281,-0.4711914,-0.72509766,0.50097656,-0.24414062,0.0,0.18310547,0.0,0.0,0.0,-55.01953,28.02063,-12.55188
1766899830293,-0.4711914,-0.72509766,0.50097656,-0.24414062,0.0,0.18310547,0.0,0.0,0.0,-55.00305,28.009644,-12.546387
1766899830381,-0.46826172,-0.72216797,0.5024414,-0.12207031,0.0,-0.061035156,0.0,0.0,0.0,-55.00305,28.009644,-12.546387
1766899830392,-0.46826172,-0.72216797,0.5024414,-0.12207031,0.0,-0.061035156,0.0,0.0,0.0,-55.00305,27.993164,-12.5354
1766899830481,-0.46875,-0.72802734,0.5024414,-0.24414062,0.12207031,-0.24414062,0.0,0.0,0.0,-55.00305,27.993164,-12.5354
1766899830492,-0.46875,-0.72802734,0.5024414,-0.24414062,0.12207031,-0.24414062,0.0,0.0,0.0,-55.025024,27.965698,-12.546387
1766899830580,-0.46777344,-0.7211914,0.5083008,-0.061035156,-0.12207031,-0.18310547,0.0,0.0,0.0,-55.025024,27.965698,-12.546387
1766899830592,-0.46777344,-0.7211914,0.5083008,-0.061035156,-0.12207031,-0.18310547,0.0,0.0,0.0,-55.03601,27.938232,-12.546387
1766899830680,-0.46533203,-0.7324219,0.50634766,0.24414062,-0.30517578,0.0,0.0,0.0,0.0,-55.03601,27.938232,-12.546387
1766899830692,-0.46533203,-0.7324219,0.50634766,0.24414062,-0.30517578,0.0,0.0,0.0,0.0,-54.986572,27.888794,-12.502441
1766899830780,-0.46435547,-0.7260742,0.5048828,0.0,-0.48828125,0.0,0.0,0.0,0.0,-54.986572,27.888794,-12.502441
1766899830791,-0.46435547,-0.7260742,0.5048828,0.0,-0.48828125,0.0,0.0,0.0,0.0,-54.970093,27.855835,-12.474976
1766899830880,-0.46435547,-0.72314453,0.5048828,-0.12207031,-0.061035156,0.12207031,0.0,0.0,0.0,-54.970093,27.855835,-12.474976
1766899830891,-0.46435547,-0.72314453,0.5048828,-0.12207031,-0.061035156,0.12207031,0.0,0.0,0.0,-54.953613,27.855835,-12.480469
1766899830979,-0.46679688,-0.7270508,0.50341797,-0.24414062,0.12207031,0.061035156,0.0,0.0,0.0,-54.953613,27.855835,-12.480469
1766899830991,-0.46679688,-0.7270508,0.50341797,-0.24414062,0.12207031,0.061035156,0.0,0.0,0.0,-54.9646,27.855835,-12.502441
1766899831079,-0.46533203,-0.72753906,0.5029297,0.4272461,0.061035156,0.18310547,0.0,0.0,0.0,-54.9646,27.855835,-12.502441
1766899831092,-0.46533203,-0.72753906,0.5029297,0.4272461,0.061035156,0.18310547,0.0,0.0,0.0,-54.937134,27.866821,-12.502441
1766899831179,-0.46826172,-0.72265625,0.50439453,0.0,0.6713867,0.18310547,0.0,0.0,0.0,-54.937134,27.866821,-12.502441
1766899831190,-0.46826172,-0.72265625,0.50439453,0.0,0.6713867,0.18310547,0.0,0.0,0.0,-54.909668,27.8833,-12.546387
1766899831278,-0.46826172,-0.72753906,0.5019531,0.0,0.6713867,0.061035156,0.0,0.0,0.0,-54.909668,27.8833,-12.546387
1766899831290,-0.46826172,-0.72753906,0.5019531,0.0,0.6713867,0.061035156,0.0,0.0,0.0,-54.93164,27.91626,-12.590332
1766899831378,-0.46777344,-0.72509766,0.50439453,0.7324219,0.6713867,0.18310547,0.0,0.0,0.0,-54.93164,27.91626,-12.590332
1766899831390,-0.46777344,-0.72509766,0.50439453,0.7324219,0.6713867,0.18310547,0.0,0.0,0.0,-54.904175,27.943726,-12.645264
1766899831478,-0.46777344,-0.7246094,0.50390625,1.8310547,1.0375977,0.48828125,0.0,0.0,0.0,-54.904175,27.943726,-12.645264
1766899831489,-0.46777344,-0.7246094,0.50390625,1.8310547,1.0375977,0.48828125,0.0,0.0,0.0,-54.783325,27.998657,-12.694702
1766899831577,-0.47021484,-0.7207031,0.5107422,2.319336,1.6479492,0.24414062,0.0,0.0,0.0,-54.783325,27.998657,-12.694702
1766899831589,-0.47021484,-0.7207031,0.5107422,2.319336,1.6479492,0.24414062,0.0,0.0,0.0,-54.61853,28.075562,-12.733154
1766899831677,-0.4716797,-0.7216797,0.5048828,1.8920898,0.7324219,0.5493164,0.0,0.0,0.0,-54.61853,28.075562,-12.733154
1766899831689,-0.4716797,-0.7216797,0.5048828,1.8920898,0.7324219,0.5493164,0.0,0.0,0.0,-54.448242,28.103027,-12.727661
1766899831777,-0.47216797,-0.71728516,0.5136719,0.6713867,1.4648438,0.61035156,0.0,0.0,0.0,-54.448242,28.103027,-12.727661
1766899831788,-0.47216797,-0.71728516,0.5136719,0.6713867,1.4648438,0.61035156,0.0,0.0,0.0,-54.37683,28.190918,-12.76062
1766899831876,-0.47802734,-0.7216797,0.51123047,2.2583008,0.6713867,1.0986328,0.0,0.0,0.0,-54.37683,28.190918,-12.76062
1766899831888,-0.47802734,-0.7216797,0.51123047,2.2583008,0.6713867,1.0986328,0.0,0.0,0.0,-54.25598,28.311768,-12.799072
1766899831976,-0.47607422,-0.71484375,0.5131836,3.540039,1.2817383,1.5258789,0.0,0.0,0.0,-54.25598,28.311768,-12.799072
1766899831988,-0.47607422,-0.71484375,0.5131836,3.540039,1.2817383,1.5258789,0.0,0.0,0.0,-53.94287,28.482056,-12.782593
1766899832076,-0.48095703,-0.70458984,0.51708984,2.5024414,0.6713867,1.159668,0.0,0.0,0.0,-53.94287,28.482056,-12.782593
1766899832090,-0.48095703,-0.70458984,0.51708984,2.5024414,0.6713867,1.159668,0.0,0.0,0.0,-53.668213,28.624878,-12.793579
1766899832176,-0.46777344,-0.7001953,0.52001953,0.48828125,0.9765625,1.0375977,0.0,0.0,0.0,-53.668213,28.624878,-12.793579
1766899832188,-0.46777344,-0.7001953,0.52001953,0.48828125,0.9765625,1.0375977,0.0,0.0,0.0,-53.514404,28.712769,-12.755127
1766899832276,-0.4897461,-0.7080078,0.5151367,-0.12207031,0.12207031,0.30517578,0.0,0.0,0.0,-53.514404,28.712769,-12.755127
1766899832287,-0.4897461,-0.7080078,0.5151367,-0.12207031,0.12207031,0.30517578,0.0,0.0,0.0,-53.547363,28.811646,-12.826538
1766899832375,-0.48779297,-0.70166016,0.5161133,-0.061035156,0.91552734,0.4272461,0.0,0.0,0.0,-53.547363,28.811646,-12.826538
1766899832387,-0.48779297,-0.70166016,0.5161133,-0.061035156,0.91552734,0.4272461,0.0,0.0,0.0,-53.530884,28.866577,-12.859497
1766899832475,-0.484375,-0.7084961,0.5102539,-0.48828125,-0.30517578,0.79345703,0.0,0.0,0.0,-53.530884,28.866577,-12.859497
1766899832487,-0.484375,-0.7084961,0.5102539,-0.48828125,-0.30517578,0.79345703,0.0,0.0,0.0,-53.530884,28.877563,-12.854004
1766899832575,-0.49121094,-0.69677734,0.5161133,-0.7324219,-0.48828125,-0.061035156,0.0,0.0,0.0,-53.530884,28.877563,-12.854004
1766899832586,-0.49121094,-0.69677734,0.5161133,-0.7324219,-0.48828125,-0.061035156,0.0,0.0,0.0,-53.52539,28.910522,-12.886963
1766899832674,-0.4716797,-0.703125,0.51416016,-0.30517578,0.18310547,0.36621094,0.0,0.0,0.0,-53.52539,28.910522,-12.886963
1766899832686,-0.4716797,-0.703125,0.51416016,-0.30517578,0.18310547,0.36621094,0.0,0.0,0.0,-53.481445,28.899536,-12.832031
1766899832775,-0.48242188,-0.7060547,0.5161133,-0.5493164,-0.18310547,-0.24414062,0.0,0.0,0.0,-53.481445,28.899536,-12.832031
1766899832790,-0.48242188,-0.7060547,0.5161133,-0.5493164,-0.18310547,-0.24414062,0.0,0.0,0.0,-53.552856,28.894043,-12.892456
1766899832874,-0.48046875,-0.7084961,0.5151367,-0.30517578,0.36621094,0.30517578,0.0,0.0,0.0,-53.552856,28.894043,-12.892456
1766899832885,-0.48046875,-0.7084961,0.5151367,-0.30517578,0.36621094,0.30517578,0.0,0.0,0.0,-53.57483,28.943481,-12.914429
1766899832974,-0.48339844,-0.7109375,0.51416016,-0.12207031,-0.36621094,-0.061035156,0.0,0.0,0.0,-53.57483,28.943481,-12.914429
1766899832985,-0.48339844,-0.7109375,0.51416016,-0.12207031,-0.36621094,-0.061035156,0.0,0.0,0.0,-53.607788,28.927002,-12.963867
1766899833073,-0.49169922,-0.703125,0.515625,-0.79345703,0.30517578,0.24414062,0.0,0.0,0.0,-53.607788,28.927002,-12.963867
1766899833085,-0.49169922,-0.703125,0.515625,-0.79345703,0.30517578,0.24414062,0.0,0.0,0.0,-53.61328,28.97644,-13.002319
1766899833173,-0.48095703,-0.70410156,0.50927734,0.30517578,0.8544922,0.30517578,0.0,0.0,0.0,-53.61328,28.97644,-13.002319
1766899833184,-0.48095703,-0.70410156,0.50927734,0.30517578,0.8544922,0.30517578,0.0,0.0,0.0,-53.61328,28.981934,-13.029785
1766899833273,-0.4892578,-0.7080078,0.5136719,0.36621094,0.061035156,0.30517578,0.0,0.0,0.0,-53.61328,28.981934,-13.029785
1766899833284,-0.4892578,-0.7080078,0.5136719,0.36621094,0.061035156,0.30517578,0.0,0.0,0.0,-53.602295,29.047852,-13.084717
1766899833372,-0.49316406,-0.70654297,0.5083008,0.7324219,0.12207031,1.0986328,0.0,0.0,0.0,-53.602295,29.047852,-13.084717
1766899833385,-0.49316406,-0.70654297,0.5083008,0.7324219,0.12207031,1.0986328,0.0,0.0,0.0,-53.48694,29.11377,-13.09021
1766899833472,-0.48535156,-0.69873047,0.52246094,0.61035156,-0.61035156,0.18310547,0.0,0.0,0.0,-53.48694,29.11377,-13.09021
1766899833484,-0.48535156,-0.69873047,0.52246094,0.61035156,-0.61035156,0.18310547,0.0,0.0,0.0,-53.34961,29.130249,-13.09021
1766899833572,-0.4873047,-0.70410156,0.5205078,0.8544922,-0.12207031,0.6713867,0.0,0.0,0.0,-53.34961,29.130249,-13.09021
1766899833584,-0.4873047,-0.70410156,0.5205078,0.8544922,-0.12207031,0.6713867,0.0,0.0,0.0,-53.24524,29.146729,-13.062744
1766899833672,-0.4814453,-0.69677734,0.51953125,1.3427734,0.30517578,0.5493164,0.0,0.0,0.0,-53.24524,29.146729,-13.062744
1766899833683,-0.4814453,-0.69677734,0.51953125,1.3427734,0.30517578,0.5493164,0.0,0.0,0.0,-53.096924,29.168701,-13.0407715
1766899833771,-0.4868164,-0.69433594,0.5229492,0.48828125,0.12207031,0.36621094,0.0,0.0,0.0,-53.096924,29.168701,-13.0407715
1766899833783,-0.4868164,-0.69433594,0.5229492,0.48828125,0.12207031,0.36621094,0.0,0.0,0.0,-52.998047,29.240112,-13.062744
1766899833871,-0.4892578,-0.69970703,0.5239258,0.30517578,0.61035156,0.36621094,0.0,0.0,0.0,-52.998047,29.240112,-13.062744
1766899833883,-0.4892578,-0.69970703,0.5239258,0.30517578,0.61035156,0.36621094,0.0,0.0,0.0,-52.9541,29.273071,-13.084717
1766899833971,-0.49072266,-0.69921875,0.52001953,0.61035156,0.18310547,0.61035156,0.0,0.0,0.0,-52.9541,29.273071,-13.084717
1766899833982,-0.49072266,-0.69921875,0.52001953,0.61035156,0.18310547,0.61035156,0.0,0.0,0.0,-52.904663,29.32251,-13.095703
1766899834070,-0.4951172,-0.69628906,0.52197266,0.79345703,0.61035156,0.36621094,0.0,0.0,0.0,-52.904663,29.32251,-13.095703
1766899834082,-0.4951172,-0.69628906,0.52197266,0.79345703,0.61035156,0.36621094,0.0,0.0,0.0,-52.822266,29.377441,-13.095703
1766899834170,-0.4897461,-0.69189453,0.52490234,0.91552734,0.48828125,0.24414062,0.0,0.0,0.0,-52.822266,29.377441,-13.095703
1766899834181,-0.4897461,-0.69189453,0.52490234,0.91552734,0.48828125,0.24414062,0.0,0.0,0.0,-52.72888,29.399414,-13.101196
1766899834270,-0.49169922,-0.69384766,0.52441406,0.4272461,0.36621094,0.24414062,0.0,0.0,0.0,-52.72888,29.399414,-13.101196
1766899834281,-0.49169922,-0.69384766,0.52441406,0.4272461,0.36621094,0.24414062,0.0,0.0,0.0,-52.662964,29.42688,-13.123169
1766899834369,-0.48779297,-0.68652344,0.53125,0.61035156,0.48828125,0.30517578,0.0,0.0,0.0,-52.662964,29.42688,-13.123169
1766899834381,-0.48779297,-0.68652344,0.53125,0.61035156,0.48828125,0.30517578,0.0,0.0,0.0,-52.60254,29.454346,-13.112183
1766899834469,-0.4946289,-0.69628906,0.5332031,-0.30517578,0.4272461,0.18310547,0.0,0.0,0.0,-52.60254,29.454346,-13.112183
1766899834481,-0.4946289,-0.69628906,0.5332031,-0.30517578,0.4272461,0.18310547,0.0,0.0,0.0,-52.575073,29.470825,-13.123169
1766899834569,-0.48876953,-0.69189453,0.52783203,0.0,0.0,0.24414062,0.0,0.0,0.0,-52.575073,29.470825,-13.123169
1766899834583,-0.48876953,-0.69189453,0.52783203,0.0,0.0,0.24414062,0.0,0.0,0.0,-52.575073,29.498291,-13.112183
1766899834669,-0.49560547,-0.6899414,0.5288086,-0.12207031,1.0375977,0.36621094,0.0,0.0,0.0,-52.575073,29.498291,-13.112183
1766899834680,-0.49560547,-0.6899414,0.5288086,-0.12207031,1.0375977,0.36621094,0.0,0.0,0.0,-52.575073,29.536743,-13.156128
1766899834768,-0.4946289,-0.6948242,0.52441406,0.061035156,0.5493164,0.7324219,0.0,0.0,0.0,-52.575073,29.536743,-13.156128
1766899834780,-0.4946289,-0.6948242,0.52441406,0.061035156,0.5493164,0.7324219,0.0,0.0,0.0,-52.564087,29.602661,-13.21106
1766899834869,-0.4921875,-0.6899414,0.52978516,0.48828125,0.061035156,0.30517578,0.0,0.0,0.0,-52.564087,29.602661,-13.21106
1766899834880,-0.4921875,-0.6899414,0.52978516,0.48828125,0.061035156,0.30517578,0.0,0.0,0.0,-52.531128,29.66858,-13.205566
1766899834969,-0.49169922,-0.6870117,0.5258789,-0.4272461,0.0,0.061035156,0.0,0.0,0.0,-52.531128,29.66858,-13.205566
1766899834979,-0.49169922,-0.6870117,0.5258789,-0.4272461,0.0,0.061035156,0.0,0.0,0.0,-52.49817,29.66858,-13.216553
1766899835068,-0.49804688,-0.6923828,0.52490234,-0.24414062,0.24414062,-0.24414062,0.0,0.0,0.0,-52.49817,29.66858,-13.216553
1766899835079,-0.49804688,-0.6923828,0.52490234,-0.24414062,0.24414062,-0.24414062,0.0,0.0,0.0,-52.53662,29.6521,-13.238525
1766899835167,-0.49121094,-0.69140625,0.5239258,0.061035156,0.36621094,0.18310547,0.0,0.0,0.0,-52.53662,29.6521,-13.238525
1766899835179,-0.49121094,-0.69140625,0.5239258,0.061035156,0.36621094,0.18310547,0.0,0.0,0.0,-52.542114,29.641113,-13.244019
1766899835267,-0.4946289,-0.6904297,0.52490234,0.4272461,0.0,0.24414062,0.0,0.0,0.0,-52.542114,29.641113,-13.244019
1766899835278,-0.4946289,-0.6904297,0.52490234,0.4272461,0.0,0.24414062,0.0,0.0,0.0,-52.503662,29.657593,-13.244019
1766899835367,-0.49609375,-0.68847656,0.5253906,0.24414062,0.9765625,-0.12207031,0.0,0.0,0.0,-52.503662,29.657593,-13.244019
1766899835378,-0.49609375,-0.68847656,0.5253906,0.24414062,0.9765625,-0.12207031,0.0,0.0,0.0,-52.487183,29.663086,-13.227539
1766899835466,-0.49169922,-0.6879883,0.5214844,0.30517578,0.061035156,0.18310547,0.0,0.0,0.0,-52.487183,29.663086,-13.227539
1766899835478,-0.49169922,-0.6879883,0.5214844,0.30517578,0.061035156,0.18310547,0.0,0.0,0.0,-52.470703,29.646606,-13.200073
1766899835566,-0.49365234,-0.69140625,0.5263672,-0.24414062,0.48828125,0.0,0.0,0.0,0.0,-52.470703,29.646606,-13.200073
1766899835578,-0.49365234,-0.69140625,0.5263672,-0.24414062,0.48828125,0.0,0.0,0.0,0.0,-52.492676,29.641113,-13.21106
1766899835666,-0.49658203,-0.6928711,0.5253906,-0.36621094,0.8544922,0.24414062,0.0,0.0,0.0,-52.492676,29.641113,-13.21106
1766899835678,-0.49658203,-0.6928711,0.5253906,-0.36621094,0.8544922,0.24414062,0.0,0.0,0.0,-52.525635,29.679565,-13.238525
1766899835765,-0.49414062,-0.69189453,0.52685547,0.18310547,0.30517578,-0.12207031,0.0,0.0,0.0,-52.525635,29.679565,-13.238525
1766899835777,-0.49414062,-0.69189453,0.52685547,0.18310547,0.30517578,-0.12207031,0.0,0.0,0.0,-52.52014,29.679565,-13.260498
1766899835865,-0.49414062,-0.6899414,0.52246094,0.18310547,0.18310547,0.12207031,0.0,0.0,0.0,-52.52014,29.679565,-13.260498
1766899835877,-0.49414062,-0.6899414,0.52246094,0.18310547,0.18310547,0.12207031,0.0,0.0,0.0,-52.492676,29.690552,-13.260498
1766899835965,-0.49658203,-0.69091797,0.5258789,-0.30517578,0.061035156,-0.061035156,0.0,0.0,0.0,-52.492676,29.690552,-13.260498
1766899835976,-0.49658203,-0.69091797,0.5258789,-0.30517578,0.061035156,-0.061035156,0.0,0.0,0.0,-52.49817,29.685059,-13.271484
1766899836065,-0.49365234,-0.69140625,0.52441406,-0.12207031,0.18310547,0.12207031,0.0,0.0,0.0,-52.49817,29.685059,-13.271484
1766899836076,-0.49365234,-0.69140625,0.52441406,-0.12207031,0.18310547,0.12207031,0.0,0.0,0.0,-52.49817,29.674072,-13.265991
1766899836164,-0.4921875,-0.69189453,0.5253906,-0.12207031,0.0,-0.061035156,0.0,0.0,0.0,-52.49817,29.674072,-13.265991
1766899836176,-0.4921875,-0.69189453,0.5253906,-0.12207031,0.0,-0.061035156,0.0,0.0,0.0,-52.503662,29.663086,-13.271484
1766899836264,-0.49023438,-0.6875,0.5317383,-0.24414062,0.24414062,-0.061035156,0.0,0.0,0.0,-52.503662,29.663086,-13.271484
1766899836275,-0.49023438,-0.6875,0.5317383,-0.24414062,0.24414062,-0.061035156,0.0,0.0,0.0,-52.51465,29.646606,-13.255005
1766899836364,-0.49560547,-0.7001953,0.5283203,-0.061035156,-0.36621094,0.0,0.0,0.0,0.0,-52.51465,29.646606,-13.255005
1766899836375,-0.49560547,-0.7001953,0.5283203,-0.061035156,-0.36621094,0.0,0.0,0.0,0.0,-52.509155,29.624634,-13.249512
1766899836463,-0.49169922,-0.69091797,0.52685547,-0.12207031,0.0,0.061035156,0.0,0.0,0.0,-52.509155,29.624634,-13.249512
1766899836475,-0.49169922,-0.69091797,0.52685547,-0.12207031,0.0,0.061035156,0.0,0.0,0.0,-52.49817,29.613647,-13.227539
1766899836564,-0.49267578,-0.69140625,0.5253906,-0.12207031,0.12207031,0.18310547,0.0,0.0,0.0,-52.49817,29.613647,-13.227539
1766899836575,-0.49267578,-0.69140625,0.5253906,-0.12207031,0.12207031,0.18310547,0.0,0.0,0.0,-52.492676,29.613647,-13.233032
