timestamp,accX,accY,accZ,gyroX,gyroY,gyroZ,magX,magY,magZ,roll,pitch,yaw
1768998490365,-0.9863281,0.110839844,0.087402344,1.0375977,-0.12207031,-0.91552734,0.0,0.0,0.0,52.60254,82.5293,82.35901
1768998490376,-0.9863281,0.110839844,0.087402344,1.0375977,-0.12207031,-0.91552734,0.0,0.0,0.0,51.56433,82.47986,81.27136
1768998490465,-0.9897461,0.09863281,0.072753906,-0.5493164,-0.18310547,0.61035156,0.0,0.0,0.0,51.56433,82.47986,81.27136
1768998490476,-0.9897461,0.09863281,0.072753906,-0.5493164,-0.18310547,0.61035156,0.0,0.0,0.0,51.948853,82.53479,81.45813
1768998490565,-0.9926758,0.10449219,0.083984375,0.4272461,0.24414062,-0.12207031,0.0,0.0,0.0,51.948853,82.53479,81.45813
1768998490579,-0.9926758,0.10449219,0.083984375,0.4272461,0.24414062,-0.12207031,0.0,0.0,0.0,51.932373,82.490845,81.42517
1768998490664,-0.9921875,0.11035156,0.07470703,0.8544922,-0.12207031,0.36621094,0.0,0.0,0.0,51.932373,82.490845,81.42517
1768998490676,-0.9921875,0.11035156,0.07470703,0.8544922,-0.12207031,0.36621094,0.0,0.0,0.0,52.08618,82.457886,81.46912
1768998490764,-0.98583984,0.10986328,0.08544922,1.7700195,0.0,0.5493164,0.0,0.0,0.0,52.08618,82.457886,81.46912
1768998490775,-0.98583984,0.10986328,0.08544922,1.7700195,0.0,0.5493164,0.0,0.0,0.0,52.49817,82.386475,81.743774
1768998490863,-0.99560547,0.111328125,0.07714844,0.48828125,-0.5493164,0.30517578,0.0,0.0,0.0,52.49817,82.386475,81.743774
1768998490875,-0.99560547,0.111328125,0.07714844,0.48828125,-0.5493164,0.30517578,0.0,0.0,0.0,52.635498,82.30957,81.75476
1768998490964,-0.9946289,0.11279297,0.07373047,1.2207031,-0.061035156,0.0,0.0,0.0,0.0,52.635498,82.30957,81.75476
1768998490975,-0.9946289,0.11279297,0.07373047,1.2207031,-0.061035156,0.0,0.0,0.0,0.0,52.651978,82.25464,81.66138
1768998491063,-0.99658203,0.110839844,0.07861328,0.9765625,-0.12207031,-0.061035156,0.0,0.0,0.0,52.651978,82.25464,81.66138
1768998491074,-0.99658203,0.110839844,0.07861328,0.9765625,-0.12207031,-0.061035156,0.0,0.0,0.0,52.77832,82.22168,81.65039
1768998491163,-0.9941406,0.111816406,0.07373047,0.91552734,0.4272461,-0.8544922,0.0,0.0,0.0,52.77832,82.22168,81.65039
1768998491174,-0.9941406,0.111816406,0.07373047,0.91552734,0.4272461,-0.8544922,0.0,0.0,0.0,52.822266,82.249146,81.54053
1768998491262,-0.98876953,0.10888672,0.08154297,0.61035156,0.48828125,-0.7324219,0.0,0.0,0.0,52.822266,82.249146,81.54053
1768998491274,-0.98876953,0.10888672,0.08154297,0.61035156,0.48828125,-0.7324219,0.0,0.0,0.0,52.981567,82.30957,81.622925
1768998491362,-0.99365234,0.106933594,0.06982422,1.2817383,0.48828125,-0.7324219,0.0,0.0,0.0,52.981567,82.30957,81.622925
1768998491374,-0.99365234,0.106933594,0.06982422,1.2817383,0.48828125,-0.7324219,0.0,0.0,0.0,53.047485,82.3645,81.589966
1768998491462,-1.0009766,0.106933594,0.07128906,0.9765625,-0.24414062,-0.12207031,0.0,0.0,0.0,53.047485,82.3645,81.589966
1768998491473,-1.0009766,0.106933594,0.07128906,0.9765625,-0.24414062,-0.12207031,0.0,0.0,0.0,53.432007,82.40845,81.848145
1768998491561,-1.0,0.10986328,0.076660156,-0.61035156,-0.18310547,-0.061035156,0.0,0.0,0.0,53.432007,82.40845,81.848145
1768998491573,-1.0,0.10986328,0.076660156,-0.61035156,-0.18310547,-0.061035156,0.0,0.0,0.0,53.45398,82.39197,81.8811
1768998491661,-0.9814453,0.11376953,0.080566406,1.5869141,-0.6713867,0.12207031,0.0,0.0,0.0,53.45398,82.39197,81.8811
1768998491673,-0.9814453,0.11376953,0.080566406,1.5869141,-0.6713867,0.12207031,0.0,0.0,0.0,53.54187,82.38098,81.8811
1768998491761,-1.0068359,0.11230469,0.08105469,-0.30517578,0.24414062,0.061035156,0.0,0.0,0.0,53.54187,82.38098,81.8811
1768998491772,-1.0068359,0.11230469,0.08105469,-0.30517578,0.24414062,0.061035156,0.0,0.0,0.0,53.61328,82.353516,81.82617
1768998491861,-0.9848633,0.10644531,0.071777344,0.18310547,0.18310547,-0.24414062,0.0,0.0,0.0,53.61328,82.353516,81.82617
1768998491872,-0.9848633,0.10644531,0.071777344,0.18310547,0.18310547,-0.24414062,0.0,0.0,0.0,53.95935,82.37549,82.08435
1768998491960,-0.9970703,0.10888672,0.068847656,0.8544922,0.7324219,-0.12207031,0.0,0.0,0.0,53.95935,82.37549,82.08435
1768998491972,-0.9970703,0.10888672,0.068847656,0.8544922,0.7324219,-0.12207031,0.0,0.0,0.0,54.448242,82.41943,82.51831
1768998492060,-0.9995117,0.107421875,0.068359375,1.0375977,0.61035156,-0.24414062,0.0,0.0,0.0,54.448242,82.41943,82.51831
1768998492071,-0.9995117,0.107421875,0.068359375,1.0375977,0.61035156,-0.24414062,0.0,0.0,0.0,54.865723,82.4469,82.85339
1768998492160,-0.9926758,0.11425781,0.07763672,0.30517578,0.4272461,-0.24414062,0.0,0.0,0.0,54.865723,82.4469,82.85339
1768998492171,-0.9926758,0.11425781,0.07763672,0.30517578,0.4272461,-0.24414062,0.0,0.0,0.0,55.480957,82.46887,83.47412
1768998492260,-1.003418,0.11279297,0.0703125,0.18310547,-0.12207031,-0.12207031,0.0,0.0,0.0,55.480957,82.46887,83.47412
1768998492271,-1.003418,0.11279297,0.0703125,0.18310547,-0.12207031,-0.12207031,0.0,0.0,0.0,55.83252,82.490845,83.79822
1768998492359,-1.0,0.109375,0.05908203,1.0986328,0.0,-0.30517578,0.0,0.0,0.0,55.83252,82.490845,83.79822
1768998492371,-1.0,0.109375,0.05908203,1.0986328,0.0,-0.30517578,0.0,0.0,0.0,56.134644,82.54028,84.07837
1768998492459,-0.9916992,0.111328125,0.06933594,0.61035156,-0.061035156,-0.36621094,0.0,0.0,0.0,56.134644,82.54028,84.07837
1768998492470,-0.9916992,0.111328125,0.06933594,0.61035156,-0.061035156,-0.36621094,0.0,0.0,0.0,56.277466,82.57324,84.17175
1768998492559,-0.99365234,0.10986328,0.064941406,0.7324219,0.24414062,-0.18310547,0.0,0.0,0.0,56.277466,82.57324,84.17175
1768998492570,-0.99365234,0.10986328,0.064941406,0.7324219,0.24414062,-0.18310547,0.0,0.0,0.0,56.436768,82.57324,84.226685
1768998492658,-0.99316406,0.10839844,0.068847656,0.5493164,0.0,-0.12207031,0.0,0.0,0.0,56.436768,82.57324,84.226685
1768998492670,-0.99316406,0.10839844,0.068847656,0.5493164,0.0,-0.12207031,0.0,0.0,0.0,56.793823,82.58423,84.52881
1768998492758,-0.9916992,0.107910156,0.060058594,1.4038086,0.7324219,-0.9765625,0.0,0.0,0.0,56.793823,82.58423,84.52881
1768998492769,-0.9916992,0.107910156,0.060058594,1.4038086,0.7324219,-0.9765625,0.0,0.0,0.0,57.25525,82.628174,84.957275
1768998492858,-0.9946289,0.11230469,0.05810547,0.79345703,0.7324219,-0.4272461,0.0,0.0,0.0,57.25525,82.628174,84.957275
1768998492869,-0.9946289,0.11230469,0.05810547,0.79345703,0.7324219,-0.4272461,0.0,0.0,0.0,57.617798,82.70508,85.29785
1768998492958,-0.9916992,0.11035156,0.061523438,0.36621094,0.061035156,-0.18310547,0.0,0.0,0.0,57.617798,82.70508,85.29785
1768998492969,-0.9916992,0.11035156,0.061523438,0.36621094,0.061035156,-0.18310547,0.0,0.0,0.0,58.24402,82.732544,85.98999
1768998493057,-0.9995117,0.10839844,0.060546875,0.12207031,-0.12207031,0.0,0.0,0.0,0.0,58.24402,82.732544,85.98999
1768998493069,-0.9995117,0.10839844,0.060546875,0.12207031,-0.12207031,0.0,0.0,0.0,0.0,58.485718,82.75452,86.33057
1768998493157,-0.9970703,0.111816406,0.056640625,0.5493164,-0.30517578,-0.36621094,0.0,0.0,0.0,58.485718,82.75452,86.33057
1768998493169,-0.9970703,0.111816406,0.056640625,0.5493164,-0.30517578,-0.36621094,0.0,0.0,0.0,58.617554,82.74902,86.47888
1768998493257,-0.99365234,0.110839844,0.055664062,0.30517578,0.061035156,-0.18310547,0.0,0.0,0.0,58.617554,82.74902,86.47888
1768998493268,-0.99365234,0.110839844,0.055664062,0.30517578,0.061035156,-0.18310547,0.0,0.0,0.0,58.754883,82.79846,86.588745
1768998493356,-0.9941406,0.109375,0.056640625,0.061035156,-0.24414062,0.12207031,0.0,0.0,0.0,58.754883,82.79846,86.588745
1768998493368,-0.9941406,0.109375,0.056640625,0.061035156,-0.24414062,0.12207031,0.0,0.0,0.0,59.11743,82.76001,87.00073
1768998493456,-0.9951172,0.11230469,0.060546875,0.48828125,0.4272461,-0.7324219,0.0,0.0,0.0,59.11743,82.76001,87.00073
1768998493468,-0.9951172,0.11230469,0.060546875,0.48828125,0.4272461,-0.7324219,0.0,0.0,0.0,59.28772,82.803955,87.13257
1768998493556,-0.99560547,0.11230469,0.05078125,0.48828125,0.30517578,-0.24414062,0.0,0.0,0.0,59.28772,82.803955,87.13257
1768998493567,-0.99560547,0.11230469,0.05078125,0.48828125,0.30517578,-0.24414062,0.0,0.0,0.0,59.589844,82.85339,87.41821
1768998493656,-0.9902344,0.10888672,0.053710938,0.48828125,0.0,-0.5493164,0.0,0.0,0.0,59.589844,82.85339,87.41821
1768998493667,-0.9902344,0.10888672,0.053710938,0.48828125,0.0,-0.5493164,0.0,0.0,0.0,59.93042,82.89734,87.72583
1768998493755,-1.0024414,0.10839844,0.045898438,0.6713867,-0.12207031,-1.2817383,0.0,0.0,0.0,59.93042,82.89734,87.72583
1768998493767,-1.0024414,0.10839844,0.045898438,0.6713867,-0.12207031,-1.2817383,0.0,0.0,0.0,59.787598,82.95227,87.561035
1768998493855,-0.99853516,0.103515625,0.05078125,-1.4038086,-1.5869141,-0.36621094,0.0,0.0,0.0,59.787598,82.95227,87.561035
1768998493867,-0.99853516,0.103515625,0.05078125,-1.4038086,-1.5869141,-0.36621094,0.0,0.0,0.0,59.051514,82.96875,86.885376
1768998493955,-0.99365234,0.10498047,0.057617188,-1.2817383,-2.1972656,-0.36621094,0.0,0.0,0.0,59.051514,82.96875,86.885376
1768998493967,-0.99365234,0.10498047,0.057617188,-1.2817383,-2.1972656,-0.36621094,0.0,0.0,0.0,57.5354,82.89734,85.48462
1768998494054,-0.99072266,0.10644531,0.06640625,-0.7324219,-1.5869141,-0.36621094,0.0,0.0,0.0,57.5354,82.89734,85.48462
1768998494066,-0.99072266,0.10644531,0.06640625,-0.7324219,-1.5869141,-0.36621094,0.0,0.0,0.0,56.206055,82.803955,84.27063
1768998494154,-0.9951172,0.10888672,0.064453125,2.6245117,0.61035156,-0.7324219,0.0,0.0,0.0,56.206055,82.803955,84.27063
1768998494166,-0.9951172,0.10888672,0.064453125,2.6245117,0.61035156,-0.7324219,0.0,0.0,0.0,56.271973,82.836914,84.23767
1768998494255,-1.0014648,0.10107422,0.049804688,0.4272461,2.4414062,-0.61035156,0.0,0.0,0.0,56.271973,82.836914,84.23767
1768998494266,-1.0014648,0.10107422,0.049804688,0.4272461,2.4414062,-0.61035156,0.0,0.0,0.0,57.60681,83.00171,85.545044
1768998494354,-0.9814453,0.10644531,0.059570312,0.61035156,0.12207031,-0.48828125,0.0,0.0,0.0,57.60681,83.00171,85.545044
1768998494365,-0.9814453,0.10644531,0.059570312,0.61035156,0.12207031,-0.48828125,0.0,0.0,0.0,58.22754,83.045654,86.21521
1768998494454,-0.99560547,0.107421875,0.052734375,1.0375977,-0.36621094,0.0,0.0,0.0,0.0,58.22754,83.045654,86.21521
1768998494466,-0.99560547,0.107421875,0.052734375,1.0375977,-0.36621094,0.0,0.0,0.0,0.0,58.013306,83.01819,86.033936
1768998494554,-1.0009766,0.10253906,0.052734375,0.48828125,-0.91552734,-0.061035156,0.0,0.0,0.0,58.013306,83.01819,86.033936
1768998494565,-1.0009766,0.10253906,0.052734375,0.48828125,-0.91552734,-0.061035156,0.0,0.0,0.0,58.14514,82.98523,86.07788
1768998494653,-0.9902344,0.10644531,0.056152344,0.18310547,-0.61035156,0.18310547,0.0,0.0,0.0,58.14514,82.98523,86.07788
1768998494664,-0.9902344,0.10644531,0.056152344,0.18310547,-0.61035156,0.18310547,0.0,0.0,0.0,58.150635,82.96875,86.02844
1768998494753,-0.9995117,0.106933594,0.060058594,0.24414062,-0.79345703,-0.24414062,0.0,0.0,0.0,58.150635,82.96875,86.02844
1768998494764,-0.9995117,0.106933594,0.060058594,0.24414062,-0.79345703,-0.24414062,0.0,0.0,0.0,57.925415,82.91382,85.77026
1768998494852,-0.99853516,0.10888672,0.06201172,0.8544922,0.0,-0.36621094,0.0,0.0,0.0,57.925415,82.91382,85.77026
1768998494864,-0.99853516,0.10888672,0.06201172,0.8544922,0.0,-0.36621094,0.0,0.0,0.0,57.980347,82.93579,85.8197
1768998494952,-0.99316406,0.10888672,0.056152344,0.48828125,0.4272461,-0.61035156,0.0,0.0,0.0,57.980347,82.93579,85.8197
1768998494963,-0.99316406,0.10888672,0.056152344,0.48828125,0.4272461,-0.61035156,0.0,0.0,0.0,58.10669,82.97974,85.9845
1768998495052,-0.98828125,0.10595703,0.056152344,0.9765625,0.30517578,-0.6713867,0.0,0.0,0.0,58.10669,82.97974,85.9845
1768998495063,-0.98828125,0.10595703,0.056152344,0.9765625,0.30517578,-0.6713867,0.0,0.0,0.0,58.304443,83.04016,86.20422
1768998495151,-0.99365234,0.10253906,0.057617188,0.61035156,-0.18310547,-0.7324219,0.0,0.0,0.0,58.304443,83.04016,86.20422
1768998495163,-0.99365234,0.10253906,0.057617188,0.61035156,-0.18310547,-0.7324219,0.0,0.0,0.0,58.309937,83.08411,86.242676
1768998495251,-1.0063477,0.10253906,0.060546875,0.48828125,1.2817383,-1.2817383,0.0,0.0,0.0,58.309937,83.08411,86.242676
1768998495263,-1.0063477,0.10253906,0.060546875,0.48828125,1.2817383,-1.2817383,0.0,0.0,0.0,58.392334,83.15552,86.29761
1768998495351,-0.99609375,0.096191406,0.061035156,-1.3427734,-1.2817383,-0.36621094,0.0,0.0,0.0,58.392334,83.15552,86.29761
1768998495363,-0.99609375,0.096191406,0.061035156,-1.3427734,-1.2817383,-0.36621094,0.0,0.0,0.0,59.13391,83.309326,87.12158
1768998495451,-0.9790039,0.10839844,0.048828125,0.12207031,-1.4038086,0.061035156,0.0,0.0,0.0,59.13391,83.309326,87.12158
1768998495462,-0.9790039,0.10839844,0.048828125,0.12207031,-1.4038086,0.061035156,0.0,0.0,0.0,58.40332,83.26538,86.52283
1768998495550,-1.0029297,0.103027344,0.057128906,2.0141602,-0.36621094,0.0,0.0,0.0,0.0,58.40332,83.26538,86.52283
1768998495562,-1.0029297,0.103027344,0.057128906,2.0141602,-0.36621094,0.0,0.0,0.0,0.0,58.029785,83.18848,86.09985
1768998495650,-1.0039062,0.100097656,0.05078125,0.7324219,2.9296875,-0.9765625,0.0,0.0,0.0,58.029785,83.18848,86.09985
1768998495662,-1.0039062,0.100097656,0.05078125,0.7324219,2.9296875,-0.9765625,0.0,0.0,0.0,59.13391,83.29834,87.127075
1768998495750,-0.984375,0.107421875,0.05810547,0.91552734,0.24414062,-0.48828125,0.0,0.0,0.0,59.13391,83.29834,87.127075
1768998495761,-0.984375,0.107421875,0.05810547,0.91552734,0.24414062,-0.48828125,0.0,0.0,0.0,59.727173,83.375244,87.79175
1768998495849,-0.9868164,0.099121094,0.053710938,0.36621094,-0.4272461,-0.79345703,0.0,0.0,0.0,59.727173,83.375244,87.79175
1768998495861,-0.9868164,0.099121094,0.053710938,0.36621094,-0.4272461,-0.79345703,0.0,0.0,0.0,59.40857,83.38074,87.52258
1768998495949,-1.0478516,0.100097656,0.029785156,-3.2958984,0.36621094,-0.18310547,0.0,0.0,0.0,59.40857,83.38074,87.52258
1768998495961,-1.0478516,0.100097656,0.029785156,-3.2958984,0.36621094,-0.18310547,0.0,0.0,0.0,59.27124,83.40271,87.49512
1768998496049,-0.9790039,0.09472656,0.03515625,-2.6245117,-1.2817383,0.4272461,0.0,0.0,0.0,59.27124,83.40271,87.49512
1768998496060,-0.9790039,0.09472656,0.03515625,-2.6245117,-1.2817383,0.4272461,0.0,0.0,0.0,58.67798,83.4082,87.17651
1768998496149,-0.97998047,0.080566406,0.057617188,5.92041,-0.8544922,0.24414062,0.0,0.0,0.0,58.67798,83.4082,87.17651
1768998496160,-0.97998047,0.080566406,0.057617188,5.92041,-0.8544922,0.24414062,0.0,0.0,0.0,58.150635,83.29834,86.35803
1768998496248,-1.003418,0.106933594,0.0703125,3.2348633,-0.061035156,0.91552734,0.0,0.0,0.0,58.150635,83.29834,86.35803
1768998496260,-1.003418,0.106933594,0.0703125,3.2348633,-0.061035156,0.91552734,0.0,0.0,0.0,58.710938,83.166504,86.79199
1768998496349,-0.9946289,0.104003906,0.05419922,0.7324219,3.6621094,3.6621094,0.0,0.0,0.0,58.710938,83.166504,86.79199
1768998496360,-0.9946289,0.104003906,0.05419922,0.7324219,3.6621094,3.6621094,0.0,0.0,0.0,61.33667,83.07312,89.50012
1768998496448,-0.9765625,0.13183594,0.041503906,4.5166016,0.8544922,5.1879883,0.0,0.0,0.0,61.33667,83.07312,89.50012
1768998496459,-0.9765625,0.13183594,0.041503906,4.5166016,0.8544922,5.1879883,0.0,0.0,0.0,64.91272,82.66113,93.218994
1768998496548,-0.9926758,0.12402344,0.05126953,2.9296875,-1.0986328,1.7700195,0.0,0.0,0.0,64.91272,82.66113,93.218994
1768998496559,-0.9926758,0.12402344,0.05126953,2.9296875,-1.0986328,1.7700195,0.0,0.0,0.0,65.857544,82.41394,94.01001
1768998496647,-1.0009766,0.13378906,0.052734375,-0.30517578,-0.9765625,-2.0751953,0.0,0.0,0.0,65.857544,82.41394,94.01001
1768998496660,-1.0009766,0.13378906,0.052734375,-0.30517578,-0.9765625,-2.0751953,0.0,0.0,0.0,65.76965,82.43042,93.89465
1768998496747,-0.94189453,0.11669922,0.060546875,5.6152344,0.0,-6.225586,0.0,0.0,0.0,65.76965,82.43042,93.89465
1768998496758,-0.94189453,0.11669922,0.060546875,5.6152344,0.0,-6.225586,0.0,0.0,0.0,64.45679,82.67761,92.67517
1768998496847,-1.0195312,0.10546875,0.02734375,0.61035156,0.5493164,-2.0141602,0.0,0.0,0.0,64.45679,82.67761,92.67517
1768998496860,-1.0195312,0.10546875,0.02734375,0.61035156,0.5493164,-2.0141602,0.0,0.0,0.0,62.41333,83.08411,90.53833
1768998496947,-1.0131836,0.084472656,0.021972656,-5.3710938,-2.9907227,-4.8828125,0.0,0.0,0.0,62.41333,83.08411,90.53833
1768998496958,-1.0131836,0.084472656,0.021972656,-5.3710938,-2.9907227,-4.8828125,0.0,0.0,0.0,61.331177,83.40271,89.45068
1768998497046,-1.0151367,0.12939453,0.037109375,-11.535645,-3.90625,0.36621094,0.0,0.0,0.0,61.331177,83.40271,89.45068
1768998497057,-1.0151367,0.12939453,0.037109375,-11.535645,-3.90625,0.36621094,0.0,0.0,0.0,56.288452,83.479614,85.26489
1768998497146,-0.98046875,0.072753906,0.060058594,-0.4272461,-0.8544922,2.9296875,0.0,0.0,0.0,56.288452,83.479614,85.26489
1768998497161,-0.98046875,0.072753906,0.060058594,-0.4272461,-0.8544922,2.9296875,0.0,0.0,0.0,57.562866,83.166504,86.40747
1768998497245,-0.9892578,0.1015625,0.06738281,-6.713867,-1.7089844,0.4272461,0.0,0.0,0.0,57.562866,83.166504,86.40747
1768998497257,-0.9892578,0.1015625,0.06738281,-6.713867,-1.7089844,0.4272461,0.0,0.0,0.0,56.206055,82.98523,85.6604
1768998497345,-1.0068359,0.114746094,0.061035156,0.6713867,-0.4272461,0.18310547,0.0,0.0,0.0,56.206055,82.98523,85.6604
1768998497361,-1.0068359,0.114746094,0.061035156,0.6713867,-0.4272461,0.18310547,0.0,0.0,0.0,55.524902,82.9303,85.23193
1768998497445,-0.9892578,0.10595703,0.05810547,-0.18310547,-0.4272461,0.18310547,0.0,0.0,0.0,55.524902,82.9303,85.23193
1768998497456,-0.9892578,0.10595703,0.05810547,-0.18310547,-0.4272461,0.18310547,0.0,0.0,0.0,55.700684,82.89734,85.28137
1768998497545,-0.9868164,0.10253906,0.07080078,0.061035156,-0.8544922,-0.5493164,0.0,0.0,0.0,55.700684,82.89734,85.28137
1768998497563,-0.9868164,0.10253906,0.07080078,0.061035156,-0.8544922,-0.5493164,0.0,0.0,0.0,54.678955,82.81494,84.243164
1768998497644,-0.9897461,0.107421875,0.06640625,-0.061035156,-0.30517578,-0.91552734,0.0,0.0,0.0,54.678955,82.81494,84.243164
1768998497663,-0.9897461,0.107421875,0.06640625,-0.061035156,-0.30517578,-0.91552734,0.0,0.0,0.0,54.316406,82.82593,83.84766
1768998497744,-0.98779297,0.104003906,0.07128906,2.380371,0.0,-0.6713867,0.0,0.0,0.0,54.316406,82.82593,83.84766
1768998497755,-0.98779297,0.104003906,0.07128906,2.380371,0.0,-0.6713867,0.0,0.0,0.0,54.239502,82.88086,83.573
1768998497844,-1.0004883,0.09863281,0.061523438,-0.61035156,-1.7089844,-0.9765625,0.0,0.0,0.0,54.239502,82.88086,83.573
1768998497856,-1.0004883,0.09863281,0.061523438,-0.61035156,-1.7089844,-0.9765625,0.0,0.0,0.0,53.728638,82.908325,82.88086
1768998497943,-0.99609375,0.10058594,0.06640625,1.5869141,-0.7324219,-1.0375977,0.0,0.0,0.0,53.728638,82.908325,82.88086
1768998497955,-0.99609375,0.10058594,0.06640625,1.5869141,-0.7324219,-1.0375977,0.0,0.0,0.0,53.17932,82.93579,82.232666
1768998498043,-0.9916992,0.099121094,0.07080078,0.6713867,-0.061035156,-0.18310547,0.0,0.0,0.0,53.17932,82.93579,82.232666
1768998498055,-0.9916992,0.099121094,0.07080078,0.6713867,-0.061035156,-0.18310547,0.0,0.0,0.0,52.756348,82.93579,81.68884
1768998498143,-0.9946289,0.09765625,0.068847656,0.24414062,-0.61035156,-0.18310547,0.0,0.0,0.0,52.756348,82.93579,81.68884
1768998498155,-0.9946289,0.09765625,0.068847656,0.24414062,-0.61035156,-0.18310547,0.0,0.0,0.0,52.767334,82.924805,81.66138
1768998498243,-0.99365234,0.09863281,0.0625,0.24414062,-0.061035156,0.12207031,0.0,0.0,0.0,52.767334,82.924805,81.66138
1768998498254,-0.99365234,0.09863281,0.0625,0.24414062,-0.061035156,0.12207031,0.0,0.0,0.0,52.871704,82.924805,81.67236
1768998498342,-0.99609375,0.09716797,0.059570312,-1.0375977,-0.5493164,0.36621094,0.0,0.0,0.0,52.871704,82.924805,81.67236
1768998498354,-0.99609375,0.09716797,0.059570312,-1.0375977,-0.5493164,0.36621094,0.0,0.0,0.0,53.041992,82.90283,81.80969
1768998498442,-0.9995117,0.10205078,0.06347656,-1.7700195,0.4272461,0.30517578,0.0,0.0,0.0,53.041992,82.90283,81.80969
1768998498454,-0.9995117,0.10205078,0.06347656,-1.7700195,0.4272461,0.30517578,0.0,0.0,0.0,53.15735,82.88635,81.968994
1768998498542,-0.99316406,0.09814453,0.061035156,-0.061035156,-0.061035156,-0.18310547,0.0,0.0,0.0,53.15735,82.88635,81.968994
1768998498554,-0.99316406,0.09814453,0.061035156,-0.061035156,-0.061035156,-0.18310547,0.0,0.0,0.0,53.61328,82.9303,82.43042
1768998498642,-0.99072266,0.10205078,0.072753906,0.12207031,0.61035156,-0.12207031,0.0,0.0,0.0,53.61328,82.9303,82.43042
1768998498653,-0.99072266,0.10205078,0.072753906,0.12207031,0.61035156,-0.12207031,0.0,0.0,0.0,53.931885,82.941284,82.70508
1768998498741,-0.99853516,0.10058594,0.063964844,0.61035156,0.061035156,-0.061035156,0.0,0.0,0.0,53.931885,82.941284,82.70508
1768998498753,-0.99853516,0.10058594,0.063964844,0.61035156,0.061035156,-0.061035156,0.0,0.0,0.0,54.44275,82.96326,83.150024
1768998498841,-0.99609375,0.103027344,0.06738281,2.4414062,0.36621094,-0.61035156,0.0,0.0,0.0,54.44275,82.96326,83.150024
1768998498852,-0.99609375,0.103027344,0.06738281,2.4414062,0.36621094,-0.61035156,0.0,0.0,0.0,54.662476,82.99072,83.25989
1768998498941,-0.9946289,0.10595703,0.0703125,0.79345703,0.9765625,-0.91552734,0.0,0.0,0.0,54.662476,82.99072,83.25989
1768998498952,-0.9946289,0.10595703,0.0703125,0.79345703,0.9765625,-0.91552734,0.0,0.0,0.0,54.838257,83.05115,83.28186
1768998499040,-0.99609375,0.10058594,0.06542969,0.48828125,0.36621094,-0.5493164,0.0,0.0,0.0,54.838257,83.05115,83.28186
1768998499052,-0.99609375,0.10058594,0.06542969,0.48828125,0.36621094,-0.5493164,0.0,0.0,0.0,55.316162,83.133545,83.68286
1768998499140,-0.9946289,0.09814453,0.05810547,0.6713867,-0.12207031,0.0,0.0,0.0,0.0,55.316162,83.133545,83.68286
1768998499152,-0.9946289,0.09814453,0.05810547,0.6713867,-0.12207031,0.0,0.0,0.0,0.0,55.338135,83.17749,83.655396
1768998499240,-0.99658203,0.099121094,0.057128906,0.18310547,0.18310547,-0.79345703,0.0,0.0,0.0,55.338135,83.17749,83.655396
1768998499251,-0.99658203,0.099121094,0.057128906,0.18310547,0.18310547,-0.79345703,0.0,0.0,0.0,55.54138,83.18298,83.85315
1768998499340,-0.98876953,0.09716797,0.05517578,1.0375977,0.61035156,-0.61035156,0.0,0.0,0.0,55.54138,83.18298,83.85315
1768998499351,-0.98876953,0.09716797,0.05517578,1.0375977,0.61035156,-0.61035156,0.0,0.0,0.0,55.601807,83.28186,83.83118
1768998499439,-0.99902344,0.09423828,0.056640625,0.6713867,1.2207031,-0.12207031,0.0,0.0,0.0,55.601807,83.28186,83.83118
1768998499451,-0.99902344,0.09423828,0.056640625,0.6713867,1.2207031,-0.12207031,0.0,0.0,0.0,56.063232,83.29834,84.30908
1768998499539,-0.9824219,0.099609375,0.056152344,1.2817383,-0.8544922,-0.7324219,0.0,0.0,0.0,56.063232,83.29834,84.30908
1768998499550,-0.9824219,0.099609375,0.056152344,1.2817383,-0.8544922,-0.7324219,0.0,0.0,0.0,56.47522,83.34778,84.660645
1768998499639,-0.9824219,0.09814453,0.056640625,1.7700195,0.4272461,-0.91552734,0.0,0.0,0.0,56.47522,83.34778,84.660645
1768998499650,-0.9824219,0.09814453,0.056640625,1.7700195,0.4272461,-0.91552734,0.0,0.0,0.0,56.326904,83.38074,84.49585
1768998499738,-1.0087891,0.09423828,0.0546875,-0.30517578,-0.6713867,-0.12207031,0.0,0.0,0.0,56.326904,83.38074,84.49585
1768998499750,-1.0087891,0.09423828,0.0546875,-0.30517578,-0.6713867,-0.12207031,0.0,0.0,0.0,56.37085,83.38623,84.523315
1768998499838,-0.99072266,0.09814453,0.05419922,0.7324219,0.12207031,-0.7324219,0.0,0.0,0.0,56.37085,83.38623,84.523315
1768998499850,-0.99072266,0.09814453,0.05419922,0.7324219,0.12207031,-0.7324219,0.0,0.0,0.0,56.45874,83.43567,84.60571
1768998499938,-0.99316406,0.09716797,0.061035156,0.0,-0.4272461,-0.18310547,0.0,0.0,0.0,56.45874,83.43567,84.60571
1768998499950,-0.99316406,0.09716797,0.061035156,0.0,-0.4272461,-0.18310547,0.0,0.0,0.0,56.398315,83.43567,84.539795
1768998500038,-1.0009766,0.09472656,0.053222656,0.30517578,-0.30517578,0.12207031,0.0,0.0,0.0,56.398315,83.43567,84.539795
1768998500049,-1.0009766,0.09472656,0.053222656,0.30517578,-0.30517578,0.12207031,0.0,0.0,0.0,56.52466,83.46863,84.6167
1768998500137,-0.99365234,0.096191406,0.05419922,1.159668,2.2583008,-0.7324219,0.0,0.0,0.0,56.52466,83.46863,84.6167
1768998500149,-0.99365234,0.096191406,0.05419922,1.159668,2.2583008,-0.7324219,0.0,0.0,0.0,57.183838,83.51807,85.22644
1768998500238,-0.9951172,0.10058594,0.045410156,-0.6713867,0.30517578,0.061035156,0.0,0.0,0.0,57.183838,83.51807,85.22644
1768998500249,-0.9951172,0.10058594,0.045410156,-0.6713867,0.30517578,0.061035156,0.0,0.0,0.0,57.74414,83.54553,85.81421
1768998500337,-0.99121094,0.10107422,0.049316406,0.6713867,0.6713867,-0.36621094,0.0,0.0,0.0,57.74414,83.54553,85.81421
1768998500348,-0.99121094,0.10107422,0.049316406,0.6713867,0.6713867,-0.36621094,0.0,0.0,0.0,58.375854,83.60596,86.42395
1768998500437,-0.99658203,0.10107422,0.048828125,-0.12207031,0.0,-0.30517578,0.0,0.0,0.0,58.375854,83.60596,86.42395
1768998500448,-0.99658203,0.10107422,0.048828125,-0.12207031,0.0,-0.30517578,0.0,0.0,0.0,58.568115,83.61145,86.58325
1768998500536,-0.9902344,0.09375,0.061035156,1.159668,0.7324219,-1.0986328,0.0,0.0,0.0,58.568115,83.61145,86.58325
1768998500548,-0.9902344,0.09375,0.061035156,1.159668,0.7324219,-1.0986328,0.0,0.0,0.0,58.980103,83.66089,86.96777
1768998500636,-0.99609375,0.09716797,0.05078125,0.48828125,0.4272461,-0.61035156,0.0,0.0,0.0,58.980103,83.66089,86.96777
1768998500648,-0.99609375,0.09716797,0.05078125,0.48828125,0.4272461,-0.61035156,0.0,0.0,0.0,59.27124,83.75427,87.2699
1768998500736,-0.9941406,0.096191406,0.047851562,1.2817383,-0.4272461,-0.8544922,0.0,0.0,0.0,59.27124,83.75427,87.2699
1768998500747,-0.9941406,0.096191406,0.047851562,1.2817383,-0.4272461,-0.8544922,0.0,0.0,0.0,59.2218,83.80371,87.20398
1768998500835,-1.003418,0.09472656,0.051757812,-1.3427734,-2.2583008,-0.48828125,0.0,0.0,0.0,59.2218,83.80371,87.20398
1768998500847,-1.003418,0.09472656,0.051757812,-1.3427734,-2.2583008,-0.48828125,0.0,0.0,0.0,58.36487,83.76526,86.42395
1768998500935,-0.9980469,0.09277344,0.05859375,-1.5258789,-2.9907227,-0.4272461,0.0,0.0,0.0,58.36487,83.76526,86.42395
1768998500947,-0.9980469,0.09277344,0.05859375,-1.5258789,-2.9907227,-0.4272461,0.0,0.0,0.0,56.480713,83.66089,84.75403
1768998501035,-0.9868164,0.09765625,0.055664062,-1.8920898,-2.5634766,0.12207031,0.0,0.0,0.0,56.480713,83.66089,84.75403
1768998501047,-0.9868164,0.09765625,0.055664062,-1.8920898,-2.5634766,0.12207031,0.0,0.0,0.0,54.42627,83.54553,82.95776
1768998501134,-1.0009766,0.09375,0.059570312,0.0,-1.5258789,0.0,0.0,0.0,0.0,54.42627,83.54553,82.95776
1768998501146,-1.0009766,0.09375,0.059570312,0.0,-1.5258789,0.0,0.0,0.0,0.0,53.069458,83.40271,81.66687
1768998501234,-0.9975586,0.087890625,0.06689453,-1.6479492,-2.2583008,0.061035156,0.0,0.0,0.0,53.069458,83.40271,81.66687
1768998501246,-0.9975586,0.087890625,0.06689453,-1.6479492,-2.2583008,0.061035156,0.0,0.0,0.0,51.76758,83.28186,80.44739
1768998501334,-0.9941406,0.09667969,0.06982422,-0.7324219,-1.159668,0.0,0.0,0.0,0.0,51.76758,83.28186,80.44739
1768998501345,-0.9941406,0.09667969,0.06982422,-0.7324219,-1.159668,0.0,0.0,0.0,0.0,50.92163,83.18848,79.7113
1768998501434,-0.9941406,0.09326172,0.068359375,-0.36621094,-0.61035156,0.30517578,0.0,0.0,0.0,50.92163,83.18848,79.7113
1768998501445,-0.9941406,0.09326172,0.068359375,-0.36621094,-0.61035156,0.30517578,0.0,0.0,0.0,50.685425,83.12256,79.41467
1768998501533,-0.9863281,0.09472656,0.068359375,0.24414062,0.0,-0.12207031,0.0,0.0,0.0,50.685425,83.12256,79.41467
1768998501545,-0.9863281,0.09472656,0.068359375,0.24414062,0.0,-0.12207031,0.0,0.0,0.0,50.93811,83.12256,79.62891
1768998501633,-0.9926758,0.092285156,0.06591797,0.18310547,0.0,0.30517578,0.0,0.0,0.0,50.93811,83.12256,79.62891
1768998501645,-0.9926758,0.092285156,0.06591797,0.18310547,0.0,0.30517578,0.0,0.0,0.0,51.21826,83.10608,79.82117
1768998501733,-0.9975586,0.095214844,0.06591797,0.91552734,0.4272461,0.12207031,0.0,0.0,0.0,51.21826,83.10608,79.82117
1768998501744,-0.9975586,0.095214844,0.06591797,0.91552734,0.4272461,0.12207031,0.0,0.0,0.0,51.641235,83.100586,80.1178
1768998501833,-0.99853516,0.09765625,0.06982422,0.30517578,-0.18310547,0.30517578,0.0,0.0,0.0,51.641235,83.100586,80.1178
1768998501844,-0.99853516,0.09765625,0.06982422,0.30517578,-0.18310547,0.30517578,0.0,0.0,0.0,51.94336,83.06763,80.31006
1768998501932,-0.99560547,0.09814453,0.06542969,0.18310547,-0.48828125,0.12207031,0.0,0.0,0.0,51.94336,83.06763,80.31006
1768998501944,-0.99560547,0.09814453,0.06542969,0.18310547,-0.48828125,0.12207031,0.0,0.0,0.0,52.30591,83.05664,80.60669
1768998502032,-0.99902344,0.104003906,0.072753906,1.3427734,-0.12207031,0.0,0.0,0.0,0.0,52.30591,83.05664,80.60669
1768998502044,-0.99902344,0.104003906,0.072753906,1.3427734,-0.12207031,0.0,0.0,0.0,0.0,52.322388,82.996216,80.52429
1768998502132,-0.9941406,0.109375,0.07324219,0.9765625,0.79345703,0.12207031,0.0,0.0,0.0,52.322388,82.996216,80.52429
1768998502144,-0.9941406,0.109375,0.07324219,0.9765625,0.79345703,0.12207031,0.0,0.0,0.0,52.67395,82.96875,80.74951
1768998502231,-0.99609375,0.103027344,0.07470703,0.6713867,0.5493164,-1.2207031,0.0,0.0,0.0,52.67395,82.96875,80.74951
1768998502243,-0.99609375,0.103027344,0.07470703,0.6713867,0.5493164,-1.2207031,0.0,0.0,0.0,52.93213,83.045654,80.96924
1768998502331,-0.9975586,0.095703125,0.07080078,0.36621094,0.12207031,-0.6713867,0.0,0.0,0.0,52.93213,83.045654,80.96924
1768998502343,-0.9975586,0.095703125,0.07080078,0.36621094,0.12207031,-0.6713867,0.0,0.0,0.0,52.822266,83.13904,80.80444
1768998502431,-1.0029297,0.08984375,0.044433594,-1.8920898,0.48828125,-0.79345703,0.0,0.0,0.0,52.822266,83.13904,80.80444
1768998502446,-1.0029297,0.08984375,0.044433594,-1.8920898,0.48828125,-0.79345703,0.0,0.0,0.0,53.464966,83.27637,81.43616
1768998502531,-1.0297852,0.09814453,0.0625,-5.6762695,-1.8310547,-0.48828125,0.0,0.0,0.0,53.464966,83.27637,81.43616
1768998502542,-1.0297852,0.09814453,0.0625,-5.6762695,-1.8310547,-0.48828125,0.0,0.0,0.0,50.993042,83.22693,79.33777
1768998502630,-0.9824219,0.10546875,0.07861328,-2.6245117,0.12207031,-1.4038086,0.0,0.0,0.0,50.993042,83.22693,79.33777
1768998502642,-0.9824219,0.10546875,0.07861328,-2.6245117,0.12207031,-1.4038086,0.0,0.0,0.0,50.009766,83.3313,78.618164
1768998502730,-1.0063477,0.087890625,0.07324219,-0.61035156,6.0424805,-0.4272461,0.0,0.0,0.0,50.009766,83.3313,78.618164
1768998502742,-1.0063477,0.087890625,0.07324219,-0.61035156,6.0424805,-0.4272461,0.0,0.0,0.0,52.075195,83.600464,80.66162
1768998502830,-0.98583984,0.08105469,0.05126953,1.7700195,11.108398,-3.6621094,0.0,0.0,0.0,52.075195,83.600464,80.66162
1768998502841,-0.98583984,0.08105469,0.05126953,1.7700195,11.108398,-3.6621094,0.0,0.0,0.0,57.991333,84.26514,86.57776
1768998502929,-0.9951172,0.05078125,-4.8828125E-4,-5.92041,11.59668,0.91552734,0.0,0.0,0.0,57.991333,84.26514,86.57776
1768998502941,-0.9951172,0.05078125,-4.8828125E-4,-5.92041,11.59668,0.91552734,0.0,0.0,0.0,66.84082,84.87488,95.61401
1768998503029,-0.99560547,0.084472656,0.0014648438,-1.7089844,11.230469,-1.8310547,0.0,0.0,0.0,66.84082,84.87488,95.61401
1768998503041,-0.99560547,0.084472656,0.0014648438,-1.7089844,11.230469,-1.8310547,0.0,0.0,0.0,79.8761,85.24292,109.385376
1768998503129,-1.0117188,0.080566406,0.0024414062,-0.7324219,12.207031,5.1879883,0.0,0.0,0.0,79.8761,85.24292,109.385376
1768998503140,-1.0117188,0.080566406,0.0024414062,-0.7324219,12.207031,5.1879883,0.0,0.0,0.0,94.68567,85.10559,124.72778
1768998503229,-1.0058594,0.08203125,-0.021972656,4.9438477,14.587402,4.760742,0.0,0.0,0.0,94.68567,85.10559,124.72778
1768998503240,-1.0058594,0.08203125,-0.021972656,4.9438477,14.587402,4.760742,0.0,0.0,0.0,107.25403,84.42444,137.807
1768998503328,-0.9790039,0.07910156,-0.06738281,0.8544922,17.211914,5.432129,0.0,0.0,0.0,107.25403,84.42444,137.807
1768998503340,-0.9790039,0.07910156,-0.06738281,0.8544922,17.211914,5.432129,0.0,0.0,0.0,119.4104,83.36426,150.3534
1768998503428,-1.0048828,0.10644531,-0.08251953,-5.9814453,17.089844,0.061035156,0.0,0.0,0.0,119.4104,83.36426,150.3534
1768998503440,-1.0048828,0.10644531,-0.08251953,-5.9814453,17.089844,0.061035156,0.0,0.0,0.0,128.46863,82.161255,160.67505
1768998503528,-0.9980469,0.1430664,-0.12402344,2.319336,10.803223,2.5024414,0.0,0.0,0.0,128.46863,82.161255,160.67505
1768998503540,-0.9980469,0.1430664,-0.12402344,2.319336,10.803223,2.5024414,0.0,0.0,0.0,134.47815,81.42517,167.6294
1768998503628,-0.93408203,0.12988281,-0.14404297,8.972168,7.507324,2.5024414,0.0,0.0,0.0,134.47815,81.42517,167.6294
1768998503639,-0.93408203,0.12988281,-0.14404297,8.972168,7.507324,2.5024414,0.0,0.0,0.0,137.22473,80.48035,170.95276
1768998503727,-0.99853516,0.12548828,-0.16015625,2.6245117,2.6245117,-0.18310547,0.0,0.0,0.0,137.22473,80.48035,170.95276
1768998503739,-0.99853516,0.12548828,-0.16015625,2.6245117,2.6245117,-0.18310547,0.0,0.0,0.0,139.00452,79.8761,173.02917
1768998503827,-0.99658203,0.111816406,-0.13867188,0.36621094,5.6762695,0.91552734,0.0,0.0,0.0,139.00452,79.8761,173.02917
1768998503838,-0.99658203,0.111816406,-0.13867188,0.36621094,5.6762695,0.91552734,0.0,0.0,0.0,140.7019,79.645386,175.05615
1768998503927,-0.9682617,0.13085938,-0.15332031,4.760742,1.8310547,-3.7841797,0.0,0.0,0.0,140.7019,79.645386,175.05615
1768998503938,-0.9682617,0.13085938,-0.15332031,4.760742,1.8310547,-3.7841797,0.0,0.0,0.0,142.42676,79.32678,177.48962
1768998504026,-0.9819336,0.11279297,-0.16064453,1.2817383,2.8076172,-1.7700195,0.0,0.0,0.0,142.42676,79.32678,177.48962
1768998504038,-0.9819336,0.11279297,-0.16064453,1.2817383,2.8076172,-1.7700195,0.0,0.0,0.0,144.28894,79.315796,179.84619
1768998504126,-0.95410156,0.114746094,-0.18310547,-2.319336,0.30517578,-3.6621094,0.0,0.0,0.0,144.28894,79.315796,179.84619
1768998504137,-0.95410156,0.114746094,-0.18310547,-2.319336,0.30517578,-3.6621094,0.0,0.0,0.0,146.71692,79.27185,-177.07764
1768998504226,-0.9951172,0.099609375,-0.17578125,-4.699707,-0.8544922,-3.540039,0.0,0.0,0.0,146.71692,79.27185,-177.07764
1768998504237,-0.9951172,0.099609375,-0.17578125,-4.699707,-0.8544922,-3.540039,0.0,0.0,0.0,147.1344,79.39819,-175.64392
1768998504325,-0.9711914,0.10449219,-0.17919922,0.0,-5.3100586,-3.0517578,0.0,0.0,0.0,147.1344,79.39819,-175.64392
1768998504337,-0.9711914,0.10449219,-0.17919922,0.0,-5.3100586,-3.0517578,0.0,0.0,0.0,148.06824,79.77173,-173.99048
1768998504425,-0.95214844,0.0703125,-0.14453125,4.638672,-10.192871,-4.272461,0.0,0.0,0.0,148.06824,79.77173,-173.99048
1768998504437,-0.95214844,0.0703125,-0.14453125,4.638672,-10.192871,-4.272461,0.0,0.0,0.0,148.4198,80.47485,-173.80371
1768998504525,-1.0205078,0.08935547,-0.14453125,3.7231445,-9.521484,-0.30517578,0.0,0.0,0.0,148.4198,80.47485,-173.80371
1768998504536,-1.0205078,0.08935547,-0.14453125,3.7231445,-9.521484,-0.30517578,0.0,0.0,0.0,145.26672,81.35925,-176.61072
1768998504625,-1.0078125,0.084472656,-0.12939453,-5.6152344,-6.958008,0.18310547,0.0,0.0,0.0,145.26672,81.35925,-176.61072
1768998504636,-1.0078125,0.084472656,-0.12939453,-5.6152344,-6.958008,0.18310547,0.0,0.0,0.0,143.07495,81.919556,-178.50037
1768998504724,-0.9819336,0.09423828,-0.09326172,-0.24414062,-4.8217773,1.5869141,0.0,0.0,0.0,143.07495,81.919556,-178.50037
1768998504736,-0.9819336,0.09423828,-0.09326172,-0.24414062,-4.8217773,1.5869141,0.0,0.0,0.0,140.52612,82.23816,179.28589
1768998504824,-0.98779297,0.103027344,-0.06542969,1.953125,-2.4414062,-3.0517578,0.0,0.0,0.0,140.52612,82.23816,179.28589
1768998504835,-0.98779297,0.103027344,-0.06542969,1.953125,-2.4414062,-3.0517578,0.0,0.0,0.0,139.51538,82.562256,178.31909
1768998504924,-1.0078125,0.092285156,-0.104003906,1.953125,-0.7324219,0.12207031,0.0,0.0,0.0,139.51538,82.562256,178.31909
1768998504935,-1.0078125,0.092285156,-0.104003906,1.953125,-0.7324219,0.12207031,0.0,0.0,0.0,138.36731,82.70508,177.39075
1768998505023,-1.0273438,0.08251953,-0.06738281,-1.159668,1.4648438,-2.2583008,0.0,0.0,0.0,138.36731,82.70508,177.39075
1768998505035,-1.0273438,0.08251953,-0.06738281,-1.159668,1.4648438,-2.2583008,0.0,0.0,0.0,139.72412,82.72705,178.90137
1768998505123,-0.9926758,0.08105469,-0.06933594,-4.272461,0.9765625,-7.019043,0.0,0.0,0.0,139.72412,82.72705,178.90137
1768998505135,-0.9926758,0.08105469,-0.06933594,-4.272461,0.9765625,-7.019043,0.0,0.0,0.0,142.83325,82.9303,-177.31934
1768998505223,-1.0043945,0.13232422,-0.122558594,7.446289,-5.9814453,-4.211426,0.0,0.0,0.0,142.83325,82.9303,-177.31934
1768998505234,-1.0043945,0.13232422,-0.122558594,7.446289,-5.9814453,-4.211426,0.0,0.0,0.0,142.70691,83.4137,-177.08313
1768998505323,-1.0102539,0.012207031,-0.10498047,0.12207031,-5.3710938,-5.3100586,0.0,0.0,0.0,142.70691,83.4137,-177.08313
1768998505334,-1.0102539,0.012207031,-0.10498047,0.12207031,-5.3710938,-5.3100586,0.0,0.0,0.0,146.11816,83.88611,-174.25964
1768998505422,-0.9819336,0.061035156,-0.10107422,-3.90625,-2.5634766,-7.6904297,0.0,0.0,0.0,146.11816,83.88611,-174.25964
1768998505434,-0.9819336,0.061035156,-0.10107422,-3.90625,-2.5634766,-7.6904297,0.0,0.0,0.0,150.40833,84.42444,-169.22241
1768998505522,-1.0043945,0.076660156,-0.09326172,3.3569336,-4.4555664,-3.7841797,0.0,0.0,0.0,150.40833,84.42444,-169.22241
1768998505533,-1.0043945,0.076660156,-0.09326172,3.3569336,-4.4555664,-3.7841797,0.0,0.0,0.0,153.86353,84.90234,-165.72876
1768998505622,-0.9926758,0.024902344,-0.06201172,2.6245117,-8.117676,-0.24414062,0.0,0.0,0.0,153.86353,84.90234,-165.72876
1768998505634,-0.9926758,0.024902344,-0.06201172,2.6245117,-8.117676,-0.24414062,0.0,0.0,0.0,153.68774,85.27588,-166.4154
1768998505721,-1.0170898,-0.0034179688,-0.038085938,-1.5258789,2.4414062,-4.699707,0.0,0.0,0.0,153.68774,85.27588,-166.4154
1768998505733,-1.0170898,-0.0034179688,-0.038085938,-1.5258789,2.4414062,-4.699707,0.0,0.0,0.0,156.89575,85.66589,-163.00415
1768998505821,-0.98828125,0.03466797,-0.09863281,-3.6010742,5.859375,-4.333496,0.0,0.0,0.0,156.89575,85.66589,-163.00415
1768998505833,-0.98828125,0.03466797,-0.09863281,-3.6010742,5.859375,-4.333496,0.0,0.0,0.0,163.33374,85.53955,-155.68176
1768998505921,-0.9921875,0.015136719,-0.088378906,-5.9814453,2.1972656,-0.7324219,0.0,0.0,0.0,163.33374,85.53955,-155.68176
1768998505932,-0.9921875,0.015136719,-0.088378906,-5.9814453,2.1972656,-0.7324219,0.0,0.0,0.0,166.71204,85.36377,-151.74316
1768998506021,-1.0004883,0.024902344,-0.088378906,-3.2958984,0.0,-0.4272461,0.0,0.0,0.0,166.71204,85.36377,-151.74316
1768998506032,-1.0004883,0.024902344,-0.088378906,-3.2958984,0.0,-0.4272461,0.0,0.0,0.0,167.52502,85.24841,-150.36987
1768998506120,-0.99072266,0.022949219,-0.09765625,0.0,-2.8076172,0.6713867,0.0,0.0,0.0,167.52502,85.24841,-150.36987
1768998506132,-0.99072266,0.022949219,-0.09765625,0.0,-2.8076172,0.6713867,0.0,0.0,0.0,167.50854,85.149536,-150.31494
1768998506220,-1.0126953,0.023925781,-0.092285156,-0.18310547,-1.6479492,0.91552734,0.0,0.0,0.0,167.50854,85.149536,-150.31494
1768998506231,-1.0126953,0.023925781,-0.092285156,-0.18310547,-1.6479492,0.91552734,0.0,0.0,0.0,165.87158,85.182495,-152.01782
1768998506320,-0.95458984,0.06201172,-0.046875,1.8920898,-4.5776367,0.18310547,0.0,0.0,0.0,165.87158,85.182495,-152.01782
1768998506331,-0.95458984,0.06201172,-0.046875,1.8920898,-4.5776367,0.18310547,0.0,0.0,0.0,163.45459,85.53955,-154.53369
1768998506419,-1.0068359,0.021972656,-0.09863281,-1.8920898,-8.239746,-0.91552734,0.0,0.0,0.0,163.45459,85.53955,-154.53369
1768998506431,-1.0068359,0.021972656,-0.09863281,-1.8920898,-8.239746,-0.91552734,0.0,0.0,0.0,160.5597,86.1438,-157.37366
1768998506519,-1.0395508,0.03466797,-0.017578125,3.2348633,3.112793,-1.6479492,0.0,0.0,0.0,160.5597,86.1438,-157.37366
1768998506531,-1.0395508,0.03466797,-0.017578125,3.2348633,3.112793,-1.6479492,0.0,0.0,0.0,156.89026,86.77002,-161.08704
1768998506619,-0.9848633,0.04736328,-0.037109375,-0.30517578,0.9765625,-0.4272461,0.0,0.0,0.0,156.89026,86.77002,-161.08704
1768998506630,-0.9848633,0.04736328,-0.037109375,-0.30517578,0.9765625,-0.4272461,0.0,0.0,0.0,159.00513,86.68762,-159.08752
1768998506718,-1.0024414,0.03173828,-0.040039062,1.0986328,2.4414062,-1.2817383,0.0,0.0,0.0,159.00513,86.68762,-159.08752
1768998506730,-1.0024414,0.03173828,-0.040039062,1.0986328,2.4414062,-1.2817383,0.0,0.0,0.0,159.5874,86.56128,-158.6261
1768998506818,-1.0239258,0.021484375,-0.068847656,-0.79345703,7.3242188,0.0,0.0,0.0,0.0,159.5874,86.56128,-158.6261
1768998506830,-1.0239258,0.021484375,-0.068847656,-0.79345703,7.3242188,0.0,0.0,0.0,0.0,162.20764,86.171265,-156.297
1768998506918,-1.0029297,0.017089844,-0.07763672,4.5776367,7.873535,1.4038086,0.0,0.0,0.0,162.20764,86.171265,-156.297
1768998506929,-1.0029297,0.017089844,-0.07763672,4.5776367,7.873535,1.4038086,0.0,0.0,0.0,164.03687,85.528564,-154.83582
1768998507018,-1.0112305,0.02734375,-0.072753906,0.4272461,7.1411133,-4.0283203,0.0,0.0,0.0,164.03687,85.528564,-154.83582
1768998507029,-1.0112305,0.02734375,-0.072753906,0.4272461,7.1411133,-4.0283203,0.0,0.0,0.0,168.1897,84.836426,-150.80383
1768998507117,-1.0117188,0.021972656,-0.118652344,0.5493164,6.225586,-3.479004,0.0,0.0,0.0,168.1897,84.836426,-150.80383
1768998507129,-1.0117188,0.021972656,-0.118652344,0.5493164,6.225586,-3.479004,0.0,0.0,0.0,171.27686,84.347534,-147.3761
1768998507217,-0.9638672,0.017578125,-0.110839844,-5.065918,5.432129,-4.5776367,0.0,0.0,0.0,171.27686,84.347534,-147.3761
1768998507229,-0.9638672,0.017578125,-0.110839844,-5.065918,5.432129,-4.5776367,0.0,0.0,0.0,175.4956,83.7323,-142.83325
1768998507317,-0.98828125,0.0126953125,-0.11279297,-1.5869141,4.0893555,-4.333496,0.0,0.0,0.0,175.4956,83.7323,-142.83325
1768998507328,-0.98828125,0.0126953125,-0.11279297,-1.5869141,4.0893555,-4.333496,0.0,0.0,0.0,179.46716,83.28735,-138.52661
1768998507417,-0.9819336,0.005859375,-0.109375,-0.61035156,0.36621094,-2.6855469,0.0,0.0,0.0,179.46716,83.28735,-138.52661
1768998507428,-0.9819336,0.005859375,-0.109375,-0.61035156,0.36621094,-2.6855469,0.0,0.0,0.0,-177.8247,82.99072,-135.65369
1768998507516,-0.9770508,0.001953125,-0.13720703,-2.2583008,1.8310547,-2.4414062,0.0,0.0,0.0,-177.8247,82.99072,-135.65369
1768998507528,-0.9770508,0.001953125,-0.13720703,-2.2583008,1.8310547,-2.4414062,0.0,0.0,0.0,-176.07239,82.8479,-133.80249
1768998507616,-0.98095703,-0.027832031,-0.14160156,0.5493164,1.3427734,-0.12207031,0.0,0.0,0.0,-176.07239,82.8479,-133.80249
1768998507628,-0.98095703,-0.027832031,-0.14160156,0.5493164,1.3427734,-0.12207031,0.0,0.0,0.0,-175.72083,82.71057,-133.46191
1768998507716,-1.0170898,-0.018554688,-0.13476562,1.2207031,-2.5634766,1.3427734,0.0,0.0,0.0,-175.72083,82.71057,-133.46191
1768998507727,-1.0170898,-0.018554688,-0.13476562,1.2207031,-2.5634766,1.3427734,0.0,0.0,0.0,-176.23718,82.76001,-134.17053
1768998507815,-0.9848633,-0.013183594,-0.123046875,-1.7700195,-5.004883,1.953125,0.0,0.0,0.0,-176.23718,82.76001,-134.17053
1768998507827,-0.9848633,-0.013183594,-0.123046875,-1.7700195,-5.004883,1.953125,0.0,0.0,0.0,-176.97327,83.133545,-135.0055
1768998507915,-0.98583984,0.02734375,-0.11230469,1.0986328,-2.0751953,2.8076172,0.0,0.0,0.0,-176.97327,83.133545,-135.0055
1768998507927,-0.98583984,0.02734375,-0.11230469,1.0986328,-2.0751953,2.8076172,0.0,0.0,0.0,-178.89587,83.36426,-136.84021
1768998508015,-1.0039062,0.033203125,-0.103027344,2.8686523,-1.2207031,1.159668,0.0,0.0,0.0,-178.89587,83.36426,-136.84021
1768998508027,-1.0039062,0.033203125,-0.103027344,2.8686523,-1.2207031,1.159668,0.0,0.0,0.0,179.07166,83.48511,-139.06494
1768998508114,-0.99316406,0.0107421875,-0.13330078,3.2348633,2.0751953,-2.6245117,0.0,0.0,0.0,179.07166,83.48511,-139.06494
1768998508126,-0.99316406,0.0107421875,-0.13330078,3.2348633,2.0751953,-2.6245117,0.0,0.0,0.0,179.8352,83.43567,-138.62
1768998508214,-0.99902344,0.0048828125,-0.13720703,7.1411133,-3.8452148,-1.5869141,0.0,0.0,0.0,179.8352,83.43567,-138.62
1768998508226,-0.99902344,0.0048828125,-0.13720703,7.1411133,-3.8452148,-1.5869141,0.0,0.0,0.0,-177.81921,83.40271,-136.90063
1768998508314,-0.98095703,0.0146484375,-0.107910156,3.2348633,-4.699707,7.8125,0.0,0.0,0.0,-177.81921,83.40271,-136.90063
1768998508325,-0.98095703,0.0146484375,-0.107910156,3.2348633,-4.699707,7.8125,0.0,0.0,0.0,-179.8352,83.79822,-139.5813
1768998508414,-0.9921875,4.8828125E-4,-0.08251953,-0.6713867,-3.540039,0.0,0.0,0.0,0.0,-179.8352,83.79822,-139.5813
1768998508425,-0.9921875,4.8828125E-4,-0.08251953,-0.6713867,-3.540039,0.0,0.0,0.0,0.0,178.00049,84.15527,-141.828
1768998508513,-1.0400391,0.01953125,-0.06640625,-10.131836,2.5024414,-2.0751953,0.0,0.0,0.0,178.00049,84.15527,-141.828
1768998508525,-1.0400391,0.01953125,-0.06640625,-10.131836,2.5024414,-2.0751953,0.0,0.0,0.0,177.15454,84.38049,-142.1521
1768998508613,-1.0014648,0.025390625,-0.057128906,-1.8920898,0.12207031,-3.540039,0.0,0.0,0.0,177.15454,84.38049,-142.1521
1768998508625,-1.0014648,0.025390625,-0.057128906,-1.8920898,0.12207031,-3.540039,0.0,0.0,0.0,-178.90686,84.51782,-137.79053
1768998508713,-1.0048828,0.029785156,-0.09472656,3.4179688,0.79345703,-0.061035156,0.0,0.0,0.0,-178.90686,84.51782,-137.79053
1768998508724,-1.0048828,0.029785156,-0.09472656,3.4179688,0.79345703,-0.061035156,0.0,0.0,0.0,-178.36853,84.611206,-137.10388
1768998508813,-0.99902344,-4.8828125E-4,-0.09326172,0.5493164,2.746582,-0.30517578,0.0,0.0,0.0,-178.36853,84.611206,-137.10388
1768998508825,-0.99902344,-4.8828125E-4,-0.09326172,0.5493164,2.746582,-0.30517578,0.0,0.0,0.0,-179.22546,84.40796,-138.1366
1768998508912,-1.0024414,0.0068359375,-0.11621094,-0.91552734,1.8920898,-1.4038086,0.0,0.0,0.0,-179.22546,84.40796,-138.1366
1768998508924,-1.0024414,0.0068359375,-0.11621094,-0.91552734,1.8920898,-1.4038086,0.0,0.0,0.0,-178.81348,84.193726,-137.70813
1768998509012,-0.9838867,0.0087890625,-0.10058594,-0.6713867,2.1362305,-1.7089844,0.0,0.0,0.0,-178.81348,84.193726,-137.70813
1768998509023,-0.9838867,0.0087890625,-0.10058594,-0.6713867,2.1362305,-1.7089844,0.0,0.0,0.0,-177.13257,83.94104,-136.09863
1768998509112,-0.99658203,0.0068359375,-0.11328125,-0.30517578,-0.48828125,0.0,0.0,0.0,0.0,-177.13257,83.94104,-136.09863
1768998509123,-0.99658203,0.0068359375,-0.11328125,-0.30517578,-0.48828125,0.0,0.0,0.0,0.0,-176.73706,83.913574,-135.73059
1768998509211,-0.99609375,0.0024414062,-0.099609375,-0.18310547,3.7841797,0.24414062,0.0,0.0,0.0,-176.73706,83.913574,-135.73059
1768998509223,-0.99609375,0.0024414062,-0.099609375,-0.18310547,3.7841797,0.24414062,0.0,0.0,0.0,-177.48413,83.68286,-136.47217
1768998509311,-0.98828125,-0.020019531,-0.119140625,0.061035156,1.0375977,0.9765625,0.0,0.0,0.0,-177.48413,83.68286,-136.47217
1768998509323,-0.98828125,-0.020019531,-0.119140625,0.061035156,1.0375977,0.9765625,0.0,0.0,0.0,-178.96729,83.49609,-137.69165
1768998509411,-1.015625,-0.03515625,-0.12109375,2.4414062,-1.7700195,5.065918,0.0,0.0,0.0,-178.96729,83.49609,-137.69165
1768998509422,-1.015625,-0.03515625,-0.12109375,2.4414062,-1.7700195,5.065918,0.0,0.0,0.0,178.7091,83.61694,-140.22949
1768998509511,-1.0214844,0.041015625,-0.13964844,-3.8452148,-6.1035156,8.666992,0.0,0.0,0.0,178.7091,83.61694,-140.22949
1768998509522,-1.0214844,0.041015625,-0.13964844,-3.8452148,-6.1035156,8.666992,0.0,0.0,0.0,172.35352,83.83667,-146.10718
1768998509610,-0.9975586,0.034179688,-0.08496094,-3.7231445,-5.493164,5.004883,0.0,0.0,0.0,172.35352,83.83667,-146.10718
1768998509622,-0.9975586,0.034179688,-0.08496094,-3.7231445,-5.493164,5.004883,0.0,0.0,0.0,164.54773,84.19922,-153.78662
1768998509710,-0.97753906,0.061523438,-0.06933594,1.4648438,-3.3569336,3.112793,0.0,0.0,0.0,164.54773,84.19922,-153.78662
1768998509722,-0.97753906,0.061523438,-0.06933594,1.4648438,-3.3569336,3.112793,0.0,0.0,0.0,159.24683,84.46289,-159.12598
1768998509810,-1.0288086,0.061035156,-0.078125,1.7089844,-1.3427734,3.479004,0.0,0.0,0.0,159.24683,84.46289,-159.12598
1768998509821,-1.0288086,0.061035156,-0.078125,1.7089844,-1.3427734,3.479004,0.0,0.0,0.0,153.57788,84.56177,-165.03113
1768998509909,-0.9760742,0.064941406,-0.106933594,9.643555,-4.699707,3.540039,0.0,0.0,0.0,153.57788,84.56177,-165.03113
1768998509921,-0.9760742,0.064941406,-0.106933594,9.643555,-4.699707,3.540039,0.0,0.0,0.0,150.49622,84.572754,-168.76099
1768998510009,-1.003418,0.041992188,-0.05126953,6.164551,-6.3476562,-2.2583008,0.0,0.0,0.0,150.49622,84.572754,-168.76099
1768998510021,-1.003418,0.041992188,-0.05126953,6.164551,-6.3476562,-2.2583008,0.0,0.0,0.0,145.5304,84.92981,-174.75952
1768998510109,-1.1005859,0.08984375,-0.011230469,-3.112793,-0.91552734,-6.164551,0.0,0.0,0.0,145.5304,84.92981,-174.75952
1768998510120,-1.1005859,0.08984375,-0.011230469,-3.112793,-0.91552734,-6.164551,0.0,0.0,0.0,142.86072,85.440674,-177.4292
1768998510209,-0.9892578,0.05908203,-0.03564453,-2.4414062,4.333496,-7.2631836,0.0,0.0,0.0,142.86072,85.440674,-177.4292
1768998510220,-0.9892578,0.05908203,-0.03564453,-2.4414062,4.333496,-7.2631836,0.0,0.0,0.0,150.46326,85.75928,-169.58496
1768998510308,-0.99609375,0.05078125,-0.060546875,3.4179688,6.713867,-7.9345703,0.0,0.0,0.0,150.46326,85.75928,-169.58496
1768998510320,-0.99609375,0.05078125,-0.060546875,3.4179688,6.713867,-7.9345703,0.0,0.0,0.0,160.35095,85.649414,-159.68628
1768998510408,-1.0175781,0.014160156,-0.08935547,3.8452148,7.019043,-7.3242188,0.0,0.0,0.0,160.35095,85.649414,-159.68628
1768998510419,-1.0175781,0.014160156,-0.08935547,3.8452148,7.019043,-7.3242188,0.0,0.0,0.0,171.28235,85.182495,-148.92517
1768998510508,-0.9897461,-0.0087890625,-0.104003906,-2.380371,2.1362305,-4.8217773,0.0,0.0,0.0,171.28235,85.182495,-148.92517
1768998510519,-0.9897461,-0.0087890625,-0.104003906,-2.380371,2.1362305,-4.8217773,0.0,0.0,0.0,178.22571,84.885864,-141.9873
1768998510607,-0.984375,-0.0034179688,-0.115722656,-6.652832,5.126953,-1.4038086,0.0,0.0,0.0,178.22571,84.885864,-141.9873
1768998510619,-0.984375,-0.0034179688,-0.115722656,-6.652832,5.126953,-1.4038086,0.0,0.0,0.0,-178.77502,84.523315,-138.43323
1768998510707,-0.98779297,0.0029296875,-0.111816406,-0.8544922,3.479004,-0.8544922,0.0,0.0,0.0,-178.77502,84.523315,-138.43323
1768998510719,-0.98779297,0.0029296875,-0.111816406,-0.8544922,3.479004,-0.8544922,0.0,0.0,0.0,-177.20398,83.913574,-136.51062
1768998510807,-1.0170898,-0.001953125,-0.10253906,-6.4086914,-0.9765625,4.638672,0.0,0.0,0.0,-177.20398,83.913574,-136.51062
1768998510818,-1.0170898,-0.001953125,-0.10253906,-6.4086914,-0.9765625,4.638672,0.0,0.0,0.0,-179.84619,83.776245,-138.75183
1768998510907,-0.98339844,0.016601562,-0.125,1.5869141,-3.7231445,2.5024414,0.0,0.0,0.0,-179.84619,83.776245,-138.75183
1768998510918,-0.98339844,0.016601562,-0.125,1.5869141,-3.7231445,2.5024414,0.0,0.0,0.0,174.94629,83.84766,-143.42102
1768998511006,-0.98339844,0.044433594,-0.07519531,1.8310547,-3.479004,1.8920898,0.0,0.0,0.0,174.94629,83.84766,-143.42102
1768998511018,-0.98339844,0.044433594,-0.07519531,1.8310547,-3.479004,1.8920898,0.0,0.0,0.0,173.07312,84.193726,-145.42053
1768998511106,-0.96435547,0.03515625,-0.0703125,-0.48828125,-2.380371,5.9814453,0.0,0.0,0.0,173.07312,84.193726,-145.42053
1768998511118,-0.96435547,0.03515625,-0.0703125,-0.48828125,-2.380371,5.9814453,0.0,0.0,0.0,166.79443,84.539795,-151.72119
1768998511206,-1.0454102,0.047851562,-0.087402344,-0.9765625,-1.7700195,3.0517578,0.0,0.0,0.0,166.79443,84.539795,-151.72119
1768998511217,-1.0454102,0.047851562,-0.087402344,-0.9765625,-1.7700195,3.0517578,0.0,0.0,0.0,160.8728,84.6167,-157.65381
1768998511305,-0.96435547,0.05517578,-0.09716797,-0.36621094,1.8920898,0.0,0.0,0.0,0.0,160.8728,84.6167,-157.65381
1768998511317,-0.96435547,0.05517578,-0.09716797,-0.36621094,1.8920898,0.0,0.0,0.0,0.0,160.11475,84.42993,-158.51624
1768998511405,-0.984375,0.055664062,-0.1171875,19.104004,-1.8920898,6.164551,0.0,0.0,0.0,160.11475,84.42993,-158.51624
1768998511417,-0.984375,0.055664062,-0.1171875,19.104004,-1.8920898,6.164551,0.0,0.0,0.0,155.53345,84.5343,-164.09729
1768998511505,-1.0068359,0.068847656,-0.10058594,-9.643555,-4.699707,3.4179688,0.0,0.0,0.0,155.53345,84.5343,-164.09729
1768998511518,-1.0068359,0.068847656,-0.10058594,-9.643555,-4.699707,3.4179688,0.0,0.0,0.0,149.19983,84.523315,-170.98022
1768998511605,-1.0205078,0.060058594,-0.06591797,6.225586,-8.850098,2.4414062,0.0,0.0,0.0,149.19983,84.523315,-170.98022
1768998511616,-1.0205078,0.060058594,-0.06591797,6.225586,-8.850098,2.4414062,0.0,0.0,0.0,143.33862,84.92432,-177.33032
1768998511705,-1.0395508,0.06933594,0.012207031,2.380371,2.319336,1.8310547,0.0,0.0,0.0,143.33862,84.92432,-177.33032
1768998511716,-1.0395508,0.06933594,0.012207031,2.380371,2.319336,1.8310547,0.0,0.0,0.0,137.32361,85.14404,175.86914
1768998511805,-1.0224609,0.06201172,-0.05078125,1.0986328,2.2583008,-1.8310547,0.0,0.0,0.0,137.32361,85.14404,175.86914
1768998511816,-1.0224609,0.06201172,-0.05078125,1.0986328,2.2583008,-1.8310547,0.0,0.0,0.0,136.08765,85.094604,174.73206
1768998511904,-1.0541992,0.04736328,-0.06347656,-4.0893555,3.2958984,-1.2817383,0.0,0.0,0.0,136.08765,85.094604,174.73206
1768998511916,-1.0541992,0.04736328,-0.06347656,-4.0893555,3.2958984,-1.2817383,0.0,0.0,0.0,137.36206,84.91333,176.3031
1768998512004,-1.0,0.018066406,-0.083496094,-2.6245117,0.48828125,-7.9956055,0.0,0.0,0.0,137.36206,84.91333,176.3031
1768998512015,-1.0,0.018066406,-0.083496094,-2.6245117,0.48828125,-7.9956055,0.0,0.0,0.0,144.22852,84.84192,-176.57776
1768998512103,-0.9663086,0.072265625,-0.037597656,-0.061035156,0.79345703,-0.36621094,0.0,0.0,0.0,144.22852,84.84192,-176.57776
1768998512115,-0.9663086,0.072265625,-0.037597656,-0.061035156,0.79345703,-0.36621094,0.0,0.0,0.0,148.44177,85.198975,-172.22717
1768998512203,-1.0146484,0.06591797,-0.059570312,-4.638672,-0.4272461,5.554199,0.0,0.0,0.0,148.44177,85.198975,-172.22717
1768998512215,-1.0146484,0.06591797,-0.059570312,-4.638672,-0.4272461,5.554199,0.0,0.0,0.0,143.4375,85.17151,-177.01721
1768998512303,-0.98583984,0.08251953,-0.03955078,10.803223,2.5024414,1.4648438,0.0,0.0,0.0,143.4375,85.17151,-177.01721
1768998512314,-0.98583984,0.08251953,-0.03955078,10.803223,2.5024414,1.4648438,0.0,0.0,0.0,141.70715,85.03418,-179.25293
1768998512402,-1.0214844,0.064941406,-0.06982422,6.5307617,0.4272461,6.5307617,0.0,0.0,0.0,141.70715,85.03418,-179.25293
1768998512414,-1.0214844,0.064941406,-0.06982422,6.5307617,0.4272461,6.5307617,0.0,0.0,0.0,138.07617,84.65515,176.73706
1768998512503,-0.98535156,0.06689453,-0.10205078,4.638672,-5.065918,1.0986328,0.0,0.0,0.0,138.07617,84.65515,176.73706
1768998512514,-0.98535156,0.06689453,-0.10205078,4.638672,-5.065918,1.0986328,0.0,0.0,0.0,134.78027,84.49036,172.95227
1768998512602,-0.9838867,0.07910156,-0.055664062,3.2958984,-5.9814453,1.4038086,0.0,0.0,0.0,134.78027,84.49036,172.95227
1768998512613,-0.9838867,0.07910156,-0.055664062,3.2958984,-5.9814453,1.4038086,0.0,0.0,0.0,128.8147,84.68262,166.55823
1768998512702,-0.95458984,0.080078125,-0.079589844,4.9438477,-7.9345703,-1.4038086,0.0,0.0,0.0,128.8147,84.68262,166.55823
1768998512713,-0.95458984,0.080078125,-0.079589844,4.9438477,-7.9345703,-1.4038086,0.0,0.0,0.0,123.75,85.05615,161.30676
1768998512801,-0.9604492,0.06298828,-0.06933594,-5.126953,-0.8544922,-2.5634766,0.0,0.0,0.0,123.75,85.05615,161.30676
1768998512813,-0.9604492,0.06298828,-0.06933594,-5.126953,-0.8544922,-2.5634766,0.0,0.0,0.0,123.45886,85.30884,161.41113
1768998512901,-0.9536133,0.060546875,-0.033691406,-2.4414062,-2.1362305,-5.126953,0.0,0.0,0.0,123.45886,85.30884,161.41113
1768998512912,-0.9536133,0.060546875,-0.033691406,-2.4414062,-2.1362305,-5.126953,0.0,0.0,0.0,125.04089,85.79773,163.10852
1768998513001,-1.0004883,0.072265625,-0.0390625,3.3569336,-2.746582,-4.5776367,0.0,0.0,0.0,125.04089,85.79773,163.10852
1768998513012,-1.0004883,0.072265625,-0.0390625,3.3569336,-2.746582,-4.5776367,0.0,0.0,0.0,123.66211,86.3031,161.7627
1768998513100,-1.0073242,0.061035156,-0.030273438,2.9296875,-2.6245117,-2.6855469,0.0,0.0,0.0,123.66211,86.3031,161.7627
1768998513112,-1.0073242,0.061035156,-0.030273438,2.9296875,-2.6245117,-2.6855469,0.0,0.0,0.0,122.56348,86.621704,160.26855
1768998513200,-1.0009766,0.026855469,-0.030761719,-1.3427734,-2.8686523,-6.8359375,0.0,0.0,0.0,122.56348,86.621704,160.26855
1768998513212,-1.0009766,0.026855469,-0.030761719,-1.3427734,-2.8686523,-6.8359375,0.0,0.0,0.0,123.53027,87.13257,161.18591
1768998513300,-0.9980469,0.025390625,-0.010253906,-8.361816,-4.699707,-9.094238,0.0,0.0,0.0,123.53027,87.13257,161.18591
1768998513311,-0.9980469,0.025390625,-0.010253906,-8.361816,-4.699707,-9.094238,0.0,0.0,0.0,127.97974,88.02246,166.25061
1768998513400,-0.97021484,0.0234375,-0.0126953125,-10.131836,-1.8920898,-6.1035156,0.0,0.0,0.0,127.97974,88.02246,166.25061
1768998513411,-0.97021484,0.0234375,-0.0126953125,-10.131836,-1.8920898,-6.1035156,0.0,0.0,0.0,140.05371,88.70361,179.0387
1768998513499,-1.0336914,0.025878906,-0.00390625,-0.9765625,-0.91552734,-4.4555664,0.0,0.0,0.0,140.05371,88.70361,179.0387
1768998513511,-1.0336914,0.025878906,-0.00390625,-0.9765625,-0.91552734,-4.4555664,0.0,0.0,0.0,141.39954,89.34631,-178.94531
1768998513599,-1.0024414,-0.022949219,-0.0073242188,-9.460449,1.0986328,1.8920898,0.0,0.0,0.0,141.39954,89.34631,-178.94531
1768998513611,-1.0024414,-0.022949219,-0.0073242188,-9.460449,1.0986328,1.8920898,0.0,0.0,0.0,142.10266,89.23645,-178.06091
1768998513699,-1.0,0.0073242188,-0.012207031,-2.6855469,3.3569336,1.0986328,0.0,0.0,0.0,142.10266,89.23645,-178.06091
1768998513710,-1.0,0.0073242188,-0.012207031,-2.6855469,3.3569336,1.0986328,0.0,0.0,0.0,145.25574,89.071655,-174.64966
1768998513798,-1.0170898,0.020019531,-0.030273438,-8.117676,0.91552734,2.6245117,0.0,0.0,0.0,145.25574,89.071655,-174.64966
1768998513810,-1.0170898,0.020019531,-0.030273438,-8.117676,0.91552734,2.6245117,0.0,0.0,0.0,140.34485,88.725586,-179.40125
1768998513898,-1.0043945,0.0063476562,-0.0053710938,-3.7231445,5.3100586,2.8686523,0.0,0.0,0.0,140.34485,88.725586,-179.40125
1768998513910,-1.0043945,0.0063476562,-0.0053710938,-3.7231445,5.3100586,2.8686523,0.0,0.0,0.0,138.67493,88.40698,178.43445
1768998513998,-0.99316406,0.024414062,-0.022460938,-2.6855469,5.004883,5.065918,0.0,0.0,0.0,138.67493,88.40698,178.43445
1768998514009,-0.99316406,0.024414062,-0.022460938,-2.6855469,5.004883,5.065918,0.0,0.0,0.0,138.90564,87.665405,178.83545
1768998514098,-1.0029297,-0.0048828125,-0.024902344,-10.803223,5.92041,-0.91552734,0.0,0.0,0.0,138.90564,87.665405,178.83545
1768998514109,-1.0029297,-0.0048828125,-0.024902344,-10.803223,5.92041,-0.91552734,0.0,0.0,0.0,142.50916,87.11609,-176.90186
1768998514197,-1.0092773,-0.0078125,-0.03857422,-14.6484375,4.211426,-8.056641,0.0,0.0,0.0,142.50916,87.11609,-176.90186
1768998514209,-1.0092773,-0.0078125,-0.03857422,-14.6484375,4.211426,-8.056641,0.0,0.0,0.0,155.04456,87.01721,-163.0426
1768998514297,-0.984375,0.03955078,-0.068359375,-15.930176,-2.5634766,-2.8076172,0.0,0.0,0.0,155.04456,87.01721,-163.0426
1768998514309,-0.984375,0.03955078,-0.068359375,-15.930176,-2.5634766,-2.8076172,0.0,0.0,0.0,166.30005,87.28638,-150.32043
1768998514397,-0.9941406,0.06542969,-0.0390625,-9.643555,-3.2958984,0.8544922,0.0,0.0,0.0,166.30005,87.28638,-150.32043
1768998514408,-0.9941406,0.06542969,-0.0390625,-9.643555,-3.2958984,0.8544922,0.0,0.0,0.0,164.70703,87.53906,-151.36963
1768998514497,-1.0224609,0.047851562,-0.045898438,1.8920898,-0.91552734,4.699707,0.0,0.0,0.0,164.70703,87.53906,-151.36963
1768998514508,-1.0224609,0.047851562,-0.045898438,1.8920898,-0.91552734,4.699707,0.0,0.0,0.0,149.11194,87.43469,-167.32727
1768998514596,-0.99658203,0.046875,-0.017578125,2.0141602,-3.4179688,2.4414062,0.0,0.0,0.0,149.11194,87.43469,-167.32727
1768998514608,-0.99658203,0.046875,-0.017578125,2.0141602,-3.4179688,2.4414062,0.0,0.0,0.0,139.27917,87.456665,-178.15979
1768998514697,-0.9975586,0.04638672,-0.022460938,9.765625,-1.5869141,0.4272461,0.0,0.0,0.0,139.27917,87.456665,-178.15979
1768998514708,-0.9975586,0.04638672,-0.022460938,9.765625,-1.5869141,0.4272461,0.0,0.0,0.0,134.41772,87.473145,175.79773
1768998514796,-1.0126953,0.045898438,-0.017578125,6.713867,-3.112793,0.91552734,0.0,0.0,0.0,134.41772,87.473145,175.79773
1768998514807,-1.0126953,0.045898438,-0.017578125,6.713867,-3.112793,0.91552734,0.0,0.0,0.0,128.39722,87.51709,168.61267
1768998514896,-1.0151367,0.03564453,-0.017578125,-1.0986328,-2.5024414,-1.953125,0.0,0.0,0.0,128.39722,87.51709,168.61267
1768998514907,-1.0151367,0.03564453,-0.017578125,-1.0986328,-2.5024414,-1.953125,0.0,0.0,0.0,126.39221,87.698364,165.91003
1768998514995,-0.9692383,-0.018066406,-0.0126953125,-0.48828125,-1.2817383,-7.873535,0.0,0.0,0.0,126.39221,87.698364,165.91003
1768998515007,-0.9692383,-0.018066406,-0.0126953125,-0.48828125,-1.2817383,-7.873535,0.0,0.0,0.0,128.79822,87.962036,167.99744
1768998515095,-0.9790039,0.07128906,-0.032226562,5.1879883,-0.061035156,0.24414062,0.0,0.0,0.0,128.79822,87.962036,167.99744
1768998515106,-0.9790039,0.07128906,-0.032226562,5.1879883,-0.061035156,0.24414062,0.0,0.0,0.0,135.85693,88.428955,174.63867
1768998515195,-0.98339844,0.041015625,-0.060058594,7.9345703,-6.164551,1.8310547,0.0,0.0,0.0,135.85693,88.428955,174.63867
1768998515206,-0.98339844,0.041015625,-0.060058594,7.9345703,-6.164551,1.8310547,0.0,0.0,0.0,122.09656,88.37952,159.58191
1768998515295,-0.98828125,0.01171875,-0.015136719,11.230469,-9.399414,-2.319336,0.0,0.0,0.0,122.09656,88.37952,159.58191
1768998515306,-0.98828125,0.01171875,-0.015136719,11.230469,-9.399414,-2.319336,0.0,0.0,0.0,93.50464,88.45642,129.41345
1768998515394,-0.99560547,0.06347656,0.012207031,15.197754,-17.700195,6.5307617,0.0,0.0,0.0,93.50464,88.45642,129.41345
1768998515406,-0.99560547,0.06347656,0.012207031,15.197754,-17.700195,6.5307617,0.0,0.0,0.0,47.142334,87.923584,81.31531
1768998515494,-1.0,0.032714844,0.015136719,13.48877,-32.348633,14.038086,0.0,0.0,0.0,47.142334,87.923584,81.31531
1768998515505,-1.0,0.032714844,0.015136719,13.48877,-32.348633,14.038086,0.0,0.0,0.0,40.55603,85.69336,72.68555
1768998515593,-1.0117188,0.059570312,0.11621094,19.042969,-29.052734,16.357422,0.0,0.0,0.0,40.55603,85.69336,72.68555
1768998515605,-1.0117188,0.059570312,0.11621094,19.042969,-29.052734,16.357422,0.0,0.0,0.0,35.700073,82.43042,65.56641
1768998515693,-0.9863281,0.07714844,0.14794922,4.5776367,-36.010742,8.300781,0.0,0.0,0.0,35.700073,82.43042,65.56641
1768998515705,-0.9863281,0.07714844,0.14794922,4.5776367,-36.010742,8.300781,0.0,0.0,0.0,32.44812,79.799194,61.09497
1768998515793,-0.9609375,0.13964844,0.23535156,-3.9672852,-11.779785,19.836426,0.0,0.0,0.0,32.44812,79.799194,61.09497
1768998515804,-0.9609375,0.13964844,0.23535156,-3.9672852,-11.779785,19.836426,0.0,0.0,0.0,32.684326,76.89331,61.21582
1768998515893,-0.9716797,0.1484375,0.24902344,8.911133,-15.075684,6.225586,0.0,0.0,0.0,32.684326,76.89331,61.21582
1768998515904,-0.9716797,0.1484375,0.24902344,8.911133,-15.075684,6.225586,0.0,0.0,0.0,32.612915,75.18494,60.880737
1768998515992,-0.96484375,0.15820312,0.23730469,-3.90625,-15.258789,8.422852,0.0,0.0,0.0,32.612915,75.18494,60.880737
1768998516004,-0.96484375,0.15820312,0.23730469,-3.90625,-15.258789,8.422852,0.0,0.0,0.0,31.734009,73.56445,59.677734
1768998516092,-0.9555664,0.1381836,0.2919922,-1.7700195,-7.9956055,2.8686523,0.0,0.0,0.0,31.734009,73.56445,59.677734
1768998516103,-0.9555664,0.1381836,0.2919922,-1.7700195,-7.9956055,2.8686523,0.0,0.0,0.0,31.536255,72.108765,58.842773
1768998516192,-0.9448242,0.17529297,0.26953125,-4.699707,-17.27295,-3.0517578,0.0,0.0,0.0,31.536255,72.108765,58.842773
1768998516203,-0.9448242,0.17529297,0.26953125,-4.699707,-17.27295,-3.0517578,0.0,0.0,0.0,28.844604,71.42212,55.859985
1768998516291,-0.92871094,0.20605469,0.3095703,-13.85498,-4.8828125,11.169434,0.0,0.0,0.0,28.844604,71.42212,55.859985
1768998516303,-0.92871094,0.20605469,0.3095703,-13.85498,-4.8828125,11.169434,0.0,0.0,0.0,27.927246,70.15869,55.53589
1768998516391,-0.92041016,0.16455078,0.33251953,14.221191,2.8686523,-1.0375977,0.0,0.0,0.0,27.927246,70.15869,55.53589
1768998516403,-0.92041016,0.16455078,0.33251953,14.221191,2.8686523,-1.0375977,0.0,0.0,0.0,29.036865,69.87854,55.74463
1768998516491,-0.92871094,0.2055664,0.3251953,0.0,-7.8125,1.3427734,0.0,0.0,0.0,29.036865,69.87854,55.74463
1768998516502,-0.92871094,0.2055664,0.3251953,0.0,-7.8125,1.3427734,0.0,0.0,0.0,29.970703,69.86755,55.250244
1768998516591,-0.9350586,0.17089844,0.30371094,18.371582,8.605957,-5.065918,0.0,0.0,0.0,29.970703,69.86755,55.250244
1768998516602,-0.9350586,0.17089844,0.30371094,18.371582,8.605957,-5.065918,0.0,0.0,0.0,29.575195,69.47754,54.13513
1768998516690,-0.94140625,0.17285156,0.27392578,0.5493164,1.4038086,-3.1738281,0.0,0.0,0.0,29.575195,69.47754,54.13513
1768998516702,-0.94140625,0.17285156,0.27392578,0.5493164,1.4038086,-3.1738281,0.0,0.0,0.0,29.904785,70.20264,52.580566
1768998516790,-0.9404297,0.1640625,0.29101562,2.6855469,1.8310547,-1.5869141,0.0,0.0,0.0,29.904785,70.20264,52.580566
1768998516802,-0.9404297,0.1640625,0.29101562,2.6855469,1.8310547,-1.5869141,0.0,0.0,0.0,29.838867,70.36743,51.866455
1768998516890,-0.953125,0.15917969,0.27734375,2.380371,-1.0375977,-1.4038086,0.0,0.0,0.0,29.838867,70.36743,51.866455
1768998516901,-0.953125,0.15917969,0.27734375,2.380371,-1.0375977,-1.4038086,0.0,0.0,0.0,29.597168,70.49927,50.564575
1768998516990,-0.9394531,0.1586914,0.2993164,-0.61035156,-0.79345703,0.0,0.0,0.0,0.0,29.597168,70.49927,50.564575
1768998517001,-0.9394531,0.1586914,0.2993164,-0.61035156,-0.79345703,0.0,0.0,0.0,0.0,29.300537,70.27954,50.020752
1768998517089,-0.9404297,0.16210938,0.30078125,-2.6855469,-1.5869141,0.61035156,0.0,0.0,0.0,29.300537,70.27954,50.020752
1768998517101,-0.9404297,0.16210938,0.30078125,-2.6855469,-1.5869141,0.61035156,0.0,0.0,0.0,29.042358,70.180664,49.400024
1768998517189,-0.9394531,0.17822266,0.30615234,-2.8076172,0.5493164,1.0986328,0.0,0.0,0.0,29.042358,70.180664,49.400024
1768998517201,-0.9394531,0.17822266,0.30615234,-2.8076172,0.5493164,1.0986328,0.0,0.0,0.0,28.948975,69.955444,49.37256
1768998517289,-0.94433594,0.17382812,0.30517578,2.6855469,1.4648438,-1.2207031,0.0,0.0,0.0,28.948975,69.955444,49.37256
1768998517300,-0.94433594,0.17382812,0.30517578,2.6855469,1.4648438,-1.2207031,0.0,0.0,0.0,29.42688,70.09827,49.361572
1768998517388,-0.9355469,0.1796875,0.29736328,-0.24414062,0.18310547,-0.24414062,0.0,0.0,0.0,29.42688,70.09827,49.361572
1768998517400,-0.9355469,0.1796875,0.29736328,-0.24414062,0.18310547,-0.24414062,0.0,0.0,0.0,29.481812,70.24109,48.911133
1768998517488,-0.95214844,0.17138672,0.28515625,2.746582,0.79345703,-1.4038086,0.0,0.0,0.0,29.481812,70.24109,48.911133
1768998517500,-0.95214844,0.17138672,0.28515625,2.746582,0.79345703,-1.4038086,0.0,0.0,0.0,29.4104,70.12573,48.62549
1768998517588,-0.9433594,0.17089844,0.2836914,-2.1362305,-1.3427734,-0.61035156,0.0,0.0,0.0,29.4104,70.12573,48.62549
1768998517599,-0.9433594,0.17089844,0.2836914,-2.1362305,-1.3427734,-0.61035156,0.0,0.0,0.0,29.300537,70.14221,47.982788
1768998517688,-0.9394531,0.17773438,0.29541016,-1.7089844,-2.6245117,-1.5258789,0.0,0.0,0.0,29.300537,70.14221,47.982788
1768998517699,-0.9394531,0.17773438,0.29541016,-1.7089844,-2.6245117,-1.5258789,0.0,0.0,0.0,28.811646,70.026855,47.34558
1768998517787,-0.93652344,0.17138672,0.30615234,1.5869141,-2.8686523,-2.5634766,0.0,0.0,0.0,28.811646,70.026855,47.34558
1768998517799,-0.93652344,0.17138672,0.30615234,1.5869141,-2.8686523,-2.5634766,0.0,0.0,0.0,28.185425,69.92798,46.362305
1768998517887,-0.9316406,0.15332031,0.3022461,2.2583008,2.380371,-1.7700195,0.0,0.0,0.0,28.185425,69.92798,46.362305
1768998517899,-0.9316406,0.15332031,0.3022461,2.2583008,2.380371,-1.7700195,0.0,0.0,0.0,27.872314,69.922485,45.52185
1768998517987,-0.9355469,0.1640625,0.30664062,1.3427734,1.3427734,-1.7089844,0.0,0.0,0.0,27.872314,69.922485,45.52185
1768998517998,-0.9355469,0.1640625,0.30664062,1.3427734,1.3427734,-1.7089844,0.0,0.0,0.0,27.960205,70.14221,45.2417
1768998518087,-0.94628906,0.14257812,0.27929688,4.699707,1.6479492,-0.61035156,0.0,0.0,0.0,27.960205,70.14221,45.2417
1768998518098,-0.94628906,0.14257812,0.27929688,4.699707,1.6479492,-0.61035156,0.0,0.0,0.0,28.070068,70.1532,44.763794
1768998518186,-0.9560547,0.15966797,0.28808594,-3.6010742,-0.061035156,0.6713867,0.0,0.0,0.0,28.070068,70.1532,44.763794
1768998518198,-0.9560547,0.15966797,0.28808594,-3.6010742,-0.061035156,0.6713867,0.0,0.0,0.0,28.146973,70.20813,44.544067
1768998518286,-0.9321289,0.16796875,0.2841797,3.0517578,-0.4272461,-1.4038086,0.0,0.0,0.0,28.146973,70.20813,44.544067
1768998518297,-0.9321289,0.16796875,0.2841797,3.0517578,-0.4272461,-1.4038086,0.0,0.0,0.0,27.976685,70.08728,44.274902
1768998518386,-0.9428711,0.1743164,0.29589844,-2.8076172,-1.2207031,0.36621094,0.0,0.0,0.0,27.976685,70.08728,44.274902
1768998518397,-0.9428711,0.1743164,0.29589844,-2.8076172,-1.2207031,0.36621094,0.0,0.0,0.0,27.910767,70.0708,44.000244
1768998518485,-0.94677734,0.171875,0.30371094,2.319336,0.18310547,-1.3427734,0.0,0.0,0.0,27.910767,70.0708,44.000244
1768998518497,-0.94677734,0.171875,0.30371094,2.319336,0.18310547,-1.3427734,0.0,0.0,0.0,27.960205,70.01587,43.9563
1768998518585,-0.94091797,0.16796875,0.28808594,1.4038086,0.9765625,-1.0375977,0.0,0.0,0.0,27.960205,70.01587,43.9563
1768998518597,-0.94091797,0.16796875,0.28808594,1.4038086,0.9765625,-1.0375977,0.0,0.0,0.0,28.048096,70.18616,43.659668
1768998518685,-0.9482422,0.16064453,0.2993164,1.953125,0.61035156,-1.4648438,0.0,0.0,0.0,28.048096,70.18616,43.659668
1768998518696,-0.9482422,0.16064453,0.2993164,1.953125,0.61035156,-1.4648438,0.0,0.0,0.0,28.075562,70.268555,43.483887
1768998518785,-0.94189453,0.15820312,0.28857422,1.159668,0.36621094,-0.5493164,0.0,0.0,0.0,28.075562,70.268555,43.483887
1768998518796,-0.94189453,0.15820312,0.28857422,1.159668,0.36621094,-0.5493164,0.0,0.0,0.0,28.119507,70.339966,43.346558
1768998518884,-0.93847656,0.16015625,0.28808594,-0.5493164,-0.6713867,-0.4272461,0.0,0.0,0.0,28.119507,70.339966,43.346558
1768998518896,-0.93847656,0.16015625,0.28808594,-0.5493164,-0.6713867,-0.4272461,0.0,0.0,0.0,28.026123,70.35095,43.148804
1768998518984,-0.94921875,0.15771484,0.29003906,0.36621094,-0.12207031,-1.0375977,0.0,0.0,0.0,28.026123,70.35095,43.148804
1768998518995,-0.94921875,0.15771484,0.29003906,0.36621094,-0.12207031,-1.0375977,0.0,0.0,0.0,27.822876,70.30701,42.93457
1768998519084,-0.94970703,0.15527344,0.2939453,-0.6713867,-0.18310547,-0.5493164,0.0,0.0,0.0,27.822876,70.30701,42.93457
1768998519095,-0.94970703,0.15527344,0.2939453,-0.6713867,-0.18310547,-0.5493164,0.0,0.0,0.0,27.866821,70.32898,42.907104
1768998519183,-0.9428711,0.15966797,0.29638672,-1.8310547,-0.4272461,0.12207031,0.0,0.0,0.0,27.866821,70.32898,42.907104
1768998519195,-0.9428711,0.15966797,0.29638672,-1.8310547,-0.4272461,0.12207031,0.0,0.0,0.0,27.800903,70.33447,42.8302
1768998519283,-0.95166016,0.16064453,0.29541016,-0.6713867,-1.159668,0.061035156,0.0,0.0,0.0,27.800903,70.33447,42.8302
1768998519295,-0.95166016,0.16064453,0.29541016,-0.6713867,-1.159668,0.061035156,0.0,0.0,0.0,27.70752,70.2301,42.824707
1768998519383,-0.9355469,0.15966797,0.30566406,-1.6479492,-0.9765625,1.159668,0.0,0.0,0.0,27.70752,70.2301,42.824707
1768998519394,-0.9355469,0.15966797,0.30566406,-1.6479492,-0.9765625,1.159668,0.0,0.0,0.0,27.663574,70.114746,42.88513
1768998519483,-0.94091797,0.15771484,0.29589844,0.6713867,-0.36621094,-0.48828125,0.0,0.0,0.0,27.663574,70.114746,42.88513
1768998519495,-0.94091797,0.15771484,0.29589844,0.6713867,-0.36621094,-0.48828125,0.0,0.0,0.0,27.696533,70.03235,42.874146
1768998519582,-0.9555664,0.17089844,0.3149414,-3.7841797,-0.12207031,0.36621094,0.0,0.0,0.0,27.696533,70.03235,42.874146
1768998519595,-0.9555664,0.17089844,0.3149414,-3.7841797,-0.12207031,0.36621094,0.0,0.0,0.0,27.625122,69.96643,42.89612
1768998519682,-0.9404297,0.16357422,0.3071289,2.6245117,1.5869141,-1.3427734,0.0,0.0,0.0,27.625122,69.96643,42.89612
1768998519694,-0.9404297,0.16357422,0.3071289,2.6245117,1.5869141,-1.3427734,0.0,0.0,0.0,27.839355,70.30701,42.89612
1768998519782,-0.94433594,0.16894531,0.29833984,-3.8452148,-2.0141602,2.9296875,0.0,0.0,0.0,27.839355,70.30701,42.89612
1768998519793,-0.94433594,0.16894531,0.29833984,-3.8452148,-2.0141602,2.9296875,0.0,0.0,0.0,28.059082,70.15869,43.31909
1768998519881,-0.9511719,0.17089844,0.30371094,2.9296875,-0.48828125,-0.5493164,0.0,0.0,0.0,28.059082,70.15869,43.31909
1768998519893,-0.9511719,0.17089844,0.30371094,2.9296875,-0.48828125,-0.5493164,0.0,0.0,0.0,28.146973,70.00488,43.412476
1768998519981,-0.95166016,0.16601562,0.29882812,0.0,-1.3427734,0.24414062,0.0,0.0,0.0,28.146973,70.00488,43.412476
1768998519993,-0.95166016,0.16601562,0.29882812,0.0,-1.3427734,0.24414062,0.0,0.0,0.0,28.278809,69.98291,43.291626
1768998520081,-0.92871094,0.1665039,0.30273438,1.953125,-0.91552734,0.0,0.0,0.0,0.0,28.278809,69.98291,43.291626
1768998520092,-0.92871094,0.1665039,0.30273438,1.953125,-0.91552734,0.0,0.0,0.0,0.0,28.355713,69.906006,43.181763
1768998520181,-0.93847656,0.16894531,0.30664062,0.18310547,-1.2207031,0.0,0.0,0.0,0.0,28.355713,69.906006,43.181763
1768998520192,-0.93847656,0.16894531,0.30664062,0.18310547,-1.2207031,0.0,0.0,0.0,0.0,28.157959,69.76318,42.962036
1768998520280,-0.9355469,0.16845703,0.3125,2.2583008,1.2207031,-2.1972656,0.0,0.0,0.0,28.157959,69.76318,42.962036
1768998520292,-0.9355469,0.16845703,0.3125,2.2583008,1.2207031,-2.1972656,0.0,0.0,0.0,28.157959,69.84558,42.819214
1768998520380,-0.9482422,0.1665039,0.296875,3.8452148,0.36621094,-1.2207031,0.0,0.0,0.0,28.157959,69.84558,42.819214
1768998520392,-0.9482422,0.1665039,0.296875,3.8452148,0.36621094,-1.2207031,0.0,0.0,0.0,28.125,70.08179,42.385254
1768998520480,-0.9379883,0.1640625,0.30078125,0.36621094,-0.5493164,0.79345703,0.0,0.0,0.0,28.125,70.08179,42.385254
1768998520491,-0.9379883,0.1640625,0.30078125,0.36621094,-0.5493164,0.79345703,0.0,0.0,0.0,28.256836,70.076294,42.330322
1768998520579,-0.9399414,0.16064453,0.30078125,0.0,-0.36621094,0.18310547,0.0,0.0,0.0,28.256836,70.076294,42.330322
1768998520591,-0.9399414,0.16064453,0.30078125,0.0,-0.36621094,0.18310547,0.0,0.0,0.0,28.344727,70.03784,42.385254
1768998520679,-0.9355469,0.16259766,0.2919922,0.30517578,0.36621094,-0.61035156,0.0,0.0,0.0,28.344727,70.03784,42.385254
1768998520691,-0.9355469,0.16259766,0.2919922,0.30517578,0.36621094,-0.61035156,0.0,0.0,0.0,28.372192,69.9884,42.511597
1768998520779,-0.9453125,0.16357422,0.29492188,-0.5493164,0.24414062,-0.36621094,0.0,0.0,0.0,28.372192,69.9884,42.511597
1768998520790,-0.9453125,0.16357422,0.29492188,-0.5493164,0.24414062,-0.36621094,0.0,0.0,0.0,28.273315,69.9884,42.46216
1768998520879,-0.9448242,0.16699219,0.29541016,-1.2207031,0.0,-0.12207031,0.0,0.0,0.0,28.273315,69.9884,42.46216
1768998520890,-0.9448242,0.16699219,0.29541016,-1.2207031,0.0,-0.12207031,0.0,0.0,0.0,28.33374,70.043335,42.48413
1768998520978,-0.94091797,0.17089844,0.29248047,1.8310547,0.30517578,-0.5493164,0.0,0.0,0.0,28.33374,70.043335,42.48413
1768998520990,-0.94091797,0.17089844,0.29248047,1.8310547,0.30517578,-0.5493164,0.0,0.0,0.0,28.383179,70.10376,42.48413
1768998521078,-0.94140625,0.17138672,0.29003906,0.0,1.0986328,-0.18310547,0.0,0.0,0.0,28.383179,70.10376,42.48413
1768998521090,-0.94140625,0.17138672,0.29003906,0.0,1.0986328,-0.18310547,0.0,0.0,0.0,28.482056,70.15869,42.489624
1768998521178,-0.94091797,0.1640625,0.296875,0.6713867,0.4272461,-0.79345703,0.0,0.0,0.0,28.482056,70.15869,42.489624
1768998521189,-0.94091797,0.1640625,0.296875,0.6713867,0.4272461,-0.79345703,0.0,0.0,0.0,28.504028,70.252075,42.385254
1768998521278,-0.94921875,0.16357422,0.28173828,2.319336,0.12207031,-1.0986328,0.0,0.0,0.0,28.504028,70.252075,42.385254
1768998521289,-0.94921875,0.16357422,0.28173828,2.319336,0.12207031,-1.0986328,0.0,0.0,0.0,28.443604,70.30701,42.231445
1768998521377,-0.9472656,0.1640625,0.29492188,0.12207031,0.061035156,0.0,0.0,0.0,0.0,28.443604,70.30701,42.231445
1768998521389,-0.9472656,0.1640625,0.29492188,0.12207031,0.061035156,0.0,0.0,0.0,0.0,28.493042,70.30151,42.335815
1768998521477,-0.9433594,0.15966797,0.29101562,0.061035156,-0.5493164,0.36621094,0.0,0.0,0.0,28.493042,70.30151,42.335815
1768998521488,-0.9433594,0.15966797,0.29101562,0.061035156,-0.5493164,0.36621094,0.0,0.0,0.0,28.580933,70.25757,42.352295
1768998521577,-0.94091797,0.16552734,0.29296875,0.061035156,0.4272461,-0.061035156,0.0,0.0,0.0,28.580933,70.25757,42.352295
1768998521592,-0.94091797,0.16552734,0.29296875,0.061035156,0.4272461,-0.061035156,0.0,0.0,0.0,28.564453,70.20813,42.45117
1768998521676,-0.93652344,0.16210938,0.28857422,1.4038086,0.12207031,-0.8544922,0.0,0.0,0.0,28.564453,70.20813,42.45117
1768998521688,-0.93652344,0.16210938,0.28857422,1.4038086,0.12207031,-0.8544922,0.0,0.0,0.0,28.591919,70.27405,42.352295
1768998521776,-0.9472656,0.16308594,0.28515625,-0.5493164,0.12207031,-0.24414062,0.0,0.0,0.0,28.591919,70.27405,42.352295
1768998521789,-0.9472656,0.16308594,0.28515625,-0.5493164,0.12207031,-0.24414062,0.0,0.0,0.0,28.591919,70.30151,42.385254
1768998521876,-0.95214844,0.16601562,0.2866211,1.2817383,0.36621094,-1.4648438,0.0,0.0,0.0,28.591919,70.30151,42.385254
1768998521887,-0.95214844,0.16601562,0.2866211,1.2817383,0.36621094,-1.4648438,0.0,0.0,0.0,28.55896,70.37842,42.302856
1768998521976,-0.953125,0.17089844,0.28027344,0.30517578,0.30517578,-0.48828125,0.0,0.0,0.0,28.55896,70.37842,42.302856
1768998521987,-0.953125,0.17089844,0.28027344,0.30517578,0.30517578,-0.48828125,0.0,0.0,0.0,28.591919,70.46631,42.385254
1768998522075,-0.9472656,0.16259766,0.28466797,0.0,-0.9765625,0.24414062,0.0,0.0,0.0,28.591919,70.46631,42.385254
1768998522087,-0.9472656,0.16259766,0.28466797,0.0,-0.9765625,0.24414062,0.0,0.0,0.0,28.740234,70.57617,42.44568
1768998522175,-0.95947266,0.15917969,0.28710938,-2.4414062,0.48828125,0.0,0.0,0.0,0.0,28.740234,70.57617,42.44568
1768998522186,-0.95947266,0.15917969,0.28710938,-2.4414062,0.48828125,0.0,0.0,0.0,0.0,28.7677,70.48279,42.561035
1768998522275,-0.93408203,0.16503906,0.29248047,-0.4272461,0.12207031,-0.36621094,0.0,0.0,0.0,28.7677,70.48279,42.561035
1768998522286,-0.93408203,0.16503906,0.29248047,-0.4272461,0.12207031,-0.36621094,0.0,0.0,0.0,28.734741,70.60364,42.62146
1768998522374,-0.93896484,0.1665039,0.2836914,2.6855469,1.159668,-1.8310547,0.0,0.0,0.0,28.734741,70.60364,42.62146
1768998522386,-0.93896484,0.1665039,0.2836914,2.6855469,1.159668,-1.8310547,0.0,0.0,0.0,28.641357,70.598145,42.56653
1768998522474,-0.93603516,0.15966797,0.28515625,0.61035156,-0.36621094,-0.91552734,0.0,0.0,0.0,28.641357,70.598145,42.56653
1768998522486,-0.93603516,0.15966797,0.28515625,0.61035156,-0.36621094,-0.91552734,0.0,0.0,0.0,28.745728,70.669556,42.610474
1768998522574,-0.9189453,0.1508789,0.25683594,5.3710938,-0.6713867,-1.2207031,0.0,0.0,0.0,28.745728,70.669556,42.610474
1768998522585,-0.9189453,0.1508789,0.25683594,5.3710938,-0.6713867,-1.2207031,0.0,0.0,0.0,28.701782,70.7959,42.269897
1768998522673,-0.9848633,0.14746094,0.2553711,-3.3569336,-0.4272461,0.61035156,0.0,0.0,0.0,28.701782,70.7959,42.269897
1768998522685,-0.9848633,0.14746094,0.2553711,-3.3569336,-0.4272461,0.61035156,0.0,0.0,0.0,28.383179,70.653076,42.044678
1768998522773,-0.94921875,0.15820312,0.28710938,-5.065918,-2.8076172,0.91552734,0.0,0.0,0.0,28.383179,70.653076,42.044678
1768998522785,-0.94921875,0.15820312,0.28710938,-5.065918,-2.8076172,0.91552734,0.0,0.0,0.0,27.894287,70.41138,41.90735
1768998522873,-0.9355469,0.17138672,0.31298828,-3.3569336,-2.0141602,1.4648438,0.0,0.0,0.0,27.894287,70.41138,41.90735
1768998522884,-0.9355469,0.17138672,0.31298828,-3.3569336,-2.0141602,1.4648438,0.0,0.0,0.0,27.740479,70.21362,41.99524
1768998522973,-0.94384766,0.16552734,0.3046875,0.36621094,0.5493164,-0.12207031,0.0,0.0,0.0,27.740479,70.21362,41.99524
1768998522984,-0.94384766,0.16552734,0.3046875,0.36621094,0.5493164,-0.12207031,0.0,0.0,0.0,27.70752,70.10376,42.077637
1768998523073,-0.93896484,0.16210938,0.29736328,-0.6713867,0.8544922,-0.18310547,0.0,0.0,0.0,27.70752,70.10376,42.077637
1768998523084,-0.93896484,0.16210938,0.29736328,-0.6713867,0.8544922,-0.18310547,0.0,0.0,0.0,27.81189,70.13672,42.160034
1768998523172,-0.9394531,0.15820312,0.29296875,1.3427734,0.9765625,-0.61035156,0.0,0.0,0.0,27.81189,70.13672,42.160034
1768998523184,-0.9394531,0.15820312,0.29296875,1.3427734,0.9765625,-0.61035156,0.0,0.0,0.0,27.789917,70.18616,42.198486
1768998523272,-0.94384766,0.15771484,0.2861328,-1.5258789,-0.7324219,0.48828125,0.0,0.0,0.0,27.789917,70.18616,42.198486
1768998523283,-0.94384766,0.15771484,0.2861328,-1.5258789,-0.7324219,0.48828125,0.0,0.0,0.0,27.663574,70.13672,42.09961
1768998523371,-0.9399414,0.16064453,0.29541016,1.159668,-0.61035156,0.061035156,0.0,0.0,0.0,27.663574,70.13672,42.09961
1768998523383,-0.9399414,0.16064453,0.29541016,1.159668,-0.61035156,0.061035156,0.0,0.0,0.0,27.658081,70.059814,42.13257
1768998523471,-0.9404297,0.15917969,0.30126953,-0.61035156,-0.12207031,0.0,0.0,0.0,0.0,27.658081,70.059814,42.13257
1768998523483,-0.9404297,0.15917969,0.30126953,-0.61035156,-0.12207031,0.0,0.0,0.0,0.0,27.69104,70.043335,42.09961
1768998523571,-0.93115234,0.16308594,0.3017578,0.18310547,-0.79345703,-0.061035156,0.0,0.0,0.0,27.69104,70.043335,42.09961
1768998523582,-0.93115234,0.16308594,0.3017578,0.18310547,-0.79345703,-0.061035156,0.0,0.0,0.0,27.663574,70.00488,42.039185
1768998523671,-0.9316406,0.16357422,0.3017578,0.91552734,-2.1362305,0.12207031,0.0,0.0,0.0,27.663574,70.00488,42.039185
1768998523682,-0.9316406,0.16357422,0.3017578,0.91552734,-2.1362305,0.12207031,0.0,0.0,0.0,27.592163,69.922485,41.819458
1768998523770,-0.94970703,0.16259766,0.29638672,-1.4038086,-0.91552734,-0.6713867,0.0,0.0,0.0,27.592163,69.922485,41.819458
1768998523782,-0.94970703,0.16259766,0.29638672,-1.4038086,-0.91552734,-0.6713867,0.0,0.0,0.0,27.317505,69.71924,41.660156
1768998523870,-0.94433594,0.15771484,0.3022461,-0.6713867,-0.79345703,-0.7324219,0.0,0.0,0.0,27.317505,69.71924,41.660156
1768998523882,-0.94433594,0.15771484,0.3022461,-0.6713867,-0.79345703,-0.7324219,0.0,0.0,0.0,27.163696,69.72473,41.385498
1768998523970,-0.94091797,0.16015625,0.3046875,0.0,-1.0375977,-0.48828125,0.0,0.0,0.0,27.163696,69.72473,41.385498
1768998523981,-0.94091797,0.16015625,0.3046875,0.0,-1.0375977,-0.48828125,0.0,0.0,0.0,26.976929,69.67529,41.16577
1768998524070,-0.9379883,0.15576172,0.3071289,0.30517578,0.36621094,-0.30517578,0.0,0.0,0.0,26.976929,69.67529,41.16577
1768998524082,-0.9379883,0.15576172,0.3071289,0.30517578,0.36621094,-0.30517578,0.0,0.0,0.0,26.987915,69.69177,41.011963
1768998524169,-0.93652344,0.1586914,0.31054688,-0.12207031,-0.48828125,-0.061035156,0.0,0.0,0.0,26.987915,69.69177,41.011963
1768998524181,-0.93652344,0.1586914,0.31054688,-0.12207031,-0.48828125,-0.061035156,0.0,0.0,0.0,26.965942,69.642334,40.984497
1768998524269,-0.9458008,0.16308594,0.30371094,-0.8544922,-1.4038086,0.36621094,0.0,0.0,0.0,26.965942,69.642334,40.984497
1768998524280,-0.9458008,0.16308594,0.30371094,-0.8544922,-1.4038086,0.36621094,0.0,0.0,0.0,26.905518,69.5874,40.880127
1768998524369,-0.9355469,0.16015625,0.3125,1.159668,-0.61035156,-0.12207031,0.0,0.0,0.0,26.905518,69.5874,40.880127
1768998524380,-0.9355469,0.16015625,0.3125,1.159668,-0.61035156,-0.12207031,0.0,0.0,0.0,27.004395,69.488525,40.863647
1768998524468,-0.9423828,0.16015625,0.30273438,-0.4272461,0.7324219,-0.4272461,0.0,0.0,0.0,27.004395,69.488525,40.863647
1768998524480,-0.9423828,0.16015625,0.30273438,-0.4272461,0.7324219,-0.4272461,0.0,0.0,0.0,26.982422,69.47754,40.737305
1768998524569,-0.93310547,0.15820312,0.3022461,-0.6713867,-0.61035156,-0.36621094,0.0,0.0,0.0,26.982422,69.47754,40.737305
1768998524580,-0.93310547,0.15820312,0.3022461,-0.6713867,-0.61035156,-0.36621094,0.0,0.0,0.0,27.037354,69.537964,40.70984
1768998524668,-0.9482422,0.1640625,0.30517578,1.0375977,0.79345703,-1.3427734,0.0,0.0,0.0,27.037354,69.537964,40.70984
1768998524680,-0.9482422,0.1640625,0.30517578,1.0375977,0.79345703,-1.3427734,0.0,0.0,0.0,26.96045,69.55994,40.528564
1768998524767,-0.9355469,0.15625,0.30029297,1.5258789,0.0,-1.0375977,0.0,0.0,0.0,26.96045,69.55994,40.528564
1768998524779,-0.9355469,0.15625,0.30029297,1.5258789,0.0,-1.0375977,0.0,0.0,0.0,27.01538,69.68628,40.36377
1768998524867,-0.9555664,0.17089844,0.2998047,1.0986328,0.061035156,0.18310547,0.0,0.0,0.0,27.01538,69.68628,40.36377
1768998524879,-0.9555664,0.17089844,0.2998047,1.0986328,0.061035156,0.18310547,0.0,0.0,0.0,26.845093,69.625854,40.149536
1768998524967,-0.9482422,0.14697266,0.29248047,1.2207031,1.2817383,-1.4648438,0.0,0.0,0.0,26.845093,69.625854,40.149536
1768998524986,-0.9482422,0.14697266,0.29248047,1.2207031,1.2817383,-1.4648438,0.0,0.0,0.0,26.817627,69.697266,39.781494
1768998525067,-0.9428711,0.16210938,0.3046875,-0.79345703,-0.18310547,-0.061035156,0.0,0.0,0.0,26.817627,69.697266,39.781494
1768998525078,-0.9428711,0.16210938,0.3046875,-0.79345703,-0.18310547,-0.061035156,0.0,0.0,0.0,26.878052,69.81262,39.803467
1768998525166,-0.93310547,0.15185547,0.30273438,3.0517578,0.4272461,-1.2817383,0.0,0.0,0.0,26.878052,69.81262,39.803467
1768998525178,-0.93310547,0.15185547,0.30273438,3.0517578,0.4272461,-1.2817383,0.0,0.0,0.0,26.976929,69.84558,39.819946
1768998525266,-0.9433594,0.15478516,0.30029297,-2.1972656,-0.9765625,0.48828125,0.0,0.0,0.0,26.976929,69.84558,39.819946
1768998525278,-0.9433594,0.15478516,0.30029297,-2.1972656,-0.9765625,0.48828125,0.0,0.0,0.0,26.905518,69.80713,39.75952
1768998525366,-0.9526367,0.16357422,0.29833984,2.380371,1.7700195,-1.3427734,0.0,0.0,0.0,26.905518,69.80713,39.75952
1768998525377,-0.9526367,0.16357422,0.29833984,2.380371,1.7700195,-1.3427734,0.0,0.0,0.0,26.916504,69.8291,39.84192
1768998525466,-0.94970703,0.16308594,0.30029297,-2.1362305,-0.30517578,0.4272461,0.0,0.0,0.0,26.916504,69.8291,39.84192
1768998525477,-0.94970703,0.16308594,0.30029297,-2.1362305,-0.30517578,0.4272461,0.0,0.0,0.0,27.009888,69.88403,39.91333
1768998525565,-0.9326172,0.15429688,0.30419922,-0.24414062,0.0,-0.9765625,0.0,0.0,0.0,27.009888,69.88403,39.91333
1768998525577,-0.9326172,0.15429688,0.30419922,-0.24414062,0.0,-0.9765625,0.0,0.0,0.0,27.042847,69.96643,39.951782
1768998525665,-0.9370117,0.15917969,0.3076172,4.0893555,0.30517578,-2.4414062,0.0,0.0,0.0,27.042847,69.96643,39.951782
1768998525677,-0.9370117,0.15917969,0.3076172,4.0893555,0.30517578,-2.4414062,0.0,0.0,0.0,27.130737,69.971924,40.028687
1768998525765,-0.93847656,0.15527344,0.29638672,-0.79345703,0.48828125,-0.12207031,0.0,0.0,0.0,27.130737,69.971924,40.028687
1768998525776,-0.93847656,0.15527344,0.29638672,-0.79345703,0.48828125,-0.12207031,0.0,0.0,0.0,27.174683,70.12573,40.06714
1768998525865,-0.9321289,0.15527344,0.2944336,2.1972656,0.12207031,-0.4272461,0.0,0.0,0.0,27.174683,70.12573,40.06714
1768998525876,-0.9321289,0.15527344,0.2944336,2.1972656,0.12207031,-0.4272461,0.0,0.0,0.0,27.268066,70.15869,40.149536
1768998525964,-0.98291016,0.15771484,0.3076172,-0.9765625,1.2817383,-0.61035156,0.0,0.0,0.0,27.268066,70.15869,40.149536
1768998525976,-0.98291016,0.15771484,0.3076172,-0.9765625,1.2817383,-0.61035156,0.0,0.0,0.0,27.141724,70.2301,40.133057
1768998526064,-0.92089844,0.14501953,0.29541016,-2.6245117,1.2817383,1.8920898,0.0,0.0,0.0,27.141724,70.2301,40.133057
1768998526075,-0.92089844,0.14501953,0.29541016,-2.6245117,1.2817383,1.8920898,0.0,0.0,0.0,27.526245,70.29602,40.69336
1768998526163,-0.94140625,0.1616211,0.29052734,-2.8076172,-1.5869141,0.24414062,0.0,0.0,0.0,27.526245,70.29602,40.69336
1768998526175,-0.94140625,0.1616211,0.29052734,-2.8076172,-1.5869141,0.24414062,0.0,0.0,0.0,27.427368,70.114746,40.968018
1768998526263,-0.93066406,0.15625,0.30126953,1.5258789,-0.30517578,-0.30517578,0.0,0.0,0.0,27.427368,70.114746,40.968018
1768998526275,-0.93066406,0.15625,0.30126953,1.5258789,-0.30517578,-0.30517578,0.0,0.0,0.0,27.67456,70.076294,41.204224
1768998526363,-0.9345703,0.15576172,0.29101562,0.18310547,1.2817383,-0.24414062,0.0,0.0,0.0,27.67456,70.076294,41.204224
1768998526375,-0.9345703,0.15576172,0.29101562,0.18310547,1.2817383,-0.24414062,0.0,0.0,0.0,27.784424,70.25757,41.308594
1768998526463,-0.9370117,0.16015625,0.2915039,-1.7089844,-1.5258789,0.7324219,0.0,0.0,0.0,27.784424,70.25757,41.308594
1768998526474,-0.9370117,0.16015625,0.2915039,-1.7089844,-1.5258789,0.7324219,0.0,0.0,0.0,27.910767,70.30701,41.451416
1768998526562,-0.9506836,0.16455078,0.296875,-1.4648438,-2.2583008,0.48828125,0.0,0.0,0.0,27.910767,70.30701,41.451416
1768998526574,-0.9506836,0.16455078,0.296875,-1.4648438,-2.2583008,0.48828125,0.0,0.0,0.0,27.734985,70.05432,41.566772
1768998526662,-0.9350586,0.1616211,0.30322266,-0.18310547,-2.5024414,0.7324219,0.0,0.0,0.0,27.734985,70.05432,41.566772
1768998526674,-0.9350586,0.1616211,0.30322266,-0.18310547,-2.5024414,0.7324219,0.0,0.0,0.0,27.658081,69.86206,41.48987
1768998526762,-0.94189453,0.16552734,0.30810547,-0.061035156,-0.8544922,0.36621094,0.0,0.0,0.0,27.658081,69.86206,41.48987
1768998526773,-0.94189453,0.16552734,0.30810547,-0.061035156,-0.8544922,0.36621094,0.0,0.0,0.0,27.49878,69.66431,41.49536
1768998526861,-0.94140625,0.16552734,0.31103516,-0.30517578,-0.12207031,-0.48828125,0.0,0.0,0.0,27.49878,69.66431,41.49536
1768998526873,-0.94140625,0.16552734,0.31103516,-0.30517578,-0.12207031,-0.48828125,0.0,0.0,0.0,27.476807,69.6698,41.308594
1768998526961,-0.9379883,0.16748047,0.30566406,2.0141602,0.0,-1.2817383,0.0,0.0,0.0,27.476807,69.6698,41.308594
1768998526973,-0.9379883,0.16748047,0.30566406,2.0141602,0.0,-1.2817383,0.0,0.0,0.0,27.432861,69.65881,41.132812
1768998527061,-0.94189453,0.1616211,0.3100586,1.8310547,-0.4272461,-0.79345703,0.0,0.0,0.0,27.432861,69.65881,41.132812
1768998527072,-0.94189453,0.1616211,0.3100586,1.8310547,-0.4272461,-0.79345703,0.0,0.0,0.0,27.405396,69.713745,40.847168
1768998527161,-0.94189453,0.16210938,0.31103516,0.91552734,0.5493164,-0.79345703,0.0,0.0,0.0,27.405396,69.713745,40.847168
1768998527172,-0.94189453,0.16210938,0.31103516,0.91552734,0.5493164,-0.79345703,0.0,0.0,0.0,27.372437,69.7522,40.610962
1768998527260,-0.9350586,0.15917969,0.31201172,0.48828125,-0.30517578,-0.061035156,0.0,0.0,0.0,27.372437,69.7522,40.610962
1768998527273,-0.9350586,0.15917969,0.31201172,0.48828125,-0.30517578,-0.061035156,0.0,0.0,0.0,27.366943,69.79614,40.5011
1768998527360,-0.93359375,0.1665039,0.31298828,2.319336,0.7324219,-0.30517578,0.0,0.0,0.0,27.366943,69.79614,40.5011
1768998527372,-0.93359375,0.1665039,0.31298828,2.319336,0.7324219,-0.30517578,0.0,0.0,0.0,27.509766,69.746704,40.567017
1768998527460,-0.9511719,0.1586914,0.296875,1.5258789,0.48828125,-0.061035156,0.0,0.0,0.0,27.509766,69.746704,40.567017
1768998527471,-0.9511719,0.1586914,0.296875,1.5258789,0.48828125,-0.061035156,0.0,0.0,0.0,27.520752,69.7522,40.561523
1768998527559,-0.9394531,0.16503906,0.3071289,-0.18310547,0.18310547,0.18310547,0.0,0.0,0.0,27.520752,69.7522,40.561523
1768998527571,-0.9394531,0.16503906,0.3071289,-0.18310547,0.18310547,0.18310547,0.0,0.0,0.0,27.669067,69.7522,40.720825
1768998527659,-0.94970703,0.16796875,0.30517578,1.2207031,0.18310547,-0.6713867,0.0,0.0,0.0,27.669067,69.7522,40.720825
1768998527671,-0.94970703,0.16796875,0.30517578,1.2207031,0.18310547,-0.6713867,0.0,0.0,0.0,27.696533,69.76318,40.682373
1768998527759,-0.93652344,0.16308594,0.31201172,0.79345703,-0.061035156,0.0,0.0,0.0,0.0,27.696533,69.76318,40.682373
1768998527770,-0.93652344,0.16308594,0.31201172,0.79345703,-0.061035156,0.0,0.0,0.0,0.0,27.702026,69.818115,40.62744
1768998527859,-0.9477539,0.16894531,0.30615234,2.9907227,0.18310547,-1.4648438,0.0,0.0,0.0,27.702026,69.818115,40.62744
1768998527870,-0.9477539,0.16894531,0.30615234,2.9907227,0.18310547,-1.4648438,0.0,0.0,0.0,27.773438,69.8291,40.599976
1768998527958,-0.9399414,0.16699219,0.31054688,1.0375977,0.6713867,-0.4272461,0.0,0.0,0.0,27.773438,69.8291,40.599976
1768998527970,-0.9399414,0.16699219,0.31054688,1.0375977,0.6713867,-0.4272461,0.0,0.0,0.0,27.877808,69.922485,40.57251
1768998528058,-0.94091797,0.16113281,0.30029297,-0.79345703,-0.24414062,-0.6713867,0.0,0.0,0.0,27.877808,69.922485,40.57251
1768998528070,-0.94091797,0.16113281,0.30029297,-0.79345703,-0.24414062,-0.6713867,0.0,0.0,0.0,27.789917,69.922485,40.599976
1768998528158,-0.94384766,0.16113281,0.30126953,1.0375977,0.8544922,-1.2817383,0.0,0.0,0.0,27.789917,69.922485,40.599976
1768998528169,-0.94384766,0.16113281,0.30126953,1.0375977,0.8544922,-1.2817383,0.0,0.0,0.0,27.625122,69.955444,40.599976
1768998528258,-0.94140625,0.15966797,0.29296875,0.48828125,-0.24414062,-0.91552734,0.0,0.0,0.0,27.625122,69.955444,40.599976
1768998528269,-0.94140625,0.15966797,0.29296875,0.48828125,-0.24414062,-0.91552734,0.0,0.0,0.0,27.597656,70.04883,40.490112
1768998528357,-0.9526367,0.15966797,0.2944336,-0.48828125,-0.79345703,0.0,0.0,0.0,0.0,27.597656,70.04883,40.490112
1768998528370,-0.9526367,0.15966797,0.2944336,-0.48828125,-0.79345703,0.0,0.0,0.0,0.0,27.531738,70.02136,40.528564
1768998528457,-0.94140625,0.16308594,0.3071289,0.18310547,0.061035156,-0.18310547,0.0,0.0,0.0,27.531738,70.02136,40.528564
1768998528468,-0.94140625,0.16308594,0.3071289,0.18310547,0.061035156,-0.18310547,0.0,0.0,0.0,27.58667,70.043335,40.583496
1768998528557,-0.93603516,0.15917969,0.29882812,1.7700195,0.8544922,-0.24414062,0.0,0.0,0.0,27.58667,70.043335,40.583496
1768998528568,-0.93603516,0.15917969,0.29882812,1.7700195,0.8544922,-0.24414062,0.0,0.0,0.0,27.756958,70.09827,40.698853
1768998528656,-0.9345703,0.15625,0.28955078,0.5493164,1.2817383,-1.7700195,0.0,0.0,0.0,27.756958,70.09827,40.698853
1768998528668,-0.9345703,0.15625,0.28955078,0.5493164,1.2817383,-1.7700195,0.0,0.0,0.0,27.822876,70.14221,40.847168
1768998528756,-0.9770508,0.15673828,0.29052734,2.1972656,-0.91552734,-0.79345703,0.0,0.0,0.0,27.822876,70.14221,40.847168
1768998528768,-0.9770508,0.15673828,0.29052734,2.1972656,-0.91552734,-0.79345703,0.0,0.0,0.0,27.79541,70.17517,40.490112
1768998528856,-0.93408203,0.16113281,0.30908203,-3.540039,-2.8686523,1.8310547,0.0,0.0,0.0,27.79541,70.17517,40.490112
1768998528867,-0.93408203,0.16113281,0.30908203,-3.540039,-2.8686523,1.8310547,0.0,0.0,0.0,27.767944,70.06531,40.561523
1768998528956,-0.94384766,0.1640625,0.3017578,1.5258789,0.24414062,-1.0986328,0.0,0.0,0.0,27.767944,70.06531,40.561523
1768998528967,-0.94384766,0.1640625,0.3017578,1.5258789,0.24414062,-1.0986328,0.0,0.0,0.0,27.575684,69.91699,40.610962
1768998529055,-0.95166016,0.16503906,0.3071289,0.4272461,-0.7324219,-0.5493164,0.0,0.0,0.0,27.575684,69.91699,40.610962
1768998529067,-0.95166016,0.16503906,0.3071289,0.4272461,-0.7324219,-0.5493164,0.0,0.0,0.0,27.55371,69.93347,40.528564
1768998529155,-0.9423828,0.16455078,0.2939453,1.4038086,0.24414062,-1.0375977,0.0,0.0,0.0,27.55371,69.93347,40.528564
1768998529166,-0.9423828,0.16455078,0.2939453,1.4038086,0.24414062,-1.0375977,0.0,0.0,0.0,27.663574,69.9939,40.62195
1768998529255,-0.9448242,0.15917969,0.30566406,0.061035156,1.6479492,-1.0986328,0.0,0.0,0.0,27.663574,69.9939,40.62195
1768998529266,-0.9448242,0.15917969,0.30566406,0.061035156,1.6479492,-1.0986328,0.0,0.0,0.0,27.756958,70.026855,40.85266
1768998529354,-0.9350586,0.16064453,0.28955078,0.9765625,0.12207031,0.36621094,0.0,0.0,0.0,27.756958,70.026855,40.85266
1768998529366,-0.9350586,0.16064453,0.28955078,0.9765625,0.12207031,0.36621094,0.0,0.0,0.0,27.905273,70.131226,40.863647
1768998529454,-0.9453125,0.17480469,0.2919922,-0.8544922,0.0,-0.18310547,0.0,0.0,0.0,27.905273,70.131226,40.863647
1768998529466,-0.9453125,0.17480469,0.2919922,-0.8544922,0.0,-0.18310547,0.0,0.0,0.0,27.93274,70.114746,41.02295
1768998529554,-0.94384766,0.15429688,0.30566406,2.9296875,0.9765625,-1.7089844,0.0,0.0,0.0,27.93274,70.114746,41.02295
1768998529565,-0.94384766,0.15429688,0.30566406,2.9296875,0.9765625,-1.7089844,0.0,0.0,0.0,27.982178,70.180664,41.083374
1768998529654,-0.9404297,0.15820312,0.29638672,-0.6713867,-0.18310547,0.18310547,0.0,0.0,0.0,27.982178,70.180664,41.083374
1768998529665,-0.9404297,0.15820312,0.29638672,-0.6713867,-0.18310547,0.18310547,0.0,0.0,0.0,27.927246,70.21362,41.028442
1768998529753,-0.9506836,0.16113281,0.28564453,1.4038086,0.61035156,-1.7089844,0.0,0.0,0.0,27.927246,70.21362,41.028442
1768998529765,-0.9506836,0.16113281,0.28564453,1.4038086,0.61035156,-1.7089844,0.0,0.0,0.0,27.800903,70.22461,40.907593
1768998529853,-0.94433594,0.15966797,0.28759766,1.4648438,-0.18310547,-1.0986328,0.0,0.0,0.0,27.800903,70.22461,40.907593
1768998529865,-0.94433594,0.15966797,0.28759766,1.4648438,-0.18310547,-1.0986328,0.0,0.0,0.0,27.77893,70.29053,40.962524
1768998529953,-0.9428711,0.1616211,0.29541016,-0.18310547,-0.4272461,0.12207031,0.0,0.0,0.0,27.77893,70.29053,40.962524
1768998529964,-0.9428711,0.1616211,0.29541016,-0.18310547,-0.4272461,0.12207031,0.0,0.0,0.0,27.702026,70.30151,40.95703
1768998530053,-0.93847656,0.15576172,0.2890625,0.7324219,0.18310547,-1.4038086,0.0,0.0,0.0,27.702026,70.30151,40.95703
1768998530064,-0.93847656,0.15576172,0.2890625,0.7324219,0.18310547,-1.4038086,0.0,0.0,0.0,27.69104,70.30701,40.984497
1768998530152,-0.9370117,0.140625,0.30273438,0.7324219,1.159668,-0.91552734,0.0,0.0,0.0,27.69104,70.30701,40.984497
1768998530164,-0.9370117,0.140625,0.30273438,0.7324219,1.159668,-0.91552734,0.0,0.0,0.0,27.740479,70.339966,41.05591
1768998530252,-0.9394531,0.15039062,0.30029297,0.9765625,0.5493164,-0.7324219,0.0,0.0,0.0,27.740479,70.339966,41.05591
1768998530264,-0.9394531,0.15039062,0.30029297,0.9765625,0.5493164,-0.7324219,0.0,0.0,0.0,27.625122,70.35095,41.000977
1768998530352,-0.9428711,0.16015625,0.2944336,0.18310547,-0.24414062,-0.36621094,0.0,0.0,0.0,27.625122,70.35095,41.000977
1768998530363,-0.9428711,0.16015625,0.2944336,0.18310547,-0.24414062,-0.36621094,0.0,0.0,0.0,27.55371,70.389404,40.951538
1768998530451,-0.94677734,0.1538086,0.29296875,-1.0986328,-1.2817383,-0.12207031,0.0,0.0,0.0,27.55371,70.389404,40.951538
1768998530463,-0.94677734,0.1538086,0.29296875,-1.0986328,-1.2817383,-0.12207031,0.0,0.0,0.0,27.39441,70.372925,40.83069
1768998530551,-0.9658203,0.15771484,0.30078125,-3.2958984,-2.319336,0.24414062,0.0,0.0,0.0,27.39441,70.372925,40.83069
1768998530563,-0.9658203,0.15771484,0.30078125,-3.2958984,-2.319336,0.24414062,0.0,0.0,0.0,27.009888,70.16968,40.70984
1768998530651,-0.9291992,0.1586914,0.30810547,-3.6621094,-0.91552734,2.1972656,0.0,0.0,0.0,27.009888,70.16968,40.70984
1768998530663,-0.9291992,0.1586914,0.30810547,-3.6621094,-0.91552734,2.1972656,0.0,0.0,0.0,26.91101,70.04883,40.962524
1768998530751,-0.9477539,0.16064453,0.2915039,1.2817383,1.3427734,0.061035156,0.0,0.0,0.0,26.91101,70.04883,40.962524
1768998530762,-0.9477539,0.16064453,0.2915039,1.2817383,1.3427734,0.061035156,0.0,0.0,0.0,27.059326,69.97742,41.19873
1768998530851,-0.9482422,0.15771484,0.29541016,-3.2348633,0.6713867,1.7700195,0.0,0.0,0.0,27.059326,69.97742,41.19873
1768998530863,-0.9482422,0.15771484,0.29541016,-3.2348633,0.6713867,1.7700195,0.0,0.0,0.0,27.432861,70.00488,41.68213
1768998530950,-0.93652344,0.15576172,0.2993164,-0.7324219,0.91552734,0.7324219,0.0,0.0,0.0,27.432861,70.00488,41.68213
1768998530961,-0.93652344,0.15576172,0.2993164,-0.7324219,0.91552734,0.7324219,0.0,0.0,0.0,27.817383,70.03784,42.15454
1768998531050,-0.9350586,0.16699219,0.30029297,-3.112793,-0.5493164,1.5258789,0.0,0.0,0.0,27.817383,70.03784,42.15454
1768998531061,-0.9350586,0.16699219,0.30029297,-3.112793,-0.5493164,1.5258789,0.0,0.0,0.0,27.894287,70.04883,42.407227
1768998531149,-0.94384766,0.15917969,0.2998047,1.3427734,1.2207031,-0.30517578,0.0,0.0,0.0,27.894287,70.04883,42.407227
1768998531161,-0.94384766,0.15917969,0.2998047,1.3427734,1.2207031,-0.30517578,0.0,0.0,0.0,28.130493,70.04883,42.698364
1768998531249,-0.92041016,0.17919922,0.30371094,-2.0141602,0.36621094,1.8310547,0.0,0.0,0.0,28.130493,70.04883,42.698364
1768998531261,-0.92041016,0.17919922,0.30371094,-2.0141602,0.36621094,1.8310547,0.0,0.0,0.0,28.361206,70.12573,43.11035
1768998531349,-0.94921875,0.16601562,0.31201172,3.2958984,4.8217773,-1.3427734,0.0,0.0,0.0,28.361206,70.12573,43.11035
1768998531360,-0.94921875,0.16601562,0.31201172,3.2958984,4.8217773,-1.3427734,0.0,0.0,0.0,28.927002,70.32898,43.54431
1768998531449,-0.94677734,0.16308594,0.28515625,1.6479492,5.859375,-1.7700195,0.0,0.0,0.0,28.927002,70.32898,43.54431
1768998531460,-0.94677734,0.16308594,0.28515625,1.6479492,5.859375,-1.7700195,0.0,0.0,0.0,29.366455,70.68054,44.038696
1768998531548,-0.9760742,0.16894531,0.2578125,0.36621094,9.155273,-3.9672852,0.0,0.0,0.0,29.366455,70.68054,44.038696
1768998531560,-0.9760742,0.16894531,0.2578125,0.36621094,9.155273,-3.9672852,0.0,0.0,0.0,29.630127,71.416626,44.318848
1768998531648,-0.9633789,0.16503906,0.27392578,-0.18310547,11.962891,-0.6713867,0.0,0.0,0.0,29.630127,71.416626,44.318848
1768998531660,-0.9633789,0.16503906,0.27392578,-0.18310547,11.962891,-0.6713867,0.0,0.0,0.0,31.201172,72.41089,46.082153
1768998531748,-0.9658203,0.15625,0.26660156,6.1035156,20.080566,-0.30517578,0.0,0.0,0.0,31.201172,72.41089,46.082153
1768998531759,-0.9658203,0.15625,0.26660156,6.1035156,20.080566,-0.30517578,0.0,0.0,0.0,34.019165,73.828125,49.224243
1768998531847,-0.9584961,0.13232422,0.23095703,7.8125,26.672363,3.2348633,0.0,0.0,0.0,34.019165,73.828125,49.224243
1768998531859,-0.9584961,0.13232422,0.23095703,7.8125,26.672363,3.2348633,0.0,0.0,0.0,39.347534,75.2124,54.849243
1768998531947,-1.0092773,0.1303711,0.14550781,5.432129,24.536133,-1.3427734,0.0,0.0,0.0,39.347534,75.2124,54.849243
1768998531959,-1.0092773,0.1303711,0.14550781,5.432129,24.536133,-1.3427734,0.0,0.0,0.0,46.71936,76.94275,62.57263
1768998532047,-0.96777344,0.1928711,0.12548828,-5.554199,14.282227,3.112793,0.0,0.0,0.0,46.71936,76.94275,62.57263
1768998532058,-0.96777344,0.1928711,0.12548828,-5.554199,14.282227,3.112793,0.0,0.0,0.0,54.44275,78.19519,71.86157
1768998532147,-0.98779297,0.1694336,0.060546875,11.962891,20.629883,-2.9907227,0.0,0.0,0.0,54.44275,78.19519,71.86157
1768998532158,-0.98779297,0.1694336,0.060546875,11.962891,20.629883,-2.9907227,0.0,0.0,0.0,60.62805,78.95874,79.244385
1768998532246,-1.0043945,0.18847656,0.024414062,-4.0283203,16.357422,5.554199,0.0,0.0,0.0,60.62805,78.95874,79.244385
1768998532258,-1.0043945,0.18847656,0.024414062,-4.0283203,16.357422,5.554199,0.0,0.0,0.0,67.92847,79.365234,87.890625
1768998532346,-0.95751953,0.18066406,0.0126953125,3.1738281,8.361816,-2.1362305,0.0,0.0,0.0,67.92847,79.365234,87.890625
1768998532357,-0.95751953,0.18066406,0.0126953125,3.1738281,8.361816,-2.1362305,0.0,0.0,0.0,76.311035,79.365234,97.69043
1768998532446,-0.98583984,0.13769531,0.001953125,0.061035156,5.859375,-4.699707,0.0,0.0,0.0,76.311035,79.365234,97.69043
1768998532457,-0.98583984,0.13769531,0.001953125,0.061035156,5.859375,-4.699707,0.0,0.0,0.0,79.56848,79.89807,102.17285
1768998532545,-0.95751953,0.1538086,-0.0024414062,-4.9438477,4.5166016,-6.591797,0.0,0.0,0.0,79.56848,79.89807,102.17285
1768998532557,-0.95751953,0.1538086,-0.0024414062,-4.9438477,4.5166016,-6.591797,0.0,0.0,0.0,82.87537,80.47485,107.47925
1768998532645,-0.96875,0.15966797,-0.0034179688,9.460449,3.7231445,-8.056641,0.0,0.0,0.0,82.87537,80.47485,107.47925
1768998532657,-0.96875,0.15966797,-0.0034179688,9.460449,3.7231445,-8.056641,0.0,0.0,0.0,85.64392,81.24939,111.73096
1768998532745,-0.99365234,0.13867188,-0.038085938,-4.211426,-3.8452148,-2.6245117,0.0,0.0,0.0,85.64392,81.24939,111.73096
1768998532756,-0.99365234,0.13867188,-0.038085938,-4.211426,-3.8452148,-2.6245117,0.0,0.0,0.0,87.36328,81.84265,114.07654
1768998532845,-0.98291016,0.12597656,4.8828125E-4,1.3427734,-0.61035156,-5.3710938,0.0,0.0,0.0,87.36328,81.84265,114.07654
1768998532856,-0.98291016,0.12597656,4.8828125E-4,1.3427734,-0.61035156,-5.3710938,0.0,0.0,0.0,87.79175,82.26013,115.55969
1768998532944,-0.94677734,0.14013672,9.765625E-4,3.479004,-4.0283203,-2.0141602,0.0,0.0,0.0,87.79175,82.26013,115.55969
1768998532956,-0.94677734,0.14013672,9.765625E-4,3.479004,-4.0283203,-2.0141602,0.0,0.0,0.0,85.95154,82.666626,114.88403
1768998533044,-0.9975586,0.10986328,0.009277344,11.71875,-5.3710938,0.0,0.0,0.0,0.0,85.95154,82.666626,114.88403
1768998533056,-0.9975586,0.10986328,0.009277344,11.71875,-5.3710938,0.0,0.0,0.0,0.0,81.0022,82.4469,110.13794
1768998533144,-1.0297852,0.18310547,-9.765625E-4,15.930176,-11.108398,4.5166016,0.0,0.0,0.0,81.0022,82.4469,110.13794
1768998533155,-1.0297852,0.18310547,-9.765625E-4,15.930176,-11.108398,4.5166016,0.0,0.0,0.0,75.79468,81.90857,104.91394
1768998533244,-1.0019531,0.11035156,0.04345703,15.136719,-7.9956055,-9.033203,0.0,0.0,0.0,75.79468,81.90857,104.91394
1768998533255,-1.0019531,0.11035156,0.04345703,15.136719,-7.9956055,-9.033203,0.0,0.0,0.0,71.70227,81.69983,100.047
1768998533343,-0.98046875,0.14355469,0.067871094,-16.357422,-5.2490234,1.7700195,0.0,0.0,0.0,71.70227,81.69983,100.047
1768998533355,-0.98046875,0.14355469,0.067871094,-16.357422,-5.2490234,1.7700195,0.0,0.0,0.0,67.70874,82.13379,97.333374
1768998533443,-0.98291016,0.13964844,0.05859375,-1.7700195,-6.4697266,1.2207031,0.0,0.0,0.0,67.70874,82.13379,97.333374
1768998533454,-0.98291016,0.13964844,0.05859375,-1.7700195,-6.4697266,1.2207031,0.0,0.0,0.0,62.874756,81.24939,95.53711
1768998533543,-0.9707031,0.1381836,0.09667969,-11.71875,-7.9345703,0.4272461,0.0,0.0,0.0,62.874756,81.24939,95.53711
1768998533554,-0.9707031,0.1381836,0.09667969,-11.71875,-7.9345703,0.4272461,0.0,0.0,0.0,58.200073,81.068115,91.66443
1768998533642,-0.9995117,0.14111328,0.1015625,-5.432129,-1.4038086,-3.3569336,0.0,0.0,0.0,58.200073,81.068115,91.66443
1768998533654,-0.9995117,0.14111328,0.1015625,-5.432129,-1.4038086,-3.3569336,0.0,0.0,0.0,55.05249,80.859375,89.939575
1768998533742,-0.9892578,0.123046875,0.08984375,-4.333496,-4.699707,-13.549805,0.0,0.0,0.0,55.05249,80.859375,89.939575
1768998533754,-0.9892578,0.123046875,0.08984375,-4.333496,-4.699707,-13.549805,0.0,0.0,0.0,50.44922,81.22742,86.36902
1768998533842,-1.019043,0.12597656,0.083984375,-9.338379,-5.3100586,-13.549805,0.0,0.0,0.0,50.44922,81.22742,86.36902
1768998533853,-1.019043,0.12597656,0.083984375,-9.338379,-5.3100586,-13.549805,0.0,0.0,0.0,40.720825,81.89209,77.77222
1768998533942,-0.984375,0.11279297,0.08935547,-4.1503906,-9.765625,-11.535645,0.0,0.0,0.0,40.720825,81.89209,77.77222
1768998533953,-0.984375,0.11279297,0.08935547,-4.1503906,-9.765625,-11.535645,0.0,0.0,0.0,30.80017,82.11182,68.15369
1768998534041,-0.97265625,0.088378906,0.119140625,2.319336,-5.493164,-8.605957,0.0,0.0,0.0,30.80017,82.11182,68.15369
1768998534053,-0.97265625,0.088378906,0.119140625,2.319336,-5.493164,-8.605957,0.0,0.0,0.0,21.269531,81.864624,58.12317
1768998534141,-0.98095703,0.024414062,0.13671875,7.507324,-4.4555664,-10.498047,0.0,0.0,0.0,21.269531,81.864624,58.12317
1768998534153,-0.98095703,0.024414062,0.13671875,7.507324,-4.4555664,-10.498047,0.0,0.0,0.0,16.814575,81.47461,53.217773
1768998534241,-0.9667969,-0.045898438,0.14941406,-2.319336,2.8076172,-12.939453,0.0,0.0,0.0,16.814575,81.47461,53.217773
1768998534252,-0.9667969,-0.045898438,0.14941406,-2.319336,2.8076172,-12.939453,0.0,0.0,0.0,9.821777,81.8811,45.560303
1768998534340,-0.9946289,9.765625E-4,0.14794922,-14.160156,-7.507324,-13.793945,0.0,0.0,0.0,9.821777,81.8811,45.560303
1768998534352,-0.9946289,9.765625E-4,0.14794922,-14.160156,-7.507324,-13.793945,0.0,0.0,0.0,-2.7685547,81.57349,34.205933
1768998534440,-1.046875,-0.037109375,0.1538086,3.7231445,-2.5634766,-5.6762695,0.0,0.0,0.0,-2.7685547,81.57349,34.205933
1768998534452,-1.046875,-0.037109375,0.1538086,3.7231445,-2.5634766,-5.6762695,0.0,0.0,0.0,-8.508911,80.9198,27.894287
1768998534540,-0.9873047,-0.014160156,0.1640625,0.4272461,-2.4414062,1.7700195,0.0,0.0,0.0,-8.508911,80.9198,27.894287
1768998534551,-0.9873047,-0.014160156,0.1640625,0.4272461,-2.4414062,1.7700195,0.0,0.0,0.0,-11.277466,80.82092,25.29602
1768998534640,-0.9970703,-0.072265625,0.20361328,10.620117,6.8969727,-0.36621094,0.0,0.0,0.0,-11.277466,80.82092,25.29602
1768998534651,-0.9970703,-0.072265625,0.20361328,10.620117,6.8969727,-0.36621094,0.0,0.0,0.0,-11.260986,81.11206,24.472046
1768998534739,-1.0019531,-0.044433594,0.14746094,0.36621094,2.8076172,0.0,0.0,0.0,0.0,-11.260986,81.11206,24.472046
1768998534751,-1.0019531,-0.044433594,0.14746094,0.36621094,2.8076172,0.0,0.0,0.0,0.0,-12.01355,81.11206,24.186401
1768998534839,-0.99121094,0.020019531,0.099121094,-4.3945312,-0.061035156,5.432129,0.0,0.0,0.0,-12.01355,81.11206,24.186401
1768998534850,-0.99121094,0.020019531,0.099121094,-4.3945312,-0.061035156,5.432129,0.0,0.0,0.0,-11.661987,81.44714,25.186157
1768998534939,-0.98535156,-0.041503906,0.13085938,-5.126953,-4.699707,2.5024414,0.0,0.0,0.0,-11.661987,81.44714,25.186157
1768998534950,-0.98535156,-0.041503906,0.13085938,-5.126953,-4.699707,2.5024414,0.0,0.0,0.0,-9.398804,81.50757,27.372437
1768998535038,-1.0058594,0.0107421875,0.114746094,-3.9672852,-3.90625,-1.6479492,0.0,0.0,0.0,-9.398804,81.50757,27.372437
1768998535050,-1.0058594,0.0107421875,0.114746094,-3.9672852,-3.90625,-1.6479492,0.0,0.0,0.0,-9.025269,81.27136,28.174438
1768998535138,-0.9941406,-0.018066406,0.15136719,-3.6621094,-3.1738281,-1.8920898,0.0,0.0,0.0,-9.025269,81.27136,28.174438
1768998535150,-0.9941406,-0.018066406,0.15136719,-3.6621094,-3.1738281,-1.8920898,0.0,0.0,0.0,-10.046997,81.03516,27.13623
1768998535238,-0.98291016,-0.029785156,0.15478516,-2.4414062,-2.746582,-2.1362305,0.0,0.0,0.0,-10.046997,81.03516,27.13623
1768998535249,-0.98291016,-0.029785156,0.15478516,-2.4414062,-2.746582,-2.1362305,0.0,0.0,0.0,-10.59082,80.72754,26.641846
1768998535338,-0.9794922,-0.030273438,0.17138672,-0.4272461,-5.2490234,-0.91552734,0.0,0.0,0.0,-10.59082,80.72754,26.641846
1768998535349,-0.9794922,-0.030273438,0.17138672,-0.4272461,-5.2490234,-0.91552734,0.0,0.0,0.0,-11.56311,80.354004,25.499268
1768998535437,-0.9970703,-0.0390625,0.16259766,2.380371,-2.1362305,-2.0751953,0.0,0.0,0.0,-11.56311,80.354004,25.499268
1768998535449,-0.9970703,-0.0390625,0.16259766,2.380371,-2.1362305,-2.0751953,0.0,0.0,0.0,-11.464233,79.920044,25.285034
1768998535537,-0.9819336,-0.037109375,0.16015625,-1.2207031,-0.61035156,-2.0141602,0.0,0.0,0.0,-11.464233,79.920044,25.285034
1768998535549,-0.9819336,-0.037109375,0.16015625,-1.2207031,-0.61035156,-2.0141602,0.0,0.0,0.0,-12.502441,79.81018,23.867798
1768998535637,-0.98535156,-0.040039062,0.1640625,-0.5493164,-0.24414062,-2.8076172,0.0,0.0,0.0,-12.502441,79.81018,23.867798
1768998535648,-0.98535156,-0.040039062,0.1640625,-0.5493164,-0.24414062,-2.8076172,0.0,0.0,0.0,-13.798828,79.694824,22.313232
1768998535737,-0.984375,-0.049804688,0.1665039,-1.2817383,-0.9765625,-1.8310547,0.0,0.0,0.0,-13.798828,79.694824,22.313232
1768998535748,-0.984375,-0.049804688,0.1665039,-1.2817383,-0.9765625,-1.8310547,0.0,0.0,0.0,-15.177612,79.73877,20.53894
1768998535836,-0.9838867,-0.040527344,0.1616211,2.319336,1.4038086,0.0,0.0,0.0,0.0,-15.177612,79.73877,20.53894
1768998535848,-0.9838867,-0.040527344,0.1616211,2.319336,1.4038086,0.0,0.0,0.0,0.0,-15.666504,79.7937,19.621582
1768998535936,-0.9951172,-0.0546875,0.16259766,-1.159668,-2.6245117,0.7324219,0.0,0.0,0.0,-15.666504,79.7937,19.621582
1768998535947,-0.9951172,-0.0546875,0.16259766,-1.159668,-2.6245117,0.7324219,0.0,0.0,0.0,-15.562134,79.96399,19.231567
1768998536036,-0.9614258,-0.053710938,0.18945312,3.7231445,4.5166016,-2.6855469,0.0,0.0,0.0,-15.562134,79.96399,19.231567
1768998536047,-0.9614258,-0.053710938,0.18945312,3.7231445,4.5166016,-2.6855469,0.0,0.0,0.0,-15.8203125,79.974976,18.605347
1768998536135,-0.99365234,-0.044433594,0.15722656,2.0141602,2.319336,-0.79345703,0.0,0.0,0.0,-15.8203125,79.974976,18.605347
1768998536147,-0.99365234,-0.044433594,0.15722656,2.0141602,2.319336,-0.79345703,0.0,0.0,0.0,-17.023315,79.974976,17.133179
1768998536235,-1.0009766,-0.05859375,0.14355469,-1.6479492,1.0375977,-1.4038086,0.0,0.0,0.0,-17.023315,79.974976,17.133179
1768998536247,-1.0009766,-0.05859375,0.14355469,-1.6479492,1.0375977,-1.4038086,0.0,0.0,0.0,-18.286743,80.17273,15.562134
1768998536335,-0.9628906,-0.04638672,0.16601562,0.30517578,0.9765625,-1.4038086,0.0,0.0,0.0,-18.286743,80.17273,15.562134
1768998536347,-0.9628906,-0.04638672,0.16601562,0.30517578,0.9765625,-1.4038086,0.0,0.0,0.0,-18.885498,80.31555,15.012817
1768998536435,-0.98095703,-0.03857422,0.14941406,2.319336,4.699707,-1.0986328,0.0,0.0,0.0,-18.885498,80.31555,15.012817
1768998536446,-0.98095703,-0.03857422,0.14941406,2.319336,4.699707,-1.0986328,0.0,0.0,0.0,-19.379883,80.45288,14.139404
1768998536534,-0.99072266,-0.057617188,0.1430664,4.5776367,6.8359375,-4.9438477,0.0,0.0,0.0,-19.379883,80.45288,14.139404
1768998536546,-0.99072266,-0.057617188,0.1430664,4.5776367,6.8359375,-4.9438477,0.0,0.0,0.0,-21.28601,80.71655,11.585083
1768998536634,-0.9819336,-0.051757812,0.14746094,3.6621094,6.164551,-5.126953,0.0,0.0,0.0,-21.28601,80.71655,11.585083
1768998536646,-0.9819336,-0.051757812,0.14746094,3.6621094,6.164551,-5.126953,0.0,0.0,0.0,-24.329224,81.0022,7.904663
1768998536735,-1.0014648,-0.06689453,0.13623047,1.0375977,2.9907227,-2.8076172,0.0,0.0,0.0,-24.329224,81.0022,7.904663
1768998536745,-1.0014648,-0.06689453,0.13623047,1.0375977,2.9907227,-2.8076172,0.0,0.0,0.0,-26.5979,81.01318,5.196533
1768998536833,-1.0229492,-0.07714844,0.10546875,3.3569336,9.399414,-3.4179688,0.0,0.0,0.0,-26.5979,81.01318,5.196533
1768998536845,-1.0229492,-0.07714844,0.10546875,3.3569336,9.399414,-3.4179688,0.0,0.0,0.0,-28.602905,81.326294,2.8070068
1768998536933,-0.98339844,-0.06591797,0.122558594,-1.2817383,2.380371,-0.061035156,0.0,0.0,0.0,-28.602905,81.326294,2.8070068
1768998536945,-0.98339844,-0.06591797,0.122558594,-1.2817383,2.380371,-0.061035156,0.0,0.0,0.0,-31.657104,81.7218,-0.5822754
1768998537033,-0.98583984,-0.06591797,0.10205078,-0.061035156,0.0,0.0,0.0,0.0,0.0,-31.657104,81.7218,-0.5822754
1768998537044,-0.98583984,-0.06591797,0.10205078,-0.061035156,0.0,0.0,0.0,0.0,0.0,-31.920776,81.77673,-1.038208
1768998537133,-1.0,-0.06933594,0.12207031,0.0,-0.7324219,0.0,0.0,0.0,0.0,-31.920776,81.77673,-1.038208
1768998537144,-1.0,-0.06933594,0.12207031,0.0,-0.7324219,0.0,0.0,0.0,0.0,-32.13501,81.831665,-1.4501953
1768998537232,-0.9970703,-0.072753906,0.11328125,-0.91552734,-0.12207031,-0.36621094,0.0,0.0,0.0,-32.13501,81.831665,-1.4501953
1768998537244,-0.9970703,-0.072753906,0.11328125,-0.91552734,-0.12207031,-0.36621094,0.0,0.0,0.0,-31.59668,81.710815,-0.95581055
1768998537332,-0.99316406,-0.06201172,0.11279297,-0.30517578,-0.5493164,-0.36621094,0.0,0.0,0.0,-31.59668,81.710815,-0.95581055
1768998537344,-0.99316406,-0.06201172,0.11279297,-0.30517578,-0.5493164,-0.36621094,0.0,0.0,0.0,-31.585693,81.66687,-1.0601807
1768998537432,-1.0112305,-0.0703125,0.11425781,0.18310547,-1.0375977,0.24414062,0.0,0.0,0.0,-31.585693,81.66687,-1.0601807
1768998537443,-1.0112305,-0.0703125,0.11425781,0.18310547,-1.0375977,0.24414062,0.0,0.0,0.0,-31.085815,81.60095,-0.84594727
1768998537531,-0.99609375,-0.064453125,0.10888672,0.0,-3.479004,-0.79345703,0.0,0.0,0.0,-31.085815,81.60095,-0.84594727
1768998537543,-0.99609375,-0.064453125,0.10888672,0.0,-3.479004,-0.79345703,0.0,0.0,0.0,-30.690308,81.41968,-0.7141113
1768998537631,-0.98828125,-0.06689453,0.12451172,0.061035156,0.36621094,-0.48828125,0.0,0.0,0.0,-30.690308,81.41968,-0.7141113
1768998537643,-0.98828125,-0.06689453,0.12451172,0.061035156,0.36621094,-0.48828125,0.0,0.0,0.0,-30.541992,81.33179,-0.8129883
1768998537731,-0.99121094,-0.071777344,0.11816406,-0.61035156,-2.1362305,-0.30517578,0.0,0.0,0.0,-30.541992,81.33179,-0.8129883
1768998537742,-0.99121094,-0.071777344,0.11816406,-0.61035156,-2.1362305,-0.30517578,0.0,0.0,0.0,-30.124512,81.22742,-0.5657959
1768998537831,-0.99121094,-0.07714844,0.13671875,-2.8686523,-2.2583008,-0.30517578,0.0,0.0,0.0,-30.124512,81.22742,-0.5657959
1768998537842,-0.99121094,-0.07714844,0.13671875,-2.8686523,-2.2583008,-0.30517578,0.0,0.0,0.0,-29.778442,81.02966,-0.32409668
1768998537930,-0.984375,-0.064453125,0.12988281,-0.6713867,-1.0986328,-0.5493164,0.0,0.0,0.0,-29.778442,81.02966,-0.32409668
1768998537942,-0.984375,-0.064453125,0.12988281,-0.6713867,-1.0986328,-0.5493164,0.0,0.0,0.0,-29.525757,80.86487,-0.043945312
1768998538030,-0.9970703,-0.05859375,0.122558594,3.3569336,0.91552734,0.48828125,0.0,0.0,0.0,-29.525757,80.86487,-0.043945312
1768998538042,-0.9970703,-0.05859375,0.122558594,3.3569336,0.91552734,0.48828125,0.0,0.0,0.0,-28.80066,80.738525,0.40649414
1768998538130,-1.0180664,-0.08691406,0.14111328,4.272461,1.0375977,-1.5258789,0.0,0.0,0.0,-28.80066,80.738525,0.40649414
1768998538142,-1.0180664,-0.08691406,0.14111328,4.272461,1.0375977,-1.5258789,0.0,0.0,0.0,-28.405151,80.79895,0.1373291
1768998538230,-0.9897461,-0.06689453,0.14208984,0.79345703,0.79345703,-1.4038086,0.0,0.0,0.0,-28.405151,80.79895,0.1373291
1768998538241,-0.9897461,-0.06689453,0.14208984,0.79345703,0.79345703,-1.4038086,0.0,0.0,0.0,-29.135742,80.7605,-0.9173584
1768998538329,-0.9760742,-0.067871094,0.13769531,1.0986328,-0.30517578,-1.0375977,0.0,0.0,0.0,-29.135742,80.7605,-0.9173584
1768998538341,-0.9760742,-0.067871094,0.13769531,1.0986328,-0.30517578,-1.0375977,0.0,0.0,0.0,-28.916016,80.5957,-0.8404541
1768998538429,-0.98535156,-0.08203125,0.14892578,1.5869141,-1.3427734,-0.7324219,0.0,0.0,0.0,-28.916016,80.5957,-0.8404541
1768998538441,-0.98535156,-0.08203125,0.14892578,1.5869141,-1.3427734,-0.7324219,0.0,0.0,0.0,-28.45459,80.41992,-0.5987549
1768998538529,-1.0107422,-0.08984375,0.14257812,-0.061035156,1.0375977,-1.2817383,0.0,0.0,0.0,-28.45459,80.41992,-0.5987549
1768998538540,-1.0107422,-0.08984375,0.14257812,-0.061035156,1.0375977,-1.2817383,0.0,0.0,0.0,-28.57544,80.32654,-0.83496094
1768998538628,-0.99853516,-0.072753906,0.123535156,0.061035156,6.3476562,-0.12207031,0.0,0.0,0.0,-28.57544,80.32654,-0.83496094
1768998538640,-0.99853516,-0.072753906,0.123535156,0.061035156,6.3476562,-0.12207031,0.0,0.0,0.0,-30.08606,80.69458,-2.3565674
1768998538728,-0.9814453,-0.06201172,0.14111328,0.061035156,2.380371,-0.30517578,0.0,0.0,0.0,-30.08606,80.69458,-2.3565674
1768998538740,-0.9814453,-0.06201172,0.14111328,0.061035156,2.380371,-0.30517578,0.0,0.0,0.0,-32.03064,81.084595,-4.454956
1768998538828,-0.97802734,-0.076171875,0.12792969,1.159668,0.6713867,-0.8544922,0.0,0.0,0.0,-32.03064,81.084595,-4.454956
1768998538839,-0.97802734,-0.076171875,0.12792969,1.159668,0.6713867,-0.8544922,0.0,0.0,0.0,-32.437134,81.23291,-5.026245
1768998538928,-0.98779297,-0.0703125,0.12646484,-1.6479492,-2.4414062,-0.36621094,0.0,0.0,0.0,-32.437134,81.23291,-5.026245
1768998538939,-0.98779297,-0.0703125,0.12646484,-1.6479492,-2.4414062,-0.36621094,0.0,0.0,0.0,-32.283325,81.11755,-4.790039
1768998539027,-0.98828125,-0.076660156,0.1352539,-2.9296875,-5.3710938,-0.061035156,0.0,0.0,0.0,-32.283325,81.11755,-4.790039
1768998539039,-0.98828125,-0.076660156,0.1352539,-2.9296875,-5.3710938,-0.061035156,0.0,0.0,0.0,-31.25061,80.7605,-3.5925293
1768998539127,-0.9941406,-0.07861328,0.12695312,-1.6479492,-6.652832,-0.61035156,0.0,0.0,0.0,-31.25061,80.7605,-3.5925293
1768998539139,-0.9941406,-0.07861328,0.12695312,-1.6479492,-6.652832,-0.61035156,0.0,0.0,0.0,-30.349731,80.49133,-2.576294
1768998539227,-0.9814453,-0.07421875,0.14160156,-1.6479492,-4.272461,0.9765625,0.0,0.0,0.0,-30.349731,80.49133,-2.576294
1768998539238,-0.9814453,-0.07421875,0.14160156,-1.6479492,-4.272461,0.9765625,0.0,0.0,0.0,-29.267578,80.1947,-1.4282227
1768998539327,-0.99316406,-0.08251953,0.12890625,-0.4272461,0.7324219,-0.18310547,0.0,0.0,0.0,-29.267578,80.1947,-1.4282227
1768998539338,-0.99316406,-0.08251953,0.12890625,-0.4272461,0.7324219,-0.18310547,0.0,0.0,0.0,-29.003906,80.18921,-1.0876465
1768998539426,-0.98876953,-0.07714844,0.12988281,-1.2207031,-1.0375977,-1.0986328,0.0,0.0,0.0,-29.003906,80.18921,-1.0876465
1768998539438,-0.98876953,-0.07714844,0.12988281,-1.2207031,-1.0375977,-1.0986328,0.0,0.0,0.0,-28.943481,80.128784,-0.9667969
1768998539526,-0.9819336,-0.080566406,0.1459961,0.9765625,0.48828125,-0.61035156,0.0,0.0,0.0,-28.943481,80.128784,-0.9667969
1768998539538,-0.9819336,-0.080566406,0.1459961,0.9765625,0.48828125,-0.61035156,0.0,0.0,0.0,-29.536743,80.17822,-1.6259766
1768998539626,-0.98828125,-0.08496094,0.14746094,1.6479492,2.4414062,-0.6713867,0.0,0.0,0.0,-29.536743,80.17822,-1.6259766
1768998539637,-0.98828125,-0.08496094,0.14746094,1.6479492,2.4414062,-0.6713867,0.0,0.0,0.0,-29.707031,80.22217,-1.7523193
1768998539725,-0.98095703,-0.06982422,0.14257812,0.12207031,0.36621094,0.30517578,0.0,0.0,0.0,-29.707031,80.22217,-1.7523193
1768998539737,-0.98095703,-0.06982422,0.14257812,0.12207031,0.36621094,0.30517578,0.0,0.0,0.0,-29.481812,80.288086,-1.4611816
1768998539825,-0.9897461,-0.07470703,0.13574219,-0.12207031,-0.36621094,0.24414062,0.0,0.0,0.0,-29.481812,80.288086,-1.4611816
1768998539837,-0.9897461,-0.07470703,0.13574219,-0.12207031,-0.36621094,0.24414062,0.0,0.0,0.0,-29.32251,80.31006,-1.3458252
1768998539925,-0.9897461,-0.06640625,0.14257812,1.4648438,-1.159668,-0.12207031,0.0,0.0,0.0,-29.32251,80.31006,-1.3458252
1768998539936,-0.9897461,-0.06640625,0.14257812,1.4648438,-1.159668,-0.12207031,0.0,0.0,0.0,-28.910522,80.28259,-0.97229004
