timestamp,accX,accY,accZ,gyroX,gyroY,gyroZ,magX,magY,magZ,roll,pitch,yaw
1769245845334,-0.5932617,0.09472656,-0.80126953,0.91552734,1.159668,0.0,0.0,0.0,0.0,173.79822,36.227417,158.68652
1769245845345,-0.5932617,0.09472656,-0.80126953,0.91552734,1.159668,0.0,0.0,0.0,0.0,173.84216,36.09558,158.7085
1769245845433,-0.5942383,0.099609375,-0.80908203,-0.5493164,0.0,0.0,0.0,0.0,0.0,173.84216,36.09558,158.7085
1769245845444,-0.5942383,0.099609375,-0.80908203,-0.5493164,0.0,0.0,0.0,0.0,0.0,173.82019,36.068115,158.80737
1769245845537,-0.5961914,0.09326172,-0.8041992,-0.061035156,0.0,0.0,0.0,0.0,0.0,173.82019,36.068115,158.80737
1769245845544,-0.5961914,0.09326172,-0.8041992,-0.061035156,0.0,0.0,0.0,0.0,0.0,173.78723,36.07361,158.85132
1769245845632,-0.5932617,0.095703125,-0.8041992,-0.30517578,-0.7324219,0.0,0.0,0.0,0.0,173.78723,36.07361,158.85132
1769245845644,-0.5932617,0.095703125,-0.8041992,-0.30517578,-0.7324219,0.0,0.0,0.0,0.0,173.75977,36.14502,158.84033
1769245845732,-0.5986328,0.09472656,-0.80566406,-0.12207031,-1.6479492,0.0,0.0,0.0,0.0,173.75977,36.14502,158.84033
1769245845744,-0.5986328,0.09472656,-0.80566406,-0.12207031,-1.6479492,0.0,0.0,0.0,0.0,173.74329,36.24939,158.79639
1769245845831,-0.5991211,0.09423828,-0.7963867,-0.12207031,0.24414062,0.0,0.0,0.0,0.0,173.74329,36.24939,158.79639
1769245845846,-0.5991211,0.09423828,-0.7963867,-0.12207031,0.24414062,0.0,0.0,0.0,0.0,173.74878,36.331787,158.75244
1769245845931,-0.6020508,0.09863281,-0.7993164,-0.061035156,-1.0375977,0.0,0.0,0.0,0.0,173.74878,36.331787,158.75244
1769245845942,-0.6020508,0.09863281,-0.7993164,-0.061035156,-1.0375977,0.0,0.0,0.0,0.0,173.74329,36.392212,158.71948
1769245846031,-0.6010742,0.09667969,-0.7973633,0.0,-0.7324219,0.0,0.0,0.0,0.0,173.74329,36.392212,158.71948
1769245846042,-0.6010742,0.09667969,-0.7973633,0.0,-0.7324219,0.0,0.0,0.0,0.0,173.7268,36.463623,158.68652
1769245846130,-0.60253906,0.09472656,-0.7973633,0.12207031,-0.8544922,0.0,0.0,0.0,0.0,173.7268,36.463623,158.68652
1769245846142,-0.60253906,0.09472656,-0.7973633,0.12207031,-0.8544922,0.0,0.0,0.0,0.0,173.72131,36.573486,158.64807
1769245846230,-0.6040039,0.09716797,-0.79785156,0.24414062,-0.36621094,0.0,0.0,0.0,0.0,173.72131,36.573486,158.64807
1769245846242,-0.6040039,0.09716797,-0.79785156,0.24414062,-0.36621094,0.0,0.0,0.0,0.0,173.7268,36.628418,158.61511
1769245846330,-0.6020508,0.096191406,-0.7949219,0.12207031,-0.36621094,0.0,0.0,0.0,0.0,173.7268,36.628418,158.61511
1769245846342,-0.6020508,0.096191406,-0.7949219,0.12207031,-0.36621094,0.0,0.0,0.0,0.0,173.7378,36.65039,158.59314
1769245846430,-0.6064453,0.09814453,-0.796875,0.0,0.0,0.0,0.0,0.0,0.0,173.7378,36.65039,158.59314
1769245846441,-0.6064453,0.09814453,-0.796875,0.0,0.0,0.0,0.0,0.0,0.0,173.7323,36.66687,158.59863
1769245846529,-0.60302734,0.096191406,-0.7949219,-0.18310547,-0.6713867,0.0,0.0,0.0,0.0,173.7323,36.66687,158.59863
1769245846541,-0.60302734,0.096191406,-0.7949219,-0.18310547,-0.6713867,0.0,0.0,0.0,0.0,173.71582,36.677856,158.6206
1769245846630,-0.60595703,0.096191406,-0.7949219,-0.5493164,-0.5493164,0.0,0.0,0.0,0.0,173.71582,36.677856,158.6206
1769245846641,-0.60595703,0.096191406,-0.7949219,-0.5493164,-0.5493164,0.0,0.0,0.0,0.0,173.68835,36.727295,158.63708
1769245846729,-0.6035156,0.09814453,-0.79248047,-0.061035156,0.48828125,0.0,0.0,0.0,0.0,173.68835,36.727295,158.63708
1769245846740,-0.6035156,0.09814453,-0.79248047,-0.061035156,0.48828125,0.0,0.0,0.0,0.0,173.6554,36.749268,158.65906
1769245846829,-0.6064453,0.09765625,-0.7949219,0.0,0.18310547,0.0,0.0,0.0,0.0,173.6554,36.749268,158.65906
1769245846840,-0.6064453,0.09765625,-0.7949219,0.0,0.18310547,0.0,0.0,0.0,0.0,173.61145,36.776733,158.67554
1769245846928,-0.60253906,0.09765625,-0.79589844,0.0,0.91552734,0.0,0.0,0.0,0.0,173.61145,36.776733,158.67554
1769245846940,-0.60253906,0.09765625,-0.79589844,0.0,0.91552734,0.0,0.0,0.0,0.0,173.61145,36.705322,158.69202
1769245847028,-0.60302734,0.099121094,-0.80371094,-0.4272461,1.5869141,0.0,0.0,0.0,0.0,173.61145,36.705322,158.69202
1769245847040,-0.60302734,0.099121094,-0.80371094,-0.4272461,1.5869141,0.0,0.0,0.0,0.0,173.61145,36.59546,158.71948
1769245847128,-0.59521484,0.100097656,-0.8041992,0.24414062,3.4179688,0.0,0.0,0.0,0.0,173.61145,36.59546,158.71948
1769245847139,-0.59521484,0.100097656,-0.8041992,0.24414062,3.4179688,0.0,0.0,0.0,0.0,173.58948,36.331787,158.7799
1769245847227,-0.6020508,0.099121094,-0.8071289,-1.0986328,0.30517578,0.0,0.0,0.0,0.0,173.58948,36.331787,158.7799
1769245847239,-0.6020508,0.099121094,-0.8071289,-1.0986328,0.30517578,0.0,0.0,0.0,0.0,173.54553,36.156006,158.81836
1769245847327,-0.59716797,0.10058594,-0.80615234,0.0,1.5869141,-0.24414062,0.0,0.0,0.0,173.54553,36.156006,158.81836
1769245847339,-0.59716797,0.10058594,-0.80615234,0.0,1.5869141,-0.24414062,0.0,0.0,0.0,173.52905,36.04065,158.8678
1769245847427,-0.5957031,0.09765625,-0.8125,-0.4272461,1.6479492,-0.061035156,0.0,0.0,0.0,173.52905,36.04065,158.8678
1769245847438,-0.5957031,0.09765625,-0.8125,-0.4272461,1.6479492,-0.061035156,0.0,0.0,0.0,173.50159,35.908813,158.87329
1769245847527,-0.58447266,0.103515625,-0.7866211,0.30517578,2.9907227,-0.30517578,0.0,0.0,0.0,173.50159,35.908813,158.87329
1769245847538,-0.58447266,0.103515625,-0.7866211,0.30517578,2.9907227,-0.30517578,0.0,0.0,0.0,173.573,35.55725,158.95569
1769245847626,-0.5864258,0.09863281,-0.81884766,0.5493164,0.6713867,-0.061035156,0.0,0.0,0.0,173.573,35.55725,158.95569
1769245847638,-0.5864258,0.09863281,-0.81884766,0.5493164,0.6713867,-0.061035156,0.0,0.0,0.0,173.54004,35.57373,158.9447
1769245847726,-0.5830078,0.104003906,-0.8120117,0.12207031,1.4648438,-0.4272461,0.0,0.0,0.0,173.54004,35.57373,158.9447
1769245847738,-0.5830078,0.104003906,-0.8120117,0.12207031,1.4648438,-0.4272461,0.0,0.0,0.0,173.63892,35.425415,158.97766
1769245847826,-0.57910156,0.09326172,-0.81152344,1.159668,3.9672852,-0.36621094,0.0,0.0,0.0,173.63892,35.425415,158.97766
1769245847837,-0.57910156,0.09326172,-0.81152344,1.159668,3.9672852,-0.36621094,0.0,0.0,0.0,173.7378,35.161743,159.0326
1769245847925,-0.5834961,0.09716797,-0.8227539,0.061035156,2.0141602,-0.4272461,0.0,0.0,0.0,173.7378,35.161743,159.0326
1769245847937,-0.5834961,0.09716797,-0.8227539,0.061035156,2.0141602,-0.4272461,0.0,0.0,0.0,173.80371,34.991455,159.07654
1769245848025,-0.57373047,0.09863281,-0.8046875,-0.24414062,0.61035156,0.12207031,0.0,0.0,0.0,173.80371,34.991455,159.07654
1769245848037,-0.57373047,0.09863281,-0.8046875,-0.24414062,0.61035156,0.12207031,0.0,0.0,0.0,173.79272,34.84314,159.07104
1769245848137,-0.5761719,0.09716797,-0.8120117,0.36621094,-2.5024414,0.18310547,0.0,0.0,0.0,173.79272,34.84314,159.07104
1769245848138,-0.5761719,0.09716797,-0.8120117,0.36621094,-2.5024414,0.18310547,0.0,0.0,0.0,173.72131,35.024414,158.95569
1769245848225,-0.58447266,0.1015625,-0.8105469,0.48828125,-2.2583008,0.61035156,0.0,0.0,0.0,173.72131,35.024414,158.95569
1769245848236,-0.58447266,0.1015625,-0.8105469,0.48828125,-2.2583008,0.61035156,0.0,0.0,0.0,173.67737,35.31555,158.82385
1769245848324,-0.5864258,0.09765625,-0.81396484,0.36621094,-0.91552734,0.30517578,0.0,0.0,0.0,173.67737,35.31555,158.82385
1769245848336,-0.5864258,0.09765625,-0.81396484,0.36621094,-0.91552734,0.30517578,0.0,0.0,0.0,173.61694,35.491333,158.68103
1769245848424,-0.58740234,0.099609375,-0.80615234,0.48828125,-1.4648438,0.0,0.0,0.0,0.0,173.61694,35.491333,158.68103
1769245848436,-0.58740234,0.099609375,-0.80615234,0.48828125,-1.4648438,0.0,0.0,0.0,0.0,173.68835,35.612183,158.64258
1769245848524,-0.5908203,0.09667969,-0.8125,-0.061035156,-0.91552734,0.12207031,0.0,0.0,0.0,173.68835,35.612183,158.64258
1769245848535,-0.5908203,0.09667969,-0.8125,-0.061035156,-0.91552734,0.12207031,0.0,0.0,0.0,173.62244,35.755005,158.60413
1769245848623,-0.5932617,0.10058594,-0.8027344,-0.061035156,-0.36621094,0.12207031,0.0,0.0,0.0,173.62244,35.755005,158.60413
1769245848635,-0.5932617,0.10058594,-0.8027344,-0.061035156,-0.36621094,0.12207031,0.0,0.0,0.0,173.61694,35.804443,158.60962
1769245848723,-0.59375,0.09667969,-0.8066406,0.61035156,0.36621094,-0.24414062,0.0,0.0,0.0,173.61694,35.804443,158.60962
1769245848735,-0.59375,0.09667969,-0.8066406,0.61035156,0.36621094,-0.24414062,0.0,0.0,0.0,173.63342,35.837402,158.59314
1769245848823,-0.58984375,0.10058594,-0.8071289,0.061035156,0.8544922,0.0,0.0,0.0,0.0,173.63342,35.837402,158.59314
1769245848835,-0.58984375,0.10058594,-0.8071289,0.061035156,0.8544922,0.0,0.0,0.0,0.0,173.6554,35.776978,158.59314
1769245848923,-0.5986328,0.09667969,-0.8046875,0.24414062,0.61035156,0.061035156,0.0,0.0,0.0,173.6554,35.776978,158.59314
1769245848934,-0.5986328,0.09667969,-0.8046875,0.24414062,0.61035156,0.061035156,0.0,0.0,0.0,173.66638,35.71106,158.57117
1769245849022,-0.58496094,0.09814453,-0.8105469,0.061035156,1.0986328,0.0,0.0,0.0,0.0,173.66638,35.71106,158.57117
1769245849034,-0.58496094,0.09814453,-0.8105469,0.061035156,1.0986328,0.0,0.0,0.0,0.0,173.67737,35.64514,158.58215
1769245849122,-0.5878906,0.100097656,-0.8027344,0.24414062,2.0751953,0.0,0.0,0.0,0.0,173.67737,35.64514,158.58215
1769245849134,-0.5878906,0.100097656,-0.8027344,0.24414062,2.0751953,0.0,0.0,0.0,0.0,173.72131,35.463867,158.60413
1769245849222,-0.58203125,0.095703125,-0.80859375,0.18310547,1.8920898,0.0,0.0,0.0,0.0,173.72131,35.463867,158.60413
1769245849234,-0.58203125,0.095703125,-0.80859375,0.18310547,1.8920898,0.0,0.0,0.0,0.0,173.7378,35.343018,158.64258
1769245849322,-0.58691406,0.09765625,-0.7998047,-0.061035156,0.8544922,0.0,0.0,0.0,0.0,173.7378,35.343018,158.64258
1769245849337,-0.58691406,0.09765625,-0.7998047,-0.061035156,0.8544922,0.0,0.0,0.0,0.0,173.77075,35.233154,158.74146
1769245849422,-0.578125,0.09863281,-0.80615234,0.0,0.0,0.12207031,0.0,0.0,0.0,173.77075,35.233154,158.74146
1769245849433,-0.578125,0.09863281,-0.80615234,0.0,0.0,0.12207031,0.0,0.0,0.0,173.74878,35.20569,158.80737
1769245849522,-0.5859375,0.09667969,-0.81152344,-0.18310547,-1.159668,0.0,0.0,0.0,0.0,173.74878,35.20569,158.80737
1769245849533,-0.5859375,0.09667969,-0.81152344,-0.18310547,-1.159668,0.0,0.0,0.0,0.0,173.7268,35.266113,158.79639
1769245849623,-0.58203125,0.100097656,-0.80566406,-0.12207031,-1.0986328,0.0,0.0,0.0,0.0,173.7268,35.266113,158.79639
1769245849634,-0.58203125,0.100097656,-0.80566406,-0.12207031,-1.0986328,0.0,0.0,0.0,0.0,173.7323,35.343018,158.77441
1769245849720,-0.5854492,0.096191406,-0.81103516,0.24414062,-0.5493164,0.0,0.0,0.0,0.0,173.7323,35.343018,158.77441
1769245849732,-0.5854492,0.096191406,-0.81103516,0.24414062,-0.5493164,0.0,0.0,0.0,0.0,173.72131,35.41443,158.74146
1769245849820,-0.58984375,0.09863281,-0.8105469,0.0,-0.6713867,0.0,0.0,0.0,0.0,173.72131,35.41443,158.74146
1769245849832,-0.58984375,0.09863281,-0.8105469,0.0,-0.6713867,0.0,0.0,0.0,0.0,173.72131,35.480347,158.71948
1769245849920,-0.58691406,0.09814453,-0.8051758,0.0,-1.0986328,0.0,0.0,0.0,0.0,173.72131,35.480347,158.71948
1769245849931,-0.58691406,0.09814453,-0.8051758,0.0,-1.0986328,0.0,0.0,0.0,0.0,173.72131,35.53528,158.69751
1769245850020,-0.59033203,0.09716797,-0.80908203,0.24414062,-0.48828125,0.0,0.0,0.0,0.0,173.72131,35.53528,158.69751
1769245850031,-0.59033203,0.09716797,-0.80908203,0.24414062,-0.48828125,0.0,0.0,0.0,0.0,173.71033,35.62317,158.66455
1769245850119,-0.58935547,0.09765625,-0.80810547,0.061035156,-0.18310547,0.0,0.0,0.0,0.0,173.71033,35.62317,158.66455
1769245850131,-0.58935547,0.09765625,-0.80810547,0.061035156,-0.18310547,0.0,0.0,0.0,0.0,173.72131,35.650635,158.64258
1769245850219,-0.58984375,0.09814453,-0.8071289,-0.061035156,-0.061035156,0.0,0.0,0.0,0.0,173.72131,35.650635,158.64258
1769245850231,-0.58984375,0.09814453,-0.8071289,-0.061035156,-0.061035156,0.0,0.0,0.0,0.0,173.71582,35.672607,158.6206
1769245850319,-0.5888672,0.095214844,-0.80810547,0.061035156,0.79345703,0.0,0.0,0.0,0.0,173.71582,35.672607,158.6206
1769245850330,-0.5888672,0.095214844,-0.80810547,0.061035156,0.79345703,0.0,0.0,0.0,0.0,173.71582,35.63965,158.6261
1769245850418,-0.5942383,0.09863281,-0.7993164,-0.4272461,0.0,0.0,0.0,0.0,0.0,173.71582,35.63965,158.6261
1769245850430,-0.5942383,0.09863281,-0.7993164,-0.4272461,0.0,0.0,0.0,0.0,0.0,173.75977,35.579224,158.63159
1769245850518,-0.5830078,0.09814453,-0.8046875,0.061035156,0.9765625,0.0,0.0,0.0,0.0,173.75977,35.579224,158.63159
1769245850530,-0.5830078,0.09814453,-0.8046875,0.061035156,0.9765625,0.0,0.0,0.0,0.0,173.7323,35.5188,158.63159
1769245850618,-0.58984375,0.09667969,-0.8129883,0.061035156,0.5493164,0.0,0.0,0.0,0.0,173.7323,35.5188,158.63159
1769245850630,-0.58984375,0.09667969,-0.8129883,0.061035156,0.5493164,0.0,0.0,0.0,0.0,173.7378,35.45288,158.61511
1769245850718,-0.58251953,0.099609375,-0.7998047,0.061035156,1.4648438,0.0,0.0,0.0,0.0,173.7378,35.45288,158.61511
1769245850729,-0.58251953,0.099609375,-0.7998047,0.061035156,1.4648438,0.0,0.0,0.0,0.0,173.75427,35.36499,158.60962
1769245850817,-0.58154297,0.09472656,-0.81347656,0.7324219,-0.30517578,0.0,0.0,0.0,0.0,173.75427,35.36499,158.60962
1769245850829,-0.58154297,0.09472656,-0.81347656,0.7324219,-0.30517578,0.0,0.0,0.0,0.0,173.75427,35.31006,158.59863
1769245850917,-0.5839844,0.10107422,-0.8095703,0.18310547,0.12207031,0.0,0.0,0.0,0.0,173.75427,35.31006,158.59863
1769245850929,-0.5839844,0.10107422,-0.8095703,0.18310547,0.12207031,0.0,0.0,0.0,0.0,173.77075,35.304565,158.58215
1769245851017,-0.58740234,0.09863281,-0.8076172,-0.18310547,-0.5493164,0.0,0.0,0.0,0.0,173.77075,35.304565,158.58215
1769245851029,-0.58740234,0.09863281,-0.8076172,-0.18310547,-0.5493164,0.0,0.0,0.0,0.0,173.75977,35.326538,158.56018
1769245851117,-0.5830078,0.09667969,-0.80810547,0.0,-0.91552734,0.0,0.0,0.0,0.0,173.75977,35.326538,158.56018
1769245851128,-0.5830078,0.09667969,-0.80810547,0.0,-0.91552734,0.0,0.0,0.0,0.0,173.7323,35.386963,158.53271
1769245851216,-0.5888672,0.099121094,-0.80810547,0.0,-0.7324219,0.0,0.0,0.0,0.0,173.7323,35.386963,158.53271
1769245851228,-0.5888672,0.099121094,-0.80810547,0.0,-0.7324219,0.0,0.0,0.0,0.0,173.7323,35.463867,158.49976
1769245851316,-0.5839844,0.09863281,-0.8100586,0.4272461,-0.5493164,0.0,0.0,0.0,0.0,173.7323,35.463867,158.49976
1769245851328,-0.5839844,0.09863281,-0.8100586,0.4272461,-0.5493164,0.0,0.0,0.0,0.0,173.74329,35.507812,158.48328
1769245851416,-0.5917969,0.09716797,-0.81103516,0.12207031,-0.12207031,0.0,0.0,0.0,0.0,173.74329,35.507812,158.48328
1769245851427,-0.5917969,0.09716797,-0.81103516,0.12207031,-0.12207031,0.0,0.0,0.0,0.0,173.74878,35.53528,158.4668
1769245851516,-0.58447266,0.099121094,-0.8027344,0.0,-0.24414062,0.0,0.0,0.0,0.0,173.74878,35.53528,158.4668
1769245851527,-0.58447266,0.099121094,-0.8027344,0.0,-0.24414062,0.0,0.0,0.0,0.0,173.75427,35.53528,158.45581
1769245851615,-0.5913086,0.09716797,-0.8095703,0.12207031,-0.24414062,0.0,0.0,0.0,0.0,173.75427,35.53528,158.45581
1769245851627,-0.5913086,0.09716797,-0.8095703,0.12207031,-0.24414062,0.0,0.0,0.0,0.0,173.7378,35.595703,158.43933
1769245851715,-0.5864258,0.09765625,-0.8046875,0.0,-0.48828125,0.0,0.0,0.0,0.0,173.7378,35.595703,158.43933
1769245851727,-0.5864258,0.09765625,-0.8046875,0.0,-0.48828125,0.0,0.0,0.0,0.0,173.7378,35.612183,158.42834
1769245851815,-0.5913086,0.09765625,-0.80908203,0.0,-0.7324219,0.0,0.0,0.0,0.0,173.7378,35.612183,158.42834
1769245851827,-0.5913086,0.09765625,-0.80908203,0.0,-0.7324219,0.0,0.0,0.0,0.0,173.72131,35.683594,158.40088
1769245851915,-0.59033203,0.09765625,-0.8041992,0.18310547,-0.12207031,0.0,0.0,0.0,0.0,173.72131,35.683594,158.40088
1769245851926,-0.59033203,0.09765625,-0.8041992,0.18310547,-0.12207031,0.0,0.0,0.0,0.0,173.72131,35.700073,158.3789
1769245852015,-0.59033203,0.09716797,-0.80615234,-0.061035156,-0.79345703,0.0,0.0,0.0,0.0,173.72131,35.700073,158.3789
1769245852026,-0.59033203,0.09716797,-0.80615234,-0.061035156,-0.79345703,0.0,0.0,0.0,0.0,173.71033,35.76599,158.35693
1769245852116,-0.59228516,0.10107422,-0.80810547,0.24414062,-0.5493164,0.0,0.0,0.0,0.0,173.71033,35.76599,158.35693
1769245852126,-0.59228516,0.10107422,-0.80810547,0.24414062,-0.5493164,0.0,0.0,0.0,0.0,173.70483,35.826416,158.33496
1769245852215,-0.5883789,0.09765625,-0.7998047,0.7324219,1.5258789,0.0,0.0,0.0,0.0,173.70483,35.826416,158.33496
1769245852226,-0.5883789,0.09765625,-0.7998047,0.7324219,1.5258789,0.0,0.0,0.0,0.0,173.74878,35.74402,158.34045
1769245852313,-0.58691406,0.10205078,-0.80908203,-0.061035156,0.24414062,0.0,0.0,0.0,0.0,173.74878,35.74402,158.34045
1769245852325,-0.58691406,0.10205078,-0.80908203,-0.061035156,0.24414062,0.0,0.0,0.0,0.0,173.71582,35.771484,158.33496
1769245852413,-0.5957031,0.096191406,-0.80615234,0.0,0.0,0.0,0.0,0.0,0.0,173.71582,35.771484,158.33496
1769245852425,-0.5957031,0.096191406,-0.80615234,0.0,0.0,0.0,0.0,0.0,0.0,173.71033,35.76599,158.34045
1769245852513,-0.5854492,0.095703125,-0.8051758,0.4272461,0.24414062,0.0,0.0,0.0,0.0,173.71033,35.76599,158.34045
1769245852524,-0.5854492,0.095703125,-0.8051758,0.4272461,0.24414062,0.0,0.0,0.0,0.0,173.72131,35.78247,158.34595
1769245852613,-0.5942383,0.09765625,-0.80371094,0.12207031,0.30517578,0.0,0.0,0.0,0.0,173.72131,35.78247,158.34595
1769245852624,-0.5942383,0.09765625,-0.80371094,0.12207031,0.30517578,0.0,0.0,0.0,0.0,173.71582,35.776978,158.34595
1769245852712,-0.5883789,0.09667969,-0.80029297,0.12207031,-0.12207031,0.0,0.0,0.0,0.0,173.71582,35.776978,158.34595
1769245852724,-0.5883789,0.09667969,-0.80029297,0.12207031,-0.12207031,0.0,0.0,0.0,0.0,173.72131,35.776978,158.35693
1769245852812,-0.59228516,0.09814453,-0.8051758,0.0,-0.61035156,0.0,0.0,0.0,0.0,173.72131,35.776978,158.35693
1769245852824,-0.59228516,0.09814453,-0.8051758,0.0,-0.61035156,0.0,0.0,0.0,0.0,173.71033,35.826416,158.35144
1769245852912,-0.59277344,0.09765625,-0.8027344,0.12207031,-0.18310547,0.0,0.0,0.0,0.0,173.71033,35.826416,158.35144
1769245852923,-0.59277344,0.09765625,-0.8027344,0.12207031,-0.18310547,0.0,0.0,0.0,0.0,173.70483,35.859375,158.35693
1769245853011,-0.59277344,0.09716797,-0.8041992,0.0,-0.8544922,0.0,0.0,0.0,0.0,173.70483,35.859375,158.35693
1769245853023,-0.59277344,0.09716797,-0.8041992,0.0,-0.8544922,0.0,0.0,0.0,0.0,173.69934,35.914307,158.36243
1769245853111,-0.59472656,0.099121094,-0.8041992,0.0,-0.61035156,0.0,0.0,0.0,0.0,173.69934,35.914307,158.36243
1769245853123,-0.59472656,0.099121094,-0.8041992,0.0,-0.61035156,0.0,0.0,0.0,0.0,173.68835,35.97473,158.36792
1769245853211,-0.59521484,0.09765625,-0.80322266,-0.18310547,-0.4272461,0.0,0.0,0.0,0.0,173.68835,35.97473,158.36792
1769245853222,-0.59521484,0.09765625,-0.80322266,-0.18310547,-0.4272461,0.0,0.0,0.0,0.0,173.67737,36.013184,158.36792
1769245853311,-0.5957031,0.095703125,-0.8066406,0.061035156,-0.48828125,0.0,0.0,0.0,0.0,173.67737,36.013184,158.36792
1769245853322,-0.5957031,0.095703125,-0.8066406,0.061035156,-0.48828125,0.0,0.0,0.0,0.0,173.68286,36.02417,158.3899
1769245853410,-0.60009766,0.100097656,-0.80029297,-0.48828125,-1.7700195,0.0,0.0,0.0,0.0,173.68286,36.02417,158.3899
1769245853422,-0.60009766,0.100097656,-0.80029297,-0.48828125,-1.7700195,0.0,0.0,0.0,0.0,173.71033,36.068115,158.40088
1769245853510,-0.59472656,0.099121094,-0.8022461,0.0,-0.4272461,0.0,0.0,0.0,0.0,173.71033,36.068115,158.40088
1769245853521,-0.59472656,0.099121094,-0.8022461,0.0,-0.4272461,0.0,0.0,0.0,0.0,173.68286,36.134033,158.40637
1769245853610,-0.60058594,0.09765625,-0.7973633,0.061035156,-1.0375977,0.0,0.0,0.0,0.0,173.68286,36.134033,158.40637
1769245853621,-0.60058594,0.09765625,-0.7973633,0.061035156,-1.0375977,0.0,0.0,0.0,0.0,173.67188,36.18347,158.42285
1769245853710,-0.59716797,0.10058594,-0.7973633,0.12207031,0.061035156,0.0,0.0,0.0,0.0,173.67188,36.18347,158.42285
1769245853721,-0.59716797,0.10058594,-0.7973633,0.12207031,0.061035156,0.0,0.0,0.0,0.0,173.6499,36.238403,158.44482
1769245853809,-0.5991211,0.09472656,-0.80566406,0.7324219,-0.79345703,0.0,0.0,0.0,0.0,173.6499,36.238403,158.44482
1769245853821,-0.5991211,0.09472656,-0.80566406,0.7324219,-0.79345703,0.0,0.0,0.0,0.0,173.67188,36.24939,158.4613
1769245853909,-0.59765625,0.10253906,-0.79541016,0.12207031,0.0,0.0,0.0,0.0,0.0,173.67188,36.24939,158.4613
1769245853920,-0.59765625,0.10253906,-0.79541016,0.12207031,0.0,0.0,0.0,0.0,0.0,173.69385,36.205444,158.51074
1769245854009,-0.6010742,0.096191406,-0.80126953,-0.36621094,-0.61035156,0.0,0.0,0.0,0.0,173.69385,36.205444,158.51074
1769245854020,-0.6010742,0.096191406,-0.80126953,-0.36621094,-0.61035156,0.0,0.0,0.0,0.0,173.67737,36.227417,158.56567
1769245854108,-0.59814453,0.09716797,-0.80029297,0.18310547,-0.36621094,0.0,0.0,0.0,0.0,173.67737,36.227417,158.56567
1769245854120,-0.59814453,0.09716797,-0.80029297,0.18310547,-0.36621094,0.0,0.0,0.0,0.0,173.66089,36.24939,158.6206
1769245854208,-0.6020508,0.09765625,-0.8017578,0.0,0.24414062,0.0,0.0,0.0,0.0,173.66089,36.24939,158.6206
1769245854220,-0.6020508,0.09765625,-0.8017578,0.0,0.24414062,0.0,0.0,0.0,0.0,173.66089,36.26587,158.66455
1769245854308,-0.59716797,0.09814453,-0.80078125,0.30517578,0.12207031,0.0,0.0,0.0,0.0,173.66089,36.26587,158.66455
1769245854319,-0.59716797,0.09814453,-0.80078125,0.30517578,0.12207031,0.0,0.0,0.0,0.0,173.68286,36.260376,158.69202
1769245854408,-0.60058594,0.09765625,-0.79833984,0.18310547,0.5493164,0.0,0.0,0.0,0.0,173.68286,36.260376,158.69202
1769245854419,-0.60058594,0.09765625,-0.79833984,0.18310547,0.5493164,0.0,0.0,0.0,0.0,173.68835,36.227417,158.71948
1769245854507,-0.5961914,0.09765625,-0.80078125,0.061035156,0.4272461,0.0,0.0,0.0,0.0,173.68835,36.227417,158.71948
1769245854519,-0.5961914,0.09765625,-0.80078125,0.061035156,0.4272461,0.0,0.0,0.0,0.0,173.69385,36.18347,158.73596
1769245854607,-0.5991211,0.09716797,-0.8022461,0.18310547,1.159668,0.0,0.0,0.0,0.0,173.69385,36.18347,158.73596
1769245854618,-0.5991211,0.09716797,-0.8022461,0.18310547,1.159668,0.0,0.0,0.0,0.0,173.71582,36.106567,158.74146
1769245854707,-0.59472656,0.09667969,-0.80615234,0.12207031,1.6479492,0.0,0.0,0.0,0.0,173.71582,36.106567,158.74146
1769245854720,-0.59472656,0.09667969,-0.80615234,0.12207031,1.6479492,0.0,0.0,0.0,0.0,173.7268,35.980225,158.76892
1769245854806,-0.59228516,0.09667969,-0.80126953,0.0,1.3427734,0.0,0.0,0.0,0.0,173.7268,35.980225,158.76892
1769245854818,-0.59228516,0.09667969,-0.80126953,0.0,1.3427734,0.0,0.0,0.0,0.0,173.74329,35.820923,158.80188
1769245854906,-0.5888672,0.096191406,-0.8027344,0.0,0.79345703,0.0,0.0,0.0,0.0,173.74329,35.820923,158.80188
1769245854918,-0.5888672,0.096191406,-0.8027344,0.0,0.79345703,0.0,0.0,0.0,0.0,173.74329,35.72754,158.81287
1769245855006,-0.5888672,0.09765625,-0.80029297,0.061035156,-0.24414062,0.0,0.0,0.0,0.0,173.74329,35.72754,158.81287
1769245855018,-0.5888672,0.09765625,-0.80029297,0.061035156,-0.24414062,0.0,0.0,0.0,0.0,173.7378,35.716553,158.7909
1769245855106,-0.5888672,0.09423828,-0.80078125,0.0,0.9765625,0.0,0.0,0.0,0.0,173.7378,35.716553,158.7909
1769245855118,-0.5888672,0.09423828,-0.80078125,0.0,0.9765625,0.0,0.0,0.0,0.0,173.72131,35.771484,158.77441
1769245855206,-0.59521484,0.09716797,-0.79296875,-0.36621094,-1.0375977,0.0,0.0,0.0,0.0,173.72131,35.771484,158.77441
1769245855217,-0.59521484,0.09716797,-0.79296875,-0.36621094,-1.0375977,0.0,0.0,0.0,0.0,173.74329,35.771484,158.76343
1769245855305,-0.5888672,0.10107422,-0.80078125,0.18310547,-0.6713867,0.0,0.0,0.0,0.0,173.74329,35.771484,158.76343
1769245855317,-0.5888672,0.10107422,-0.80078125,0.18310547,-0.6713867,0.0,0.0,0.0,0.0,173.69934,35.86487,158.74146
1769245855405,-0.5966797,0.096191406,-0.8051758,0.0,-0.79345703,0.0,0.0,0.0,0.0,173.69934,35.86487,158.74146
1769245855416,-0.5966797,0.096191406,-0.8051758,0.0,-0.79345703,0.0,0.0,0.0,0.0,173.68286,35.947266,158.71948
1769245855505,-0.5932617,0.10058594,-0.79785156,0.0,-0.9765625,0.0,0.0,0.0,0.0,173.68286,35.947266,158.71948
1769245855517,-0.5932617,0.10058594,-0.79785156,0.0,-0.9765625,0.0,0.0,0.0,0.0,173.68835,36.04065,158.69751
1769245855604,-0.59765625,0.09765625,-0.8017578,0.36621094,-0.36621094,0.0,0.0,0.0,0.0,173.68835,36.04065,158.69751
1769245855616,-0.59765625,0.09765625,-0.8017578,0.36621094,-0.36621094,0.0,0.0,0.0,0.0,173.67188,36.106567,158.67554
1769245855704,-0.59814453,0.09765625,-0.8017578,0.12207031,-0.4272461,0.0,0.0,0.0,0.0,173.67188,36.106567,158.67554
1769245855715,-0.59814453,0.09765625,-0.8017578,0.12207031,-0.4272461,0.0,0.0,0.0,0.0,173.68286,36.156006,158.66455
1769245855804,-0.59765625,0.099121094,-0.7988281,0.0,-0.36621094,0.0,0.0,0.0,0.0,173.68286,36.156006,158.66455
1769245855815,-0.59765625,0.099121094,-0.7988281,0.0,-0.36621094,0.0,0.0,0.0,0.0,173.68286,36.18347,158.65356
1769245855904,-0.5986328,0.09716797,-0.80078125,0.12207031,0.0,0.0,0.0,0.0,0.0,173.68286,36.18347,158.65356
1769245855915,-0.5986328,0.09716797,-0.80078125,0.12207031,0.0,0.0,0.0,0.0,0.0,173.67737,36.210938,158.64258
1769245856003,-0.59814453,0.09814453,-0.8017578,0.061035156,-0.061035156,0.0,0.0,0.0,0.0,173.67737,36.210938,158.64258
1769245856015,-0.59814453,0.09814453,-0.8017578,0.061035156,-0.061035156,0.0,0.0,0.0,0.0,173.66638,36.227417,158.64258
1769245856103,-0.5986328,0.099121094,-0.80126953,0.0,-0.18310547,0.0,0.0,0.0,0.0,173.66638,36.227417,158.64258
1769245856114,-0.5986328,0.099121094,-0.80126953,0.0,-0.18310547,0.0,0.0,0.0,0.0,173.66089,36.238403,158.64807
1769245856203,-0.59765625,0.09765625,-0.7963867,0.18310547,0.061035156,0.0,0.0,0.0,0.0,173.66089,36.238403,158.64807
1769245856214,-0.59765625,0.09765625,-0.7963867,0.18310547,0.061035156,0.0,0.0,0.0,0.0,173.66638,36.238403,158.64807
1769245856302,-0.59765625,0.09667969,-0.79541016,0.24414062,0.7324219,0.0,0.0,0.0,0.0,173.66638,36.238403,158.64807
1769245856315,-0.59765625,0.09667969,-0.79541016,0.24414062,0.7324219,0.0,0.0,0.0,0.0,173.66638,36.227417,158.65906
1769245856402,-0.5991211,0.09863281,-0.7890625,-0.18310547,-0.4272461,0.0,0.0,0.0,0.0,173.66638,36.227417,158.65906
1769245856414,-0.5991211,0.09863281,-0.7890625,-0.18310547,-0.4272461,0.0,0.0,0.0,0.0,173.69385,36.205444,158.67554
1769245856502,-0.5966797,0.099609375,-0.80029297,0.0,-0.24414062,0.0,0.0,0.0,0.0,173.69385,36.205444,158.67554
1769245856513,-0.5966797,0.099609375,-0.80029297,0.0,-0.24414062,0.0,0.0,0.0,0.0,173.66638,36.24939,158.68103
1769245856602,-0.60058594,0.09863281,-0.79833984,0.061035156,-0.12207031,0.0,0.0,0.0,0.0,173.66638,36.24939,158.68103
1769245856613,-0.60058594,0.09863281,-0.79833984,0.061035156,-0.12207031,0.0,0.0,0.0,0.0,173.6499,36.271362,158.67554
1769245856701,-0.59814453,0.099609375,-0.7939453,0.0,0.0,0.0,0.0,0.0,0.0,173.6499,36.271362,158.67554
1769245856713,-0.59814453,0.099609375,-0.7939453,0.0,0.0,0.0,0.0,0.0,0.0,173.63892,36.28784,158.67554
1769245856801,-0.5991211,0.09472656,-0.80322266,1.0986328,-0.12207031,0.0,0.0,0.0,0.0,173.63892,36.28784,158.67554
1769245856813,-0.5991211,0.09472656,-0.80322266,1.0986328,-0.12207031,0.0,0.0,0.0,0.0,173.66638,36.29883,158.68103
1769245856901,-0.5996094,0.104003906,-0.79785156,0.18310547,0.12207031,0.0,0.0,0.0,0.0,173.66638,36.29883,158.68103
1769245856912,-0.5996094,0.104003906,-0.79785156,0.18310547,0.12207031,0.0,0.0,0.0,0.0,173.67188,36.24939,158.68652
1769245857000,-0.60009766,0.09716797,-0.7963867,-0.12207031,-0.48828125,0.0,0.0,0.0,0.0,173.67188,36.24939,158.68652
1769245857012,-0.60009766,0.09716797,-0.7963867,-0.12207031,-0.48828125,0.0,0.0,0.0,0.0,173.66089,36.271362,158.67554
1769245857100,-0.59814453,0.09814453,-0.7963867,0.18310547,-0.12207031,0.0,0.0,0.0,0.0,173.66089,36.271362,158.67554
1769245857112,-0.59814453,0.09814453,-0.7963867,0.18310547,-0.12207031,0.0,0.0,0.0,0.0,173.6499,36.293335,158.67554
1769245857200,-0.6010742,0.09863281,-0.8017578,0.061035156,0.0,0.0,0.0,0.0,0.0,173.6499,36.293335,158.67554
1769245857211,-0.6010742,0.09863281,-0.8017578,0.061035156,0.0,0.0,0.0,0.0,0.0,173.64441,36.30432,158.68103
1769245857300,-0.5991211,0.09716797,-0.7993164,0.12207031,0.061035156,0.0,0.0,0.0,0.0,173.64441,36.30432,158.68103
1769245857311,-0.5991211,0.09716797,-0.7993164,0.12207031,0.061035156,0.0,0.0,0.0,0.0,173.6554,36.29883,158.68103
1769245857399,-0.5996094,0.09814453,-0.7993164,0.061035156,0.12207031,0.0,0.0,0.0,0.0,173.6554,36.29883,158.68103
1769245857411,-0.5996094,0.09814453,-0.7993164,0.061035156,0.12207031,0.0,0.0,0.0,0.0,173.6554,36.293335,158.68652
1769245857499,-0.5991211,0.09765625,-0.7993164,0.061035156,0.18310547,0.0,0.0,0.0,0.0,173.6554,36.293335,158.68652
1769245857511,-0.5991211,0.09765625,-0.7993164,0.061035156,0.18310547,0.0,0.0,0.0,0.0,173.6499,36.28784,158.703
1769245857599,-0.5996094,0.09765625,-0.80078125,0.0,0.061035156,0.0,0.0,0.0,0.0,173.6499,36.28784,158.703
1769245857610,-0.5996094,0.09765625,-0.80078125,0.0,0.061035156,0.0,0.0,0.0,0.0,173.64441,36.28235,158.71399
1769245857698,-0.5996094,0.09863281,-0.79785156,0.12207031,0.0,0.0,0.0,0.0,0.0,173.64441,36.28235,158.71399
1769245857710,-0.5996094,0.09863281,-0.79785156,0.12207031,0.0,0.0,0.0,0.0,0.0,173.6499,36.28235,158.71399
1769245857798,-0.5986328,0.09863281,-0.7998047,0.12207031,0.24414062,0.0,0.0,0.0,0.0,173.6499,36.28235,158.71399
1769245857810,-0.5986328,0.09863281,-0.7998047,0.12207031,0.24414062,0.0,0.0,0.0,0.0,173.64441,36.28235,158.71948
1769245857898,-0.5986328,0.09814453,-0.7998047,0.0,-0.061035156,0.0,0.0,0.0,0.0,173.64441,36.28235,158.71948
1769245857909,-0.5986328,0.09814453,-0.7998047,0.0,-0.061035156,0.0,0.0,0.0,0.0,173.64441,36.28235,158.71948
1769245857997,-0.5991211,0.09716797,-0.7939453,0.30517578,0.48828125,0.0,0.0,0.0,0.0,173.64441,36.28235,158.71948
1769245858009,-0.5991211,0.09716797,-0.7939453,0.30517578,0.48828125,0.0,0.0,0.0,0.0,173.64441,36.26587,158.71948
1769245858097,-0.5986328,0.095703125,-0.80078125,0.12207031,1.4038086,0.0,0.0,0.0,0.0,173.64441,36.26587,158.71948
1769245858109,-0.5986328,0.095703125,-0.80078125,0.12207031,1.4038086,0.0,0.0,0.0,0.0,173.64441,36.238403,158.73596
1769245858197,-0.6020508,0.096191406,-0.79052734,-0.36621094,-0.30517578,0.0,0.0,0.0,0.0,173.64441,36.238403,158.73596
1769245858208,-0.6020508,0.096191406,-0.79052734,-0.36621094,-0.30517578,0.0,0.0,0.0,0.0,173.69934,36.139526,158.75244
1769245858297,-0.5932617,0.10107422,-0.8046875,0.18310547,1.159668,0.0,0.0,0.0,0.0,173.69934,36.139526,158.75244
1769245858308,-0.5932617,0.10107422,-0.8046875,0.18310547,1.159668,0.0,0.0,0.0,0.0,173.67737,36.117554,158.76892
1769245858396,-0.5966797,0.096191406,-0.8022461,0.0,1.0375977,0.0,0.0,0.0,0.0,173.67737,36.117554,158.76892
1769245858408,-0.5966797,0.096191406,-0.8022461,0.0,1.0375977,0.0,0.0,0.0,0.0,173.67737,35.996704,158.80737
1769245858496,-0.5913086,0.10058594,-0.79541016,-0.12207031,0.18310547,0.0,0.0,0.0,0.0,173.67737,35.996704,158.80737
1769245858508,-0.5913086,0.10058594,-0.79541016,-0.12207031,0.18310547,0.0,0.0,0.0,0.0,173.69385,35.925293,158.82385
1769245858596,-0.59277344,0.09814453,-0.8017578,0.30517578,-0.4272461,0.0,0.0,0.0,0.0,173.69385,35.925293,158.82385
1769245858607,-0.59277344,0.09814453,-0.8017578,0.30517578,-0.4272461,0.0,0.0,0.0,0.0,173.68835,35.93628,158.80737
1769245858696,-0.59375,0.09765625,-0.80078125,0.0,-0.79345703,0.0,0.0,0.0,0.0,173.68835,35.93628,158.80737
1769245858707,-0.59375,0.09765625,-0.80078125,0.0,-0.79345703,0.0,0.0,0.0,0.0,173.68835,35.996704,158.7854
1769245858795,-0.5961914,0.099121094,-0.8017578,0.0,-0.4272461,0.0,0.0,0.0,0.0,173.68835,35.996704,158.7854
1769245858807,-0.5961914,0.099121094,-0.8017578,0.0,-0.4272461,0.0,0.0,0.0,0.0,173.67737,36.062622,158.76892
1769245858895,-0.59716797,0.09667969,-0.8022461,0.061035156,-0.6713867,0.0,0.0,0.0,0.0,173.67737,36.062622,158.76892
1769245858907,-0.59716797,0.09667969,-0.8022461,0.061035156,-0.6713867,0.0,0.0,0.0,0.0,173.67188,36.11206,158.74695
1769245858995,-0.59716797,0.09863281,-0.8027344,0.0,-0.48828125,0.0,0.0,0.0,0.0,173.67188,36.11206,158.74695
1769245859006,-0.59716797,0.09863281,-0.8027344,0.0,-0.48828125,0.0,0.0,0.0,0.0,173.6554,36.17798,158.72498
1769245859095,-0.5991211,0.09716797,-0.80126953,0.0,-0.36621094,0.0,0.0,0.0,0.0,173.6554,36.17798,158.72498
1769245859106,-0.5991211,0.09716797,-0.80126953,0.0,-0.36621094,0.0,0.0,0.0,0.0,173.6499,36.221924,158.71399
1769245859194,-0.60058594,0.099121094,-0.80615234,0.4272461,-0.61035156,0.0,0.0,0.0,0.0,173.6499,36.221924,158.71399
1769245859206,-0.60058594,0.099121094,-0.80615234,0.4272461,-0.61035156,0.0,0.0,0.0,0.0,173.64441,36.260376,158.703
1769245859294,-0.5957031,0.09814453,-0.8022461,0.8544922,0.4272461,0.0,0.0,0.0,0.0,173.64441,36.260376,158.703
1769245859305,-0.5957031,0.09814453,-0.8022461,0.8544922,0.4272461,0.0,0.0,0.0,0.0,173.67737,36.238403,158.71399
1769245859394,-0.59814453,0.099121094,-0.8027344,-0.48828125,-0.5493164,0.0,0.0,0.0,0.0,173.67737,36.238403,158.71399
1769245859405,-0.59814453,0.099121094,-0.8027344,-0.48828125,-0.5493164,0.0,0.0,0.0,0.0,173.67188,36.271362,158.74695
1769245859493,-0.5991211,0.09667969,-0.7993164,0.061035156,-0.061035156,0.0,0.0,0.0,0.0,173.67188,36.271362,158.74695
1769245859505,-0.5991211,0.09667969,-0.7993164,0.061035156,-0.061035156,0.0,0.0,0.0,0.0,173.64441,36.30432,158.77441
1769245859593,-0.5996094,0.096191406,-0.80126953,0.0,0.0,0.0,0.0,0.0,0.0,173.64441,36.30432,158.77441
1769245859604,-0.5996094,0.096191406,-0.80126953,0.0,0.0,0.0,0.0,0.0,0.0,173.61145,36.33728,158.79639
1769245859693,-0.60058594,0.095214844,-0.79833984,0.36621094,0.0,0.0,0.0,0.0,0.0,173.61145,36.33728,158.79639
1769245859705,-0.60058594,0.095214844,-0.79833984,0.36621094,0.0,0.0,0.0,0.0,0.0,173.62793,36.35376,158.82385
1769245859793,-0.59814453,0.10058594,-0.79589844,0.12207031,0.7324219,0.0,0.0,0.0,0.0,173.62793,36.35376,158.82385
1769245859804,-0.59814453,0.10058594,-0.79589844,0.12207031,0.7324219,0.0,0.0,0.0,0.0,173.63892,36.33728,158.82385
1769245859892,-0.60009766,0.09814453,-0.7963867,0.0,-0.18310547,0.0,0.0,0.0,0.0,173.63892,36.33728,158.82385
1769245859904,-0.60009766,0.09814453,-0.7963867,0.0,-0.18310547,0.0,0.0,0.0,0.0,173.63342,36.342773,158.82385
1769245859992,-0.60009766,0.09863281,-0.79589844,0.061035156,0.0,0.0,0.0,0.0,0.0,173.63342,36.342773,158.82385
1769245860004,-0.60009766,0.09863281,-0.79589844,0.061035156,0.0,0.0,0.0,0.0,0.0,173.62244,36.37024,158.82385
1769245860092,-0.6020508,0.099121094,-0.8017578,0.18310547,0.0,0.0,0.0,0.0,0.0,173.62244,36.37024,158.82385
1769245860103,-0.6020508,0.099121094,-0.8017578,0.18310547,0.0,0.0,0.0,0.0,0.0,173.61694,36.392212,158.82385
1769245860192,-0.60058594,0.096191406,-0.796875,0.12207031,0.061035156,0.0,0.0,0.0,0.0,173.61694,36.392212,158.82385
1769245860203,-0.60058594,0.096191406,-0.796875,0.12207031,0.061035156,0.0,0.0,0.0,0.0,173.63342,36.38672,158.82935
1769245860291,-0.6010742,0.100097656,-0.79833984,0.12207031,0.12207031,0.0,0.0,0.0,0.0,173.63342,36.38672,158.82935
1769245860303,-0.6010742,0.100097656,-0.79833984,0.12207031,0.12207031,0.0,0.0,0.0,0.0,173.63892,36.38672,158.83484
1769245860391,-0.5991211,0.09765625,-0.796875,0.061035156,0.061035156,0.0,0.0,0.0,0.0,173.63892,36.38672,158.83484
1769245860402,-0.5991211,0.09765625,-0.796875,0.061035156,0.061035156,0.0,0.0,0.0,0.0,173.63342,36.38672,158.82385
1769245860491,-0.60009766,0.099121094,-0.7988281,0.0,0.061035156,0.0,0.0,0.0,0.0,173.63342,36.38672,158.82385
1769245860502,-0.60009766,0.099121094,-0.7988281,0.0,0.061035156,0.0,0.0,0.0,0.0,173.62793,36.38672,158.82385
1769245860590,-0.60058594,0.09814453,-0.79785156,0.061035156,0.061035156,0.0,0.0,0.0,0.0,173.62793,36.38672,158.82385
1769245860602,-0.60058594,0.09814453,-0.79785156,0.061035156,0.061035156,0.0,0.0,0.0,0.0,173.62793,36.381226,158.83484
1769245860690,-0.60058594,0.09863281,-0.7988281,0.061035156,0.061035156,0.0,0.0,0.0,0.0,173.62793,36.381226,158.83484
1769245860702,-0.60058594,0.09863281,-0.7988281,0.061035156,0.061035156,0.0,0.0,0.0,0.0,173.62244,36.381226,158.82935
1769245860790,-0.60009766,0.09814453,-0.79785156,0.0,0.0,0.0,0.0,0.0,0.0,173.62244,36.381226,158.82935
1769245860801,-0.60009766,0.09814453,-0.79785156,0.0,0.0,0.0,0.0,0.0,0.0,173.62244,36.381226,158.82385
1769245860890,-0.5991211,0.09863281,-0.79345703,0.30517578,0.48828125,0.0,0.0,0.0,0.0,173.62244,36.381226,158.82385
1769245860901,-0.5991211,0.09863281,-0.79345703,0.30517578,0.48828125,0.0,0.0,0.0,0.0,173.62244,36.37024,158.82935
1769245860989,-0.59814453,0.095703125,-0.80078125,0.12207031,1.0986328,0.0,0.0,0.0,0.0,173.62244,36.37024,158.82935
1769245861001,-0.59814453,0.095703125,-0.80078125,0.12207031,1.0986328,0.0,0.0,0.0,0.0,173.61694,36.364746,158.82385
1769245861089,-0.6015625,0.09716797,-0.78027344,0.18310547,0.0,0.0,0.0,0.0,0.0,173.61694,36.364746,158.82385
1769245861100,-0.6015625,0.09716797,-0.78027344,0.18310547,0.0,0.0,0.0,0.0,0.0,173.66089,36.30432,158.82385
1769245861189,-0.59716797,0.10205078,-0.80078125,0.24414062,0.24414062,0.0,0.0,0.0,0.0,173.66089,36.30432,158.82385
1769245861200,-0.59716797,0.10205078,-0.80078125,0.24414062,0.24414062,0.0,0.0,0.0,0.0,173.62244,36.35376,158.82385
1769245861288,-0.6040039,0.09716797,-0.8022461,0.0,-0.061035156,0.0,0.0,0.0,0.0,173.62244,36.35376,158.82385
1769245861300,-0.6040039,0.09716797,-0.8022461,0.0,-0.061035156,0.0,0.0,0.0,0.0,173.61145,36.359253,158.81836
1769245861388,-0.59814453,0.100097656,-0.79296875,0.24414062,0.36621094,0.0,0.0,0.0,0.0,173.61145,36.359253,158.81836
1769245861400,-0.59814453,0.100097656,-0.79296875,0.24414062,0.36621094,0.0,0.0,0.0,0.0,173.63892,36.348267,158.81836
1769245861488,-0.6010742,0.09863281,-0.80322266,0.48828125,0.79345703,0.0,0.0,0.0,0.0,173.63892,36.348267,158.81836
1769245861500,-0.6010742,0.09863281,-0.80322266,0.48828125,0.79345703,0.0,0.0,0.0,0.0,173.64441,36.293335,158.82935
1769245861587,-0.5986328,0.095703125,-0.8017578,0.24414062,1.8920898,0.0,0.0,0.0,0.0,173.64441,36.293335,158.82935
1769245861599,-0.5986328,0.095703125,-0.8017578,0.24414062,1.8920898,0.0,0.0,0.0,0.0,173.69385,36.156006,158.84583
1769245861687,-0.5942383,0.099609375,-0.8017578,0.18310547,2.380371,0.0,0.0,0.0,0.0,173.69385,36.156006,158.84583
1769245861699,-0.5942383,0.099609375,-0.8017578,0.18310547,2.380371,0.0,0.0,0.0,0.0,173.71582,35.947266,158.8678
1769245861787,-0.5908203,0.095214844,-0.8051758,0.0,2.1362305,0.0,0.0,0.0,0.0,173.71582,35.947266,158.8678
1769245861799,-0.5908203,0.095214844,-0.8051758,0.0,2.1362305,0.0,0.0,0.0,0.0,173.72131,35.738525,158.88428
1769245861887,-0.58740234,0.09765625,-0.8046875,-0.18310547,1.3427734,0.0,0.0,0.0,0.0,173.72131,35.738525,158.88428
1769245861898,-0.58740234,0.09765625,-0.8046875,-0.18310547,1.3427734,0.0,0.0,0.0,0.0,173.72131,35.601196,158.89526
1769245861986,-0.58691406,0.095214844,-0.80371094,-0.18310547,0.36621094,0.0,0.0,0.0,0.0,173.72131,35.601196,158.89526
1769245861998,-0.58691406,0.095214844,-0.80371094,-0.18310547,0.36621094,0.0,0.0,0.0,0.0,173.69934,35.53528,158.87329
1769245862086,-0.58740234,0.100097656,-0.80908203,0.0,-1.0986328,0.0,0.0,0.0,0.0,173.69934,35.53528,158.87329
1769245862098,-0.58740234,0.100097656,-0.80908203,0.0,-1.0986328,0.0,0.0,0.0,0.0,173.66638,35.568237,158.83484
1769245862186,-0.5839844,0.09863281,-0.80810547,0.4272461,-0.30517578,0.0,0.0,0.0,0.0,173.66638,35.568237,158.83484
1769245862197,-0.5839844,0.09863281,-0.80810547,0.4272461,-0.30517578,0.0,0.0,0.0,0.0,173.67188,35.612183,158.80737
1769245862286,-0.5883789,0.100097656,-0.80810547,-0.30517578,-0.91552734,0.0,0.0,0.0,0.0,173.67188,35.612183,158.80737
1769245862297,-0.5883789,0.100097656,-0.80810547,-0.30517578,-0.91552734,0.0,0.0,0.0,0.0,173.62244,35.74402,158.77441
1769245862385,-0.59375,0.09716797,-0.8100586,0.30517578,-0.9765625,0.0,0.0,0.0,0.0,173.62244,35.74402,158.77441
1769245862397,-0.59375,0.09716797,-0.8100586,0.30517578,-0.9765625,0.0,0.0,0.0,0.0,173.59497,35.85388,158.73596
1769245862485,-0.59228516,0.09667969,-0.81103516,-0.18310547,-1.5258789,0.0,0.0,0.0,0.0,173.59497,35.85388,158.73596
1769245862497,-0.59228516,0.09667969,-0.81103516,-0.18310547,-1.5258789,0.0,0.0,0.0,0.0,173.58398,35.980225,158.80188
1769245862585,-0.59765625,0.099609375,-0.8017578,0.061035156,-0.7324219,0.0,0.0,0.0,0.0,173.58398,35.980225,158.80188
1769245862596,-0.59765625,0.099609375,-0.8017578,0.061035156,-0.7324219,0.0,0.0,0.0,0.0,173.573,36.07361,158.81287
1769245862684,-0.5957031,0.09863281,-0.8051758,0.30517578,-0.4272461,0.0,0.0,0.0,0.0,173.573,36.07361,158.81287
1769245862696,-0.5957031,0.09863281,-0.8051758,0.30517578,-0.4272461,0.0,0.0,0.0,0.0,173.56201,36.150513,158.79639
1769245862784,-0.5986328,0.10058594,-0.8017578,0.0,-0.5493164,0.0,0.0,0.0,0.0,173.56201,36.150513,158.79639
1769245862796,-0.5986328,0.10058594,-0.8017578,0.0,-0.5493164,0.0,0.0,0.0,0.0,173.57849,36.18347,158.7854
1769245862884,-0.59814453,0.09814453,-0.7998047,0.061035156,-0.24414062,0.0,0.0,0.0,0.0,173.57849,36.18347,158.7854
1769245862896,-0.59814453,0.09814453,-0.7998047,0.061035156,-0.24414062,0.0,0.0,0.0,0.0,173.57849,36.221924,158.77441
1769245862984,-0.59814453,0.100097656,-0.8022461,0.061035156,-0.12207031,0.0,0.0,0.0,0.0,173.57849,36.221924,158.77441
1769245862995,-0.59814453,0.100097656,-0.8022461,0.061035156,-0.12207031,0.0,0.0,0.0,0.0,173.5675,36.24939,158.77441
1769245863083,-0.5991211,0.09863281,-0.80029297,0.0,-0.12207031,0.0,0.0,0.0,0.0,173.5675,36.24939,158.77441
1769245863095,-0.5991211,0.09863281,-0.80029297,0.0,-0.12207031,0.0,0.0,0.0,0.0,173.56201,36.260376,158.76892
1769245863183,-0.60058594,0.1015625,-0.7998047,-0.061035156,-0.48828125,0.0,0.0,0.0,0.0,173.56201,36.260376,158.76892
1769245863195,-0.60058594,0.1015625,-0.7998047,-0.061035156,-0.48828125,0.0,0.0,0.0,0.0,173.5675,36.26587,158.76892
1769245863283,-0.60009766,0.09863281,-0.80615234,0.79345703,0.061035156,0.0,0.0,0.0,0.0,173.5675,36.26587,158.76892
1769245863294,-0.60009766,0.09863281,-0.80615234,0.79345703,0.061035156,0.0,0.0,0.0,0.0,173.58948,36.260376,158.77441
1769245863382,-0.6015625,0.100097656,-0.80371094,-0.48828125,-1.0375977,0.0,0.0,0.0,0.0,173.58948,36.260376,158.77441
1769245863394,-0.6015625,0.100097656,-0.80371094,-0.48828125,-1.0375977,0.0,0.0,0.0,0.0,173.61694,36.260376,158.77441
1769245863482,-0.59765625,0.09863281,-0.8017578,0.12207031,-0.12207031,0.0,0.0,0.0,0.0,173.61694,36.260376,158.77441
1769245863494,-0.59765625,0.09863281,-0.8017578,0.12207031,-0.12207031,0.0,0.0,0.0,0.0,173.58948,36.29883,158.76892
1769245863582,-0.6015625,0.099121094,-0.7998047,0.061035156,-0.48828125,0.0,0.0,0.0,0.0,173.58948,36.29883,158.76892
1769245863594,-0.6015625,0.099121094,-0.7998047,0.061035156,-0.48828125,0.0,0.0,0.0,0.0,173.573,36.331787,158.76343
1769245863682,-0.6015625,0.100097656,-0.80126953,-0.061035156,-0.24414062,0.0,0.0,0.0,0.0,173.573,36.331787,158.76343
1769245863693,-0.6015625,0.100097656,-0.80126953,-0.061035156,-0.24414062,0.0,0.0,0.0,0.0,173.58398,36.35376,158.76892
1769245863781,-0.5996094,0.09863281,-0.7998047,0.4272461,0.18310547,0.0,0.0,0.0,0.0,173.58398,36.35376,158.76892
1769245863793,-0.5996094,0.09863281,-0.7998047,0.4272461,0.18310547,0.0,0.0,0.0,0.0,173.58948,36.359253,158.77441
1769245863881,-0.60009766,0.10058594,-0.80126953,0.0,0.061035156,0.0,0.0,0.0,0.0,173.58948,36.359253,158.77441
1769245863893,-0.60009766,0.10058594,-0.80126953,0.0,0.061035156,0.0,0.0,0.0,0.0,173.58948,36.35376,158.7854
1769245863981,-0.60058594,0.09863281,-0.79785156,0.0,0.061035156,0.0,0.0,0.0,0.0,173.58948,36.35376,158.7854
1769245863992,-0.60058594,0.09863281,-0.79785156,0.0,0.061035156,0.0,0.0,0.0,0.0,173.59497,36.342773,158.79639
1769245864081,-0.6010742,0.09863281,-0.80126953,0.24414062,0.6713867,0.0,0.0,0.0,0.0,173.59497,36.342773,158.79639
1769245864092,-0.6010742,0.09863281,-0.80126953,0.24414062,0.6713867,0.0,0.0,0.0,0.0,173.59497,36.331787,158.80188
1769245864180,-0.5991211,0.099609375,-0.8022461,0.061035156,0.79345703,0.0,0.0,0.0,0.0,173.59497,36.331787,158.80188
1769245864192,-0.5991211,0.099609375,-0.8022461,0.061035156,0.79345703,0.0,0.0,0.0,0.0,173.60046,36.271362,158.80737
1769245864280,-0.59765625,0.09814453,-0.80078125,0.48828125,1.8310547,0.0,0.0,0.0,0.0,173.60046,36.271362,158.80737
1769245864292,-0.59765625,0.09814453,-0.80078125,0.48828125,1.8310547,0.0,0.0,0.0,0.0,173.62244,36.166992,158.81836
1769245864380,-0.59521484,0.096191406,-0.8051758,0.36621094,3.2958984,0.0,0.0,0.0,0.0,173.62244,36.166992,158.81836
1769245864391,-0.59521484,0.096191406,-0.8051758,0.36621094,3.2958984,0.0,0.0,0.0,0.0,173.64441,35.996704,158.84583
1769245864479,-0.5888672,0.095703125,-0.80322266,0.48828125,2.6855469,0.0,0.0,0.0,0.0,173.64441,35.996704,158.84583
1769245864491,-0.5888672,0.095703125,-0.80322266,0.48828125,2.6855469,0.0,0.0,0.0,0.0,173.71582,35.771484,158.8678
1769245864579,-0.58447266,0.1015625,-0.80810547,-0.12207031,1.7089844,0.0,0.0,0.0,0.0,173.71582,35.771484,158.8678
1769245864591,-0.58447266,0.1015625,-0.80810547,-0.12207031,1.7089844,0.0,0.0,0.0,0.0,173.68286,35.634155,158.87329
1769245864679,-0.5888672,0.095214844,-0.80371094,0.0,0.0,0.061035156,0.0,0.0,0.0,173.68286,35.634155,158.87329
1769245864690,-0.5888672,0.095214844,-0.80371094,0.0,0.0,0.061035156,0.0,0.0,0.0,173.66089,35.579224,158.85132
1769245864779,-0.58447266,0.096191406,-0.8051758,-0.18310547,-1.0375977,0.061035156,0.0,0.0,0.0,173.66089,35.579224,158.85132
1769245864790,-0.58447266,0.096191406,-0.8051758,-0.18310547,-1.0375977,0.061035156,0.0,0.0,0.0,173.64441,35.672607,158.84033
1769245864878,-0.59521484,0.099609375,-0.80859375,0.30517578,-1.0986328,-0.061035156,0.0,0.0,0.0,173.64441,35.672607,158.84033
1769245864890,-0.59521484,0.099609375,-0.80859375,0.30517578,-1.0986328,-0.061035156,0.0,0.0,0.0,173.63342,35.78247,158.84583
1769245864978,-0.59228516,0.09863281,-0.7949219,0.36621094,-0.61035156,0.0,0.0,0.0,0.0,173.63342,35.78247,158.84583
1769245864989,-0.59228516,0.09863281,-0.7949219,0.36621094,-0.61035156,0.0,0.0,0.0,0.0,173.66089,35.881348,158.8623
1769245865078,-0.59521484,0.099121094,-0.8041992,0.0,-1.5258789,0.061035156,0.0,0.0,0.0,173.66089,35.881348,158.8623
1769245865089,-0.59521484,0.099121094,-0.8041992,0.0,-1.5258789,0.061035156,0.0,0.0,0.0,173.63892,36.002197,158.8623
1769245865178,-0.5957031,0.09716797,-0.8041992,0.061035156,-1.0986328,0.0,0.0,0.0,0.0,173.63892,36.002197,158.8623
1769245865189,-0.5957031,0.09716797,-0.8041992,0.061035156,-1.0986328,0.0,0.0,0.0,0.0,173.61145,36.11206,158.85681
1769245865277,-0.59814453,0.09814453,-0.80566406,0.061035156,-0.6713867,0.0,0.0,0.0,0.0,173.61145,36.11206,158.85681
1769245865289,-0.59814453,0.09814453,-0.80566406,0.061035156,-0.6713867,0.0,0.0,0.0,0.0,173.60046,36.238403,158.83484
1769245865377,-0.5996094,0.09814453,-0.79833984,0.18310547,-0.18310547,0.0,0.0,0.0,0.0,173.60046,36.238403,158.83484
1769245865389,-0.5996094,0.09814453,-0.79833984,0.18310547,-0.18310547,0.0,0.0,0.0,0.0,173.61145,36.276855,158.82385
1769245865477,-0.5996094,0.09765625,-0.7993164,0.30517578,0.0,0.0,0.0,0.0,0.0,173.61145,36.276855,158.82385
1769245865488,-0.5996094,0.09765625,-0.7993164,0.30517578,0.0,0.0,0.0,0.0,0.0,173.62793,36.293335,158.81836
1769245865576,-0.5986328,0.09863281,-0.80078125,0.0,0.12207031,0.0,0.0,0.0,0.0,173.62793,36.293335,158.81836
1769245865588,-0.5986328,0.09863281,-0.80078125,0.0,0.12207031,0.0,0.0,0.0,0.0,173.62793,36.29883,158.81287
1769245865676,-0.5996094,0.09765625,-0.7963867,0.061035156,0.12207031,0.0,0.0,0.0,0.0,173.62793,36.29883,158.81287
1769245865688,-0.5996094,0.09765625,-0.7963867,0.061035156,0.12207031,0.0,0.0,0.0,0.0,173.63342,36.28784,158.82385
1769245865776,-0.5986328,0.09863281,-0.80078125,0.12207031,0.0,0.0,0.0,0.0,0.0,173.63342,36.28784,158.82385
1769245865787,-0.5986328,0.09863281,-0.80078125,0.12207031,0.0,0.0,0.0,0.0,0.0,173.62793,36.293335,158.85132
1769245865875,-0.60009766,0.09814453,-0.7998047,0.0,0.0,0.0,0.0,0.0,0.0,173.62793,36.293335,158.85132
1769245865887,-0.60009766,0.09814453,-0.7998047,0.0,0.0,0.0,0.0,0.0,0.0,173.62244,36.29883,158.85681
1769245865975,-0.5996094,0.09716797,-0.80078125,0.12207031,0.0,0.0,0.0,0.0,0.0,173.62244,36.29883,158.85681
1769245865987,-0.5996094,0.09716797,-0.80078125,0.12207031,0.0,0.0,0.0,0.0,0.0,173.62793,36.309814,158.85681
1769245866075,-0.60058594,0.09765625,-0.80126953,0.12207031,0.0,0.0,0.0,0.0,0.0,173.62793,36.309814,158.85681
1769245866086,-0.60058594,0.09765625,-0.80126953,0.12207031,0.0,0.0,0.0,0.0,0.0,173.63342,36.309814,158.85132
1769245866175,-0.5991211,0.099609375,-0.80126953,-0.12207031,-0.36621094,0.0,0.0,0.0,0.0,173.63342,36.309814,158.85132
1769245866186,-0.5991211,0.099609375,-0.80126953,-0.12207031,-0.36621094,0.0,0.0,0.0,0.0,173.63342,36.309814,158.85132
1769245866274,-0.60302734,0.09765625,-0.8100586,0.6713867,0.18310547,-0.12207031,0.0,0.0,0.0,173.63342,36.309814,158.85132
1769245866286,-0.60302734,0.09765625,-0.8100586,0.6713867,0.18310547,-0.12207031,0.0,0.0,0.0,173.67737,36.28235,158.87329
1769245866374,-0.6010742,0.09814453,-0.80371094,0.0,-0.30517578,-0.18310547,0.0,0.0,0.0,173.67737,36.28235,158.87329
1769245866386,-0.6010742,0.09814453,-0.80371094,0.0,-0.30517578,-0.18310547,0.0,0.0,0.0,173.71033,36.28235,158.88977
1769245866474,-0.5986328,0.09472656,-0.8051758,0.0,-0.061035156,0.12207031,0.0,0.0,0.0,173.71033,36.28235,158.88977
1769245866486,-0.5986328,0.09472656,-0.8051758,0.0,-0.061035156,0.12207031,0.0,0.0,0.0,173.68286,36.309814,158.87878
1769245866574,-0.60253906,0.09716797,-0.80078125,-0.061035156,-0.30517578,0.18310547,0.0,0.0,0.0,173.68286,36.309814,158.87878
1769245866585,-0.60253906,0.09716797,-0.80078125,-0.061035156,-0.30517578,0.18310547,0.0,0.0,0.0,173.68286,36.3208,158.8623
1769245866673,-0.6015625,0.099121094,-0.80322266,0.30517578,0.9765625,-0.18310547,0.0,0.0,0.0,173.68286,36.3208,158.8623
1769245866685,-0.6015625,0.099121094,-0.80322266,0.30517578,0.9765625,-0.18310547,0.0,0.0,0.0,173.70483,36.293335,158.87329
1769245866773,-0.5986328,0.095214844,-0.80908203,0.4272461,1.953125,0.0,0.0,0.0,0.0,173.70483,36.293335,158.87329
1769245866785,-0.5986328,0.095214844,-0.80908203,0.4272461,1.953125,0.0,0.0,0.0,0.0,173.7268,36.166992,158.88977
1769245866873,-0.5966797,0.09863281,-0.8051758,0.36621094,3.2348633,0.0,0.0,0.0,0.0,173.7268,36.166992,158.88977
1769245866884,-0.5966797,0.09863281,-0.8051758,0.36621094,3.2348633,0.0,0.0,0.0,0.0,173.78174,35.908813,158.92273
1769245866972,-0.5908203,0.09716797,-0.80810547,0.12207031,2.6245117,0.0,0.0,0.0,0.0,173.78174,35.908813,158.92273
1769245866984,-0.5908203,0.09716797,-0.80810547,0.12207031,2.6245117,0.0,0.0,0.0,0.0,173.79822,35.650635,158.9502
1769245867072,-0.58691406,0.096191406,-0.80615234,0.0,1.953125,0.0,0.0,0.0,0.0,173.79822,35.650635,158.9502
1769245867084,-0.58691406,0.096191406,-0.80615234,0.0,1.953125,0.0,0.0,0.0,0.0,173.80371,35.43091,158.96667
1769245867172,-0.5834961,0.09667969,-0.81103516,0.0,1.7700195,0.0,0.0,0.0,0.0,173.80371,35.43091,158.96667
1769245867183,-0.5834961,0.09667969,-0.81103516,0.0,1.7700195,0.0,0.0,0.0,0.0,173.8147,35.29358,158.96667
1769245867272,-0.5786133,0.09667969,-0.80029297,0.24414062,0.18310547,0.0,0.0,0.0,0.0,173.8147,35.29358,158.96667
1769245867283,-0.5786133,0.09667969,-0.80029297,0.24414062,0.18310547,0.0,0.0,0.0,0.0,173.8147,35.20569,158.95569
1769245867371,-0.5834961,0.09472656,-0.8125,-0.061035156,0.24414062,0.0,0.0,0.0,0.0,173.8147,35.20569,158.95569
1769245867383,-0.5834961,0.09472656,-0.8125,-0.061035156,0.24414062,0.0,0.0,0.0,0.0,173.77625,35.29358,158.90625
1769245867471,-0.5834961,0.09667969,-0.7919922,-0.12207031,-1.2817383,0.0,0.0,0.0,0.0,173.77625,35.29358,158.90625
1769245867482,-0.5834961,0.09667969,-0.7919922,-0.12207031,-1.2817383,0.0,0.0,0.0,0.0,173.79822,35.354004,158.8623
1769245867571,-0.5834961,0.100097656,-0.80615234,0.061035156,-1.159668,0.0,0.0,0.0,0.0,173.79822,35.354004,158.8623
1769245867582,-0.5834961,0.100097656,-0.80615234,0.061035156,-1.159668,0.0,0.0,0.0,0.0,173.72131,35.551758,158.80737
1769245867670,-0.59228516,0.09716797,-0.8076172,0.0,-1.7700195,0.0,0.0,0.0,0.0,173.72131,35.551758,158.80737
1769245867682,-0.59228516,0.09716797,-0.8076172,0.0,-1.7700195,0.0,0.0,0.0,0.0,173.71582,35.71106,158.75793
1769245867770,-0.5917969,0.095214844,-0.8017578,0.36621094,-1.5258789,0.0,0.0,0.0,0.0,173.71582,35.71106,158.75793
1769245867782,-0.5917969,0.095214844,-0.8017578,0.36621094,-1.5258789,0.0,0.0,0.0,0.0,173.70483,35.908813,158.71399
1769245867870,-0.5961914,0.100097656,-0.8027344,0.30517578,-0.8544922,0.0,0.0,0.0,0.0,173.70483,35.908813,158.71399
1769245867881,-0.5961914,0.100097656,-0.8027344,0.30517578,-0.8544922,0.0,0.0,0.0,0.0,173.68835,36.046143,158.68652
1769245867970,-0.59765625,0.096191406,-0.7998047,0.4272461,-0.061035156,0.0,0.0,0.0,0.0,173.68835,36.046143,158.68652
1769245867981,-0.59765625,0.096191406,-0.7998047,0.4272461,-0.061035156,0.0,0.0,0.0,0.0,173.71033,36.139526,158.67004
1769245868070,-0.59521484,0.09814453,-0.79833984,0.061035156,-0.36621094,0.0,0.0,0.0,0.0,173.71033,36.139526,158.67004
1769245868081,-0.59521484,0.09814453,-0.79833984,0.061035156,-0.36621094,0.0,0.0,0.0,0.0,173.72131,36.156006,158.65906
1769245868169,-0.5996094,0.09765625,-0.80615234,-0.12207031,-0.79345703,0.0,0.0,0.0,0.0,173.72131,36.156006,158.65906
1769245868180,-0.5996094,0.09765625,-0.80615234,-0.12207031,-0.79345703,0.0,0.0,0.0,0.0,173.70483,36.23291,158.65356
1769245868269,-0.5991211,0.09814453,-0.79833984,-0.061035156,-0.7324219,0.0,0.0,0.0,0.0,173.70483,36.23291,158.65356
1769245868280,-0.5991211,0.09814453,-0.79833984,-0.061035156,-0.7324219,0.0,0.0,0.0,0.0,173.68835,36.28235,158.64807
1769245868368,-0.5996094,0.09814453,-0.79833984,0.12207031,-0.4272461,0.0,0.0,0.0,0.0,173.68835,36.28235,158.64807
1769245868380,-0.5996094,0.09814453,-0.79833984,0.12207031,-0.4272461,0.0,0.0,0.0,0.0,173.69385,36.33728,158.65906
1769245868468,-0.60009766,0.09863281,-0.8017578,0.4272461,-0.12207031,0.0,0.0,0.0,0.0,173.69385,36.33728,158.65906
1769245868480,-0.60009766,0.09863281,-0.8017578,0.4272461,-0.12207031,0.0,0.0,0.0,0.0,173.69934,36.359253,158.68652
1769245868568,-0.60009766,0.09667969,-0.7973633,0.0,0.0,0.0,0.0,0.0,0.0,173.69934,36.359253,158.68652
1769245868580,-0.60009766,0.09667969,-0.7973633,0.0,0.0,0.0,0.0,0.0,0.0,173.70483,36.364746,158.69202
1769245868667,-0.60058594,0.09863281,-0.7973633,0.0,0.0,0.0,0.0,0.0,0.0,173.70483,36.364746,158.69202
1769245868679,-0.60058594,0.09863281,-0.7973633,0.0,0.0,0.0,0.0,0.0,0.0,173.71033,36.37024,158.703
1769245868767,-0.5991211,0.09667969,-0.79833984,0.24414062,0.18310547,0.0,0.0,0.0,0.0,173.71033,36.37024,158.703
1769245868779,-0.5991211,0.09667969,-0.79833984,0.24414062,0.18310547,0.0,0.0,0.0,0.0,173.70483,36.37024,158.7085
1769245868867,-0.6010742,0.09716797,-0.80078125,0.0,0.0,0.0,0.0,0.0,0.0,173.70483,36.37024,158.7085
1769245868878,-0.6010742,0.09716797,-0.80078125,0.0,0.0,0.0,0.0,0.0,0.0,173.70483,36.375732,158.71399
1769245868967,-0.60009766,0.09716797,-0.79541016,0.12207031,0.0,0.0,0.0,0.0,0.0,173.70483,36.375732,158.71399
1769245868978,-0.60009766,0.09716797,-0.79541016,0.12207031,0.0,0.0,0.0,0.0,0.0,173.71033,36.364746,158.72498
1769245869066,-0.60009766,0.09716797,-0.80078125,0.061035156,0.24414062,0.0,0.0,0.0,0.0,173.71033,36.364746,158.72498
1769245869078,-0.60009766,0.09716797,-0.80078125,0.061035156,0.24414062,0.0,0.0,0.0,0.0,173.70483,36.37024,158.73596
1769245869166,-0.6010742,0.095703125,-0.80029297,-0.061035156,-0.18310547,0.0,0.0,0.0,0.0,173.70483,36.37024,158.73596
1769245869178,-0.6010742,0.095703125,-0.80029297,-0.061035156,-0.18310547,0.0,0.0,0.0,0.0,173.70483,36.37024,158.74146
1769245869266,-0.6010742,0.099609375,-0.7993164,0.0,-0.24414062,0.0,0.0,0.0,0.0,173.70483,36.37024,158.74146
1769245869277,-0.6010742,0.099609375,-0.7993164,0.0,-0.24414062,0.0,0.0,0.0,0.0,173.70483,36.364746,158.75244
1769245869366,-0.6020508,0.09814453,-0.8105469,0.6713867,0.18310547,0.0,0.0,0.0,0.0,173.70483,36.364746,158.75244
1769245869377,-0.6020508,0.09814453,-0.8105469,0.6713867,0.18310547,0.0,0.0,0.0,0.0,173.72131,36.342773,158.76343
1769245869465,-0.6035156,0.09716797,-0.80371094,-0.36621094,-0.61035156,0.0,0.0,0.0,0.0,173.72131,36.342773,158.76343
1769245869477,-0.6035156,0.09716797,-0.80371094,-0.36621094,-0.61035156,0.0,0.0,0.0,0.0,173.7323,36.342773,158.76892
1769245869565,-0.6010742,0.09716797,-0.8041992,0.061035156,0.30517578,0.0,0.0,0.0,0.0,173.7323,36.342773,158.76892
1769245869577,-0.6010742,0.09716797,-0.8041992,0.061035156,0.30517578,0.0,0.0,0.0,0.0,173.71582,36.342773,158.76892
1769245869665,-0.6010742,0.09765625,-0.8022461,0.0,0.6713867,0.0,0.0,0.0,0.0,173.71582,36.342773,158.76892
1769245869676,-0.6010742,0.09765625,-0.8022461,0.0,0.6713867,0.0,0.0,0.0,0.0,173.72131,36.28235,158.7854
1769245869764,-0.5996094,0.09716797,-0.80615234,0.061035156,2.0141602,0.0,0.0,0.0,0.0,173.72131,36.28235,158.7854
1769245869776,-0.5996094,0.09716797,-0.80615234,0.061035156,2.0141602,0.0,0.0,0.0,0.0,173.75427,36.12854,158.80737
1769245869864,-0.5942383,0.095703125,-0.8071289,0.5493164,2.4414062,0.0,0.0,0.0,0.0,173.75427,36.12854,158.80737
1769245869876,-0.5942383,0.095703125,-0.8071289,0.5493164,2.4414062,0.0,0.0,0.0,0.0,173.79272,35.908813,158.84033
1769245869964,-0.58984375,0.096191406,-0.80908203,0.0,2.8686523,0.0,0.0,0.0,0.0,173.79272,35.908813,158.84033
1769245869976,-0.58984375,0.096191406,-0.80908203,0.0,2.8686523,0.0,0.0,0.0,0.0,173.82568,35.63965,158.87329
1769245870064,-0.5864258,0.095214844,-0.80615234,0.0,1.8920898,0.0,0.0,0.0,0.0,173.82568,35.63965,158.87329
1769245870075,-0.5864258,0.095214844,-0.80615234,0.0,1.8920898,0.0,0.0,0.0,0.0,173.84766,35.403442,158.89526
1769245870163,-0.58154297,0.09667969,-0.8066406,0.061035156,1.5869141,0.0,0.0,0.0,0.0,173.84766,35.403442,158.89526
1769245870175,-0.58154297,0.09667969,-0.8066406,0.061035156,1.5869141,0.0,0.0,0.0,0.0,173.85315,35.238647,158.90625
1769245870263,-0.5800781,0.09765625,-0.8076172,-0.061035156,0.24414062,0.0,0.0,0.0,0.0,173.85315,35.238647,158.90625
1769245870275,-0.5800781,0.09765625,-0.8076172,-0.061035156,0.24414062,0.0,0.0,0.0,0.0,173.84766,35.167236,158.91724
1769245870363,-0.5800781,0.096191406,-0.8051758,0.061035156,-0.5493164,0.0,0.0,0.0,0.0,173.84766,35.167236,158.91724
1769245870374,-0.5800781,0.096191406,-0.8051758,0.061035156,-0.5493164,0.0,0.0,0.0,0.0,173.83667,35.20569,158.91724
1769245870463,-0.5834961,0.09765625,-0.8144531,0.12207031,0.12207031,0.0,0.0,0.0,0.0,173.83667,35.20569,158.91724
1769245870474,-0.5834961,0.09765625,-0.8144531,0.12207031,0.12207031,0.0,0.0,0.0,0.0,173.8092,35.299072,158.91724
1769245870562,-0.5805664,0.09375,-0.80322266,0.0,0.0,0.0,0.0,0.0,0.0,173.8092,35.299072,158.91724
1769245870574,-0.5805664,0.09375,-0.80322266,0.0,0.0,0.0,0.0,0.0,0.0,173.83118,35.326538,158.91724
1769245870662,-0.58203125,0.099121094,-0.8071289,0.061035156,-0.9765625,0.0,0.0,0.0,0.0,173.83118,35.326538,158.91724
1769245870674,-0.58203125,0.099121094,-0.8071289,0.061035156,-0.9765625,0.0,0.0,0.0,0.0,173.78174,35.458374,158.88977
1769245870762,-0.5908203,0.09667969,-0.80859375,0.12207031,-0.6713867,0.0,0.0,0.0,0.0,173.78174,35.458374,158.88977
1769245870773,-0.5908203,0.09667969,-0.80859375,0.12207031,-0.6713867,0.0,0.0,0.0,0.0,173.75977,35.562744,158.84033
1769245870861,-0.58935547,0.096191406,-0.80908203,0.4272461,-0.5493164,0.0,0.0,0.0,0.0,173.75977,35.562744,158.84033
1769245870873,-0.58935547,0.096191406,-0.80908203,0.4272461,-0.5493164,0.0,0.0,0.0,0.0,173.74878,35.650635,158.81287
1769245870961,-0.5917969,0.09716797,-0.8066406,0.4272461,-0.4272461,0.0,0.0,0.0,0.0,173.74878,35.650635,158.81287
1769245870973,-0.5917969,0.09716797,-0.8066406,0.4272461,-0.4272461,0.0,0.0,0.0,0.0,173.77075,35.71106,158.7854
1769245871061,-0.58935547,0.10107422,-0.8051758,0.30517578,0.4272461,0.0,0.0,0.0,0.0,173.77075,35.71106,158.7854
1769245871072,-0.58935547,0.10107422,-0.8051758,0.30517578,0.4272461,0.0,0.0,0.0,0.0,173.77625,35.689087,158.76892
1769245871161,-0.5917969,0.09667969,-0.8041992,-0.12207031,0.0,0.0,0.0,0.0,0.0,173.77625,35.689087,158.76892
1769245871173,-0.5917969,0.09667969,-0.8041992,-0.12207031,0.0,0.0,0.0,0.0,0.0,173.77075,35.66162,158.75793
1769245871260,-0.58496094,0.09472656,-0.8208008,-0.061035156,0.91552734,0.0,0.0,0.0,0.0,173.77075,35.66162,158.75793
1769245871272,-0.58496094,0.09472656,-0.8208008,-0.061035156,0.91552734,0.0,0.0,0.0,0.0,173.75977,35.656128,158.74695
1769245871360,-0.5917969,0.09472656,-0.7963867,-0.79345703,-3.2348633,-0.36621094,0.0,0.0,0.0,173.75977,35.656128,158.74695
1769245871372,-0.5917969,0.09472656,-0.7963867,-0.79345703,-3.2348633,-0.36621094,0.0,0.0,0.0,173.68286,35.71106,158.71948
1769245871460,-0.5957031,0.099609375,-0.80566406,-0.4272461,-2.319336,-0.30517578,0.0,0.0,0.0,173.68286,35.71106,158.71948
1769245871471,-0.5957031,0.099609375,-0.80566406,-0.4272461,-2.319336,-0.30517578,0.0,0.0,0.0,173.6499,35.941772,158.72498
1769245871560,-0.5932617,0.099609375,-0.7998047,-0.061035156,-0.4272461,0.0,0.0,0.0,0.0,173.6499,35.941772,158.72498
1769245871571,-0.5932617,0.099609375,-0.7998047,-0.061035156,-0.4272461,0.0,0.0,0.0,0.0,173.63892,36.046143,158.72498
1769245871659,-0.5966797,0.09667969,-0.8095703,-0.24414062,-0.12207031,-0.36621094,0.0,0.0,0.0,173.63892,36.046143,158.72498
1769245871671,-0.5966797,0.09667969,-0.8095703,-0.24414062,-0.12207031,-0.36621094,0.0,0.0,0.0,173.62793,36.0791,158.73047
1769245871759,-0.59765625,0.09863281,-0.7993164,-0.12207031,-0.12207031,0.0,0.0,0.0,0.0,173.62793,36.0791,158.73047
1769245871770,-0.59765625,0.09863281,-0.7993164,-0.12207031,-0.12207031,0.0,0.0,0.0,0.0,173.63342,36.0791,158.74695
1769245871860,-0.59814453,0.099609375,-0.8017578,0.36621094,-0.18310547,0.0,0.0,0.0,0.0,173.63342,36.0791,158.74695
1769245871870,-0.59814453,0.099609375,-0.8017578,0.36621094,-0.18310547,0.0,0.0,0.0,0.0,173.63342,36.090088,158.75244
1769245871958,-0.5957031,0.099609375,-0.80322266,0.5493164,0.48828125,-0.36621094,0.0,0.0,0.0,173.63342,36.090088,158.75244
1769245871970,-0.5957031,0.099609375,-0.80322266,0.5493164,0.48828125,-0.36621094,0.0,0.0,0.0,173.67737,36.084595,158.76892
1769245872058,-0.59472656,0.09472656,-0.8046875,0.30517578,-0.30517578,-0.18310547,0.0,0.0,0.0,173.67737,36.084595,158.76892
1769245872070,-0.59472656,0.09472656,-0.8046875,0.30517578,-0.30517578,-0.18310547,0.0,0.0,0.0,173.7378,36.068115,158.79639
1769245872158,-0.5966797,0.095214844,-0.8027344,-0.36621094,-0.7324219,0.24414062,0.0,0.0,0.0,173.7378,36.068115,158.79639
1769245872169,-0.5966797,0.095214844,-0.8027344,-0.36621094,-0.7324219,0.24414062,0.0,0.0,0.0,173.75977,36.0791,158.80188
1769245872258,-0.59765625,0.091796875,-0.8125,0.0,0.7324219,-0.4272461,0.0,0.0,0.0,173.75977,36.0791,158.80188
1769245872269,-0.59765625,0.091796875,-0.8125,0.0,0.7324219,-0.4272461,0.0,0.0,0.0,173.77625,36.05713,158.81287
1769245872357,-0.59375,0.106933594,-0.78027344,-1.3427734,1.5869141,-0.91552734,0.0,0.0,0.0,173.77625,36.05713,158.81287
1769245872369,-0.59375,0.106933594,-0.78027344,-1.3427734,1.5869141,-0.91552734,0.0,0.0,0.0,173.8092,35.820923,158.89526
1769245872457,-0.59521484,0.08935547,-0.7890625,0.7324219,2.380371,-0.12207031,0.0,0.0,0.0,173.8092,35.820923,158.89526
1769245872468,-0.59521484,0.08935547,-0.7890625,0.7324219,2.380371,-0.12207031,0.0,0.0,0.0,173.7323,35.809937,158.90076
1769245872557,-0.5932617,0.09814453,-0.8125,0.0,0.79345703,0.18310547,0.0,0.0,0.0,173.7323,35.809937,158.90076
1769245872568,-0.5932617,0.09814453,-0.8125,0.0,0.79345703,0.18310547,0.0,0.0,0.0,173.74878,35.771484,158.91724
1769245872656,-0.58935547,0.100097656,-0.79003906,0.24414062,0.48828125,0.0,0.0,0.0,0.0,173.74878,35.771484,158.91724
1769245872668,-0.58935547,0.100097656,-0.79003906,0.24414062,0.48828125,0.0,0.0,0.0,0.0,173.7268,35.6781,158.90625
1769245872756,-0.5800781,0.09375,-0.80859375,0.061035156,0.0,-0.30517578,0.0,0.0,0.0,173.7268,35.6781,158.90625
1769245872768,-0.5800781,0.09375,-0.80859375,0.061035156,0.0,-0.30517578,0.0,0.0,0.0,173.70483,35.738525,158.87878
1769245872856,-0.58984375,0.1015625,-0.7993164,0.30517578,-0.79345703,0.0,0.0,0.0,0.0,173.70483,35.738525,158.87878
1769245872867,-0.58984375,0.1015625,-0.7993164,0.30517578,-0.79345703,0.0,0.0,0.0,0.0,173.75427,35.76599,158.87329
1769245872956,-0.59277344,0.09667969,-0.8076172,0.9765625,0.0,-0.6713867,0.0,0.0,0.0,173.75427,35.76599,158.87329
1769245872967,-0.59277344,0.09667969,-0.8076172,0.9765625,0.0,-0.6713867,0.0,0.0,0.0,173.8092,35.859375,158.88428
1769245873055,-0.59228516,0.09667969,-0.79052734,1.0375977,-0.6713867,-0.30517578,0.0,0.0,0.0,173.8092,35.859375,158.88428
1769245873067,-0.59228516,0.09667969,-0.79052734,1.0375977,-0.6713867,-0.30517578,0.0,0.0,0.0,173.96301,35.83191,158.95569
1769245873155,-0.5986328,0.08935547,-0.8046875,1.4648438,-1.0986328,-0.7324219,0.0,0.0,0.0,173.96301,35.83191,158.95569
1769245873167,-0.5986328,0.08935547,-0.8046875,1.4648438,-1.0986328,-0.7324219,0.0,0.0,0.0,174.11682,36.013184,159.03809
1769245873255,-0.5957031,0.08935547,-0.7988281,3.7231445,3.6621094,-1.159668,0.0,0.0,0.0,174.11682,36.013184,159.03809
1769245873266,-0.5957031,0.08935547,-0.7988281,3.7231445,3.6621094,-1.159668,0.0,0.0,0.0,174.47388,35.914307,159.14246
1769245873355,-0.5986328,0.09082031,-0.8251953,3.112793,0.24414062,-1.159668,0.0,0.0,0.0,174.47388,35.914307,159.14246
1769245873366,-0.5986328,0.09082031,-0.8251953,3.112793,0.24414062,-1.159668,0.0,0.0,0.0,174.80896,35.842896,159.25232
1769245873455,-0.5888672,0.07470703,-0.81347656,4.0283203,1.4648438,-0.91552734,0.0,0.0,0.0,174.80896,35.842896,159.25232
1769245873466,-0.5888672,0.07470703,-0.81347656,4.0283203,1.4648438,-0.91552734,0.0,0.0,0.0,175.19897,35.667114,159.3512
1769245873554,-0.59521484,0.07714844,-0.81689453,3.540039,-0.7324219,-0.9765625,0.0,0.0,0.0,175.19897,35.667114,159.3512
1769245873566,-0.59521484,0.07714844,-0.81689453,3.540039,-0.7324219,-0.9765625,0.0,0.0,0.0,175.5835,35.634155,159.4226
1769245873654,-0.5859375,0.07080078,-0.82421875,6.8969727,-1.8310547,-0.5493164,0.0,0.0,0.0,175.5835,35.634155,159.4226
1769245873665,-0.5859375,0.07080078,-0.82421875,6.8969727,-1.8310547,-0.5493164,0.0,0.0,0.0,176.12183,35.738525,159.46655
1769245873754,-0.60546875,0.048828125,-0.8027344,10.131836,-4.638672,-1.8310547,0.0,0.0,0.0,176.12183,35.738525,159.46655
1769245873765,-0.60546875,0.048828125,-0.8027344,10.131836,-4.638672,-1.8310547,0.0,0.0,0.0,177.03918,36.029663,159.43909
1769245873853,-0.6015625,0.04638672,-0.80859375,10.498047,-5.1879883,-2.8076172,0.0,0.0,0.0,177.03918,36.029663,159.43909
1769245873865,-0.6015625,0.04638672,-0.80859375,10.498047,-5.1879883,-2.8076172,0.0,0.0,0.0,178.11584,36.54602,159.72473
1769245873953,-0.61279297,0.015625,-0.8041992,9.033203,-1.8920898,-2.5024414,0.0,0.0,0.0,178.11584,36.54602,159.72473
1769245873964,-0.61279297,0.015625,-0.8041992,9.033203,-1.8920898,-2.5024414,0.0,0.0,0.0,179.26392,36.870117,160.0763
1769245874053,-0.6044922,-0.019042969,-0.78222656,5.6762695,0.0,-2.746582,0.0,0.0,0.0,179.26392,36.870117,160.0763
1769245874064,-0.6044922,-0.019042969,-0.78222656,5.6762695,0.0,-2.746582,0.0,0.0,0.0,-179.85718,36.94702,160.42236
1769245874152,-0.5986328,-0.027832031,-0.7866211,-0.061035156,0.5493164,-1.2207031,0.0,0.0,0.0,-179.85718,36.94702,160.42236
1769245874164,-0.5986328,-0.027832031,-0.7866211,-0.061035156,0.5493164,-1.2207031,0.0,0.0,0.0,-179.42322,36.97998,160.80139
1769245874252,-0.6069336,0.0,-0.7949219,-3.2958984,2.4414062,0.6713867,0.0,0.0,0.0,-179.42322,36.97998,160.80139
1769245874264,-0.6069336,0.0,-0.7949219,-3.2958984,2.4414062,0.6713867,0.0,0.0,0.0,-179.599,36.83716,160.81238
1769245874352,-0.59472656,0.0073242188,-0.7890625,-2.5024414,-2.6855469,-0.91552734,0.0,0.0,0.0,-179.599,36.83716,160.81238
1769245874363,-0.59472656,0.0073242188,-0.7890625,-2.5024414,-2.6855469,-0.91552734,0.0,0.0,0.0,-179.91211,36.8042,160.76843
1769245874452,-0.6064453,0.013183594,-0.7885742,-2.319336,-5.6152344,0.6713867,0.0,0.0,0.0,-179.91211,36.8042,160.76843
1769245874463,-0.6064453,0.013183594,-0.7885742,-2.319336,-5.6152344,0.6713867,0.0,0.0,0.0,179.90662,37.144775,160.85083
1769245874551,-0.6064453,0.0,-0.77490234,-0.91552734,-1.0375977,0.4272461,0.0,0.0,0.0,179.90662,37.144775,160.85083
1769245874564,-0.6064453,0.0,-0.77490234,-0.91552734,-1.0375977,0.4272461,0.0,0.0,0.0,179.70886,37.468872,160.75745
1769245874651,-0.61083984,0.0,-0.7998047,-2.1972656,0.12207031,-0.36621094,0.0,0.0,0.0,179.70886,37.468872,160.75745
1769245874663,-0.61083984,0.0,-0.7998047,-2.1972656,0.12207031,-0.36621094,0.0,0.0,0.0,179.50562,37.67212,160.84534
1769245874751,-0.6035156,0.028320312,-0.8027344,-7.2631836,-0.6713867,2.1362305,0.0,0.0,0.0,179.50562,37.67212,160.84534
1769245874762,-0.6035156,0.028320312,-0.8027344,-7.2631836,-0.6713867,2.1362305,0.0,0.0,0.0,178.91235,37.573242,160.75745
1769245874850,-0.62890625,0.04248047,-0.79345703,-3.9672852,1.7089844,1.5258789,0.0,0.0,0.0,178.91235,37.573242,160.75745
1769245874862,-0.62890625,0.04248047,-0.79345703,-3.9672852,1.7089844,1.5258789,0.0,0.0,0.0,178.3081,37.424927,160.53772
1769245874950,-0.61865234,0.038085938,-0.80322266,-3.479004,0.79345703,1.7089844,0.0,0.0,0.0,178.3081,37.424927,160.53772
1769245874962,-0.61865234,0.038085938,-0.80322266,-3.479004,0.79345703,1.7089844,0.0,0.0,0.0,177.79175,37.315063,160.307
1769245875050,-0.61035156,0.05126953,-0.7988281,0.0,0.79345703,-0.12207031,0.0,0.0,0.0,177.79175,37.315063,160.307
1769245875062,-0.61035156,0.05126953,-0.7988281,0.0,0.79345703,-0.12207031,0.0,0.0,0.0,177.63245,37.22168,160.27954
1769245875150,-0.61376953,0.037109375,-0.796875,-0.8544922,1.4648438,0.12207031,0.0,0.0,0.0,177.63245,37.22168,160.27954
1769245875161,-0.61376953,0.037109375,-0.796875,-0.8544922,1.4648438,0.12207031,0.0,0.0,0.0,177.57202,37.13379,160.26306
1769245875249,-0.6064453,0.041015625,-0.7973633,0.0,0.48828125,-0.4272461,0.0,0.0,0.0,177.57202,37.13379,160.26306
1769245875261,-0.6064453,0.041015625,-0.7973633,0.0,0.48828125,-0.4272461,0.0,0.0,0.0,177.58301,37.06787,160.307
1769245875349,-0.609375,0.04345703,-0.79589844,-0.5493164,0.7324219,0.18310547,0.0,0.0,0.0,177.58301,37.06787,160.307
1769245875361,-0.609375,0.04345703,-0.79589844,-0.5493164,0.7324219,0.18310547,0.0,0.0,0.0,177.53357,36.985474,160.3125
1769245875449,-0.6088867,0.046875,-0.7949219,-0.12207031,0.4272461,0.061035156,0.0,0.0,0.0,177.53357,36.985474,160.3125
1769245875461,-0.6088867,0.046875,-0.7949219,-0.12207031,0.4272461,0.061035156,0.0,0.0,0.0,177.47314,36.952515,160.307
1769245875549,-0.60839844,0.043945312,-0.80126953,0.0,1.2207031,-0.18310547,0.0,0.0,0.0,177.47314,36.952515,160.307
1769245875560,-0.60839844,0.043945312,-0.80126953,0.0,1.2207031,-0.18310547,0.0,0.0,0.0,177.45117,36.930542,160.30151
1769245875648,-0.60253906,0.04248047,-0.79248047,0.36621094,0.36621094,0.0,0.0,0.0,0.0,177.45117,36.930542,160.30151
1769245875660,-0.60253906,0.04248047,-0.79248047,0.36621094,0.36621094,0.0,0.0,0.0,0.0,177.48962,36.853638,160.32898
1769245875748,-0.60791016,0.04638672,-0.7998047,-0.36621094,-0.061035156,0.0,0.0,0.0,0.0,177.48962,36.853638,160.32898
1769245875760,-0.60791016,0.04638672,-0.7998047,-0.36621094,-0.061035156,0.0,0.0,0.0,0.0,177.44568,36.864624,160.35645
1769245875848,-0.6098633,0.044921875,-0.80615234,0.36621094,1.5258789,0.0,0.0,0.0,0.0,177.44568,36.864624,160.35645
1769245875859,-0.6098633,0.044921875,-0.80615234,0.36621094,1.5258789,0.0,0.0,0.0,0.0,177.4292,36.82068,160.3894
1769245875947,-0.6044922,0.03857422,-0.80566406,0.4272461,2.5024414,0.0,0.0,0.0,0.0,177.4292,36.82068,160.3894
1769245875959,-0.6044922,0.03857422,-0.80566406,0.4272461,2.5024414,0.0,0.0,0.0,0.0,177.45117,36.655884,160.42236
1769245876048,-0.6020508,0.043945312,-0.80566406,0.5493164,2.319336,0.0,0.0,0.0,0.0,177.45117,36.655884,160.42236
1769245876059,-0.6020508,0.043945312,-0.80566406,0.5493164,2.319336,0.0,0.0,0.0,0.0,177.50061,36.45813,160.46082
1769245876147,-0.59765625,0.045898438,-0.8095703,0.24414062,3.0517578,0.061035156,0.0,0.0,0.0,177.50061,36.45813,160.46082
1769245876158,-0.59765625,0.045898438,-0.8095703,0.24414062,3.0517578,0.061035156,0.0,0.0,0.0,177.56104,36.210938,160.4773
1769245876247,-0.5932617,0.04345703,-0.8120117,-0.30517578,2.4414062,0.6713867,0.0,0.0,0.0,177.56104,36.210938,160.4773
1769245876258,-0.5932617,0.04345703,-0.8120117,-0.30517578,2.4414062,0.6713867,0.0,0.0,0.0,177.53906,35.947266,160.41687
1769245876346,-0.58691406,0.041503906,-0.8125,-0.12207031,2.8686523,0.36621094,0.0,0.0,0.0,177.53906,35.947266,160.41687
1769245876358,-0.58691406,0.041503906,-0.8125,-0.12207031,2.8686523,0.36621094,0.0,0.0,0.0,177.46765,35.716553,160.32898
1769245876446,-0.5883789,0.045898438,-0.8154297,-0.5493164,1.5869141,0.48828125,0.0,0.0,0.0,177.46765,35.716553,160.32898
1769245876458,-0.5883789,0.045898438,-0.8154297,-0.5493164,1.5869141,0.48828125,0.0,0.0,0.0,177.40723,35.507812,160.24658
1769245876546,-0.57177734,0.044921875,-0.7944336,-0.91552734,0.12207031,0.7324219,0.0,0.0,0.0,177.40723,35.507812,160.24658
1769245876557,-0.57177734,0.044921875,-0.7944336,-0.91552734,0.12207031,0.7324219,0.0,0.0,0.0,177.29187,35.375977,160.14221
1769245876645,-0.5878906,0.051757812,-0.82714844,-2.746582,-3.1738281,-0.6713867,0.0,0.0,0.0,177.29187,35.375977,160.14221
1769245876657,-0.5878906,0.051757812,-0.82714844,-2.746582,-3.1738281,-0.6713867,0.0,0.0,0.0,177.13806,35.63965,160.08179
1769245876745,-0.58935547,0.048828125,-0.7963867,-3.479004,-0.061035156,1.0375977,0.0,0.0,0.0,177.13806,35.63965,160.08179
1769245876757,-0.58935547,0.048828125,-0.7963867,-3.479004,-0.061035156,1.0375977,0.0,0.0,0.0,176.84143,35.5188,159.9884
1769245876845,-0.5786133,0.064453125,-0.78515625,-1.2207031,3.0517578,0.79345703,0.0,0.0,0.0,176.84143,35.5188,159.9884
1769245876857,-0.5786133,0.064453125,-0.78515625,-1.2207031,3.0517578,0.79345703,0.0,0.0,0.0,176.5503,35.375977,159.94995
1769245876945,-0.57714844,0.07324219,-0.79785156,-0.30517578,5.004883,0.0,0.0,0.0,0.0,176.5503,35.375977,159.94995
1769245876956,-0.57714844,0.07324219,-0.79785156,-0.30517578,5.004883,0.0,0.0,0.0,0.0,176.32507,35.040894,159.82361
1769245877044,-0.55322266,0.05908203,-0.75146484,1.8920898,1.3427734,0.48828125,0.0,0.0,0.0,176.32507,35.040894,159.82361
1769245877056,-0.55322266,0.05908203,-0.75146484,1.8920898,1.3427734,0.48828125,0.0,0.0,0.0,176.39099,34.606934,159.77966
1769245877144,-0.55029297,0.057128906,-0.7709961,3.2958984,-2.0141602,0.7324219,0.0,0.0,0.0,176.39099,34.606934,159.77966
1769245877156,-0.55029297,0.057128906,-0.7709961,3.2958984,-2.0141602,0.7324219,0.0,0.0,0.0,176.45142,34.942017,159.65881
1769245877244,-0.58154297,0.06542969,-0.80371094,0.4272461,0.4272461,-0.24414062,0.0,0.0,0.0,176.45142,34.942017,159.65881
1769245877255,-0.58154297,0.06542969,-0.80371094,0.4272461,0.4272461,-0.24414062,0.0,0.0,0.0,176.36902,35.282593,159.43909
1769245877344,-0.5932617,0.0625,-0.82958984,-0.24414062,-1.5258789,-0.4272461,0.0,0.0,0.0,176.36902,35.282593,159.43909
1769245877355,-0.5932617,0.0625,-0.82958984,-0.24414062,-1.5258789,-0.4272461,0.0,0.0,0.0,176.35803,35.392456,159.41711
1769245877443,-0.58251953,0.05419922,-0.8173828,0.0,1.159668,-0.8544922,0.0,0.0,0.0,176.35803,35.392456,159.41711
1769245877455,-0.58251953,0.05419922,-0.8173828,0.0,1.159668,-0.8544922,0.0,0.0,0.0,176.35254,35.359497,159.43909
1769245877543,-0.5878906,0.064941406,-0.8183594,0.48828125,-0.7324219,-0.6713867,0.0,0.0,0.0,176.35254,35.359497,159.43909
1769245877555,-0.5878906,0.064941406,-0.8183594,0.48828125,-0.7324219,-0.6713867,0.0,0.0,0.0,176.44592,35.282593,159.53247
1769245877643,-0.5810547,0.0546875,-0.81689453,0.6713867,-1.0986328,-0.48828125,0.0,0.0,0.0,176.44592,35.282593,159.53247
1769245877654,-0.5810547,0.0546875,-0.81689453,0.6713867,-1.0986328,-0.48828125,0.0,0.0,0.0,176.53381,35.425415,159.55994
1769245877742,-0.5878906,0.060058594,-0.8027344,0.30517578,3.3569336,-0.4272461,0.0,0.0,0.0,176.53381,35.425415,159.55994
1769245877754,-0.5878906,0.060058594,-0.8027344,0.30517578,3.3569336,-0.4272461,0.0,0.0,0.0,176.56677,35.29358,159.57092
1769245877842,-0.57910156,0.05859375,-0.8017578,0.7324219,-0.48828125,-0.36621094,0.0,0.0,0.0,176.56677,35.29358,159.57092
1769245877854,-0.57910156,0.05859375,-0.8017578,0.7324219,-0.48828125,-0.36621094,0.0,0.0,0.0,176.67114,35.266113,159.61487
1769245877942,-0.56640625,0.049804688,-0.7446289,3.9672852,4.1503906,0.12207031,0.0,0.0,0.0,176.67114,35.266113,159.61487
1769245877954,-0.56640625,0.049804688,-0.7446289,3.9672852,4.1503906,0.12207031,0.0,0.0,0.0,176.7096,35.10132,159.58191
1769245878042,-0.56103516,0.06738281,-0.77734375,-0.18310547,1.7700195,0.18310547,0.0,0.0,0.0,176.7096,35.10132,159.58191
1769245878053,-0.56103516,0.06738281,-0.77734375,-0.18310547,1.7700195,0.18310547,0.0,0.0,0.0,176.63269,35.090332,159.58191
1769245878141,-0.58496094,0.061523438,-0.81640625,-0.7324219,0.9765625,0.0,0.0,0.0,0.0,176.63269,35.090332,159.58191
1769245878154,-0.58496094,0.061523438,-0.81640625,-0.7324219,0.9765625,0.0,0.0,0.0,0.0,176.50085,35.18921,159.49951
1769245878241,-0.58203125,0.06542969,-0.82177734,-0.30517578,2.9907227,0.061035156,0.0,0.0,0.0,176.50085,35.18921,159.49951
1769245878253,-0.58203125,0.06542969,-0.82177734,-0.30517578,2.9907227,0.061035156,0.0,0.0,0.0,176.42944,35.128784,159.47754
1769245878341,-0.5917969,0.056640625,-0.8183594,0.061035156,-2.8076172,0.4272461,0.0,0.0,0.0,176.42944,35.128784,159.47754
1769245878352,-0.5917969,0.056640625,-0.8183594,0.061035156,-2.8076172,0.4272461,0.0,0.0,0.0,176.42944,35.062866,159.36218
1769245878440,-0.58691406,0.06542969,-0.81591797,-0.061035156,0.79345703,0.061035156,0.0,0.0,0.0,176.42944,35.062866,159.36218
1769245878452,-0.58691406,0.06542969,-0.81591797,-0.061035156,0.79345703,0.061035156,0.0,0.0,0.0,176.41296,35.13977,159.33472
1769245878540,-0.5673828,0.05517578,-0.81152344,-0.061035156,-0.91552734,0.0,0.0,0.0,0.0,176.41296,35.13977,159.33472
1769245878552,-0.5673828,0.05517578,-0.81152344,-0.061035156,-0.91552734,0.0,0.0,0.0,0.0,176.38,35.12329,159.27979
1769245878640,-0.5834961,0.06640625,-0.81152344,0.61035156,0.5493164,-0.061035156,0.0,0.0,0.0,176.38,35.12329,159.27979
1769245878651,-0.5834961,0.06640625,-0.81152344,0.61035156,0.5493164,-0.061035156,0.0,0.0,0.0,176.40747,35.112305,159.2688
1769245878740,-0.5864258,0.060546875,-0.8203125,1.159668,0.24414062,-0.36621094,0.0,0.0,0.0,176.40747,35.112305,159.2688
1769245878751,-0.5864258,0.060546875,-0.8203125,1.159668,0.24414062,-0.36621094,0.0,0.0,0.0,176.4679,35.150757,159.2688
1769245878839,-0.5854492,0.05126953,-0.8144531,1.4648438,-2.0141602,0.0,0.0,0.0,0.0,176.4679,35.150757,159.2688
1769245878851,-0.5854492,0.05126953,-0.8144531,1.4648438,-2.0141602,0.0,0.0,0.0,0.0,176.60522,35.266113,159.25232
1769245878939,-0.5864258,0.060058594,-0.8125,0.30517578,-1.3427734,0.36621094,0.0,0.0,0.0,176.60522,35.266113,159.25232
1769245878951,-0.5864258,0.060058594,-0.8125,0.30517578,-1.3427734,0.36621094,0.0,0.0,0.0,176.66016,35.425415,159.21936
1769245879039,-0.5913086,0.056152344,-0.81689453,0.36621094,-1.5869141,0.18310547,0.0,0.0,0.0,176.66016,35.425415,159.21936
1769245879050,-0.5913086,0.056152344,-0.81689453,0.36621094,-1.5869141,0.18310547,0.0,0.0,0.0,176.64368,35.601196,159.15344
1769245879139,-0.5932617,0.05517578,-0.81396484,0.30517578,-1.4648438,0.12207031,0.0,0.0,0.0,176.64368,35.601196,159.15344
1769245879150,-0.5932617,0.05517578,-0.81396484,0.30517578,-1.4648438,0.12207031,0.0,0.0,0.0,176.64368,35.738525,159.12598
1769245879238,-0.59228516,0.05810547,-0.80908203,0.30517578,-1.0986328,0.061035156,0.0,0.0,0.0,176.64368,35.738525,159.12598
1769245879250,-0.59228516,0.05810547,-0.80908203,0.30517578,-1.0986328,0.061035156,0.0,0.0,0.0,176.64917,35.837402,159.12048
1769245879338,-0.5942383,0.056152344,-0.8105469,0.18310547,-0.24414062,0.0,0.0,0.0,0.0,176.64917,35.837402,159.12048
1769245879349,-0.5942383,0.056152344,-0.8105469,0.18310547,-0.24414062,0.0,0.0,0.0,0.0,176.66565,35.892334,159.13147
1769245879438,-0.5942383,0.057617188,-0.8076172,0.30517578,-0.61035156,-0.18310547,0.0,0.0,0.0,176.66565,35.892334,159.13147
1769245879449,-0.5942383,0.057617188,-0.8076172,0.30517578,-0.61035156,-0.18310547,0.0,0.0,0.0,176.7096,35.947266,159.14795
1769245879537,-0.59521484,0.05517578,-0.81689453,0.7324219,0.24414062,0.0,0.0,0.0,0.0,176.7096,35.947266,159.14795
1769245879549,-0.59521484,0.05517578,-0.81689453,0.7324219,0.24414062,0.0,0.0,0.0,0.0,176.73157,35.93628,159.16992
1769245879637,-0.5883789,0.052734375,-0.8095703,0.5493164,1.8920898,0.0,0.0,0.0,0.0,176.73157,35.93628,159.16992
1769245879649,-0.5883789,0.052734375,-0.8095703,0.5493164,1.8920898,0.0,0.0,0.0,0.0,176.79199,35.79895,159.19739
1769245879737,-0.58740234,0.05859375,-0.81152344,-0.30517578,1.7700195,-0.30517578,0.0,0.0,0.0,176.79199,35.79895,159.19739
1769245879748,-0.58740234,0.05859375,-0.81152344,-0.30517578,1.7700195,-0.30517578,0.0,0.0,0.0,176.781,35.66162,159.23035
1769245879837,-0.5888672,0.05078125,-0.8125,0.12207031,0.9765625,0.061035156,0.0,0.0,0.0,176.781,35.66162,159.23035
1769245879848,-0.5888672,0.05078125,-0.8125,0.12207031,0.9765625,0.061035156,0.0,0.0,0.0,176.781,35.5188,159.25232
1769245879936,-0.5834961,0.051757812,-0.80859375,0.61035156,1.2817383,0.0,0.0,0.0,0.0,176.781,35.5188,159.25232
1769245879948,-0.5834961,0.051757812,-0.80859375,0.61035156,1.2817383,0.0,0.0,0.0,0.0,176.80847,35.45288,159.2633
1769245880036,-0.5864258,0.053710938,-0.81152344,0.30517578,0.48828125,-0.12207031,0.0,0.0,0.0,176.80847,35.45288,159.2633
1769245880048,-0.5864258,0.053710938,-0.81152344,0.30517578,0.48828125,-0.12207031,0.0,0.0,0.0,176.83044,35.425415,159.2633
1769245880136,-0.58251953,0.052246094,-0.8095703,0.18310547,0.061035156,-0.061035156,0.0,0.0,0.0,176.83044,35.425415,159.2633
1769245880148,-0.58251953,0.052246094,-0.8095703,0.18310547,0.061035156,-0.061035156,0.0,0.0,0.0,176.87988,35.39795,159.2688
1769245880235,-0.58251953,0.0546875,-0.8105469,0.061035156,-0.48828125,0.0,0.0,0.0,0.0,176.87988,35.39795,159.2688
1769245880247,-0.58251953,0.0546875,-0.8105469,0.061035156,-0.48828125,0.0,0.0,0.0,0.0,176.87988,35.403442,159.25781
1769245880335,-0.5864258,0.052734375,-0.8149414,0.061035156,-0.5493164,0.0,0.0,0.0,0.0,176.87988,35.403442,159.25781
1769245880347,-0.5864258,0.052734375,-0.8149414,0.061035156,-0.5493164,0.0,0.0,0.0,0.0,176.87988,35.463867,159.27429
1769245880435,-0.5854492,0.052734375,-0.80908203,0.061035156,-0.9765625,0.0,0.0,0.0,0.0,176.87988,35.463867,159.27429
1769245880446,-0.5854492,0.052734375,-0.80908203,0.061035156,-0.9765625,0.0,0.0,0.0,0.0,176.87988,35.50232,159.34021
1769245880535,-0.5859375,0.053710938,-0.80859375,0.12207031,-1.159668,0.0,0.0,0.0,0.0,176.87988,35.50232,159.34021
1769245880546,-0.5859375,0.053710938,-0.80859375,0.12207031,-1.159668,0.0,0.0,0.0,0.0,176.87439,35.601196,159.41162
1769245880634,-0.58935547,0.052734375,-0.80859375,0.12207031,-0.48828125,0.0,0.0,0.0,0.0,176.87439,35.601196,159.41162
1769245880646,-0.58935547,0.052734375,-0.80859375,0.12207031,-0.48828125,0.0,0.0,0.0,0.0,176.88538,35.722046,159.48303
1769245880734,-0.58984375,0.047851562,-0.8071289,0.5493164,-0.61035156,0.0,0.0,0.0,0.0,176.88538,35.722046,159.48303
1769245880746,-0.58984375,0.047851562,-0.8071289,0.5493164,-0.61035156,0.0,0.0,0.0,0.0,176.91833,35.837402,159.55444
1769245880834,-0.59033203,0.056152344,-0.8066406,-0.48828125,-1.159668,0.0,0.0,0.0,0.0,176.91833,35.837402,159.55444
1769245880845,-0.59033203,0.056152344,-0.8066406,-0.48828125,-1.159668,0.0,0.0,0.0,0.0,176.89636,35.96924,159.64233
1769245880934,-0.60009766,0.05126953,-0.8071289,0.24414062,-1.8310547,0.18310547,0.0,0.0,0.0,176.89636,35.96924,159.64233
1769245880945,-0.60009766,0.05126953,-0.8071289,0.24414062,-1.8310547,0.18310547,0.0,0.0,0.0,176.85242,36.134033,159.64233
1769245881033,-0.59765625,0.05078125,-0.80859375,0.36621094,-1.4038086,0.18310547,0.0,0.0,0.0,176.85242,36.134033,159.64233
1769245881045,-0.59765625,0.05078125,-0.80859375,0.36621094,-1.4038086,0.18310547,0.0,0.0,0.0,176.83044,36.342773,159.60388
1769245881133,-0.6040039,0.05517578,-0.8022461,0.24414062,-0.91552734,0.0,0.0,0.0,0.0,176.83044,36.342773,159.60388
1769245881144,-0.6040039,0.05517578,-0.8022461,0.24414062,-0.91552734,0.0,0.0,0.0,0.0,176.84692,36.447144,159.60388
1769245881233,-0.6010742,0.05126953,-0.8022461,0.4272461,-0.24414062,0.061035156,0.0,0.0,0.0,176.84692,36.447144,159.60388
1769245881244,-0.6010742,0.05126953,-0.8022461,0.4272461,-0.24414062,0.061035156,0.0,0.0,0.0,176.8634,36.52954,159.63135
1769245881332,-0.6044922,0.053222656,-0.80126953,0.30517578,-0.36621094,0.061035156,0.0,0.0,0.0,176.8634,36.52954,159.63135
1769245881344,-0.6044922,0.053222656,-0.80126953,0.30517578,-0.36621094,0.061035156,0.0,0.0,0.0,176.88538,36.573486,159.6753
1769245881432,-0.6035156,0.051757812,-0.80078125,0.5493164,-0.18310547,0.0,0.0,0.0,0.0,176.88538,36.573486,159.6753
1769245881444,-0.6035156,0.051757812,-0.80078125,0.5493164,-0.18310547,0.0,0.0,0.0,0.0,176.90186,36.59546,159.70825
1769245881532,-0.60253906,0.051757812,-0.80126953,0.18310547,-0.30517578,0.0,0.0,0.0,0.0,176.90186,36.59546,159.70825
1769245881543,-0.60253906,0.051757812,-0.80126953,0.18310547,-0.30517578,0.0,0.0,0.0,0.0,176.92383,36.622925,159.74121
1769245881632,-0.60498047,0.052246094,-0.7988281,0.18310547,0.12207031,0.0,0.0,0.0,0.0,176.92383,36.622925,159.74121
1769245881643,-0.60498047,0.052246094,-0.7988281,0.18310547,0.12207031,0.0,0.0,0.0,0.0,176.93481,36.628418,159.7522
1769245881731,-0.6069336,0.051757812,-0.80615234,0.5493164,-0.4272461,0.0,0.0,0.0,0.0,176.93481,36.628418,159.7522
1769245881743,-0.6069336,0.051757812,-0.80615234,0.5493164,-0.4272461,0.0,0.0,0.0,0.0,176.95679,36.66687,159.77966
1769245881831,-0.6020508,0.051757812,-0.7988281,0.8544922,0.36621094,0.0,0.0,0.0,0.0,176.95679,36.66687,159.77966
1769245881842,-0.6020508,0.051757812,-0.7988281,0.8544922,0.36621094,0.0,0.0,0.0,0.0,177.00623,36.622925,159.79065
1769245881931,-0.6040039,0.052734375,-0.8041992,-0.24414062,-0.5493164,0.0,0.0,0.0,0.0,177.00623,36.622925,159.79065
1769245881942,-0.6040039,0.052734375,-0.8041992,-0.24414062,-0.5493164,0.0,0.0,0.0,0.0,177.00073,36.655884,159.79614
1769245882030,-0.6035156,0.049804688,-0.7998047,0.061035156,-0.061035156,0.0,0.0,0.0,0.0,177.00073,36.655884,159.79614
1769245882042,-0.6035156,0.049804688,-0.7998047,0.061035156,-0.061035156,0.0,0.0,0.0,0.0,176.99524,36.677856,159.80713
1769245882130,-0.6040039,0.047851562,-0.8017578,0.12207031,-0.24414062,0.0,0.0,0.0,0.0,176.99524,36.677856,159.80713
1769245882142,-0.6040039,0.047851562,-0.8017578,0.12207031,-0.24414062,0.0,0.0,0.0,0.0,177.01721,36.71631,159.81262
1769245882230,-0.6069336,0.05078125,-0.80029297,-0.061035156,-0.30517578,0.0,0.0,0.0,0.0,177.01721,36.71631,159.81262
1769245882242,-0.6069336,0.05078125,-0.80029297,-0.061035156,-0.30517578,0.0,0.0,0.0,0.0,177.0227,36.749268,159.81812
1769245882330,-0.60498047,0.047851562,-0.7993164,0.30517578,0.0,0.0,0.0,0.0,0.0,177.0227,36.749268,159.81812
1769245882341,-0.60498047,0.047851562,-0.7993164,0.30517578,0.0,0.0,0.0,0.0,0.0,177.03918,36.765747,159.82361
1769245882429,-0.6069336,0.05078125,-0.80322266,0.4272461,0.36621094,0.0,0.0,0.0,0.0,177.03918,36.765747,159.82361
1769245882441,-0.6069336,0.05078125,-0.80322266,0.4272461,0.36621094,0.0,0.0,0.0,0.0,177.05017,36.760254,159.8346
1769245882529,-0.60498047,0.049316406,-0.7993164,0.24414062,0.61035156,0.0,0.0,0.0,0.0,177.05017,36.760254,159.8346
1769245882541,-0.60498047,0.049316406,-0.7993164,0.24414062,0.61035156,0.0,0.0,0.0,0.0,177.07214,36.710815,159.84558
1769245882629,-0.6044922,0.049316406,-0.80371094,0.48828125,0.9765625,0.0,0.0,0.0,0.0,177.07214,36.710815,159.84558
1769245882640,-0.6044922,0.049316406,-0.80371094,0.48828125,0.9765625,0.0,0.0,0.0,0.0,177.09961,36.644897,159.86755
1769245882729,-0.6015625,0.049316406,-0.8017578,0.30517578,1.5869141,0.0,0.0,0.0,0.0,177.09961,36.644897,159.86755
1769245882741,-0.6015625,0.049316406,-0.8017578,0.30517578,1.5869141,0.0,0.0,0.0,0.0,177.13257,36.485596,159.88953
1769245882828,-0.6010742,0.04736328,-0.8076172,0.18310547,1.7700195,0.0,0.0,0.0,0.0,177.13257,36.485596,159.88953
1769245882840,-0.6010742,0.04736328,-0.8076172,0.18310547,1.7700195,0.0,0.0,0.0,0.0,177.14355,36.331787,159.90051
1769245882928,-0.59277344,0.046875,-0.80566406,0.5493164,2.319336,0.0,0.0,0.0,0.0,177.14355,36.331787,159.90051
1769245882940,-0.59277344,0.046875,-0.80566406,0.5493164,2.319336,0.0,0.0,0.0,0.0,177.193,36.09558,159.906
1769245883028,-0.5913086,0.05078125,-0.8095703,0.0,2.0141602,0.0,0.0,0.0,0.0,177.193,36.09558,159.906
1769245883040,-0.5913086,0.05078125,-0.8095703,0.0,2.0141602,0.0,0.0,0.0,0.0,177.17651,35.908813,159.9115
1769245883127,-0.5917969,0.043945312,-0.81347656,0.0,2.1972656,0.0,0.0,0.0,0.0,177.17651,35.908813,159.9115
1769245883139,-0.5917969,0.043945312,-0.81347656,0.0,2.1972656,0.0,0.0,0.0,0.0,177.17651,35.733032,159.906
1769245883227,-0.58691406,0.045898438,-0.8144531,0.4272461,1.7089844,0.0,0.0,0.0,0.0,177.17651,35.733032,159.906
1769245883239,-0.58691406,0.045898438,-0.8144531,0.4272461,1.7089844,0.0,0.0,0.0,0.0,177.1875,35.551758,159.90051
1769245883327,-0.5878906,0.046875,-0.81640625,0.12207031,1.5258789,0.0,0.0,0.0,0.0,177.1875,35.551758,159.90051
1769245883339,-0.5878906,0.046875,-0.81640625,0.12207031,1.5258789,0.0,0.0,0.0,0.0,177.20947,35.4364,159.88953
1769245883427,-0.5805664,0.05078125,-0.8144531,0.36621094,2.0751953,0.0,0.0,0.0,0.0,177.20947,35.4364,159.88953
1769245883438,-0.5805664,0.05078125,-0.8144531,0.36621094,2.0751953,0.0,0.0,0.0,0.0,177.20947,35.21118,159.86755
1769245883526,-0.578125,0.047851562,-0.8125,-0.12207031,2.0141602,0.24414062,0.0,0.0,0.0,177.20947,35.21118,159.86755
1769245883538,-0.578125,0.047851562,-0.8125,-0.12207031,2.0141602,0.24414062,0.0,0.0,0.0,177.182,34.991455,159.79065
1769245883626,-0.5761719,0.04638672,-0.81933594,0.24414062,1.2207031,0.12207031,0.0,0.0,0.0,177.182,34.991455,159.79065
1769245883638,-0.5761719,0.04638672,-0.81933594,0.24414062,1.2207031,0.12207031,0.0,0.0,0.0,177.17102,34.865112,159.72473
1769245883726,-0.57714844,0.047851562,-0.8232422,0.24414062,1.7089844,0.0,0.0,0.0,0.0,177.17102,34.865112,159.72473
1769245883737,-0.57714844,0.047851562,-0.8232422,0.24414062,1.7089844,0.0,0.0,0.0,0.0,177.19849,34.75525,159.6753
1769245883825,-0.57128906,0.04736328,-0.81689453,0.0,0.8544922,0.0,0.0,0.0,0.0,177.19849,34.75525,159.6753
1769245883837,-0.57128906,0.04736328,-0.81689453,0.0,0.8544922,0.0,0.0,0.0,0.0,177.20947,34.61792,159.61487
1769245883925,-0.5722656,0.049804688,-0.8208008,0.061035156,-0.24414062,0.12207031,0.0,0.0,0.0,177.20947,34.61792,159.61487
1769245883937,-0.5722656,0.049804688,-0.8208008,0.061035156,-0.24414062,0.12207031,0.0,0.0,0.0,177.19849,34.606934,159.54895
1769245884025,-0.5722656,0.049316406,-0.8198242,0.18310547,-0.9765625,0.0,0.0,0.0,0.0,177.19849,34.606934,159.54895
1769245884036,-0.5722656,0.049316406,-0.8198242,0.18310547,-0.9765625,0.0,0.0,0.0,0.0,177.20398,34.656372,159.47754
1769245884125,-0.5751953,0.046875,-0.82373047,0.24414062,-0.18310547,0.0,0.0,0.0,0.0,177.20398,34.656372,159.47754
1769245884136,-0.5751953,0.046875,-0.82373047,0.24414062,-0.18310547,0.0,0.0,0.0,0.0,177.20947,34.73877,159.41162
1769245884224,-0.578125,0.049804688,-0.8183594,0.12207031,-1.159668,0.0,0.0,0.0,0.0,177.20947,34.73877,159.41162
1769245884236,-0.578125,0.049804688,-0.8183594,0.12207031,-1.159668,0.0,0.0,0.0,0.0,177.21497,34.815674,159.3512
1769245884324,-0.5751953,0.048339844,-0.8198242,0.12207031,-0.79345703,0.0,0.0,0.0,0.0,177.21497,34.815674,159.3512
1769245884336,-0.5751953,0.048339844,-0.8198242,0.12207031,-0.79345703,0.0,0.0,0.0,0.0,177.21497,34.89807,159.30176
1769245884424,-0.57666016,0.047851562,-0.8125,-0.24414062,-2.0141602,0.0,0.0,0.0,0.0,177.21497,34.89807,159.30176
1769245884435,-0.57666016,0.047851562,-0.8125,-0.24414062,-2.0141602,0.0,0.0,0.0,0.0,177.22046,35.024414,159.25232
1769245884524,-0.5810547,0.044921875,-0.8183594,0.48828125,-0.18310547,0.0,0.0,0.0,0.0,177.22046,35.024414,159.25232
1769245884535,-0.5810547,0.044921875,-0.8183594,0.48828125,-0.18310547,0.0,0.0,0.0,0.0,177.19849,35.15625,159.20837
1769245884623,-0.5942383,0.04736328,-0.8222656,-0.7324219,-1.5869141,0.0,0.0,0.0,0.0,177.19849,35.15625,159.20837
1769245884635,-0.5942383,0.04736328,-0.8222656,-0.7324219,-1.5869141,0.0,0.0,0.0,0.0,177.22595,35.194702,159.17542
1769245884723,-0.58154297,0.05126953,-0.8120117,-0.24414062,-1.8310547,0.6713867,0.0,0.0,0.0,177.22595,35.194702,159.17542
1769245884735,-0.58154297,0.05126953,-0.8120117,-0.24414062,-1.8310547,0.6713867,0.0,0.0,0.0,177.17651,35.24414,159.13696
1769245884823,-0.5864258,0.049804688,-0.81396484,0.18310547,-1.7089844,-0.061035156,0.0,0.0,0.0,177.17651,35.24414,159.13696
1769245884834,-0.5864258,0.049804688,-0.81396484,0.18310547,-1.7089844,-0.061035156,0.0,0.0,0.0,177.15454,35.41443,159.08203
1769245884922,-0.58691406,0.049804688,-0.8100586,-0.36621094,-1.8920898,0.18310547,0.0,0.0,0.0,177.15454,35.41443,159.08203
1769245884934,-0.58691406,0.049804688,-0.8100586,-0.36621094,-1.8920898,0.18310547,0.0,0.0,0.0,177.14355,35.579224,159.05457
1769245885022,-0.58740234,0.04638672,-0.80859375,0.36621094,-1.4038086,-0.061035156,0.0,0.0,0.0,177.14355,35.579224,159.05457
1769245885034,-0.58740234,0.04638672,-0.80859375,0.36621094,-1.4038086,-0.061035156,0.0,0.0,0.0,177.14355,35.71106,159.04358
1769245885122,-0.5913086,0.049316406,-0.8105469,0.30517578,-1.4648438,0.0,0.0,0.0,0.0,177.14355,35.71106,159.04358
1769245885133,-0.5913086,0.049316406,-0.8105469,0.30517578,-1.4648438,0.0,0.0,0.0,0.0,177.17102,35.84839,159.04358
1769245885222,-0.59277344,0.048339844,-0.8095703,0.24414062,-0.9765625,-0.061035156,0.0,0.0,0.0,177.17102,35.84839,159.04358
1769245885234,-0.59277344,0.048339844,-0.8095703,0.24414062,-0.9765625,-0.061035156,0.0,0.0,0.0,177.19849,35.97473,159.06006
1769245885321,-0.5942383,0.04638672,-0.80810547,0.18310547,-1.2817383,0.0,0.0,0.0,0.0,177.19849,35.97473,159.06006
1769245885334,-0.5942383,0.04638672,-0.80810547,0.18310547,-1.2817383,0.0,0.0,0.0,0.0,177.20947,36.07361,159.06555
1769245885421,-0.59814453,0.04736328,-0.8071289,0.30517578,-0.7324219,0.0,0.0,0.0,0.0,177.20947,36.07361,159.06555
1769245885433,-0.59814453,0.04736328,-0.8071289,0.30517578,-0.7324219,0.0,0.0,0.0,0.0,177.22595,36.1615,159.07104
1769245885521,-0.59716797,0.04736328,-0.8027344,-0.061035156,-1.8310547,0.0,0.0,0.0,0.0,177.22595,36.1615,159.07104
1769245885532,-0.59716797,0.04736328,-0.8027344,-0.061035156,-1.8310547,0.0,0.0,0.0,0.0,177.23694,36.260376,159.08752
1769245885620,-0.60009766,0.044921875,-0.80908203,0.9765625,-0.61035156,0.061035156,0.0,0.0,0.0,177.23694,36.260376,159.08752
1769245885632,-0.60009766,0.044921875,-0.80908203,0.9765625,-0.61035156,0.061035156,0.0,0.0,0.0,177.25891,36.38672,159.1095
1769245885720,-0.6069336,0.046875,-0.8017578,-0.7324219,-2.2583008,0.0,0.0,0.0,0.0,177.25891,36.38672,159.1095
1769245885732,-0.6069336,0.046875,-0.8017578,-0.7324219,-2.2583008,0.0,0.0,0.0,0.0,177.32483,36.44165,159.13147
1769245885820,-0.60009766,0.04638672,-0.8027344,0.24414062,-1.8310547,0.0,0.0,0.0,0.0,177.32483,36.44165,159.13147
1769245885831,-0.60009766,0.04638672,-0.8027344,0.24414062,-1.8310547,0.0,0.0,0.0,0.0,177.30286,36.600952,159.15894
1769245885920,-0.60839844,0.044921875,-0.7988281,0.36621094,-1.6479492,0.0,0.0,0.0,0.0,177.30286,36.600952,159.15894
1769245885931,-0.60839844,0.044921875,-0.7988281,0.36621094,-1.6479492,0.0,0.0,0.0,0.0,177.31384,36.760254,159.18091
1769245886019,-0.6040039,0.046875,-0.79589844,0.30517578,-0.9765625,-0.12207031,0.0,0.0,0.0,177.31384,36.760254,159.18091
1769245886031,-0.6040039,0.046875,-0.79589844,0.30517578,-0.9765625,-0.12207031,0.0,0.0,0.0,177.33582,36.886597,159.22485
1769245886119,-0.609375,0.045410156,-0.79541016,0.4272461,-0.7324219,-0.061035156,0.0,0.0,0.0,177.33582,36.886597,159.22485
1769245886131,-0.609375,0.045410156,-0.79541016,0.4272461,-0.7324219,-0.061035156,0.0,0.0,0.0,177.36328,36.968994,159.2688
1769245886219,-0.6098633,0.043945312,-0.79589844,0.24414062,-0.5493164,-0.061035156,0.0,0.0,0.0,177.36328,36.968994,159.2688
1769245886230,-0.6098633,0.043945312,-0.79589844,0.24414062,-0.5493164,-0.061035156,0.0,0.0,0.0,177.37976,37.0459,159.31274
1769245886318,-0.61035156,0.044921875,-0.79589844,0.12207031,-0.36621094,0.0,0.0,0.0,0.0,177.37976,37.0459,159.31274
1769245886330,-0.61035156,0.044921875,-0.79589844,0.12207031,-0.36621094,0.0,0.0,0.0,0.0,177.39075,37.08435,159.36218
1769245886418,-0.61083984,0.04296875,-0.79589844,0.18310547,0.0,0.0,0.0,0.0,0.0,177.39075,37.08435,159.36218
1769245886430,-0.61083984,0.04296875,-0.79589844,0.18310547,0.0,0.0,0.0,0.0,0.0,177.39624,37.10083,159.40063
1769245886518,-0.6113281,0.043945312,-0.79833984,-0.061035156,-0.061035156,0.0,0.0,0.0,0.0,177.39624,37.10083,159.40063
1769245886529,-0.6113281,0.043945312,-0.79833984,-0.061035156,-0.061035156,0.0,0.0,0.0,0.0,177.39624,37.106323,159.45007
1769245886618,-0.61035156,0.045410156,-0.79248047,-0.18310547,-0.061035156,0.0,0.0,0.0,0.0,177.39624,37.106323,159.45007
1769245886629,-0.61035156,0.045410156,-0.79248047,-0.18310547,-0.061035156,0.0,0.0,0.0,0.0,177.39624,37.095337,159.51599
1769245886717,-0.61035156,0.041015625,-0.80126953,0.12207031,0.0,0.0,0.0,0.0,0.0,177.39624,37.095337,159.51599
1769245886729,-0.61035156,0.041015625,-0.80126953,0.12207031,0.0,0.0,0.0,0.0,0.0,177.40173,37.073364,159.5929
1769245886817,-0.61279297,0.045410156,-0.7890625,-0.48828125,-1.0375977,0.0,0.0,0.0,0.0,177.40173,37.073364,159.5929
1769245886829,-0.61279297,0.045410156,-0.7890625,-0.48828125,-1.0375977,0.0,0.0,0.0,0.0,177.4347,37.06787,159.6643
1769245886917,-0.60839844,0.044433594,-0.7963867,-0.061035156,-0.24414062,0.0,0.0,0.0,0.0,177.4347,37.06787,159.6643
1769245886928,-0.60839844,0.044433594,-0.7963867,-0.061035156,-0.24414062,0.0,0.0,0.0,0.0,177.41272,37.128296,159.72473
1769245887017,-0.61376953,0.044433594,-0.7939453,-0.061035156,-0.61035156,0.0,0.0,0.0,0.0,177.41272,37.128296,159.72473
1769245887028,-0.61376953,0.044433594,-0.7939453,-0.061035156,-0.61035156,0.0,0.0,0.0,0.0,177.40173,37.15576,159.75769
1769245887116,-0.6123047,0.044921875,-0.7939453,0.061035156,-0.18310547,0.0,0.0,0.0,0.0,177.40173,37.15576,159.75769
1769245887128,-0.6123047,0.044921875,-0.7939453,0.061035156,-0.18310547,0.0,0.0,0.0,0.0,177.40173,37.183228,159.77966
1769245887216,-0.61328125,0.044433594,-0.80126953,0.12207031,0.48828125,0.0,0.0,0.0,0.0,177.40173,37.183228,159.77966
1769245887228,-0.61328125,0.044433594,-0.80126953,0.12207031,0.48828125,0.0,0.0,0.0,0.0,177.39075,37.177734,159.81262
1769245887316,-0.6123047,0.044433594,-0.79589844,0.18310547,1.0375977,0.0,0.0,0.0,0.0,177.39075,37.177734,159.81262
1769245887327,-0.6123047,0.044433594,-0.79589844,0.18310547,1.0375977,0.0,0.0,0.0,0.0,177.40173,37.089844,159.8346
1769245887415,-0.60839844,0.044921875,-0.7988281,0.061035156,1.5869141,0.0,0.0,0.0,0.0,177.40173,37.089844,159.8346
1769245887427,-0.60839844,0.044921875,-0.7988281,0.061035156,1.5869141,0.0,0.0,0.0,0.0,177.41272,36.9635,159.86206
1769245887515,-0.60839844,0.04296875,-0.7988281,0.0,1.7700195,0.0,0.0,0.0,0.0,177.41272,36.9635,159.86206
1769245887527,-0.60839844,0.04296875,-0.7988281,0.0,1.7700195,0.0,0.0,0.0,0.0,177.41272,36.82068,159.91699
1769245887615,-0.60498047,0.045410156,-0.80126953,0.0,1.8920898,0.0,0.0,0.0,0.0,177.41272,36.82068,159.91699
1769245887627,-0.60498047,0.045410156,-0.80126953,0.0,1.8920898,0.0,0.0,0.0,0.0,177.41272,36.661377,159.9939
1769245887715,-0.60009766,0.044921875,-0.79785156,-0.30517578,1.8310547,0.0,0.0,0.0,0.0,177.41272,36.661377,159.9939
1769245887727,-0.60009766,0.044921875,-0.79785156,-0.30517578,1.8310547,0.0,0.0,0.0,0.0,177.41272,36.45813,160.01038
1769245887814,-0.59814453,0.041503906,-0.8051758,0.061035156,1.8920898,0.0,0.0,0.0,0.0,177.41272,36.45813,160.01038
1769245887826,-0.59814453,0.041503906,-0.8051758,0.061035156,1.8920898,0.0,0.0,0.0,0.0,177.40173,36.30432,160.01038
1769245887914,-0.5996094,0.045410156,-0.7988281,-0.48828125,1.159668,0.0,0.0,0.0,0.0,177.40173,36.30432,160.01038
1769245887926,-0.5996094,0.045410156,-0.7988281,-0.48828125,1.159668,0.0,0.0,0.0,0.0,177.4237,36.134033,160.01038
1769245888014,-0.5913086,0.044433594,-0.8076172,-0.12207031,0.5493164,0.0,0.0,0.0,0.0,177.4237,36.134033,160.01038
1769245888025,-0.5913086,0.044433594,-0.8076172,-0.12207031,0.5493164,0.0,0.0,0.0,0.0,177.37976,36.051636,159.9939
1769245888114,-0.59472656,0.043945312,-0.8027344,0.0,-0.12207031,0.0,0.0,0.0,0.0,177.37976,36.051636,159.9939
1769245888125,-0.59472656,0.043945312,-0.8027344,0.0,-0.12207031,0.0,0.0,0.0,0.0,177.37427,36.002197,159.96643
1769245888213,-0.5932617,0.04736328,-0.8027344,-0.12207031,-0.48828125,0.0,0.0,0.0,0.0,177.37427,36.002197,159.96643
1769245888225,-0.5932617,0.04736328,-0.8027344,-0.12207031,-0.48828125,0.0,0.0,0.0,0.0,177.36877,36.051636,159.93896
1769245888313,-0.5932617,0.041503906,-0.80566406,0.61035156,-1.3427734,0.0,0.0,0.0,0.0,177.36877,36.051636,159.93896
1769245888324,-0.5932617,0.041503906,-0.80566406,0.61035156,-1.3427734,0.0,0.0,0.0,0.0,177.37427,36.134033,159.90051
1769245888413,-0.60058594,0.05029297,-0.81152344,0.48828125,-0.12207031,0.0,0.0,0.0,0.0,177.37427,36.134033,159.90051
1769245888424,-0.60058594,0.05029297,-0.81152344,0.48828125,-0.12207031,0.0,0.0,0.0,0.0,177.37976,36.23291,159.87305
1769245888512,-0.6044922,0.04638672,-0.7993164,0.0,-1.2817383,0.0,0.0,0.0,0.0,177.37976,36.23291,159.87305
1769245888525,-0.6044922,0.04638672,-0.7993164,0.0,-1.2817383,0.0,0.0,0.0,0.0,177.38525,36.315308,159.85107
1769245888612,-0.5991211,0.043945312,-0.80126953,0.061035156,-1.7089844,0.0,0.0,0.0,0.0,177.38525,36.315308,159.85107
1769245888624,-0.5991211,0.043945312,-0.80126953,0.061035156,-1.7089844,0.0,0.0,0.0,0.0,177.36328,36.480103,159.82361
1769245888712,-0.60498047,0.04736328,-0.79785156,0.36621094,-1.159668,0.0,0.0,0.0,0.0,177.36328,36.480103,159.82361
1769245888723,-0.60498047,0.04736328,-0.79785156,0.36621094,-1.159668,0.0,0.0,0.0,0.0,177.38525,36.606445,159.80164
1769245888812,-0.60546875,0.045898438,-0.80126953,0.12207031,-1.5869141,0.0,0.0,0.0,0.0,177.38525,36.606445,159.80164
1769245888823,-0.60546875,0.045898438,-0.80126953,0.12207031,-1.5869141,0.0,0.0,0.0,0.0,177.39075,36.727295,159.79614
1769245888911,-0.6074219,0.044921875,-0.79785156,0.18310547,-1.4038086,0.0,0.0,0.0,0.0,177.39075,36.727295,159.79614
1769245888923,-0.6074219,0.044921875,-0.79785156,0.18310547,-1.4038086,0.0,0.0,0.0,0.0,177.40173,36.853638,159.79614
1769245889011,-0.6098633,0.045898438,-0.796875,0.0,-1.4038086,0.0,0.0,0.0,0.0,177.40173,36.853638,159.79614
1769245889023,-0.6098633,0.045898438,-0.796875,0.0,-1.4038086,0.0,0.0,0.0,0.0,177.40173,36.985474,159.79614
1769245889111,-0.609375,0.043945312,-0.7973633,-0.18310547,-0.9765625,0.0,0.0,0.0,0.0,177.40173,36.985474,159.79614
1769245889122,-0.609375,0.043945312,-0.7973633,-0.18310547,-0.9765625,0.0,0.0,0.0,0.0,177.37427,37.11731,159.80164
1769245889211,-0.6088867,0.045410156,-0.7939453,0.18310547,-0.36621094,0.0,0.0,0.0,0.0,177.37427,37.11731,159.80164
1769245889222,-0.6088867,0.045410156,-0.7939453,0.18310547,-0.36621094,0.0,0.0,0.0,0.0,177.37976,37.15576,159.81262
1769245889310,-0.6113281,0.043945312,-0.7949219,0.48828125,0.24414062,0.0,0.0,0.0,0.0,177.37976,37.15576,159.81262
1769245889322,-0.6113281,0.043945312,-0.7949219,0.48828125,0.24414062,0.0,0.0,0.0,0.0,177.40173,37.17224,159.8291
1769245889410,-0.61328125,0.04345703,-0.7949219,0.36621094,-0.061035156,0.0,0.0,0.0,0.0,177.40173,37.17224,159.8291
1769245889422,-0.61328125,0.04345703,-0.7949219,0.36621094,-0.061035156,0.0,0.0,0.0,0.0,177.4347,37.177734,159.85657
1769245889510,-0.6142578,0.044433594,-0.79345703,0.61035156,-0.18310547,0.0,0.0,0.0,0.0,177.4347,37.177734,159.85657
1769245889522,-0.6142578,0.044433594,-0.79345703,0.61035156,-0.18310547,0.0,0.0,0.0,0.0,177.47314,37.2052,159.88403
1769245889610,-0.6147461,0.041503906,-0.8017578,-0.061035156,0.5493164,0.0,0.0,0.0,0.0,177.47314,37.2052,159.88403
1769245889621,-0.6147461,0.041503906,-0.8017578,-0.061035156,0.5493164,0.0,0.0,0.0,0.0,177.48413,37.26013,159.906
1769245889709,-0.609375,0.04345703,-0.78564453,-0.12207031,1.6479492,0.48828125,0.0,0.0,0.0,177.48413,37.26013,159.906
1769245889721,-0.609375,0.04345703,-0.78564453,-0.12207031,1.6479492,0.48828125,0.0,0.0,0.0,177.46765,37.166748,159.92249
1769245889809,-0.6118164,0.048339844,-0.7963867,-1.8310547,0.12207031,0.6713867,0.0,0.0,0.0,177.46765,37.166748,159.92249
1769245889821,-0.6118164,0.048339844,-0.7963867,-1.8310547,0.12207031,0.6713867,0.0,0.0,0.0,177.29736,37.15027,159.87854
1769245889909,-0.61376953,0.04736328,-0.79052734,-1.953125,0.4272461,0.7324219,0.0,0.0,0.0,177.29736,37.15027,159.87854
1769245889920,-0.61376953,0.04736328,-0.79052734,-1.953125,0.4272461,0.7324219,0.0,0.0,0.0,177.08862,37.122803,159.8291
1769245890008,-0.6152344,0.049316406,-0.8022461,-1.6479492,0.36621094,0.4272461,0.0,0.0,0.0,177.08862,37.122803,159.8291
1769245890020,-0.6152344,0.049316406,-0.8022461,-1.6479492,0.36621094,0.4272461,0.0,0.0,0.0,176.79199,37.15576,159.75769
1769245890108,-0.609375,0.057617188,-0.79345703,0.0,0.061035156,0.0,0.0,0.0,0.0,176.79199,37.15576,159.75769
1769245890120,-0.609375,0.057617188,-0.79345703,0.0,0.061035156,0.0,0.0,0.0,0.0,176.73157,37.106323,159.79065
1769245890208,-0.6142578,0.053710938,-0.79345703,0.24414062,0.7324219,-0.061035156,0.0,0.0,0.0,176.73157,37.106323,159.79065
1769245890219,-0.6142578,0.053710938,-0.79345703,0.24414062,0.7324219,-0.061035156,0.0,0.0,0.0,176.72607,37.089844,159.80164
1769245890308,-0.60546875,0.05517578,-0.7963867,0.48828125,-0.12207031,-0.24414062,0.0,0.0,0.0,176.72607,37.089844,159.80164
1769245890319,-0.60546875,0.05517578,-0.7963867,0.48828125,-0.12207031,-0.24414062,0.0,0.0,0.0,176.76453,37.095337,159.84558
1769245890407,-0.6123047,0.05078125,-0.7949219,-0.12207031,0.30517578,0.12207031,0.0,0.0,0.0,176.76453,37.095337,159.84558
1769245890419,-0.6123047,0.05078125,-0.7949219,-0.12207031,0.30517578,0.12207031,0.0,0.0,0.0,176.75354,37.078857,159.84558
1769245890508,-0.60839844,0.0546875,-0.79541016,0.0,0.061035156,0.0,0.0,0.0,0.0,176.75354,37.078857,159.84558
1769245890519,-0.60839844,0.0546875,-0.79541016,0.0,0.061035156,0.0,0.0,0.0,0.0,176.74805,37.062378,159.86206
1769245890607,-0.61279297,0.055664062,-0.7963867,-0.12207031,0.18310547,0.0,0.0,0.0,0.0,176.74805,37.062378,159.86206
1769245890618,-0.61279297,0.055664062,-0.7963867,-0.12207031,0.18310547,0.0,0.0,0.0,0.0,176.74255,37.05139,159.86755
1769245890707,-0.6069336,0.05419922,-0.7919922,0.0,0.18310547,0.0,0.0,0.0,0.0,176.74255,37.05139,159.86755
1769245890718,-0.6069336,0.05419922,-0.7919922,0.0,0.18310547,0.0,0.0,0.0,0.0,176.73157,37.018433,159.87305
1769245890806,-0.6123047,0.05078125,-0.8022461,0.48828125,1.2207031,-0.30517578,0.0,0.0,0.0,176.73157,37.018433,159.87305
1769245890818,-0.6123047,0.05078125,-0.8022461,0.48828125,1.2207031,-0.30517578,0.0,0.0,0.0,176.75903,36.968994,159.89502
1769245890906,-0.6069336,0.0546875,-0.7885742,-0.12207031,0.30517578,-0.061035156,0.0,0.0,0.0,176.75903,36.968994,159.89502
1769245890918,-0.6069336,0.0546875,-0.7885742,-0.12207031,0.30517578,-0.061035156,0.0,0.0,0.0,176.85242,36.853638,159.94446
1769245891006,-0.60546875,0.05517578,-0.8041992,0.061035156,1.6479492,-0.061035156,0.0,0.0,0.0,176.85242,36.853638,159.94446
1769245891017,-0.60546875,0.05517578,-0.8041992,0.061035156,1.6479492,-0.061035156,0.0,0.0,0.0,176.84692,36.760254,159.97742
1769245891106,-0.6044922,0.052246094,-0.796875,-0.061035156,1.4648438,0.061035156,0.0,0.0,0.0,176.84692,36.760254,159.97742
1769245891117,-0.6044922,0.052246094,-0.796875,-0.061035156,1.4648438,0.061035156,0.0,0.0,0.0,176.84143,36.57898,159.97192
1769245891205,-0.5986328,0.055664062,-0.79589844,0.0,1.5258789,0.0,0.0,0.0,0.0,176.84143,36.57898,159.97192
1769245891217,-0.5986328,0.055664062,-0.79589844,0.0,1.5258789,0.0,0.0,0.0,0.0,176.83594,36.436157,159.97192
1769245891305,-0.5986328,0.053222656,-0.80615234,0.12207031,2.0751953,0.0,0.0,0.0,0.0,176.83594,36.436157,159.97192
1769245891316,-0.5986328,0.053222656,-0.80615234,0.12207031,2.0751953,0.0,0.0,0.0,0.0,176.83594,36.271362,159.96643
1769245891405,-0.5957031,0.053222656,-0.80322266,-0.061035156,1.5258789,0.18310547,0.0,0.0,0.0,176.83594,36.271362,159.96643
1769245891416,-0.5957031,0.053222656,-0.80322266,-0.061035156,1.5258789,0.18310547,0.0,0.0,0.0,176.84692,36.090088,159.94446
1769245891504,-0.58984375,0.0546875,-0.80322266,0.12207031,1.953125,0.0,0.0,0.0,0.0,176.84692,36.090088,159.94446
1769245891516,-0.58984375,0.0546875,-0.80322266,0.12207031,1.953125,0.0,0.0,0.0,0.0,176.84143,35.908813,159.91699
1769245891604,-0.5932617,0.05419922,-0.8095703,-0.12207031,0.61035156,0.0,0.0,0.0,0.0,176.84143,35.908813,159.91699
1769245891616,-0.5932617,0.05419922,-0.8095703,-0.12207031,0.61035156,0.0,0.0,0.0,0.0,176.84143,35.809937,159.89502
1769245891704,-0.5878906,0.05419922,-0.81103516,-0.061035156,1.2817383,0.0,0.0,0.0,0.0,176.84143,35.809937,159.89502
1769245891716,-0.5878906,0.05419922,-0.81103516,-0.061035156,1.2817383,0.0,0.0,0.0,0.0,176.82495,35.71106,159.87305
1769245891804,-0.5878906,0.056152344,-0.80566406,0.0,0.30517578,0.0,0.0,0.0,0.0,176.82495,35.71106,159.87305
1769245891815,-0.5878906,0.056152344,-0.80566406,0.0,0.30517578,0.0,0.0,0.0,0.0,176.81946,35.650635,159.8291
1769245891903,-0.5854492,0.0546875,-0.80908203,0.18310547,1.3427734,0.0,0.0,0.0,0.0,176.81946,35.650635,159.8291
1769245891915,-0.5854492,0.0546875,-0.80908203,0.18310547,1.3427734,0.0,0.0,0.0,0.0,176.80298,35.617676,159.79065
1769245892003,-0.58740234,0.052246094,-0.8022461,-0.24414062,0.8544922,0.0,0.0,0.0,0.0,176.80298,35.617676,159.79065
1769245892015,-0.58740234,0.052246094,-0.8022461,-0.24414062,0.8544922,0.0,0.0,0.0,0.0,176.81946,35.551758,159.74121
1769245892103,-0.5800781,0.057617188,-0.8041992,-0.12207031,0.18310547,0.24414062,0.0,0.0,0.0,176.81946,35.551758,159.74121
1769245892114,-0.5800781,0.057617188,-0.8041992,-0.12207031,0.18310547,0.24414062,0.0,0.0,0.0,176.77551,35.524292,159.73572
1769245892203,-0.58984375,0.053710938,-0.8149414,0.18310547,0.061035156,0.0,0.0,0.0,0.0,176.77551,35.524292,159.73572
1769245892214,-0.58984375,0.053710938,-0.8149414,0.18310547,0.061035156,0.0,0.0,0.0,0.0,176.74805,35.546265,159.75769
1769245892302,-0.58203125,0.056152344,-0.8041992,0.12207031,0.30517578,0.0,0.0,0.0,0.0,176.74805,35.546265,159.75769
1769245892314,-0.58203125,0.056152344,-0.8041992,0.12207031,0.30517578,0.0,0.0,0.0,0.0,176.75903,35.507812,159.70276
1769245892402,-0.5854492,0.056640625,-0.81152344,0.18310547,0.5493164,0.12207031,0.0,0.0,0.0,176.75903,35.507812,159.70276
1769245892413,-0.5854492,0.056640625,-0.81152344,0.18310547,0.5493164,0.12207031,0.0,0.0,0.0,176.75354,35.480347,159.62585
1769245892502,-0.58496094,0.05517578,-0.8120117,0.18310547,0.5493164,0.0,0.0,0.0,0.0,176.75354,35.480347,159.62585
1769245892513,-0.58496094,0.05517578,-0.8120117,0.18310547,0.5493164,0.0,0.0,0.0,0.0,176.75354,35.4364,159.58191
1769245892602,-0.58447266,0.055664062,-0.8173828,0.0,1.0986328,0.061035156,0.0,0.0,0.0,176.75354,35.4364,159.58191
1769245892613,-0.58447266,0.055664062,-0.8173828,0.0,1.0986328,0.061035156,0.0,0.0,0.0,176.74805,35.36499,159.54895
1769245892701,-0.58251953,0.0546875,-0.8173828,0.061035156,0.91552734,0.0,0.0,0.0,0.0,176.74805,35.36499,159.54895
1769245892713,-0.58251953,0.0546875,-0.8173828,0.061035156,0.91552734,0.0,0.0,0.0,0.0,176.74805,35.271606,159.47754
1769245892801,-0.58251953,0.055664062,-0.8154297,0.12207031,0.4272461,0.0,0.0,0.0,0.0,176.74805,35.271606,159.47754
1769245892812,-0.58251953,0.055664062,-0.8154297,0.12207031,0.4272461,0.0,0.0,0.0,0.0,176.74805,35.20569,159.41162
1769245892901,-0.57910156,0.057617188,-0.8120117,0.30517578,0.48828125,0.0,0.0,0.0,0.0,176.74805,35.20569,159.41162
1769245892912,-0.57910156,0.057617188,-0.8120117,0.30517578,0.48828125,0.0,0.0,0.0,0.0,176.76453,35.161743,159.32373
1769245893000,-0.5805664,0.056640625,-0.81689453,0.48828125,1.0986328,0.0,0.0,0.0,0.0,176.76453,35.161743,159.32373
1769245893012,-0.5805664,0.056640625,-0.81689453,0.48828125,1.0986328,0.0,0.0,0.0,0.0,176.76453,35.145264,159.27979
1769245893100,-0.57910156,0.053222656,-0.8076172,-0.30517578,-0.30517578,0.0,0.0,0.0,0.0,176.76453,35.145264,159.27979
1769245893111,-0.57910156,0.053222656,-0.8076172,-0.30517578,-0.30517578,0.0,0.0,0.0,0.0,176.80847,35.12329,159.27979
1769245893200,-0.5756836,0.056152344,-0.81689453,0.0,-0.24414062,0.0,0.0,0.0,0.0,176.80847,35.12329,159.27979
1769245893211,-0.5756836,0.056152344,-0.81689453,0.0,-0.24414062,0.0,0.0,0.0,0.0,176.7865,35.13977,159.24133
1769245893300,-0.5854492,0.051757812,-0.8178711,0.18310547,-0.36621094,0.0,0.0,0.0,0.0,176.7865,35.13977,159.24133
1769245893311,-0.5854492,0.051757812,-0.8178711,0.18310547,-0.36621094,0.0,0.0,0.0,0.0,176.77551,35.167236,159.18091
1769245893399,-0.57666016,0.0546875,-0.8105469,0.24414062,-0.8544922,0.0,0.0,0.0,0.0,176.77551,35.167236,159.18091
1769245893411,-0.57666016,0.0546875,-0.8105469,0.24414062,-0.8544922,0.0,0.0,0.0,0.0,176.781,35.24414,159.09302
1769245893499,-0.58203125,0.057128906,-0.80810547,0.12207031,-0.30517578,0.0,0.0,0.0,0.0,176.781,35.24414,159.09302
1769245893511,-0.58203125,0.057128906,-0.80810547,0.12207031,-0.30517578,0.0,0.0,0.0,0.0,176.781,35.288086,158.99963
1769245893599,-0.5830078,0.055664062,-0.81152344,0.24414062,-0.8544922,0.0,0.0,0.0,0.0,176.781,35.288086,158.99963
1769245893610,-0.5830078,0.055664062,-0.81152344,0.24414062,-0.8544922,0.0,0.0,0.0,0.0,176.7865,35.392456,158.93921
1769245893698,-0.58740234,0.05419922,-0.81591797,0.30517578,-1.6479492,0.0,0.0,0.0,0.0,176.7865,35.392456,158.93921
1769245893710,-0.58740234,0.05419922,-0.81591797,0.30517578,-1.6479492,0.0,0.0,0.0,0.0,176.7865,35.513306,158.87878
1769245893798,-0.5878906,0.05517578,-0.8105469,0.30517578,-0.61035156,0.0,0.0,0.0,0.0,176.7865,35.513306,158.87878
1769245893810,-0.5878906,0.05517578,-0.8105469,0.30517578,-0.61035156,0.0,0.0,0.0,0.0,176.81396,35.617676,158.81287
1769245893898,-0.5908203,0.05419922,-0.8100586,0.18310547,-2.1972656,0.0,0.0,0.0,0.0,176.81396,35.617676,158.81287
1769245893909,-0.5908203,0.05419922,-0.8100586,0.18310547,-2.1972656,0.0,0.0,0.0,0.0,176.82495,35.755005,158.73047
1769245893998,-0.58984375,0.053710938,-0.8066406,0.24414062,-0.61035156,0.0,0.0,0.0,0.0,176.82495,35.755005,158.73047
1769245894009,-0.58984375,0.053710938,-0.8066406,0.24414062,-0.61035156,0.0,0.0,0.0,0.0,176.81946,35.859375,158.69202
1769245894097,-0.5942383,0.05419922,-0.81103516,0.061035156,-2.6245117,0.0,0.0,0.0,0.0,176.81946,35.859375,158.69202
1769245894109,-0.5942383,0.05419922,-0.81103516,0.061035156,-2.6245117,0.0,0.0,0.0,0.0,176.81946,36.02417,158.68652
1769245894197,-0.5957031,0.052734375,-0.8066406,0.8544922,-1.2207031,0.0,0.0,0.0,0.0,176.81946,36.02417,158.68652
1769245894209,-0.5957031,0.052734375,-0.8066406,0.8544922,-1.2207031,0.0,0.0,0.0,0.0,176.84143,36.166992,158.69751
1769245894297,-0.6035156,0.053710938,-0.81152344,-0.12207031,-2.9296875,0.0,0.0,0.0,0.0,176.84143,36.166992,158.69751
1769245894308,-0.6035156,0.053710938,-0.81152344,-0.12207031,-2.9296875,0.0,0.0,0.0,0.0,176.84692,36.33728,158.71948
1769245894397,-0.60009766,0.05126953,-0.8017578,0.0,-2.8076172,0.0,0.0,0.0,0.0,176.84692,36.33728,158.71948
1769245894408,-0.60009766,0.05126953,-0.8017578,0.0,-2.8076172,0.0,0.0,0.0,0.0,176.85791,36.5625,158.73596
1769245894497,-0.6088867,0.05126953,-0.80029297,0.0,-2.8686523,-0.30517578,0.0,0.0,0.0,176.85791,36.5625,158.73596
1769245894508,-0.6088867,0.05126953,-0.80029297,0.0,-2.8686523,-0.30517578,0.0,0.0,0.0,176.8634,36.809692,158.77441
1769245894597,-0.6098633,0.052734375,-0.79833984,0.061035156,-2.2583008,-0.12207031,0.0,0.0,0.0,176.8634,36.809692,158.77441
1769245894609,-0.6098633,0.052734375,-0.79833984,0.061035156,-2.2583008,-0.12207031,0.0,0.0,0.0,176.89087,37.018433,158.83484
1769245894696,-0.6113281,0.05078125,-0.796875,0.36621094,-1.159668,-0.12207031,0.0,0.0,0.0,176.89087,37.018433,158.83484
1769245894707,-0.6113281,0.05078125,-0.796875,0.36621094,-1.159668,-0.12207031,0.0,0.0,0.0,176.91833,37.166748,158.87329
1769245894795,-0.61572266,0.052246094,-0.80078125,0.30517578,0.5493164,-0.061035156,0.0,0.0,0.0,176.91833,37.166748,158.87329
1769245894807,-0.61572266,0.052246094,-0.80078125,0.30517578,0.5493164,-0.061035156,0.0,0.0,0.0,176.9513,37.18872,158.93372
1769245894895,-0.61083984,0.05029297,-0.80078125,0.5493164,3.9672852,-0.12207031,0.0,0.0,0.0,176.9513,37.18872,158.93372
1769245894907,-0.61083984,0.05029297,-0.80078125,0.5493164,3.9672852,-0.12207031,0.0,0.0,0.0,176.98975,36.94702,159.01062
1769245894995,-0.60595703,0.049316406,-0.8022461,0.4272461,3.8452148,-0.061035156,0.0,0.0,0.0,176.98975,36.94702,159.01062
1769245895006,-0.60595703,0.049316406,-0.8022461,0.4272461,3.8452148,-0.061035156,0.0,0.0,0.0,177.03369,36.584473,159.09302
1769245895095,-0.6113281,0.0546875,-0.83740234,-0.061035156,6.591797,-0.7324219,0.0,0.0,0.0,177.03369,36.584473,159.09302
1769245895106,-0.6113281,0.0546875,-0.83740234,-0.061035156,6.591797,-0.7324219,0.0,0.0,0.0,177.07214,36.051636,159.1864
1769245895194,-0.58447266,0.052246094,-0.7705078,0.0,2.380371,-0.4272461,0.0,0.0,0.0,177.07214,36.051636,159.1864
1769245895206,-0.58447266,0.052246094,-0.7705078,0.0,2.380371,-0.4272461,0.0,0.0,0.0,177.1875,35.403442,159.3512
1769245895294,-0.57714844,0.041503906,-0.7944336,-3.90625,-10.192871,0.0,0.0,0.0,0.0,177.1875,35.403442,159.3512
1769245895306,-0.57714844,0.041503906,-0.7944336,-3.90625,-10.192871,0.0,0.0,0.0,0.0,177.1051,35.722046,159.4336
1769245895394,-0.5786133,0.05029297,-0.8100586,-2.2583008,2.8686523,1.2817383,0.0,0.0,0.0,177.1051,35.722046,159.4336
1769245895405,-0.5786133,0.05029297,-0.8100586,-2.2583008,2.8686523,1.2817383,0.0,0.0,0.0,176.9458,35.93628,159.3512
1769245895494,-0.61279297,0.06982422,-0.81689453,-1.159668,0.5493164,-0.18310547,0.0,0.0,0.0,176.9458,35.93628,159.3512
1769245895505,-0.61279297,0.06982422,-0.81689453,-1.159668,0.5493164,-0.18310547,0.0,0.0,0.0,176.6217,35.85388,159.32373
1769245895594,-0.58984375,0.055664062,-0.81396484,-1.953125,-0.061035156,-0.36621094,0.0,0.0,0.0,176.6217,35.85388,159.32373
1769245895605,-0.58984375,0.055664062,-0.81396484,-1.953125,-0.061035156,-0.36621094,0.0,0.0,0.0,176.45691,35.875854,159.29626
1769245895693,-0.59375,0.0625,-0.82177734,-1.8310547,1.8310547,0.36621094,0.0,0.0,0.0,176.45691,35.875854,159.29626
1769245895705,-0.59375,0.0625,-0.82177734,-1.8310547,1.8310547,0.36621094,0.0,0.0,0.0,176.26465,35.81543,159.2633
1769245895793,-0.5722656,0.06298828,-0.79541016,0.0,0.30517578,0.0,0.0,0.0,0.0,176.26465,35.81543,159.2633
1769245895804,-0.5722656,0.06298828,-0.79541016,0.0,0.30517578,0.0,0.0,0.0,0.0,176.25916,35.529785,159.27429
1769245895892,-0.59814453,0.056640625,-0.7949219,1.8920898,-1.953125,0.0,0.0,0.0,0.0,176.25916,35.529785,159.27429
1769245895904,-0.59814453,0.056640625,-0.7949219,1.8920898,-1.953125,0.0,0.0,0.0,0.0,176.44043,35.667114,159.24133
1769245895992,-0.5571289,0.053222656,-0.7885742,0.30517578,2.5634766,-0.79345703,0.0,0.0,0.0,176.44043,35.667114,159.24133
1769245896004,-0.5571289,0.053222656,-0.7885742,0.30517578,2.5634766,-0.79345703,0.0,0.0,0.0,176.55579,35.62317,159.3512
1769245896092,-0.59228516,0.048339844,-0.8100586,0.4272461,-0.30517578,-0.5493164,0.0,0.0,0.0,176.55579,35.62317,159.3512
1769245896103,-0.59228516,0.048339844,-0.8100586,0.4272461,-0.30517578,-0.5493164,0.0,0.0,0.0,176.58875,35.551758,159.36218
1769245896192,-0.62939453,0.072753906,-0.8261719,-0.91552734,5.432129,0.061035156,0.0,0.0,0.0,176.58875,35.551758,159.36218
1769245896203,-0.62939453,0.072753906,-0.8261719,-0.91552734,5.432129,0.061035156,0.0,0.0,0.0,176.5448,35.255127,159.39514
1769245896291,-0.50634766,0.044921875,-0.82470703,-0.5493164,1.5258789,0.30517578,0.0,0.0,0.0,176.5448,35.255127,159.39514
1769245896303,-0.50634766,0.044921875,-0.82470703,-0.5493164,1.5258789,0.30517578,0.0,0.0,0.0,176.47339,34.716797,159.40063
1769245896391,-0.62646484,0.057128906,-0.83935547,0.6713867,-1.2817383,1.2817383,0.0,0.0,0.0,176.47339,34.716797,159.40063
1769245896403,-0.62646484,0.057128906,-0.83935547,0.6713867,-1.2817383,1.2817383,0.0,0.0,0.0,176.48987,34.89258,159.20288
1769245896491,-0.59521484,0.07373047,-0.80078125,2.5024414,-3.8452148,0.0,0.0,0.0,0.0,176.48987,34.89258,159.20288
1769245896503,-0.59521484,0.07373047,-0.80078125,2.5024414,-3.8452148,0.0,0.0,0.0,0.0,176.53381,35.08484,159.11499
1769245896591,-0.53271484,0.041992188,-0.81640625,0.36621094,1.5869141,-0.12207031,0.0,0.0,0.0,176.53381,35.08484,159.11499
1769245896602,-0.53271484,0.041992188,-0.81640625,0.36621094,1.5869141,-0.12207031,0.0,0.0,0.0,176.69861,35.255127,159.15894
1769245896690,-0.6357422,0.063964844,-0.81347656,0.061035156,0.61035156,-0.30517578,0.0,0.0,0.0,176.69861,35.255127,159.15894
1769245896702,-0.6357422,0.063964844,-0.81347656,0.061035156,0.61035156,-0.30517578,0.0,0.0,0.0,176.7041,35.18921,159.08203
1769245896790,-0.5449219,0.04736328,-0.8041992,0.9765625,-0.48828125,0.24414062,0.0,0.0,0.0,176.7041,35.18921,159.08203
