timestamp,accX,accY,accZ,gyroX,gyroY,gyroZ,magX,magY,magZ,roll,pitch,yaw
1766498638732,-0.8823242,-0.41015625,0.234375,0.0,-0.12207031,-0.18310547,0.0,0.0,0.0,-60.671997,61.292725,-28.701782
1766498638743,-0.8823242,-0.41015625,0.234375,0.0,-0.12207031,-0.18310547,0.0,0.0,0.0,-60.595093,61.28723,-28.723755
1766498638832,-0.87890625,-0.41845703,0.23388672,0.48828125,-0.48828125,-0.30517578,0.0,0.0,0.0,-60.595093,61.28723,-28.723755
1766498638843,-0.87890625,-0.41845703,0.23388672,0.48828125,-0.48828125,-0.30517578,0.0,0.0,0.0,-60.490723,61.259766,-28.87207
1766498638931,-0.8833008,-0.41748047,0.22753906,1.0375977,-1.0375977,0.24414062,0.0,0.0,0.0,-60.490723,61.259766,-28.87207
1766498638943,-0.8833008,-0.41748047,0.22753906,1.0375977,-1.0375977,0.24414062,0.0,0.0,0.0,-60.166626,61.21582,-28.745728
1766498639031,-0.8779297,-0.4165039,0.23242188,1.4038086,-0.061035156,-0.18310547,0.0,0.0,0.0,-60.166626,61.21582,-28.745728
1766498639043,-0.8779297,-0.4165039,0.23242188,1.4038086,-0.061035156,-0.18310547,0.0,0.0,0.0,-60.05127,61.210327,-28.937988
1766498639131,-0.875,-0.41455078,0.23535156,0.61035156,-1.0986328,0.30517578,0.0,0.0,0.0,-60.05127,61.210327,-28.937988
1766498639147,-0.875,-0.41455078,0.23535156,0.61035156,-1.0986328,0.30517578,0.0,0.0,0.0,-59.88098,61.18286,-29.014893
1766498639230,-0.87841797,-0.4140625,0.23583984,1.0375977,-0.30517578,0.36621094,0.0,0.0,0.0,-59.88098,61.18286,-29.014893
1766498639242,-0.87841797,-0.4140625,0.23583984,1.0375977,-0.30517578,0.36621094,0.0,0.0,0.0,-59.694214,61.188354,-28.981934
1766498639330,-0.87646484,-0.41308594,0.23779297,0.5493164,-0.6713867,0.30517578,0.0,0.0,0.0,-59.694214,61.188354,-28.981934
1766498639342,-0.87646484,-0.41308594,0.23779297,0.5493164,-0.6713867,0.30517578,0.0,0.0,0.0,-59.534912,61.188354,-29.014893
1766498639430,-0.8769531,-0.4140625,0.24072266,0.24414062,-0.79345703,0.4272461,0.0,0.0,0.0,-59.534912,61.188354,-29.014893
1766498639441,-0.8769531,-0.4140625,0.24072266,0.24414062,-0.79345703,0.4272461,0.0,0.0,0.0,-59.37561,61.18286,-29.0094
1766498639530,-0.8754883,-0.4111328,0.24511719,0.36621094,-0.30517578,0.48828125,0.0,0.0,0.0,-59.37561,61.18286,-29.0094
1766498639541,-0.8754883,-0.4111328,0.24511719,0.36621094,-0.30517578,0.48828125,0.0,0.0,0.0,-59.227295,61.188354,-28.95996
1766498639629,-0.87890625,-0.4111328,0.24316406,0.30517578,-0.18310547,0.4272461,0.0,0.0,0.0,-59.227295,61.188354,-28.95996
1766498639641,-0.87890625,-0.4111328,0.24316406,0.30517578,-0.18310547,0.4272461,0.0,0.0,0.0,-59.09546,61.204834,-28.88855
1766498639729,-0.87890625,-0.4111328,0.24707031,-0.9765625,-1.6479492,0.61035156,0.0,0.0,0.0,-59.09546,61.204834,-28.88855
1766498639741,-0.87890625,-0.4111328,0.24707031,-0.9765625,-1.6479492,0.61035156,0.0,0.0,0.0,-58.963623,61.18286,-28.80066
1766498639829,-0.8725586,-0.41015625,0.24902344,-0.5493164,-0.36621094,0.0,0.0,0.0,0.0,-58.963623,61.18286,-28.80066
1766498639840,-0.8725586,-0.41015625,0.24902344,-0.5493164,-0.36621094,0.0,0.0,0.0,0.0,-58.95813,61.19934,-28.844604
1766498639928,-0.8769531,-0.41308594,0.24169922,-0.12207031,-0.48828125,0.12207031,0.0,0.0,0.0,-58.95813,61.19934,-28.844604
1766498639940,-0.8769531,-0.41308594,0.24169922,-0.12207031,-0.48828125,0.12207031,0.0,0.0,0.0,-58.88672,61.188354,-28.822632
1766498640028,-0.87841797,-0.41015625,0.24658203,0.061035156,-0.6713867,0.12207031,0.0,0.0,0.0,-58.88672,61.188354,-28.822632
1766498640040,-0.87841797,-0.41015625,0.24658203,0.061035156,-0.6713867,0.12207031,0.0,0.0,0.0,-58.831787,61.16638,-28.817139
1766498640128,-0.8769531,-0.40966797,0.24804688,0.061035156,0.0,-0.061035156,0.0,0.0,0.0,-58.831787,61.16638,-28.817139
1766498640139,-0.8769531,-0.40966797,0.24804688,0.061035156,0.0,-0.061035156,0.0,0.0,0.0,-58.760376,61.155396,-28.806152
1766498640228,-0.87353516,-0.4111328,0.2446289,-0.4272461,-0.61035156,0.0,0.0,0.0,0.0,-58.760376,61.155396,-28.806152
1766498640239,-0.87353516,-0.4111328,0.2446289,-0.4272461,-0.61035156,0.0,0.0,0.0,0.0,-58.705444,61.133423,-28.811646
1766498640328,-0.8754883,-0.41064453,0.2475586,-0.061035156,-0.5493164,0.0,0.0,0.0,0.0,-58.705444,61.133423,-28.811646
1766498640339,-0.8754883,-0.41064453,0.2475586,-0.061035156,-0.5493164,0.0,0.0,0.0,0.0,-58.634033,61.105957,-28.811646
1766498640427,-0.87597656,-0.41064453,0.24853516,0.0,-0.7324219,0.0,0.0,0.0,0.0,-58.634033,61.105957,-28.811646
1766498640439,-0.87597656,-0.41064453,0.24853516,0.0,-0.7324219,0.0,0.0,0.0,0.0,-58.496704,61.06201,-28.745728
1766498640527,-0.8730469,-0.41210938,0.25195312,-0.6713867,-0.18310547,0.0,0.0,0.0,0.0,-58.496704,61.06201,-28.745728
1766498640538,-0.8730469,-0.41210938,0.25195312,-0.6713867,-0.18310547,0.0,0.0,0.0,0.0,-58.47473,61.045532,-28.773193
1766498640626,-0.8779297,-0.41210938,0.24316406,-0.79345703,0.0,0.0,0.0,0.0,0.0,-58.47473,61.045532,-28.773193
1766498640638,-0.8779297,-0.41210938,0.24316406,-0.79345703,0.0,0.0,0.0,0.0,0.0,-58.45276,61.00708,-28.701782
1766498640726,-0.87890625,-0.41308594,0.24414062,0.36621094,0.8544922,-0.12207031,0.0,0.0,0.0,-58.45276,61.00708,-28.701782
1766498640738,-0.87890625,-0.41308594,0.24414062,0.36621094,0.8544922,-0.12207031,0.0,0.0,0.0,-58.562622,61.02356,-28.88855
1766498640826,-0.8769531,-0.41015625,0.24951172,0.12207031,0.0,-0.061035156,0.0,0.0,0.0,-58.562622,61.02356,-28.88855
1766498640837,-0.8769531,-0.41015625,0.24951172,0.12207031,0.0,-0.061035156,0.0,0.0,0.0,-58.61206,61.045532,-28.987427
1766498640925,-0.87890625,-0.41308594,0.2421875,0.061035156,0.30517578,-0.061035156,0.0,0.0,0.0,-58.61206,61.045532,-28.987427
1766498640937,-0.87890625,-0.41308594,0.2421875,0.061035156,0.30517578,-0.061035156,0.0,0.0,0.0,-58.606567,61.051025,-29.031372
1766498641025,-0.8745117,-0.41259766,0.24804688,0.7324219,0.61035156,-0.48828125,0.0,0.0,0.0,-58.606567,61.051025,-29.031372
1766498641037,-0.8745117,-0.41259766,0.24804688,0.7324219,0.61035156,-0.48828125,0.0,0.0,0.0,-58.710938,61.045532,-29.223633
1766498641125,-0.87597656,-0.41455078,0.24853516,0.36621094,0.30517578,-0.30517578,0.0,0.0,0.0,-58.710938,61.045532,-29.223633
1766498641137,-0.87597656,-0.41455078,0.24853516,0.36621094,0.30517578,-0.30517578,0.0,0.0,0.0,-58.754883,61.02356,-29.371948
1766498641225,-0.8754883,-0.41064453,0.24853516,0.061035156,0.061035156,0.0,0.0,0.0,0.0,-58.754883,61.02356,-29.371948
1766498641236,-0.8754883,-0.41064453,0.24853516,0.061035156,0.061035156,0.0,0.0,0.0,0.0,-58.776855,61.018066,-29.437866
1766498641324,-0.8774414,-0.4140625,0.24951172,0.0,0.79345703,0.0,0.0,0.0,0.0,-58.776855,61.018066,-29.437866
1766498641336,-0.8774414,-0.4140625,0.24951172,0.0,0.79345703,0.0,0.0,0.0,0.0,-58.8208,61.04004,-29.54773
1766498641424,-0.8774414,-0.41503906,0.24707031,-0.12207031,0.18310547,-0.061035156,0.0,0.0,0.0,-58.8208,61.04004,-29.54773
1766498641436,-0.8774414,-0.41503906,0.24707031,-0.12207031,0.18310547,-0.061035156,0.0,0.0,0.0,-58.92517,61.06201,-29.718018
1766498641524,-0.875,-0.41259766,0.24951172,0.5493164,0.79345703,-0.4272461,0.0,0.0,0.0,-58.92517,61.06201,-29.718018
1766498641535,-0.875,-0.41259766,0.24951172,0.5493164,0.79345703,-0.4272461,0.0,0.0,0.0,-58.952637,61.05652,-29.761963
1766498641624,-0.87597656,-0.41357422,0.24365234,-0.12207031,0.30517578,-0.061035156,0.0,0.0,0.0,-58.952637,61.05652,-29.761963
1766498641635,-0.87597656,-0.41357422,0.24365234,-0.12207031,0.30517578,-0.061035156,0.0,0.0,0.0,-59.00757,61.06201,-29.888306
1766498641723,-0.8769531,-0.41210938,0.24707031,-0.18310547,-0.36621094,0.18310547,0.0,0.0,0.0,-59.00757,61.06201,-29.888306
1766498641735,-0.8769531,-0.41210938,0.24707031,-0.18310547,-0.36621094,0.18310547,0.0,0.0,0.0,-59.00757,61.067505,-29.87732
1766498641823,-0.87597656,-0.4140625,0.24121094,0.30517578,0.48828125,-0.24414062,0.0,0.0,0.0,-59.00757,61.067505,-29.87732
1766498641835,-0.87597656,-0.4140625,0.24121094,0.30517578,0.48828125,-0.24414062,0.0,0.0,0.0,-58.996582,61.067505,-29.921265
1766498641923,-0.8769531,-0.41357422,0.24316406,0.12207031,0.4272461,0.0,0.0,0.0,0.0,-58.996582,61.067505,-29.921265
1766498641934,-0.8769531,-0.41357422,0.24316406,0.12207031,0.4272461,0.0,0.0,0.0,0.0,-59.040527,61.07849,-29.998169
1766498642022,-0.87597656,-0.41503906,0.24414062,0.0,0.18310547,0.12207031,0.0,0.0,0.0,-59.040527,61.07849,-29.998169
1766498642034,-0.87597656,-0.41503906,0.24414062,0.0,0.18310547,0.12207031,0.0,0.0,0.0,-59.084473,61.089478,-30.06958
1766498642122,-0.8774414,-0.4140625,0.24511719,0.4272461,0.7324219,-0.18310547,0.0,0.0,0.0,-59.084473,61.089478,-30.06958
1766498642134,-0.8774414,-0.4140625,0.24511719,0.4272461,0.7324219,-0.18310547,0.0,0.0,0.0,-59.09546,61.089478,-30.10254
1766498642222,-0.8779297,-0.4111328,0.24609375,1.3427734,1.3427734,-0.5493164,0.0,0.0,0.0,-59.09546,61.089478,-30.10254
1766498642234,-0.8779297,-0.4111328,0.24609375,1.3427734,1.3427734,-0.5493164,0.0,0.0,0.0,-59.18335,61.100464,-30.256348
1766498642322,-0.8779297,-0.41455078,0.24511719,0.24414062,1.2207031,-0.30517578,0.0,0.0,0.0,-59.18335,61.100464,-30.256348
1766498642334,-0.8779297,-0.41455078,0.24511719,0.24414062,1.2207031,-0.30517578,0.0,0.0,0.0,-59.39209,61.11145,-30.618896
1766498642421,-0.875,-0.41455078,0.24267578,-0.061035156,0.24414062,0.0,0.0,0.0,0.0,-59.39209,61.11145,-30.618896
1766498642433,-0.875,-0.41455078,0.24267578,-0.061035156,0.24414062,0.0,0.0,0.0,0.0,-59.49646,61.133423,-30.74524
1766498642521,-0.8779297,-0.41845703,0.24072266,-0.36621094,1.0375977,0.0,0.0,0.0,0.0,-59.49646,61.133423,-30.74524
1766498642534,-0.8779297,-0.41845703,0.24072266,-0.36621094,1.0375977,0.0,0.0,0.0,0.0,-59.61731,61.18286,-30.871582
1766498642621,-0.8803711,-0.41748047,0.23828125,-1.0375977,0.0,0.30517578,0.0,0.0,0.0,-59.61731,61.18286,-30.871582
1766498642632,-0.8803711,-0.41748047,0.23828125,-1.0375977,0.0,0.30517578,0.0,0.0,0.0,-59.732666,61.188354,-30.981445
1766498642725,-0.8828125,-0.41455078,0.23632812,-0.061035156,0.5493164,0.12207031,0.0,0.0,0.0,-59.732666,61.188354,-30.981445
1766498642732,-0.8828125,-0.41455078,0.23632812,-0.061035156,0.5493164,0.12207031,0.0,0.0,0.0,-59.804077,61.221313,-30.997925
1766498642821,-0.8803711,-0.41503906,0.234375,0.24414062,0.18310547,-0.24414062,0.0,0.0,0.0,-59.804077,61.221313,-30.997925
1766498642832,-0.8803711,-0.41503906,0.234375,0.24414062,0.18310547,-0.24414062,0.0,0.0,0.0,-59.864502,61.2323,-31.096802
1766498642921,-0.87939453,-0.4140625,0.23779297,-0.36621094,-0.48828125,0.24414062,0.0,0.0,0.0,-59.864502,61.2323,-31.096802
1766498642931,-0.87939453,-0.4140625,0.23779297,-0.36621094,-0.48828125,0.24414062,0.0,0.0,0.0,-59.891968,61.221313,-31.107788
1766498643020,-0.875,-0.4140625,0.23925781,1.2817383,0.7324219,-0.5493164,0.0,0.0,0.0,-59.891968,61.221313,-31.107788
1766498643036,-0.875,-0.4140625,0.23925781,1.2817383,0.7324219,-0.5493164,0.0,0.0,0.0,-59.891968,61.221313,-31.118774
1766498643119,-0.88183594,-0.41552734,0.23339844,0.36621094,0.6713867,0.12207031,0.0,0.0,0.0,-59.891968,61.221313,-31.118774
1766498643131,-0.88183594,-0.41552734,0.23339844,0.36621094,0.6713867,0.12207031,0.0,0.0,0.0,-59.891968,61.221313,-31.173706
1766498643219,-0.87841797,-0.4194336,0.24072266,0.4272461,0.61035156,-0.7324219,0.0,0.0,0.0,-59.891968,61.221313,-31.173706
1766498643230,-0.87841797,-0.4194336,0.24072266,0.4272461,0.61035156,-0.7324219,0.0,0.0,0.0,-59.97986,61.24878,-31.343994
1766498643319,-0.8754883,-0.4111328,0.23486328,0.0,1.0986328,0.36621094,0.0,0.0,0.0,-59.97986,61.24878,-31.343994
1766498643331,-0.8754883,-0.4111328,0.23486328,0.0,1.0986328,0.36621094,0.0,0.0,0.0,-60.007324,61.276245,-31.333008
1766498643418,-0.88134766,-0.41601562,0.23095703,0.61035156,0.5493164,0.12207031,0.0,0.0,0.0,-60.007324,61.276245,-31.333008
1766498643430,-0.88134766,-0.41601562,0.23095703,0.61035156,0.5493164,0.12207031,0.0,0.0,0.0,-60.029297,61.325684,-31.404419
1766498643518,-0.8754883,-0.41259766,0.23632812,0.5493164,0.12207031,0.18310547,0.0,0.0,0.0,-60.029297,61.325684,-31.404419
1766498643530,-0.8754883,-0.41259766,0.23632812,0.5493164,0.12207031,0.18310547,0.0,0.0,0.0,-60.012817,61.347656,-31.398926
1766498643618,-0.8828125,-0.41503906,0.23339844,0.61035156,0.61035156,0.12207031,0.0,0.0,0.0,-60.012817,61.347656,-31.398926
1766498643629,-0.8828125,-0.41503906,0.23339844,0.61035156,0.61035156,0.12207031,0.0,0.0,0.0,-59.96338,61.36963,-31.398926
1766498643718,-0.8798828,-0.4116211,0.23388672,0.91552734,0.30517578,0.0,0.0,0.0,0.0,-59.96338,61.36963,-31.398926
1766498643729,-0.8798828,-0.4116211,0.23388672,0.91552734,0.30517578,0.0,0.0,0.0,0.0,-59.957886,61.3916,-31.398926
1766498643817,-0.8769531,-0.41308594,0.2368164,0.79345703,-0.12207031,0.12207031,0.0,0.0,0.0,-59.957886,61.3916,-31.398926
1766498643829,-0.8769531,-0.41308594,0.2368164,0.79345703,-0.12207031,0.12207031,0.0,0.0,0.0,-59.84253,61.3916,-31.300049
1766498643917,-0.87597656,-0.41259766,0.23730469,0.24414062,-0.061035156,0.061035156,0.0,0.0,0.0,-59.84253,61.3916,-31.300049
1766498643929,-0.87597656,-0.41259766,0.23730469,0.24414062,-0.061035156,0.061035156,0.0,0.0,0.0,-59.749146,61.38611,-31.206665
1766498644017,-0.8754883,-0.41259766,0.24267578,0.18310547,0.7324219,-0.18310547,0.0,0.0,0.0,-59.749146,61.38611,-31.206665
1766498644028,-0.8754883,-0.41259766,0.24267578,0.18310547,0.7324219,-0.18310547,0.0,0.0,0.0,-59.79309,61.397095,-31.23413
1766498644116,-0.88134766,-0.41601562,0.24023438,-1.0986328,-0.9765625,0.24414062,0.0,0.0,0.0,-59.79309,61.397095,-31.23413
1766498644128,-0.88134766,-0.41601562,0.24023438,-1.0986328,-0.9765625,0.24414062,0.0,0.0,0.0,-59.7052,61.358643,-31.102295
1766498644216,-0.8754883,-0.4091797,0.24511719,-1.0375977,-0.8544922,0.061035156,0.0,0.0,0.0,-59.7052,61.358643,-31.102295
1766498644228,-0.8754883,-0.4091797,0.24511719,-1.0375977,-0.8544922,0.061035156,0.0,0.0,0.0,-59.743652,61.364136,-31.07483
1766498644316,-0.8779297,-0.4140625,0.23242188,-0.12207031,-0.36621094,0.0,0.0,0.0,0.0,-59.743652,61.364136,-31.07483
1766498644328,-0.8779297,-0.4140625,0.23242188,-0.12207031,-0.36621094,0.0,0.0,0.0,0.0,-59.710693,61.347656,-31.02539
1766498644416,-0.8798828,-0.41064453,0.23779297,-0.30517578,-0.24414062,0.24414062,0.0,0.0,0.0,-59.710693,61.347656,-31.02539
1766498644427,-0.8798828,-0.41064453,0.23779297,-0.30517578,-0.24414062,0.24414062,0.0,0.0,0.0,-59.68872,61.342163,-30.926514
1766498644515,-0.87841797,-0.41357422,0.23486328,0.36621094,0.0,-0.30517578,0.0,0.0,0.0,-59.68872,61.342163,-30.926514
1766498644527,-0.87841797,-0.41357422,0.23486328,0.36621094,0.0,-0.30517578,0.0,0.0,0.0,-59.63379,61.32019,-30.844116
1766498644615,-0.8769531,-0.41357422,0.23730469,0.0,0.0,-0.12207031,0.0,0.0,0.0,-59.63379,61.32019,-30.844116
1766498644627,-0.8769531,-0.41357422,0.23730469,0.0,0.0,-0.12207031,0.0,0.0,0.0,-59.644775,61.309204,-30.83313
1766498644715,-0.8808594,-0.4140625,0.23535156,-0.18310547,0.0,-0.061035156,0.0,0.0,0.0,-59.644775,61.309204,-30.83313
1766498644727,-0.8808594,-0.4140625,0.23535156,-0.18310547,0.0,-0.061035156,0.0,0.0,0.0,-59.661255,61.30371,-30.811157
1766498644815,-0.87841797,-0.41259766,0.23828125,1.0375977,0.61035156,-0.61035156,0.0,0.0,0.0,-59.661255,61.30371,-30.811157
1766498644826,-0.87841797,-0.41259766,0.23828125,1.0375977,0.61035156,-0.61035156,0.0,0.0,0.0,-59.732666,61.276245,-30.877075
1766498644914,-0.8754883,-0.41552734,0.23583984,0.18310547,0.36621094,-0.061035156,0.0,0.0,0.0,-59.732666,61.276245,-30.877075
1766498644926,-0.8754883,-0.41552734,0.23583984,0.18310547,0.36621094,-0.061035156,0.0,0.0,0.0,-59.743652,61.28174,-30.888062
1766498645014,-0.8823242,-0.4140625,0.23535156,0.12207031,-0.36621094,0.0,0.0,0.0,0.0,-59.743652,61.28174,-30.888062
1766498645025,-0.8823242,-0.4140625,0.23535156,0.12207031,-0.36621094,0.0,0.0,0.0,0.0,-59.853516,61.276245,-31.019897
1766498645114,-0.8730469,-0.41455078,0.23925781,0.18310547,0.6713867,0.0,0.0,0.0,0.0,-59.853516,61.276245,-31.019897
1766498645127,-0.8730469,-0.41455078,0.23925781,0.18310547,0.6713867,0.0,0.0,0.0,0.0,-59.88098,61.28723,-31.02539
1766498645213,-0.8769531,-0.4116211,0.2368164,0.061035156,0.0,-0.12207031,0.0,0.0,0.0,-59.88098,61.28723,-31.02539
1766498645226,-0.8769531,-0.4116211,0.2368164,0.061035156,0.0,-0.12207031,0.0,0.0,0.0,-59.89746,61.28723,-31.014404
1766498645313,-0.8798828,-0.41552734,0.23535156,0.0,-0.48828125,0.24414062,0.0,0.0,0.0,-59.89746,61.28723,-31.014404
1766498645325,-0.8798828,-0.41552734,0.23535156,0.0,-0.48828125,0.24414062,0.0,0.0,0.0,-59.87549,61.28174,-30.986938
1766498645413,-0.87939453,-0.4140625,0.23388672,-0.36621094,0.0,0.061035156,0.0,0.0,0.0,-59.87549,61.28174,-30.986938
1766498645424,-0.87939453,-0.4140625,0.23388672,-0.36621094,0.0,0.061035156,0.0,0.0,0.0,-59.864502,61.28723,-30.964966
1766498645513,-0.8774414,-0.41601562,0.23535156,-0.18310547,-0.18310547,0.12207031,0.0,0.0,0.0,-59.864502,61.28723,-30.964966
1766498645527,-0.8774414,-0.41601562,0.23535156,-0.18310547,-0.18310547,0.12207031,0.0,0.0,0.0,-59.88098,61.298218,-31.008911
1766498645613,-0.8769531,-0.41308594,0.23632812,-0.18310547,-0.30517578,0.0,0.0,0.0,0.0,-59.88098,61.298218,-31.008911
1766498645627,-0.8769531,-0.41308594,0.23632812,-0.18310547,-0.30517578,0.0,0.0,0.0,0.0,-59.886475,61.298218,-31.019897
1766498645712,-0.8808594,-0.41357422,0.23486328,0.61035156,0.18310547,0.0,0.0,0.0,0.0,-59.886475,61.298218,-31.019897
1766498645724,-0.8808594,-0.41357422,0.23486328,0.61035156,0.18310547,0.0,0.0,0.0,0.0,-59.85901,61.292725,-30.992432
1766498645812,-0.87353516,-0.41796875,0.23242188,0.61035156,0.4272461,0.0,0.0,0.0,0.0,-59.85901,61.292725,-30.992432
1766498645823,-0.87353516,-0.41796875,0.23242188,0.61035156,0.4272461,0.0,0.0,0.0,0.0,-59.88098,61.309204,-31.02539
1766498645911,-0.8808594,-0.41210938,0.23486328,0.24414062,-0.24414062,0.24414062,0.0,0.0,0.0,-59.88098,61.309204,-31.02539
1766498645923,-0.8808594,-0.41210938,0.23486328,0.24414062,-0.24414062,0.24414062,0.0,0.0,0.0,-59.93042,61.309204,-31.04187
1766498646011,-0.87646484,-0.41210938,0.23583984,0.36621094,0.24414062,-0.18310547,0.0,0.0,0.0,-59.93042,61.309204,-31.04187
1766498646023,-0.87646484,-0.41210938,0.23583984,0.36621094,0.24414062,-0.18310547,0.0,0.0,0.0,-59.957886,61.309204,-31.080322
1766498646111,-0.8769531,-0.41259766,0.23632812,-0.18310547,-0.24414062,0.18310547,0.0,0.0,0.0,-59.957886,61.309204,-31.080322
1766498646122,-0.8769531,-0.41259766,0.23632812,-0.18310547,-0.24414062,0.18310547,0.0,0.0,0.0,-59.96338,61.309204,-31.096802
1766498646210,-0.88134766,-0.41601562,0.234375,-0.36621094,-0.79345703,0.36621094,0.0,0.0,0.0,-59.96338,61.309204,-31.096802
1766498646222,-0.88134766,-0.41601562,0.234375,-0.36621094,-0.79345703,0.36621094,0.0,0.0,0.0,-59.891968,61.30371,-30.981445
1766498646310,-0.8769531,-0.41503906,0.23632812,0.061035156,-0.061035156,0.0,0.0,0.0,0.0,-59.891968,61.30371,-30.981445
1766498646322,-0.8769531,-0.41503906,0.23632812,0.061035156,-0.061035156,0.0,0.0,0.0,0.0,-59.891968,61.30371,-31.014404
1766498646410,-0.87841797,-0.4140625,0.23779297,0.0,-0.12207031,0.0,0.0,0.0,0.0,-59.891968,61.30371,-31.014404
1766498646422,-0.87841797,-0.4140625,0.23779297,0.0,-0.12207031,0.0,0.0,0.0,0.0,-59.902954,61.30371,-31.008911
1766498646510,-0.8798828,-0.41455078,0.23632812,-0.24414062,-0.48828125,0.24414062,0.0,0.0,0.0,-59.902954,61.30371,-31.008911
1766498646521,-0.8798828,-0.41455078,0.23632812,-0.24414062,-0.48828125,0.24414062,0.0,0.0,0.0,-59.87549,61.298218,-30.942993
1766498646609,-0.8803711,-0.41601562,0.23242188,0.24414062,0.0,0.0,0.0,0.0,0.0,-59.87549,61.298218,-30.942993
1766498646621,-0.8803711,-0.41601562,0.23242188,0.24414062,0.0,0.0,0.0,0.0,0.0,-59.80957,61.292725,-30.877075
1766498646709,-0.87353516,-0.4169922,0.23339844,1.6479492,0.7324219,-0.24414062,0.0,0.0,0.0,-59.80957,61.292725,-30.877075
1766498646721,-0.87353516,-0.4169922,0.23339844,1.6479492,0.7324219,-0.24414062,0.0,0.0,0.0,-59.831543,61.32019,-30.932007
1766498646809,-0.88134766,-0.41552734,0.22949219,-0.12207031,-0.12207031,0.48828125,0.0,0.0,0.0,-59.831543,61.32019,-30.932007
1766498646820,-0.88134766,-0.41552734,0.22949219,-0.12207031,-0.12207031,0.48828125,0.0,0.0,0.0,-59.804077,61.309204,-30.932007
1766498646908,-0.8779297,-0.41455078,0.2368164,1.159668,0.7324219,-0.36621094,0.0,0.0,0.0,-59.804077,61.309204,-30.932007
1766498646920,-0.8779297,-0.41455078,0.2368164,1.159668,0.7324219,-0.36621094,0.0,0.0,0.0,-59.89746,61.33667,-31.069336
1766498647008,-0.87890625,-0.4111328,0.23632812,0.12207031,0.5493164,0.0,0.0,0.0,0.0,-59.89746,61.33667,-31.069336
1766498647020,-0.87890625,-0.4111328,0.23632812,0.12207031,0.5493164,0.0,0.0,0.0,0.0,-59.98535,61.358643,-31.212158
1766498647108,-0.88134766,-0.4140625,0.23046875,0.5493164,0.24414062,0.18310547,0.0,0.0,0.0,-59.98535,61.358643,-31.212158
1766498647119,-0.88134766,-0.4140625,0.23046875,0.5493164,0.24414062,0.18310547,0.0,0.0,0.0,-59.990845,61.380615,-31.223145
1766498647208,-0.87939453,-0.4140625,0.23388672,0.0,0.36621094,0.12207031,0.0,0.0,0.0,-59.990845,61.380615,-31.223145
1766498647220,-0.87939453,-0.4140625,0.23388672,0.0,0.36621094,0.12207031,0.0,0.0,0.0,-60.045776,61.419067,-31.305542
1766498647307,-0.8774414,-0.4140625,0.23486328,-0.12207031,-0.12207031,0.12207031,0.0,0.0,0.0,-60.045776,61.419067,-31.305542
1766498647319,-0.8774414,-0.4140625,0.23486328,-0.12207031,-0.12207031,0.12207031,0.0,0.0,0.0,-60.073242,61.44104,-31.333008
1766498647407,-0.8754883,-0.41308594,0.23632812,0.0,-0.30517578,0.061035156,0.0,0.0,0.0,-60.073242,61.44104,-31.333008
1766498647419,-0.8754883,-0.41308594,0.23632812,0.0,-0.30517578,0.061035156,0.0,0.0,0.0,-60.045776,61.435547,-31.289062
1766498647507,-0.87646484,-0.40966797,0.23779297,0.18310547,0.18310547,0.0,0.0,0.0,0.0,-60.045776,61.435547,-31.289062
1766498647518,-0.87646484,-0.40966797,0.23779297,0.18310547,0.18310547,0.0,0.0,0.0,0.0,-60.040283,61.430054,-31.245117
1766498647607,-0.87890625,-0.41210938,0.23095703,0.18310547,0.061035156,0.0,0.0,0.0,0.0,-60.040283,61.430054,-31.245117
1766498647618,-0.87890625,-0.41210938,0.23095703,0.18310547,0.061035156,0.0,0.0,0.0,0.0,-59.98535,61.430054,-31.190186
1766498647706,-0.87646484,-0.41455078,0.22607422,-0.30517578,-0.30517578,0.18310547,0.0,0.0,0.0,-59.98535,61.430054,-31.190186
1766498647718,-0.87646484,-0.41455078,0.22607422,-0.30517578,-0.30517578,0.18310547,0.0,0.0,0.0,-59.902954,61.419067,-31.014404
1766498647806,-0.88183594,-0.41552734,0.23535156,0.6713867,0.18310547,0.0,0.0,0.0,0.0,-59.902954,61.419067,-31.014404
1766498647817,-0.88183594,-0.41552734,0.23535156,0.6713867,0.18310547,0.0,0.0,0.0,0.0,-59.91394,61.419067,-30.975952
1766498647906,-0.87646484,-0.4111328,0.24023438,-0.30517578,-0.61035156,-0.061035156,0.0,0.0,0.0,-59.91394,61.419067,-30.975952
1766498647917,-0.87646484,-0.4111328,0.24023438,-0.30517578,-0.61035156,-0.061035156,0.0,0.0,0.0,-59.831543,61.380615,-30.844116
1766498648005,-0.8823242,-0.41259766,0.23339844,0.48828125,-0.18310547,-0.30517578,0.0,0.0,0.0,-59.831543,61.380615,-30.844116
1766498648017,-0.8823242,-0.41259766,0.23339844,0.48828125,-0.18310547,-0.30517578,0.0,0.0,0.0,-59.72168,61.347656,-30.74524
1766498648105,-0.8779297,-0.4140625,0.23388672,0.36621094,0.12207031,-0.12207031,0.0,0.0,0.0,-59.72168,61.347656,-30.74524
1766498648117,-0.8779297,-0.4140625,0.23388672,0.36621094,0.12207031,-0.12207031,0.0,0.0,0.0,-59.743652,61.33667,-30.81665
1766498648205,-0.8774414,-0.41210938,0.23632812,0.12207031,0.061035156,0.0,0.0,0.0,0.0,-59.743652,61.33667,-30.81665
1766498648217,-0.8774414,-0.41210938,0.23632812,0.12207031,0.061035156,0.0,0.0,0.0,0.0,-59.727173,61.33667,-30.783691
1766498648304,-0.8779297,-0.41455078,0.23925781,-0.18310547,-0.12207031,0.0,0.0,0.0,0.0,-59.727173,61.33667,-30.783691
1766498648316,-0.8779297,-0.41455078,0.23925781,-0.18310547,-0.12207031,0.0,0.0,0.0,0.0,-59.710693,61.325684,-30.761719
1766498648404,-0.87890625,-0.41259766,0.23925781,-0.48828125,0.18310547,0.061035156,0.0,0.0,0.0,-59.710693,61.325684,-30.761719
1766498648416,-0.87890625,-0.41259766,0.23925781,-0.48828125,0.18310547,0.061035156,0.0,0.0,0.0,-59.716187,61.325684,-30.767212
1766498648504,-0.8803711,-0.41552734,0.23876953,-0.7324219,0.0,-0.30517578,0.0,0.0,0.0,-59.716187,61.325684,-30.767212
1766498648515,-0.8803711,-0.41552734,0.23876953,-0.7324219,0.0,-0.30517578,0.0,0.0,0.0,-59.77661,61.325684,-30.827637
1766498648604,-0.875,-0.41210938,0.24023438,0.24414062,0.79345703,-0.12207031,0.0,0.0,0.0,-59.77661,61.325684,-30.827637
1766498648615,-0.875,-0.41210938,0.24023438,0.24414062,0.79345703,-0.12207031,0.0,0.0,0.0,-59.765625,61.331177,-30.761719
1766498648703,-0.87890625,-0.4140625,0.23388672,0.12207031,0.5493164,-0.12207031,0.0,0.0,0.0,-59.765625,61.331177,-30.761719
1766498648715,-0.87890625,-0.4140625,0.23388672,0.12207031,0.5493164,-0.12207031,0.0,0.0,0.0,-59.77661,61.331177,-30.811157
1766498648803,-0.87646484,-0.4140625,0.23632812,0.061035156,-0.18310547,0.0,0.0,0.0,0.0,-59.77661,61.331177,-30.811157
1766498648815,-0.87646484,-0.4140625,0.23632812,0.061035156,-0.18310547,0.0,0.0,0.0,0.0,-59.787598,61.331177,-30.84961
1766498648903,-0.8803711,-0.41552734,0.23291016,0.61035156,0.48828125,-0.36621094,0.0,0.0,0.0,-59.787598,61.331177,-30.84961
1766498648915,-0.8803711,-0.41552734,0.23291016,0.61035156,0.48828125,-0.36621094,0.0,0.0,0.0,-59.765625,61.32019,-30.860596
1766498649003,-0.8779297,-0.4140625,0.2368164,-0.061035156,0.24414062,0.12207031,0.0,0.0,0.0,-59.765625,61.32019,-30.860596
1766498649014,-0.8779297,-0.4140625,0.2368164,-0.061035156,0.24414062,0.12207031,0.0,0.0,0.0,-59.798584,61.32019,-30.893555
1766498649102,-0.8769531,-0.41259766,0.23779297,0.24414062,0.24414062,0.0,0.0,0.0,0.0,-59.798584,61.32019,-30.893555
1766498649114,-0.8769531,-0.41259766,0.23779297,0.24414062,0.24414062,0.0,0.0,0.0,0.0,-59.80957,61.325684,-30.888062
1766498649202,-0.87939453,-0.41308594,0.23925781,0.30517578,0.0,0.0,0.0,0.0,0.0,-59.80957,61.325684,-30.888062
1766498649214,-0.87939453,-0.41308594,0.23925781,0.30517578,0.0,0.0,0.0,0.0,0.0,-59.787598,61.325684,-30.84961
1766498649302,-0.87890625,-0.41308594,0.24023438,0.79345703,0.48828125,-0.18310547,0.0,0.0,0.0,-59.787598,61.325684,-30.84961
1766498649314,-0.87890625,-0.41308594,0.24023438,0.79345703,0.48828125,-0.18310547,0.0,0.0,0.0,-59.79309,61.331177,-30.866089
1766498649401,-0.87841797,-0.4140625,0.24023438,0.18310547,0.061035156,0.0,0.0,0.0,0.0,-59.79309,61.331177,-30.866089
1766498649413,-0.87841797,-0.4140625,0.24023438,0.18310547,0.061035156,0.0,0.0,0.0,0.0,-59.848022,61.325684,-30.959473
1766498649501,-0.8774414,-0.41210938,0.24169922,0.36621094,0.5493164,-0.18310547,0.0,0.0,0.0,-59.848022,61.325684,-30.959473
1766498649513,-0.8774414,-0.41210938,0.24169922,0.36621094,0.5493164,-0.18310547,0.0,0.0,0.0,-59.864502,61.331177,-30.948486
1766498649601,-0.87597656,-0.41503906,0.23779297,-0.18310547,0.0,0.12207031,0.0,0.0,0.0,-59.864502,61.331177,-30.948486
1766498649612,-0.87597656,-0.41503906,0.23779297,-0.18310547,0.0,0.12207031,0.0,0.0,0.0,-59.85901,61.33667,-30.95398
1766498649701,-0.8828125,-0.41259766,0.2368164,-0.48828125,-0.79345703,0.30517578,0.0,0.0,0.0,-59.85901,61.33667,-30.95398
1766498649712,-0.8828125,-0.41259766,0.2368164,-0.48828125,-0.79345703,0.30517578,0.0,0.0,0.0,-59.77661,61.331177,-30.83313
1766498649800,-0.8803711,-0.41503906,0.23486328,0.0,0.18310547,0.0,0.0,0.0,0.0,-59.77661,61.331177,-30.83313
1766498649812,-0.8803711,-0.41503906,0.23486328,0.0,0.18310547,0.0,0.0,0.0,0.0,-59.77661,61.331177,-30.84961
1766498649900,-0.8774414,-0.41259766,0.23828125,-0.18310547,0.061035156,0.061035156,0.0,0.0,0.0,-59.77661,61.331177,-30.84961
1766498649912,-0.8774414,-0.41259766,0.23828125,-0.18310547,0.061035156,0.061035156,0.0,0.0,0.0,-59.831543,61.342163,-30.888062
1766498650000,-0.87890625,-0.4140625,0.234375,0.0,-0.24414062,0.12207031,0.0,0.0,0.0,-59.831543,61.342163,-30.888062
1766498650011,-0.87890625,-0.4140625,0.234375,0.0,-0.24414062,0.12207031,0.0,0.0,0.0,-59.804077,61.342163,-30.866089
1766498650100,-0.88134766,-0.41455078,0.23388672,0.24414062,-0.061035156,0.12207031,0.0,0.0,0.0,-59.804077,61.342163,-30.866089
1766498650111,-0.88134766,-0.41455078,0.23388672,0.24414062,-0.061035156,0.12207031,0.0,0.0,0.0,-59.765625,61.342163,-30.83313
1766498650199,-0.87646484,-0.41552734,0.23583984,0.30517578,0.4272461,-0.12207031,0.0,0.0,0.0,-59.765625,61.342163,-30.83313
1766498650211,-0.87646484,-0.41552734,0.23583984,0.30517578,0.4272461,-0.12207031,0.0,0.0,0.0,-59.80957,61.364136,-30.871582
1766498650299,-0.87890625,-0.41357422,0.23779297,0.36621094,-0.6713867,0.30517578,0.0,0.0,0.0,-59.80957,61.364136,-30.871582
1766498650310,-0.87890625,-0.41357422,0.23779297,0.36621094,-0.6713867,0.30517578,0.0,0.0,0.0,-59.787598,61.35315,-30.83313
1766498650399,-0.87939453,-0.4111328,0.23828125,0.8544922,0.18310547,-0.18310547,0.0,0.0,0.0,-59.787598,61.35315,-30.83313
1766498650411,-0.87939453,-0.4111328,0.23828125,0.8544922,0.18310547,-0.18310547,0.0,0.0,0.0,-59.75464,61.347656,-30.778198
1766498650499,-0.87841797,-0.4116211,0.2368164,0.61035156,0.0,0.0,0.0,0.0,0.0,-59.75464,61.347656,-30.778198
1766498650510,-0.87841797,-0.4116211,0.2368164,0.61035156,0.0,0.0,0.0,0.0,0.0,-59.727173,61.35315,-30.794678
1766498650598,-0.8798828,-0.41308594,0.2368164,-0.30517578,-0.4272461,0.30517578,0.0,0.0,0.0,-59.727173,61.35315,-30.794678
1766498650610,-0.8798828,-0.41308594,0.2368164,-0.30517578,-0.4272461,0.30517578,0.0,0.0,0.0,-59.716187,61.358643,-30.789185
1766498650698,-0.8779297,-0.41308594,0.23583984,0.30517578,0.6713867,-0.061035156,0.0,0.0,0.0,-59.716187,61.358643,-30.789185
1766498650709,-0.8779297,-0.41308594,0.23583984,0.30517578,0.6713867,-0.061035156,0.0,0.0,0.0,-59.77661,61.38611,-30.899048
1766498650798,-0.87841797,-0.41259766,0.2368164,0.061035156,0.30517578,0.061035156,0.0,0.0,0.0,-59.77661,61.38611,-30.899048
1766498650809,-0.87841797,-0.41259766,0.2368164,0.061035156,0.30517578,0.061035156,0.0,0.0,0.0,-59.869995,61.419067,-31.014404
1766498650897,-0.87939453,-0.4111328,0.23535156,0.12207031,0.36621094,0.12207031,0.0,0.0,0.0,-59.869995,61.419067,-31.014404
1766498650909,-0.87939453,-0.4111328,0.23535156,0.12207031,0.36621094,0.12207031,0.0,0.0,0.0,-59.891968,61.435547,-31.014404
1766498650997,-0.88183594,-0.4116211,0.23242188,0.12207031,0.36621094,0.18310547,0.0,0.0,0.0,-59.891968,61.435547,-31.014404
1766498651009,-0.88183594,-0.4116211,0.23242188,0.12207031,0.36621094,0.18310547,0.0,0.0,0.0,-59.91394,61.45752,-31.02539
1766498651097,-0.8745117,-0.41210938,0.23388672,1.5869141,0.6713867,-0.061035156,0.0,0.0,0.0,-59.91394,61.45752,-31.02539
1766498651108,-0.8745117,-0.41210938,0.23388672,1.5869141,0.6713867,-0.061035156,0.0,0.0,0.0,-59.96338,61.49048,-31.096802
1766498651197,-0.88183594,-0.4116211,0.22705078,0.30517578,0.8544922,0.24414062,0.0,0.0,0.0,-59.96338,61.49048,-31.096802
1766498651208,-0.88183594,-0.4116211,0.22705078,0.30517578,0.8544922,0.24414062,0.0,0.0,0.0,-59.9469,61.49597,-31.047363
1766498651296,-0.8803711,-0.4111328,0.23339844,0.48828125,0.5493164,-0.061035156,0.0,0.0,0.0,-59.9469,61.49597,-31.047363
1766498651308,-0.8803711,-0.4111328,0.23339844,0.48828125,0.5493164,-0.061035156,0.0,0.0,0.0,-60.03479,61.52893,-31.124268
1766498651396,-0.8769531,-0.40771484,0.23779297,-0.30517578,-0.36621094,0.12207031,0.0,0.0,0.0,-60.03479,61.52893,-31.124268
1766498651408,-0.8769531,-0.40771484,0.23779297,-0.30517578,-0.36621094,0.12207031,0.0,0.0,0.0,-60.078735,61.539917,-31.173706
1766498651496,-0.88134766,-0.41503906,0.2290039,-0.18310547,-0.48828125,0.12207031,0.0,0.0,0.0,-60.078735,61.539917,-31.173706
1766498651507,-0.88134766,-0.41503906,0.2290039,-0.18310547,-0.48828125,0.12207031,0.0,0.0,0.0,-59.990845,61.523438,-31.063843
1766498651595,-0.8798828,-0.4116211,0.23388672,0.0,-0.36621094,0.0,0.0,0.0,0.0,-59.990845,61.523438,-31.063843
1766498651607,-0.8798828,-0.4116211,0.23388672,0.0,-0.36621094,0.0,0.0,0.0,0.0,-59.9469,61.49597,-30.992432
1766498651695,-0.87939453,-0.4111328,0.23583984,-0.18310547,-0.4272461,0.0,0.0,0.0,0.0,-59.9469,61.49597,-30.992432
1766498651707,-0.87939453,-0.4111328,0.23583984,-0.18310547,-0.4272461,0.0,0.0,0.0,0.0,-59.891968,61.474,-30.910034
1766498651795,-0.87939453,-0.4111328,0.23583984,-0.30517578,-0.79345703,0.0,0.0,0.0,0.0,-59.891968,61.474,-30.910034
1766498651807,-0.87939453,-0.4111328,0.23583984,-0.30517578,-0.79345703,0.0,0.0,0.0,0.0,-59.815063,61.446533,-30.80017
1766498651895,-0.88134766,-0.41308594,0.23242188,0.0,-0.5493164,0.0,0.0,0.0,0.0,-59.815063,61.446533,-30.80017
1766498651906,-0.88134766,-0.41308594,0.23242188,0.0,-0.5493164,0.0,0.0,0.0,0.0,-59.710693,61.419067,-30.690308
1766498651994,-0.8769531,-0.4116211,0.23486328,0.48828125,0.36621094,0.0,0.0,0.0,0.0,-59.710693,61.419067,-30.690308
1766498652006,-0.8769531,-0.4116211,0.23486328,0.48828125,0.36621094,0.0,0.0,0.0,0.0,-59.68872,61.419067,-30.684814
1766498652094,-0.8803711,-0.4140625,0.22851562,-0.79345703,-0.48828125,0.30517578,0.0,0.0,0.0,-59.68872,61.419067,-30.684814
1766498652106,-0.8803711,-0.4140625,0.22851562,-0.79345703,-0.48828125,0.30517578,0.0,0.0,0.0,-59.61731,61.38611,-30.580444
1766498652194,-0.8803711,-0.41308594,0.23388672,0.4272461,-0.061035156,-0.12207031,0.0,0.0,0.0,-59.61731,61.38611,-30.580444
1766498652205,-0.8803711,-0.41308594,0.23388672,0.4272461,-0.061035156,-0.12207031,0.0,0.0,0.0,-59.661255,61.38611,-30.64087
1766498652293,-0.87646484,-0.41064453,0.23925781,-0.061035156,-0.24414062,0.0,0.0,0.0,0.0,-59.661255,61.38611,-30.64087
1766498652305,-0.87646484,-0.41064453,0.23925781,-0.061035156,-0.24414062,0.0,0.0,0.0,0.0,-59.644775,61.380615,-30.64087
1766498652393,-0.88183594,-0.4140625,0.23339844,0.36621094,0.0,0.0,0.0,0.0,0.0,-59.644775,61.380615,-30.64087
1766498652405,-0.88183594,-0.4140625,0.23339844,0.36621094,0.0,0.0,0.0,0.0,0.0,-59.578857,61.364136,-30.558472
1766498652493,-0.8779297,-0.41357422,0.23828125,0.0,0.061035156,0.0,0.0,0.0,0.0,-59.578857,61.364136,-30.558472
1766498652504,-0.8779297,-0.41357422,0.23828125,0.0,0.061035156,0.0,0.0,0.0,0.0,-59.611816,61.36963,-30.613403
1766498652593,-0.87939453,-0.4111328,0.23925781,-0.061035156,0.0,0.0,0.0,0.0,0.0,-59.611816,61.36963,-30.613403
1766498652604,-0.87939453,-0.4111328,0.23925781,-0.061035156,0.0,0.0,0.0,0.0,0.0,-59.622803,61.364136,-30.62439
1766498652692,-0.8779297,-0.41308594,0.23876953,-0.061035156,-0.061035156,0.0,0.0,0.0,0.0,-59.622803,61.364136,-30.62439
1766498652704,-0.8779297,-0.41308594,0.23876953,-0.061035156,-0.061035156,0.0,0.0,0.0,0.0,-59.606323,61.364136,-30.618896
1766498652792,-0.8798828,-0.4111328,0.2368164,-0.18310547,0.061035156,0.0,0.0,0.0,0.0,-59.606323,61.364136,-30.618896
1766498652804,-0.8798828,-0.4111328,0.2368164,-0.18310547,0.061035156,0.0,0.0,0.0,0.0,-59.595337,61.358643,-30.613403
1766498652892,-0.87890625,-0.4140625,0.23876953,-0.18310547,0.30517578,-0.30517578,0.0,0.0,0.0,-59.595337,61.358643,-30.613403
1766498652904,-0.87890625,-0.4140625,0.23876953,-0.18310547,0.30517578,-0.30517578,0.0,0.0,0.0,-59.639282,61.375122,-30.701294
1766498652992,-0.8754883,-0.41210938,0.23583984,-0.48828125,0.24414062,0.0,0.0,0.0,0.0,-59.639282,61.375122,-30.701294
1766498653003,-0.8754883,-0.41210938,0.23583984,-0.48828125,0.24414062,0.0,0.0,0.0,0.0,-59.628296,61.36963,-30.662842
1766498653091,-0.8798828,-0.41357422,0.23388672,0.36621094,0.4272461,-0.061035156,0.0,0.0,0.0,-59.628296,61.36963,-30.662842
1766498653103,-0.8798828,-0.41357422,0.23388672,0.36621094,0.4272461,-0.061035156,0.0,0.0,0.0,-59.661255,61.375122,-30.72876
1766498653191,-0.875,-0.41210938,0.23828125,0.0,0.0,0.12207031,0.0,0.0,0.0,-59.661255,61.375122,-30.72876
1766498653203,-0.875,-0.41210938,0.23828125,0.0,0.0,0.12207031,0.0,0.0,0.0,-59.644775,61.375122,-30.717773
1766498653291,-0.8828125,-0.41259766,0.23291016,0.79345703,0.7324219,-0.18310547,0.0,0.0,0.0,-59.644775,61.375122,-30.717773
1766498653303,-0.8828125,-0.41259766,0.23291016,0.79345703,0.7324219,-0.18310547,0.0,0.0,0.0,-59.611816,61.375122,-30.657349
1766498653391,-0.87841797,-0.4116211,0.23779297,0.18310547,0.36621094,-0.12207031,0.0,0.0,0.0,-59.611816,61.375122,-30.657349
1766498653402,-0.87841797,-0.4116211,0.23779297,0.18310547,0.36621094,-0.12207031,0.0,0.0,0.0,-59.65576,61.380615,-30.717773
1766498653490,-0.8779297,-0.4116211,0.23925781,-0.061035156,-0.061035156,0.0,0.0,0.0,0.0,-59.65576,61.380615,-30.717773
1766498653502,-0.8779297,-0.4116211,0.23925781,-0.061035156,-0.061035156,0.0,0.0,0.0,0.0,-59.661255,61.375122,-30.72876
1766498653590,-0.8754883,-0.41259766,0.23925781,0.24414062,0.061035156,0.0,0.0,0.0,0.0,-59.661255,61.375122,-30.72876
1766498653602,-0.8754883,-0.41259766,0.23925781,0.24414062,0.061035156,0.0,0.0,0.0,0.0,-59.65027,61.380615,-30.734253
1766498653690,-0.87890625,-0.41308594,0.23486328,0.0,0.30517578,0.0,0.0,0.0,0.0,-59.65027,61.380615,-30.734253
1766498653702,-0.87890625,-0.41308594,0.23486328,0.0,0.30517578,0.0,0.0,0.0,0.0,-59.65027,61.380615,-30.739746
1766498653789,-0.87939453,-0.41308594,0.23535156,0.0,0.61035156,-0.36621094,0.0,0.0,0.0,-59.65027,61.380615,-30.739746
1766498653801,-0.87939453,-0.41308594,0.23535156,0.0,0.61035156,-0.36621094,0.0,0.0,0.0,-59.694214,61.3916,-30.805664
1766498653890,-0.8769531,-0.41308594,0.23291016,-0.5493164,0.24414062,0.061035156,0.0,0.0,0.0,-59.694214,61.3916,-30.805664
1766498653901,-0.8769531,-0.41308594,0.23291016,-0.5493164,0.24414062,0.061035156,0.0,0.0,0.0,-59.677734,61.380615,-30.789185
1766498653989,-0.8808594,-0.41455078,0.2319336,0.12207031,0.061035156,0.0,0.0,0.0,0.0,-59.677734,61.380615,-30.789185
1766498654001,-0.8808594,-0.41455078,0.2319336,0.12207031,0.061035156,0.0,0.0,0.0,0.0,-59.7052,61.380615,-30.822144
1766498654089,-0.8754883,-0.41259766,0.23925781,0.061035156,-0.12207031,0.12207031,0.0,0.0,0.0,-59.7052,61.380615,-30.822144
1766498654100,-0.8754883,-0.41259766,0.23925781,0.061035156,-0.12207031,0.12207031,0.0,0.0,0.0,-59.710693,61.38611,-30.838623
1766498654188,-0.8803711,-0.41357422,0.23291016,0.5493164,0.6713867,-0.18310547,0.0,0.0,0.0,-59.710693,61.38611,-30.838623
1766498654200,-0.8803711,-0.41357422,0.23291016,0.5493164,0.6713867,-0.18310547,0.0,0.0,0.0,-59.666748,61.38611,-30.80017
1766498654288,-0.87841797,-0.41357422,0.23730469,-0.061035156,0.12207031,0.0,0.0,0.0,0.0,-59.666748,61.38611,-30.80017
1766498654300,-0.87841797,-0.41357422,0.23730469,-0.061035156,0.12207031,0.0,0.0,0.0,0.0,-59.72168,61.38611,-30.871582
1766498654388,-0.8774414,-0.4116211,0.23876953,0.24414062,0.18310547,-0.18310547,0.0,0.0,0.0,-59.72168,61.38611,-30.871582
1766498654399,-0.8774414,-0.4116211,0.23876953,0.24414062,0.18310547,-0.18310547,0.0,0.0,0.0,-59.73816,61.380615,-30.877075
1766498654487,-0.8774414,-0.41259766,0.2368164,0.48828125,0.12207031,-0.061035156,0.0,0.0,0.0,-59.73816,61.380615,-30.877075
1766498654499,-0.8774414,-0.41259766,0.2368164,0.48828125,0.12207031,-0.061035156,0.0,0.0,0.0,-59.716187,61.36963,-30.899048
1766498654587,-0.8828125,-0.41357422,0.23339844,0.12207031,0.18310547,0.12207031,0.0,0.0,0.0,-59.716187,61.36963,-30.899048
1766498654599,-0.8828125,-0.41357422,0.23339844,0.12207031,0.18310547,0.12207031,0.0,0.0,0.0,-59.694214,61.364136,-30.888062
1766498654687,-0.8754883,-0.4165039,0.23242188,1.159668,0.30517578,-0.18310547,0.0,0.0,0.0,-59.694214,61.364136,-30.888062
1766498654698,-0.8754883,-0.4165039,0.23242188,1.159668,0.30517578,-0.18310547,0.0,0.0,0.0,-59.68872,61.36963,-30.910034
1766498654787,-0.88183594,-0.41357422,0.22998047,-0.061035156,-0.4272461,0.36621094,0.0,0.0,0.0,-59.68872,61.36963,-30.910034
1766498654798,-0.88183594,-0.41357422,0.22998047,-0.061035156,-0.4272461,0.36621094,0.0,0.0,0.0,-59.639282,61.347656,-30.84961
1766498654886,-0.8803711,-0.41357422,0.23632812,0.6713867,0.30517578,0.0,0.0,0.0,0.0,-59.639282,61.347656,-30.84961
1766498654899,-0.8803711,-0.41357422,0.23632812,0.6713867,0.30517578,0.0,0.0,0.0,0.0,-59.683228,61.358643,-30.877075
1766498654986,-0.8774414,-0.4116211,0.23583984,0.0,0.0,0.24414062,0.0,0.0,0.0,-59.683228,61.358643,-30.877075
1766498654998,-0.8774414,-0.4116211,0.23583984,0.0,0.0,0.24414062,0.0,0.0,0.0,-59.666748,61.375122,-30.882568
1766498655086,-0.8833008,-0.4140625,0.23339844,-0.061035156,-0.18310547,0.24414062,0.0,0.0,0.0,-59.666748,61.375122,-30.882568
1766498655097,-0.8833008,-0.4140625,0.23339844,-0.061035156,-0.18310547,0.24414062,0.0,0.0,0.0,-59.666748,61.38611,-30.84961
1766498655185,-0.87646484,-0.41210938,0.23828125,0.0,0.61035156,0.0,0.0,0.0,0.0,-59.666748,61.38611,-30.84961
1766498655197,-0.87646484,-0.41210938,0.23828125,0.0,0.61035156,0.0,0.0,0.0,0.0,-59.79309,61.42456,-31.014404
1766498655285,-0.8798828,-0.41210938,0.23632812,-0.12207031,0.24414062,0.0,0.0,0.0,0.0,-59.79309,61.42456,-31.014404
1766498655297,-0.8798828,-0.41210938,0.23632812,-0.12207031,0.24414062,0.0,0.0,0.0,0.0,-59.87549,61.452026,-31.102295
1766498655385,-0.8779297,-0.41210938,0.23535156,0.61035156,0.5493164,0.0,0.0,0.0,0.0,-59.87549,61.452026,-31.102295
1766498655397,-0.8779297,-0.41210938,0.23535156,0.61035156,0.5493164,0.0,0.0,0.0,0.0,-59.886475,61.463013,-31.12976
1766498655485,-0.8808594,-0.41259766,0.2319336,0.18310547,0.12207031,0.0,0.0,0.0,0.0,-59.886475,61.463013,-31.12976
1766498655496,-0.8808594,-0.41259766,0.2319336,0.18310547,0.12207031,0.0,0.0,0.0,0.0,-59.89746,61.468506,-31.124268
1766498655584,-0.8720703,-0.41357422,0.23486328,1.2817383,0.6713867,-0.4272461,0.0,0.0,0.0,-59.89746,61.468506,-31.124268
1766498655596,-0.8720703,-0.41357422,0.23486328,1.2817383,0.6713867,-0.4272461,0.0,0.0,0.0,-59.96338,61.49597,-31.206665
1766498655684,-0.88378906,-0.41210938,0.23242188,0.30517578,0.12207031,0.18310547,0.0,0.0,0.0,-59.96338,61.49597,-31.206665
1766498655696,-0.88378906,-0.41210938,0.23242188,0.30517578,0.12207031,0.18310547,0.0,0.0,0.0,-59.91394,61.463013,-31.168213
1766498655784,-0.87939453,-0.4111328,0.24023438,0.12207031,0.0,0.061035156,0.0,0.0,0.0,-59.91394,61.463013,-31.168213
1766498655795,-0.87939453,-0.4111328,0.24023438,0.12207031,0.0,0.061035156,0.0,0.0,0.0,-59.935913,61.484985,-31.1792
1766498655883,-0.875,-0.4091797,0.23730469,-0.30517578,-0.061035156,0.061035156,0.0,0.0,0.0,-59.935913,61.484985,-31.1792
1766498655895,-0.875,-0.4091797,0.23730469,-0.30517578,-0.061035156,0.061035156,0.0,0.0,0.0,-59.952393,61.49597,-31.23413
1766498655983,-0.8798828,-0.41210938,0.23339844,0.12207031,-0.79345703,0.12207031,0.0,0.0,0.0,-59.952393,61.49597,-31.23413
1766498655995,-0.8798828,-0.41210938,0.23339844,0.12207031,-0.79345703,0.12207031,0.0,0.0,0.0,-59.886475,61.479492,-31.157227
1766498656083,-0.87939453,-0.41210938,0.24023438,0.24414062,-0.12207031,-0.18310547,0.0,0.0,0.0,-59.886475,61.479492,-31.157227
1766498656094,-0.87939453,-0.41210938,0.24023438,0.24414062,-0.12207031,-0.18310547,0.0,0.0,0.0,-59.82605,61.45752,-31.05835
1766498656183,-0.87939453,-0.41064453,0.23632812,-0.4272461,-0.36621094,0.061035156,0.0,0.0,0.0,-59.82605,61.45752,-31.05835
1766498656194,-0.87939453,-0.41064453,0.23632812,-0.4272461,-0.36621094,0.061035156,0.0,0.0,0.0,-59.75464,61.435547,-30.948486
1766498656282,-0.87939453,-0.4116211,0.23583984,-0.24414062,-0.7324219,0.061035156,0.0,0.0,0.0,-59.75464,61.435547,-30.948486
1766498656294,-0.87939453,-0.4116211,0.23583984,-0.24414062,-0.7324219,0.061035156,0.0,0.0,0.0,-59.710693,61.419067,-30.866089
1766498656382,-0.88183594,-0.41259766,0.23583984,0.24414062,-0.30517578,0.12207031,0.0,0.0,0.0,-59.710693,61.419067,-30.866089
1766498656394,-0.88183594,-0.41259766,0.23583984,0.24414062,-0.30517578,0.12207031,0.0,0.0,0.0,-59.628296,61.3916,-30.739746
1766498656482,-0.87646484,-0.4111328,0.23828125,0.061035156,0.12207031,0.0,0.0,0.0,0.0,-59.628296,61.3916,-30.739746
1766498656493,-0.87646484,-0.4111328,0.23828125,0.061035156,0.12207031,0.0,0.0,0.0,0.0,-59.628296,61.402588,-30.72876
1766498656582,-0.8779297,-0.4140625,0.2397461,0.18310547,-1.2817383,0.061035156,0.0,0.0,0.0,-59.628296,61.402588,-30.72876
1766498656593,-0.8779297,-0.4140625,0.2397461,0.18310547,-1.2817383,0.061035156,0.0,0.0,0.0,-59.573364,61.364136,-30.706787
1766498656681,-0.8774414,-0.41015625,0.24511719,1.2817383,0.48828125,-0.6713867,0.0,0.0,0.0,-59.573364,61.364136,-30.706787
1766498656693,-0.8774414,-0.41015625,0.24511719,1.2817383,0.48828125,-0.6713867,0.0,0.0,0.0,-59.5459,61.331177,-30.706787
1766498656781,-0.87939453,-0.4111328,0.23535156,0.0,0.30517578,0.061035156,0.0,0.0,0.0,-59.5459,61.331177,-30.706787
1766498656792,-0.87939453,-0.4111328,0.23535156,0.0,0.30517578,0.061035156,0.0,0.0,0.0,-59.55139,61.331177,-30.74524
1766498656881,-0.87939453,-0.41308594,0.23730469,-0.30517578,-0.79345703,0.36621094,0.0,0.0,0.0,-59.55139,61.331177,-30.74524
1766498656892,-0.87939453,-0.41308594,0.23730469,-0.30517578,-0.79345703,0.36621094,0.0,0.0,0.0,-59.507446,61.33667,-30.684814
1766498656980,-0.87646484,-0.4140625,0.23876953,0.18310547,0.061035156,-0.24414062,0.0,0.0,0.0,-59.507446,61.33667,-30.684814
1766498656992,-0.87646484,-0.4140625,0.23876953,0.18310547,0.061035156,-0.24414062,0.0,0.0,0.0,-59.49646,61.325684,-30.701294
1766498657080,-0.8769531,-0.41210938,0.23925781,-0.12207031,0.0,0.0,0.0,0.0,0.0,-59.49646,61.325684,-30.701294
1766498657092,-0.8769531,-0.41210938,0.23925781,-0.12207031,0.0,0.0,0.0,0.0,0.0,-59.52942,61.325684,-30.72876
1766498657180,-0.87890625,-0.4111328,0.23925781,0.0,0.061035156,0.0,0.0,0.0,0.0,-59.52942,61.325684,-30.72876
1766498657191,-0.87890625,-0.4111328,0.23925781,0.0,0.061035156,0.0,0.0,0.0,0.0,-59.534912,61.325684,-30.723267
1766498657280,-0.88134766,-0.4140625,0.23632812,0.24414062,0.12207031,0.12207031,0.0,0.0,0.0,-59.534912,61.325684,-30.723267
1766498657291,-0.88134766,-0.4140625,0.23632812,0.24414062,0.12207031,0.12207031,0.0,0.0,0.0,-59.523926,61.325684,-30.717773
1766498657379,-0.8769531,-0.4116211,0.24023438,0.4272461,0.6713867,-0.12207031,0.0,0.0,0.0,-59.523926,61.325684,-30.717773
1766498657391,-0.8769531,-0.4116211,0.24023438,0.4272461,0.6713867,-0.12207031,0.0,0.0,0.0,-59.556885,61.347656,-30.706787
1766498657479,-0.8774414,-0.41210938,0.24121094,0.48828125,-0.5493164,0.0,0.0,0.0,0.0,-59.556885,61.347656,-30.706787
1766498657491,-0.8774414,-0.41210938,0.24121094,0.48828125,-0.5493164,0.0,0.0,0.0,0.0,-59.56787,61.331177,-30.750732
1766498657579,-0.87890625,-0.4111328,0.24414062,0.79345703,0.48828125,-0.36621094,0.0,0.0,0.0,-59.56787,61.331177,-30.750732
1766498657590,-0.87890625,-0.4111328,0.24414062,0.79345703,0.48828125,-0.36621094,0.0,0.0,0.0,-59.573364,61.32019,-30.734253
1766498657679,-0.8769531,-0.41308594,0.23632812,-0.30517578,0.0,0.12207031,0.0,0.0,0.0,-59.573364,61.32019,-30.734253
1766498657690,-0.8769531,-0.41308594,0.23632812,-0.30517578,0.0,0.12207031,0.0,0.0,0.0,-59.595337,61.32019,-30.805664
1766498657778,-0.8798828,-0.4111328,0.23828125,-0.24414062,-0.61035156,0.24414062,0.0,0.0,0.0,-59.595337,61.32019,-30.805664
1766498657790,-0.8798828,-0.4111328,0.23828125,-0.24414062,-0.61035156,0.24414062,0.0,0.0,0.0,-59.578857,61.331177,-30.750732
1766498657878,-0.8808594,-0.41601562,0.23632812,-0.18310547,0.12207031,-0.061035156,0.0,0.0,0.0,-59.578857,61.331177,-30.750732
1766498657890,-0.8808594,-0.41601562,0.23632812,-0.18310547,0.12207031,-0.061035156,0.0,0.0,0.0,-59.573364,61.331177,-30.74524
1766498657978,-0.8828125,-0.42578125,0.22216797,-1.8920898,0.24414062,-0.24414062,0.0,0.0,0.0,-59.573364,61.331177,-30.74524
1766498657989,-0.8828125,-0.42578125,0.22216797,-1.8920898,0.24414062,-0.24414062,0.0,0.0,0.0,-59.82605,61.364136,-30.838623
1766498658077,-0.8901367,-0.40234375,0.23144531,0.061035156,-2.1972656,-1.6479492,0.0,0.0,0.0,-59.82605,61.364136,-30.838623
1766498658089,-0.8901367,-0.40234375,0.23144531,0.061035156,-2.1972656,-1.6479492,0.0,0.0,0.0,-59.848022,61.11145,-30.772705
1766498658177,-0.9042969,-0.42285156,0.25048828,1.0986328,0.8544922,1.2817383,0.0,0.0,0.0,-59.848022,61.11145,-30.772705
1766498658189,-0.9042969,-0.42285156,0.25048828,1.0986328,0.8544922,1.2817383,0.0,0.0,0.0,-59.853516,61.105957,-30.80017
1766498658277,-0.8720703,-0.42041016,0.23730469,-5.1879883,-5.126953,4.9438477,0.0,0.0,0.0,-59.853516,61.105957,-30.80017
1766498658289,-0.8720703,-0.42041016,0.23730469,-5.1879883,-5.126953,4.9438477,0.0,0.0,0.0,-59.33716,61.32019,-30.058594
1766498658377,-0.8881836,-0.40673828,0.25,-0.61035156,-3.479004,0.9765625,0.0,0.0,0.0,-59.33716,61.32019,-30.058594
1766498658389,-0.8881836,-0.40673828,0.25,-0.61035156,-3.479004,0.9765625,0.0,0.0,0.0,-58.721924,61.28174,-29.168701
1766498658477,-0.88378906,-0.3984375,0.2553711,-0.30517578,-0.48828125,1.8920898,0.0,0.0,0.0,-58.721924,61.28174,-29.168701
1766498658488,-0.88378906,-0.3984375,0.2553711,-0.30517578,-0.48828125,1.8920898,0.0,0.0,0.0,-58.271484,61.325684,-28.591919
1766498658576,-0.88964844,-0.40429688,0.2421875,-1.3427734,0.9765625,1.3427734,0.0,0.0,0.0,-58.271484,61.325684,-28.591919
1766498658588,-0.88964844,-0.40429688,0.2421875,-1.3427734,0.9765625,1.3427734,0.0,0.0,0.0,-58.21106,61.479492,-28.531494
1766498658676,-0.88964844,-0.390625,0.23730469,-2.1362305,3.2958984,1.159668,0.0,0.0,0.0,-58.21106,61.479492,-28.531494
1766498658687,-0.88964844,-0.390625,0.23730469,-2.1362305,3.2958984,1.159668,0.0,0.0,0.0,-58.62854,61.72119,-28.806152
1766498658776,-0.90478516,-0.39453125,0.234375,-2.6245117,4.760742,2.5024414,0.0,0.0,0.0,-58.62854,61.72119,-28.806152
1766498658787,-0.90478516,-0.39453125,0.234375,-2.6245117,4.760742,2.5024414,0.0,0.0,0.0,-59.161377,62.094727,-29.207153
1766498658875,-0.8984375,-0.4013672,0.21191406,-1.6479492,5.79834,1.2817383,0.0,0.0,0.0,-59.161377,62.094727,-29.207153
1766498658887,-0.8984375,-0.4013672,0.21191406,-1.6479492,5.79834,1.2817383,0.0,0.0,0.0,-60.007324,62.561646,-29.970703
1766498658975,-0.8857422,-0.39013672,0.20019531,-2.9907227,5.2490234,-0.8544922,0.0,0.0,0.0,-60.007324,62.561646,-29.970703
1766498658986,-0.8857422,-0.39013672,0.20019531,-2.9907227,5.2490234,-0.8544922,0.0,0.0,0.0,-61.089478,62.858276,-30.860596
1766498659075,-0.8886719,-0.40429688,0.18457031,1.4648438,8.056641,-2.2583008,0.0,0.0,0.0,-61.089478,62.858276,-30.860596
1766498659086,-0.8886719,-0.40429688,0.18457031,1.4648438,8.056641,-2.2583008,0.0,0.0,0.0,-62.46277,63.08899,-32.321777
1766498659174,-0.8823242,-0.39208984,0.1953125,-0.36621094,12.023926,-4.333496,0.0,0.0,0.0,-62.46277,63.08899,-32.321777
1766498659186,-0.8823242,-0.39208984,0.1953125,-0.36621094,12.023926,-4.333496,0.0,0.0,0.0,-65.23132,63.22632,-35.31555
1766498659274,-0.89501953,-0.40771484,0.17773438,2.8686523,-0.4272461,-3.6621094,0.0,0.0,0.0,-65.23132,63.22632,-35.31555
1766498659286,-0.89501953,-0.40771484,0.17773438,2.8686523,-0.4272461,-3.6621094,0.0,0.0,0.0,-66.75842,63.10547,-36.990967
1766498659374,-0.8886719,-0.44335938,0.16015625,-1.7700195,8.178711,-1.8310547,0.0,0.0,0.0,-66.75842,63.10547,-36.990967
1766498659385,-0.8886719,-0.44335938,0.16015625,-1.7700195,8.178711,-1.8310547,0.0,0.0,0.0,-67.28577,63.083496,-37.391968
1766498659474,-0.8696289,-0.45996094,0.18115234,-6.8969727,3.479004,-2.746582,0.0,0.0,0.0,-67.28577,63.083496,-37.391968
1766498659485,-0.8696289,-0.45996094,0.18115234,-6.8969727,3.479004,-2.746582,0.0,0.0,0.0,-69.25781,62.891235,-38.952026
1766498659573,-0.9008789,-0.4248047,0.171875,-9.216309,-5.3100586,-4.0283203,0.0,0.0,0.0,-69.25781,62.891235,-38.952026
1766498659585,-0.9008789,-0.4248047,0.171875,-9.216309,-5.3100586,-4.0283203,0.0,0.0,0.0,-70.026855,62.3584,-38.68286
1766498659673,-0.89746094,-0.4038086,0.13867188,-9.70459,4.4555664,0.9765625,0.0,0.0,0.0,-70.026855,62.3584,-38.68286
1766498659685,-0.89746094,-0.4038086,0.13867188,-9.70459,4.4555664,0.9765625,0.0,0.0,0.0,-70.389404,62.1167,-37.957764
1766498659773,-0.90283203,-0.4296875,0.14257812,-11.047363,2.0751953,6.3476562,0.0,0.0,0.0,-70.389404,62.1167,-37.957764
1766498659784,-0.90283203,-0.4296875,0.14257812,-11.047363,2.0751953,6.3476562,0.0,0.0,0.0,-71.96594,62.60559,-38.545532
1766498659872,-0.8930664,-0.42138672,0.13134766,-9.460449,8.666992,2.746582,0.0,0.0,0.0,-71.96594,62.60559,-38.545532
1766498659884,-0.8930664,-0.42138672,0.13134766,-9.460449,8.666992,2.746582,0.0,0.0,0.0,-73.41614,63.204346,-38.99597
1766498659972,-0.89746094,-0.43017578,0.09277344,-2.9907227,4.9438477,-2.380371,0.0,0.0,0.0,-73.41614,63.204346,-38.99597
1766498659984,-0.89746094,-0.43017578,0.09277344,-2.9907227,4.9438477,-2.380371,0.0,0.0,0.0,-74.68506,63.374634,-39.748535
1766498660072,-0.8935547,-0.41064453,0.10644531,-0.48828125,4.5166016,-2.8686523,0.0,0.0,0.0,-74.68506,63.374634,-39.748535
1766498660083,-0.8935547,-0.41064453,0.10644531,-0.48828125,4.5166016,-2.8686523,0.0,0.0,0.0,-76.448364,63.347168,-41.412964
1766498660172,-0.8989258,-0.45117188,0.10107422,-2.5634766,3.7231445,-3.540039,0.0,0.0,0.0,-76.448364,63.347168,-41.412964
1766498660183,-0.8989258,-0.45117188,0.10107422,-2.5634766,3.7231445,-3.540039,0.0,0.0,0.0,-77.06909,63.358154,-41.896362
1766498660271,-0.88671875,-0.41455078,0.08251953,-4.272461,7.6293945,-0.9765625,0.0,0.0,0.0,-77.06909,63.358154,-41.896362
1766498660283,-0.88671875,-0.41455078,0.08251953,-4.272461,7.6293945,-0.9765625,0.0,0.0,0.0,-78.46985,63.116455,-43.033447
1766498660371,-0.88964844,-0.42382812,0.078125,-1.7700195,-0.6713867,3.540039,0.0,0.0,0.0,-78.46985,63.116455,-43.033447
1766498660383,-0.88964844,-0.42382812,0.078125,-1.7700195,-0.6713867,3.540039,0.0,0.0,0.0,-79.23889,63.347168,-43.43445
1766498660471,-0.8876953,-0.41308594,0.061035156,-3.479004,1.6479492,0.8544922,0.0,0.0,0.0,-79.23889,63.347168,-43.43445
1766498660483,-0.8876953,-0.41308594,0.061035156,-3.479004,1.6479492,0.8544922,0.0,0.0,0.0,-79.67285,63.588867,-43.36853
1766498660570,-0.89990234,-0.43847656,0.053222656,2.8686523,0.0,-1.159668,0.0,0.0,0.0,-79.67285,63.588867,-43.36853
1766498660582,-0.89990234,-0.43847656,0.053222656,2.8686523,0.0,-1.159668,0.0,0.0,0.0,-79.7937,63.638306,-43.445435
1766498660670,-0.9003906,-0.41748047,0.06640625,0.91552734,1.6479492,-2.8686523,0.0,0.0,0.0,-79.7937,63.638306,-43.445435
1766498660682,-0.9003906,-0.41748047,0.06640625,0.91552734,1.6479492,-2.8686523,0.0,0.0,0.0,-80.3595,63.462524,-44.071655
1766498660770,-0.8984375,-0.4423828,0.06689453,1.3427734,-0.91552734,-0.12207031,0.0,0.0,0.0,-80.3595,63.462524,-44.071655
1766498660782,-0.8984375,-0.4423828,0.06689453,1.3427734,-0.91552734,-0.12207031,0.0,0.0,0.0,-80.50781,63.462524,-44.263916
1766498660870,-0.89453125,-0.4555664,0.061523438,0.18310547,1.159668,-1.5869141,0.0,0.0,0.0,-80.50781,63.462524,-44.263916
1766498660881,-0.89453125,-0.4555664,0.061523438,0.18310547,1.159668,-1.5869141,0.0,0.0,0.0,-80.40344,63.479004,-44.143066
1766498660970,-0.91064453,-0.4248047,0.052246094,0.0,-0.8544922,-0.91552734,0.0,0.0,0.0,-80.40344,63.479004,-44.143066
1766498660981,-0.91064453,-0.4248047,0.052246094,0.0,-0.8544922,-0.91552734,0.0,0.0,0.0,-80.31006,63.341675,-43.86841
1766498661069,-0.91064453,-0.4345703,0.064453125,1.4038086,-1.7089844,-1.4648438,0.0,0.0,0.0,-80.31006,63.341675,-43.86841
1766498661081,-0.91064453,-0.4345703,0.064453125,1.4038086,-1.7089844,-1.4648438,0.0,0.0,0.0,-80.441895,63.237305,-43.961792
1766498661169,-0.87158203,-0.44433594,0.07714844,-0.48828125,2.5024414,0.61035156,0.0,0.0,0.0,-80.441895,63.237305,-43.961792
1766498661180,-0.87158203,-0.44433594,0.07714844,-0.48828125,2.5024414,0.61035156,0.0,0.0,0.0,-80.963745,63.220825,-44.417725
1766498661269,-0.8886719,-0.43945312,0.046875,1.0986328,3.540039,2.2583008,0.0,0.0,0.0,-80.963745,63.220825,-44.417725
1766498661280,-0.8886719,-0.43945312,0.046875,1.0986328,3.540039,2.2583008,0.0,0.0,0.0,-80.50232,63.26477,-44.038696
1766498661368,-0.92089844,-0.4296875,0.0546875,-0.7324219,-3.7841797,0.5493164,0.0,0.0,0.0,-80.50232,63.26477,-44.038696
1766498661380,-0.92089844,-0.4296875,0.0546875,-0.7324219,-3.7841797,0.5493164,0.0,0.0,0.0,-80.562744,63.347168,-43.989258
1766498661468,-0.89697266,-0.44677734,0.07763672,0.0,-0.12207031,-0.48828125,0.0,0.0,0.0,-80.562744,63.347168,-43.989258
1766498661479,-0.89697266,-0.44677734,0.07763672,0.0,-0.12207031,-0.48828125,0.0,0.0,0.0,-80.859375,63.407593,-44.225464
1766498661568,-0.88671875,-0.42578125,0.06982422,0.79345703,3.112793,1.4038086,0.0,0.0,0.0,-80.859375,63.407593,-44.225464
1766498661579,-0.88671875,-0.42578125,0.06982422,0.79345703,3.112793,1.4038086,0.0,0.0,0.0,-80.787964,63.44055,-44.07715
1766498661667,-0.9042969,-0.44384766,0.05126953,0.61035156,-2.8686523,-1.6479492,0.0,0.0,0.0,-80.787964,63.44055,-44.07715
1766498661679,-0.9042969,-0.44384766,0.05126953,0.61035156,-2.8686523,-1.6479492,0.0,0.0,0.0,-80.24414,63.446045,-43.43445
1766498661767,-0.8935547,-0.4326172,0.07763672,0.79345703,-1.3427734,0.30517578,0.0,0.0,0.0,-80.24414,63.446045,-43.43445
1766498661779,-0.8935547,-0.4326172,0.07763672,0.79345703,-1.3427734,0.30517578,0.0,0.0,0.0,-80.38696,63.500977,-43.555298
1766498661867,-0.8984375,-0.4111328,0.0546875,-0.24414062,0.48828125,0.8544922,0.0,0.0,0.0,-80.38696,63.500977,-43.555298
1766498661878,-0.8984375,-0.4111328,0.0546875,-0.24414062,0.48828125,0.8544922,0.0,0.0,0.0,-80.17822,63.5614,-43.24768
1766498661967,-0.9086914,-0.40771484,0.06640625,-2.8076172,-0.18310547,-0.91552734,0.0,0.0,0.0,-80.17822,63.5614,-43.24768
1766498661978,-0.9086914,-0.40771484,0.06640625,-2.8076172,-0.18310547,-0.91552734,0.0,0.0,0.0,-80.37048,63.59436,-43.236694
1766498662067,-0.90283203,-0.47851562,0.07763672,-1.6479492,-3.7841797,0.8544922,0.0,0.0,0.0,-80.37048,63.59436,-43.236694
1766498662079,-0.90283203,-0.47851562,0.07763672,-1.6479492,-3.7841797,0.8544922,0.0,0.0,0.0,-80.61218,63.74817,-43.242188
1766498662166,-0.88134766,-0.3984375,0.06689453,-2.319336,2.5024414,1.159668,0.0,0.0,0.0,-80.61218,63.74817,-43.242188
1766498662178,-0.88134766,-0.3984375,0.06689453,-2.319336,2.5024414,1.159668,0.0,0.0,0.0,-80.95276,63.6438,-43.19275
1766498662266,-0.9238281,-0.42138672,0.0546875,-1.7089844,-0.24414062,1.6479492,0.0,0.0,0.0,-80.95276,63.6438,-43.19275
1766498662277,-0.9238281,-0.42138672,0.0546875,-1.7089844,-0.24414062,1.6479492,0.0,0.0,0.0,-80.66162,63.808594,-42.736816
1766498662366,-0.89453125,-0.42919922,0.06933594,-0.8544922,0.91552734,1.3427734,0.0,0.0,0.0,-80.66162,63.808594,-42.736816
1766498662377,-0.89453125,-0.42919922,0.06933594,-0.8544922,0.91552734,1.3427734,0.0,0.0,0.0,-81.0791,64.000854,-43.027954
1766498662465,-0.8925781,-0.4086914,0.045898438,0.9765625,2.1972656,0.5493164,0.0,0.0,0.0,-81.0791,64.000854,-43.027954
1766498662477,-0.8925781,-0.4086914,0.045898438,0.9765625,2.1972656,0.5493164,0.0,0.0,0.0,-80.81543,64.02832,-42.747803
1766498662565,-0.9121094,-0.4243164,0.041015625,-0.9765625,-5.1879883,-2.5024414,0.0,0.0,0.0,-80.81543,64.02832,-42.747803
1766498662577,-0.9121094,-0.4243164,0.041015625,-0.9765625,-5.1879883,-2.5024414,0.0,0.0,0.0,-80.617676,64.0448,-42.489624
1766498662665,-0.89404297,-0.4423828,0.087402344,0.6713867,-1.8920898,-0.18310547,0.0,0.0,0.0,-80.617676,64.0448,-42.489624
1766498662676,-0.89404297,-0.4423828,0.087402344,0.6713867,-1.8920898,-0.18310547,0.0,0.0,0.0,-81.02417,64.121704,-42.78076
1766498662764,-0.89404297,-0.43408203,0.05810547,-2.380371,3.9672852,-0.7324219,0.0,0.0,0.0,-81.02417,64.121704,-42.78076
1766498662776,-0.89404297,-0.43408203,0.05810547,-2.380371,3.9672852,-0.7324219,0.0,0.0,0.0,-80.68909,64.08325,-42.478638
1766498662864,-0.9238281,-0.41015625,0.041503906,0.91552734,-3.479004,0.91552734,0.0,0.0,0.0,-80.68909,64.08325,-42.478638
1766498662876,-0.9238281,-0.41015625,0.041503906,0.91552734,-3.479004,0.91552734,0.0,0.0,0.0,-80.73303,64.105225,-42.313843
1766498662964,-0.87060547,-0.43066406,0.09277344,-2.6855469,3.1738281,2.380371,0.0,0.0,0.0,-80.73303,64.105225,-42.313843
1766498662976,-0.87060547,-0.43066406,0.09277344,-2.6855469,3.1738281,2.380371,0.0,0.0,0.0,-81.76575,64.27002,-43.198242
1766498663064,-0.92529297,-0.42871094,0.040039062,-0.91552734,3.7841797,2.319336,0.0,0.0,0.0,-81.76575,64.27002,-43.198242
1766498663075,-0.92529297,-0.42871094,0.040039062,-0.91552734,3.7841797,2.319336,0.0,0.0,0.0,-80.95276,64.313965,-42.335815
1766498663163,-0.91308594,-0.453125,0.063964844,-1.8310547,0.061035156,-1.6479492,0.0,0.0,0.0,-80.95276,64.313965,-42.335815
1766498663175,-0.91308594,-0.453125,0.063964844,-1.8310547,0.061035156,-1.6479492,0.0,0.0,0.0,-82.15576,64.330444,-43.54431
1766498663263,-0.90527344,-0.3959961,0.05517578,1.4038086,5.1879883,4.211426,0.0,0.0,0.0,-82.15576,64.330444,-43.54431
1766498663275,-0.90527344,-0.3959961,0.05517578,1.4038086,5.1879883,4.211426,0.0,0.0,0.0,-83.270874,64.57214,-44.489136
1766498663363,-0.9223633,-0.38232422,0.033203125,3.479004,4.8828125,4.8828125,0.0,0.0,0.0,-83.270874,64.57214,-44.489136
1766498663374,-0.9223633,-0.38232422,0.033203125,3.479004,4.8828125,4.8828125,0.0,0.0,0.0,-82.95227,64.87976,-44.659424
1766498663463,-0.9003906,-0.42041016,0.06640625,5.7373047,4.4555664,6.225586,0.0,0.0,0.0,-82.95227,64.87976,-44.659424
1766498663474,-0.9003906,-0.42041016,0.06640625,5.7373047,4.4555664,6.225586,0.0,0.0,0.0,-83.69385,65.51697,-45.983276
1766498663562,-0.8833008,-0.44433594,0.03173828,-7.3242188,0.61035156,-0.4272461,0.0,0.0,0.0,-83.69385,65.51697,-45.983276
1766498663574,-0.8833008,-0.44433594,0.03173828,-7.3242188,0.61035156,-0.4272461,0.0,0.0,0.0,-83.76526,65.928955,-46.010742
1766498663662,-0.88183594,-0.4453125,0.0087890625,-11.779785,-7.751465,3.4179688,0.0,0.0,0.0,-83.76526,65.928955,-46.010742
1766498663673,-0.88183594,-0.4453125,0.0087890625,-11.779785,-7.751465,3.4179688,0.0,0.0,0.0,-83.776245,65.90149,-44.906616
1766498663762,-0.93310547,-0.33496094,0.030273438,-8.666992,-6.4086914,-1.4648438,0.0,0.0,0.0,-83.776245,65.90149,-44.906616
1766498663774,-0.93310547,-0.33496094,0.030273438,-8.666992,-6.4086914,-1.4648438,0.0,0.0,0.0,-83.446655,65.79712,-43.236694
1766498663861,-0.9321289,-0.3461914,0.057128906,-2.9296875,-2.2583008,4.8828125,0.0,0.0,0.0,-83.446655,65.79712,-43.236694
1766498663873,-0.9321289,-0.3461914,0.057128906,-2.9296875,-2.2583008,4.8828125,0.0,0.0,0.0,-82.85339,66.08276,-42.09961
1766498663961,-0.93310547,-0.43359375,0.038085938,0.5493164,-3.2348633,-0.36621094,0.0,0.0,0.0,-82.85339,66.08276,-42.09961
1766498663973,-0.93310547,-0.43359375,0.038085938,0.5493164,-3.2348633,-0.36621094,0.0,0.0,0.0,-81.76575,66.483765,-41.154785
1766498664061,-0.9082031,-0.31152344,0.0703125,2.380371,-1.0375977,-4.5776367,0.0,0.0,0.0,-81.76575,66.483765,-41.154785
1766498664072,-0.9082031,-0.31152344,0.0703125,2.380371,-1.0375977,-4.5776367,0.0,0.0,0.0,-82.144775,66.03882,-41.517334
1766498664161,-0.94677734,-0.41357422,0.041503906,3.479004,-0.18310547,-4.1503906,0.0,0.0,0.0,-82.144775,66.03882,-41.517334
1766498664172,-0.94677734,-0.41357422,0.041503906,3.479004,-0.18310547,-4.1503906,0.0,0.0,0.0,-81.0022,65.91797,-41.088867
1766498664260,-0.8613281,-0.37939453,0.05078125,1.2207031,0.24414062,0.48828125,0.0,0.0,0.0,-81.0022,65.91797,-41.088867
1766498664272,-0.8613281,-0.37939453,0.05078125,1.2207031,0.24414062,0.48828125,0.0,0.0,0.0,-81.83716,65.857544,-42.176514
1766498664360,-0.8876953,-0.36376953,0.05078125,0.7324219,2.5024414,7.446289,0.0,0.0,0.0,-81.83716,65.857544,-42.176514
1766498664372,-0.8876953,-0.36376953,0.05078125,0.7324219,2.5024414,7.446289,0.0,0.0,0.0,-80.859375,65.357666,-41.412964
1766498664460,-0.9091797,-0.39941406,0.044921875,-3.1738281,-5.554199,-5.2490234,0.0,0.0,0.0,-80.859375,65.357666,-41.412964
1766498664472,-0.9091797,-0.39941406,0.044921875,-3.1738281,-5.554199,-5.2490234,0.0,0.0,0.0,-80.70557,65.703735,-41.083374
1766498664560,-0.9033203,-0.41992188,0.079589844,-3.2348633,3.6621094,-0.5493164,0.0,0.0,0.0,-80.70557,65.703735,-41.083374
1766498664571,-0.9033203,-0.41992188,0.079589844,-3.2348633,3.6621094,-0.5493164,0.0,0.0,0.0,-81.54602,65.56091,-41.59424
1766498664659,-0.9038086,-0.42138672,0.047851562,-4.333496,2.5024414,-1.2817383,0.0,0.0,0.0,-81.54602,65.56091,-41.59424
1766498664671,-0.9038086,-0.42138672,0.047851562,-4.333496,2.5024414,-1.2817383,0.0,0.0,0.0,-82.337036,65.357666,-42.15454
1766498664759,-0.91845703,-0.3984375,0.046875,-1.5869141,4.0283203,0.4272461,0.0,0.0,0.0,-82.337036,65.357666,-42.15454
1766498664771,-0.91845703,-0.3984375,0.046875,-1.5869141,4.0283203,0.4272461,0.0,0.0,0.0,-83.36426,65.36316,-43.016968
1766498664859,-0.9248047,-0.4428711,0.011230469,2.380371,0.61035156,-1.3427734,0.0,0.0,0.0,-83.36426,65.36316,-43.016968
1766498664870,-0.9248047,-0.4428711,0.011230469,2.380371,0.61035156,-1.3427734,0.0,0.0,0.0,-83.61694,65.39612,-43.599243
1766498664958,-0.9199219,-0.32763672,0.032226562,11.901855,4.8217773,-0.6713867,0.0,0.0,0.0,-83.61694,65.39612,-43.599243
1766498664970,-0.9199219,-0.32763672,0.032226562,11.901855,4.8217773,-0.6713867,0.0,0.0,0.0,-84.644165,65.253296,-45.307617
1766498665058,-0.91015625,-0.3984375,0.01171875,22.888184,11.230469,-1.7089844,0.0,0.0,0.0,-84.644165,65.253296,-45.307617
1766498665070,-0.91015625,-0.3984375,0.01171875,22.888184,11.230469,-1.7089844,0.0,0.0,0.0,-84.25415,65.39612,-47.10388
1766498665158,-0.8955078,-0.4423828,0.06347656,14.343262,2.8686523,3.479004,0.0,0.0,0.0,-84.25415,65.39612,-47.10388
1766498665170,-0.8955078,-0.4423828,0.06347656,14.343262,2.8686523,3.479004,0.0,0.0,0.0,-84.75403,65.62683,-49.471436
1766498665258,-0.91503906,-0.40625,0.036132812,3.112793,3.7841797,-3.6621094,0.0,0.0,0.0,-84.75403,65.62683,-49.471436
1766498665269,-0.91503906,-0.40625,0.036132812,3.112793,3.7841797,-3.6621094,0.0,0.0,0.0,-84.03992,65.462036,-49.421997
1766498665357,-0.91845703,-0.41796875,0.026367188,1.4648438,-2.380371,2.5024414,0.0,0.0,0.0,-84.03992,65.462036,-49.421997
1766498665369,-0.91845703,-0.41796875,0.026367188,1.4648438,-2.380371,2.5024414,0.0,0.0,0.0,-83.74878,65.53345,-49.075928
1766498665457,-0.92529297,-0.39990234,0.048339844,1.7700195,0.61035156,-2.0751953,0.0,0.0,0.0,-83.74878,65.53345,-49.075928
1766498665469,-0.92529297,-0.39990234,0.048339844,1.7700195,0.61035156,-2.0751953,0.0,0.0,0.0,-84.089355,65.44556,-49.350586
1766498665557,-0.90625,-0.4111328,0.047851562,2.319336,2.1972656,1.0986328,0.0,0.0,0.0,-84.089355,65.44556,-49.350586
1766498665568,-0.90625,-0.4111328,0.047851562,2.319336,2.1972656,1.0986328,0.0,0.0,0.0,-84.02893,65.494995,-49.361572
1766498665657,-0.91308594,-0.40478516,0.033691406,2.0751953,-0.7324219,-1.7089844,0.0,0.0,0.0,-84.02893,65.494995,-49.361572
1766498665668,-0.91308594,-0.40478516,0.033691406,2.0751953,-0.7324219,-1.7089844,0.0,0.0,0.0,-83.48511,65.39612,-48.80127
1766498665757,-0.9116211,-0.41357422,0.045898438,-2.319336,-1.159668,0.91552734,0.0,0.0,0.0,-83.48511,65.39612,-48.80127
1766498665768,-0.9116211,-0.41357422,0.045898438,-2.319336,-1.159668,0.91552734,0.0,0.0,0.0,-83.50708,65.462036,-48.554077
1766498665856,-0.92822266,-0.37109375,0.052734375,-0.6713867,-1.5869141,0.30517578,0.0,0.0,0.0,-83.50708,65.462036,-48.554077
1766498665868,-0.92822266,-0.37109375,0.052734375,-0.6713867,-1.5869141,0.30517578,0.0,0.0,0.0,-83.47412,65.478516,-48.180542
1766498665956,-0.90185547,-0.4140625,0.04248047,0.0,2.6245117,-0.9765625,0.0,0.0,0.0,-83.47412,65.478516,-48.180542
1766498665967,-0.90185547,-0.4140625,0.04248047,0.0,2.6245117,-0.9765625,0.0,0.0,0.0,-83.07312,65.582886,-47.6532
1766498666056,-0.9140625,-0.40722656,0.04345703,-0.6713867,-0.79345703,-0.18310547,0.0,0.0,0.0,-83.07312,65.582886,-47.6532
1766498666069,-0.9140625,-0.40722656,0.04345703,-0.6713867,-0.79345703,-0.18310547,0.0,0.0,0.0,-82.891846,65.56641,-47.27417
1766498666155,-0.91064453,-0.4086914,0.051757812,-0.48828125,-2.5634766,-1.159668,0.0,0.0,0.0,-82.891846,65.56641,-47.27417
1766498666167,-0.91064453,-0.4086914,0.051757812,-0.48828125,-2.5634766,-1.159668,0.0,0.0,0.0,-82.91382,65.44556,-47.08191
1766498666255,-0.91552734,-0.40820312,0.048828125,-2.2583008,2.0751953,-2.2583008,0.0,0.0,0.0,-82.91382,65.44556,-47.08191
1766498666266,-0.91552734,-0.40820312,0.048828125,-2.2583008,2.0751953,-2.2583008,0.0,0.0,0.0,-82.96326,65.29724,-46.867676
1766498666355,-0.9111328,-0.4008789,0.045410156,-0.36621094,-1.0375977,-3.2348633,0.0,0.0,0.0,-82.96326,65.29724,-46.867676
1766498666366,-0.9111328,-0.4008789,0.045410156,-0.36621094,-1.0375977,-3.2348633,0.0,0.0,0.0,-83.325806,65.044556,-46.922607
1766498666454,-0.9042969,-0.40966797,0.040527344,1.4038086,1.4038086,-0.8544922,0.0,0.0,0.0,-83.325806,65.044556,-46.922607
1766498666466,-0.9042969,-0.40966797,0.040527344,1.4038086,1.4038086,-0.8544922,0.0,0.0,0.0,-83.39172,64.973145,-46.9281
1766498666554,-0.9111328,-0.4243164,0.0390625,1.2207031,0.24414062,1.7700195,0.0,0.0,0.0,-83.39172,64.973145,-46.9281
1766498666566,-0.9111328,-0.4243164,0.0390625,1.2207031,0.24414062,1.7700195,0.0,0.0,0.0,-83.27637,65.05554,-46.89514
1766498666654,-0.8984375,-0.41503906,0.038085938,0.79345703,-0.5493164,-0.79345703,0.0,0.0,0.0,-83.27637,65.05554,-46.89514
1766498666665,-0.8984375,-0.41503906,0.038085938,0.79345703,-0.5493164,-0.79345703,0.0,0.0,0.0,-83.446655,65.13245,-46.933594
1766498666754,-0.9160156,-0.41845703,0.0390625,-2.8076172,-0.91552734,1.0986328,0.0,0.0,0.0,-83.446655,65.13245,-46.933594
1766498666765,-0.9160156,-0.41845703,0.0390625,-2.8076172,-0.91552734,1.0986328,0.0,0.0,0.0,-83.27637,65.15442,-46.46118
1766498666853,-0.92089844,-0.40185547,0.048828125,-1.0986328,0.0,1.2207031,0.0,0.0,0.0,-83.27637,65.15442,-46.46118
1766498666865,-0.92089844,-0.40185547,0.048828125,-1.0986328,0.0,1.2207031,0.0,0.0,0.0,-83.50708,65.29175,-46.345825
1766498666953,-0.90185547,-0.421875,0.05078125,-2.380371,1.159668,1.159668,0.0,0.0,0.0,-83.50708,65.29175,-46.345825
1766498666965,-0.90185547,-0.421875,0.05078125,-2.380371,1.159668,1.159668,0.0,0.0,0.0,-83.8916,65.4126,-46.49414
1766498667053,-0.9194336,-0.40576172,0.03564453,-2.4414062,0.24414062,3.9672852,0.0,0.0,0.0,-83.8916,65.4126,-46.49414
1766498667064,-0.9194336,-0.40576172,0.03564453,-2.4414062,0.24414062,3.9672852,0.0,0.0,0.0,-83.62244,65.65979,-45.791016
1766498667153,-0.9169922,-0.40771484,0.047851562,-0.24414062,-2.6245117,1.3427734,0.0,0.0,0.0,-83.62244,65.65979,-45.791016
1766498667164,-0.9169922,-0.40771484,0.047851562,-0.24414062,-2.6245117,1.3427734,0.0,0.0,0.0,-83.66089,65.90698,-45.604248
1766498667252,-0.9194336,-0.39013672,0.05517578,0.61035156,1.8310547,1.159668,0.0,0.0,0.0,-83.66089,65.90698,-45.604248
1766498667264,-0.9194336,-0.39013672,0.05517578,0.61035156,1.8310547,1.159668,0.0,0.0,0.0,-83.59497,65.961914,-45.50537
1766498667352,-0.92041016,-0.3881836,0.03955078,-1.8310547,-7.385254,4.211426,0.0,0.0,0.0,-83.59497,65.961914,-45.50537
1766498667363,-0.92041016,-0.3881836,0.03955078,-1.8310547,-7.385254,4.211426,0.0,0.0,0.0,-83.18298,66.2146,-45.0
1766498667452,-0.9326172,-0.35498047,0.052246094,1.4038086,4.3945312,2.1362305,0.0,0.0,0.0,-83.18298,66.2146,-45.0
1766498667464,-0.9326172,-0.35498047,0.052246094,1.4038086,4.3945312,2.1362305,0.0,0.0,0.0,-82.595215,66.59363,-44.16504
1766498667551,-0.92578125,-0.38134766,0.040039062,2.319336,-4.638672,0.0,0.0,0.0,0.0,-82.595215,66.59363,-44.16504
1766498667563,-0.92578125,-0.38134766,0.040039062,2.319336,-4.638672,0.0,0.0,0.0,0.0,-82.5238,66.75293,-44.395752
1766498667651,-0.92041016,-0.39257812,0.059570312,0.61035156,2.746582,-0.4272461,0.0,0.0,0.0,-82.5238,66.75293,-44.395752
1766498667663,-0.92041016,-0.39257812,0.059570312,0.61035156,2.746582,-0.4272461,0.0,0.0,0.0,-82.30957,66.73096,-44.263916
1766498667751,-0.9135742,-0.4013672,0.03857422,-1.2817383,-2.1972656,-3.540039,0.0,0.0,0.0,-82.30957,66.73096,-44.263916
1766498667763,-0.9135742,-0.4013672,0.03857422,-1.2817383,-2.1972656,-3.540039,0.0,0.0,0.0,-82.16675,66.52771,-44.121094
1766498667851,-0.9248047,-0.3857422,0.048339844,-4.760742,-4.5166016,-2.1972656,0.0,0.0,0.0,-82.16675,66.52771,-44.121094
1766498667862,-0.9248047,-0.3857422,0.048339844,-4.760742,-4.5166016,-2.1972656,0.0,0.0,0.0,-82.249146,66.14319,-43.758545
1766498667950,-0.9272461,-0.38085938,0.045410156,-0.7324219,0.7324219,-1.0375977,0.0,0.0,0.0,-82.249146,66.14319,-43.758545
1766498667962,-0.9272461,-0.38085938,0.045410156,-0.7324219,0.7324219,-1.0375977,0.0,0.0,0.0,-82.15027,65.95642,-43.357544
1766498668050,-0.9213867,-0.375,0.0546875,3.4179688,3.2958984,2.380371,0.0,0.0,0.0,-82.15027,65.95642,-43.357544
1766498668062,-0.9213867,-0.375,0.0546875,3.4179688,3.2958984,2.380371,0.0,0.0,0.0,-82.50183,66.09924,-43.93982
1766498668150,-0.91308594,-0.43164062,0.048828125,0.18310547,0.0,5.126953,0.0,0.0,0.0,-82.50183,66.09924,-43.93982
1766498668161,-0.91308594,-0.43164062,0.048828125,0.18310547,0.0,5.126953,0.0,0.0,0.0,-82.31506,66.676025,-44.071655
1766498668250,-0.92822266,-0.36523438,0.051757812,-1.4038086,-1.5869141,0.36621094,0.0,0.0,0.0,-82.31506,66.676025,-44.071655
1766498668262,-0.92822266,-0.36523438,0.051757812,-1.4038086,-1.5869141,0.36621094,0.0,0.0,0.0,-82.39746,66.796875,-43.967285
1766498668349,-0.92089844,-0.39160156,0.05126953,-3.2958984,1.159668,-1.2817383,0.0,0.0,0.0,-82.39746,66.796875,-43.967285
1766498668361,-0.92089844,-0.39160156,0.05126953,-3.2958984,1.159668,-1.2817383,0.0,0.0,0.0,-82.337036,66.79138,-43.791504
1766498668449,-0.92529297,-0.3828125,0.041992188,-5.3710938,-0.48828125,-1.4648438,0.0,0.0,0.0,-82.337036,66.79138,-43.791504
1766498668460,-0.92529297,-0.3828125,0.041992188,-5.3710938,-0.48828125,-1.4648438,0.0,0.0,0.0,-82.490845,66.71997,-43.478394
1766498668549,-0.91748047,-0.4033203,0.046875,-4.4555664,-0.91552734,-4.211426,0.0,0.0,0.0,-82.490845,66.71997,-43.478394
1766498668560,-0.91748047,-0.4033203,0.046875,-4.4555664,-0.91552734,-4.211426,0.0,0.0,0.0,-83.12256,66.52222,-43.676147
1766498668648,-0.92041016,-0.4038086,0.05029297,-6.958008,-1.7700195,-2.8076172,0.0,0.0,0.0,-83.12256,66.52222,-43.676147
1766498668660,-0.92041016,-0.4038086,0.05029297,-6.958008,-1.7700195,-2.8076172,0.0,0.0,0.0,-83.38623,66.11572,-43.43994
1766498668748,-0.91503906,-0.3959961,0.04296875,-6.164551,-1.4038086,-5.9814453,0.0,0.0,0.0,-83.38623,66.11572,-43.43994
1766498668760,-0.91503906,-0.3959961,0.04296875,-6.164551,-1.4038086,-5.9814453,0.0,0.0,0.0,-83.64441,65.63782,-43.115845
1766498668848,-0.90625,-0.4086914,0.044921875,-6.4697266,0.061035156,-1.6479492,0.0,0.0,0.0,-83.64441,65.63782,-43.115845
1766498668860,-0.90625,-0.4086914,0.044921875,-6.4697266,0.061035156,-1.6479492,0.0,0.0,0.0,-84.193726,65.253296,-43.19275
1766498668948,-0.9086914,-0.4038086,0.03515625,-5.004883,-2.1362305,0.0,0.0,0.0,0.0,-84.193726,65.253296,-43.19275
1766498668959,-0.9086914,-0.4038086,0.03515625,-5.004883,-2.1362305,0.0,0.0,0.0,0.0,-84.55078,65.20935,-43.132324
1766498669047,-0.92626953,-0.3857422,0.020996094,-2.5634766,0.5493164,-2.0751953,0.0,0.0,0.0,-84.55078,65.20935,-43.132324
1766498669059,-0.92626953,-0.3857422,0.020996094,-2.5634766,0.5493164,-2.0751953,0.0,0.0,0.0,-84.74304,65.13794,-43.077393
1766498669147,-0.8925781,-0.41845703,0.03564453,-0.24414062,3.7841797,-0.6713867,0.0,0.0,0.0,-84.74304,65.13794,-43.077393
1766498669159,-0.8925781,-0.41845703,0.03564453,-0.24414062,3.7841797,-0.6713867,0.0,0.0,0.0,-85.583496,65.13245,-44.071655
1766498669247,-0.9111328,-0.42138672,0.015625,-2.5634766,2.1972656,-0.4272461,0.0,0.0,0.0,-85.583496,65.13245,-44.071655
1766498669258,-0.9111328,-0.42138672,0.015625,-2.5634766,2.1972656,-0.4272461,0.0,0.0,0.0,-85.78125,65.11047,-44.32434
1766498669347,-0.9082031,-0.41357422,0.029785156,-1.0986328,-2.5634766,-0.7324219,0.0,0.0,0.0,-85.78125,65.11047,-44.32434
1766498669359,-0.9082031,-0.41357422,0.029785156,-1.0986328,-2.5634766,-0.7324219,0.0,0.0,0.0,-86.3031,65.028076,-44.82422
1766498669446,-0.90527344,-0.4038086,0.025878906,0.7324219,2.9907227,-1.2817383,0.0,0.0,0.0,-86.3031,65.028076,-44.82422
1766498669458,-0.90527344,-0.4038086,0.025878906,0.7324219,2.9907227,-1.2817383,0.0,0.0,0.0,-86.53381,64.86328,-45.214233
1766498669546,-0.9086914,-0.42041016,0.0087890625,0.18310547,0.8544922,0.18310547,0.0,0.0,0.0,-86.53381,64.86328,-45.214233
1766498669557,-0.9086914,-0.42041016,0.0087890625,0.18310547,0.8544922,0.18310547,0.0,0.0,0.0,-86.51184,64.90173,-45.37903
1766498669646,-0.9091797,-0.4189453,0.021972656,0.7324219,0.61035156,-0.12207031,0.0,0.0,0.0,-86.51184,64.90173,-45.37903
1766498669657,-0.9091797,-0.4189453,0.021972656,0.7324219,0.61035156,-0.12207031,0.0,0.0,0.0,-86.92383,64.885254,-46.02722
1766498669745,-0.90966797,-0.4272461,0.017578125,0.9765625,0.30517578,-0.6713867,0.0,0.0,0.0,-86.92383,64.885254,-46.02722
1766498669757,-0.90966797,-0.4272461,0.017578125,0.9765625,0.30517578,-0.6713867,0.0,0.0,0.0,-86.97876,64.82483,-46.279907
1766498669845,-0.8959961,-0.42089844,0.016601562,0.9765625,1.7700195,-0.61035156,0.0,0.0,0.0,-86.97876,64.82483,-46.279907
1766498669857,-0.8959961,-0.42089844,0.016601562,0.9765625,1.7700195,-0.61035156,0.0,0.0,0.0,-87.20947,64.62158,-46.763306
1766498669945,-0.91064453,-0.41796875,0.010253906,0.6713867,-2.4414062,1.0986328,0.0,0.0,0.0,-87.20947,64.62158,-46.763306
1766498669957,-0.91064453,-0.41796875,0.010253906,0.6713867,-2.4414062,1.0986328,0.0,0.0,0.0,-86.918335,64.69299,-46.516113
1766498670045,-0.9038086,-0.42333984,0.0087890625,0.79345703,0.30517578,0.0,0.0,0.0,0.0,-86.918335,64.69299,-46.516113
1766498670056,-0.9038086,-0.42333984,0.0087890625,0.79345703,0.30517578,0.0,0.0,0.0,0.0,-86.89087,64.72595,-46.636963
1766498670144,-0.9038086,-0.42626953,0.020507812,1.0375977,-2.1972656,0.0,0.0,0.0,0.0,-86.89087,64.72595,-46.636963
1766498670156,-0.9038086,-0.42626953,0.020507812,1.0375977,-2.1972656,0.0,0.0,0.0,0.0,-87.04468,64.77539,-46.91162
1766498670244,-0.90234375,-0.4194336,0.024414062,-0.12207031,1.7089844,-0.6713867,0.0,0.0,0.0,-87.04468,64.77539,-46.91162
1766498670256,-0.90234375,-0.4194336,0.024414062,-0.12207031,1.7089844,-0.6713867,0.0,0.0,0.0,-87.055664,64.731445,-47.026978
1766498670344,-0.9135742,-0.4165039,0.009765625,0.12207031,-1.0375977,0.30517578,0.0,0.0,0.0,-87.055664,64.731445,-47.026978
1766498670356,-0.9135742,-0.4165039,0.009765625,0.12207031,-1.0375977,0.30517578,0.0,0.0,0.0,-86.72058,64.72046,-46.708374
1766498670444,-0.9067383,-0.4189453,0.025390625,-0.30517578,-0.4272461,0.48828125,0.0,0.0,0.0,-86.72058,64.72046,-46.708374
1766498670455,-0.9067383,-0.4189453,0.025390625,-0.30517578,-0.4272461,0.48828125,0.0,0.0,0.0,-86.87439,64.75891,-46.917114
1766498670543,-0.9057617,-0.4140625,0.020019531,0.48828125,1.2817383,0.6713867,0.0,0.0,0.0,-86.87439,64.75891,-46.917114
1766498670555,-0.9057617,-0.4140625,0.020019531,0.48828125,1.2817383,0.6713867,0.0,0.0,0.0,-86.83594,64.83032,-46.955566
1766498670643,-0.9116211,-0.4169922,0.019042969,-0.12207031,-1.2207031,1.2207031,0.0,0.0,0.0,-86.83594,64.83032,-46.955566
1766498670654,-0.9116211,-0.4169922,0.019042969,-0.12207031,-1.2207031,1.2207031,0.0,0.0,0.0,-86.693115,64.973145,-46.85669
1766498670743,-0.9003906,-0.4189453,0.0234375,0.91552734,0.24414062,-0.24414062,0.0,0.0,0.0,-86.693115,64.973145,-46.85669
1766498670755,-0.9003906,-0.4189453,0.0234375,0.91552734,0.24414062,-0.24414062,0.0,0.0,0.0,-86.72058,65.03357,-46.97754
1766498670842,-0.9145508,-0.41601562,0.013671875,-0.30517578,-1.5869141,0.61035156,0.0,0.0,0.0,-86.72058,65.03357,-46.97754
1766498670854,-0.9145508,-0.41601562,0.013671875,-0.30517578,-1.5869141,0.61035156,0.0,0.0,0.0,-86.40747,65.0116,-46.71936
1766498670942,-0.9057617,-0.41308594,0.028320312,0.61035156,-1.2207031,0.30517578,0.0,0.0,0.0,-86.40747,65.0116,-46.71936
1766498670954,-0.9057617,-0.41308594,0.028320312,0.61035156,-1.2207031,0.30517578,0.0,0.0,0.0,-86.61621,65.05554,-46.972046
1766498671042,-0.90771484,-0.40966797,0.028320312,-0.36621094,0.8544922,0.0,0.0,0.0,0.0,-86.61621,65.05554,-46.972046
1766498671053,-0.90771484,-0.40966797,0.028320312,-0.36621094,0.8544922,0.0,0.0,0.0,0.0,-86.6272,65.10498,-47.01599
1766498671142,-0.91308594,-0.41455078,0.018554688,-0.30517578,-0.36621094,0.30517578,0.0,0.0,0.0,-86.6272,65.10498,-47.01599
1766498671153,-0.91308594,-0.41455078,0.018554688,-0.30517578,-0.36621094,0.30517578,0.0,0.0,0.0,-86.412964,65.15991,-46.796265
1766498671241,-0.9057617,-0.4140625,0.022949219,-0.061035156,0.79345703,0.12207031,0.0,0.0,0.0,-86.412964,65.15991,-46.796265
1766498671253,-0.9057617,-0.4140625,0.022949219,-0.061035156,0.79345703,0.12207031,0.0,0.0,0.0,-86.58325,65.15442,-47.037964
1766498671341,-0.9169922,-0.41064453,0.016601562,0.48828125,-0.061035156,0.36621094,0.0,0.0,0.0,-86.58325,65.15442,-47.037964
1766498671353,-0.9169922,-0.41064453,0.016601562,0.48828125,-0.061035156,0.36621094,0.0,0.0,0.0,-86.53931,65.21484,-47.026978
1766498671441,-0.9082031,-0.41308594,0.025390625,0.061035156,0.4272461,-0.12207031,0.0,0.0,0.0,-86.53931,65.21484,-47.026978
1766498671452,-0.9082031,-0.41308594,0.025390625,0.061035156,0.4272461,-0.12207031,0.0,0.0,0.0,-86.67114,65.22034,-47.230225
1766498671541,-0.9086914,-0.4086914,0.024414062,-0.12207031,0.30517578,0.12207031,0.0,0.0,0.0,-86.67114,65.22034,-47.230225
1766498671552,-0.9086914,-0.4086914,0.024414062,-0.12207031,0.30517578,0.12207031,0.0,0.0,0.0,-86.676636,65.23132,-47.213745
1766498671640,-0.9145508,-0.41064453,0.017089844,-0.12207031,-2.4414062,0.18310547,0.0,0.0,0.0,-86.676636,65.23132,-47.213745
1766498671652,-0.9145508,-0.41064453,0.017089844,-0.12207031,-2.4414062,0.18310547,0.0,0.0,0.0,-86.48987,65.20935,-47.03247
1766498671740,-0.9082031,-0.40771484,0.029296875,0.5493164,-0.61035156,-0.48828125,0.0,0.0,0.0,-86.48987,65.20935,-47.03247
1766498671752,-0.9082031,-0.40771484,0.029296875,0.5493164,-0.61035156,-0.48828125,0.0,0.0,0.0,-86.59973,65.198364,-47.164307
1766498671840,-0.90527344,-0.40478516,0.022949219,-0.36621094,2.5634766,-1.0375977,0.0,0.0,0.0,-86.59973,65.198364,-47.164307
1766498671851,-0.90527344,-0.40478516,0.022949219,-0.36621094,2.5634766,-1.0375977,0.0,0.0,0.0,-86.63818,65.12146,-47.29065
1766498671939,-0.9169922,-0.41015625,0.016601562,-0.12207031,-2.5024414,1.0375977,0.0,0.0,0.0,-86.63818,65.12146,-47.29065
1766498671951,-0.9169922,-0.41015625,0.016601562,-0.12207031,-2.5024414,1.0375977,0.0,0.0,0.0,-86.56677,65.21484,-47.180786
1766498672039,-0.9057617,-0.4165039,0.0234375,0.4272461,1.6479492,-0.48828125,0.0,0.0,0.0,-86.56677,65.21484,-47.180786
1766498672051,-0.9057617,-0.4165039,0.0234375,0.4272461,1.6479492,-0.48828125,0.0,0.0,0.0,-86.709595,65.23682,-47.406006
1766498672139,-0.91259766,-0.41357422,0.019042969,-0.30517578,0.6713867,-0.6713867,0.0,0.0,0.0,-86.709595,65.23682,-47.406006
1766498672150,-0.91259766,-0.41357422,0.019042969,-0.30517578,0.6713867,-0.6713867,0.0,0.0,0.0,-86.77002,65.17639,-47.51587
1766498672239,-0.9111328,-0.41015625,0.022949219,-0.48828125,-0.12207031,-0.18310547,0.0,0.0,0.0,-86.77002,65.17639,-47.51587
1766498672250,-0.9111328,-0.41015625,0.022949219,-0.48828125,-0.12207031,-0.18310547,0.0,0.0,0.0,-86.989746,65.13245,-47.713623
1766498672339,-0.9135742,-0.41015625,0.023925781,-2.0141602,1.0986328,0.36621094,0.0,0.0,0.0,-86.989746,65.13245,-47.713623
1766498672350,-0.9135742,-0.41015625,0.023925781,-2.0141602,1.0986328,0.36621094,0.0,0.0,0.0,-87.01172,65.148926,-47.702637
1766498672438,-0.91503906,-0.41748047,0.019042969,-1.2817383,-0.24414062,0.12207031,0.0,0.0,0.0,-87.01172,65.148926,-47.702637
1766498672450,-0.91503906,-0.41748047,0.019042969,-1.2817383,-0.24414062,0.12207031,0.0,0.0,0.0,-87.09961,65.12695,-47.790527
1766498672538,-0.91259766,-0.41064453,0.021484375,-0.5493164,1.8920898,0.0,0.0,0.0,0.0,-87.09961,65.12695,-47.790527
1766498672550,-0.91259766,-0.41064453,0.021484375,-0.5493164,1.8920898,0.0,0.0,0.0,0.0,-87.09961,65.18738,-47.70813
1766498672638,-0.9116211,-0.4189453,0.0146484375,-0.8544922,0.12207031,1.4038086,0.0,0.0,0.0,-87.09961,65.18738,-47.70813
1766498672649,-0.9116211,-0.4189453,0.0146484375,-0.8544922,0.12207031,1.4038086,0.0,0.0,0.0,-87.19299,65.18738,-47.878418
1766498672737,-0.91064453,-0.41210938,0.0126953125,0.30517578,-0.8544922,0.6713867,0.0,0.0,0.0,-87.19299,65.18738,-47.878418
1766498672749,-0.91064453,-0.41210938,0.0126953125,0.30517578,-0.8544922,0.6713867,0.0,0.0,0.0,-87.1875,65.28076,-47.850952
1766498672837,-0.9116211,-0.40722656,0.0126953125,-0.061035156,1.2207031,-0.061035156,0.0,0.0,0.0,-87.1875,65.28076,-47.850952
1766498672849,-0.9116211,-0.40722656,0.0126953125,-0.061035156,1.2207031,-0.061035156,0.0,0.0,0.0,-87.319336,65.319214,-48.026733
1766498672937,-0.90966797,-0.40429688,0.016601562,-1.0375977,-0.61035156,1.2207031,0.0,0.0,0.0,-87.319336,65.319214,-48.026733
1766498672949,-0.90966797,-0.40429688,0.016601562,-1.0375977,-0.61035156,1.2207031,0.0,0.0,0.0,-87.61047,65.42908,-48.290405
1766498673037,-0.9057617,-0.4091797,0.016113281,-1.5869141,1.2207031,1.7089844,0.0,0.0,0.0,-87.61047,65.42908,-48.290405
1766498673049,-0.9057617,-0.4091797,0.016113281,-1.5869141,1.2207031,1.7089844,0.0,0.0,0.0,-87.70386,65.6488,-48.31787
1766498673137,-0.92041016,-0.4008789,0.009277344,-0.48828125,-2.0751953,6.3476562,0.0,0.0,0.0,-87.70386,65.6488,-48.31787
1766498673148,-0.92041016,-0.4008789,0.009277344,-0.48828125,-2.0751953,6.3476562,0.0,0.0,0.0,-87.71484,66.02234,-48.224487
1766498673236,-0.9086914,-0.39501953,0.009765625,3.2348633,3.2958984,5.554199,0.0,0.0,0.0,-87.71484,66.02234,-48.224487
1766498673248,-0.9086914,-0.39501953,0.009765625,3.2348633,3.2958984,5.554199,0.0,0.0,0.0,-87.63794,66.571655,-48.306885
1766498673336,-0.9199219,-0.38867188,-4.8828125E-4,1.8310547,-1.2817383,2.2583008,0.0,0.0,0.0,-87.63794,66.571655,-48.306885
1766498673347,-0.9199219,-0.38867188,-4.8828125E-4,1.8310547,-1.2817383,2.2583008,0.0,0.0,0.0,-87.39075,66.99463,-48.169556
1766498673436,-0.9321289,-0.36572266,0.009765625,3.2348633,0.0,4.4555664,0.0,0.0,0.0,-87.39075,66.99463,-48.169556
1766498673447,-0.9321289,-0.36572266,0.009765625,3.2348633,0.0,4.4555664,0.0,0.0,0.0,-87.489624,67.38464,-48.444214
1766498673535,-0.9165039,-0.38867188,0.013183594,2.9296875,3.2348633,3.8452148,0.0,0.0,0.0,-87.489624,67.38464,-48.444214
1766498673547,-0.9165039,-0.38867188,0.013183594,2.9296875,3.2348633,3.8452148,0.0,0.0,0.0,-87.41272,67.785645,-48.812256
1766498673635,-0.92626953,-0.37060547,0.0126953125,1.159668,-1.7700195,2.2583008,0.0,0.0,0.0,-87.41272,67.785645,-48.812256
1766498673647,-0.92626953,-0.37060547,0.0126953125,1.159668,-1.7700195,2.2583008,0.0,0.0,0.0,-87.06665,68.03833,-48.565063
1766498673735,-0.94189453,-0.35253906,0.021972656,4.0283203,-1.0986328,1.8920898,0.0,0.0,0.0,-87.06665,68.03833,-48.565063
1766498673746,-0.94189453,-0.35253906,0.021972656,4.0283203,-1.0986328,1.8920898,0.0,0.0,0.0,-86.44592,68.19763,-48.153076
1766498673834,-0.9321289,-0.35839844,0.024902344,2.6245117,-2.1362305,1.4648438,0.0,0.0,0.0,-86.44592,68.19763,-48.153076
1766498673846,-0.9321289,-0.35839844,0.024902344,2.6245117,-2.1362305,1.4648438,0.0,0.0,0.0,-85.8197,68.36243,-47.730103
1766498673934,-0.93310547,-0.35351562,0.028320312,2.9907227,-2.319336,2.746582,0.0,0.0,0.0,-85.8197,68.36243,-47.730103
1766498673946,-0.93310547,-0.35351562,0.028320312,2.9907227,-2.319336,2.746582,0.0,0.0,0.0,-84.9353,68.60962,-46.983032
1766498674034,-0.9301758,-0.35351562,0.041503906,2.0141602,-2.2583008,3.7841797,0.0,0.0,0.0,-84.9353,68.60962,-46.983032
1766498674045,-0.9301758,-0.35351562,0.041503906,2.0141602,-2.2583008,3.7841797,0.0,0.0,0.0,-83.95203,68.89526,-46.192017
1766498674134,-0.9345703,-0.34179688,0.048339844,3.479004,-7.080078,3.0517578,0.0,0.0,0.0,-83.95203,68.89526,-46.192017
1766498674146,-0.9345703,-0.34179688,0.048339844,3.479004,-7.080078,3.0517578,0.0,0.0,0.0,-82.402954,69.13147,-44.8407
1766498674233,-0.93066406,-0.3564453,0.07128906,0.91552734,-5.126953,-0.91552734,0.0,0.0,0.0,-82.402954,69.13147,-44.8407
1766498674245,-0.93066406,-0.3564453,0.07128906,0.91552734,-5.126953,-0.91552734,0.0,0.0,0.0,-80.20569,69.37866,-42.626953
1766498674334,-0.95751953,-0.35302734,0.072753906,7.446289,-6.4697266,3.6010742,0.0,0.0,0.0,-80.20569,69.37866,-42.626953
1766498674345,-0.95751953,-0.35302734,0.072753906,7.446289,-6.4697266,3.6010742,0.0,0.0,0.0,-77.34375,69.24133,-40.341797
1766498674433,-0.93896484,-0.32177734,0.095214844,4.760742,-3.1738281,-1.8310547,0.0,0.0,0.0,-77.34375,69.24133,-40.341797
1766498674444,-0.93896484,-0.32177734,0.095214844,4.760742,-3.1738281,-1.8310547,0.0,0.0,0.0,-76.61316,69.08203,-40.05066
1766498674533,-0.9399414,-0.33496094,0.096191406,4.8217773,-0.36621094,-3.4179688,0.0,0.0,0.0,-76.61316,69.08203,-40.05066
1766498674544,-0.9399414,-0.33496094,0.096191406,4.8217773,-0.36621094,-3.4179688,0.0,0.0,0.0,-75.580444,68.88977,-39.396973
1766498674632,-0.93896484,-0.34228516,0.095703125,3.8452148,-2.0751953,-0.9765625,0.0,0.0,0.0,-75.580444,68.88977,-39.396973
1766498674644,-0.93896484,-0.34228516,0.095703125,3.8452148,-2.0751953,-0.9765625,0.0,0.0,0.0,-74.679565,68.604126,-38.858643
1766498674732,-0.93359375,-0.35058594,0.111816406,-1.5258789,-3.6621094,-0.9765625,0.0,0.0,0.0,-74.679565,68.604126,-38.858643
1766498674744,-0.93359375,-0.35058594,0.111816406,-1.5258789,-3.6621094,-0.9765625,0.0,0.0,0.0,-74.11377,68.499756,-38.215942
1766498674832,-0.9399414,-0.34033203,0.099609375,-0.91552734,-0.36621094,-0.12207031,0.0,0.0,0.0,-74.11377,68.499756,-38.215942
1766498674844,-0.9399414,-0.34033203,0.099609375,-0.91552734,-0.36621094,-0.12207031,0.0,0.0,0.0,-73.602905,68.40088,-37.48535
1766498674932,-0.93115234,-0.359375,0.106933594,1.7700195,0.0,-0.7324219,0.0,0.0,0.0,-73.602905,68.40088,-37.48535
1766498674943,-0.93115234,-0.359375,0.106933594,1.7700195,0.0,-0.7324219,0.0,0.0,0.0,-73.526,68.37891,-37.51831
1766498675031,-0.93066406,-0.34960938,0.1015625,0.5493164,1.5869141,-0.61035156,0.0,0.0,0.0,-73.526,68.37891,-37.51831
1766498675043,-0.93066406,-0.34960938,0.1015625,0.5493164,1.5869141,-0.61035156,0.0,0.0,0.0,-73.42163,68.302,-37.468872
1766498675131,-0.93408203,-0.3515625,0.099609375,-0.79345703,-1.4038086,0.61035156,0.0,0.0,0.0,-73.42163,68.302,-37.468872
1766498675143,-0.93408203,-0.3515625,0.099609375,-0.79345703,-1.4038086,0.61035156,0.0,0.0,0.0,-73.48755,68.307495,-37.452393
1766498675231,-0.9321289,-0.33935547,0.10888672,-0.48828125,0.8544922,-0.061035156,0.0,0.0,0.0,-73.48755,68.307495,-37.452393
1766498675242,-0.9321289,-0.33935547,0.10888672,-0.48828125,0.8544922,-0.061035156,0.0,0.0,0.0,-73.740234,68.37891,-37.51831
1766498675331,-0.93652344,-0.34326172,0.099121094,-0.24414062,3.4179688,-0.30517578,0.0,0.0,0.0,-73.740234,68.37891,-37.51831
1766498675342,-0.93652344,-0.34326172,0.099121094,-0.24414062,3.4179688,-0.30517578,0.0,0.0,0.0,-73.85559,68.43933,-37.556763
1766498675430,-0.93603516,-0.3491211,0.09277344,0.12207031,0.18310547,-0.061035156,0.0,0.0,0.0,-73.85559,68.43933,-37.556763
1766498675442,-0.93603516,-0.3491211,0.09277344,0.12207031,0.18310547,-0.061035156,0.0,0.0,0.0,-74.020386,68.45032,-37.732544
1766498675530,-0.93310547,-0.3466797,0.103027344,-0.061035156,1.0375977,0.36621094,0.0,0.0,0.0,-74.020386,68.45032,-37.732544
1766498675541,-0.93310547,-0.3466797,0.103027344,-0.061035156,1.0375977,0.36621094,0.0,0.0,0.0,-74.52576,68.50525,-38.221436
1766498675630,-0.9316406,-0.34423828,0.09667969,0.0,0.48828125,0.12207031,0.0,0.0,0.0,-74.52576,68.50525,-38.221436
1766498675642,-0.9316406,-0.34423828,0.09667969,0.0,0.48828125,0.12207031,0.0,0.0,0.0,-74.800415,68.53821,-38.45764
1766498675729,-0.9321289,-0.34960938,0.08886719,0.8544922,1.7700195,-0.8544922,0.0,0.0,0.0,-74.800415,68.53821,-38.45764
1766498675741,-0.9321289,-0.34960938,0.08886719,0.8544922,1.7700195,-0.8544922,0.0,0.0,0.0,-74.992676,68.58765,-38.589478
1766498675829,-0.93652344,-0.35107422,0.083496094,-0.061035156,-1.5258789,0.79345703,0.0,0.0,0.0,-74.992676,68.58765,-38.589478
1766498675841,-0.93652344,-0.35107422,0.083496094,-0.061035156,-1.5258789,0.79345703,0.0,0.0,0.0,-74.992676,68.565674,-38.55652
1766498675929,-0.9296875,-0.3466797,0.09667969,0.24414062,-0.36621094,0.36621094,0.0,0.0,0.0,-74.992676,68.565674,-38.55652
1766498675940,-0.9296875,-0.3466797,0.09667969,0.24414062,-0.36621094,0.36621094,0.0,0.0,0.0,-75.4541,68.620605,-38.979492
1766498676029,-0.9355469,-0.34423828,0.092285156,-1.4038086,3.2958984,-0.12207031,0.0,0.0,0.0,-75.4541,68.620605,-38.979492
1766498676040,-0.9355469,-0.34423828,0.092285156,-1.4038086,3.2958984,-0.12207031,0.0,0.0,0.0,-75.805664,68.66455,-39.243164
1766498676128,-0.93408203,-0.34326172,0.078125,-0.5493164,1.953125,-0.12207031,0.0,0.0,0.0,-75.805664,68.66455,-39.243164
1766498676140,-0.93408203,-0.34326172,0.078125,-0.5493164,1.953125,-0.12207031,0.0,0.0,0.0,-76.21216,68.708496,-39.506836
1766498676228,-0.93066406,-0.3408203,0.0859375,-0.24414062,0.9765625,-0.18310547,0.0,0.0,0.0,-76.21216,68.708496,-39.506836
1766498676239,-0.93066406,-0.3408203,0.0859375,-0.24414062,0.9765625,-0.18310547,0.0,0.0,0.0,-76.71753,68.741455,-39.96277
1766498676328,-0.93603516,-0.34472656,0.079589844,0.48828125,1.5869141,-0.061035156,0.0,0.0,0.0,-76.71753,68.741455,-39.96277
1766498676339,-0.93603516,-0.34472656,0.079589844,0.48828125,1.5869141,-0.061035156,0.0,0.0,0.0,-76.82739,68.76343,-40.08362
1766498676427,-0.93652344,-0.35009766,0.072753906,0.12207031,-0.061035156,0.30517578,0.0,0.0,0.0,-76.82739,68.76343,-40.08362
1766498676439,-0.93652344,-0.35009766,0.072753906,0.12207031,-0.061035156,0.30517578,0.0,0.0,0.0,-76.95923,68.80188,-40.237427
1766498676527,-0.92089844,-0.34570312,0.083496094,0.91552734,1.5258789,-0.6713867,0.0,0.0,0.0,-76.95923,68.80188,-40.237427
1766498676539,-0.92089844,-0.34570312,0.083496094,0.91552734,1.5258789,-0.6713867,0.0,0.0,0.0,-77.387695,68.82385,-40.583496
1766498676627,-0.94091797,-0.3461914,0.06982422,0.61035156,-1.8310547,0.48828125,0.0,0.0,0.0,-77.387695,68.82385,-40.583496
1766498676638,-0.94091797,-0.3461914,0.06982422,0.61035156,-1.8310547,0.48828125,0.0,0.0,0.0,-77.02515,68.7854,-40.133057
1766498676727,-0.92578125,-0.35009766,0.088378906,-0.36621094,-0.9765625,0.61035156,0.0,0.0,0.0,-77.02515,68.7854,-40.133057
1766498676738,-0.92578125,-0.35009766,0.088378906,-0.36621094,-0.9765625,0.61035156,0.0,0.0,0.0,-77.31079,68.80737,-40.424194
1766498676827,-0.93359375,-0.34277344,0.08203125,0.0,2.1972656,-0.24414062,0.0,0.0,0.0,-77.31079,68.80737,-40.424194
1766498676838,-0.93359375,-0.34277344,0.08203125,0.0,2.1972656,-0.24414062,0.0,0.0,0.0,-77.283325,68.84033,-40.29236
1766498676926,-0.93652344,-0.34716797,0.06640625,0.0,-0.6713867,0.61035156,0.0,0.0,0.0,-77.283325,68.84033,-40.29236
1766498676938,-0.93652344,-0.34716797,0.06640625,0.0,-0.6713867,0.61035156,0.0,0.0,0.0,-77.21741,68.8678,-40.177002
1766498677026,-0.9379883,-0.3466797,0.078125,0.18310547,-0.30517578,0.24414062,0.0,0.0,0.0,-77.21741,68.8678,-40.177002
1766498677037,-0.9379883,-0.3466797,0.078125,0.18310547,-0.30517578,0.24414062,0.0,0.0,0.0,-77.4646,68.88977,-40.429688
1766498677126,-0.9350586,-0.3461914,0.07421875,0.061035156,1.4038086,-0.12207031,0.0,0.0,0.0,-77.4646,68.88977,-40.429688
1766498677137,-0.9350586,-0.3461914,0.07421875,0.061035156,1.4038086,-0.12207031,0.0,0.0,0.0,-77.475586,68.88428,-40.440674
1766498677225,-0.93310547,-0.34960938,0.07519531,0.4272461,-0.061035156,0.0,0.0,0.0,0.0,-77.475586,68.88428,-40.440674
1766498677237,-0.93310547,-0.34960938,0.07519531,0.4272461,-0.061035156,0.0,0.0,0.0,0.0,-77.58545,68.87329,-40.545044
1766498677325,-0.9345703,-0.34326172,0.08203125,1.4038086,1.2817383,-0.061035156,0.0,0.0,0.0,-77.58545,68.87329,-40.545044
1766498677337,-0.9345703,-0.34326172,0.08203125,1.4038086,1.2817383,-0.061035156,0.0,0.0,0.0,-77.612915,68.88428,-40.528564
1766498677425,-0.93896484,-0.3466797,0.071777344,-1.0986328,-4.5166016,1.2207031,0.0,0.0,0.0,-77.612915,68.88428,-40.528564
1766498677436,-0.93896484,-0.3466797,0.071777344,-1.0986328,-4.5166016,1.2207031,0.0,0.0,0.0,-77.56348,68.87329,-40.46814
1766498677524,-0.9350586,-0.3383789,0.080078125,1.159668,2.5024414,-0.7324219,0.0,0.0,0.0,-77.56348,68.87329,-40.46814
1766498677536,-0.9350586,-0.3383789,0.080078125,1.159668,2.5024414,-0.7324219,0.0,0.0,0.0,-77.56897,68.90076,-40.369263
1766498677624,-0.93847656,-0.34228516,0.06982422,-0.24414062,0.061035156,-0.48828125,0.0,0.0,0.0,-77.56897,68.90076,-40.369263
1766498677636,-0.93847656,-0.34228516,0.06982422,-0.24414062,0.061035156,-0.48828125,0.0,0.0,0.0,-77.541504,68.8678,-40.385742
1766498677724,-0.9379883,-0.3461914,0.076171875,-0.30517578,-1.0375977,-0.24414062,0.0,0.0,0.0,-77.541504,68.8678,-40.385742
1766498677736,-0.9379883,-0.3461914,0.076171875,-0.30517578,-1.0375977,-0.24414062,0.0,0.0,0.0,-77.56897,68.84033,-40.39673
1766498677824,-0.93408203,-0.34521484,0.07421875,0.5493164,0.91552734,-0.61035156,0.0,0.0,0.0,-77.56897,68.84033,-40.39673
1766498677835,-0.93408203,-0.34521484,0.07421875,0.5493164,0.91552734,-0.61035156,0.0,0.0,0.0,-77.67334,68.80188,-40.50659
1766498677924,-0.9321289,-0.35791016,0.07080078,-0.6713867,-1.953125,1.3427734,0.0,0.0,0.0,-77.67334,68.80188,-40.50659
1766498677935,-0.9321289,-0.35791016,0.07080078,-0.6713867,-1.953125,1.3427734,0.0,0.0,0.0,-77.33826,68.829346,-40.111084
1766498678023,-0.9345703,-0.34814453,0.07763672,-1.4038086,-1.5258789,0.91552734,0.0,0.0,0.0,-77.33826,68.829346,-40.111084
1766498678035,-0.9345703,-0.34814453,0.07763672,-1.4038086,-1.5258789,0.91552734,0.0,0.0,0.0,-77.091064,68.89526,-39.660645
1766498678123,-0.9404297,-0.3466797,0.07080078,-0.18310547,-0.8544922,0.7324219,0.0,0.0,0.0,-77.091064,68.89526,-39.660645
1766498678134,-0.9404297,-0.3466797,0.07080078,-0.18310547,-0.8544922,0.7324219,0.0,0.0,0.0,-76.78894,68.92822,-39.243164
1766498678223,-0.93603516,-0.3413086,0.08886719,0.24414062,-0.36621094,-0.8544922,0.0,0.0,0.0,-76.78894,68.92822,-39.243164
1766498678234,-0.93603516,-0.3413086,0.08886719,0.24414062,-0.36621094,-0.8544922,0.0,0.0,0.0,-76.744995,68.91174,-39.23767
1766498678322,-0.9375,-0.34033203,0.08154297,-0.061035156,0.91552734,-0.48828125,0.0,0.0,0.0,-76.744995,68.91174,-39.23767
1766498678334,-0.9375,-0.34033203,0.08154297,-0.061035156,0.91552734,-0.48828125,0.0,0.0,0.0,-76.32202,68.88977,-38.798218
1766498678422,-0.93896484,-0.34326172,0.07861328,0.30517578,-1.7089844,0.48828125,0.0,0.0,0.0,-76.32202,68.88977,-38.798218
1766498678434,-0.93896484,-0.34326172,0.07861328,0.30517578,-1.7089844,0.48828125,0.0,0.0,0.0,-76.21216,68.88428,-38.710327
1766498678522,-0.93310547,-0.35546875,0.08886719,-1.2207031,1.0986328,1.0375977,0.0,0.0,0.0,-76.21216,68.88428,-38.710327
1766498678533,-0.93310547,-0.35546875,0.08886719,-1.2207031,1.0986328,1.0375977,0.0,0.0,0.0,-76.35498,68.983154,-38.82019
1766498678621,-0.9423828,-0.3334961,0.08105469,0.0,0.6713867,-0.30517578,0.0,0.0,0.0,-76.35498,68.983154,-38.82019
1766498678633,-0.9423828,-0.3334961,0.08105469,0.0,0.6713867,-0.30517578,0.0,0.0,0.0,-76.22864,68.983154,-38.59497
1766498678721,-0.9321289,-0.34716797,0.08642578,0.61035156,0.6713867,-0.5493164,0.0,0.0,0.0,-76.22864,68.983154,-38.59497
1766498678733,-0.9321289,-0.34716797,0.08642578,0.61035156,0.6713867,-0.5493164,0.0,0.0,0.0,-76.59668,68.966675,-39.105835
1766498678821,-0.9375,-0.33984375,0.07861328,-0.061035156,0.9765625,-0.061035156,0.0,0.0,0.0,-76.59668,68.966675,-39.105835
1766498678833,-0.9375,-0.33984375,0.07861328,-0.061035156,0.9765625,-0.061035156,0.0,0.0,0.0,-76.712036,68.950195,-39.22119
1766498678920,-0.9321289,-0.34228516,0.080078125,-0.061035156,1.159668,0.48828125,0.0,0.0,0.0,-76.712036,68.950195,-39.22119
1766498678932,-0.9321289,-0.34228516,0.080078125,-0.061035156,1.159668,0.48828125,0.0,0.0,0.0,-76.9043,69.03259,-39.375
1766498679020,-0.9350586,-0.33789062,0.083496094,0.0,0.48828125,0.0,0.0,0.0,0.0,-76.9043,69.03259,-39.375
1766498679032,-0.9350586,-0.33789062,0.083496094,0.0,0.48828125,0.0,0.0,0.0,0.0,-77.03064,69.1095,-39.413452
1766498679120,-0.9370117,-0.34765625,0.07080078,0.8544922,-2.8076172,0.7324219,0.0,0.0,0.0,-77.03064,69.1095,-39.413452
1766498679131,-0.9370117,-0.34765625,0.07080078,0.8544922,-2.8076172,0.7324219,0.0,0.0,0.0,-76.79993,69.087524,-39.23767
1766498679220,-0.93359375,-0.3383789,0.083984375,-0.24414062,0.6713867,0.30517578,0.0,0.0,0.0,-76.79993,69.087524,-39.23767
1766498679231,-0.93359375,-0.3383789,0.083984375,-0.24414062,0.6713867,0.30517578,0.0,0.0,0.0,-76.9043,69.11499,-39.309082
1766498679319,-0.93847656,-0.33935547,0.07421875,-1.159668,1.2817383,0.12207031,0.0,0.0,0.0,-76.9043,69.11499,-39.309082
1766498679331,-0.93847656,-0.33935547,0.07421875,-1.159668,1.2817383,0.12207031,0.0,0.0,0.0,-76.744995,69.142456,-39.105835
1766498679419,-0.93896484,-0.3413086,0.076660156,0.0,-2.0141602,0.79345703,0.0,0.0,0.0,-76.744995,69.142456,-39.105835
1766498679431,-0.93896484,-0.3413086,0.076660156,0.0,-2.0141602,0.79345703,0.0,0.0,0.0,-76.72302,69.175415,-39.039917
1766498679519,-0.93652344,-0.33691406,0.083984375,0.61035156,1.7700195,-0.8544922,0.0,0.0,0.0,-76.72302,69.175415,-39.039917
1766498679531,-0.93652344,-0.33691406,0.083984375,0.61035156,1.7700195,-0.8544922,0.0,0.0,0.0,-77.03613,69.175415,-39.402466
1766498679619,-0.94140625,-0.3388672,0.07128906,0.5493164,1.5258789,-0.6713867,0.0,0.0,0.0,-77.03613,69.175415,-39.402466
1766498679630,-0.94140625,-0.3388672,0.07128906,0.5493164,1.5258789,-0.6713867,0.0,0.0,0.0,-76.97571,69.142456,-39.39148
1766498679718,-0.93603516,-0.3388672,0.076171875,0.48828125,-0.5493164,-0.24414062,0.0,0.0,0.0,-76.97571,69.142456,-39.39148
1766498679730,-0.93603516,-0.3388672,0.076171875,0.48828125,-0.5493164,-0.24414062,0.0,0.0,0.0,-77.21741,69.13147,-39.693604
1766498679818,-0.9399414,-0.34277344,0.072753906,-0.18310547,-0.12207031,0.18310547,0.0,0.0,0.0,-77.21741,69.13147,-39.693604
1766498679830,-0.9399414,-0.34277344,0.072753906,-0.18310547,-0.12207031,0.18310547,0.0,0.0,0.0,-77.24487,69.14795,-39.743042
1766498679918,-0.92626953,-0.34423828,0.07519531,1.3427734,0.30517578,-1.159668,0.0,0.0,0.0,-77.24487,69.14795,-39.743042
1766498679929,-0.92626953,-0.34423828,0.07519531,1.3427734,0.30517578,-1.159668,0.0,0.0,0.0,-77.36023,69.142456,-39.89685
1766498680017,-0.94384766,-0.34960938,0.0625,-0.30517578,-0.24414062,0.0,0.0,0.0,0.0,-77.36023,69.142456,-39.89685
1766498680029,-0.94384766,-0.34960938,0.0625,-0.30517578,-0.24414062,0.0,0.0,0.0,0.0,-76.78894,69.06555,-39.32556
1766498680117,-0.93408203,-0.34521484,0.080078125,0.9765625,-2.1972656,0.0,0.0,0.0,0.0,-76.78894,69.06555,-39.32556
1766498680129,-0.93408203,-0.34521484,0.080078125,0.9765625,-2.1972656,0.0,0.0,0.0,0.0,-77.145996,69.04358,-39.710083
1766498680217,-0.9321289,-0.34277344,0.087890625,-0.061035156,0.79345703,0.12207031,0.0,0.0,0.0,-77.145996,69.04358,-39.710083
1766498680228,-0.9321289,-0.34277344,0.087890625,-0.061035156,0.79345703,0.12207031,0.0,0.0,0.0,-77.195435,69.038086,-39.75403
1766498680317,-0.93896484,-0.34472656,0.07128906,0.0,1.5258789,0.061035156,0.0,0.0,0.0,-77.195435,69.038086,-39.75403
1766498680328,-0.93896484,-0.34472656,0.07128906,0.0,1.5258789,0.061035156,0.0,0.0,0.0,-76.8988,69.06006,-39.396973
1766498680416,-0.93652344,-0.34375,0.07373047,-0.061035156,-0.5493164,0.061035156,0.0,0.0,0.0,-76.8988,69.06006,-39.396973
1766498680428,-0.93652344,-0.34375,0.07373047,-0.061035156,-0.5493164,0.061035156,0.0,0.0,0.0,-77.08008,69.07654,-39.578247
1766498680516,-0.9345703,-0.33740234,0.08203125,-0.12207031,-0.18310547,-0.061035156,0.0,0.0,0.0,-77.08008,69.07654,-39.578247
1766498680527,-0.9345703,-0.33740234,0.08203125,-0.12207031,-0.18310547,-0.061035156,0.0,0.0,0.0,-77.178955,69.07654,-39.65515
1766498680616,-0.93603516,-0.3408203,0.08154297,-0.61035156,1.0375977,0.36621094,0.0,0.0,0.0,-77.178955,69.07654,-39.65515
1766498680627,-0.93603516,-0.3408203,0.08154297,-0.61035156,1.0375977,0.36621094,0.0,0.0,0.0,-77.13501,69.104004,-39.561768
1766498680715,-0.9399414,-0.3383789,0.076171875,-1.2817383,0.12207031,0.18310547,0.0,0.0,0.0,-77.13501,69.104004,-39.561768
1766498680727,-0.9399414,-0.3383789,0.076171875,-1.2817383,0.12207031,0.18310547,0.0,0.0,0.0,-77.145996,69.15344,-39.52881
1766498680815,-0.9404297,-0.33789062,0.08496094,0.12207031,-1.953125,0.0,0.0,0.0,0.0,-77.145996,69.15344,-39.52881
1766498680827,-0.9404297,-0.33789062,0.08496094,0.12207031,-1.953125,0.0,0.0,0.0,0.0,-77.17346,69.13147,-39.594727
1766498680915,-0.93359375,-0.3359375,0.08691406,0.6713867,4.211426,-1.2207031,0.0,0.0,0.0,-77.17346,69.13147,-39.594727
1766498680927,-0.93359375,-0.3359375,0.08691406,0.6713867,4.211426,-1.2207031,0.0,0.0,0.0,-76.86035,69.14795,-39.232178
1766498681015,-0.94384766,-0.34423828,0.068847656,0.61035156,0.0,-0.4272461,0.0,0.0,0.0,-76.86035,69.14795,-39.232178
1766498681027,-0.94384766,-0.34423828,0.068847656,0.61035156,0.0,-0.4272461,0.0,0.0,0.0,-76.88782,69.11499,-39.347534
1766498681114,-0.93310547,-0.34228516,0.080566406,0.0,-1.4038086,0.18310547,0.0,0.0,0.0,-76.88782,69.11499,-39.347534
1766498681126,-0.93310547,-0.34228516,0.080566406,0.0,-1.4038086,0.18310547,0.0,0.0,0.0,-77.162476,69.104004,-39.666138
1766498681214,-0.9370117,-0.34326172,0.07763672,0.36621094,2.9907227,-0.48828125,0.0,0.0,0.0,-77.162476,69.104004,-39.666138
1766498681226,-0.9370117,-0.34326172,0.07763672,0.36621094,2.9907227,-0.48828125,0.0,0.0,0.0,-77.09656,69.13147,-39.58374
1766498681314,-0.93847656,-0.34423828,0.068847656,-0.36621094,-0.24414062,0.18310547,0.0,0.0,0.0,-77.09656,69.13147,-39.58374
1766498681325,-0.93847656,-0.34423828,0.068847656,-0.36621094,-0.24414062,0.18310547,0.0,0.0,0.0,-77.25037,69.142456,-39.726562
1766498681413,-0.9345703,-0.34033203,0.07519531,0.0,0.0,0.061035156,0.0,0.0,0.0,-77.25037,69.142456,-39.726562
1766498681425,-0.9345703,-0.34033203,0.07519531,0.0,0.0,0.061035156,0.0,0.0,0.0,-77.51953,69.16992,-39.973755
1766498681513,-0.93847656,-0.3408203,0.072753906,1.0986328,0.9765625,-0.4272461,0.0,0.0,0.0,-77.51953,69.16992,-39.973755
1766498681525,-0.93847656,-0.3408203,0.072753906,1.0986328,0.9765625,-0.4272461,0.0,0.0,0.0,-77.51404,69.175415,-39.995728
1766498681613,-0.93359375,-0.3413086,0.080566406,1.2207031,0.9765625,-0.061035156,0.0,0.0,0.0,-77.51404,69.175415,-39.995728
1766498681625,-0.93359375,-0.3413086,0.080566406,1.2207031,0.9765625,-0.061035156,0.0,0.0,0.0,-77.61841,69.191895,-40.116577
1766498681713,-0.94189453,-0.34228516,0.06933594,-0.12207031,-3.540039,0.91552734,0.0,0.0,0.0,-77.61841,69.191895,-40.116577
1766498681724,-0.94189453,-0.34228516,0.06933594,-0.12207031,-3.540039,0.91552734,0.0,0.0,0.0,-77.579956,69.14795,-40.133057
1766498681812,-0.93066406,-0.3408203,0.079589844,0.18310547,1.7700195,-0.12207031,0.0,0.0,0.0,-77.579956,69.14795,-40.133057
1766498681824,-0.93066406,-0.3408203,0.079589844,0.18310547,1.7700195,-0.12207031,0.0,0.0,0.0,-77.579956,69.208374,-40.06714
1766498681912,-0.94384766,-0.34375,0.063964844,-0.12207031,-0.8544922,0.0,0.0,0.0,0.0,-77.579956,69.208374,-40.06714
1766498681924,-0.94384766,-0.34375,0.063964844,-0.12207031,-0.8544922,0.0,0.0,0.0,0.0,-77.32178,69.19739,-39.79248
1766498682012,-0.9350586,-0.3408203,0.076171875,-0.61035156,-2.5024414,0.48828125,0.0,0.0,0.0,-77.32178,69.19739,-39.79248
1766498682023,-0.9350586,-0.3408203,0.076171875,-0.61035156,-2.5024414,0.48828125,0.0,0.0,0.0,-77.43713,69.19739,-39.874878
1766498682111,-0.93847656,-0.34228516,0.076171875,0.12207031,1.5869141,-0.18310547,0.0,0.0,0.0,-77.43713,69.19739,-39.874878
1766498682123,-0.93847656,-0.34228516,0.076171875,0.12207031,1.5869141,-0.18310547,0.0,0.0,0.0,-77.492065,69.208374,-39.918823
1766498682211,-0.9375,-0.3413086,0.06982422,-0.061035156,-0.7324219,0.36621094,0.0,0.0,0.0,-77.492065,69.208374,-39.918823
1766498682223,-0.9375,-0.3413086,0.06982422,-0.061035156,-0.7324219,0.36621094,0.0,0.0,0.0,-77.39319,69.22485,-39.797974
1766498682311,-0.93603516,-0.33984375,0.078125,0.061035156,-0.36621094,-0.061035156,0.0,0.0,0.0,-77.39319,69.22485,-39.797974
1766498682322,-0.93603516,-0.33984375,0.078125,0.061035156,-0.36621094,-0.061035156,0.0,0.0,0.0,-77.48108,69.22485,-39.874878
1766498682411,-0.9379883,-0.33789062,0.076171875,0.7324219,1.2817383,-0.6713867,0.0,0.0,0.0,-77.48108,69.22485,-39.874878
1766498682423,-0.9379883,-0.33789062,0.076171875,0.7324219,1.2817383,-0.6713867,0.0,0.0,0.0,-77.47009,69.208374,-39.86389
1766498682510,-0.9321289,-0.34179688,0.080078125,1.953125,0.7324219,-0.30517578,0.0,0.0,0.0,-77.47009,69.208374,-39.86389
1766498682522,-0.9321289,-0.34179688,0.080078125,1.953125,0.7324219,-0.30517578,0.0,0.0,0.0,-77.58545,69.21936,-40.028687
1766498682610,-0.94140625,-0.34423828,0.06542969,-0.61035156,-3.2348633,1.2817383,0.0,0.0,0.0,-77.58545,69.21936,-40.028687
1766498682622,-0.94140625,-0.34423828,0.06542969,-0.61035156,-3.2348633,1.2817383,0.0,0.0,0.0,-77.2229,69.208374,-39.64966
1766498682710,-0.9321289,-0.33935547,0.080566406,0.061035156,0.4272461,0.24414062,0.0,0.0,0.0,-77.2229,69.208374,-39.64966
1766498682721,-0.9321289,-0.33935547,0.080566406,0.061035156,0.4272461,0.24414062,0.0,0.0,0.0,-77.43713,69.279785,-39.84192
1766498682810,-0.94091797,-0.3359375,0.0703125,-0.6713867,1.2817383,0.0,0.0,0.0,0.0,-77.43713,69.279785,-39.84192
1766498682821,-0.94091797,-0.3359375,0.0703125,-0.6713867,1.2817383,0.0,0.0,0.0,0.0,-77.35474,69.28528,-39.732056
1766498682909,-0.9355469,-0.33984375,0.07373047,-0.12207031,-1.0986328,0.30517578,0.0,0.0,0.0,-77.35474,69.28528,-39.732056
1766498682921,-0.9355469,-0.33984375,0.07373047,-0.12207031,-1.0986328,0.30517578,0.0,0.0,0.0,-77.41516,69.28528,-39.797974
1766498683009,-0.93896484,-0.33740234,0.07470703,0.18310547,1.0375977,-0.30517578,0.0,0.0,0.0,-77.41516,69.28528,-39.797974
1766498683020,-0.93896484,-0.33740234,0.07470703,0.18310547,1.0375977,-0.30517578,0.0,0.0,0.0,-77.64038,69.29077,-40.03418
1766498683109,-0.93652344,-0.33984375,0.068847656,-0.5493164,-0.48828125,0.48828125,0.0,0.0,0.0,-77.64038,69.29077,-40.03418
1766498683120,-0.93652344,-0.33984375,0.068847656,-0.5493164,-0.48828125,0.48828125,0.0,0.0,0.0,-77.612915,69.312744,-39.979248
1766498683208,-0.94091797,-0.34033203,0.07373047,-0.12207031,0.24414062,0.24414062,0.0,0.0,0.0,-77.612915,69.312744,-39.979248
1766498683220,-0.94091797,-0.34033203,0.07373047,-0.12207031,0.24414062,0.24414062,0.0,0.0,0.0,-77.579956,69.35669,-39.902344
1766498683308,-0.94189453,-0.3388672,0.06982422,0.48828125,-0.061035156,0.12207031,0.0,0.0,0.0,-77.579956,69.35669,-39.902344
1766498683320,-0.94189453,-0.3388672,0.06982422,0.48828125,-0.061035156,0.12207031,0.0,0.0,0.0,-77.700806,69.39514,-40.028687
1766498683408,-0.9326172,-0.34179688,0.06738281,1.8920898,1.0986328,-1.3427734,0.0,0.0,0.0,-77.700806,69.39514,-40.028687
1766498683419,-0.9326172,-0.34179688,0.06738281,1.8920898,1.0986328,-1.3427734,0.0,0.0,0.0,-77.96448,69.367676,-40.36377
1766498683508,-0.94433594,-0.34326172,0.060546875,-1.159668,-2.0141602,0.91552734,0.0,0.0,0.0,-77.96448,69.367676,-40.36377
1766498683519,-0.94433594,-0.34326172,0.060546875,-1.159668,-2.0141602,0.91552734,0.0,0.0,0.0,-77.51953,69.32922,-39.86389
1766498683607,-0.9345703,-0.3413086,0.078125,0.30517578,-1.3427734,0.4272461,0.0,0.0,0.0,-77.51953,69.32922,-39.86389
1766498683619,-0.9345703,-0.3413086,0.078125,0.30517578,-1.3427734,0.4272461,0.0,0.0,0.0,-77.8656,69.3512,-40.231934
1766498683707,-0.9321289,-0.33984375,0.078125,-0.061035156,1.6479492,-0.36621094,0.0,0.0,0.0,-77.8656,69.3512,-40.231934
1766498683719,-0.9321289,-0.33984375,0.078125,-0.061035156,1.6479492,-0.36621094,0.0,0.0,0.0,-77.948,69.34021,-40.29236
1766498683807,-0.94384766,-0.34472656,0.059570312,-1.2207031,0.0,-0.061035156,0.0,0.0,0.0,-77.948,69.34021,-40.29236
1766498683818,-0.94384766,-0.34472656,0.059570312,-1.2207031,0.0,-0.061035156,0.0,0.0,0.0,-77.750244,69.33472,-39.973755
1766498683907,-0.9345703,-0.33935547,0.072265625,0.24414062,-0.6713867,-0.12207031,0.0,0.0,0.0,-77.750244,69.33472,-39.973755
1766498683918,-0.9345703,-0.33935547,0.072265625,0.24414062,-0.6713867,-0.12207031,0.0,0.0,0.0,-78.030396,69.30176,-40.220947
1766498684006,-0.93652344,-0.3408203,0.07324219,0.91552734,0.6713867,-0.36621094,0.0,0.0,0.0,-78.030396,69.30176,-40.220947
1766498684018,-0.93652344,-0.3408203,0.07324219,0.91552734,0.6713867,-0.36621094,0.0,0.0,0.0,-78.07434,69.296265,-40.341797
1766498684106,-0.93603516,-0.34033203,0.07373047,0.4272461,0.8544922,-0.61035156,0.0,0.0,0.0,-78.07434,69.296265,-40.341797
1766498684118,-0.93603516,-0.34033203,0.07373047,0.4272461,0.8544922,-0.61035156,0.0,0.0,0.0,-78.09631,69.27429,-40.43518
1766498684206,-0.94189453,-0.33740234,0.06738281,-0.79345703,1.3427734,-0.24414062,0.0,0.0,0.0,-78.09631,69.27429,-40.43518
1766498684218,-0.94189453,-0.33740234,0.06738281,-0.79345703,1.3427734,-0.24414062,0.0,0.0,0.0,-78.2666,69.263306,-40.610962
1766498684306,-0.94677734,-0.33544922,0.0703125,-0.79345703,-1.8920898,0.6713867,0.0,0.0,0.0,-78.2666,69.263306,-40.610962
1766498684317,-0.94677734,-0.33544922,0.0703125,-0.79345703,-1.8920898,0.6713867,0.0,0.0,0.0,-78.4259,69.25232,-40.81421
1766498684405,-0.9277344,-0.3413086,0.078125,-0.24414062,1.2207031,-0.12207031,0.0,0.0,0.0,-78.4259,69.25232,-40.81421
1766498684417,-0.9277344,-0.3413086,0.078125,-0.24414062,1.2207031,-0.12207031,0.0,0.0,0.0,-78.6676,69.32373,-41.02295
1766498684505,-0.93603516,-0.34033203,0.06738281,-0.18310547,1.5258789,-0.48828125,0.0,0.0,0.0,-78.6676,69.32373,-41.02295
1766498684517,-0.93603516,-0.34033203,0.06738281,-0.18310547,1.5258789,-0.48828125,0.0,0.0,0.0,-78.71155,69.31824,-41.050415
1766498684604,-0.93847656,-0.3383789,0.06542969,0.36621094,-0.36621094,-0.18310547,0.0,0.0,0.0,-78.71155,69.31824,-41.050415
1766498684616,-0.93847656,-0.3383789,0.06542969,0.36621094,-0.36621094,-0.18310547,0.0,0.0,0.0,-78.78296,69.30176,-41.116333
1766498684704,-0.9404297,-0.34228516,0.06591797,0.12207031,1.4038086,-0.24414062,0.0,0.0,0.0,-78.78296,69.30176,-41.116333
1766498684716,-0.9404297,-0.34228516,0.06591797,0.12207031,1.4038086,-0.24414062,0.0,0.0,0.0,-78.84338,69.30725,-41.209717
1766498684804,-0.9428711,-0.34179688,0.060058594,0.12207031,1.2817383,-0.061035156,0.0,0.0,0.0,-78.84338,69.30725,-41.209717
1766498684815,-0.9428711,-0.34179688,0.060058594,0.12207031,1.2817383,-0.061035156,0.0,0.0,0.0,-78.898315,69.32922,-41.24817
1766498684904,-0.9379883,-0.34179688,0.063964844,0.12207031,0.8544922,-0.12207031,0.0,0.0,0.0,-78.898315,69.32922,-41.24817
1766498684915,-0.9379883,-0.34179688,0.063964844,0.12207031,0.8544922,-0.12207031,0.0,0.0,0.0,-79.41467,69.34021,-41.797485
1766498685003,-0.9394531,-0.34326172,0.06201172,0.36621094,0.36621094,-0.12207031,0.0,0.0,0.0,-79.41467,69.34021,-41.797485
1766498685015,-0.9394531,-0.34326172,0.06201172,0.36621094,0.36621094,-0.12207031,0.0,0.0,0.0,-79.661865,69.3457,-42.05017
1766498685103,-0.9316406,-0.34375,0.05859375,1.0375977,1.7089844,-0.8544922,0.0,0.0,0.0,-79.661865,69.3457,-42.05017
1766498685115,-0.9316406,-0.34375,0.05859375,1.0375977,1.7089844,-0.8544922,0.0,0.0,0.0,-79.815674,69.36218,-42.192993
1766498685203,-0.94384766,-0.3486328,0.045898438,-0.6713867,-2.0141602,1.4648438,0.0,0.0,0.0,-79.815674,69.36218,-42.192993
1766498685214,-0.94384766,-0.3486328,0.045898438,-0.6713867,-2.0141602,1.4648438,0.0,0.0,0.0,-79.40369,69.35669,-41.75354
1766498685302,-0.9321289,-0.34228516,0.068847656,-0.061035156,-1.159668,0.61035156,0.0,0.0,0.0,-79.40369,69.35669,-41.75354
1766498685314,-0.9321289,-0.34228516,0.068847656,-0.061035156,-1.159668,0.61035156,0.0,0.0,0.0,-79.89258,69.39514,-42.23694
1766498685403,-0.93847656,-0.3413086,0.064941406,0.061035156,1.6479492,0.061035156,0.0,0.0,0.0,-79.89258,69.39514,-42.23694
1766498685414,-0.93847656,-0.3413086,0.064941406,0.061035156,1.6479492,0.061035156,0.0,0.0,0.0,-79.70032,69.40613,-41.99524
1766498685502,-0.94091797,-0.34033203,0.052246094,0.0,-0.061035156,0.24414062,0.0,0.0,0.0,-79.70032,69.40613,-41.99524
1766498685514,-0.94091797,-0.34033203,0.052246094,0.0,-0.061035156,0.24414062,0.0,0.0,0.0,-79.62341,69.4281,-41.868896
1766498685602,-0.93603516,-0.34179688,0.06347656,0.12207031,-0.48828125,0.18310547,0.0,0.0,0.0,-79.62341,69.4281,-41.868896
1766498685613,-0.93603516,-0.34179688,0.06347656,0.12207031,-0.48828125,0.18310547,0.0,0.0,0.0,-79.91455,69.44458,-42.160034
1766498685701,-0.93847656,-0.33789062,0.061035156,0.12207031,1.159668,-0.12207031,0.0,0.0,0.0,-79.91455,69.44458,-42.160034
1766498685713,-0.93847656,-0.33789062,0.061035156,0.12207031,1.159668,-0.12207031,0.0,0.0,0.0,-79.81018,69.46106,-42.022705
1766498685801,-0.93896484,-0.33984375,0.05859375,-0.061035156,0.061035156,-0.12207031,0.0,0.0,0.0,-79.81018,69.46106,-42.022705
1766498685813,-0.93896484,-0.33984375,0.05859375,-0.061035156,0.061035156,-0.12207031,0.0,0.0,0.0,-79.76074,69.46106,-41.956787
1766498685901,-0.93896484,-0.33544922,0.06689453,-1.6479492,1.159668,0.18310547,0.0,0.0,0.0,-79.76074,69.46106,-41.956787
1766498685912,-0.93896484,-0.33544922,0.06689453,-1.6479492,1.159668,0.18310547,0.0,0.0,0.0,-79.8761,69.45557,-42.072144
1766498686000,-0.9399414,-0.33544922,0.06738281,0.36621094,-0.30517578,-0.30517578,0.0,0.0,0.0,-79.8761,69.45557,-42.072144
1766498686012,-0.9399414,-0.33544922,0.06738281,0.36621094,-0.30517578,-0.30517578,0.0,0.0,0.0,-79.953,69.43359,-42.17102
1766498686100,-0.9370117,-0.33642578,0.064941406,0.79345703,3.3569336,-0.79345703,0.0,0.0,0.0,-79.953,69.43359,-42.17102
1766498686112,-0.9370117,-0.33642578,0.064941406,0.79345703,3.3569336,-0.79345703,0.0,0.0,0.0,-79.694824,69.48303,-41.830444
1766498686200,-0.9433594,-0.3413086,0.056152344,0.5493164,-1.953125,-0.061035156,0.0,0.0,0.0,-79.694824,69.48303,-41.830444
1766498686212,-0.9433594,-0.3413086,0.056152344,0.5493164,-1.953125,-0.061035156,0.0,0.0,0.0,-79.6344,69.47754,-41.781006
1766498686300,-0.93652344,-0.33740234,0.063964844,-0.061035156,0.18310547,-0.30517578,0.0,0.0,0.0,-79.6344,69.47754,-41.781006
1766498686311,-0.93652344,-0.33740234,0.063964844,-0.061035156,0.18310547,-0.30517578,0.0,0.0,0.0,-79.870605,69.472046,-41.989746
1766498686399,-0.9433594,-0.33984375,0.05419922,0.061035156,1.3427734,-0.48828125,0.0,0.0,0.0,-79.870605,69.472046,-41.989746
1766498686411,-0.9433594,-0.33984375,0.05419922,0.061035156,1.3427734,-0.48828125,0.0,0.0,0.0,-79.694824,69.47754,-41.775513
1766498686499,-0.9394531,-0.34228516,0.057617188,0.0,-0.9765625,0.061035156,0.0,0.0,0.0,-79.694824,69.47754,-41.775513
1766498686511,-0.9394531,-0.34228516,0.057617188,0.0,-0.9765625,0.061035156,0.0,0.0,0.0,-79.72778,69.47754,-41.80847
1766498686599,-0.93847656,-0.34033203,0.06347656,0.61035156,0.30517578,-0.18310547,0.0,0.0,0.0,-79.72778,69.47754,-41.80847
1766498686611,-0.93847656,-0.34033203,0.06347656,0.61035156,0.30517578,-0.18310547,0.0,0.0,0.0,-79.77173,69.488525,-41.863403
1766498686698,-0.93847656,-0.34033203,0.061035156,0.48828125,0.18310547,-0.12207031,0.0,0.0,0.0,-79.77173,69.488525,-41.863403
1766498686711,-0.93847656,-0.34033203,0.061035156,0.48828125,0.18310547,-0.12207031,0.0,0.0,0.0,-79.65088,69.47754,-41.731567
1766498686798,-0.9350586,-0.33789062,0.06982422,1.7089844,0.91552734,-0.48828125,0.0,0.0,0.0,-79.65088,69.47754,-41.731567
1766498686810,-0.9350586,-0.33789062,0.06982422,1.7089844,0.91552734,-0.48828125,0.0,0.0,0.0,-79.661865,69.472046,-41.73706
1766498686898,-0.9433594,-0.34179688,0.052734375,0.0,-3.0517578,0.9765625,0.0,0.0,0.0,-79.661865,69.472046,-41.73706
1766498686910,-0.9433594,-0.34179688,0.052734375,0.0,-3.0517578,0.9765625,0.0,0.0,0.0,-79.27734,69.44458,-41.380005
1766498686998,-0.93408203,-0.3383789,0.06640625,0.61035156,0.30517578,-0.24414062,0.0,0.0,0.0,-79.27734,69.44458,-41.380005
1766498687010,-0.93408203,-0.3383789,0.06640625,0.61035156,0.30517578,-0.24414062,0.0,0.0,0.0,-79.51355,69.46106,-41.63269
1766498687097,-0.93896484,-0.3388672,0.061035156,-0.48828125,1.5869141,-0.24414062,0.0,0.0,0.0,-79.51355,69.46106,-41.63269
1766498687109,-0.93896484,-0.3388672,0.061035156,-0.48828125,1.5869141,-0.24414062,0.0,0.0,0.0,-79.33777,69.44458,-41.44043
1766498687197,-0.94140625,-0.33935547,0.059570312,-0.24414062,-1.5869141,0.36621094,0.0,0.0,0.0,-79.33777,69.44458,-41.44043
1766498687209,-0.94140625,-0.33935547,0.059570312,-0.24414062,-1.5869141,0.36621094,0.0,0.0,0.0,-79.151,69.4281,-41.23169
1766498687297,-0.9345703,-0.34521484,0.06591797,0.79345703,-0.061035156,-0.12207031,0.0,0.0,0.0,-79.151,69.4281,-41.23169
1766498687308,-0.9345703,-0.34521484,0.06591797,0.79345703,-0.061035156,-0.12207031,0.0,0.0,0.0,-79.28833,69.417114,-41.451416
1766498687397,-0.9423828,-0.33544922,0.061523438,-0.12207031,0.4272461,-0.30517578,0.0,0.0,0.0,-79.28833,69.417114,-41.451416
1766498687408,-0.9423828,-0.33544922,0.061523438,-0.12207031,0.4272461,-0.30517578,0.0,0.0,0.0,-79.26636,69.39514,-41.412964
1766498687496,-0.9355469,-0.3359375,0.061035156,-0.24414062,0.7324219,0.12207031,0.0,0.0,0.0,-79.26636,69.39514,-41.412964
1766498687508,-0.9355469,-0.3359375,0.061035156,-0.24414062,0.7324219,0.12207031,0.0,0.0,0.0,-79.34326,69.40613,-41.467896
1766498687596,-0.9423828,-0.34375,0.052734375,-0.18310547,-1.6479492,0.30517578,0.0,0.0,0.0,-79.34326,69.40613,-41.467896
1766498687607,-0.9423828,-0.34375,0.052734375,-0.18310547,-1.6479492,0.30517578,0.0,0.0,0.0,-79.21692,69.43359,-41.31958
1766498687696,-0.9350586,-0.3413086,0.06982422,-0.5493164,-0.18310547,-0.61035156,0.0,0.0,0.0,-79.21692,69.43359,-41.31958
1766498687707,-0.9350586,-0.3413086,0.06982422,-0.5493164,-0.18310547,-0.61035156,0.0,0.0,0.0,-79.40369,69.417114,-41.533813
1766498687795,-0.9458008,-0.34277344,0.057128906,-0.61035156,0.18310547,0.0,0.0,0.0,0.0,-79.40369,69.417114,-41.533813
