timestamp,accX,accY,accZ,gyroX,gyroY,gyroZ,magX,magY,magZ,roll,pitch,yaw
1769245725168,-0.63378906,-0.05517578,-0.7788086,0.61035156,0.18310547,-0.48828125,0.0,0.0,0.0,-175.3363,38.83667,164.21265
1769245725179,-0.63378906,-0.05517578,-0.7788086,0.61035156,0.18310547,-0.48828125,0.0,0.0,0.0,-175.20996,38.88611,164.28406
1769245725267,-0.6333008,-0.05908203,-0.7753906,0.7324219,0.61035156,-0.24414062,0.0,0.0,0.0,-175.20996,38.88611,164.28406
1769245725279,-0.6333008,-0.05908203,-0.7753906,0.7324219,0.61035156,-0.24414062,0.0,0.0,0.0,-175.13306,38.825684,164.29504
1769245725369,-0.6303711,-0.05908203,-0.77734375,0.91552734,2.319336,-0.61035156,0.0,0.0,0.0,-175.13306,38.825684,164.29504
1769245725379,-0.6303711,-0.05908203,-0.77734375,0.91552734,2.319336,-0.61035156,0.0,0.0,0.0,-175.05066,38.69934,164.37744
1769245725467,-0.62646484,-0.06298828,-0.78564453,0.6713867,1.953125,-0.61035156,0.0,0.0,0.0,-175.05066,38.69934,164.37744
1769245725478,-0.62646484,-0.06298828,-0.78564453,0.6713867,1.953125,-0.61035156,0.0,0.0,0.0,-174.98474,38.50708,164.44336
1769245725566,-0.625,-0.05908203,-0.7763672,1.5258789,2.6245117,-0.061035156,0.0,0.0,0.0,-174.98474,38.50708,164.44336
1769245725578,-0.625,-0.05908203,-0.7763672,1.5258789,2.6245117,-0.061035156,0.0,0.0,0.0,-174.86389,38.259888,164.51477
1769245725669,-0.62597656,-0.06298828,-0.79248047,0.061035156,1.8310547,-0.18310547,0.0,0.0,0.0,-174.86389,38.259888,164.51477
1769245725678,-0.62597656,-0.06298828,-0.79248047,0.061035156,1.8310547,-0.18310547,0.0,0.0,0.0,-174.8584,38.100586,164.44336
1769245725766,-0.6123047,-0.0625,-0.7753906,2.2583008,2.8076172,-0.12207031,0.0,0.0,0.0,-174.8584,38.100586,164.44336
1769245725778,-0.6123047,-0.0625,-0.7753906,2.2583008,2.8076172,-0.12207031,0.0,0.0,0.0,-174.74854,37.765503,164.4049
1769245725866,-0.61328125,-0.05517578,-0.7807617,1.8310547,1.159668,0.061035156,0.0,0.0,0.0,-174.74854,37.765503,164.4049
1769245725877,-0.61328125,-0.05517578,-0.7807617,1.8310547,1.159668,0.061035156,0.0,0.0,0.0,-174.6991,37.63916,164.34998
1769245725965,-0.61865234,-0.071777344,-0.79248047,2.4414062,-0.5493164,-0.24414062,0.0,0.0,0.0,-174.6991,37.63916,164.34998
1769245725977,-0.61865234,-0.071777344,-0.79248047,2.4414062,-0.5493164,-0.24414062,0.0,0.0,0.0,-174.60571,37.732544,164.29504
1769245726065,-0.60595703,-0.07080078,-0.76953125,0.24414062,-2.9907227,-0.18310547,0.0,0.0,0.0,-174.60571,37.732544,164.29504
1769245726077,-0.60595703,-0.07080078,-0.76953125,0.24414062,-2.9907227,-0.18310547,0.0,0.0,0.0,-174.35852,37.91382,164.37195
1769245726165,-0.62597656,-0.0703125,-0.7871094,0.5493164,-6.7749023,-0.9765625,0.0,0.0,0.0,-174.35852,37.91382,164.37195
1769245726176,-0.62597656,-0.0703125,-0.7871094,0.5493164,-6.7749023,-0.9765625,0.0,0.0,0.0,-174.32556,38.446655,164.39941
1769245726265,-0.63134766,-0.0703125,-0.7758789,0.7324219,-2.319336,-0.48828125,0.0,0.0,0.0,-174.32556,38.446655,164.39941
1769245726277,-0.63134766,-0.0703125,-0.7758789,0.7324219,-2.319336,-0.48828125,0.0,0.0,0.0,-174.10034,38.897095,164.47083
1769245726364,-0.6357422,-0.076171875,-0.77783203,1.2207031,-2.746582,-0.7324219,0.0,0.0,0.0,-174.10034,38.897095,164.47083
1769245726376,-0.6357422,-0.076171875,-0.77783203,1.2207031,-2.746582,-0.7324219,0.0,0.0,0.0,-173.9685,39.171753,164.47083
1769245726464,-0.63623047,-0.07373047,-0.77001953,-0.30517578,-0.61035156,-0.4272461,0.0,0.0,0.0,-173.9685,39.171753,164.47083
1769245726476,-0.63623047,-0.07373047,-0.77001953,-0.30517578,-0.61035156,-0.4272461,0.0,0.0,0.0,-173.8971,39.248657,164.48181
1769245726564,-0.63720703,-0.07421875,-0.76904297,-1.5869141,0.24414062,-0.24414062,0.0,0.0,0.0,-173.8971,39.248657,164.48181
1769245726575,-0.63720703,-0.07421875,-0.76904297,-1.5869141,0.24414062,-0.24414062,0.0,0.0,0.0,-173.9685,39.243164,164.43787
1769245726663,-0.63916016,-0.0703125,-0.7709961,-0.79345703,0.5493164,0.0,0.0,0.0,0.0,-173.9685,39.243164,164.43787
1769245726675,-0.63916016,-0.0703125,-0.7709961,-0.79345703,0.5493164,0.0,0.0,0.0,0.0,-174.0564,39.2157,164.39392
1769245726763,-0.6376953,-0.0703125,-0.7709961,-0.7324219,0.7324219,0.12207031,0.0,0.0,0.0,-174.0564,39.2157,164.39392
1769245726775,-0.6376953,-0.0703125,-0.7709961,-0.7324219,0.7324219,0.12207031,0.0,0.0,0.0,-174.16626,39.160767,164.3335
1769245726863,-0.6411133,-0.06689453,-0.7734375,-0.36621094,0.4272461,0.18310547,0.0,0.0,0.0,-174.16626,39.160767,164.3335
1769245726874,-0.6411133,-0.06689453,-0.7734375,-0.36621094,0.4272461,0.18310547,0.0,0.0,0.0,-174.27612,39.1333,164.26758
1769245726963,-0.6376953,-0.064941406,-0.7758789,-0.4272461,0.12207031,0.0,0.0,0.0,0.0,-174.27612,39.1333,164.26758
1769245726974,-0.6376953,-0.064941406,-0.7758789,-0.4272461,0.12207031,0.0,0.0,0.0,0.0,-174.375,39.105835,164.22913
1769245727062,-0.63671875,-0.06591797,-0.7734375,-0.061035156,0.24414062,-0.061035156,0.0,0.0,0.0,-174.375,39.105835,164.22913
1769245727074,-0.63671875,-0.06591797,-0.7734375,-0.061035156,0.24414062,-0.061035156,0.0,0.0,0.0,-174.375,39.089355,164.2511
1769245727162,-0.6352539,-0.06591797,-0.7714844,-0.18310547,0.30517578,0.0,0.0,0.0,0.0,-174.375,39.089355,164.2511
1769245727174,-0.6352539,-0.06591797,-0.7714844,-0.18310547,0.30517578,0.0,0.0,0.0,0.0,-174.39697,39.056396,164.2456
1769245727262,-0.63671875,-0.06640625,-0.77441406,0.0,0.6713867,-0.12207031,0.0,0.0,0.0,-174.39697,39.056396,164.2456
1769245727273,-0.63671875,-0.06640625,-0.77441406,0.0,0.6713867,-0.12207031,0.0,0.0,0.0,-174.41345,39.02893,164.26208
1769245727361,-0.63720703,-0.064453125,-0.78027344,-0.30517578,0.48828125,0.061035156,0.0,0.0,0.0,-174.41345,39.02893,164.26208
1769245727373,-0.63720703,-0.064453125,-0.78027344,-0.30517578,0.48828125,0.061035156,0.0,0.0,0.0,-174.46838,39.001465,164.44885
1769245727461,-0.6308594,-0.064453125,-0.76171875,1.4648438,1.8920898,0.0,0.0,0.0,0.0,-174.46838,39.001465,164.44885
1769245727473,-0.6308594,-0.064453125,-0.76171875,1.4648438,1.8920898,0.0,0.0,0.0,0.0,-174.47388,38.842163,164.55322
1769245727561,-0.62890625,-0.06201172,-0.77734375,-1.159668,1.6479492,0.30517578,0.0,0.0,0.0,-174.47388,38.842163,164.55322
1769245727572,-0.62890625,-0.06201172,-0.77734375,-1.159668,1.6479492,0.30517578,0.0,0.0,0.0,-174.6222,38.74878,164.5752
1769245727661,-0.6303711,-0.057617188,-0.78271484,0.61035156,-0.061035156,-0.8544922,0.0,0.0,0.0,-174.6222,38.74878,164.5752
1769245727672,-0.6303711,-0.057617188,-0.78271484,0.61035156,-0.061035156,-0.8544922,0.0,0.0,0.0,-174.67163,38.704834,164.64111
1769245727760,-0.62841797,-0.064941406,-0.7763672,0.061035156,1.2207031,0.24414062,0.0,0.0,0.0,-174.67163,38.704834,164.64111
1769245727772,-0.62841797,-0.064941406,-0.7763672,0.061035156,1.2207031,0.24414062,0.0,0.0,0.0,-174.68262,38.693848,164.74548
1769245727860,-0.6352539,-0.06542969,-0.78564453,0.24414062,1.2207031,0.24414062,0.0,0.0,0.0,-174.68262,38.693848,164.74548
1769245727872,-0.6352539,-0.06542969,-0.78564453,0.24414062,1.2207031,0.24414062,0.0,0.0,0.0,-174.77051,38.622437,164.74548
1769245727960,-0.6254883,-0.05419922,-0.7783203,-0.36621094,0.30517578,-0.24414062,0.0,0.0,0.0,-174.77051,38.622437,164.74548
1769245727972,-0.6254883,-0.05419922,-0.7783203,-0.36621094,0.30517578,-0.24414062,0.0,0.0,0.0,-174.776,38.54004,164.729
1769245728060,-0.6323242,-0.06201172,-0.77978516,0.0,0.12207031,-0.061035156,0.0,0.0,0.0,-174.776,38.54004,164.729
1769245728071,-0.6323242,-0.06201172,-0.77978516,0.0,0.12207031,-0.061035156,0.0,0.0,0.0,-174.79797,38.567505,164.69604
1769245728160,-0.62841797,-0.061523438,-0.78027344,0.0,-0.4272461,-0.12207031,0.0,0.0,0.0,-174.79797,38.567505,164.69604
1769245728171,-0.62841797,-0.061523438,-0.78027344,0.0,-0.4272461,-0.12207031,0.0,0.0,0.0,-174.81995,38.59497,164.66309
1769245728259,-0.6347656,-0.05908203,-0.7817383,-0.18310547,-0.12207031,0.24414062,0.0,0.0,0.0,-174.81995,38.59497,164.66309
1769245728271,-0.6347656,-0.05908203,-0.7817383,-0.18310547,-0.12207031,0.24414062,0.0,0.0,0.0,-174.83643,38.616943,164.63013
1769245728359,-0.6303711,-0.05859375,-0.7758789,0.18310547,0.36621094,0.061035156,0.0,0.0,0.0,-174.83643,38.616943,164.63013
1769245728371,-0.6303711,-0.05859375,-0.7758789,0.18310547,0.36621094,0.061035156,0.0,0.0,0.0,-174.84741,38.605957,164.5697
1769245728458,-0.6333008,-0.06201172,-0.7817383,-0.24414062,-0.061035156,0.061035156,0.0,0.0,0.0,-174.84741,38.605957,164.5697
1769245728471,-0.6333008,-0.06201172,-0.7817383,-0.24414062,-0.061035156,0.061035156,0.0,0.0,0.0,-174.89136,38.616943,164.4928
1769245728558,-0.6279297,-0.056640625,-0.7783203,0.12207031,0.24414062,-0.18310547,0.0,0.0,0.0,-174.89136,38.616943,164.4928
1769245728570,-0.6279297,-0.056640625,-0.7783203,0.12207031,0.24414062,-0.18310547,0.0,0.0,0.0,-174.89685,38.605957,164.44885
1769245728658,-0.62939453,-0.05810547,-0.78125,-0.18310547,0.6713867,0.0,0.0,0.0,0.0,-174.89685,38.605957,164.44885
1769245728669,-0.62939453,-0.05810547,-0.78125,-0.18310547,0.6713867,0.0,0.0,0.0,0.0,-174.92432,38.57849,164.4049
1769245728758,-0.6279297,-0.057128906,-0.7807617,-0.30517578,1.3427734,0.061035156,0.0,0.0,0.0,-174.92432,38.57849,164.4049
1769245728769,-0.6279297,-0.057128906,-0.7807617,-0.30517578,1.3427734,0.061035156,0.0,0.0,0.0,-174.97375,38.501587,164.33899
1769245728857,-0.6269531,-0.055664062,-0.7817383,-0.6713867,2.6245117,0.4272461,0.0,0.0,0.0,-174.97375,38.501587,164.33899
1769245728869,-0.6269531,-0.055664062,-0.7817383,-0.6713867,2.6245117,0.4272461,0.0,0.0,0.0,-175.08362,38.303833,164.2511
1769245728957,-0.6225586,-0.05419922,-0.77783203,0.24414062,1.7700195,0.18310547,0.0,0.0,0.0,-175.08362,38.303833,164.2511
1769245728969,-0.6225586,-0.05419922,-0.77783203,0.24414062,1.7700195,0.18310547,0.0,0.0,0.0,-175.177,38.117065,164.1687
1769245729057,-0.625,-0.056640625,-0.7866211,0.9765625,0.12207031,-0.18310547,0.0,0.0,0.0,-175.177,38.117065,164.1687
1769245729069,-0.625,-0.056640625,-0.7866211,0.9765625,0.12207031,-0.18310547,0.0,0.0,0.0,-175.20447,38.117065,164.09729
1769245729156,-0.62060547,-0.053222656,-0.77441406,0.12207031,-2.319336,0.0,0.0,0.0,0.0,-175.20447,38.117065,164.09729
1769245729168,-0.62060547,-0.053222656,-0.77441406,0.12207031,-2.319336,0.0,0.0,0.0,0.0,-175.11108,38.14453,164.13025
1769245729256,-0.62646484,-0.052734375,-0.78759766,0.5493164,-0.36621094,-0.18310547,0.0,0.0,0.0,-175.11108,38.14453,164.13025
1769245729268,-0.62646484,-0.052734375,-0.78759766,0.5493164,-0.36621094,-0.18310547,0.0,0.0,0.0,-175.0946,38.303833,164.20166
1769245729356,-0.6303711,-0.056640625,-0.7832031,1.0986328,-0.79345703,-0.30517578,0.0,0.0,0.0,-175.0946,38.303833,164.20166
1769245729368,-0.6303711,-0.056640625,-0.7832031,1.0986328,-0.79345703,-0.30517578,0.0,0.0,0.0,-175.03418,38.320312,164.2456
1769245729456,-0.62841797,-0.057617188,-0.7841797,0.7324219,0.061035156,-0.4272461,0.0,0.0,0.0,-175.03418,38.320312,164.2456
1769245729467,-0.62841797,-0.057617188,-0.7841797,0.7324219,0.061035156,-0.4272461,0.0,0.0,0.0,-174.9353,38.342285,164.30603
1769245729556,-0.6269531,-0.060546875,-0.7832031,0.61035156,0.7324219,-0.18310547,0.0,0.0,0.0,-174.9353,38.342285,164.30603
1769245729567,-0.6269531,-0.060546875,-0.7832031,0.61035156,0.7324219,-0.18310547,0.0,0.0,0.0,-174.81995,38.254395,164.37744
1769245729655,-0.62402344,-0.06201172,-0.77978516,0.91552734,1.5258789,-0.24414062,0.0,0.0,0.0,-174.81995,38.254395,164.37744
1769245729667,-0.62402344,-0.06201172,-0.77978516,0.91552734,1.5258789,-0.24414062,0.0,0.0,0.0,-174.74304,38.133545,164.38293
1769245729755,-0.6225586,-0.05908203,-0.78466797,0.6713867,1.5869141,-0.24414062,0.0,0.0,0.0,-174.74304,38.133545,164.38293
1769245729767,-0.6225586,-0.05908203,-0.78466797,0.6713867,1.5869141,-0.24414062,0.0,0.0,0.0,-174.75403,37.979736,164.32251
1769245729855,-0.6201172,-0.061035156,-0.7915039,0.24414062,2.0141602,-0.18310547,0.0,0.0,0.0,-174.75403,37.979736,164.32251
1769245729866,-0.6201172,-0.061035156,-0.7915039,0.24414062,2.0141602,-0.18310547,0.0,0.0,0.0,-174.75952,37.820435,164.26208
1769245729954,-0.6171875,-0.0625,-0.79003906,-0.5493164,2.8686523,0.61035156,0.0,0.0,0.0,-174.75952,37.820435,164.26208
1769245729966,-0.6171875,-0.0625,-0.79003906,-0.5493164,2.8686523,0.61035156,0.0,0.0,0.0,-174.75403,37.578735,164.1742
1769245730054,-0.6152344,-0.060058594,-0.7871094,-0.12207031,0.8544922,0.5493164,0.0,0.0,0.0,-174.75403,37.578735,164.1742
1769245730066,-0.6152344,-0.060058594,-0.7871094,-0.12207031,0.8544922,0.5493164,0.0,0.0,0.0,-174.79248,37.38098,164.05884
1769245730154,-0.61083984,-0.052246094,-0.7885742,2.1972656,1.2817383,1.0375977,0.0,0.0,0.0,-174.79248,37.38098,164.05884
1769245730165,-0.61083984,-0.052246094,-0.7885742,2.1972656,1.2817383,1.0375977,0.0,0.0,0.0,-174.83093,37.227173,163.88306
1769245730254,-0.61279297,-0.064453125,-0.79052734,1.3427734,-0.30517578,0.48828125,0.0,0.0,0.0,-174.83093,37.227173,163.88306
1769245730265,-0.61279297,-0.064453125,-0.79052734,1.3427734,-0.30517578,0.48828125,0.0,0.0,0.0,-174.83093,37.25464,163.66882
1769245730353,-0.61035156,-0.06982422,-0.79833984,1.5258789,-0.48828125,-0.5493164,0.0,0.0,0.0,-174.83093,37.25464,163.66882
1769245730365,-0.61035156,-0.06982422,-0.79833984,1.5258789,-0.48828125,-0.5493164,0.0,0.0,0.0,-174.72656,37.348022,163.6084
1769245730453,-0.60839844,-0.06591797,-0.7836914,0.36621094,-1.5258789,-0.18310547,0.0,0.0,0.0,-174.72656,37.348022,163.6084
1769245730465,-0.60839844,-0.06591797,-0.7836914,0.36621094,-1.5258789,-0.18310547,0.0,0.0,0.0,-174.58923,37.441406,163.62488
1769245730553,-0.6225586,-0.06591797,-0.8017578,-1.2207031,-2.5024414,-0.30517578,0.0,0.0,0.0,-174.58923,37.441406,163.62488
1769245730564,-0.6225586,-0.06591797,-0.8017578,-1.2207031,-2.5024414,-0.30517578,0.0,0.0,0.0,-174.58923,37.738037,163.63586
1769245730652,-0.6191406,-0.06298828,-0.7788086,0.5493164,-2.380371,-0.18310547,0.0,0.0,0.0,-174.58923,37.738037,163.63586
1769245730664,-0.6191406,-0.06298828,-0.7788086,0.5493164,-2.380371,-0.18310547,0.0,0.0,0.0,-174.55078,37.902832,163.61389
1769245730752,-0.6274414,-0.06591797,-0.78466797,0.18310547,-3.2958984,-0.12207031,0.0,0.0,0.0,-174.55078,37.902832,163.61389
1769245730764,-0.6274414,-0.06591797,-0.78466797,0.18310547,-3.2958984,-0.12207031,0.0,0.0,0.0,-174.47388,38.237915,163.65234
1769245730852,-0.6328125,-0.068847656,-0.78222656,0.4272461,-2.380371,-0.36621094,0.0,0.0,0.0,-174.47388,38.237915,163.65234
1769245730863,-0.6328125,-0.068847656,-0.78222656,0.4272461,-2.380371,-0.36621094,0.0,0.0,0.0,-174.43542,38.468628,163.65784
1769245730952,-0.6308594,-0.064941406,-0.77441406,0.12207031,-3.479004,-0.24414062,0.0,0.0,0.0,-174.43542,38.468628,163.65784
1769245730963,-0.6308594,-0.064941406,-0.77441406,0.12207031,-3.479004,-0.24414062,0.0,0.0,0.0,-174.33105,38.7323,163.72925
1769245731052,-0.6376953,-0.06933594,-0.77001953,1.159668,-1.7700195,-0.36621094,0.0,0.0,0.0,-174.33105,38.7323,163.72925
1769245731063,-0.6376953,-0.06933594,-0.77001953,1.159668,-1.7700195,-0.36621094,0.0,0.0,0.0,-174.20471,39.01245,163.81165
1769245731151,-0.63916016,-0.068847656,-0.7792969,1.953125,-1.4038086,-0.48828125,0.0,0.0,0.0,-174.20471,39.01245,163.81165
1769245731162,-0.63916016,-0.068847656,-0.7792969,1.953125,-1.4038086,-0.48828125,0.0,0.0,0.0,-174.09485,39.243164,163.90503
1769245731251,-0.63623047,-0.071777344,-0.75683594,1.2817383,-0.4272461,-0.30517578,0.0,0.0,0.0,-174.09485,39.243164,163.90503
1769245731262,-0.63623047,-0.071777344,-0.75683594,1.2817383,-0.4272461,-0.30517578,0.0,0.0,0.0,-173.96301,39.309082,163.97095
1769245731350,-0.6435547,-0.06933594,-0.7758789,0.91552734,-0.8544922,-0.6713867,0.0,0.0,0.0,-173.96301,39.309082,163.97095
1769245731362,-0.6435547,-0.06933594,-0.7758789,0.91552734,-0.8544922,-0.6713867,0.0,0.0,0.0,-173.91357,39.490356,164.06433
1769245731450,-0.6381836,-0.07519531,-0.765625,0.48828125,1.5258789,-1.0375977,0.0,0.0,0.0,-173.91357,39.490356,164.06433
1769245731462,-0.6381836,-0.07519531,-0.765625,0.48828125,1.5258789,-1.0375977,0.0,0.0,0.0,-173.84216,39.435425,164.15771
1769245731550,-0.6328125,-0.072265625,-0.7651367,-2.0141602,2.5634766,0.18310547,0.0,0.0,0.0,-173.84216,39.435425,164.15771
1769245731561,-0.6328125,-0.072265625,-0.7651367,-2.0141602,2.5634766,0.18310547,0.0,0.0,0.0,-174.01794,39.210205,164.11926
1769245731650,-0.64208984,-0.059570312,-0.7763672,-2.1972656,2.9296875,0.0,0.0,0.0,0.0,-174.01794,39.210205,164.11926
1769245731662,-0.64208984,-0.059570312,-0.7763672,-2.1972656,2.9296875,0.0,0.0,0.0,0.0,-174.22668,39.039917,164.06433
1769245731751,-0.6386719,-0.068847656,-0.77685547,-1.6479492,0.79345703,0.6713867,0.0,0.0,0.0,-174.22668,39.039917,164.06433
1769245731761,-0.6386719,-0.068847656,-0.77685547,-1.6479492,0.79345703,0.6713867,0.0,0.0,0.0,-174.49036,38.902588,163.93799
1769245731857,-0.63378906,-0.0625,-0.77246094,-0.7324219,0.8544922,0.18310547,0.0,0.0,0.0,-174.49036,38.902588,163.93799
1769245731863,-0.63378906,-0.0625,-0.77246094,-0.7324219,0.8544922,0.18310547,0.0,0.0,0.0,-174.60571,38.78723,163.927
1769245731949,-0.63671875,-0.060546875,-0.7783203,-0.12207031,0.48828125,-0.24414062,0.0,0.0,0.0,-174.60571,38.78723,163.927
1769245731960,-0.63671875,-0.060546875,-0.7783203,-0.12207031,0.48828125,-0.24414062,0.0,0.0,0.0,-174.67712,38.759766,163.94897
1769245732051,-0.6333008,-0.05908203,-0.78027344,-0.12207031,0.0,0.0,0.0,0.0,0.0,-174.67712,38.759766,163.94897
1769245732060,-0.6333008,-0.05908203,-0.78027344,-0.12207031,0.0,0.0,0.0,0.0,0.0,-174.72656,38.721313,163.97644
1769245732148,-0.63183594,-0.059570312,-0.77490234,0.24414062,0.4272461,-0.18310547,0.0,0.0,0.0,-174.72656,38.721313,163.97644
1769245732160,-0.63183594,-0.059570312,-0.77490234,0.24414062,0.4272461,-0.18310547,0.0,0.0,0.0,-174.74854,38.693848,163.99292
1769245732248,-0.6308594,-0.061035156,-0.7763672,-0.12207031,1.953125,0.0,0.0,0.0,0.0,-174.74854,38.693848,163.99292
1769245732259,-0.6308594,-0.061035156,-0.7763672,-0.12207031,1.953125,0.0,0.0,0.0,0.0,-174.83093,38.633423,163.98193
1769245732348,-0.6254883,-0.05517578,-0.7651367,-0.061035156,1.2817383,0.0,0.0,0.0,0.0,-174.83093,38.633423,163.98193
1769245732359,-0.6254883,-0.05517578,-0.7651367,-0.061035156,1.2817383,0.0,0.0,0.0,0.0,-174.86389,38.496094,163.96545
1769245732447,-0.62841797,-0.056640625,-0.7832031,0.61035156,0.0,-0.36621094,0.0,0.0,0.0,-174.86389,38.496094,163.96545
1769245732459,-0.62841797,-0.056640625,-0.7832031,0.61035156,0.0,-0.36621094,0.0,0.0,0.0,-174.89685,38.545532,163.96545
1769245732547,-0.6323242,-0.061523438,-0.7788086,-0.061035156,-0.12207031,0.0,0.0,0.0,0.0,-174.89685,38.545532,163.96545
1769245732559,-0.6323242,-0.061523438,-0.7788086,-0.061035156,-0.12207031,0.0,0.0,0.0,0.0,-174.90234,38.54004,163.94348
1769245732647,-0.6298828,-0.055664062,-0.77490234,0.0,0.0,-0.12207031,0.0,0.0,0.0,-174.90234,38.54004,163.94348
1769245732658,-0.6298828,-0.055664062,-0.77490234,0.0,0.0,-0.12207031,0.0,0.0,0.0,-174.90784,38.551025,163.93799
1769245732747,-0.6303711,-0.056640625,-0.7807617,0.12207031,0.12207031,-0.061035156,0.0,0.0,0.0,-174.90784,38.551025,163.93799
1769245732758,-0.6303711,-0.056640625,-0.7807617,0.12207031,0.12207031,-0.061035156,0.0,0.0,0.0,-174.92981,38.55652,163.89404
1769245732846,-0.6298828,-0.05859375,-0.7783203,-0.061035156,0.48828125,0.0,0.0,0.0,0.0,-174.92981,38.55652,163.89404
1769245732859,-0.6298828,-0.05859375,-0.7783203,-0.061035156,0.48828125,0.0,0.0,0.0,0.0,-174.95178,38.518066,163.82812
1769245732946,-0.6279297,-0.056152344,-0.77978516,0.0,0.24414062,-0.12207031,0.0,0.0,0.0,-174.95178,38.518066,163.82812
1769245732958,-0.6279297,-0.056152344,-0.77978516,0.0,0.24414062,-0.12207031,0.0,0.0,0.0,-174.95728,38.501587,163.7677
1769245733046,-0.62890625,-0.057617188,-0.77978516,0.061035156,0.18310547,0.0,0.0,0.0,0.0,-174.95728,38.501587,163.7677
1769245733057,-0.62890625,-0.057617188,-0.77978516,0.061035156,0.18310547,0.0,0.0,0.0,0.0,-174.97925,38.485107,163.72375
1769245733146,-0.62939453,-0.057617188,-0.78027344,0.061035156,0.30517578,0.0,0.0,0.0,0.0,-174.97925,38.485107,163.72375
1769245733157,-0.62939453,-0.057617188,-0.78027344,0.061035156,0.30517578,0.0,0.0,0.0,0.0,-174.99573,38.47412,163.71277
1769245733245,-0.6279297,-0.056640625,-0.7783203,0.5493164,0.30517578,0.0,0.0,0.0,0.0,-174.99573,38.47412,163.71277
1769245733257,-0.6279297,-0.056640625,-0.7783203,0.5493164,0.30517578,0.0,0.0,0.0,0.0,-175.00671,38.446655,163.6908
1769245733345,-0.62890625,-0.05810547,-0.7792969,0.6713867,1.0986328,0.0,0.0,0.0,0.0,-175.00671,38.446655,163.6908
1769245733356,-0.62890625,-0.05810547,-0.7792969,0.6713867,1.0986328,0.0,0.0,0.0,0.0,-175.0122,38.424683,163.67981
1769245733445,-0.625,-0.056152344,-0.7705078,0.30517578,0.79345703,-0.061035156,0.0,0.0,0.0,-175.0122,38.424683,163.67981
1769245733456,-0.625,-0.056152344,-0.7705078,0.30517578,0.79345703,-0.061035156,0.0,0.0,0.0,-174.99023,38.34778,163.67981
1769245733544,-0.62597656,-0.055664062,-0.7836914,0.0,0.24414062,-0.12207031,0.0,0.0,0.0,-174.99023,38.34778,163.67981
1769245733556,-0.62597656,-0.055664062,-0.7836914,0.0,0.24414062,-0.12207031,0.0,0.0,0.0,-175.0177,38.375244,163.65784
1769245733644,-0.62939453,-0.05859375,-0.7807617,0.0,-0.30517578,0.0,0.0,0.0,0.0,-175.0177,38.375244,163.65784
1769245733656,-0.62939453,-0.05859375,-0.7807617,0.0,-0.30517578,0.0,0.0,0.0,0.0,-175.0232,38.380737,163.65234
1769245733744,-0.625,-0.055664062,-0.7763672,0.12207031,0.0,-0.12207031,0.0,0.0,0.0,-175.0232,38.380737,163.65234
1769245733755,-0.625,-0.055664062,-0.7763672,0.12207031,0.0,-0.12207031,0.0,0.0,0.0,-175.02869,38.397217,163.64136
1769245733844,-0.6298828,-0.055664062,-0.78222656,0.30517578,0.061035156,-0.12207031,0.0,0.0,0.0,-175.02869,38.397217,163.64136
1769245733855,-0.6298828,-0.055664062,-0.78222656,0.30517578,0.061035156,-0.12207031,0.0,0.0,0.0,-175.03967,38.41919,163.63586
1769245733943,-0.62841797,-0.05810547,-0.77978516,0.0,0.18310547,0.0,0.0,0.0,0.0,-175.03967,38.41919,163.63586
1769245733955,-0.62841797,-0.05810547,-0.77978516,0.0,0.18310547,0.0,0.0,0.0,0.0,-175.03418,38.40271,163.64136
1769245734043,-0.62841797,-0.056640625,-0.7832031,0.6713867,0.91552734,-0.30517578,0.0,0.0,0.0,-175.03418,38.40271,163.64136
1769245734055,-0.62841797,-0.056640625,-0.7832031,0.6713867,0.91552734,-0.30517578,0.0,0.0,0.0,-175.0177,38.36975,163.64685
1769245734143,-0.6269531,-0.057617188,-0.7817383,0.6713867,1.2207031,0.0,0.0,0.0,0.0,-175.0177,38.36975,163.64685
1769245734154,-0.6269531,-0.057617188,-0.7817383,0.6713867,1.2207031,0.0,0.0,0.0,0.0,-174.99023,38.259888,163.63586
1769245734242,-0.6254883,-0.05810547,-0.78564453,0.8544922,1.953125,-0.18310547,0.0,0.0,0.0,-174.99023,38.259888,163.63586
1769245734254,-0.6254883,-0.05810547,-0.78564453,0.8544922,1.953125,-0.18310547,0.0,0.0,0.0,-174.96277,38.133545,163.61938
1769245734342,-0.62158203,-0.057617188,-0.78271484,0.7324219,3.112793,0.061035156,0.0,0.0,0.0,-174.96277,38.133545,163.61938
1769245734354,-0.62158203,-0.057617188,-0.78271484,0.7324219,3.112793,0.061035156,0.0,0.0,0.0,-174.97925,37.902832,163.53699
1769245734442,-0.61816406,-0.05859375,-0.7919922,0.61035156,2.5024414,-0.061035156,0.0,0.0,0.0,-174.97925,37.902832,163.53699
1769245734453,-0.61816406,-0.05859375,-0.7919922,0.61035156,2.5024414,-0.061035156,0.0,0.0,0.0,-175.00122,37.71057,163.48206
1769245734542,-0.60839844,-0.05810547,-0.7807617,0.79345703,2.1362305,0.061035156,0.0,0.0,0.0,-175.00122,37.71057,163.48206
1769245734553,-0.60839844,-0.05810547,-0.7807617,0.79345703,2.1362305,0.061035156,0.0,0.0,0.0,-174.96277,37.496338,163.4436
1769245734641,-0.6088867,-0.056152344,-0.7866211,-0.24414062,0.30517578,-0.061035156,0.0,0.0,0.0,-174.96277,37.496338,163.4436
1769245734653,-0.6088867,-0.056152344,-0.7866211,-0.24414062,0.30517578,-0.061035156,0.0,0.0,0.0,-175.05066,37.43042,163.43262
1769245734741,-0.6176758,-0.05859375,-0.7895508,-0.5493164,-1.4648438,0.18310547,0.0,0.0,0.0,-175.05066,37.43042,163.43262
1769245734752,-0.6176758,-0.05859375,-0.7895508,-0.5493164,-1.4648438,0.18310547,0.0,0.0,0.0,-175.11108,37.50183,163.43262
1769245734841,-0.61328125,-0.0546875,-0.78515625,0.30517578,-0.61035156,0.0,0.0,0.0,0.0,-175.11108,37.50183,163.43262
1769245734852,-0.61328125,-0.0546875,-0.78515625,0.30517578,-0.61035156,0.0,0.0,0.0,0.0,-175.177,37.650146,163.43262
1769245734940,-0.61865234,-0.05859375,-0.79248047,0.36621094,-1.2207031,0.0,0.0,0.0,0.0,-175.177,37.650146,163.43262
1769245734952,-0.61865234,-0.05859375,-0.79248047,0.36621094,-1.2207031,0.0,0.0,0.0,0.0,-175.18799,37.770996,163.43262
1769245735040,-0.6201172,-0.05859375,-0.78466797,-0.061035156,-0.48828125,0.0,0.0,0.0,0.0,-175.18799,37.770996,163.43262
1769245735052,-0.6201172,-0.05859375,-0.78466797,-0.061035156,-0.48828125,0.0,0.0,0.0,0.0,-175.17151,37.8479,163.40515
1769245735140,-0.6230469,-0.053222656,-0.7890625,0.18310547,-1.3427734,0.0,0.0,0.0,0.0,-175.17151,37.8479,163.40515
1769245735152,-0.6230469,-0.053222656,-0.7890625,0.18310547,-1.3427734,0.0,0.0,0.0,0.0,-175.177,37.957764,163.37769
1769245735240,-0.62158203,-0.0546875,-0.7866211,0.30517578,-0.7324219,0.0,0.0,0.0,0.0,-175.177,37.957764,163.37769
1769245735251,-0.62158203,-0.0546875,-0.7866211,0.30517578,-0.7324219,0.0,0.0,0.0,0.0,-175.19897,38.029175,163.35571
1769245735339,-0.62597656,-0.0546875,-0.78515625,0.12207031,-0.5493164,0.0,0.0,0.0,0.0,-175.19897,38.029175,163.35571
1769245735351,-0.62597656,-0.0546875,-0.78515625,0.12207031,-0.5493164,0.0,0.0,0.0,0.0,-175.19897,38.100586,163.34473
1769245735439,-0.62402344,-0.055664062,-0.7861328,0.0,0.0,0.0,0.0,0.0,0.0,-175.19897,38.100586,163.34473
1769245735450,-0.62402344,-0.055664062,-0.7861328,0.0,0.0,0.0,0.0,0.0,0.0,-175.20996,38.117065,163.31726
1769245735539,-0.62402344,-0.053710938,-0.78222656,-0.12207031,0.30517578,0.0,0.0,0.0,0.0,-175.20996,38.117065,163.31726
1769245735550,-0.62402344,-0.053710938,-0.78222656,-0.12207031,0.30517578,0.0,0.0,0.0,0.0,-175.22644,38.100586,163.30627
1769245735638,-0.625,-0.05419922,-0.78515625,0.12207031,0.061035156,0.0,0.0,0.0,0.0,-175.22644,38.100586,163.30627
1769245735650,-0.625,-0.05419922,-0.78515625,0.12207031,0.061035156,0.0,0.0,0.0,0.0,-175.2539,38.10608,163.29529
1769245735738,-0.62402344,-0.0546875,-0.78466797,0.12207031,-0.12207031,0.0,0.0,0.0,0.0,-175.2539,38.10608,163.29529
1769245735750,-0.62402344,-0.0546875,-0.78466797,0.12207031,-0.12207031,0.0,0.0,0.0,0.0,-175.2594,38.111572,163.27881
1769245735838,-0.62158203,-0.057617188,-0.7792969,-0.79345703,0.48828125,-0.36621094,0.0,0.0,0.0,-175.2594,38.111572,163.27881
1769245735849,-0.62158203,-0.057617188,-0.7792969,-0.79345703,0.48828125,-0.36621094,0.0,0.0,0.0,-175.28137,38.10608,163.27881
1769245735938,-0.6147461,-0.04736328,-0.7841797,-1.7700195,4.272461,-0.30517578,0.0,0.0,0.0,-175.28137,38.10608,163.27881
1769245735949,-0.6147461,-0.04736328,-0.7841797,-1.7700195,4.272461,-0.30517578,0.0,0.0,0.0,-175.42969,37.8479,163.31177
1769245736037,-0.62939453,-0.06347656,-0.79296875,-1.5258789,3.7841797,0.79345703,0.0,0.0,0.0,-175.42969,37.8479,163.31177
1769245736049,-0.62939453,-0.06347656,-0.79296875,-1.5258789,3.7841797,0.79345703,0.0,0.0,0.0,-175.70435,37.435913,163.15247
1769245736137,-0.6142578,-0.055664062,-0.7861328,-0.91552734,1.4648438,0.79345703,0.0,0.0,0.0,-175.70435,37.435913,163.15247
1769245736149,-0.6142578,-0.055664062,-0.7861328,-0.91552734,1.4648438,0.79345703,0.0,0.0,0.0,-175.78125,37.177734,163.11401
1769245736237,-0.59814453,-0.04736328,-0.79785156,-3.6010742,3.6010742,1.6479492,0.0,0.0,0.0,-175.78125,37.177734,163.11401
1769245736248,-0.59814453,-0.04736328,-0.79785156,-3.6010742,3.6010742,1.6479492,0.0,0.0,0.0,-176.14929,37.034912,162.90527
1769245736337,-0.59033203,-0.03173828,-0.78222656,-3.8452148,2.8686523,4.272461,0.0,0.0,0.0,-176.14929,37.034912,162.90527
1769245736348,-0.59033203,-0.03173828,-0.78222656,-3.8452148,2.8686523,4.272461,0.0,0.0,0.0,-176.74255,36.732788,162.52075
1769245736436,-0.6376953,-0.032714844,-0.81640625,-9.58252,-0.36621094,6.8359375,0.0,0.0,0.0,-176.74255,36.732788,162.52075
1769245736448,-0.6376953,-0.032714844,-0.81640625,-9.58252,-0.36621094,6.8359375,0.0,0.0,0.0,-178.01697,36.815186,161.71326
1769245736536,-0.6035156,-0.026855469,-0.78466797,-9.765625,1.4648438,4.3945312,0.0,0.0,0.0,-178.01697,36.815186,161.71326
1769245736547,-0.6035156,-0.026855469,-0.78466797,-9.765625,1.4648438,4.3945312,0.0,0.0,0.0,-179.15405,36.688843,161.14746
1769245736636,-0.5888672,0.022949219,-0.8017578,-7.873535,0.8544922,1.159668,0.0,0.0,0.0,-179.15405,36.688843,161.14746
1769245736647,-0.5888672,0.022949219,-0.8017578,-7.873535,0.8544922,1.159668,0.0,0.0,0.0,179.7638,36.63391,160.97168
1769245736735,-0.59814453,0.05419922,-0.8071289,-4.699707,-3.6621094,2.1362305,0.0,0.0,0.0,179.7638,36.63391,160.97168
1769245736747,-0.59814453,0.05419922,-0.8071289,-4.699707,-3.6621094,2.1362305,0.0,0.0,0.0,178.9563,36.793213,160.82886
1769245736835,-0.6196289,0.048828125,-0.8071289,-4.272461,-1.8310547,1.5258789,0.0,0.0,0.0,178.9563,36.793213,160.82886
1769245736847,-0.6196289,0.048828125,-0.8071289,-4.272461,-1.8310547,1.5258789,0.0,0.0,0.0,178.30261,37.0459,160.59265
1769245736935,-0.6113281,0.034179688,-0.7963867,1.0986328,-1.4038086,-1.2817383,0.0,0.0,0.0,178.30261,37.0459,160.59265
1769245736947,-0.6113281,0.034179688,-0.7963867,1.0986328,-1.4038086,-1.2817383,0.0,0.0,0.0,178.13782,37.23816,160.6311
1769245737035,-0.6113281,0.025390625,-0.8022461,-0.9765625,-1.5258789,-1.7089844,0.0,0.0,0.0,178.13782,37.23816,160.6311
1769245737046,-0.6113281,0.025390625,-0.8022461,-0.9765625,-1.5258789,-1.7089844,0.0,0.0,0.0,178.26965,37.424927,160.82886
1769245737134,-0.61279297,0.04248047,-0.8076172,-0.36621094,0.30517578,-3.112793,0.0,0.0,0.0,178.26965,37.424927,160.82886
1769245737146,-0.61279297,0.04248047,-0.8076172,-0.36621094,0.30517578,-3.112793,0.0,0.0,0.0,178.42346,37.452393,161.20789
1769245737234,-0.61865234,0.048339844,-0.7919922,0.18310547,-1.159668,0.61035156,0.0,0.0,0.0,178.42346,37.452393,161.20789
1769245737246,-0.61865234,0.048339844,-0.7919922,0.18310547,-1.159668,0.61035156,0.0,0.0,0.0,178.54431,37.408447,161.31226
1769245737334,-0.6166992,0.030273438,-0.7895508,0.5493164,-0.4272461,-0.18310547,0.0,0.0,0.0,178.54431,37.408447,161.31226
1769245737345,-0.6166992,0.030273438,-0.7895508,0.5493164,-0.4272461,-0.18310547,0.0,0.0,0.0,178.46191,37.490845,161.2024
1769245737433,-0.61816406,0.025390625,-0.796875,0.7324219,-0.12207031,-0.7324219,0.0,0.0,0.0,178.46191,37.490845,161.2024
1769245737445,-0.61816406,0.025390625,-0.796875,0.7324219,-0.12207031,-0.7324219,0.0,0.0,0.0,178.53333,37.545776,161.25732
1769245737533,-0.61328125,0.0390625,-0.79345703,-0.4272461,0.36621094,0.18310547,0.0,0.0,0.0,178.53333,37.545776,161.25732
1769245737545,-0.61328125,0.0390625,-0.79345703,-0.4272461,0.36621094,0.18310547,0.0,0.0,0.0,178.52783,37.540283,161.2793
1769245737633,-0.6147461,0.037109375,-0.79589844,-0.18310547,1.7089844,0.18310547,0.0,0.0,0.0,178.52783,37.540283,161.2793
1769245737644,-0.6147461,0.037109375,-0.79589844,-0.18310547,1.7089844,0.18310547,0.0,0.0,0.0,178.45642,37.46338,161.2024
1769245737733,-0.6088867,0.036132812,-0.7949219,0.24414062,0.8544922,-0.061035156,0.0,0.0,0.0,178.45642,37.46338,161.2024
1769245737744,-0.6088867,0.036132812,-0.7949219,0.24414062,0.8544922,-0.061035156,0.0,0.0,0.0,178.42346,37.315063,161.13647
1769245737832,-0.6064453,0.036132812,-0.79052734,0.0,2.5024414,0.061035156,0.0,0.0,0.0,178.42346,37.315063,161.13647
1769245737844,-0.6064453,0.036132812,-0.79052734,0.0,2.5024414,0.061035156,0.0,0.0,0.0,178.42896,37.128296,161.08704
1769245737932,-0.6010742,0.03466797,-0.80078125,-0.12207031,1.8310547,0.061035156,0.0,0.0,0.0,178.42896,37.128296,161.08704
1769245737944,-0.6010742,0.03466797,-0.80078125,-0.12207031,1.8310547,0.061035156,0.0,0.0,0.0,178.37952,36.952515,161.00464
1769245738032,-0.6015625,0.037109375,-0.7890625,0.0,2.319336,0.7324219,0.0,0.0,0.0,178.37952,36.952515,161.00464
1769245738043,-0.6015625,0.037109375,-0.7890625,0.0,2.319336,0.7324219,0.0,0.0,0.0,178.34106,36.69983,160.90027
1769245738131,-0.59521484,0.041015625,-0.7895508,-0.61035156,-0.12207031,0.36621094,0.0,0.0,0.0,178.34106,36.69983,160.90027
1769245738143,-0.59521484,0.041015625,-0.7895508,-0.61035156,-0.12207031,0.36621094,0.0,0.0,0.0,178.2312,36.63391,160.80688
1769245738231,-0.60058594,0.036621094,-0.7949219,-0.36621094,-2.319336,0.12207031,0.0,0.0,0.0,178.2312,36.63391,160.80688
1769245738243,-0.60058594,0.036621094,-0.7949219,-0.36621094,-2.319336,0.12207031,0.0,0.0,0.0,178.15979,36.73828,160.7135
1769245738331,-0.6010742,0.041015625,-0.78515625,0.18310547,-2.8686523,-0.30517578,0.0,0.0,0.0,178.15979,36.73828,160.7135
1769245738343,-0.6010742,0.041015625,-0.78515625,0.18310547,-2.8686523,-0.30517578,0.0,0.0,0.0,178.15979,36.919556,160.66406
1769245738431,-0.6098633,0.037109375,-0.7988281,1.159668,-2.746582,0.12207031,0.0,0.0,0.0,178.15979,36.919556,160.66406
1769245738442,-0.6098633,0.037109375,-0.7988281,1.159668,-2.746582,0.12207031,0.0,0.0,0.0,178.11035,37.282104,160.56519
1769245738530,-0.61035156,0.041503906,-0.7988281,0.18310547,-1.4648438,-0.30517578,0.0,0.0,0.0,178.11035,37.282104,160.56519
1769245738542,-0.61035156,0.041503906,-0.7988281,0.18310547,-1.4648438,-0.30517578,0.0,0.0,0.0,178.0719,37.523804,160.48828
1769245738630,-0.61621094,0.044433594,-0.80078125,-0.12207031,-1.953125,0.0,0.0,0.0,0.0,178.0719,37.523804,160.48828
1769245738641,-0.61621094,0.044433594,-0.80078125,-0.12207031,-1.953125,0.0,0.0,0.0,0.0,178.05542,37.70508,160.46082
1769245738730,-0.6166992,0.041503906,-0.7963867,0.0,-1.159668,0.12207031,0.0,0.0,0.0,178.05542,37.70508,160.46082
1769245738741,-0.6166992,0.041503906,-0.7963867,0.0,-1.159668,0.12207031,0.0,0.0,0.0,178.01697,37.83142,160.46631
1769245738829,-0.6196289,0.038085938,-0.7910156,0.061035156,-1.0986328,0.12207031,0.0,0.0,0.0,178.01697,37.83142,160.46631
1769245738841,-0.6196289,0.038085938,-0.7910156,0.061035156,-1.0986328,0.12207031,0.0,0.0,0.0,178.01697,37.88086,160.43335
1769245738929,-0.6166992,0.040039062,-0.79248047,0.0,0.0,0.0,0.0,0.0,0.0,178.01697,37.88086,160.43335
1769245738941,-0.6166992,0.040039062,-0.79248047,0.0,0.0,0.0,0.0,0.0,0.0,177.995,37.91382,160.3894
1769245739029,-0.6171875,0.040527344,-0.7910156,0.30517578,-0.12207031,0.0,0.0,0.0,0.0,177.995,37.91382,160.3894
1769245739040,-0.6171875,0.040527344,-0.7910156,0.30517578,-0.12207031,0.0,0.0,0.0,0.0,177.9895,37.902832,160.35095
1769245739129,-0.6176758,0.038085938,-0.7895508,0.0,-0.12207031,0.0,0.0,0.0,0.0,177.9895,37.902832,160.35095
1769245739140,-0.6176758,0.038085938,-0.7895508,0.0,-0.12207031,0.0,0.0,0.0,0.0,177.97852,37.886353,160.35095
1769245739228,-0.6176758,0.038085938,-0.79248047,-0.24414062,0.061035156,0.0,0.0,0.0,0.0,177.97852,37.886353,160.35095
1769245739240,-0.6176758,0.038085938,-0.79248047,-0.24414062,0.061035156,0.0,0.0,0.0,0.0,177.96204,37.902832,160.32898
1769245739328,-0.61621094,0.03955078,-0.7915039,-0.061035156,0.0,0.0,0.0,0.0,0.0,177.96204,37.902832,160.32898
1769245739340,-0.61621094,0.03955078,-0.7915039,-0.061035156,0.0,0.0,0.0,0.0,0.0,177.95105,37.88086,160.318
1769245739428,-0.6123047,0.044433594,-0.79052734,0.0,0.061035156,-0.061035156,0.0,0.0,0.0,177.95105,37.88086,160.318
1769245739440,-0.6123047,0.044433594,-0.79052734,0.0,0.061035156,-0.061035156,0.0,0.0,0.0,177.9071,37.853394,160.307
1769245739528,-0.61816406,0.04296875,-0.79248047,0.24414062,1.0375977,0.18310547,0.0,0.0,0.0,177.9071,37.853394,160.307
1769245739539,-0.61816406,0.04296875,-0.79248047,0.24414062,1.0375977,0.18310547,0.0,0.0,0.0,177.86865,37.781982,160.27405
1769245739627,-0.62109375,0.041992188,-0.79785156,0.0,0.4272461,0.0,0.0,0.0,0.0,177.86865,37.781982,160.27405
1769245739639,-0.62109375,0.041992188,-0.79785156,0.0,0.4272461,0.0,0.0,0.0,0.0,177.85217,37.77649,160.26855
1769245739727,-0.60839844,0.038085938,-0.77685547,0.7324219,1.0986328,0.36621094,0.0,0.0,0.0,177.85217,37.77649,160.26855
1769245739740,-0.60839844,0.038085938,-0.77685547,0.7324219,1.0986328,0.36621094,0.0,0.0,0.0,177.9126,37.628174,160.25208
1769245739827,-0.6098633,0.04248047,-0.7998047,0.48828125,0.4272461,-0.12207031,0.0,0.0,0.0,177.9126,37.628174,160.25208
1769245739838,-0.6098633,0.04248047,-0.7998047,0.48828125,0.4272461,-0.12207031,0.0,0.0,0.0,177.86316,37.63916,160.21912
1769245739926,-0.61328125,0.0390625,-0.79541016,0.12207031,-0.12207031,0.0,0.0,0.0,0.0,177.86316,37.63916,160.21912
1769245739938,-0.61328125,0.0390625,-0.79541016,0.12207031,-0.12207031,0.0,0.0,0.0,0.0,177.8302,37.611694,160.16418
1769245740026,-0.609375,0.041015625,-0.7939453,-0.061035156,-0.5493164,0.061035156,0.0,0.0,0.0,177.8302,37.611694,160.16418
1769245740038,-0.609375,0.041015625,-0.7939453,-0.061035156,-0.5493164,0.061035156,0.0,0.0,0.0,177.80273,37.65564,160.18066
1769245740126,-0.6166992,0.041015625,-0.80126953,0.79345703,0.61035156,0.24414062,0.0,0.0,0.0,177.80273,37.65564,160.18066
1769245740137,-0.6166992,0.041015625,-0.80126953,0.79345703,0.61035156,0.24414062,0.0,0.0,0.0,177.80273,37.650146,160.2301
1769245740225,-0.61328125,0.043945312,-0.79248047,0.18310547,-0.18310547,-0.061035156,0.0,0.0,0.0,177.80273,37.650146,160.2301
1769245740237,-0.61328125,0.043945312,-0.79248047,0.18310547,-0.18310547,-0.061035156,0.0,0.0,0.0,177.81921,37.600708,160.26306
1769245740325,-0.6147461,0.03857422,-0.79589844,0.0,-0.4272461,-0.5493164,0.0,0.0,0.0,177.81921,37.600708,160.26306
1769245740337,-0.6147461,0.03857422,-0.79589844,0.0,-0.4272461,-0.5493164,0.0,0.0,0.0,177.80823,37.633667,160.3125
1769245740425,-0.609375,0.040527344,-0.79345703,-0.12207031,-0.7324219,0.24414062,0.0,0.0,0.0,177.80823,37.633667,160.3125
1769245740437,-0.609375,0.040527344,-0.79345703,-0.12207031,-0.7324219,0.24414062,0.0,0.0,0.0,177.80273,37.65564,160.33447
1769245740525,-0.6118164,0.04345703,-0.79345703,0.36621094,-0.36621094,0.0,0.0,0.0,0.0,177.80273,37.65564,160.33447
1769245740536,-0.6118164,0.04345703,-0.79345703,0.36621094,-0.36621094,0.0,0.0,0.0,0.0,177.79175,37.666626,160.3125
1769245740624,-0.61328125,0.041503906,-0.79296875,0.18310547,-0.24414062,0.061035156,0.0,0.0,0.0,177.79175,37.666626,160.3125
1769245740636,-0.61328125,0.041503906,-0.79296875,0.18310547,-0.24414062,0.061035156,0.0,0.0,0.0,177.79175,37.65564,160.30151
1769245740724,-0.61279297,0.0390625,-0.7944336,0.24414062,-0.4272461,0.0,0.0,0.0,0.0,177.79175,37.65564,160.30151
1769245740736,-0.61279297,0.0390625,-0.7944336,0.24414062,-0.4272461,0.0,0.0,0.0,0.0,177.79724,37.661133,160.29602
1769245740824,-0.6123047,0.040527344,-0.7910156,0.061035156,-0.30517578,0.061035156,0.0,0.0,0.0,177.79724,37.661133,160.29602
1769245740835,-0.6123047,0.040527344,-0.7910156,0.061035156,-0.30517578,0.061035156,0.0,0.0,0.0,177.79175,37.644653,160.27954
1769245740924,-0.61035156,0.03955078,-0.79003906,0.0,-0.5493164,0.0,0.0,0.0,0.0,177.79175,37.644653,160.27954
1769245740935,-0.61035156,0.03955078,-0.79003906,0.0,-0.5493164,0.0,0.0,0.0,0.0,177.77527,37.661133,160.27405
1769245741023,-0.6123047,0.037597656,-0.79785156,0.18310547,-0.061035156,0.0,0.0,0.0,0.0,177.77527,37.661133,160.27405
1769245741035,-0.6123047,0.037597656,-0.79785156,0.18310547,-0.061035156,0.0,0.0,0.0,0.0,177.75879,37.644653,160.26855
1769245741123,-0.6113281,0.036132812,-0.79052734,0.36621094,-0.5493164,0.0,0.0,0.0,0.0,177.75879,37.644653,160.26855
1769245741135,-0.6113281,0.036132812,-0.79052734,0.36621094,-0.5493164,0.0,0.0,0.0,0.0,177.75879,37.617188,160.25757
1769245741223,-0.6171875,0.04345703,-0.79296875,1.0375977,0.8544922,0.0,0.0,0.0,0.0,177.75879,37.617188,160.25757
1769245741234,-0.6171875,0.04345703,-0.79296875,1.0375977,0.8544922,0.0,0.0,0.0,0.0,177.7478,37.573242,160.2356
1769245741323,-0.60546875,0.041015625,-0.8027344,0.4272461,3.1738281,0.0,0.0,0.0,0.0,177.7478,37.573242,160.2356
1769245741334,-0.60546875,0.041015625,-0.8027344,0.4272461,3.1738281,0.0,0.0,0.0,0.0,177.76978,37.402954,160.2356
1769245741422,-0.6069336,0.0390625,-0.79052734,-0.36621094,1.0986328,0.36621094,0.0,0.0,0.0,177.76978,37.402954,160.2356
1769245741434,-0.6069336,0.0390625,-0.79052734,-0.36621094,1.0986328,0.36621094,0.0,0.0,0.0,177.78076,37.10083,160.18616
1769245741522,-0.5966797,0.047851562,-0.7963867,0.061035156,1.8310547,-0.12207031,0.0,0.0,0.0,177.78076,37.10083,160.18616
1769245741534,-0.5966797,0.047851562,-0.7963867,0.061035156,1.8310547,-0.12207031,0.0,0.0,0.0,177.7533,36.930542,160.19714
1769245741622,-0.60302734,0.043945312,-0.7919922,-0.48828125,-0.30517578,0.18310547,0.0,0.0,0.0,177.7533,36.930542,160.19714
1769245741633,-0.60302734,0.043945312,-0.7919922,-0.48828125,-0.30517578,0.18310547,0.0,0.0,0.0,177.70386,36.84265,160.16968
1769245741721,-0.6015625,0.044921875,-0.7944336,-0.24414062,-1.7089844,-0.061035156,0.0,0.0,0.0,177.70386,36.84265,160.16968
1769245741733,-0.6015625,0.044921875,-0.7944336,-0.24414062,-1.7089844,-0.061035156,0.0,0.0,0.0,177.64893,36.864624,160.13672
1769245741821,-0.6020508,0.048828125,-0.8051758,0.24414062,-1.4038086,-0.061035156,0.0,0.0,0.0,177.64893,36.864624,160.13672
1769245741833,-0.6020508,0.048828125,-0.8051758,0.24414062,-1.4038086,-0.061035156,0.0,0.0,0.0,177.62695,37.01294,160.10376
1769245741921,-0.60595703,0.045898438,-0.7939453,0.18310547,-1.6479492,0.061035156,0.0,0.0,0.0,177.62695,37.01294,160.10376
1769245741933,-0.60595703,0.045898438,-0.7939453,0.18310547,-1.6479492,0.061035156,0.0,0.0,0.0,177.63794,37.089844,160.08179
1769245742020,-0.6064453,0.04296875,-0.80371094,0.0,-0.5493164,0.0,0.0,0.0,0.0,177.63794,37.089844,160.08179
1769245742033,-0.6064453,0.04296875,-0.80371094,0.0,-0.5493164,0.0,0.0,0.0,0.0,177.62695,37.210693,160.05432
1769245742120,-0.609375,0.041015625,-0.8017578,0.0,-1.159668,0.0,0.0,0.0,0.0,177.62695,37.210693,160.05432
1769245742132,-0.609375,0.041015625,-0.8017578,0.0,-1.159668,0.0,0.0,0.0,0.0,177.63245,37.29309,160.02686
1769245742220,-0.609375,0.044921875,-0.7988281,0.12207031,-0.18310547,0.0,0.0,0.0,0.0,177.63245,37.29309,160.02686
1769245742232,-0.609375,0.044921875,-0.7988281,0.12207031,-0.18310547,0.0,0.0,0.0,0.0,177.62146,37.32605,160.01587
1769245742320,-0.6088867,0.04345703,-0.7993164,-0.12207031,0.061035156,0.0,0.0,0.0,0.0,177.62146,37.32605,160.01587
1769245742331,-0.6088867,0.04345703,-0.7993164,-0.12207031,0.061035156,0.0,0.0,0.0,0.0,177.62146,37.331543,160.01587
1769245742419,-0.6088867,0.04638672,-0.79589844,0.24414062,-0.18310547,0.0,0.0,0.0,0.0,177.62146,37.331543,160.01587
1769245742431,-0.6088867,0.04638672,-0.79589844,0.24414062,-0.18310547,0.0,0.0,0.0,0.0,177.62695,37.32605,159.9939
1769245742519,-0.6088867,0.04345703,-0.7973633,0.061035156,-0.061035156,0.0,0.0,0.0,0.0,177.62695,37.32605,159.9939
1769245742531,-0.6088867,0.04345703,-0.7973633,0.061035156,-0.061035156,0.0,0.0,0.0,0.0,177.62695,37.32605,159.98291
1769245742619,-0.6088867,0.04345703,-0.7973633,0.061035156,-0.30517578,0.0,0.0,0.0,0.0,177.62695,37.32605,159.98291
1769245742630,-0.6088867,0.04345703,-0.7973633,0.061035156,-0.30517578,0.0,0.0,0.0,0.0,177.62695,37.331543,159.97742
1769245742719,-0.6074219,0.043945312,-0.79589844,0.12207031,-0.061035156,0.0,0.0,0.0,0.0,177.62695,37.331543,159.97742
1769245742730,-0.6074219,0.043945312,-0.79589844,0.12207031,-0.061035156,0.0,0.0,0.0,0.0,177.62146,37.32605,159.97742
1769245742818,-0.6098633,0.044921875,-0.796875,0.18310547,-0.12207031,0.0,0.0,0.0,0.0,177.62146,37.32605,159.97742
1769245742830,-0.6098633,0.044921875,-0.796875,0.18310547,-0.12207031,0.0,0.0,0.0,0.0,177.61597,37.32605,159.97742
1769245742918,-0.6074219,0.045898438,-0.79345703,0.061035156,-0.18310547,0.36621094,0.0,0.0,0.0,177.61597,37.32605,159.97742
1769245742930,-0.6074219,0.045898438,-0.79345703,0.061035156,-0.18310547,0.36621094,0.0,0.0,0.0,177.62146,37.304077,159.97192
1769245743018,-0.60791016,0.041015625,-0.8017578,0.5493164,0.7324219,-0.18310547,0.0,0.0,0.0,177.62146,37.304077,159.97192
1769245743030,-0.60791016,0.041015625,-0.8017578,0.5493164,0.7324219,-0.18310547,0.0,0.0,0.0,177.62695,37.287598,159.93896
1769245743118,-0.6113281,0.04296875,-0.79785156,-0.24414062,-0.24414062,0.24414062,0.0,0.0,0.0,177.62695,37.287598,159.93896
1769245743129,-0.6113281,0.04296875,-0.79785156,-0.24414062,-0.24414062,0.24414062,0.0,0.0,0.0,177.63245,37.227173,159.9115
1769245743217,-0.6040039,0.044921875,-0.796875,-0.18310547,-0.12207031,0.061035156,0.0,0.0,0.0,177.63245,37.227173,159.9115
1769245743229,-0.6040039,0.044921875,-0.796875,-0.18310547,-0.12207031,0.061035156,0.0,0.0,0.0,177.61597,37.249146,159.90051
1769245743317,-0.61083984,0.04296875,-0.79785156,-0.30517578,-0.79345703,0.0,0.0,0.0,0.0,177.61597,37.249146,159.90051
1769245743328,-0.61083984,0.04296875,-0.79785156,-0.30517578,-0.79345703,0.0,0.0,0.0,0.0,177.5885,37.282104,159.88953
1769245743417,-0.6098633,0.044433594,-0.79541016,-0.24414062,-0.61035156,-0.18310547,0.0,0.0,0.0,177.5885,37.282104,159.88953
1769245743428,-0.6098633,0.044433594,-0.79541016,-0.24414062,-0.61035156,-0.18310547,0.0,0.0,0.0,177.57202,37.29309,159.88403
1769245743516,-0.61035156,0.043945312,-0.7998047,0.061035156,0.48828125,-0.061035156,0.0,0.0,0.0,177.57202,37.29309,159.88403
1769245743528,-0.61035156,0.043945312,-0.7998047,0.061035156,0.48828125,-0.061035156,0.0,0.0,0.0,177.58301,37.30957,159.89502
1769245743616,-0.60791016,0.04736328,-0.79589844,0.0,0.0,0.0,0.0,0.0,0.0,177.58301,37.30957,159.89502
1769245743628,-0.60791016,0.04736328,-0.79589844,0.0,0.0,0.0,0.0,0.0,0.0,177.56653,37.265625,159.89502
1769245743716,-0.6088867,0.045410156,-0.79785156,0.12207031,-0.24414062,0.0,0.0,0.0,0.0,177.56653,37.265625,159.89502
1769245743727,-0.6088867,0.045410156,-0.79785156,0.12207031,-0.24414062,0.0,0.0,0.0,0.0,177.55554,37.27661,159.88953
1769245743816,-0.60791016,0.044433594,-0.79833984,0.18310547,-0.18310547,0.0,0.0,0.0,0.0,177.55554,37.27661,159.88953
1769245743827,-0.60791016,0.044433594,-0.79833984,0.18310547,-0.18310547,0.0,0.0,0.0,0.0,177.53906,37.27661,159.88403
1769245743915,-0.6088867,0.045898438,-0.79833984,0.12207031,-0.24414062,0.0,0.0,0.0,0.0,177.53906,37.27661,159.88403
1769245743927,-0.6088867,0.045898438,-0.79833984,0.12207031,-0.24414062,0.0,0.0,0.0,0.0,177.54456,37.29309,159.87854
1769245744015,-0.60546875,0.046875,-0.79589844,0.24414062,0.0,0.0,0.0,0.0,0.0,177.54456,37.29309,159.87854
1769245744027,-0.60546875,0.046875,-0.79589844,0.24414062,0.0,0.0,0.0,0.0,0.0,177.55554,37.282104,159.87305
1769245744115,-0.60839844,0.041503906,-0.7988281,0.0,-0.12207031,0.0,0.0,0.0,0.0,177.55554,37.282104,159.87305
1769245744126,-0.60839844,0.041503906,-0.7988281,0.0,-0.12207031,0.0,0.0,0.0,0.0,177.55005,37.282104,159.87305
1769245744214,-0.6069336,0.04736328,-0.796875,0.18310547,0.061035156,0.0,0.0,0.0,0.0,177.55005,37.282104,159.87305
1769245744226,-0.6069336,0.04736328,-0.796875,0.18310547,0.061035156,0.0,0.0,0.0,0.0,177.54456,37.26013,159.87854
1769245744314,-0.60791016,0.044921875,-0.7988281,-0.12207031,-0.061035156,0.0,0.0,0.0,0.0,177.54456,37.26013,159.87854
1769245744326,-0.60791016,0.044921875,-0.7988281,-0.12207031,-0.061035156,0.0,0.0,0.0,0.0,177.52808,37.249146,159.88953
1769245744414,-0.6074219,0.043945312,-0.7963867,0.24414062,0.0,0.0,0.0,0.0,0.0,177.52808,37.249146,159.88953
1769245744425,-0.6074219,0.043945312,-0.7963867,0.24414062,0.0,0.0,0.0,0.0,0.0,177.52808,37.243652,159.88953
1769245744514,-0.6069336,0.045410156,-0.7998047,-0.061035156,0.0,0.0,0.0,0.0,0.0,177.52808,37.243652,159.88953
1769245744525,-0.6069336,0.045410156,-0.7998047,-0.061035156,0.0,0.0,0.0,0.0,0.0,177.5116,37.243652,159.89502
1769245744613,-0.6044922,0.04296875,-0.7910156,0.36621094,0.0,0.0,0.0,0.0,0.0,177.5116,37.243652,159.89502
1769245744625,-0.6044922,0.04296875,-0.7910156,0.36621094,0.0,0.0,0.0,0.0,0.0,177.5116,37.227173,159.89502
1769245744713,-0.6044922,0.041503906,-0.80029297,1.0375977,1.0375977,0.12207031,0.0,0.0,0.0,177.5116,37.227173,159.89502
1769245744725,-0.6044922,0.041503906,-0.80029297,1.0375977,1.0375977,0.12207031,0.0,0.0,0.0,177.5116,37.194214,159.88403
1769245744813,-0.6064453,0.041015625,-0.7944336,-0.7324219,-1.7089844,0.18310547,0.0,0.0,0.0,177.5116,37.194214,159.88403
1769245744824,-0.6064453,0.041015625,-0.7944336,-0.7324219,-1.7089844,0.18310547,0.0,0.0,0.0,177.53906,37.166748,159.88403
1769245744912,-0.6015625,0.049804688,-0.79833984,0.18310547,-0.30517578,-0.12207031,0.0,0.0,0.0,177.53906,37.166748,159.88403
1769245744924,-0.6015625,0.049804688,-0.79833984,0.18310547,-0.30517578,-0.12207031,0.0,0.0,0.0,177.52808,37.18872,159.9115
1769245745012,-0.60791016,0.047851562,-0.7963867,-0.061035156,-0.7324219,0.18310547,0.0,0.0,0.0,177.52808,37.18872,159.9115
1769245745024,-0.60791016,0.047851562,-0.7963867,-0.061035156,-0.7324219,0.18310547,0.0,0.0,0.0,177.50061,37.216187,159.87854
1769245745112,-0.6088867,0.044433594,-0.79785156,0.12207031,-0.5493164,0.12207031,0.0,0.0,0.0,177.50061,37.216187,159.87854
1769245745123,-0.6088867,0.044433594,-0.79785156,0.12207031,-0.5493164,0.12207031,0.0,0.0,0.0,177.47864,37.23816,159.88953
1769245745212,-0.6074219,0.044433594,-0.8046875,0.6713867,-0.5493164,-0.12207031,0.0,0.0,0.0,177.47864,37.23816,159.88953
1769245745223,-0.6074219,0.044433594,-0.8046875,0.6713867,-0.5493164,-0.12207031,0.0,0.0,0.0,177.5061,37.27112,159.96094
1769245745311,-0.6064453,0.049316406,-0.79296875,0.18310547,-0.24414062,0.0,0.0,0.0,0.0,177.5061,37.27112,159.96094
1769245745323,-0.6064453,0.049316406,-0.79296875,0.18310547,-0.24414062,0.0,0.0,0.0,0.0,177.5116,37.22168,160.00488
1769245745411,-0.60791016,0.04296875,-0.7988281,0.0,-0.36621094,0.0,0.0,0.0,0.0,177.5116,37.22168,160.00488
1769245745422,-0.60791016,0.04296875,-0.7988281,0.0,-0.36621094,0.0,0.0,0.0,0.0,177.48962,37.232666,160.05981
1769245745511,-0.6074219,0.04345703,-0.7973633,-0.061035156,-0.5493164,0.0,0.0,0.0,0.0,177.48962,37.232666,160.05981
1769245745522,-0.6074219,0.04345703,-0.7973633,-0.061035156,-0.5493164,0.0,0.0,0.0,0.0,177.47864,37.249146,160.12024
1769245745610,-0.609375,0.04638672,-0.7998047,0.061035156,-0.18310547,0.0,0.0,0.0,0.0,177.47864,37.249146,160.12024
1769245745622,-0.609375,0.04638672,-0.7998047,0.061035156,-0.18310547,0.0,0.0,0.0,0.0,177.48413,37.265625,160.1532
1769245745710,-0.60791016,0.045410156,-0.7973633,0.0,0.0,0.0,0.0,0.0,0.0,177.48413,37.265625,160.1532
1769245745722,-0.60791016,0.045410156,-0.7973633,0.0,0.0,0.0,0.0,0.0,0.0,177.47864,37.249146,160.2301
1769245745810,-0.60791016,0.045898438,-0.79833984,0.12207031,0.0,0.0,0.0,0.0,0.0,177.47864,37.249146,160.2301
1769245745821,-0.60791016,0.045898438,-0.79833984,0.12207031,0.0,0.0,0.0,0.0,0.0,177.47314,37.243652,160.318
1769245745910,-0.6064453,0.045410156,-0.7949219,0.061035156,-0.12207031,0.0,0.0,0.0,0.0,177.47314,37.243652,160.318
1769245745921,-0.6064453,0.045410156,-0.7949219,0.061035156,-0.12207031,0.0,0.0,0.0,0.0,177.46765,37.227173,160.32898
1769245746009,-0.6064453,0.044433594,-0.7963867,0.0,-0.18310547,0.0,0.0,0.0,0.0,177.46765,37.227173,160.32898
1769245746021,-0.6064453,0.044433594,-0.7963867,0.0,-0.18310547,0.0,0.0,0.0,0.0,177.46216,37.227173,160.32349
1769245746109,-0.6088867,0.044433594,-0.79833984,-0.061035156,-0.18310547,0.0,0.0,0.0,0.0,177.46216,37.227173,160.32349
1769245746121,-0.6088867,0.044433594,-0.79833984,-0.061035156,-0.18310547,0.0,0.0,0.0,0.0,177.45117,37.23816,160.318
1769245746209,-0.60595703,0.046875,-0.79833984,0.0,0.18310547,0.0,0.0,0.0,0.0,177.45117,37.23816,160.318
1769245746220,-0.60595703,0.046875,-0.79833984,0.0,0.18310547,0.0,0.0,0.0,0.0,177.44019,37.227173,160.3125
1769245746309,-0.6064453,0.04638672,-0.79589844,0.30517578,0.24414062,0.0,0.0,0.0,0.0,177.44019,37.227173,160.3125
1769245746320,-0.6064453,0.04638672,-0.79589844,0.30517578,0.24414062,0.0,0.0,0.0,0.0,177.4292,37.2052,160.3125
1769245746408,-0.6074219,0.05126953,-0.7949219,0.6713867,0.36621094,-0.12207031,0.0,0.0,0.0,177.4292,37.2052,160.3125
1769245746420,-0.6074219,0.05126953,-0.7949219,0.6713867,0.36621094,-0.12207031,0.0,0.0,0.0,177.41821,37.2052,160.318
1769245746508,-0.60595703,0.048339844,-0.7788086,0.5493164,0.91552734,0.48828125,0.0,0.0,0.0,177.41821,37.2052,160.318
1769245746520,-0.60595703,0.048339844,-0.7788086,0.5493164,0.91552734,0.48828125,0.0,0.0,0.0,177.48413,37.08435,160.32898
1769245746608,-0.6064453,0.049316406,-0.80078125,0.4272461,-0.12207031,-0.12207031,0.0,0.0,0.0,177.48413,37.08435,160.32898
1769245746619,-0.6064453,0.049316406,-0.80078125,0.4272461,-0.12207031,-0.12207031,0.0,0.0,0.0,177.44019,37.111816,160.28503
1769245746707,-0.6040039,0.043945312,-0.79541016,0.0,-0.4272461,0.061035156,0.0,0.0,0.0,177.44019,37.111816,160.28503
1769245746719,-0.6040039,0.043945312,-0.79541016,0.0,-0.4272461,0.061035156,0.0,0.0,0.0,177.44568,37.10083,160.29053
1769245746807,-0.6064453,0.049316406,-0.7963867,0.24414062,-0.061035156,-0.061035156,0.0,0.0,0.0,177.44568,37.10083,160.29053
1769245746819,-0.6064453,0.049316406,-0.7963867,0.24414062,-0.061035156,-0.061035156,0.0,0.0,0.0,177.41821,37.122803,160.29602
1769245746907,-0.60791016,0.04638672,-0.8066406,1.0986328,0.24414062,-0.061035156,0.0,0.0,0.0,177.41821,37.122803,160.29602
1769245746918,-0.60791016,0.04638672,-0.8066406,1.0986328,0.24414062,-0.061035156,0.0,0.0,0.0,177.40723,37.122803,160.307
1769245747007,-0.6069336,0.052734375,-0.7973633,0.12207031,0.6713867,-0.18310547,0.0,0.0,0.0,177.40723,37.122803,160.307
1769245747018,-0.6069336,0.052734375,-0.7973633,0.12207031,0.6713867,-0.18310547,0.0,0.0,0.0,177.4292,37.0459,160.30151
1769245747106,-0.6064453,0.04638672,-0.80078125,0.18310547,0.5493164,0.0,0.0,0.0,0.0,177.4292,37.0459,160.30151
1769245747118,-0.6064453,0.04638672,-0.80078125,0.18310547,0.5493164,0.0,0.0,0.0,0.0,177.4237,37.001953,160.27954
1769245747206,-0.60546875,0.046875,-0.8051758,0.0,1.5258789,0.0,0.0,0.0,0.0,177.4237,37.001953,160.27954
1769245747218,-0.60546875,0.046875,-0.8051758,0.0,1.5258789,0.0,0.0,0.0,0.0,177.4237,36.90857,160.24658
1769245747306,-0.5991211,0.045898438,-0.8027344,-0.12207031,1.3427734,-0.12207031,0.0,0.0,0.0,177.4237,36.90857,160.24658
1769245747317,-0.5991211,0.045898438,-0.8027344,-0.12207031,1.3427734,-0.12207031,0.0,0.0,0.0,177.4292,36.7218,160.2301
1769245747406,-0.5942383,0.048828125,-0.7973633,-0.24414062,0.8544922,0.12207031,0.0,0.0,0.0,177.4292,36.7218,160.2301
1769245747417,-0.5942383,0.048828125,-0.7973633,-0.24414062,0.8544922,0.12207031,0.0,0.0,0.0,177.41272,36.589966,160.20813
1769245747505,-0.59765625,0.047851562,-0.7963867,0.0,-0.79345703,-0.12207031,0.0,0.0,0.0,177.41272,36.589966,160.20813
1769245747517,-0.59765625,0.047851562,-0.7963867,0.0,-0.79345703,-0.12207031,0.0,0.0,0.0,177.36328,36.573486,160.1477
1769245747605,-0.5966797,0.04345703,-0.8017578,0.061035156,-2.2583008,-0.18310547,0.0,0.0,0.0,177.36328,36.573486,160.1477
1769245747616,-0.5966797,0.04345703,-0.8017578,0.061035156,-2.2583008,-0.18310547,0.0,0.0,0.0,177.35779,36.71631,160.18616
1769245747705,-0.6010742,0.045898438,-0.8022461,0.24414062,-1.159668,0.30517578,0.0,0.0,0.0,177.35779,36.71631,160.18616
1769245747716,-0.6010742,0.045898438,-0.8022461,0.24414062,-1.159668,0.30517578,0.0,0.0,0.0,177.35779,36.85913,160.21362
1769245747804,-0.6010742,0.052246094,-0.8066406,0.4272461,-0.8544922,0.18310547,0.0,0.0,0.0,177.35779,36.85913,160.21362
1769245747816,-0.6010742,0.052246094,-0.8066406,0.4272461,-0.8544922,0.18310547,0.0,0.0,0.0,177.33582,36.919556,160.15869
1769245747904,-0.60302734,0.04638672,-0.8017578,0.061035156,0.12207031,0.0,0.0,0.0,0.0,177.33582,36.919556,160.15869
1769245747916,-0.60302734,0.04638672,-0.8017578,0.061035156,0.12207031,0.0,0.0,0.0,0.0,177.33582,36.919556,160.11475
1769245748004,-0.6010742,0.046875,-0.79589844,0.12207031,0.4272461,0.0,0.0,0.0,0.0,177.33582,36.919556,160.11475
1769245748015,-0.6010742,0.046875,-0.79589844,0.12207031,0.4272461,0.0,0.0,0.0,0.0,177.33582,36.87561,160.08179
1769245748104,-0.6044922,0.047851562,-0.8051758,0.30517578,-0.79345703,0.061035156,0.0,0.0,0.0,177.33582,36.87561,160.08179
1769245748115,-0.6044922,0.047851562,-0.8051758,0.30517578,-0.79345703,0.061035156,0.0,0.0,0.0,177.33582,36.92505,160.04333
1769245748203,-0.60302734,0.046875,-0.7861328,1.0375977,0.4272461,0.5493164,0.0,0.0,0.0,177.33582,36.92505,160.04333
1769245748215,-0.60302734,0.046875,-0.7861328,1.0375977,0.4272461,0.5493164,0.0,0.0,0.0,177.39075,36.864624,159.99939
1769245748303,-0.60302734,0.049316406,-0.80566406,0.36621094,-0.30517578,-0.24414062,0.0,0.0,0.0,177.39075,36.864624,159.99939
1769245748315,-0.60302734,0.049316406,-0.80566406,0.36621094,-0.30517578,-0.24414062,0.0,0.0,0.0,177.36877,36.94702,159.96643
1769245748403,-0.6040039,0.04736328,-0.7988281,0.24414062,-0.6713867,0.12207031,0.0,0.0,0.0,177.36877,36.94702,159.96643
1769245748414,-0.6040039,0.04736328,-0.7988281,0.24414062,-0.6713867,0.12207031,0.0,0.0,0.0,177.36877,36.9635,159.93347
1769245748502,-0.60253906,0.047851562,-0.79248047,0.18310547,-0.18310547,0.0,0.0,0.0,0.0,177.36877,36.9635,159.93347
1769245748514,-0.60253906,0.047851562,-0.79248047,0.18310547,-0.18310547,0.0,0.0,0.0,0.0,177.35779,37.001953,159.9115
1769245748602,-0.6044922,0.044921875,-0.80029297,0.91552734,-0.30517578,0.0,0.0,0.0,0.0,177.35779,37.001953,159.9115
1769245748614,-0.6044922,0.044921875,-0.80029297,0.91552734,-0.30517578,0.0,0.0,0.0,0.0,177.36877,37.040405,159.906
1769245748702,-0.5932617,0.048828125,-0.7993164,-0.36621094,-1.2207031,0.5493164,0.0,0.0,0.0,177.36877,37.040405,159.906
1769245748714,-0.5932617,0.048828125,-0.7993164,-0.36621094,-1.2207031,0.5493164,0.0,0.0,0.0,177.36328,37.06787,159.86206
1769245748802,-0.61279297,0.048339844,-0.8125,0.061035156,1.5258789,-0.9765625,0.0,0.0,0.0,177.36328,37.06787,159.86206
1769245748813,-0.61279297,0.048339844,-0.8125,0.061035156,1.5258789,-0.9765625,0.0,0.0,0.0,177.44019,36.99646,159.96643
1769245748901,-0.6010742,0.056640625,-0.7836914,-0.18310547,2.4414062,0.4272461,0.0,0.0,0.0,177.44019,36.99646,159.96643
1769245748913,-0.6010742,0.056640625,-0.7836914,-0.18310547,2.4414062,0.4272461,0.0,0.0,0.0,177.44568,36.749268,159.97742
1769245749001,-0.59814453,0.04638672,-0.81103516,1.0986328,5.79834,0.0,0.0,0.0,0.0,177.44568,36.749268,159.97742
1769245749012,-0.59814453,0.04638672,-0.81103516,1.0986328,5.79834,0.0,0.0,0.0,0.0,177.39075,36.40869,159.92249
1769245749101,-0.58984375,0.04638672,-0.8149414,-0.79345703,0.6713867,-0.48828125,0.0,0.0,0.0,177.39075,36.40869,159.92249
1769245749113,-0.58984375,0.04638672,-0.8149414,-0.79345703,0.6713867,-0.48828125,0.0,0.0,0.0,177.37976,36.156006,159.95544
1769245749201,-0.5908203,0.05078125,-0.80859375,-0.30517578,1.6479492,0.12207031,0.0,0.0,0.0,177.37976,36.156006,159.95544
1769245749212,-0.5908203,0.05078125,-0.80859375,-0.30517578,1.6479492,0.12207031,0.0,0.0,0.0,177.38525,35.947266,159.94995
1769245749300,-0.5859375,0.045898438,-0.8144531,0.18310547,3.0517578,0.36621094,0.0,0.0,0.0,177.38525,35.947266,159.94995
1769245749312,-0.5859375,0.045898438,-0.8144531,0.18310547,3.0517578,0.36621094,0.0,0.0,0.0,177.36877,35.689087,159.90051
1769245749400,-0.57714844,0.048339844,-0.8100586,-0.4272461,2.4414062,0.24414062,0.0,0.0,0.0,177.36877,35.689087,159.90051
1769245749411,-0.57714844,0.048339844,-0.8100586,-0.4272461,2.4414062,0.24414062,0.0,0.0,0.0,177.32483,35.392456,159.8346
1769245749500,-0.57714844,0.053222656,-0.8183594,-0.48828125,1.2817383,0.061035156,0.0,0.0,0.0,177.32483,35.392456,159.8346
1769245749511,-0.57714844,0.053222656,-0.8183594,-0.48828125,1.2817383,0.061035156,0.0,0.0,0.0,177.24243,35.238647,159.77417
1769245749599,-0.57421875,0.05126953,-0.8144531,0.18310547,0.61035156,0.0,0.0,0.0,0.0,177.24243,35.238647,159.77417
1769245749611,-0.57421875,0.05126953,-0.8144531,0.18310547,0.61035156,0.0,0.0,0.0,0.0,177.25891,35.112305,159.72473
1769245749699,-0.57470703,0.05078125,-0.8256836,0.18310547,0.61035156,0.0,0.0,0.0,0.0,177.25891,35.112305,159.72473
1769245749711,-0.57470703,0.05078125,-0.8256836,0.18310547,0.61035156,0.0,0.0,0.0,0.0,177.24243,35.079346,159.6698
1769245749799,-0.57177734,0.049804688,-0.8300781,0.5493164,2.0141602,0.0,0.0,0.0,0.0,177.24243,35.079346,159.6698
1769245749810,-0.57177734,0.049804688,-0.8300781,0.5493164,2.0141602,0.0,0.0,0.0,0.0,177.25342,34.953003,159.61487
1769245749899,-0.5761719,0.05126953,-0.82910156,-0.4272461,0.24414062,0.061035156,0.0,0.0,0.0,177.25342,34.953003,159.61487
1769245749910,-0.5761719,0.05126953,-0.82910156,-0.4272461,0.24414062,0.061035156,0.0,0.0,0.0,177.23694,34.77722,159.5105
1769245749998,-0.5620117,0.049804688,-0.81689453,-0.061035156,-0.5493164,0.36621094,0.0,0.0,0.0,177.23694,34.77722,159.5105
1769245750010,-0.5620117,0.049804688,-0.81689453,-0.061035156,-0.5493164,0.36621094,0.0,0.0,0.0,177.20947,34.733276,159.4336
1769245750098,-0.57177734,0.049804688,-0.8276367,-0.061035156,-1.159668,-0.18310547,0.0,0.0,0.0,177.20947,34.733276,159.4336
1769245750110,-0.57177734,0.049804688,-0.8276367,-0.061035156,-1.159668,-0.18310547,0.0,0.0,0.0,177.20947,34.81018,159.37317
1769245750198,-0.56884766,0.05029297,-0.81884766,-0.48828125,-1.4038086,0.0,0.0,0.0,0.0,177.20947,34.81018,159.37317
1769245750209,-0.56884766,0.05029297,-0.81884766,-0.48828125,-1.4038086,0.0,0.0,0.0,0.0,177.20947,34.799194,159.32373
1769245750298,-0.5756836,0.05029297,-0.84277344,-3.3569336,-9.94873,0.12207031,0.0,0.0,0.0,177.20947,34.799194,159.32373
1769245750309,-0.5756836,0.05029297,-0.84277344,-3.3569336,-9.94873,0.12207031,0.0,0.0,0.0,177.12158,35.282593,159.25232
1769245750397,-0.5996094,0.060058594,-0.8510742,-0.9765625,-1.6479492,-0.061035156,0.0,0.0,0.0,177.12158,35.282593,159.25232
1769245750409,-0.5996094,0.060058594,-0.8510742,-0.9765625,-1.6479492,-0.061035156,0.0,0.0,0.0,177.03369,35.513306,159.21936
1769245750497,-0.5888672,0.046875,-0.8198242,-1.5869141,-0.6713867,0.7324219,0.0,0.0,0.0,177.03369,35.513306,159.21936
1769245750508,-0.5888672,0.046875,-0.8198242,-1.5869141,-0.6713867,0.7324219,0.0,0.0,0.0,176.90186,35.441895,159.13147
1769245750597,-0.58496094,0.05517578,-0.8383789,-2.0751953,2.746582,0.30517578,0.0,0.0,0.0,176.90186,35.441895,159.13147
1769245750608,-0.58496094,0.05517578,-0.8383789,-2.0751953,2.746582,0.30517578,0.0,0.0,0.0,176.73706,35.359497,159.06555
1769245750696,-0.5708008,0.06542969,-0.8183594,-1.8310547,0.061035156,0.24414062,0.0,0.0,0.0,176.73706,35.359497,159.06555
1769245750708,-0.5708008,0.06542969,-0.8183594,-1.8310547,0.061035156,0.24414062,0.0,0.0,0.0,176.5448,34.974976,159.01611
1769245750796,-0.5654297,0.060546875,-0.8232422,-0.12207031,-0.61035156,0.18310547,0.0,0.0,0.0,176.5448,34.974976,159.01611
1769245750808,-0.5654297,0.060546875,-0.8232422,-0.12207031,-0.61035156,0.18310547,0.0,0.0,0.0,176.45691,34.953003,158.98315
1769245750896,-0.57714844,0.061035156,-0.81933594,0.18310547,-1.5258789,0.061035156,0.0,0.0,0.0,176.45691,34.953003,158.98315
1769245750907,-0.57714844,0.061035156,-0.81933594,0.18310547,-1.5258789,0.061035156,0.0,0.0,0.0,176.41846,35.12329,158.9447
1769245750996,-0.57373047,0.06591797,-0.82373047,-0.30517578,-1.2817383,0.0,0.0,0.0,0.0,176.41846,35.12329,158.9447
1769245751007,-0.57373047,0.06591797,-0.82373047,-0.30517578,-1.2817383,0.0,0.0,0.0,0.0,176.32507,35.249634,158.91174
1769245751095,-0.56347656,0.061035156,-0.81884766,-0.6713867,0.0,0.0,0.0,0.0,0.0,176.32507,35.249634,158.91174
1769245751107,-0.56347656,0.061035156,-0.81884766,-0.6713867,0.0,0.0,0.0,0.0,0.0,176.27563,35.249634,158.89526
1769245751195,-0.58496094,0.06542969,-0.80126953,-0.061035156,-2.1362305,0.0,0.0,0.0,0.0,176.27563,35.249634,158.89526
1769245751207,-0.58496094,0.06542969,-0.80126953,-0.061035156,-2.1362305,0.0,0.0,0.0,0.0,176.28113,35.10132,158.87878
1769245751295,-0.5600586,0.06347656,-0.8144531,0.0,-3.4179688,0.4272461,0.0,0.0,0.0,176.28113,35.10132,158.87878
1769245751307,-0.5600586,0.06347656,-0.8144531,0.0,-3.4179688,0.4272461,0.0,0.0,0.0,176.3031,35.375977,158.85681
1769245751395,-0.58691406,0.064453125,-0.8227539,0.12207031,-0.12207031,-0.48828125,0.0,0.0,0.0,176.3031,35.375977,158.85681
1769245751406,-0.58691406,0.064453125,-0.8227539,0.12207031,-0.12207031,-0.48828125,0.0,0.0,0.0,176.28113,35.612183,158.77441
1769245751494,-0.5800781,0.06347656,-0.8173828,0.0,1.5869141,0.5493164,0.0,0.0,0.0,176.28113,35.612183,158.77441
1769245751506,-0.5800781,0.06347656,-0.8173828,0.0,1.5869141,0.5493164,0.0,0.0,0.0,176.23169,35.55725,158.74146
1769245751594,-0.5756836,0.064453125,-0.79052734,0.4272461,2.5024414,0.0,0.0,0.0,0.0,176.23169,35.55725,158.74146
1769245751605,-0.5756836,0.064453125,-0.79052734,0.4272461,2.5024414,0.0,0.0,0.0,0.0,176.25366,35.386963,158.73047
1769245751694,-0.578125,0.071777344,-0.81933594,-0.061035156,0.5493164,0.12207031,0.0,0.0,0.0,176.25366,35.386963,158.73047
1769245751705,-0.578125,0.071777344,-0.81933594,-0.061035156,0.5493164,0.12207031,0.0,0.0,0.0,176.17676,35.29358,158.69751
1769245751793,-0.57128906,0.064941406,-0.81152344,0.18310547,1.3427734,0.48828125,0.0,0.0,0.0,176.17676,35.29358,158.69751
1769245751805,-0.57128906,0.064941406,-0.81152344,0.18310547,1.3427734,0.48828125,0.0,0.0,0.0,176.15479,35.200195,158.65906
1769245751893,-0.5703125,0.06982422,-0.81103516,0.24414062,-0.061035156,0.24414062,0.0,0.0,0.0,176.15479,35.200195,158.65906
1769245751905,-0.5703125,0.06982422,-0.81103516,0.24414062,-0.061035156,0.24414062,0.0,0.0,0.0,176.08887,35.17273,158.60962
1769245751993,-0.5942383,0.0703125,-0.8618164,1.5258789,-1.7089844,-0.91552734,0.0,0.0,0.0,176.08887,35.17273,158.60962
1769245752004,-0.5942383,0.0703125,-0.8618164,1.5258789,-1.7089844,-0.91552734,0.0,0.0,0.0,176.14929,35.359497,158.58215
1769245752093,-0.57421875,0.059570312,-0.80566406,1.2817383,3.112793,0.24414062,0.0,0.0,0.0,176.14929,35.359497,158.58215
1769245752104,-0.57421875,0.059570312,-0.80566406,1.2817383,3.112793,0.24414062,0.0,0.0,0.0,176.47888,34.991455,158.6261
1769245752192,-0.5722656,0.06201172,-0.84228516,0.0,-0.7324219,-1.0375977,0.0,0.0,0.0,176.47888,34.991455,158.6261
1769245752204,-0.5722656,0.06201172,-0.84228516,0.0,-0.7324219,-1.0375977,0.0,0.0,0.0,176.49536,34.974976,158.60962
1769245752292,-0.5654297,0.07128906,-0.76171875,-0.48828125,-1.5258789,1.2207031,0.0,0.0,0.0,176.49536,34.974976,158.60962
1769245752304,-0.5654297,0.07128906,-0.76171875,-0.48828125,-1.5258789,1.2207031,0.0,0.0,0.0,176.50635,34.832153,158.60962
1769245752392,-0.5678711,0.06542969,-0.83154297,0.7324219,2.8076172,0.061035156,0.0,0.0,0.0,176.50635,34.832153,158.60962
1769245752403,-0.5678711,0.06542969,-0.83154297,0.7324219,2.8076172,0.061035156,0.0,0.0,0.0,176.39648,35.112305,158.48877
1769245752491,-0.5786133,0.063964844,-0.81933594,-0.5493164,1.4038086,0.0,0.0,0.0,0.0,176.39648,35.112305,158.48877
1769245752503,-0.5786133,0.063964844,-0.81933594,-0.5493164,1.4038086,0.0,0.0,0.0,0.0,176.26465,34.8761,158.41187
1769245752591,-0.56640625,0.06738281,-0.80859375,1.0986328,-3.0517578,0.0,0.0,0.0,0.0,176.26465,34.8761,158.41187
1769245752603,-0.56640625,0.06738281,-0.80859375,1.0986328,-3.0517578,0.0,0.0,0.0,0.0,176.34155,34.991455,158.43933
1769245752691,-0.5727539,0.06347656,-0.828125,0.061035156,1.2817383,0.4272461,0.0,0.0,0.0,176.34155,34.991455,158.43933
1769245752702,-0.5727539,0.06347656,-0.828125,0.061035156,1.2817383,0.4272461,0.0,0.0,0.0,176.26465,35.17273,158.34595
1769245752791,-0.58251953,0.06591797,-0.82128906,0.5493164,0.30517578,0.0,0.0,0.0,0.0,176.26465,35.17273,158.34595
1769245752802,-0.58251953,0.06591797,-0.82128906,0.5493164,0.30517578,0.0,0.0,0.0,0.0,176.25916,35.10132,158.28552
1769245752890,-0.5703125,0.06201172,-0.8154297,1.0375977,-1.5869141,-0.48828125,0.0,0.0,0.0,176.25916,35.10132,158.28552
1769245752902,-0.5703125,0.06201172,-0.8154297,1.0375977,-1.5869141,-0.48828125,0.0,0.0,0.0,176.33057,35.15625,158.31299
1769245752990,-0.57373047,0.0625,-0.81640625,1.2817383,-1.159668,0.8544922,0.0,0.0,0.0,176.33057,35.15625,158.31299
1769245753002,-0.57373047,0.0625,-0.81640625,1.2817383,-1.159668,0.8544922,0.0,0.0,0.0,176.36353,35.249634,158.24707
1769245753090,-0.5786133,0.060058594,-0.8232422,0.7324219,-1.5869141,0.18310547,0.0,0.0,0.0,176.36353,35.249634,158.24707
1769245753101,-0.5786133,0.060058594,-0.8232422,0.7324219,-1.5869141,0.18310547,0.0,0.0,0.0,176.39099,35.408936,158.19214
1769245753190,-0.5830078,0.060058594,-0.8178711,0.61035156,-0.8544922,0.061035156,0.0,0.0,0.0,176.39099,35.408936,158.19214
1769245753201,-0.5830078,0.060058594,-0.8178711,0.61035156,-0.8544922,0.061035156,0.0,0.0,0.0,176.44043,35.480347,158.19763
1769245753289,-0.5756836,0.06298828,-0.8129883,0.18310547,-1.0986328,0.0,0.0,0.0,0.0,176.44043,35.480347,158.19763
1769245753301,-0.5756836,0.06298828,-0.8129883,0.18310547,-1.0986328,0.0,0.0,0.0,0.0,176.45691,35.524292,158.19214
1769245753389,-0.5800781,0.061035156,-0.81347656,0.36621094,0.0,0.0,0.0,0.0,0.0,176.45691,35.524292,158.19214
1769245753401,-0.5800781,0.061035156,-0.81347656,0.36621094,0.0,0.0,0.0,0.0,0.0,176.47339,35.551758,158.19763
1769245753489,-0.58203125,0.060058594,-0.8178711,0.30517578,-0.24414062,0.12207031,0.0,0.0,0.0,176.47339,35.551758,158.19763
1769245753500,-0.58203125,0.060058594,-0.8178711,0.30517578,-0.24414062,0.12207031,0.0,0.0,0.0,176.4624,35.568237,158.19763
1769245753588,-0.58154297,0.06298828,-0.8154297,0.12207031,-0.61035156,0.0,0.0,0.0,0.0,176.4624,35.568237,158.19763
1769245753600,-0.58154297,0.06298828,-0.8154297,0.12207031,-0.61035156,0.0,0.0,0.0,0.0,176.44592,35.584717,158.20312
1769245753688,-0.5830078,0.060058594,-0.81640625,0.36621094,0.12207031,0.0,0.0,0.0,0.0,176.44592,35.584717,158.20312
1769245753700,-0.5830078,0.060058594,-0.81640625,0.36621094,0.12207031,0.0,0.0,0.0,0.0,176.45142,35.612183,158.2196
1769245753788,-0.5786133,0.05859375,-0.81152344,0.18310547,0.061035156,0.0,0.0,0.0,0.0,176.45142,35.612183,158.2196
1769245753799,-0.5786133,0.05859375,-0.81152344,0.18310547,0.061035156,0.0,0.0,0.0,0.0,176.47888,35.568237,158.24158
1769245753888,-0.58154297,0.061523438,-0.8154297,-0.18310547,-0.24414062,0.0,0.0,0.0,0.0,176.47888,35.568237,158.24158
1769245753899,-0.58154297,0.061523438,-0.8154297,-0.18310547,-0.24414062,0.0,0.0,0.0,0.0,176.4624,35.568237,158.25806
1769245753987,-0.58203125,0.05908203,-0.8129883,-0.18310547,-0.79345703,0.0,0.0,0.0,0.0,176.4624,35.568237,158.25806
1769245753999,-0.58203125,0.05908203,-0.8129883,-0.18310547,-0.79345703,0.0,0.0,0.0,0.0,176.4679,35.579224,158.26904
1769245754087,-0.58203125,0.057617188,-0.8129883,0.0,-0.6713867,0.0,0.0,0.0,0.0,176.4679,35.579224,158.26904
1769245754098,-0.58203125,0.057617188,-0.8129883,0.0,-0.6713867,0.0,0.0,0.0,0.0,176.45142,35.634155,158.26904
1769245754187,-0.5839844,0.06201172,-0.8100586,0.36621094,-0.48828125,0.0,0.0,0.0,0.0,176.45142,35.634155,158.26904
1769245754198,-0.5839844,0.06201172,-0.8100586,0.36621094,-0.48828125,0.0,0.0,0.0,0.0,176.45142,35.667114,158.26904
1769245754286,-0.5859375,0.0625,-0.8173828,0.24414062,-0.30517578,0.0,0.0,0.0,0.0,176.45142,35.667114,158.26904
1769245754298,-0.5859375,0.0625,-0.8173828,0.24414062,-0.30517578,0.0,0.0,0.0,0.0,176.44043,35.700073,158.28003
1769245754386,-0.5810547,0.06347656,-0.8129883,0.0,-0.5493164,0.0,0.0,0.0,0.0,176.44043,35.700073,158.28003
1769245754398,-0.5810547,0.06347656,-0.8129883,0.0,-0.5493164,0.0,0.0,0.0,0.0,176.43494,35.705566,158.29102
1769245754486,-0.5859375,0.05859375,-0.8129883,0.12207031,-0.48828125,0.0,0.0,0.0,0.0,176.43494,35.705566,158.29102
1769245754497,-0.5859375,0.05859375,-0.8129883,0.12207031,-0.48828125,0.0,0.0,0.0,0.0,176.44043,35.72754,158.3075
1769245754586,-0.58447266,0.06201172,-0.81640625,0.0,-0.4272461,0.0,0.0,0.0,0.0,176.44043,35.72754,158.3075
1769245754597,-0.58447266,0.06201172,-0.81640625,0.0,-0.4272461,0.0,0.0,0.0,0.0,176.42944,35.74402,158.32397
1769245754685,-0.58447266,0.060546875,-0.81347656,0.48828125,-0.061035156,0.0,0.0,0.0,0.0,176.42944,35.74402,158.32397
1769245754697,-0.58447266,0.060546875,-0.81347656,0.48828125,-0.061035156,0.0,0.0,0.0,0.0,176.44592,35.72754,158.34045
1769245754785,-0.5859375,0.05810547,-0.81689453,1.0375977,0.24414062,0.0,0.0,0.0,0.0,176.44592,35.72754,158.34045
1769245754796,-0.5859375,0.05810547,-0.81689453,1.0375977,0.24414062,0.0,0.0,0.0,0.0,176.47888,35.71106,158.35693
1769245754885,-0.5839844,0.061035156,-0.8125,0.18310547,0.6713867,0.0,0.0,0.0,0.0,176.47888,35.71106,158.35693
1769245754896,-0.5839844,0.061035156,-0.8125,0.18310547,0.6713867,0.0,0.0,0.0,0.0,176.52832,35.66162,158.3844
1769245754984,-0.5786133,0.063964844,-0.8144531,0.30517578,0.061035156,-0.12207031,0.0,0.0,0.0,176.52832,35.66162,158.3844
1769245754996,-0.5786133,0.063964844,-0.8144531,0.30517578,0.061035156,-0.12207031,0.0,0.0,0.0,176.53381,35.612183,158.42834
1769245755084,-0.5830078,0.05810547,-0.8154297,0.36621094,-0.24414062,-0.12207031,0.0,0.0,0.0,176.53381,35.612183,158.42834
1769245755096,-0.5830078,0.05810547,-0.8154297,0.36621094,-0.24414062,-0.12207031,0.0,0.0,0.0,176.56128,35.584717,158.43384
1769245755184,-0.58251953,0.05908203,-0.8149414,0.36621094,-0.4272461,-0.061035156,0.0,0.0,0.0,176.56128,35.584717,158.43384
1769245755195,-0.58251953,0.05908203,-0.8149414,0.36621094,-0.4272461,-0.061035156,0.0,0.0,0.0,176.58325,35.568237,158.45032
1769245755284,-0.5805664,0.060546875,-0.8149414,0.4272461,0.0,-0.12207031,0.0,0.0,0.0,176.58325,35.568237,158.45032
1769245755295,-0.5805664,0.060546875,-0.8149414,0.4272461,0.0,-0.12207031,0.0,0.0,0.0,176.63269,35.55725,158.48328
1769245755383,-0.5810547,0.056640625,-0.81640625,0.36621094,0.30517578,0.0,0.0,0.0,0.0,176.63269,35.55725,158.48328
1769245755395,-0.5810547,0.056640625,-0.81640625,0.36621094,0.30517578,0.0,0.0,0.0,0.0,176.66016,35.54077,158.49426
1769245755483,-0.5800781,0.057617188,-0.8154297,0.12207031,0.0,0.0,0.0,0.0,0.0,176.66016,35.54077,158.49426
1769245755495,-0.5800781,0.057617188,-0.8154297,0.12207031,0.0,0.0,0.0,0.0,0.0,176.68213,35.496826,158.51074
1769245755583,-0.578125,0.05859375,-0.81689453,0.18310547,0.18310547,0.0,0.0,0.0,0.0,176.68213,35.496826,158.51074
1769245755594,-0.578125,0.05859375,-0.81689453,0.18310547,0.18310547,0.0,0.0,0.0,0.0,176.69312,35.458374,158.52173
1769245755682,-0.5786133,0.056640625,-0.8154297,0.4272461,0.30517578,-0.061035156,0.0,0.0,0.0,176.69312,35.458374,158.52173
1769245755694,-0.5786133,0.056640625,-0.8154297,0.4272461,0.30517578,-0.061035156,0.0,0.0,0.0,176.7041,35.39795,158.51624
1769245755782,-0.578125,0.05810547,-0.82128906,0.36621094,0.4272461,0.0,0.0,0.0,0.0,176.7041,35.39795,158.51624
1769245755794,-0.578125,0.05810547,-0.82128906,0.36621094,0.4272461,0.0,0.0,0.0,0.0,176.72607,35.34851,158.52722
1769245755882,-0.57470703,0.053710938,-0.8183594,0.8544922,0.6713867,0.0,0.0,0.0,0.0,176.72607,35.34851,158.52722
1769245755893,-0.57470703,0.053710938,-0.8183594,0.8544922,0.6713867,0.0,0.0,0.0,0.0,176.77002,35.249634,158.53271
1769245755982,-0.57470703,0.05859375,-0.8227539,-0.061035156,0.36621094,0.0,0.0,0.0,0.0,176.77002,35.249634,158.53271
1769245755994,-0.57470703,0.05859375,-0.8227539,-0.061035156,0.36621094,0.0,0.0,0.0,0.0,176.75354,35.183716,158.53271
1769245756081,-0.57373047,0.056152344,-0.8198242,0.0,0.18310547,0.0,0.0,0.0,0.0,176.75354,35.183716,158.53271
1769245756093,-0.57373047,0.056152344,-0.8198242,0.0,0.18310547,0.0,0.0,0.0,0.0,176.74255,35.128784,158.52173
1769245756181,-0.57373047,0.055664062,-0.8183594,0.48828125,0.8544922,0.0,0.0,0.0,0.0,176.74255,35.128784,158.52173
1769245756193,-0.57373047,0.055664062,-0.8183594,0.48828125,0.8544922,0.0,0.0,0.0,0.0,176.73706,35.10132,158.50525
1769245756281,-0.57470703,0.060546875,-0.8232422,0.12207031,0.5493164,-0.24414062,0.0,0.0,0.0,176.73706,35.10132,158.50525
1769245756292,-0.57470703,0.060546875,-0.8232422,0.12207031,0.5493164,-0.24414062,0.0,0.0,0.0,176.75354,35.046387,158.52722
1769245756380,-0.5732422,0.05859375,-0.81933594,0.30517578,0.79345703,-0.12207031,0.0,0.0,0.0,176.75354,35.046387,158.52722
1769245756392,-0.5732422,0.05859375,-0.81933594,0.30517578,0.79345703,-0.12207031,0.0,0.0,0.0,176.77002,34.936523,158.55469
1769245756480,-0.56933594,0.057617188,-0.8183594,0.061035156,0.5493164,-0.12207031,0.0,0.0,0.0,176.77002,34.936523,158.55469
1769245756492,-0.56933594,0.057617188,-0.8183594,0.061035156,0.5493164,-0.12207031,0.0,0.0,0.0,176.77551,34.84314,158.58215
1769245756580,-0.5703125,0.05859375,-0.8261719,0.12207031,1.0375977,-0.061035156,0.0,0.0,0.0,176.77551,34.84314,158.58215
1769245756591,-0.5703125,0.05859375,-0.8261719,0.12207031,1.0375977,-0.061035156,0.0,0.0,0.0,176.77551,34.766235,158.60413
1769245756680,-0.5683594,0.056640625,-0.82177734,0.12207031,0.4272461,-0.12207031,0.0,0.0,0.0,176.77551,34.766235,158.60413
1769245756691,-0.5683594,0.056640625,-0.82177734,0.12207031,0.4272461,-0.12207031,0.0,0.0,0.0,176.7865,34.656372,158.59314
1769245756779,-0.5644531,0.055664062,-0.82714844,0.18310547,0.6713867,0.0,0.0,0.0,0.0,176.7865,34.656372,158.59314
1769245756791,-0.5644531,0.055664062,-0.82714844,0.18310547,0.6713867,0.0,0.0,0.0,0.0,176.77551,34.590454,158.56018
1769245756879,-0.5644531,0.057128906,-0.82910156,0.48828125,1.0375977,0.0,0.0,0.0,0.0,176.77551,34.590454,158.56018
1769245756891,-0.5644531,0.057128906,-0.82910156,0.48828125,1.0375977,0.0,0.0,0.0,0.0,176.77551,34.469604,158.53271
1769245756979,-0.5673828,0.05859375,-0.82421875,-0.5493164,0.4272461,0.0,0.0,0.0,0.0,176.77551,34.469604,158.53271
1769245756990,-0.5673828,0.05859375,-0.82421875,-0.5493164,0.4272461,0.0,0.0,0.0,0.0,176.781,34.315796,158.49976
1769245757079,-0.55908203,0.060546875,-0.83203125,0.0,0.61035156,0.0,0.0,0.0,0.0,176.781,34.315796,158.49976
1769245757090,-0.55908203,0.060546875,-0.83203125,0.0,0.61035156,0.0,0.0,0.0,0.0,176.75903,34.227905,158.4668
1769245757178,-0.5629883,0.0546875,-0.8305664,-0.24414062,-0.6713867,0.0,0.0,0.0,0.0,176.75903,34.227905,158.4668
1769245757190,-0.5629883,0.0546875,-0.8305664,-0.24414062,-0.6713867,0.0,0.0,0.0,0.0,176.74805,34.189453,158.42834
1769245757278,-0.5625,0.057128906,-0.8364258,0.12207031,0.0,0.0,0.0,0.0,0.0,176.74805,34.189453,158.42834
1769245757289,-0.5625,0.057128906,-0.8364258,0.12207031,0.0,0.0,0.0,0.0,0.0,176.75354,34.156494,158.3844
1769245757378,-0.55908203,0.057617188,-0.8305664,0.12207031,-0.30517578,0.0,0.0,0.0,0.0,176.75354,34.156494,158.3844
1769245757389,-0.55908203,0.057617188,-0.8305664,0.12207031,-0.30517578,0.0,0.0,0.0,0.0,176.76453,34.145508,158.36792
1769245757477,-0.5595703,0.057128906,-0.8305664,-0.061035156,-0.12207031,0.0,0.0,0.0,0.0,176.76453,34.145508,158.36792
1769245757489,-0.5595703,0.057128906,-0.8305664,-0.061035156,-0.12207031,0.0,0.0,0.0,0.0,176.74805,34.13452,158.40637
1769245757577,-0.5595703,0.057128906,-0.8310547,-0.061035156,-0.18310547,0.0,0.0,0.0,0.0,176.74805,34.13452,158.40637
1769245757589,-0.5595703,0.057128906,-0.8310547,-0.061035156,-0.18310547,0.0,0.0,0.0,0.0,176.73157,34.13452,158.44482
1769245757677,-0.55810547,0.05859375,-0.8276367,-0.061035156,-0.12207031,0.0,0.0,0.0,0.0,176.73157,34.13452,158.44482
1769245757688,-0.55810547,0.05859375,-0.8276367,-0.061035156,-0.12207031,0.0,0.0,0.0,0.0,176.71509,34.101562,158.48328
1769245757777,-0.56152344,0.059570312,-0.83203125,0.5493164,0.7324219,0.0,0.0,0.0,0.0,176.71509,34.101562,158.48328
1769245757788,-0.56152344,0.059570312,-0.83203125,0.5493164,0.7324219,0.0,0.0,0.0,0.0,176.7041,34.090576,158.52173
1769245757876,-0.5571289,0.06201172,-0.8339844,0.48828125,0.5493164,0.0,0.0,0.0,0.0,176.7041,34.090576,158.52173
1769245757888,-0.5571289,0.06201172,-0.8339844,0.48828125,0.5493164,0.0,0.0,0.0,0.0,176.7041,34.02466,158.57117
1769245757976,-0.5546875,0.05908203,-0.8222656,-0.4272461,0.6713867,0.0,0.0,0.0,0.0,176.7041,34.02466,158.57117
1769245757988,-0.5546875,0.05908203,-0.8222656,-0.4272461,0.6713867,0.0,0.0,0.0,0.0,176.74805,33.92578,158.58215
1769245758076,-0.5517578,0.060546875,-0.8286133,-0.12207031,0.79345703,0.0,0.0,0.0,0.0,176.74805,33.92578,158.58215
1769245758087,-0.5517578,0.060546875,-0.8286133,-0.12207031,0.79345703,0.0,0.0,0.0,0.0,176.7041,33.826904,158.53821
1769245758175,-0.5566406,0.05908203,-0.8378906,-0.48828125,-0.7324219,0.0,0.0,0.0,0.0,176.7041,33.826904,158.53821
1769245758187,-0.5566406,0.05908203,-0.8378906,-0.48828125,-0.7324219,0.0,0.0,0.0,0.0,176.67664,33.82141,158.47778
1769245758275,-0.5551758,0.059570312,-0.8334961,-0.48828125,-0.79345703,0.0,0.0,0.0,0.0,176.67664,33.82141,158.47778
1769245758287,-0.5551758,0.059570312,-0.8334961,-0.48828125,-0.79345703,0.0,0.0,0.0,0.0,176.65466,33.82141,158.42285
1769245758375,-0.546875,0.060546875,-0.8286133,-0.8544922,-0.4272461,0.5493164,0.0,0.0,0.0,176.65466,33.82141,158.42285
1769245758388,-0.546875,0.060546875,-0.8286133,-0.8544922,-0.4272461,0.5493164,0.0,0.0,0.0,176.6217,33.79944,158.36792
1769245758475,-0.5541992,0.059570312,-0.81591797,-0.79345703,-2.0141602,0.91552734,0.0,0.0,0.0,176.6217,33.79944,158.36792
1769245758486,-0.5541992,0.059570312,-0.81591797,-0.79345703,-2.0141602,0.91552734,0.0,0.0,0.0,176.42944,33.80493,158.15918
1769245758574,-0.5595703,0.06591797,-0.8330078,-1.159668,-3.112793,0.8544922,0.0,0.0,0.0,176.42944,33.80493,158.15918
1769245758586,-0.5595703,0.06591797,-0.8330078,-1.159668,-3.112793,0.8544922,0.0,0.0,0.0,176.2262,34.123535,157.95593
1769245758674,-0.5600586,0.06542969,-0.828125,0.36621094,-3.0517578,-0.61035156,0.0,0.0,0.0,176.2262,34.123535,157.95593
1769245758686,-0.5600586,0.06542969,-0.828125,0.36621094,-3.0517578,-0.61035156,0.0,0.0,0.0,176.15479,34.354248,157.89001
1769245758774,-0.57128906,0.076171875,-0.82714844,0.0,-5.065918,-0.61035156,0.0,0.0,0.0,176.15479,34.354248,157.89001
1769245758785,-0.57128906,0.076171875,-0.82714844,0.0,-5.065918,-0.61035156,0.0,0.0,0.0,176.21521,34.639893,157.93396
1769245758874,-0.58154297,0.060058594,-0.8183594,-0.48828125,-5.065918,-2.0751953,0.0,0.0,0.0,176.21521,34.639893,157.93396
1769245758885,-0.58154297,0.060058594,-0.8183594,-0.48828125,-5.065918,-2.0751953,0.0,0.0,0.0,176.28662,35.040894,158.04932
1769245758973,-0.5883789,0.07128906,-0.8388672,0.18310547,-4.760742,-3.1738281,0.0,0.0,0.0,176.28662,35.040894,158.04932
1769245758985,-0.5883789,0.07128906,-0.8388672,0.18310547,-4.760742,-3.1738281,0.0,0.0,0.0,176.45142,35.595703,158.3789
1769245759073,-0.59472656,0.0390625,-0.8105469,-0.24414062,-8.666992,-2.746582,0.0,0.0,0.0,176.45142,35.595703,158.3789
1769245759084,-0.59472656,0.0390625,-0.8105469,-0.24414062,-8.666992,-2.746582,0.0,0.0,0.0,176.7041,36.04065,158.60962
1769245759173,-0.59716797,0.043945312,-0.8208008,2.746582,0.24414062,-3.90625,0.0,0.0,0.0,176.7041,36.04065,158.60962
1769245759184,-0.59716797,0.043945312,-0.8208008,2.746582,0.24414062,-3.90625,0.0,0.0,0.0,177.09961,36.44165,159.07104
1769245759272,-0.5966797,0.047851562,-0.80078125,5.126953,4.0283203,-5.493164,0.0,0.0,0.0,177.09961,36.44165,159.07104
1769245759284,-0.5966797,0.047851562,-0.80078125,5.126953,4.0283203,-5.493164,0.0,0.0,0.0,177.78625,36.12854,159.71924
1769245759372,-0.59277344,0.012207031,-0.8120117,-2.746582,-0.91552734,0.30517578,0.0,0.0,0.0,177.78625,36.12854,159.71924
1769245759384,-0.59277344,0.012207031,-0.8120117,-2.746582,-0.91552734,0.30517578,0.0,0.0,0.0,178.01147,36.051636,159.90051
1769245759472,-0.58691406,0.04248047,-0.8076172,-1.2817383,0.91552734,-0.79345703,0.0,0.0,0.0,178.01147,36.051636,159.90051
1769245759483,-0.58691406,0.04248047,-0.8076172,-1.2817383,0.91552734,-0.79345703,0.0,0.0,0.0,177.94556,35.958252,159.9884
1769245759572,-0.57666016,0.057128906,-0.81103516,-0.8544922,1.0375977,0.91552734,0.0,0.0,0.0,177.94556,35.958252,159.9884
1769245759583,-0.57666016,0.057128906,-0.81103516,-0.8544922,1.0375977,0.91552734,0.0,0.0,0.0,177.72583,35.81543,159.90051
1769245759671,-0.5805664,0.048828125,-0.81396484,-0.48828125,-0.4272461,1.159668,0.0,0.0,0.0,177.72583,35.81543,159.90051
1769245759683,-0.5805664,0.048828125,-0.81396484,-0.48828125,-0.4272461,1.159668,0.0,0.0,0.0,177.58301,35.78247,159.72473
1769245759771,-0.58984375,0.04296875,-0.81396484,1.2817383,1.4648438,-0.12207031,0.0,0.0,0.0,177.58301,35.78247,159.72473
1769245759783,-0.58984375,0.04296875,-0.81396484,1.2817383,1.4648438,-0.12207031,0.0,0.0,0.0,177.56104,35.733032,159.62036
1769245759871,-0.58984375,0.044921875,-0.8178711,1.0986328,0.6713867,0.6713867,0.0,0.0,0.0,177.56104,35.733032,159.62036
1769245759882,-0.58984375,0.044921875,-0.8178711,1.0986328,0.6713867,0.6713867,0.0,0.0,0.0,177.62146,35.584717,159.57092
1769245759970,-0.5776367,0.04345703,-0.8076172,1.7700195,0.9765625,0.61035156,0.0,0.0,0.0,177.62146,35.584717,159.57092
1769245759982,-0.5776367,0.04345703,-0.8076172,1.7700195,0.9765625,0.61035156,0.0,0.0,0.0,177.70386,35.46936,159.505
1769245760070,-0.5722656,0.04345703,-0.80615234,0.12207031,0.4272461,-0.18310547,0.0,0.0,0.0,177.70386,35.46936,159.505
1769245760082,-0.5722656,0.04345703,-0.80615234,0.12207031,0.4272461,-0.18310547,0.0,0.0,0.0,177.79175,35.392456,159.47205
1769245760170,-0.57910156,0.041503906,-0.8178711,-0.7324219,0.24414062,0.4272461,0.0,0.0,0.0,177.79175,35.392456,159.47205
1769245760182,-0.57910156,0.041503906,-0.8178711,-0.7324219,0.24414062,0.4272461,0.0,0.0,0.0,177.69836,35.41443,159.4281
1769245760270,-0.58154297,0.041503906,-0.81152344,-1.3427734,-0.7324219,0.8544922,0.0,0.0,0.0,177.69836,35.41443,159.4281
1769245760281,-0.58154297,0.041503906,-0.81152344,-1.3427734,-0.7324219,0.8544922,0.0,0.0,0.0,177.55005,35.36499,159.32373
1769245760369,-0.58984375,0.049316406,-0.81933594,-0.9765625,-1.2817383,0.79345703,0.0,0.0,0.0,177.55005,35.36499,159.32373
1769245760381,-0.58984375,0.049316406,-0.81933594,-0.9765625,-1.2817383,0.79345703,0.0,0.0,0.0,177.37427,35.41443,159.25781
1769245760469,-0.59033203,0.0390625,-0.8076172,-1.8310547,-3.7841797,0.4272461,0.0,0.0,0.0,177.37427,35.41443,159.25781
1769245760481,-0.59033203,0.0390625,-0.8076172,-1.8310547,-3.7841797,0.4272461,0.0,0.0,0.0,177.25342,35.584717,159.1095
1769245760570,-0.58251953,0.04296875,-0.8051758,-1.3427734,-1.159668,0.36621094,0.0,0.0,0.0,177.25342,35.584717,159.1095
1769245760581,-0.58251953,0.04296875,-0.8051758,-1.3427734,-1.159668,0.36621094,0.0,0.0,0.0,177.06665,35.837402,159.0326
1769245760668,-0.5917969,0.049316406,-0.8129883,-2.8076172,-2.1362305,-0.61035156,0.0,0.0,0.0,177.06665,35.837402,159.0326
1769245760680,-0.5917969,0.049316406,-0.8129883,-2.8076172,-2.1362305,-0.61035156,0.0,0.0,0.0,176.87439,35.99121,159.04358
1769245760768,-0.6044922,0.064941406,-0.80029297,-2.8686523,-1.0375977,0.6713867,0.0,0.0,0.0,176.87439,35.99121,159.04358
1769245760780,-0.6044922,0.064941406,-0.80029297,-2.8686523,-1.0375977,0.6713867,0.0,0.0,0.0,176.63269,36.106567,159.07654
1769245760868,-0.59375,0.071777344,-0.82421875,-3.90625,-2.0141602,0.4272461,0.0,0.0,0.0,176.63269,36.106567,159.07654
1769245760879,-0.59375,0.071777344,-0.82421875,-3.90625,-2.0141602,0.4272461,0.0,0.0,0.0,176.20972,36.28784,158.99963
1769245760968,-0.5961914,0.07763672,-0.80322266,-1.7089844,0.7324219,1.7089844,0.0,0.0,0.0,176.20972,36.28784,158.99963
1769245760979,-0.5961914,0.07763672,-0.80322266,-1.7089844,0.7324219,1.7089844,0.0,0.0,0.0,175.86914,36.172485,158.87329
1769245761068,-0.5957031,0.06347656,-0.8183594,0.36621094,2.1972656,0.12207031,0.0,0.0,0.0,175.86914,36.172485,158.87329
1769245761079,-0.5957031,0.06347656,-0.8183594,0.36621094,2.1972656,0.12207031,0.0,0.0,0.0,175.72083,36.05713,158.76343
1769245761167,-0.59472656,0.092285156,-0.7885742,-1.159668,2.8686523,5.2490234,0.0,0.0,0.0,175.72083,36.05713,158.76343
1769245761178,-0.59472656,0.092285156,-0.7885742,-1.159668,2.8686523,5.2490234,0.0,0.0,0.0,175.61096,35.612183,158.47229
1769245761267,-0.57910156,0.03955078,-0.79345703,1.2817383,-6.958008,-0.79345703,0.0,0.0,0.0,175.61096,35.612183,158.47229
1769245761278,-0.57910156,0.03955078,-0.79345703,1.2817383,-6.958008,-0.79345703,0.0,0.0,0.0,175.46814,35.86487,158.29651
1769245761366,-0.5761719,0.12011719,-0.8964844,1.0986328,9.82666,-2.1972656,0.0,0.0,0.0,175.46814,35.86487,158.29651
1769245761378,-0.5761719,0.12011719,-0.8964844,1.0986328,9.82666,-2.1972656,0.0,0.0,0.0,175.3363,36.188965,158.74146
1769245761466,-0.60302734,0.076171875,-0.79589844,-4.333496,-2.380371,-2.6245117,0.0,0.0,0.0,175.3363,36.188965,158.74146
1769245761478,-0.60302734,0.076171875,-0.79589844,-4.333496,-2.380371,-2.6245117,0.0,0.0,0.0,175.6549,35.45288,159.00513
1769245761566,-0.60058594,0.09716797,-0.8652344,0.0,-0.12207031,-2.1362305,0.0,0.0,0.0,175.6549,35.45288,159.00513
1769245761577,-0.60058594,0.09716797,-0.8652344,0.0,-0.12207031,-2.1362305,0.0,0.0,0.0,175.58899,35.79895,159.35669
1769245761666,-0.54541016,0.12207031,-0.7895508,0.12207031,0.5493164,3.540039,0.0,0.0,0.0,175.58899,35.79895,159.35669
1769245761677,-0.54541016,0.12207031,-0.7895508,0.12207031,0.5493164,3.540039,0.0,0.0,0.0,175.47913,35.55725,159.12048
1769245761765,-0.61328125,0.025878906,-0.8256836,1.3427734,-1.0375977,-1.7089844,0.0,0.0,0.0,175.47913,35.55725,159.12048
1769245761777,-0.61328125,0.025878906,-0.8256836,1.3427734,-1.0375977,-1.7089844,0.0,0.0,0.0,175.35828,35.689087,158.89526
1769245761865,-0.6044922,0.030761719,-0.8022461,-0.12207031,0.18310547,-3.7841797,0.0,0.0,0.0,175.35828,35.689087,158.89526
1769245761877,-0.6044922,0.030761719,-0.8022461,-0.12207031,0.18310547,-3.7841797,0.0,0.0,0.0,175.83618,35.66162,159.40613
1769245761965,-0.5732422,0.079589844,-0.8022461,-4.5166016,-2.5634766,-2.5024414,0.0,0.0,0.0,175.83618,35.66162,159.40613
1769245761976,-0.5732422,0.079589844,-0.8022461,-4.5166016,-2.5634766,-2.5024414,0.0,0.0,0.0,175.86914,35.755005,159.85657
1769245762064,-0.58984375,0.088378906,-0.8173828,-0.79345703,0.91552734,-1.5258789,0.0,0.0,0.0,175.86914,35.755005,159.85657
1769245762076,-0.58984375,0.088378906,-0.8173828,-0.79345703,0.91552734,-1.5258789,0.0,0.0,0.0,175.70435,35.86487,160.05432
1769245762164,-0.5830078,0.08984375,-0.80566406,-0.12207031,-1.159668,2.1362305,0.0,0.0,0.0,175.70435,35.86487,160.05432
1769245762176,-0.5830078,0.08984375,-0.80566406,-0.12207031,-1.159668,2.1362305,0.0,0.0,0.0,175.578,35.83191,159.96094
1769245762264,-0.59277344,0.06689453,-0.8154297,1.159668,-1.8920898,0.91552734,0.0,0.0,0.0,175.578,35.83191,159.96094
1769245762276,-0.59277344,0.06689453,-0.8154297,1.159668,-1.8920898,0.91552734,0.0,0.0,0.0,175.46265,36.002197,159.68079
1769245762364,-0.59765625,0.06347656,-0.8022461,1.6479492,-0.4272461,0.4272461,0.0,0.0,0.0,175.46265,36.002197,159.68079
1769245762375,-0.59765625,0.06347656,-0.8022461,1.6479492,-0.4272461,0.4272461,0.0,0.0,0.0,175.54504,36.090088,159.58191
1769245762463,-0.59765625,0.06542969,-0.8100586,0.91552734,-0.79345703,0.061035156,0.0,0.0,0.0,175.54504,36.090088,159.58191
1769245762475,-0.59765625,0.06542969,-0.8100586,0.91552734,-0.79345703,0.061035156,0.0,0.0,0.0,175.56702,36.205444,159.505
1769245762563,-0.60058594,0.06933594,-0.8022461,-0.24414062,-0.6713867,-0.5493164,0.0,0.0,0.0,175.56702,36.205444,159.505
1769245762575,-0.60058594,0.06933594,-0.8022461,-0.24414062,-0.6713867,-0.5493164,0.0,0.0,0.0,175.64941,36.254883,159.54346
1769245762663,-0.59716797,0.071777344,-0.80371094,0.48828125,-0.36621094,-1.0375977,0.0,0.0,0.0,175.64941,36.254883,159.54346
1769245762674,-0.59716797,0.071777344,-0.80371094,0.48828125,-0.36621094,-1.0375977,0.0,0.0,0.0,175.70984,36.326294,159.63684
1769245762763,-0.5996094,0.07324219,-0.8041992,0.0,-0.5493164,-0.18310547,0.0,0.0,0.0,175.70984,36.326294,159.63684
1769245762774,-0.5996094,0.07324219,-0.8041992,0.0,-0.5493164,-0.18310547,0.0,0.0,0.0,175.74829,36.375732,159.69177
1769245762862,-0.6035156,0.07421875,-0.8046875,0.18310547,0.0,0.5493164,0.0,0.0,0.0,175.74829,36.375732,159.69177
1769245762874,-0.6035156,0.07421875,-0.8046875,0.18310547,0.0,0.5493164,0.0,0.0,0.0,175.72083,36.392212,159.65332
1769245762962,-0.59521484,0.064941406,-0.80029297,0.6713867,1.4038086,0.0,0.0,0.0,0.0,175.72083,36.392212,159.65332
1769245762974,-0.59521484,0.064941406,-0.80029297,0.6713867,1.4038086,0.0,0.0,0.0,0.0,175.73181,36.331787,159.5929
1769245763062,-0.6020508,0.05810547,-0.79541016,0.061035156,0.4272461,-0.36621094,0.0,0.0,0.0,175.73181,36.331787,159.5929
1769245763075,-0.6020508,0.05810547,-0.79541016,0.061035156,0.4272461,-0.36621094,0.0,0.0,0.0,175.8197,36.309814,159.60938
1769245763162,-0.5986328,0.067871094,-0.8027344,-1.7700195,-0.4272461,-3.0517578,0.0,0.0,0.0,175.8197,36.309814,159.60938
1769245763173,-0.5986328,0.067871094,-0.8027344,-1.7700195,-0.4272461,-3.0517578,0.0,0.0,0.0,175.8252,36.414185,159.81812
1769245763261,-0.60058594,0.078125,-0.79589844,-0.4272461,-2.4414062,-2.319336,0.0,0.0,0.0,175.8252,36.414185,159.81812
1769245763273,-0.60058594,0.078125,-0.79589844,-0.4272461,-2.4414062,-2.319336,0.0,0.0,0.0,175.92957,36.51306,160.16968
1769245763361,-0.61328125,0.060058594,-0.796875,0.0,-2.5634766,0.9765625,0.0,0.0,0.0,175.92957,36.51306,160.16968
1769245763372,-0.61328125,0.060058594,-0.796875,0.0,-2.5634766,0.9765625,0.0,0.0,0.0,175.92957,36.77124,160.18066
1769245763461,-0.6074219,0.07519531,-0.80078125,3.2958984,-1.0986328,-1.7700195,0.0,0.0,0.0,175.92957,36.77124,160.18066
1769245763472,-0.6074219,0.07519531,-0.80078125,3.2958984,-1.0986328,-1.7700195,0.0,0.0,0.0,176.01746,36.99646,160.21362
1769245763560,-0.6191406,0.06640625,-0.7963867,3.112793,-1.953125,-0.30517578,0.0,0.0,0.0,176.01746,36.99646,160.21362
1769245763572,-0.6191406,0.06640625,-0.7963867,3.112793,-1.953125,-0.30517578,0.0,0.0,0.0,176.41296,37.139282,160.27954
1769245763660,-0.61328125,0.048828125,-0.7910156,-0.36621094,-2.8686523,3.4179688,0.0,0.0,0.0,176.41296,37.139282,160.27954
1769245763672,-0.61328125,0.048828125,-0.7910156,-0.36621094,-2.8686523,3.4179688,0.0,0.0,0.0,176.42944,37.29309,160.08179
1769245763760,-0.6254883,0.06542969,-0.79248047,-0.9765625,-0.9765625,1.6479492,0.0,0.0,0.0,176.42944,37.29309,160.08179
1769245763771,-0.6254883,0.06542969,-0.79248047,-0.9765625,-0.9765625,1.6479492,0.0,0.0,0.0,175.98999,37.595215,159.69727
1769245763860,-0.6220703,0.056152344,-0.7944336,-5.432129,-2.380371,3.7231445,0.0,0.0,0.0,175.98999,37.595215,159.69727
1769245763871,-0.6220703,0.056152344,-0.7944336,-5.432129,-2.380371,3.7231445,0.0,0.0,0.0,175.51758,37.749023,159.37866
1769245763959,-0.6166992,0.07373047,-0.79296875,-2.5024414,-0.48828125,3.7841797,0.0,0.0,0.0,175.51758,37.749023,159.37866
1769245763971,-0.6166992,0.07373047,-0.79296875,-2.5024414,-0.48828125,3.7841797,0.0,0.0,0.0,174.89685,37.842407,158.92273
1769245764059,-0.62402344,0.07910156,-0.78125,-3.0517578,-0.91552734,2.5634766,0.0,0.0,0.0,174.89685,37.842407,158.92273
1769245764070,-0.62402344,0.07910156,-0.78125,-3.0517578,-0.91552734,2.5634766,0.0,0.0,0.0,174.57825,37.79297,158.61511
1769245764159,-0.6166992,0.09716797,-0.78125,-1.8310547,0.6713867,2.8686523,0.0,0.0,0.0,174.57825,37.79297,158.61511
1769245764170,-0.6166992,0.09716797,-0.78125,-1.8310547,0.6713867,2.8686523,0.0,0.0,0.0,174.23767,37.770996,158.44482
1769245764259,-0.61279297,0.087402344,-0.77490234,-3.6621094,2.0141602,4.1503906,0.0,0.0,0.0,174.23767,37.770996,158.44482
1769245764270,-0.61279297,0.087402344,-0.77490234,-3.6621094,2.0141602,4.1503906,0.0,0.0,0.0,173.60596,37.661133,158.01086
1769245764358,-0.6118164,0.10888672,-0.7841797,-2.319336,0.061035156,3.4179688,0.0,0.0,0.0,173.60596,37.661133,158.01086
1769245764370,-0.6118164,0.10888672,-0.7841797,-2.319336,0.061035156,3.4179688,0.0,0.0,0.0,172.91931,37.540283,157.54395
1769245764458,-0.6201172,0.13330078,-0.78466797,-1.4648438,0.0,2.0141602,0.0,0.0,0.0,172.91931,37.540283,157.54395
1769245764469,-0.6201172,0.13330078,-0.78466797,-1.4648438,0.0,2.0141602,0.0,0.0,0.0,172.47986,37.562256,157.26929
1769245764557,-0.61865234,0.12646484,-0.7861328,-0.061035156,-0.8544922,1.3427734,0.0,0.0,0.0,172.47986,37.562256,157.26929
1769245764569,-0.61865234,0.12646484,-0.7861328,-0.061035156,-0.8544922,1.3427734,0.0,0.0,0.0,172.23267,37.573242,157.10999
1769245764657,-0.62402344,0.12158203,-0.78515625,-0.36621094,0.7324219,0.79345703,0.0,0.0,0.0,172.23267,37.573242,157.10999
1769245764669,-0.62402344,0.12158203,-0.78515625,-0.36621094,0.7324219,0.79345703,0.0,0.0,0.0,172.08984,37.578735,157.04956
1769245764757,-0.6171875,0.122558594,-0.78466797,1.953125,0.061035156,-0.5493164,0.0,0.0,0.0,172.08984,37.578735,157.04956
1769245764769,-0.6171875,0.122558594,-0.78466797,1.953125,0.061035156,-0.5493164,0.0,0.0,0.0,172.07886,37.56775,157.07153
1769245764857,-0.61865234,0.123046875,-0.78564453,2.8076172,-0.48828125,0.48828125,0.0,0.0,0.0,172.07886,37.56775,157.07153
1769245764868,-0.61865234,0.123046875,-0.78564453,2.8076172,-0.48828125,0.48828125,0.0,0.0,0.0,172.1997,37.540283,157.15942
1769245764956,-0.61035156,0.104003906,-0.7763672,1.7700195,0.24414062,-1.2817383,0.0,0.0,0.0,172.1997,37.540283,157.15942
1769245764968,-0.61035156,0.104003906,-0.7763672,1.7700195,0.24414062,-1.2817383,0.0,0.0,0.0,172.55127,37.595215,157.28577
1769245765056,-0.62353516,0.10595703,-0.7866211,0.4272461,-0.6713867,-0.61035156,0.0,0.0,0.0,172.55127,37.595215,157.28577
1769245765068,-0.62353516,0.10595703,-0.7866211,0.4272461,-0.6713867,-0.61035156,0.0,0.0,0.0,172.72705,37.661133,157.45605
1769245765156,-0.6176758,0.11328125,-0.7832031,0.30517578,0.4272461,-0.91552734,0.0,0.0,0.0,172.72705,37.661133,157.45605
1769245765167,-0.6176758,0.11328125,-0.7832031,0.30517578,0.4272461,-0.91552734,0.0,0.0,0.0,172.81494,37.70508,157.60986
1769245765256,-0.6230469,0.107421875,-0.7885742,-0.30517578,-0.4272461,-0.18310547,0.0,0.0,0.0,172.81494,37.70508,157.60986
1769245765268,-0.6230469,0.107421875,-0.7885742,-0.30517578,-0.4272461,-0.18310547,0.0,0.0,0.0,172.771,37.71057,157.68127
1769245765355,-0.6230469,0.11376953,-0.7832031,-0.4272461,0.061035156,0.12207031,0.0,0.0,0.0,172.771,37.71057,157.68127
1769245765367,-0.6230469,0.11376953,-0.7832031,-0.4272461,0.061035156,0.12207031,0.0,0.0,0.0,172.77649,37.65564,157.77466
1769245765455,-0.61816406,0.11425781,-0.78466797,0.18310547,0.48828125,-0.18310547,0.0,0.0,0.0,172.77649,37.65564,157.77466
1769245765467,-0.61816406,0.11425781,-0.78466797,0.18310547,0.48828125,-0.18310547,0.0,0.0,0.0,172.73254,37.644653,157.82959
1769245765555,-0.6201172,0.111328125,-0.7841797,0.4272461,0.30517578,-0.36621094,0.0,0.0,0.0,172.73254,37.644653,157.82959
1769245765566,-0.6201172,0.111328125,-0.7841797,0.4272461,0.30517578,-0.36621094,0.0,0.0,0.0,172.77649,37.644653,157.91748
1769245765655,-0.6171875,0.107910156,-0.78222656,0.061035156,0.6713867,-0.24414062,0.0,0.0,0.0,172.77649,37.644653,157.91748
1769245765666,-0.6171875,0.107910156,-0.78222656,0.061035156,0.6713867,-0.24414062,0.0,0.0,0.0,172.79297,37.6062,157.98889
1769245765754,-0.61865234,0.107421875,-0.78466797,-0.5493164,0.9765625,0.0,0.0,0.0,0.0,172.79297,37.6062,157.98889
1769245765766,-0.61865234,0.107421875,-0.78466797,-0.5493164,0.9765625,0.0,0.0,0.0,0.0,172.77649,37.545776,158.05481
1769245765854,-0.61816406,0.110839844,-0.78515625,-0.48828125,0.5493164,0.061035156,0.0,0.0,0.0,172.77649,37.545776,158.05481
1769245765865,-0.61816406,0.110839844,-0.78515625,-0.48828125,0.5493164,0.061035156,0.0,0.0,0.0,172.72156,37.452393,158.10425
1769245765954,-0.61376953,0.1171875,-0.7890625,0.8544922,1.2817383,-0.79345703,0.0,0.0,0.0,172.72156,37.452393,158.10425
1769245765966,-0.61376953,0.1171875,-0.7890625,0.8544922,1.2817383,-0.79345703,0.0,0.0,0.0,172.73804,37.337036,158.18665
1769245766053,-0.61865234,0.110839844,-0.7910156,-0.7324219,0.36621094,-0.18310547,0.0,0.0,0.0,172.73804,37.337036,158.18665
1769245766065,-0.61865234,0.110839844,-0.7910156,-0.7324219,0.36621094,-0.18310547,0.0,0.0,0.0,172.74353,37.27112,158.26355
1769245766153,-0.609375,0.111816406,-0.79003906,0.24414062,1.0375977,-0.18310547,0.0,0.0,0.0,172.74353,37.27112,158.26355
1769245766165,-0.609375,0.111816406,-0.79003906,0.24414062,1.0375977,-0.18310547,0.0,0.0,0.0,172.73804,37.18872,158.302
1769245766253,-0.61816406,0.109375,-0.79052734,-0.7324219,0.24414062,0.36621094,0.0,0.0,0.0,172.73804,37.18872,158.302
1769245766264,-0.61816406,0.109375,-0.79052734,-0.7324219,0.24414062,0.36621094,0.0,0.0,0.0,172.67761,37.128296,158.29102
1769245766353,-0.609375,0.11376953,-0.7885742,-0.30517578,0.5493164,-0.061035156,0.0,0.0,0.0,172.67761,37.128296,158.29102
1769245766364,-0.609375,0.11376953,-0.7885742,-0.30517578,0.5493164,-0.061035156,0.0,0.0,0.0,172.63916,37.078857,158.3075
1769245766452,-0.6098633,0.11230469,-0.79003906,0.4272461,0.18310547,-0.12207031,0.0,0.0,0.0,172.63916,37.078857,158.3075
1769245766464,-0.6098633,0.11230469,-0.79003906,0.4272461,0.18310547,-0.12207031,0.0,0.0,0.0,172.64465,37.062378,158.31848
1769245766552,-0.61035156,0.111328125,-0.7895508,0.0,0.30517578,0.0,0.0,0.0,0.0,172.64465,37.062378,158.31848
1769245766563,-0.61035156,0.111328125,-0.7895508,0.0,0.30517578,0.0,0.0,0.0,0.0,172.66113,37.040405,158.34595
1769245766652,-0.61035156,0.11230469,-0.79052734,0.0,0.48828125,0.061035156,0.0,0.0,0.0,172.66113,37.040405,158.34595
1769245766663,-0.61035156,0.11230469,-0.79052734,0.0,0.48828125,0.061035156,0.0,0.0,0.0,172.65015,37.007446,158.35144
1769245766751,-0.609375,0.11328125,-0.79003906,0.0,0.4272461,-0.24414062,0.0,0.0,0.0,172.65015,37.007446,158.35144
1769245766763,-0.609375,0.11328125,-0.79003906,0.0,0.4272461,-0.24414062,0.0,0.0,0.0,172.65015,36.990967,158.37341
1769245766851,-0.61035156,0.111816406,-0.79345703,0.061035156,0.0,0.12207031,0.0,0.0,0.0,172.65015,36.990967,158.37341
1769245766863,-0.61035156,0.111816406,-0.79345703,0.061035156,0.0,0.12207031,0.0,0.0,0.0,172.64465,36.9635,158.37341
1769245766951,-0.6064453,0.11425781,-0.7919922,1.0375977,0.91552734,-0.36621094,0.0,0.0,0.0,172.64465,36.9635,158.37341
1769245766962,-0.6064453,0.11425781,-0.7919922,1.0375977,0.91552734,-0.36621094,0.0,0.0,0.0,172.70508,36.903076,158.40637
1769245767051,-0.6098633,0.11279297,-0.7963867,-0.24414062,-0.24414062,-0.18310547,0.0,0.0,0.0,172.70508,36.903076,158.40637
1769245767062,-0.6098633,0.11279297,-0.7963867,-0.24414062,-0.24414062,-0.18310547,0.0,0.0,0.0,172.69958,36.886597,158.40637
1769245767150,-0.6064453,0.11035156,-0.79296875,-0.12207031,0.18310547,0.061035156,0.0,0.0,0.0,172.69958,36.886597,158.40637
1769245767162,-0.6064453,0.11035156,-0.79296875,-0.12207031,0.18310547,0.061035156,0.0,0.0,0.0,172.69958,36.89209,158.45032
1769245767250,-0.60839844,0.10888672,-0.7944336,0.061035156,-0.30517578,0.0,0.0,0.0,0.0,172.69958,36.89209,158.45032
1769245767261,-0.60839844,0.10888672,-0.7944336,0.061035156,-0.30517578,0.0,0.0,0.0,0.0,172.6831,36.930542,158.49976
1769245767350,-0.6088867,0.111816406,-0.79248047,-0.061035156,0.061035156,-0.061035156,0.0,0.0,0.0,172.6831,36.930542,158.49976
1769245767361,-0.6088867,0.111816406,-0.79248047,-0.061035156,0.061035156,-0.061035156,0.0,0.0,0.0,172.6831,36.952515,158.5492
1769245767449,-0.60839844,0.109375,-0.7915039,0.24414062,0.6713867,0.0,0.0,0.0,0.0,172.6831,36.952515,158.5492
1769245767461,-0.60839844,0.109375,-0.7915039,0.24414062,0.6713867,0.0,0.0,0.0,0.0,172.6886,36.936035,158.59863
1769245767550,-0.61035156,0.11035156,-0.79785156,0.0,1.2207031,0.0,0.0,0.0,0.0,172.6886,36.936035,158.59863
1769245767561,-0.61035156,0.11035156,-0.79785156,0.0,1.2207031,0.0,0.0,0.0,0.0,172.6831,36.881104,158.61511
1769245767649,-0.60595703,0.11230469,-0.79589844,-0.18310547,1.5258789,0.0,0.0,0.0,0.0,172.6831,36.881104,158.61511
1769245767660,-0.60595703,0.11230469,-0.79589844,-0.18310547,1.5258789,0.0,0.0,0.0,0.0,172.69958,36.71631,158.63159
1769245767749,-0.60253906,0.110839844,-0.7963867,0.0,2.9907227,0.0,0.0,0.0,0.0,172.69958,36.71631,158.63159
1769245767760,-0.60253906,0.110839844,-0.7963867,0.0,2.9907227,0.0,0.0,0.0,0.0,172.70508,36.49109,158.64258
1769245767848,-0.5996094,0.11328125,-0.7949219,-0.36621094,0.61035156,0.0,0.0,0.0,0.0,172.70508,36.49109,158.64258
1769245767860,-0.5996094,0.11328125,-0.7949219,-0.36621094,0.61035156,0.0,0.0,0.0,0.0,172.71606,36.309814,158.63708
1769245767948,-0.59521484,0.11328125,-0.7949219,0.061035156,0.18310547,0.0,0.0,0.0,0.0,172.71606,36.309814,158.63708
1769245767960,-0.59521484,0.11328125,-0.7949219,0.061035156,0.18310547,0.0,0.0,0.0,0.0,172.70508,36.227417,158.67004
1769245768048,-0.59765625,0.115722656,-0.7993164,-0.48828125,-0.18310547,0.0,0.0,0.0,0.0,172.70508,36.227417,158.67004
1769245768060,-0.59765625,0.115722656,-0.7993164,-0.48828125,-0.18310547,0.0,0.0,0.0,0.0,172.66113,36.221924,158.68103
1769245768147,-0.59765625,0.111328125,-0.80029297,-0.18310547,-1.4648438,0.0,0.0,0.0,0.0,172.66113,36.221924,158.68103
1769245768159,-0.59765625,0.111328125,-0.80029297,-0.18310547,-1.4648438,0.0,0.0,0.0,0.0,172.6117,36.326294,158.60413
1769245768247,-0.6010742,0.111816406,-0.7993164,-0.12207031,-1.4038086,0.0,0.0,0.0,0.0,172.6117,36.326294,158.60413
1769245768259,-0.6010742,0.111816406,-0.7993164,-0.12207031,-1.4038086,0.0,0.0,0.0,0.0,172.58423,36.45813,158.53821
1769245768347,-0.60302734,0.11425781,-0.796875,-0.061035156,-1.159668,0.0,0.0,0.0,0.0,172.58423,36.45813,158.53821
1769245768359,-0.60302734,0.11425781,-0.796875,-0.061035156,-1.159668,0.0,0.0,0.0,0.0,172.56775,36.54602,158.48328
1769245768447,-0.60253906,0.11230469,-0.7949219,0.5493164,-0.6713867,0.0,0.0,0.0,0.0,172.56775,36.54602,158.48328
1769245768458,-0.60253906,0.11230469,-0.7949219,0.5493164,-0.6713867,0.0,0.0,0.0,0.0,172.58423,36.639404,158.41187
1769245768546,-0.60498047,0.11376953,-0.7949219,0.18310547,-0.5493164,0.0,0.0,0.0,0.0,172.58423,36.639404,158.41187
1769245768558,-0.60498047,0.11376953,-0.7949219,0.18310547,-0.5493164,0.0,0.0,0.0,0.0,172.6117,36.710815,158.32947
1769245768647,-0.60546875,0.11279297,-0.7944336,0.12207031,-0.36621094,0.0,0.0,0.0,0.0,172.6117,36.710815,158.32947
1769245768658,-0.60546875,0.11279297,-0.7944336,0.12207031,-0.36621094,0.0,0.0,0.0,0.0,172.60071,36.743774,158.25256
1769245768746,-0.60498047,0.110839844,-0.7944336,0.12207031,-0.12207031,0.0,0.0,0.0,0.0,172.60071,36.743774,158.25256
1769245768757,-0.60498047,0.110839844,-0.7944336,0.12207031,-0.12207031,0.0,0.0,0.0,0.0,172.60071,36.75476,158.18665
1769245768845,-0.60546875,0.11279297,-0.79296875,-0.18310547,-0.12207031,0.0,0.0,0.0,0.0,172.60071,36.75476,158.18665
1769245768857,-0.60546875,0.11279297,-0.79296875,-0.18310547,-0.12207031,0.0,0.0,0.0,0.0,172.6117,36.75476,158.1372
1769245768945,-0.60546875,0.10986328,-0.79833984,0.30517578,-0.061035156,0.0,0.0,0.0,0.0,172.6117,36.75476,158.1372
1769245768957,-0.60546875,0.10986328,-0.79833984,0.30517578,-0.061035156,0.0,0.0,0.0,0.0,172.61719,36.732788,158.10974
1769245769045,-0.6088867,0.11279297,-0.7910156,-0.5493164,-0.91552734,0.0,0.0,0.0,0.0,172.61719,36.732788,158.10974
1769245769057,-0.6088867,0.11279297,-0.7910156,-0.5493164,-0.91552734,0.0,0.0,0.0,0.0,172.65564,36.7218,158.08228
1769245769145,-0.60302734,0.11230469,-0.7944336,0.0,-0.36621094,0.0,0.0,0.0,0.0,172.65564,36.7218,158.08228
1769245769156,-0.60302734,0.11230469,-0.7944336,0.0,-0.36621094,0.0,0.0,0.0,0.0,172.62268,36.77124,158.0658
1769245769244,-0.60839844,0.111328125,-0.79248047,0.061035156,-0.5493164,0.0,0.0,0.0,0.0,172.62268,36.77124,158.0658
1769245769256,-0.60839844,0.111328125,-0.79248047,0.061035156,-0.5493164,0.0,0.0,0.0,0.0,172.6117,36.8042,158.07129
1769245769344,-0.60791016,0.11328125,-0.79345703,0.0,-0.24414062,0.0,0.0,0.0,0.0,172.6117,36.8042,158.07129
1769245769356,-0.60791016,0.11328125,-0.79345703,0.0,-0.24414062,0.0,0.0,0.0,0.0,172.6117,36.83716,158.07129
1769245769444,-0.6069336,0.11279297,-0.79345703,0.30517578,-0.061035156,0.0,0.0,0.0,0.0,172.6117,36.83716,158.07129
1769245769455,-0.6069336,0.11279297,-0.79345703,0.30517578,-0.061035156,0.0,0.0,0.0,0.0,172.61719,36.84265,158.07129
1769245769543,-0.60791016,0.11035156,-0.7910156,0.12207031,0.0,0.0,0.0,0.0,0.0,172.61719,36.84265,158.07129
1769245769555,-0.60791016,0.11035156,-0.7910156,0.12207031,0.0,0.0,0.0,0.0,0.0,172.62817,36.84265,158.08228
1769245769643,-0.60595703,0.11279297,-0.79052734,0.12207031,0.0,0.0,0.0,0.0,0.0,172.62817,36.84265,158.08228
1769245769655,-0.60595703,0.11279297,-0.79052734,0.12207031,0.0,0.0,0.0,0.0,0.0,172.63367,36.84265,158.09875
1769245769743,-0.6074219,0.110839844,-0.7919922,0.061035156,0.061035156,0.0,0.0,0.0,0.0,172.63367,36.84265,158.09875
1769245769754,-0.6074219,0.110839844,-0.7919922,0.061035156,0.061035156,0.0,0.0,0.0,0.0,172.63367,36.848145,158.1427
1769245769843,-0.6064453,0.11230469,-0.7915039,0.0,0.12207031,0.0,0.0,0.0,0.0,172.63367,36.848145,158.1427
1769245769854,-0.6064453,0.11230469,-0.7915039,0.0,0.12207031,0.0,0.0,0.0,0.0,172.62817,36.84265,158.16467
1769245769942,-0.60791016,0.11279297,-0.7963867,0.30517578,-0.12207031,0.0,0.0,0.0,0.0,172.62817,36.84265,158.16467
1769245769954,-0.60791016,0.11279297,-0.7963867,0.30517578,-0.12207031,0.0,0.0,0.0,0.0,172.63367,36.848145,158.17566
1769245770042,-0.60498047,0.11035156,-0.7919922,0.7324219,0.5493164,0.0,0.0,0.0,0.0,172.63367,36.848145,158.17566
1769245770054,-0.60498047,0.11035156,-0.7919922,0.7324219,0.5493164,0.0,0.0,0.0,0.0,172.6831,36.8042,158.18665
1769245770142,-0.60546875,0.11279297,-0.79296875,0.0,-0.18310547,0.0,0.0,0.0,0.0,172.6831,36.8042,158.18665
1769245770153,-0.60546875,0.11279297,-0.79296875,0.0,-0.18310547,0.0,0.0,0.0,0.0,172.67212,36.82617,158.18665
1769245770242,-0.6064453,0.10888672,-0.7944336,0.0,0.0,0.0,0.0,0.0,0.0,172.67212,36.82617,158.18665
1769245770253,-0.6064453,0.10888672,-0.7944336,0.0,0.0,0.0,0.0,0.0,0.0,172.65564,36.848145,158.18115
1769245770341,-0.60546875,0.10839844,-0.7919922,0.24414062,0.0,0.0,0.0,0.0,0.0,172.65564,36.848145,158.18115
1769245770353,-0.60546875,0.10839844,-0.7919922,0.24414062,0.0,0.0,0.0,0.0,0.0,172.65564,36.870117,158.18115
1769245770441,-0.60839844,0.111816406,-0.7919922,0.061035156,0.18310547,0.0,0.0,0.0,0.0,172.65564,36.870117,158.18115
1769245770452,-0.60839844,0.111816406,-0.7919922,0.061035156,0.18310547,0.0,0.0,0.0,0.0,172.65015,36.881104,158.18115
1769245770541,-0.6069336,0.11035156,-0.7895508,0.18310547,0.061035156,0.0,0.0,0.0,0.0,172.65015,36.881104,158.18115
1769245770552,-0.6069336,0.11035156,-0.7895508,0.18310547,0.061035156,0.0,0.0,0.0,0.0,172.66113,36.881104,158.19214
1769245770640,-0.6069336,0.11328125,-0.7915039,0.061035156,0.24414062,0.0,0.0,0.0,0.0,172.66113,36.881104,158.19214
1769245770652,-0.6069336,0.11328125,-0.7915039,0.061035156,0.24414062,0.0,0.0,0.0,0.0,172.66113,36.87561,158.20312
1769245770740,-0.6069336,0.111328125,-0.79003906,0.0,0.061035156,0.0,0.0,0.0,0.0,172.66113,36.87561,158.20312
1769245770752,-0.6069336,0.111328125,-0.79003906,0.0,0.061035156,0.0,0.0,0.0,0.0,172.65564,36.870117,158.21411
1769245770840,-0.60791016,0.110839844,-0.7939453,0.24414062,0.61035156,0.0,0.0,0.0,0.0,172.65564,36.870117,158.21411
1769245770851,-0.60791016,0.110839844,-0.7939453,0.24414062,0.61035156,0.0,0.0,0.0,0.0,172.65564,36.864624,158.2196
1769245770940,-0.60302734,0.10888672,-0.7832031,0.12207031,-0.36621094,0.0,0.0,0.0,0.0,172.65564,36.864624,158.2196
1769245770951,-0.60302734,0.10888672,-0.7832031,0.12207031,-0.36621094,0.0,0.0,0.0,0.0,172.66663,36.831665,158.23608
1769245771039,-0.60546875,0.11230469,-0.7939453,0.79345703,1.7700195,-0.24414062,0.0,0.0,0.0,172.66663,36.831665,158.23608
1769245771051,-0.60546875,0.11230469,-0.7939453,0.79345703,1.7700195,-0.24414062,0.0,0.0,0.0,172.66663,36.84265,158.24707
1769245771139,-0.60546875,0.107910156,-0.7783203,-0.061035156,-0.36621094,0.061035156,0.0,0.0,0.0,172.66663,36.84265,158.24707
1769245771151,-0.60546875,0.107910156,-0.7783203,-0.061035156,-0.36621094,0.061035156,0.0,0.0,0.0,172.71057,36.776733,158.25806
1769245771239,-0.60498047,0.11621094,-0.7919922,0.30517578,0.12207031,-0.061035156,0.0,0.0,0.0,172.71057,36.776733,158.25806
1769245771250,-0.60498047,0.11621094,-0.7919922,0.30517578,0.12207031,-0.061035156,0.0,0.0,0.0,172.67761,36.83716,158.25256
1769245771339,-0.61035156,0.10644531,-0.79345703,0.0,-0.5493164,0.061035156,0.0,0.0,0.0,172.67761,36.83716,158.25256
1769245771350,-0.61035156,0.10644531,-0.79345703,0.0,-0.5493164,0.061035156,0.0,0.0,0.0,172.65564,36.853638,158.2251
1769245771438,-0.6044922,0.11279297,-0.7866211,0.0,-0.18310547,-0.061035156,0.0,0.0,0.0,172.65564,36.853638,158.2251
1769245771450,-0.6044922,0.11279297,-0.7866211,0.0,-0.18310547,-0.061035156,0.0,0.0,0.0,172.66663,36.881104,158.23608
1769245771538,-0.609375,0.111816406,-0.79589844,0.30517578,0.0,-0.061035156,0.0,0.0,0.0,172.66663,36.881104,158.23608
1769245771550,-0.609375,0.111816406,-0.79589844,0.30517578,0.0,-0.061035156,0.0,0.0,0.0,172.66663,36.897583,158.23608
1769245771638,-0.6074219,0.10986328,-0.79052734,0.24414062,0.4272461,0.0,0.0,0.0,0.0,172.66663,36.897583,158.23608
1769245771649,-0.6074219,0.10986328,-0.79052734,0.24414062,0.4272461,0.0,0.0,0.0,0.0,172.69409,36.864624,158.24707
1769245771738,-0.60791016,0.10888672,-0.79296875,0.30517578,0.61035156,0.0,0.0,0.0,0.0,172.69409,36.864624,158.24707
1769245771750,-0.60791016,0.10888672,-0.79296875,0.30517578,0.61035156,0.0,0.0,0.0,0.0,172.72156,36.82068,158.25256
1769245771837,-0.6074219,0.107910156,-0.7973633,0.48828125,2.1972656,0.0,0.0,0.0,0.0,172.72156,36.82068,158.25256
1769245771849,-0.6074219,0.107910156,-0.7973633,0.48828125,2.1972656,0.0,0.0,0.0,0.0,172.7655,36.705322,158.27454
1769245771937,-0.6015625,0.10888672,-0.79589844,0.061035156,1.4038086,0.0,0.0,0.0,0.0,172.7655,36.705322,158.27454
1769245771948,-0.6015625,0.10888672,-0.79589844,0.061035156,1.4038086,0.0,0.0,0.0,0.0,172.80945,36.540527,158.3075
1769245772037,-0.5991211,0.10888672,-0.7949219,-0.12207031,1.8310547,0.0,0.0,0.0,0.0,172.80945,36.540527,158.3075
1769245772049,-0.5991211,0.10888672,-0.7949219,-0.12207031,1.8310547,0.0,0.0,0.0,0.0,172.82043,36.392212,158.32947
1769245772136,-0.59521484,0.10839844,-0.79345703,0.0,0.8544922,0.0,0.0,0.0,0.0,172.82043,36.392212,158.32947
1769245772148,-0.59521484,0.10839844,-0.79345703,0.0,0.8544922,0.0,0.0,0.0,0.0,172.82043,36.254883,158.32947
1769245772236,-0.6015625,0.111816406,-0.79785156,-0.9765625,-1.3427734,0.0,0.0,0.0,0.0,172.82043,36.254883,158.32947
1769245772247,-0.6015625,0.111816406,-0.79785156,-0.9765625,-1.3427734,0.0,0.0,0.0,0.0,172.79297,36.260376,158.31848
1769245772336,-0.59765625,0.10888672,-0.80078125,-0.061035156,-1.4648438,0.0,0.0,0.0,0.0,172.79297,36.260376,158.31848
1769245772347,-0.59765625,0.10888672,-0.80078125,-0.061035156,-1.4648438,0.0,0.0,0.0,0.0,172.73804,36.38672,158.29102
1769245772435,-0.60253906,0.109375,-0.7973633,-0.12207031,-1.7700195,0.0,0.0,0.0,0.0,172.73804,36.38672,158.29102
1769245772447,-0.60253906,0.109375,-0.7973633,-0.12207031,-1.7700195,0.0,0.0,0.0,0.0,172.71606,36.502075,158.25256
1769245772535,-0.6044922,0.11425781,-0.7993164,0.061035156,-1.3427734,0.0,0.0,0.0,0.0,172.71606,36.502075,158.25256
1769245772547,-0.6044922,0.11425781,-0.7993164,0.061035156,-1.3427734,0.0,0.0,0.0,0.0,172.72156,36.584473,158.25806
1769245772635,-0.60546875,0.10888672,-0.79003906,0.30517578,0.12207031,0.0,0.0,0.0,0.0,172.72156,36.584473,158.25806
1769245772646,-0.60546875,0.10888672,-0.79003906,0.30517578,0.12207031,0.0,0.0,0.0,0.0,172.74902,36.655884,158.26355
1769245772734,-0.6040039,0.11035156,-0.7949219,0.0,-1.0375977,0.0,0.0,0.0,0.0,172.74902,36.655884,158.26355
1769245772746,-0.6040039,0.11035156,-0.7949219,0.0,-1.0375977,0.0,0.0,0.0,0.0,172.74353,36.69983,158.28552
1769245772834,-0.60498047,0.10888672,-0.7963867,-0.061035156,-0.5493164,0.0,0.0,0.0,0.0,172.74353,36.69983,158.28552
1769245772846,-0.60498047,0.10888672,-0.7963867,-0.061035156,-0.5493164,0.0,0.0,0.0,0.0,172.73254,36.765747,158.3075
1769245772934,-0.60595703,0.10888672,-0.7919922,0.24414062,-0.30517578,0.0,0.0,0.0,0.0,172.73254,36.765747,158.3075
1769245772945,-0.60595703,0.10888672,-0.7919922,0.24414062,-0.30517578,0.0,0.0,0.0,0.0,172.73254,36.815186,158.302
1769245773034,-0.60595703,0.11035156,-0.79296875,0.30517578,0.0,0.0,0.0,0.0,0.0,172.73254,36.815186,158.302
1769245773045,-0.60595703,0.11035156,-0.79296875,0.30517578,0.0,0.0,0.0,0.0,0.0,172.73804,36.831665,158.302
1769245773133,-0.6069336,0.11035156,-0.79296875,0.24414062,-0.12207031,0.0,0.0,0.0,0.0,172.73804,36.831665,158.302
1769245773145,-0.6069336,0.11035156,-0.79296875,0.24414062,-0.12207031,0.0,0.0,0.0,0.0,172.74902,36.83716,158.302
1769245773233,-0.60498047,0.10986328,-0.7919922,0.12207031,0.0,0.0,0.0,0.0,0.0,172.74902,36.83716,158.302
1769245773245,-0.60498047,0.10986328,-0.7919922,0.12207031,0.0,0.0,0.0,0.0,0.0,172.75452,36.84265,158.3075
1769245773333,-0.6064453,0.10888672,-0.7919922,0.061035156,0.061035156,0.0,0.0,0.0,0.0,172.75452,36.84265,158.3075
1769245773344,-0.6064453,0.10888672,-0.7919922,0.061035156,0.061035156,0.0,0.0,0.0,0.0,172.75452,36.84265,158.31848
1769245773433,-0.6069336,0.109375,-0.79345703,0.12207031,0.12207031,0.0,0.0,0.0,0.0,172.75452,36.84265,158.31848
1769245773444,-0.6069336,0.109375,-0.79345703,0.12207031,0.12207031,0.0,0.0,0.0,0.0,172.75452,36.84265,158.32947
1769245773534,-0.6064453,0.109375,-0.79296875,0.18310547,0.0,0.0,0.0,0.0,0.0,172.75452,36.84265,158.32947
1769245773544,-0.6064453,0.109375,-0.79296875,0.18310547,0.0,0.0,0.0,0.0,0.0,172.75452,36.84265,158.32947
1769245773632,-0.60546875,0.10986328,-0.7915039,0.061035156,0.0,0.0,0.0,0.0,0.0,172.75452,36.84265,158.32947
1769245773644,-0.60546875,0.10986328,-0.7915039,0.061035156,0.0,0.0,0.0,0.0,0.0,172.76001,36.84265,158.32947
1769245773732,-0.60546875,0.10986328,-0.78808594,0.4272461,0.36621094,0.0,0.0,0.0,0.0,172.76001,36.84265,158.32947
1769245773743,-0.60546875,0.10986328,-0.78808594,0.4272461,0.36621094,0.0,0.0,0.0,0.0,172.7655,36.83716,158.33496
1769245773832,-0.60546875,0.107421875,-0.7944336,0.18310547,1.0986328,0.0,0.0,0.0,0.0,172.7655,36.83716,158.33496
1769245773843,-0.60546875,0.107421875,-0.7944336,0.18310547,1.0986328,0.0,0.0,0.0,0.0,172.771,36.82617,158.33496
1769245773931,-0.6040039,0.10888672,-0.78027344,0.36621094,0.0,0.0,0.0,0.0,0.0,172.771,36.82617,158.33496
1769245773943,-0.6040039,0.10888672,-0.78027344,0.36621094,0.0,0.0,0.0,0.0,0.0,172.81494,36.765747,158.34595
1769245774031,-0.6020508,0.11279297,-0.79541016,0.0,-0.18310547,0.0,0.0,0.0,0.0,172.81494,36.765747,158.34595
1769245774043,-0.6020508,0.11279297,-0.79541016,0.0,-0.18310547,0.0,0.0,0.0,0.0,172.78198,36.831665,158.33496
1769245774131,-0.609375,0.107421875,-0.7919922,0.0,-0.36621094,0.0,0.0,0.0,0.0,172.78198,36.831665,158.33496
1769245774142,-0.609375,0.107421875,-0.7919922,0.0,-0.36621094,0.0,0.0,0.0,0.0,172.771,36.848145,158.32947
1769245774231,-0.60595703,0.111816406,-0.78515625,0.12207031,0.0,0.0,0.0,0.0,0.0,172.771,36.848145,158.32947
1769245774242,-0.60595703,0.111816406,-0.78515625,0.12207031,0.0,0.0,0.0,0.0,0.0,172.771,36.864624,158.32397
1769245774330,-0.60839844,0.106933594,-0.7944336,0.79345703,0.48828125,0.0,0.0,0.0,0.0,172.771,36.864624,158.32397
1769245774342,-0.60839844,0.106933594,-0.7944336,0.79345703,0.48828125,0.0,0.0,0.0,0.0,172.79297,36.853638,158.32947
1769245774430,-0.6064453,0.11279297,-0.7944336,0.36621094,0.79345703,0.0,0.0,0.0,0.0,172.79297,36.853638,158.32947
1769245774442,-0.6064453,0.11279297,-0.7944336,0.36621094,0.79345703,0.0,0.0,0.0,0.0,172.82043,36.749268,158.35693
1769245774530,-0.6064453,0.10839844,-0.79833984,0.12207031,2.2583008,0.0,0.0,0.0,0.0,172.82043,36.749268,158.35693
1769245774541,-0.6064453,0.10839844,-0.79833984,0.12207031,2.2583008,0.0,0.0,0.0,0.0,172.8479,36.61743,158.3844
1769245774629,-0.5986328,0.10839844,-0.79296875,0.24414062,1.7700195,0.0,0.0,0.0,0.0,172.8479,36.61743,158.3844
1769245774641,-0.5986328,0.10839844,-0.79296875,0.24414062,1.7700195,0.0,0.0,0.0,0.0,172.88635,36.4032,158.42285
1769245774729,-0.59814453,0.10888672,-0.7998047,0.0,1.6479492,0.0,0.0,0.0,0.0,172.88635,36.4032,158.42285
1769245774741,-0.59814453,0.10888672,-0.7998047,0.0,1.6479492,0.0,0.0,0.0,0.0,172.89734,36.26587,158.45032
1769245774829,-0.59521484,0.107421875,-0.7949219,-0.061035156,0.8544922,0.0,0.0,0.0,0.0,172.89734,36.26587,158.45032
1769245774840,-0.59521484,0.107421875,-0.7949219,-0.061035156,0.8544922,0.0,0.0,0.0,0.0,172.91382,36.156006,158.45032
1769245774929,-0.59472656,0.10888672,-0.7993164,-0.061035156,0.48828125,0.0,0.0,0.0,0.0,172.91382,36.156006,158.45032
1769245774940,-0.59472656,0.10888672,-0.7993164,-0.061035156,0.48828125,0.0,0.0,0.0,0.0,172.90283,36.12854,158.43933
1769245775028,-0.59521484,0.10839844,-0.79785156,0.0,0.30517578,0.0,0.0,0.0,0.0,172.90283,36.12854,158.43933
1769245775040,-0.59521484,0.10839844,-0.79785156,0.0,0.30517578,0.0,0.0,0.0,0.0,172.88635,36.090088,158.41736
1769245775128,-0.5942383,0.10888672,-0.79833984,0.0,-0.36621094,0.0,0.0,0.0,0.0,172.88635,36.090088,158.41736
1769245775140,-0.5942383,0.10888672,-0.79833984,0.0,-0.36621094,0.0,0.0,0.0,0.0,172.88086,36.106567,158.39539
1769245775228,-0.59521484,0.10986328,-0.7998047,0.0,-0.4272461,0.0,0.0,0.0,0.0,172.88086,36.106567,158.39539
1769245775240,-0.59521484,0.10986328,-0.7998047,0.0,-0.4272461,0.0,0.0,0.0,0.0,172.85889,36.1615,158.3844
1769245775328,-0.5961914,0.10986328,-0.79785156,0.0,-0.4272461,0.0,0.0,0.0,0.0,172.85889,36.1615,158.3844
1769245775340,-0.5961914,0.10986328,-0.79785156,0.0,-0.4272461,0.0,0.0,0.0,0.0,172.8534,36.194458,158.36243
1769245775427,-0.5957031,0.109375,-0.7963867,0.24414062,-0.36621094,0.0,0.0,0.0,0.0,172.8534,36.194458,158.36243
1769245775439,-0.5957031,0.109375,-0.7963867,0.24414062,-0.36621094,0.0,0.0,0.0,0.0,172.8424,36.24939,158.32947
