timestamp,accX,accY,accZ,gyroX,gyroY,gyroZ,magX,magY,magZ,roll,pitch,yaw
1766498998942,-0.9375,-0.24560547,0.24169922,0.0,0.0,-0.30517578,0.0,0.0,0.0,-46.032715,69.263306,-15.79834
1766498998954,-0.9375,-0.24560547,0.24169922,0.0,0.0,-0.30517578,0.0,0.0,0.0,-45.97229,69.246826,-15.732422
1766498999042,-0.9345703,-0.25146484,0.24609375,-0.18310547,-0.061035156,0.24414062,0.0,0.0,0.0,-45.97229,69.246826,-15.732422
1766498999054,-0.9345703,-0.25146484,0.24609375,-0.18310547,-0.061035156,0.24414062,0.0,0.0,0.0,-45.994263,69.2688,-15.776367
1766498999142,-0.9345703,-0.25439453,0.2397461,0.0,-0.79345703,0.36621094,0.0,0.0,0.0,-45.994263,69.2688,-15.776367
1766498999155,-0.9345703,-0.25439453,0.2397461,0.0,-0.79345703,0.36621094,0.0,0.0,0.0,-45.83496,69.25781,-15.650024
1766498999242,-0.9301758,-0.25341797,0.24072266,0.9765625,0.4272461,-0.79345703,0.0,0.0,0.0,-45.83496,69.25781,-15.650024
1766498999253,-0.9301758,-0.25341797,0.24072266,0.9765625,0.4272461,-0.79345703,0.0,0.0,0.0,-45.791016,69.25232,-15.666504
1766498999341,-0.9472656,-0.25634766,0.23144531,0.0,-1.7089844,1.3427734,0.0,0.0,0.0,-45.791016,69.25232,-15.666504
1766498999352,-0.9472656,-0.25634766,0.23144531,0.0,-1.7089844,1.3427734,0.0,0.0,0.0,-45.477905,69.18091,-15.413818
1766498999441,-0.93408203,-0.23632812,0.25,1.0986328,-0.8544922,-0.48828125,0.0,0.0,0.0,-45.477905,69.18091,-15.413818
1766498999454,-0.93408203,-0.23632812,0.25,1.0986328,-0.8544922,-0.48828125,0.0,0.0,0.0,-45.510864,69.23035,-15.457764
1766498999540,-0.9355469,-0.24609375,0.2578125,-0.61035156,3.3569336,-0.18310547,0.0,0.0,0.0,-45.510864,69.23035,-15.457764
1766498999552,-0.9355469,-0.24609375,0.2578125,-0.61035156,3.3569336,-0.18310547,0.0,0.0,0.0,-45.637207,69.29077,-15.688477
1766498999640,-0.9428711,-0.24267578,0.24560547,-1.2817383,3.2958984,0.9765625,0.0,0.0,0.0,-45.637207,69.29077,-15.688477
1766498999652,-0.9428711,-0.24267578,0.24560547,-1.2817383,3.2958984,0.9765625,0.0,0.0,0.0,-45.999756,69.472046,-16.056519
1766498999740,-0.94677734,-0.23632812,0.25,1.0986328,3.2958984,-0.9765625,0.0,0.0,0.0,-45.999756,69.472046,-16.056519
1766498999751,-0.94677734,-0.23632812,0.25,1.0986328,3.2958984,-0.9765625,0.0,0.0,0.0,-46.636963,69.74121,-16.748657
1766498999839,-0.9453125,-0.24414062,0.24169922,2.6855469,6.4086914,-2.6245117,0.0,0.0,0.0,-46.636963,69.74121,-16.748657
1766498999851,-0.9453125,-0.24414062,0.24169922,2.6855469,6.4086914,-2.6245117,0.0,0.0,0.0,-47.631226,69.938965,-18.078003
1766498999940,-0.9345703,-0.2475586,0.21875,1.7089844,5.493164,-4.272461,0.0,0.0,0.0,-47.631226,69.938965,-18.078003
1766498999951,-0.9345703,-0.2475586,0.21875,1.7089844,5.493164,-4.272461,0.0,0.0,0.0,-49.224243,70.06531,-20.011597
1766499000039,-0.91552734,-0.26171875,0.23339844,3.0517578,5.79834,-4.211426,0.0,0.0,0.0,-49.224243,70.06531,-20.011597
1766499000051,-0.91552734,-0.26171875,0.23339844,3.0517578,5.79834,-4.211426,0.0,0.0,0.0,-50.982056,70.1532,-21.972656
1766499000139,-0.92822266,-0.296875,0.2055664,1.953125,4.1503906,-9.94873,0.0,0.0,0.0,-50.982056,70.1532,-21.972656
1766499000150,-0.92822266,-0.296875,0.2055664,1.953125,4.1503906,-9.94873,0.0,0.0,0.0,-52.470703,69.94995,-23.56018
1766499000238,-0.9375,-0.28320312,0.19580078,2.0751953,5.126953,-10.375977,0.0,0.0,0.0,-52.470703,69.94995,-23.56018
1766499000250,-0.9375,-0.28320312,0.19580078,2.0751953,5.126953,-10.375977,0.0,0.0,0.0,-54.673462,69.43359,-25.65857
1766499000338,-0.9375,-0.3046875,0.18066406,-4.1503906,-3.112793,-5.92041,0.0,0.0,0.0,-54.673462,69.43359,-25.65857
1766499000350,-0.9375,-0.3046875,0.18066406,-4.1503906,-3.112793,-5.92041,0.0,0.0,0.0,-56.80481,68.92822,-27.81189
1766499000438,-0.89941406,-0.26367188,0.19091797,2.8686523,4.1503906,-13.183594,0.0,0.0,0.0,-56.80481,68.92822,-27.81189
1766499000449,-0.89941406,-0.26367188,0.19091797,2.8686523,4.1503906,-13.183594,0.0,0.0,0.0,-58.496704,68.36243,-29.11377
1766499000538,-0.93408203,-0.35546875,0.15917969,-1.159668,8.972168,-1.6479492,0.0,0.0,0.0,-58.496704,68.36243,-29.11377
1766499000549,-0.93408203,-0.35546875,0.15917969,-1.159668,8.972168,-1.6479492,0.0,0.0,0.0,-60.38086,68.115234,-31.096802
1766499000637,-0.9243164,-0.34570312,0.13867188,0.6713867,3.8452148,1.2817383,0.0,0.0,0.0,-60.38086,68.115234,-31.096802
1766499000650,-0.9243164,-0.34570312,0.13867188,0.6713867,3.8452148,1.2817383,0.0,0.0,0.0,-61.984863,68.29651,-32.700806
1766499000737,-0.9248047,-0.34960938,0.14013672,4.8828125,0.0,1.2817383,0.0,0.0,0.0,-61.984863,68.29651,-32.700806
1766499000749,-0.9248047,-0.34960938,0.14013672,4.8828125,0.0,1.2817383,0.0,0.0,0.0,-62.53418,68.45032,-33.310547
1766499000837,-0.9404297,-0.28320312,0.16992188,10.681152,-4.5776367,0.36621094,0.0,0.0,0.0,-62.53418,68.45032,-33.310547
1766499000848,-0.9404297,-0.28320312,0.16992188,10.681152,-4.5776367,0.36621094,0.0,0.0,0.0,-61.034546,68.36243,-32.107544
1766499000937,-0.93847656,-0.328125,0.18310547,10.070801,-2.5634766,1.0986328,0.0,0.0,0.0,-61.034546,68.36243,-32.107544
1766499000948,-0.93847656,-0.328125,0.18310547,10.070801,-2.5634766,1.0986328,0.0,0.0,0.0,-59.89746,68.444824,-31.77246
1766499001036,-0.9272461,-0.32470703,0.20800781,2.5634766,-2.8076172,0.9765625,0.0,0.0,0.0,-59.89746,68.444824,-31.77246
1766499001048,-0.9272461,-0.32470703,0.20800781,2.5634766,-2.8076172,0.9765625,0.0,0.0,0.0,-58.28247,68.28552,-30.421143
1766499001136,-0.93115234,-0.3071289,0.19824219,0.91552734,-2.0141602,0.24414062,0.0,0.0,0.0,-58.28247,68.28552,-30.421143
1766499001148,-0.93115234,-0.3071289,0.19824219,0.91552734,-2.0141602,0.24414062,0.0,0.0,0.0,-57.31018,68.186646,-29.360962
1766499001236,-0.9321289,-0.30419922,0.19580078,5.79834,1.4648438,-4.0283203,0.0,0.0,0.0,-57.31018,68.186646,-29.360962
1766499001247,-0.9321289,-0.30419922,0.19580078,5.79834,1.4648438,-4.0283203,0.0,0.0,0.0,-57.485962,68.07129,-29.811401
1766499001336,-0.93310547,-0.31640625,0.19384766,3.2348633,1.4648438,-3.2348633,0.0,0.0,0.0,-57.485962,68.07129,-29.811401
1766499001348,-0.93310547,-0.31640625,0.19384766,3.2348633,1.4648438,-3.2348633,0.0,0.0,0.0,-57.68921,67.86804,-30.234375
1766499001435,-0.93115234,-0.30908203,0.18847656,5.1879883,1.3427734,-2.5024414,0.0,0.0,0.0,-57.68921,67.86804,-30.234375
1766499001447,-0.93115234,-0.30908203,0.18847656,5.1879883,1.3427734,-2.5024414,0.0,0.0,0.0,-57.738647,67.67029,-30.536499
1766499001535,-0.93310547,-0.31884766,0.18554688,3.0517578,-0.061035156,-1.159668,0.0,0.0,0.0,-57.738647,67.67029,-30.536499
1766499001547,-0.93310547,-0.31884766,0.18554688,3.0517578,-0.061035156,-1.159668,0.0,0.0,0.0,-57.843018,67.6593,-30.723267
1766499001635,-0.9169922,-0.32177734,0.19677734,1.0375977,0.48828125,-0.79345703,0.0,0.0,0.0,-57.843018,67.6593,-30.723267
1766499001646,-0.9169922,-0.32177734,0.19677734,1.0375977,0.48828125,-0.79345703,0.0,0.0,0.0,-57.91443,67.65381,-30.618896
1766499001734,-0.9296875,-0.32177734,0.1977539,2.6245117,0.0,-2.5024414,0.0,0.0,0.0,-57.91443,67.65381,-30.618896
1766499001746,-0.9296875,-0.32177734,0.1977539,2.6245117,0.0,-2.5024414,0.0,0.0,0.0,-57.804565,67.5,-30.48706
1766499001834,-0.91015625,-0.32958984,0.20019531,0.91552734,0.9765625,-4.4555664,0.0,0.0,0.0,-57.804565,67.5,-30.48706
1766499001845,-0.91015625,-0.32958984,0.20019531,0.91552734,0.9765625,-4.4555664,0.0,0.0,0.0,-58.342896,67.26929,-31.047363
1766499001934,-0.94433594,-0.3178711,0.18603516,-5.2490234,-3.6621094,-1.7700195,0.0,0.0,0.0,-58.342896,67.26929,-31.047363
1766499001945,-0.94433594,-0.3178711,0.18603516,-5.2490234,-3.6621094,-1.7700195,0.0,0.0,0.0,-58.546143,66.884766,-30.74524
1766499002033,-0.93066406,-0.3178711,0.19384766,4.0283203,2.319336,-2.0751953,0.0,0.0,0.0,-58.546143,66.884766,-30.74524
1766499002045,-0.93066406,-0.3178711,0.19384766,4.0283203,2.319336,-2.0751953,0.0,0.0,0.0,-58.535156,66.80237,-30.585938
1766499002133,-0.921875,-0.3359375,0.20214844,-0.36621094,-0.7324219,-1.5869141,0.0,0.0,0.0,-58.535156,66.80237,-30.585938
1766499002145,-0.921875,-0.3359375,0.20214844,-0.36621094,-0.7324219,-1.5869141,0.0,0.0,0.0,-58.881226,66.80237,-30.910034
1766499002233,-0.9213867,-0.32666016,0.20166016,0.12207031,-0.24414062,-1.0375977,0.0,0.0,0.0,-58.881226,66.80237,-30.910034
1766499002244,-0.9213867,-0.32666016,0.20166016,0.12207031,-0.24414062,-1.0375977,0.0,0.0,0.0,-58.85376,66.66504,-30.62439
1766499002333,-0.9199219,-0.33203125,0.1977539,1.7089844,0.24414062,-0.6713867,0.0,0.0,0.0,-58.85376,66.66504,-30.62439
1766499002345,-0.9199219,-0.33203125,0.1977539,1.7089844,0.24414062,-0.6713867,0.0,0.0,0.0,-58.83728,66.604614,-30.536499
1766499002432,-0.91845703,-0.34277344,0.1977539,0.0,-0.12207031,0.24414062,0.0,0.0,0.0,-58.83728,66.604614,-30.536499
1766499002444,-0.91845703,-0.34277344,0.1977539,0.0,-0.12207031,0.24414062,0.0,0.0,0.0,-58.694458,66.62109,-30.195923
1766499002532,-0.92041016,-0.3330078,0.20214844,-0.4272461,1.5869141,-0.061035156,0.0,0.0,0.0,-58.694458,66.62109,-30.195923
1766499002544,-0.92041016,-0.3330078,0.20214844,-0.4272461,1.5869141,-0.061035156,0.0,0.0,0.0,-59.002075,66.65405,-30.2948
1766499002632,-0.9194336,-0.3305664,0.1977539,0.12207031,0.12207031,-1.8310547,0.0,0.0,0.0,-59.002075,66.65405,-30.2948
1766499002643,-0.9194336,-0.3305664,0.1977539,0.12207031,0.12207031,-1.8310547,0.0,0.0,0.0,-59.18335,66.588135,-30.371704
1766499002731,-0.921875,-0.32861328,0.1928711,-0.4272461,1.8310547,-0.91552734,0.0,0.0,0.0,-59.18335,66.588135,-30.371704
1766499002743,-0.921875,-0.32861328,0.1928711,-0.4272461,1.8310547,-0.91552734,0.0,0.0,0.0,-59.44153,66.52222,-30.541992
1766499002831,-0.9238281,-0.34179688,0.19384766,0.0,0.9765625,0.18310547,0.0,0.0,0.0,-59.44153,66.52222,-30.541992
1766499002843,-0.9238281,-0.34179688,0.19384766,0.0,0.9765625,0.18310547,0.0,0.0,0.0,-59.611816,66.58264,-30.596924
1766499002931,-0.9189453,-0.33447266,0.19873047,-1.8920898,0.061035156,0.36621094,0.0,0.0,0.0,-59.611816,66.58264,-30.596924
1766499002942,-0.9189453,-0.33447266,0.19873047,-1.8920898,0.061035156,0.36621094,0.0,0.0,0.0,-59.84253,66.65405,-30.580444
1766499003031,-0.9213867,-0.3408203,0.19384766,0.48828125,1.4038086,-1.0986328,0.0,0.0,0.0,-59.84253,66.65405,-30.580444
1766499003042,-0.9213867,-0.3408203,0.19384766,0.48828125,1.4038086,-1.0986328,0.0,0.0,0.0,-60.007324,66.64307,-30.668335
1766499003130,-0.9140625,-0.3383789,0.19433594,1.159668,-0.36621094,-1.0375977,0.0,0.0,0.0,-60.007324,66.64307,-30.668335
1766499003142,-0.9140625,-0.3383789,0.19433594,1.159668,-0.36621094,-1.0375977,0.0,0.0,0.0,-60.06775,66.59363,-30.651855
1766499003230,-0.92871094,-0.34521484,0.19482422,-0.18310547,-0.12207031,-0.12207031,0.0,0.0,0.0,-60.06775,66.59363,-30.651855
1766499003242,-0.92871094,-0.34521484,0.19482422,-0.18310547,-0.12207031,-0.12207031,0.0,0.0,0.0,-59.98535,66.52222,-30.531006
1766499003330,-0.91503906,-0.34277344,0.19091797,0.91552734,-0.5493164,-0.30517578,0.0,0.0,0.0,-59.98535,66.52222,-30.531006
1766499003341,-0.91503906,-0.34277344,0.19091797,0.91552734,-0.5493164,-0.30517578,0.0,0.0,0.0,-59.908447,66.47827,-30.355225
1766499003430,-0.92822266,-0.3408203,0.18652344,0.0,0.5493164,0.61035156,0.0,0.0,0.0,-59.908447,66.47827,-30.355225
1766499003441,-0.92822266,-0.3408203,0.18652344,0.0,0.5493164,0.61035156,0.0,0.0,0.0,-59.80957,66.47827,-30.080566
1766499003529,-0.9091797,-0.34423828,0.19482422,-0.91552734,-0.4272461,-0.061035156,0.0,0.0,0.0,-59.80957,66.47827,-30.080566
1766499003541,-0.9091797,-0.34423828,0.19482422,-0.91552734,-0.4272461,-0.061035156,0.0,0.0,0.0,-59.902954,66.56067,-29.921265
1766499003629,-0.9213867,-0.3540039,0.19726562,-4.4555664,-0.79345703,1.953125,0.0,0.0,0.0,-59.902954,66.56067,-29.921265
1766499003641,-0.9213867,-0.3540039,0.19726562,-4.4555664,-0.79345703,1.953125,0.0,0.0,0.0,-59.93042,66.58264,-29.646606
1766499003729,-0.9067383,-0.33544922,0.18896484,-0.36621094,0.0,0.61035156,0.0,0.0,0.0,-59.93042,66.58264,-29.646606
1766499003740,-0.9067383,-0.33544922,0.18896484,-0.36621094,0.0,0.61035156,0.0,0.0,0.0,-59.919434,66.6156,-29.267578
1766499003828,-0.9194336,-0.328125,0.18945312,-0.24414062,0.061035156,1.2817383,0.0,0.0,0.0,-59.919434,66.6156,-29.267578
1766499003840,-0.9194336,-0.328125,0.18945312,-0.24414062,0.061035156,1.2817383,0.0,0.0,0.0,-59.957886,66.73645,-29.091797
1766499003928,-0.9345703,-0.32714844,0.19335938,1.7089844,0.12207031,0.6713867,0.0,0.0,0.0,-59.957886,66.73645,-29.091797
1766499003940,-0.9345703,-0.32714844,0.19335938,1.7089844,0.12207031,0.6713867,0.0,0.0,0.0,-59.749146,66.83533,-29.031372
1766499004028,-0.92089844,-0.328125,0.19824219,-5.6152344,0.0,2.9907227,0.0,0.0,0.0,-59.749146,66.83533,-29.031372
1766499004039,-0.92089844,-0.328125,0.19824219,-5.6152344,0.0,2.9907227,0.0,0.0,0.0,-59.935913,67.12097,-28.778687
1766499004128,-0.92089844,-0.33251953,0.19970703,1.953125,2.8686523,-2.1362305,0.0,0.0,0.0,-59.935913,67.12097,-28.778687
1766499004139,-0.92089844,-0.33251953,0.19970703,1.953125,2.8686523,-2.1362305,0.0,0.0,0.0,-60.15564,67.16492,-28.95996
1766499004227,-0.91748047,-0.32763672,0.17675781,2.0141602,-0.7324219,-0.91552734,0.0,0.0,0.0,-60.15564,67.16492,-28.95996
1766499004239,-0.91748047,-0.32763672,0.17675781,2.0141602,-0.7324219,-0.91552734,0.0,0.0,0.0,-60.26001,67.08252,-29.18518
1766499004327,-0.9355469,-0.3544922,0.18652344,2.1972656,-2.4414062,0.061035156,0.0,0.0,0.0,-60.26001,67.08252,-29.18518
1766499004339,-0.9355469,-0.3544922,0.18652344,2.1972656,-2.4414062,0.061035156,0.0,0.0,0.0,-59.589844,66.91223,-28.756714
1766499004427,-0.9086914,-0.33251953,0.20361328,-4.760742,0.48828125,0.8544922,0.0,0.0,0.0,-59.589844,66.91223,-28.756714
1766499004438,-0.9086914,-0.33251953,0.20361328,-4.760742,0.48828125,0.8544922,0.0,0.0,0.0,-59.869995,67.022095,-28.861084
1766499004527,-0.91845703,-0.32666016,0.18896484,4.5166016,0.9765625,-1.4038086,0.0,0.0,0.0,-59.869995,67.022095,-28.861084
1766499004538,-0.91845703,-0.32666016,0.18896484,4.5166016,0.9765625,-1.4038086,0.0,0.0,0.0,-59.952393,67.005615,-28.916016
1766499004626,-0.921875,-0.3310547,0.18261719,-0.36621094,-0.7324219,-0.48828125,0.0,0.0,0.0,-59.952393,67.005615,-28.916016
1766499004638,-0.921875,-0.3310547,0.18261719,-0.36621094,-0.7324219,-0.48828125,0.0,0.0,0.0,-59.85901,66.97815,-29.003906
1766499004726,-0.9355469,-0.33789062,0.18457031,1.8310547,1.0375977,0.6713867,0.0,0.0,0.0,-59.85901,66.97815,-29.003906
1766499004737,-0.9355469,-0.33789062,0.18457031,1.8310547,1.0375977,0.6713867,0.0,0.0,0.0,-59.683228,66.97266,-28.828125
1766499004826,-0.9067383,-0.33447266,0.20117188,-1.4648438,0.9765625,0.4272461,0.0,0.0,0.0,-59.683228,66.97266,-28.828125
1766499004837,-0.9067383,-0.33447266,0.20117188,-1.4648438,0.9765625,0.4272461,0.0,0.0,0.0,-59.80957,67.12097,-28.718262
1766499004925,-0.92626953,-0.3383789,0.18261719,-2.8686523,-0.6713867,1.5869141,0.0,0.0,0.0,-59.80957,67.12097,-28.718262
1766499004937,-0.92626953,-0.3383789,0.18261719,-2.8686523,-0.6713867,1.5869141,0.0,0.0,0.0,-59.72168,67.17041,-28.476562
1766499005025,-0.92529297,-0.32226562,0.19189453,-0.7324219,-0.7324219,-0.061035156,0.0,0.0,0.0,-59.72168,67.17041,-28.476562
1766499005037,-0.92529297,-0.32226562,0.19189453,-0.7324219,-0.7324219,-0.061035156,0.0,0.0,0.0,-59.87549,67.20337,-28.487549
1766499005125,-0.9291992,-0.3227539,0.1875,-1.3427734,-0.18310547,-0.30517578,0.0,0.0,0.0,-59.87549,67.20337,-28.487549
1766499005136,-0.9291992,-0.3227539,0.1875,-1.3427734,-0.18310547,-0.30517578,0.0,0.0,0.0,-59.935913,67.19238,-28.427124
1766499005226,-0.9267578,-0.32080078,0.18554688,1.0986328,0.48828125,-0.12207031,0.0,0.0,0.0,-59.935913,67.19238,-28.427124
1766499005236,-0.9267578,-0.32080078,0.18554688,1.0986328,0.48828125,-0.12207031,0.0,0.0,0.0,-59.935913,67.19238,-28.372192
1766499005324,-0.92333984,-0.33154297,0.19140625,-0.61035156,1.0375977,-0.18310547,0.0,0.0,0.0,-59.935913,67.19238,-28.372192
1766499005336,-0.92333984,-0.33154297,0.19140625,-0.61035156,1.0375977,-0.18310547,0.0,0.0,0.0,-60.01831,67.25281,-28.520508
1766499005424,-0.9267578,-0.33154297,0.18017578,-0.4272461,0.24414062,0.24414062,0.0,0.0,0.0,-60.01831,67.25281,-28.520508
1766499005436,-0.9267578,-0.33154297,0.18017578,-0.4272461,0.24414062,0.24414062,0.0,0.0,0.0,-60.320435,67.31323,-28.828125
1766499005524,-0.9238281,-0.33203125,0.18847656,0.48828125,0.0,-0.12207031,0.0,0.0,0.0,-60.320435,67.31323,-28.828125
1766499005536,-0.9238281,-0.33203125,0.18847656,0.48828125,0.0,-0.12207031,0.0,0.0,0.0,-60.342407,67.31323,-28.817139
1766499005624,-0.9189453,-0.33398438,0.18945312,0.61035156,-0.24414062,-0.12207031,0.0,0.0,0.0,-60.342407,67.31323,-28.817139
1766499005635,-0.9189453,-0.33398438,0.18945312,0.61035156,-0.24414062,-0.12207031,0.0,0.0,0.0,-60.270996,67.302246,-28.734741
1766499005726,-0.92822266,-0.3310547,0.18261719,0.79345703,-1.159668,-0.18310547,0.0,0.0,0.0,-60.270996,67.302246,-28.734741
1766499005735,-0.92822266,-0.3310547,0.18261719,0.79345703,-1.159668,-0.18310547,0.0,0.0,0.0,-60.183105,67.21985,-28.729248
1766499005823,-0.921875,-0.3256836,0.1899414,1.6479492,0.30517578,-1.0375977,0.0,0.0,0.0,-60.183105,67.21985,-28.729248
1766499005835,-0.921875,-0.3256836,0.1899414,1.6479492,0.30517578,-1.0375977,0.0,0.0,0.0,-60.144653,67.18689,-28.66333
1766499005923,-0.92822266,-0.32763672,0.18017578,2.9907227,-1.4038086,-0.48828125,0.0,0.0,0.0,-60.144653,67.18689,-28.66333
1766499005934,-0.92822266,-0.32763672,0.18017578,2.9907227,-1.4038086,-0.48828125,0.0,0.0,0.0,-59.80957,67.093506,-28.54248
1766499006022,-0.9169922,-0.328125,0.19628906,1.159668,-0.48828125,0.18310547,0.0,0.0,0.0,-59.80957,67.093506,-28.54248
1766499006034,-0.9169922,-0.328125,0.19628906,1.159668,-0.48828125,0.18310547,0.0,0.0,0.0,-59.42505,67.07153,-28.300781
1766499006122,-0.90966797,-0.3310547,0.18701172,3.112793,0.18310547,-0.7324219,0.0,0.0,0.0,-59.42505,67.07153,-28.300781
1766499006134,-0.90966797,-0.3310547,0.18701172,3.112793,0.18310547,-0.7324219,0.0,0.0,0.0,-59.27124,67.06055,-28.377686
1766499006222,-0.9213867,-0.33691406,0.18701172,-0.5493164,0.8544922,1.4648438,0.0,0.0,0.0,-59.27124,67.06055,-28.377686
1766499006233,-0.9213867,-0.33691406,0.18701172,-0.5493164,0.8544922,1.4648438,0.0,0.0,0.0,-59.188843,67.13196,-28.328247
1766499006322,-0.9355469,-0.33642578,0.1977539,-2.5634766,0.5493164,0.24414062,0.0,0.0,0.0,-59.188843,67.13196,-28.328247
1766499006333,-0.9355469,-0.33642578,0.1977539,-2.5634766,0.5493164,0.24414062,0.0,0.0,0.0,-59.21631,67.21985,-28.092041
1766499006421,-0.9248047,-0.31396484,0.19384766,-1.0986328,0.6713867,-1.4038086,0.0,0.0,0.0,-59.21631,67.21985,-28.092041
1766499006433,-0.9248047,-0.31396484,0.19384766,-1.0986328,0.6713867,-1.4038086,0.0,0.0,0.0,-59.65576,67.13196,-28.31726
1766499006521,-0.9243164,-0.328125,0.19238281,1.4038086,1.5258789,-1.7700195,0.0,0.0,0.0,-59.65576,67.13196,-28.31726
1766499006533,-0.9243164,-0.328125,0.19238281,1.4038086,1.5258789,-1.7700195,0.0,0.0,0.0,-60.012817,67.10449,-28.712769
1766499006621,-0.9321289,-0.34228516,0.17919922,-4.0283203,1.5869141,0.79345703,0.0,0.0,0.0,-60.012817,67.10449,-28.712769
1766499006632,-0.9321289,-0.34228516,0.17919922,-4.0283203,1.5869141,0.79345703,0.0,0.0,0.0,-60.320435,67.1759,-28.756714
1766499006721,-0.9199219,-0.33740234,0.18408203,-3.0517578,-0.6713867,-0.7324219,0.0,0.0,0.0,-60.320435,67.1759,-28.756714
1766499006732,-0.9199219,-0.33740234,0.18408203,-3.0517578,-0.6713867,-0.7324219,0.0,0.0,0.0,-60.858765,67.21985,-28.921509
1766499006820,-0.9243164,-0.36035156,0.18701172,-8.483887,-6.591797,-1.953125,0.0,0.0,0.0,-60.858765,67.21985,-28.921509
1766499006832,-0.9243164,-0.36035156,0.18701172,-8.483887,-6.591797,-1.953125,0.0,0.0,0.0,-60.79834,66.917725,-28.201904
1766499006920,-0.9038086,-0.3413086,0.21240234,-6.225586,1.3427734,-2.0751953,0.0,0.0,0.0,-60.79834,66.917725,-28.201904
1766499006931,-0.9038086,-0.3413086,0.21240234,-6.225586,1.3427734,-2.0751953,0.0,0.0,0.0,-60.787354,66.63757,-27.075806
1766499007020,-0.94384766,-0.37158203,0.17919922,-1.4648438,-2.0751953,-6.4086914,0.0,0.0,0.0,-60.787354,66.63757,-27.075806
1766499007031,-0.94384766,-0.37158203,0.17919922,-1.4648438,-2.0751953,-6.4086914,0.0,0.0,0.0,-61.342163,66.07727,-27.729492
1766499007119,-0.89404297,-0.3696289,0.18408203,-2.8076172,-5.1879883,-9.277344,0.0,0.0,0.0,-61.342163,66.07727,-27.729492
1766499007131,-0.89404297,-0.3696289,0.18408203,-2.8076172,-5.1879883,-9.277344,0.0,0.0,0.0,-61.92444,65.25879,-28.295288
1766499007219,-0.9067383,-0.3779297,0.20361328,-0.91552734,0.4272461,-7.385254,0.0,0.0,0.0,-61.92444,65.25879,-28.295288
1766499007231,-0.9067383,-0.3779297,0.20361328,-0.91552734,0.4272461,-7.385254,0.0,0.0,0.0,-62.60559,64.47327,-28.965454
1766499007319,-0.89501953,-0.3984375,0.19335938,-1.8310547,-2.380371,-6.286621,0.0,0.0,0.0,-62.60559,64.47327,-28.965454
1766499007331,-0.89501953,-0.3984375,0.19335938,-1.8310547,-2.380371,-6.286621,0.0,0.0,0.0,-62.962646,63.918457,-29.251099
1766499007419,-0.8925781,-0.40039062,0.2006836,-2.0751953,-3.0517578,-7.873535,0.0,0.0,0.0,-62.962646,63.918457,-29.251099
1766499007430,-0.8925781,-0.40039062,0.2006836,-2.0751953,-3.0517578,-7.873535,0.0,0.0,0.0,-63.38562,63.154907,-29.663086
1766499007518,-0.86865234,-0.4375,0.20410156,-1.7089844,-0.8544922,-9.887695,0.0,0.0,0.0,-63.38562,63.154907,-29.663086
1766499007530,-0.86865234,-0.4375,0.20410156,-1.7089844,-0.8544922,-9.887695,0.0,0.0,0.0,-63.918457,62.36389,-30.140991
1766499007618,-0.8876953,-0.41455078,0.19580078,-1.953125,-6.1035156,-6.8969727,0.0,0.0,0.0,-63.918457,62.36389,-30.140991
1766499007630,-0.8876953,-0.41455078,0.19580078,-1.953125,-6.1035156,-6.8969727,0.0,0.0,0.0,-64.055786,61.276245,-30.38269
1766499007718,-0.87597656,-0.4345703,0.2084961,2.0141602,-0.79345703,-5.92041,0.0,0.0,0.0,-64.055786,61.276245,-30.38269
1766499007730,-0.87597656,-0.4345703,0.2084961,2.0141602,-0.79345703,-5.92041,0.0,0.0,0.0,-64.22058,60.699463,-30.981445
1766499007818,-0.8696289,-0.44189453,0.20751953,2.746582,0.5493164,-2.2583008,0.0,0.0,0.0,-64.22058,60.699463,-30.981445
1766499007830,-0.8696289,-0.44189453,0.20751953,2.746582,0.5493164,-2.2583008,0.0,0.0,0.0,-64.03931,60.386353,-31.1792
1766499007917,-0.8535156,-0.45507812,0.20898438,1.6479492,2.319336,1.953125,0.0,0.0,0.0,-64.03931,60.386353,-31.1792
1766499007929,-0.8535156,-0.45507812,0.20898438,1.6479492,2.319336,1.953125,0.0,0.0,0.0,-64.06677,60.512695,-31.519775
1766499008017,-0.87646484,-0.46923828,0.22558594,-1.3427734,-0.18310547,3.2958984,0.0,0.0,0.0,-64.06677,60.512695,-31.519775
1766499008029,-0.87646484,-0.46923828,0.22558594,-1.3427734,-0.18310547,3.2958984,0.0,0.0,0.0,-63.808594,60.666504,-31.322021
1766499008117,-0.8676758,-0.43603516,0.22216797,-0.6713867,-0.7324219,0.61035156,0.0,0.0,0.0,-63.808594,60.666504,-31.322021
1766499008128,-0.8676758,-0.43603516,0.22216797,-0.6713867,-0.7324219,0.61035156,0.0,0.0,0.0,-63.588867,60.633545,-31.05835
1766499008217,-0.87841797,-0.44921875,0.21533203,1.3427734,0.9765625,-0.8544922,0.0,0.0,0.0,-63.588867,60.633545,-31.05835
1766499008228,-0.87841797,-0.44921875,0.21533203,1.3427734,0.9765625,-0.8544922,0.0,0.0,0.0,-63.566895,60.584106,-31.38794
1766499008316,-0.86865234,-0.4350586,0.203125,-2.6855469,-1.5869141,2.6245117,0.0,0.0,0.0,-63.566895,60.584106,-31.38794
1766499008328,-0.86865234,-0.4350586,0.203125,-2.6855469,-1.5869141,2.6245117,0.0,0.0,0.0,-63.484497,60.64453,-31.349487
1766499008416,-0.86865234,-0.43554688,0.2133789,2.2583008,0.4272461,0.5493164,0.0,0.0,0.0,-63.484497,60.64453,-31.349487
1766499008428,-0.86865234,-0.43554688,0.2133789,2.2583008,0.4272461,0.5493164,0.0,0.0,0.0,-63.43506,60.74341,-31.376953
1766499008516,-0.8779297,-0.4453125,0.22216797,0.6713867,0.061035156,0.12207031,0.0,0.0,0.0,-63.43506,60.74341,-31.376953
1766499008527,-0.8779297,-0.4453125,0.22216797,0.6713867,0.061035156,0.12207031,0.0,0.0,0.0,-63.23181,60.759888,-31.316528
1766499008615,-0.87402344,-0.42871094,0.20703125,1.6479492,0.12207031,-1.2207031,0.0,0.0,0.0,-63.23181,60.759888,-31.316528
1766499008627,-0.87402344,-0.42871094,0.20703125,1.6479492,0.12207031,-1.2207031,0.0,0.0,0.0,-63.23181,60.617065,-31.453857
1766499008715,-0.86279297,-0.4375,0.2265625,-1.4648438,0.36621094,1.0986328,0.0,0.0,0.0,-63.23181,60.617065,-31.453857
1766499008727,-0.86279297,-0.4375,0.2265625,-1.4648438,0.36621094,1.0986328,0.0,0.0,0.0,-63.391113,60.715942,-31.690063
1766499008815,-0.86376953,-0.43847656,0.19970703,-0.30517578,-0.48828125,0.36621094,0.0,0.0,0.0,-63.391113,60.715942,-31.690063
1766499008826,-0.86376953,-0.43847656,0.19970703,-0.30517578,-0.48828125,0.36621094,0.0,0.0,0.0,-63.23181,60.72693,-31.464844
1766499008915,-0.88134766,-0.4272461,0.22802734,-0.48828125,-0.4272461,-0.36621094,0.0,0.0,0.0,-63.23181,60.72693,-31.464844
1766499008926,-0.88134766,-0.4272461,0.22802734,-0.48828125,-0.4272461,-0.36621094,0.0,0.0,0.0,-63.319702,60.72693,-31.569214
1766499009014,-0.86865234,-0.4404297,0.20458984,-0.12207031,0.91552734,0.0,0.0,0.0,0.0,-63.319702,60.72693,-31.569214
1766499009026,-0.86865234,-0.4404297,0.20458984,-0.12207031,0.91552734,0.0,0.0,0.0,0.0,-63.33618,60.71045,-31.843872
1766499009114,-0.8720703,-0.44140625,0.21679688,-2.6855469,-1.3427734,3.3569336,0.0,0.0,0.0,-63.33618,60.71045,-31.843872
1766499009126,-0.8720703,-0.44140625,0.21679688,-2.6855469,-1.3427734,3.3569336,0.0,0.0,0.0,-63.424072,60.864258,-31.799927
1766499009214,-0.88671875,-0.4345703,0.21679688,4.1503906,2.4414062,-1.159668,0.0,0.0,0.0,-63.424072,60.864258,-31.799927
1766499009226,-0.88671875,-0.4345703,0.21679688,4.1503906,2.4414062,-1.159668,0.0,0.0,0.0,-63.050537,60.95215,-31.470337
1766499009313,-0.8496094,-0.43701172,0.2084961,3.540039,0.6713867,-0.30517578,0.0,0.0,0.0,-63.050537,60.95215,-31.470337
1766499009325,-0.8496094,-0.43701172,0.2084961,3.540039,0.6713867,-0.30517578,0.0,0.0,0.0,-62.990112,60.85327,-31.854858
1766499009413,-0.8691406,-0.43115234,0.21582031,0.061035156,1.3427734,1.8920898,0.0,0.0,0.0,-62.990112,60.85327,-31.854858
1766499009425,-0.8691406,-0.43115234,0.21582031,0.061035156,1.3427734,1.8920898,0.0,0.0,0.0,-62.973633,60.985107,-31.80542
1766499009513,-0.8857422,-0.41503906,0.21777344,0.36621094,0.48828125,3.6010742,0.0,0.0,0.0,-62.973633,60.985107,-31.80542
1766499009524,-0.8857422,-0.41503906,0.21777344,0.36621094,0.48828125,3.6010742,0.0,0.0,0.0,-62.7594,61.30371,-31.464844
1766499009613,-0.8803711,-0.43603516,0.21435547,2.2583008,2.1362305,0.79345703,0.0,0.0,0.0,-62.7594,61.30371,-31.464844
1766499009624,-0.8803711,-0.43603516,0.21435547,2.2583008,2.1362305,0.79345703,0.0,0.0,0.0,-62.556152,61.49048,-31.569214
1766499009712,-0.8808594,-0.41992188,0.21679688,-2.0141602,0.36621094,2.8076172,0.0,0.0,0.0,-62.556152,61.49048,-31.569214
1766499009724,-0.8808594,-0.41992188,0.21679688,-2.0141602,0.36621094,2.8076172,0.0,0.0,0.0,-62.720947,61.68274,-31.832886
1766499009812,-0.8754883,-0.41455078,0.21240234,1.0375977,1.4648438,0.9765625,0.0,0.0,0.0,-62.720947,61.68274,-31.832886
1766499009824,-0.8754883,-0.41455078,0.21240234,1.0375977,1.4648438,0.9765625,0.0,0.0,0.0,-62.72644,61.875,-31.80542
1766499009912,-0.8779297,-0.41845703,0.20214844,1.8310547,0.12207031,0.0,0.0,0.0,0.0,-62.72644,61.875,-31.80542
1766499009923,-0.8779297,-0.41845703,0.20214844,1.8310547,0.12207031,0.0,0.0,0.0,0.0,-62.55066,61.885986,-31.739502
1766499010011,-0.890625,-0.42529297,0.21679688,0.12207031,1.953125,0.91552734,0.0,0.0,0.0,-62.55066,61.885986,-31.739502
1766499010023,-0.890625,-0.42529297,0.21679688,0.12207031,1.953125,0.91552734,0.0,0.0,0.0,-62.781372,62.061768,-32.003174
1766499010111,-0.8754883,-0.41308594,0.20019531,-1.2207031,2.1972656,0.7324219,0.0,0.0,0.0,-62.781372,62.061768,-32.003174
1766499010123,-0.8754883,-0.41308594,0.20019531,-1.2207031,2.1972656,0.7324219,0.0,0.0,0.0,-62.924194,62.105713,-32.107544
1766499010211,-0.8925781,-0.40820312,0.20947266,1.5869141,2.1972656,0.0,0.0,0.0,0.0,-62.924194,62.105713,-32.107544
1766499010223,-0.8925781,-0.40820312,0.20947266,1.5869141,2.1972656,0.0,0.0,0.0,0.0,-63.38562,62.314453,-32.51953
1766499010311,-0.8901367,-0.4194336,0.20410156,-1.0986328,1.4038086,0.18310547,0.0,0.0,0.0,-63.38562,62.314453,-32.51953
1766499010322,-0.8901367,-0.4194336,0.20410156,-1.0986328,1.4038086,0.18310547,0.0,0.0,0.0,-63.572388,62.38037,-32.678833
1766499010410,-0.8808594,-0.41455078,0.19091797,0.8544922,0.18310547,-0.12207031,0.0,0.0,0.0,-63.572388,62.38037,-32.678833
1766499010422,-0.8808594,-0.41455078,0.19091797,0.8544922,0.18310547,-0.12207031,0.0,0.0,0.0,-63.550415,62.36389,-32.68982
1766499010510,-0.87890625,-0.4033203,0.20605469,1.3427734,0.30517578,-0.30517578,0.0,0.0,0.0,-63.550415,62.36389,-32.68982
1766499010522,-0.87890625,-0.4033203,0.20605469,1.3427734,0.30517578,-0.30517578,0.0,0.0,0.0,-63.605347,62.41333,-32.72278
1766499010610,-0.8828125,-0.4086914,0.18701172,2.5634766,1.0986328,-1.5258789,0.0,0.0,0.0,-63.605347,62.41333,-32.72278
1766499010622,-0.8828125,-0.4086914,0.18701172,2.5634766,1.0986328,-1.5258789,0.0,0.0,0.0,-63.62732,62.319946,-32.98645
1766499010710,-0.88427734,-0.41601562,0.19433594,1.4038086,-0.061035156,0.12207031,0.0,0.0,0.0,-63.62732,62.319946,-32.98645
1766499010721,-0.88427734,-0.41601562,0.19433594,1.4038086,-0.061035156,0.12207031,0.0,0.0,0.0,-63.78662,62.276,-33.288574
1766499010809,-0.8847656,-0.4116211,0.20800781,1.7700195,-1.159668,1.4648438,0.0,0.0,0.0,-63.78662,62.276,-33.288574
1766499010821,-0.8847656,-0.4116211,0.20800781,1.7700195,-1.159668,1.4648438,0.0,0.0,0.0,-63.605347,62.46826,-33.01941
1766499010909,-0.890625,-0.41601562,0.2084961,2.319336,0.061035156,-0.8544922,0.0,0.0,0.0,-63.605347,62.46826,-33.01941
1766499010921,-0.890625,-0.41601562,0.2084961,2.319336,0.061035156,-0.8544922,0.0,0.0,0.0,-63.286743,62.435303,-32.79419
1766499011009,-0.8984375,-0.41308594,0.20751953,0.4272461,0.36621094,0.0,0.0,0.0,0.0,-63.286743,62.435303,-32.79419
1766499011020,-0.8984375,-0.41308594,0.20751953,0.4272461,0.36621094,0.0,0.0,0.0,0.0,-63.083496,62.38037,-32.684326
1766499011108,-0.8701172,-0.41259766,0.19628906,-0.4272461,0.18310547,1.4648438,0.0,0.0,0.0,-63.083496,62.38037,-32.684326
1766499011120,-0.8701172,-0.41259766,0.19628906,-0.4272461,0.18310547,1.4648438,0.0,0.0,0.0,-63.061523,62.39685,-32.733765
1766499011208,-0.89160156,-0.4038086,0.20263672,-0.5493164,-1.7089844,0.36621094,0.0,0.0,0.0,-63.061523,62.39685,-32.733765
1766499011220,-0.89160156,-0.4038086,0.20263672,-0.5493164,-1.7089844,0.36621094,0.0,0.0,0.0,-62.913208,62.435303,-32.354736
1766499011308,-0.88427734,-0.40771484,0.20898438,0.79345703,0.48828125,-0.18310547,0.0,0.0,0.0,-62.913208,62.435303,-32.354736
1766499011319,-0.88427734,-0.40771484,0.20898438,0.79345703,0.48828125,-0.18310547,0.0,0.0,0.0,-62.81433,62.435303,-32.266846
1766499011408,-0.87841797,-0.39990234,0.19140625,1.8310547,1.2817383,-0.91552734,0.0,0.0,0.0,-62.81433,62.435303,-32.266846
1766499011419,-0.87841797,-0.39990234,0.19140625,1.8310547,1.2817383,-0.91552734,0.0,0.0,0.0,-62.81433,62.39685,-32.36023
1766499011507,-0.88916016,-0.40527344,0.20751953,-0.9765625,-0.8544922,1.3427734,0.0,0.0,0.0,-62.81433,62.39685,-32.36023
1766499011519,-0.88916016,-0.40527344,0.20751953,-0.9765625,-0.8544922,1.3427734,0.0,0.0,0.0,-62.819824,62.57263,-32.23938
1766499011607,-0.890625,-0.40527344,0.19970703,2.5024414,0.48828125,-0.91552734,0.0,0.0,0.0,-62.819824,62.57263,-32.23938
1766499011619,-0.890625,-0.40527344,0.19970703,2.5024414,0.48828125,-0.91552734,0.0,0.0,0.0,-62.512207,62.53418,-31.90979
1766499011707,-0.88916016,-0.4140625,0.20947266,0.36621094,-0.5493164,0.061035156,0.0,0.0,0.0,-62.512207,62.53418,-31.90979
1766499011718,-0.88916016,-0.4140625,0.20947266,0.36621094,-0.5493164,0.061035156,0.0,0.0,0.0,-62.473755,62.556152,-31.970215
1766499011807,-0.89208984,-0.40283203,0.21142578,-0.4272461,0.0,0.48828125,0.0,0.0,0.0,-62.473755,62.556152,-31.970215
1766499011818,-0.89208984,-0.40283203,0.21142578,-0.4272461,0.0,0.48828125,0.0,0.0,0.0,-62.479248,62.594604,-31.92627
1766499011906,-0.89990234,-0.4086914,0.20507812,1.2207031,0.9765625,-0.5493164,0.0,0.0,0.0,-62.479248,62.594604,-31.92627
1766499011918,-0.89990234,-0.4086914,0.20507812,1.2207031,0.9765625,-0.5493164,0.0,0.0,0.0,-62.457275,62.600098,-31.981201
1766499012006,-0.88720703,-0.4165039,0.20751953,-0.79345703,0.79345703,-0.48828125,0.0,0.0,0.0,-62.457275,62.600098,-31.981201
1766499012017,-0.88720703,-0.4165039,0.20751953,-0.79345703,0.79345703,-0.48828125,0.0,0.0,0.0,-62.616577,62.57263,-32.195435
1766499012106,-0.8930664,-0.40722656,0.2109375,-0.36621094,-0.24414062,-0.61035156,0.0,0.0,0.0,-62.616577,62.57263,-32.195435
1766499012117,-0.8930664,-0.40722656,0.2109375,-0.36621094,-0.24414062,-0.61035156,0.0,0.0,0.0,-62.748413,62.62207,-32.18994
1766499012205,-0.9008789,-0.41210938,0.20703125,1.4038086,0.6713867,-0.12207031,0.0,0.0,0.0,-62.748413,62.62207,-32.18994
1766499012218,-0.9008789,-0.41210938,0.20703125,1.4038086,0.6713867,-0.12207031,0.0,0.0,0.0,-62.69348,62.600098,-32.156982
1766499012305,-0.8857422,-0.41210938,0.21044922,0.8544922,0.79345703,0.0,0.0,0.0,0.0,-62.69348,62.600098,-32.156982
1766499012317,-0.8857422,-0.41210938,0.21044922,0.8544922,0.79345703,0.0,0.0,0.0,0.0,-62.764893,62.649536,-32.29431
1766499012405,-0.89697266,-0.40527344,0.20410156,0.4272461,0.24414062,0.061035156,0.0,0.0,0.0,-62.764893,62.649536,-32.29431
1766499012417,-0.89697266,-0.40527344,0.20410156,0.4272461,0.24414062,0.061035156,0.0,0.0,0.0,-62.660522,62.611084,-32.211914
1766499012505,-0.8911133,-0.4140625,0.20947266,-0.6713867,0.12207031,-0.24414062,0.0,0.0,0.0,-62.660522,62.611084,-32.211914
1766499012516,-0.8911133,-0.4140625,0.20947266,-0.6713867,0.12207031,-0.24414062,0.0,0.0,0.0,-62.69348,62.616577,-32.23938
1766499012604,-0.8720703,-0.40283203,0.20361328,-0.061035156,0.36621094,0.8544922,0.0,0.0,0.0,-62.69348,62.616577,-32.23938
1766499012616,-0.8720703,-0.40283203,0.20361328,-0.061035156,0.36621094,0.8544922,0.0,0.0,0.0,-62.803345,62.600098,-32.332764
1766499012704,-0.88916016,-0.39160156,0.1899414,1.7089844,-0.4272461,-0.061035156,0.0,0.0,0.0,-62.803345,62.600098,-32.332764
1766499012716,-0.88916016,-0.39160156,0.1899414,1.7089844,-0.4272461,-0.061035156,0.0,0.0,0.0,-62.72644,62.666016,-32.129517
1766499012804,-0.8798828,-0.4111328,0.20410156,0.8544922,1.0375977,0.24414062,0.0,0.0,0.0,-62.72644,62.666016,-32.129517
1766499012816,-0.8798828,-0.4111328,0.20410156,0.8544922,1.0375977,0.24414062,0.0,0.0,0.0,-62.781372,62.74292,-32.299805
1766499012904,-0.89208984,-0.4008789,0.19921875,-0.18310547,-0.4272461,0.30517578,0.0,0.0,0.0,-62.781372,62.74292,-32.299805
1766499012915,-0.89208984,-0.4008789,0.19921875,-0.18310547,-0.4272461,0.30517578,0.0,0.0,0.0,-62.7594,62.7594,-32.23938
1766499013003,-0.89208984,-0.3930664,0.20410156,0.8544922,-1.8310547,0.0,0.0,0.0,0.0,-62.7594,62.7594,-32.23938
1766499013015,-0.89208984,-0.3930664,0.20410156,0.8544922,-1.8310547,0.0,0.0,0.0,0.0,-62.649536,62.737427,-32.074585
1766499013103,-0.8876953,-0.4033203,0.21240234,-0.4272461,-1.7089844,1.0986328,0.0,0.0,0.0,-62.649536,62.737427,-32.074585
1766499013114,-0.8876953,-0.4033203,0.21240234,-0.4272461,-1.7089844,1.0986328,0.0,0.0,0.0,-62.32544,62.781372,-31.68457
1766499013203,-0.89501953,-0.40429688,0.21191406,2.380371,-0.30517578,0.61035156,0.0,0.0,0.0,-62.32544,62.781372,-31.68457
1766499013214,-0.89501953,-0.40429688,0.21191406,2.380371,-0.30517578,0.61035156,0.0,0.0,0.0,-61.90796,62.753906,-31.28357
1766499013302,-0.8876953,-0.40429688,0.2163086,0.36621094,0.6713867,0.24414062,0.0,0.0,0.0,-61.90796,62.753906,-31.28357
1766499013314,-0.8876953,-0.40429688,0.2163086,0.36621094,0.6713867,0.24414062,0.0,0.0,0.0,-61.644287,62.786865,-30.975952
1766499013402,-0.88964844,-0.39697266,0.21142578,-0.24414062,-0.9765625,0.6713867,0.0,0.0,0.0,-61.644287,62.786865,-30.975952
1766499013414,-0.88964844,-0.39697266,0.21142578,-0.24414062,-0.9765625,0.6713867,0.0,0.0,0.0,-61.671753,62.79785,-30.970459
1766499013502,-0.8925781,-0.39941406,0.2163086,1.0986328,0.18310547,0.6713867,0.0,0.0,0.0,-61.671753,62.79785,-30.970459
1766499013513,-0.8925781,-0.39941406,0.2163086,1.0986328,0.18310547,0.6713867,0.0,0.0,0.0,-61.61133,62.852783,-30.932007
1766499013602,-0.9038086,-0.40625,0.2133789,-0.8544922,-0.30517578,0.0,0.0,0.0,0.0,-61.61133,62.852783,-30.932007
1766499013613,-0.9038086,-0.40625,0.2133789,-0.8544922,-0.30517578,0.0,0.0,0.0,0.0,-61.45752,62.88025,-30.794678
1766499013701,-0.8925781,-0.38916016,0.21533203,0.24414062,-1.3427734,1.953125,0.0,0.0,0.0,-61.45752,62.88025,-30.794678
1766499013716,-0.8925781,-0.38916016,0.21533203,0.24414062,-1.3427734,1.953125,0.0,0.0,0.0,-61.49048,62.907715,-30.794678
1766499013801,-0.8959961,-0.40283203,0.22021484,0.12207031,1.8920898,2.746582,0.0,0.0,0.0,-61.49048,62.907715,-30.794678
1766499013813,-0.8959961,-0.40283203,0.22021484,0.12207031,1.8920898,2.746582,0.0,0.0,0.0,-61.347656,63.154907,-30.585938
1766499013901,-0.8989258,-0.3857422,0.2109375,-1.4038086,1.6479492,3.7231445,0.0,0.0,0.0,-61.347656,63.154907,-30.585938
1766499013912,-0.8989258,-0.3857422,0.2109375,-1.4038086,1.6479492,3.7231445,0.0,0.0,0.0,-61.309204,63.407593,-30.525513
1766499014000,-0.91308594,-0.38232422,0.21044922,-1.7700195,-0.30517578,4.3945312,0.0,0.0,0.0,-61.309204,63.407593,-30.525513
1766499014012,-0.91308594,-0.38232422,0.21044922,-1.7700195,-0.30517578,4.3945312,0.0,0.0,0.0,-61.380615,63.792114,-30.613403
1766499014100,-0.9013672,-0.37646484,0.203125,-2.8686523,3.7231445,3.7841797,0.0,0.0,0.0,-61.380615,63.792114,-30.613403
1766499014112,-0.9013672,-0.37646484,0.203125,-2.8686523,3.7231445,3.7841797,0.0,0.0,0.0,-61.72119,64.176636,-30.80017
1766499014200,-0.9116211,-0.38916016,0.19384766,-1.0986328,5.6152344,3.2958984,0.0,0.0,0.0,-61.72119,64.176636,-30.80017
1766499014212,-0.9116211,-0.38916016,0.19384766,-1.0986328,5.6152344,3.2958984,0.0,0.0,0.0,-62.48474,64.714966,-31.360474
1766499014300,-0.9008789,-0.37158203,0.18066406,-0.36621094,-1.6479492,3.4179688,0.0,0.0,0.0,-62.48474,64.714966,-31.360474
1766499014311,-0.9008789,-0.37158203,0.18066406,-0.36621094,-1.6479492,3.4179688,0.0,0.0,0.0,-62.10022,65.0061,-30.789185
1766499014399,-0.9135742,-0.34521484,0.19335938,2.6245117,0.30517578,5.493164,0.0,0.0,0.0,-62.10022,65.0061,-30.789185
1766499014411,-0.9135742,-0.34521484,0.19335938,2.6245117,0.30517578,5.493164,0.0,0.0,0.0,-61.556396,65.50049,-30.26184
1766499014499,-0.9165039,-0.34716797,0.19140625,5.554199,1.5258789,2.5024414,0.0,0.0,0.0,-61.556396,65.50049,-30.26184
1766499014511,-0.9165039,-0.34716797,0.19140625,5.554199,1.5258789,2.5024414,0.0,0.0,0.0,-61.001587,65.86853,-30.146484
1766499014599,-0.92578125,-0.35742188,0.18652344,2.6245117,1.2207031,1.2817383,0.0,0.0,0.0,-61.001587,65.86853,-30.146484
1766499014610,-0.92578125,-0.35742188,0.18652344,2.6245117,1.2207031,1.2817383,0.0,0.0,0.0,-60.595093,66.07178,-29.94873
1766499014699,-0.90478516,-0.3569336,0.1928711,1.5258789,1.8920898,1.159668,0.0,0.0,0.0,-60.595093,66.07178,-29.94873
1766499014710,-0.90478516,-0.3569336,0.1928711,1.5258789,1.8920898,1.159668,0.0,0.0,0.0,-60.76538,66.22009,-30.250854
1766499014798,-0.93115234,-0.3466797,0.19677734,-1.0375977,1.8920898,0.30517578,0.0,0.0,0.0,-60.76538,66.22009,-30.250854
1766499014810,-0.93115234,-0.3466797,0.19677734,-1.0375977,1.8920898,0.30517578,0.0,0.0,0.0,-60.996094,66.36841,-30.426636
1766499014898,-0.90625,-0.32470703,0.18310547,5.432129,4.638672,0.6713867,0.0,0.0,0.0,-60.996094,66.36841,-30.426636
1766499014910,-0.90625,-0.32470703,0.18310547,5.432129,4.638672,0.6713867,0.0,0.0,0.0,-61.14441,66.42883,-30.893555
1766499014998,-0.9213867,-0.33447266,0.1772461,3.7841797,0.61035156,1.5258789,0.0,0.0,0.0,-61.14441,66.42883,-30.893555
1766499015010,-0.9213867,-0.33447266,0.1772461,3.7841797,0.61035156,1.5258789,0.0,0.0,0.0,-60.81482,66.74744,-30.805664
1766499015098,-0.9189453,-0.33251953,0.19140625,5.493164,2.9296875,3.479004,0.0,0.0,0.0,-60.81482,66.74744,-30.805664
1766499015110,-0.9189453,-0.33251953,0.19140625,5.493164,2.9296875,3.479004,0.0,0.0,0.0,-60.611572,67.13745,-30.970459
1766499015197,-0.9404297,-0.3564453,0.20410156,0.7324219,3.9672852,0.8544922,0.0,0.0,0.0,-60.611572,67.13745,-30.970459
1766499015209,-0.9404297,-0.3564453,0.20410156,0.7324219,3.9672852,0.8544922,0.0,0.0,0.0,-60.31494,67.37915,-30.6958
1766499015297,-0.89746094,-0.30371094,0.17480469,1.8310547,-0.9765625,2.8076172,0.0,0.0,0.0,-60.31494,67.37915,-30.6958
1766499015309,-0.89746094,-0.30371094,0.17480469,1.8310547,-0.9765625,2.8076172,0.0,0.0,0.0,-60.9906,67.53296,-31.305542
1766499015397,-0.9404297,-0.34375,0.1796875,4.0893555,3.112793,-2.1362305,0.0,0.0,0.0,-60.9906,67.53296,-31.305542
1766499015408,-0.9404297,-0.34375,0.1796875,4.0893555,3.112793,-2.1362305,0.0,0.0,0.0,-60.38086,67.631836,-30.860596
1766499015496,-0.93359375,-0.3256836,0.17285156,-2.9296875,0.12207031,1.953125,0.0,0.0,0.0,-60.38086,67.631836,-30.860596
1766499015508,-0.93359375,-0.3256836,0.17285156,-2.9296875,0.12207031,1.953125,0.0,0.0,0.0,-60.639038,67.70325,-30.84961
1766499015596,-0.92041016,-0.3071289,0.18261719,2.4414062,-0.24414062,0.8544922,0.0,0.0,0.0,-60.639038,67.70325,-30.84961
1766499015608,-0.92041016,-0.3071289,0.18261719,2.4414062,-0.24414062,0.8544922,0.0,0.0,0.0,-60.715942,67.890015,-30.706787
1766499015696,-0.9345703,-0.33740234,0.16894531,2.0141602,-2.746582,0.9765625,0.0,0.0,0.0,-60.715942,67.890015,-30.706787
1766499015707,-0.9345703,-0.33740234,0.16894531,2.0141602,-2.746582,0.9765625,0.0,0.0,0.0,-59.952393,67.89551,-30.020142
1766499015796,-0.93603516,-0.31591797,0.19482422,0.8544922,-0.18310547,-0.61035156,0.0,0.0,0.0,-59.952393,67.89551,-30.020142
1766499015807,-0.93603516,-0.31591797,0.19482422,0.8544922,-0.18310547,-0.61035156,0.0,0.0,0.0,-59.55139,67.840576,-29.470825
1766499015895,-0.92285156,-0.32128906,0.18261719,-0.61035156,0.36621094,1.3427734,0.0,0.0,0.0,-59.55139,67.840576,-29.470825
1766499015907,-0.92285156,-0.32128906,0.18261719,-0.61035156,0.36621094,1.3427734,0.0,0.0,0.0,-59.732666,67.87903,-29.61914
1766499015995,-0.9326172,-0.31835938,0.19189453,-0.79345703,-0.9765625,2.0141602,0.0,0.0,0.0,-59.732666,67.87903,-29.61914
1766499016011,-0.9326172,-0.31835938,0.19189453,-0.79345703,-0.9765625,2.0141602,0.0,0.0,0.0,-59.44153,68.04932,-28.987427
1766499016095,-0.9296875,-0.31933594,0.18798828,-1.159668,-0.12207031,0.30517578,0.0,0.0,0.0,-59.44153,68.04932,-28.987427
1766499016106,-0.9296875,-0.31933594,0.18798828,-1.159668,-0.12207031,0.30517578,0.0,0.0,0.0,-59.27124,68.10425,-28.580933
1766499016195,-0.9326172,-0.3149414,0.17919922,-0.4272461,0.48828125,0.4272461,0.0,0.0,0.0,-59.27124,68.10425,-28.580933
1766499016207,-0.9326172,-0.3149414,0.17919922,-0.4272461,0.48828125,0.4272461,0.0,0.0,0.0,-59.32068,68.13721,-28.487549
1766499016294,-0.93115234,-0.31445312,0.18554688,-1.5258789,-0.6713867,1.3427734,0.0,0.0,0.0,-59.32068,68.13721,-28.487549
1766499016306,-0.93115234,-0.31445312,0.18554688,-1.5258789,-0.6713867,1.3427734,0.0,0.0,0.0,-59.282227,68.219604,-28.278809
1766499016394,-0.9316406,-0.31054688,0.19189453,0.4272461,0.36621094,0.6713867,0.0,0.0,0.0,-59.282227,68.219604,-28.278809
1766499016405,-0.9316406,-0.31054688,0.19189453,0.4272461,0.36621094,0.6713867,0.0,0.0,0.0,-59.155884,68.31848,-27.993164
1766499016494,-0.9350586,-0.31591797,0.19042969,-0.12207031,-1.4648438,0.7324219,0.0,0.0,0.0,-59.155884,68.31848,-27.993164
1766499016506,-0.9350586,-0.31591797,0.19042969,-0.12207031,-1.4648438,0.7324219,0.0,0.0,0.0,-58.99109,68.35693,-27.767944
1766499016594,-0.9291992,-0.30810547,0.1899414,0.9765625,-0.4272461,-0.30517578,0.0,0.0,0.0,-58.99109,68.35693,-27.767944
1766499016605,-0.9291992,-0.30810547,0.1899414,0.9765625,-0.4272461,-0.30517578,0.0,0.0,0.0,-58.710938,68.35693,-27.443848
1766499016693,-0.9326172,-0.3149414,0.18896484,1.5258789,0.4272461,-1.6479492,0.0,0.0,0.0,-58.710938,68.35693,-27.443848
1766499016705,-0.9326172,-0.3149414,0.18896484,1.5258789,0.4272461,-1.6479492,0.0,0.0,0.0,-58.705444,68.274536,-27.575684
1766499016793,-0.9291992,-0.3149414,0.18652344,0.30517578,-0.4272461,-0.4272461,0.0,0.0,0.0,-58.705444,68.274536,-27.575684
1766499016805,-0.9291992,-0.3149414,0.18652344,0.30517578,-0.4272461,-0.4272461,0.0,0.0,0.0,-58.743896,68.186646,-27.619629
1766499016893,-0.93066406,-0.31835938,0.19384766,0.0,-0.24414062,-0.18310547,0.0,0.0,0.0,-58.743896,68.186646,-27.619629
1766499016904,-0.93066406,-0.31835938,0.19384766,0.0,-0.24414062,-0.18310547,0.0,0.0,0.0,-58.721924,68.15918,-27.531738
1766499016992,-0.9301758,-0.3173828,0.18945312,0.0,0.30517578,-0.12207031,0.0,0.0,0.0,-58.721924,68.15918,-27.531738
1766499017004,-0.9301758,-0.3173828,0.18945312,0.0,0.30517578,-0.12207031,0.0,0.0,0.0,-58.71643,68.13721,-27.443848
1766499017092,-0.9296875,-0.31445312,0.1928711,-0.5493164,-0.12207031,-0.4272461,0.0,0.0,0.0,-58.71643,68.13721,-27.443848
1766499017104,-0.9296875,-0.31445312,0.1928711,-0.5493164,-0.12207031,-0.4272461,0.0,0.0,0.0,-58.710938,68.098755,-27.34497
1766499017192,-0.9272461,-0.31445312,0.19189453,-1.2817383,-0.24414062,0.48828125,0.0,0.0,0.0,-58.710938,68.098755,-27.34497
1766499017203,-0.9272461,-0.31445312,0.19189453,-1.2817383,-0.24414062,0.48828125,0.0,0.0,0.0,-58.710938,68.08777,-27.251587
1766499017292,-0.9291992,-0.31396484,0.19580078,-0.7324219,-1.0986328,0.5493164,0.0,0.0,0.0,-58.710938,68.08777,-27.251587
1766499017303,-0.9291992,-0.31396484,0.19580078,-0.7324219,-1.0986328,0.5493164,0.0,0.0,0.0,-58.606567,68.12073,-27.070312
1766499017391,-0.921875,-0.31445312,0.19189453,-0.30517578,0.48828125,-0.12207031,0.0,0.0,0.0,-58.606567,68.12073,-27.070312
1766499017403,-0.921875,-0.31445312,0.19189453,-0.30517578,0.48828125,-0.12207031,0.0,0.0,0.0,-58.529663,68.115234,-26.905518
1766499017491,-0.9296875,-0.31689453,0.1899414,0.48828125,0.48828125,0.0,0.0,0.0,0.0,-58.529663,68.115234,-26.905518
1766499017503,-0.9296875,-0.31689453,0.1899414,0.48828125,0.48828125,0.0,0.0,0.0,0.0,-58.513184,68.10974,-26.850586
1766499017591,-0.9267578,-0.3149414,0.19873047,-0.30517578,-0.4272461,0.4272461,0.0,0.0,0.0,-58.513184,68.10974,-26.850586
1766499017603,-0.9267578,-0.3149414,0.19873047,-0.30517578,-0.4272461,0.4272461,0.0,0.0,0.0,-58.496704,68.115234,-26.790161
1766499017691,-0.9291992,-0.3154297,0.19384766,-0.061035156,-0.061035156,0.061035156,0.0,0.0,0.0,-58.496704,68.115234,-26.790161
1766499017703,-0.9291992,-0.3154297,0.19384766,-0.061035156,-0.061035156,0.061035156,0.0,0.0,0.0,-58.408813,68.12073,-26.658325
1766499017790,-0.9296875,-0.3154297,0.1928711,0.0,0.0,0.0,0.0,0.0,0.0,-58.408813,68.12073,-26.658325
1766499017803,-0.9296875,-0.3154297,0.1928711,0.0,0.0,0.0,0.0,0.0,0.0,-58.38684,68.12073,-26.5979
1766499017890,-0.92871094,-0.3178711,0.19238281,-0.18310547,0.0,0.18310547,0.0,0.0,0.0,-58.38684,68.12073,-26.5979
1766499017901,-0.92871094,-0.3178711,0.19238281,-0.18310547,0.0,0.18310547,0.0,0.0,0.0,-58.34839,68.115234,-26.537476
1766499017990,-0.92871094,-0.31640625,0.18847656,-0.12207031,0.30517578,0.0,0.0,0.0,0.0,-58.34839,68.115234,-26.537476
1766499018001,-0.92871094,-0.31640625,0.18847656,-0.12207031,0.30517578,0.0,0.0,0.0,0.0,-58.359375,68.12622,-26.504517
1766499018089,-0.92529297,-0.3149414,0.19091797,-2.0141602,-0.30517578,0.48828125,0.0,0.0,0.0,-58.359375,68.12622,-26.504517
1766499018101,-0.92529297,-0.3149414,0.19091797,-2.0141602,-0.30517578,0.48828125,0.0,0.0,0.0,-58.441772,68.13721,-26.570435
1766499018189,-0.93359375,-0.31103516,0.18115234,1.3427734,3.3569336,-0.61035156,0.0,0.0,0.0,-58.441772,68.13721,-26.570435
1766499018201,-0.93359375,-0.31103516,0.18115234,1.3427734,3.3569336,-0.61035156,0.0,0.0,0.0,-58.771362,68.236084,-26.729736
1766499018289,-0.9291992,-0.31933594,0.19042969,1.0375977,-0.30517578,-0.30517578,0.0,0.0,0.0,-58.771362,68.236084,-26.729736
1766499018300,-0.9291992,-0.31933594,0.19042969,1.0375977,-0.30517578,-0.30517578,0.0,0.0,0.0,-58.88672,68.25256,-26.982422
1766499018389,-0.92578125,-0.31396484,0.19628906,-0.7324219,-0.8544922,0.5493164,0.0,0.0,0.0,-58.88672,68.25256,-26.982422
1766499018400,-0.92578125,-0.31396484,0.19628906,-0.7324219,-0.8544922,0.5493164,0.0,0.0,0.0,-58.80432,68.23059,-26.867065
1766499018488,-0.93115234,-0.32177734,0.18359375,0.48828125,0.9765625,-0.36621094,0.0,0.0,0.0,-58.80432,68.23059,-26.867065
1766499018500,-0.93115234,-0.32177734,0.18359375,0.48828125,0.9765625,-0.36621094,0.0,0.0,0.0,-58.754883,68.236084,-26.812134
1766499018588,-0.9272461,-0.3203125,0.1821289,-0.061035156,-0.061035156,0.0,0.0,0.0,0.0,-58.754883,68.236084,-26.812134
1766499018600,-0.9272461,-0.3203125,0.1821289,-0.061035156,-0.061035156,0.0,0.0,0.0,0.0,-58.897705,68.2251,-26.96045
1766499018688,-0.9355469,-0.31396484,0.1899414,-0.79345703,-0.4272461,1.4038086,0.0,0.0,0.0,-58.897705,68.2251,-26.96045
1766499018699,-0.9355469,-0.31396484,0.1899414,-0.79345703,-0.4272461,1.4038086,0.0,0.0,0.0,-58.80432,68.274536,-26.751709
1766499018788,-0.92822266,-0.3154297,0.19091797,0.061035156,0.30517578,0.061035156,0.0,0.0,0.0,-58.80432,68.274536,-26.751709
1766499018799,-0.92822266,-0.3154297,0.19091797,0.061035156,0.30517578,0.061035156,0.0,0.0,0.0,-58.754883,68.340454,-26.696777
1766499018887,-0.9379883,-0.31445312,0.18652344,-0.8544922,-0.4272461,-0.12207031,0.0,0.0,0.0,-58.754883,68.340454,-26.696777
1766499018899,-0.9379883,-0.31445312,0.18652344,-0.8544922,-0.4272461,-0.12207031,0.0,0.0,0.0,-58.831787,68.32947,-26.768188
1766499018987,-0.93847656,-0.3125,0.19726562,2.4414062,0.18310547,-0.4272461,0.0,0.0,0.0,-58.831787,68.32947,-26.768188
1766499018998,-0.93847656,-0.3125,0.19726562,2.4414062,0.18310547,-0.4272461,0.0,0.0,0.0,-58.969116,68.307495,-27.026367
1766499019087,-0.9248047,-0.31689453,0.19824219,-0.061035156,1.0986328,0.24414062,0.0,0.0,0.0,-58.969116,68.307495,-27.026367
1766499019098,-0.9248047,-0.31689453,0.19824219,-0.061035156,1.0986328,0.24414062,0.0,0.0,0.0,-58.914185,68.33496,-26.894531
1766499019186,-0.92822266,-0.32080078,0.1850586,0.79345703,0.18310547,-0.48828125,0.0,0.0,0.0,-58.914185,68.33496,-26.894531
1766499019198,-0.92822266,-0.32080078,0.1850586,0.79345703,0.18310547,-0.48828125,0.0,0.0,0.0,-58.919678,68.31848,-26.954956
1766499019286,-0.92871094,-0.31835938,0.18701172,-0.9765625,-0.91552734,0.7324219,0.0,0.0,0.0,-58.919678,68.31848,-26.954956
1766499019298,-0.92871094,-0.31835938,0.18701172,-0.9765625,-0.91552734,0.7324219,0.0,0.0,0.0,-58.87024,68.31299,-26.872559
1766499019386,-0.9326172,-0.31689453,0.18701172,1.4038086,0.8544922,-0.061035156,0.0,0.0,0.0,-58.87024,68.31299,-26.872559
1766499019397,-0.9326172,-0.31689453,0.18701172,1.4038086,0.8544922,-0.061035156,0.0,0.0,0.0,-58.76587,68.33496,-26.768188
1766499019486,-0.9272461,-0.31445312,0.18896484,-0.48828125,0.24414062,0.12207031,0.0,0.0,0.0,-58.76587,68.33496,-26.768188
1766499019497,-0.9272461,-0.31445312,0.18896484,-0.48828125,0.24414062,0.12207031,0.0,0.0,0.0,-58.848267,68.34595,-26.845093
1766499019585,-0.9291992,-0.31201172,0.1850586,0.061035156,-0.12207031,0.12207031,0.0,0.0,0.0,-58.848267,68.34595,-26.845093
1766499019597,-0.9291992,-0.31201172,0.1850586,0.061035156,-0.12207031,0.12207031,0.0,0.0,0.0,-58.87024,68.35144,-26.8396
1766499019685,-0.93408203,-0.31689453,0.18652344,0.36621094,0.48828125,0.36621094,0.0,0.0,0.0,-58.87024,68.35144,-26.8396
1766499019697,-0.93408203,-0.31689453,0.18652344,0.36621094,0.48828125,0.36621094,0.0,0.0,0.0,-58.864746,68.395386,-26.80664
1766499019785,-0.92333984,-0.31884766,0.18310547,0.8544922,1.159668,-0.36621094,0.0,0.0,0.0,-58.864746,68.395386,-26.80664
1766499019796,-0.92333984,-0.31884766,0.18310547,0.8544922,1.159668,-0.36621094,0.0,0.0,0.0,-58.94165,68.41736,-26.894531
1766499019884,-0.9370117,-0.31933594,0.17871094,0.0,-0.8544922,0.30517578,0.0,0.0,0.0,-58.94165,68.41736,-26.894531
1766499019896,-0.9370117,-0.31933594,0.17871094,0.0,-0.8544922,0.30517578,0.0,0.0,0.0,-59.018555,68.411865,-26.987915
1766499019984,-0.9267578,-0.3125,0.18798828,0.4272461,0.24414062,0.12207031,0.0,0.0,0.0,-59.018555,68.411865,-26.987915
1766499019996,-0.9267578,-0.3125,0.18798828,0.4272461,0.24414062,0.12207031,0.0,0.0,0.0,-59.067993,68.41736,-26.998901
1766499020084,-0.93066406,-0.31152344,0.18652344,0.061035156,0.0,0.12207031,0.0,0.0,0.0,-59.067993,68.41736,-26.998901
1766499020096,-0.93066406,-0.31152344,0.18652344,0.061035156,0.0,0.12207031,0.0,0.0,0.0,-59.057007,68.428345,-26.971436
1766499020184,-0.93359375,-0.31445312,0.1850586,0.0,-0.48828125,0.5493164,0.0,0.0,0.0,-59.057007,68.428345,-26.971436
1766499020195,-0.93359375,-0.31445312,0.1850586,0.0,-0.48828125,0.5493164,0.0,0.0,0.0,-58.936157,68.444824,-26.795654
1766499020284,-0.9296875,-0.31640625,0.18701172,-0.061035156,0.12207031,0.0,0.0,0.0,0.0,-58.936157,68.444824,-26.795654
1766499020295,-0.9296875,-0.31640625,0.18701172,-0.061035156,0.12207031,0.0,0.0,0.0,0.0,-58.947144,68.45032,-26.817627
1766499020383,-0.93066406,-0.31396484,0.18701172,0.0,0.0,0.0,0.0,0.0,0.0,-58.947144,68.45032,-26.817627
1766499020394,-0.93066406,-0.31396484,0.18701172,0.0,0.0,0.0,0.0,0.0,0.0,-58.95813,68.444824,-26.779175
1766499020483,-0.9296875,-0.31396484,0.18603516,-0.061035156,0.0,0.24414062,0.0,0.0,0.0,-58.95813,68.444824,-26.779175
1766499020494,-0.9296875,-0.31396484,0.18603516,-0.061035156,0.0,0.24414062,0.0,0.0,0.0,-58.919678,68.45032,-26.713257
1766499020583,-0.9321289,-0.31445312,0.18164062,-0.12207031,0.0,0.36621094,0.0,0.0,0.0,-58.919678,68.45032,-26.713257
1766499020594,-0.9321289,-0.31445312,0.18164062,-0.12207031,0.0,0.36621094,0.0,0.0,0.0,-58.88672,68.4668,-26.652832
1766499020682,-0.9296875,-0.3125,0.18554688,0.61035156,0.61035156,-0.24414062,0.0,0.0,0.0,-58.88672,68.4668,-26.652832
1766499020694,-0.9296875,-0.3125,0.18554688,0.61035156,0.61035156,-0.24414062,0.0,0.0,0.0,-58.952637,68.47778,-26.751709
1766499020782,-0.9296875,-0.31347656,0.1796875,-0.36621094,0.061035156,0.18310547,0.0,0.0,0.0,-58.952637,68.47778,-26.751709
1766499020794,-0.9296875,-0.31347656,0.1796875,-0.36621094,0.061035156,0.18310547,0.0,0.0,0.0,-58.897705,68.4668,-26.669312
1766499020882,-0.93359375,-0.3173828,0.17773438,1.0375977,0.061035156,0.061035156,0.0,0.0,0.0,-58.897705,68.4668,-26.669312
1766499020894,-0.93359375,-0.3173828,0.17773438,1.0375977,0.061035156,0.061035156,0.0,0.0,0.0,-58.892212,68.48328,-26.680298
1766499020981,-0.92578125,-0.3125,0.18847656,0.79345703,0.061035156,-0.18310547,0.0,0.0,0.0,-58.892212,68.48328,-26.680298
1766499020993,-0.92578125,-0.3125,0.18847656,0.79345703,0.061035156,-0.18310547,0.0,0.0,0.0,-58.85376,68.4613,-26.669312
1766499021081,-0.93408203,-0.31445312,0.18554688,0.91552734,0.24414062,-0.12207031,0.0,0.0,0.0,-58.85376,68.4613,-26.669312
1766499021093,-0.93408203,-0.31445312,0.18554688,0.91552734,0.24414062,-0.12207031,0.0,0.0,0.0,-58.754883,68.43933,-26.564941
1766499021181,-0.9296875,-0.31591797,0.18652344,-0.061035156,-0.061035156,0.0,0.0,0.0,0.0,-58.754883,68.43933,-26.564941
1766499021193,-0.9296875,-0.31591797,0.18652344,-0.061035156,-0.061035156,0.0,0.0,0.0,0.0,-58.760376,68.428345,-26.61438
1766499021281,-0.93115234,-0.31396484,0.18896484,0.18310547,0.0,0.0,0.0,0.0,0.0,-58.760376,68.428345,-26.61438
1766499021292,-0.93115234,-0.31396484,0.18896484,0.18310547,0.0,0.0,0.0,0.0,0.0,-58.754883,68.41736,-26.603394
1766499021380,-0.92871094,-0.3154297,0.1899414,-0.30517578,-0.12207031,0.061035156,0.0,0.0,0.0,-58.754883,68.41736,-26.603394
1766499021392,-0.92871094,-0.3154297,0.1899414,-0.30517578,-0.12207031,0.061035156,0.0,0.0,0.0,-58.727417,68.411865,-26.564941
1766499021480,-0.93115234,-0.31347656,0.18847656,-0.36621094,0.12207031,0.0,0.0,0.0,0.0,-58.727417,68.411865,-26.564941
1766499021492,-0.93115234,-0.31347656,0.18847656,-0.36621094,0.12207031,0.0,0.0,0.0,0.0,-58.738403,68.40637,-26.531982
1766499021580,-0.93115234,-0.31201172,0.19335938,0.0,-0.4272461,0.0,0.0,0.0,0.0,-58.738403,68.40637,-26.531982
1766499021592,-0.93115234,-0.31201172,0.19335938,0.0,-0.4272461,0.0,0.0,0.0,0.0,-58.78784,68.40088,-26.608887
1766499021680,-0.9248047,-0.31152344,0.18896484,-0.12207031,0.91552734,-0.36621094,0.0,0.0,0.0,-58.78784,68.40088,-26.608887
1766499021691,-0.9248047,-0.31152344,0.18896484,-0.12207031,0.91552734,-0.36621094,0.0,0.0,0.0,-58.760376,68.38989,-26.537476
1766499021779,-0.9321289,-0.3178711,0.18457031,0.36621094,0.36621094,0.0,0.0,0.0,0.0,-58.760376,68.38989,-26.537476
1766499021791,-0.9321289,-0.3178711,0.18457031,0.36621094,0.36621094,0.0,0.0,0.0,0.0,-58.754883,68.3844,-26.537476
1766499021879,-0.9267578,-0.31201172,0.19335938,-0.061035156,-0.30517578,0.061035156,0.0,0.0,0.0,-58.754883,68.3844,-26.537476
1766499021891,-0.9267578,-0.31201172,0.19335938,-0.061035156,-0.30517578,0.061035156,0.0,0.0,0.0,-58.73291,68.35693,-26.49353
1766499021979,-0.9326172,-0.3154297,0.18847656,0.0,0.0,-0.12207031,0.0,0.0,0.0,-58.73291,68.35693,-26.49353
1766499021991,-0.9326172,-0.3154297,0.18847656,0.0,0.0,-0.12207031,0.0,0.0,0.0,-58.666992,68.34595,-26.416626
1766499022079,-0.9277344,-0.31445312,0.18896484,-0.12207031,0.0,0.18310547,0.0,0.0,0.0,-58.666992,68.34595,-26.416626
1766499022090,-0.9277344,-0.31445312,0.18896484,-0.12207031,0.0,0.18310547,0.0,0.0,0.0,-58.68347,68.340454,-26.416626
1766499022178,-0.92871094,-0.31445312,0.19140625,0.18310547,-0.061035156,0.18310547,0.0,0.0,0.0,-58.68347,68.340454,-26.416626
1766499022190,-0.92871094,-0.31445312,0.19140625,0.18310547,-0.061035156,0.18310547,0.0,0.0,0.0,-58.639526,68.33496,-26.361694
1766499022278,-0.93066406,-0.31445312,0.19091797,0.30517578,-0.18310547,0.24414062,0.0,0.0,0.0,-58.639526,68.33496,-26.361694
1766499022290,-0.93066406,-0.31445312,0.19091797,0.30517578,-0.18310547,0.24414062,0.0,0.0,0.0,-58.551636,68.323975,-26.246338
1766499022378,-0.9238281,-0.3154297,0.1875,1.159668,0.61035156,-0.061035156,0.0,0.0,0.0,-58.551636,68.323975,-26.246338
1766499022390,-0.9238281,-0.3154297,0.1875,1.159668,0.61035156,-0.061035156,0.0,0.0,0.0,-58.518677,68.32947,-26.213379
1766499022477,-0.9370117,-0.31884766,0.18164062,0.0,-0.30517578,0.4272461,0.0,0.0,0.0,-58.518677,68.32947,-26.213379
1766499022489,-0.9370117,-0.31884766,0.18164062,0.0,-0.30517578,0.4272461,0.0,0.0,0.0,-58.397827,68.323975,-26.103516
1766499022577,-0.9277344,-0.31152344,0.1928711,0.36621094,0.12207031,0.12207031,0.0,0.0,0.0,-58.397827,68.323975,-26.103516
1766499022589,-0.9277344,-0.31152344,0.1928711,0.36621094,0.12207031,0.12207031,0.0,0.0,0.0,-58.485718,68.35693,-26.169434
1766499022677,-0.92822266,-0.31201172,0.1899414,-0.30517578,0.0,0.061035156,0.0,0.0,0.0,-58.485718,68.35693,-26.169434
1766499022688,-0.92822266,-0.31201172,0.1899414,-0.30517578,0.0,0.061035156,0.0,0.0,0.0,-58.45276,68.35144,-26.141968
1766499022777,-0.93408203,-0.31640625,0.18457031,0.18310547,-0.18310547,0.12207031,0.0,0.0,0.0,-58.45276,68.35144,-26.141968
1766499022788,-0.93408203,-0.31640625,0.18457031,0.18310547,-0.18310547,0.12207031,0.0,0.0,0.0,-58.425293,68.35144,-26.103516
1766499022876,-0.93115234,-0.31396484,0.19091797,0.24414062,0.79345703,-0.18310547,0.0,0.0,0.0,-58.425293,68.35144,-26.103516
1766499022888,-0.93115234,-0.31396484,0.19091797,0.24414062,0.79345703,-0.18310547,0.0,0.0,0.0,-58.50769,68.36243,-26.1969
1766499022976,-0.93115234,-0.31445312,0.18798828,-0.12207031,0.30517578,0.0,0.0,0.0,0.0,-58.50769,68.36243,-26.1969
1766499022988,-0.93115234,-0.31445312,0.18798828,-0.12207031,0.30517578,0.0,0.0,0.0,0.0,-58.590088,68.37341,-26.262817
1766499023076,-0.92871094,-0.3149414,0.1899414,-0.4272461,0.061035156,0.0,0.0,0.0,0.0,-58.590088,68.37341,-26.262817
1766499023087,-0.92871094,-0.3149414,0.1899414,-0.4272461,0.061035156,0.0,0.0,0.0,0.0,-58.672485,68.3844,-26.339722
1766499023176,-0.9277344,-0.31103516,0.18554688,-0.79345703,0.12207031,0.0,0.0,0.0,0.0,-58.672485,68.3844,-26.339722
1766499023187,-0.9277344,-0.31103516,0.18554688,-0.79345703,0.12207031,0.0,0.0,0.0,0.0,-58.69995,68.37891,-26.350708
1766499023275,-0.9199219,-0.31591797,0.17382812,0.36621094,7.6293945,-1.5869141,0.0,0.0,0.0,-58.69995,68.37891,-26.350708
1766499023287,-0.9199219,-0.31591797,0.17382812,0.36621094,7.6293945,-1.5869141,0.0,0.0,0.0,-59.815063,68.56018,-27.416382
1766499023375,-0.9291992,-0.31201172,0.17285156,-0.79345703,-1.8920898,0.24414062,0.0,0.0,0.0,-59.815063,68.56018,-27.416382
1766499023387,-0.9291992,-0.31201172,0.17285156,-0.79345703,-1.8920898,0.24414062,0.0,0.0,0.0,-59.96338,68.516235,-27.57019
1766499023475,-0.9291992,-0.32177734,0.18115234,-0.36621094,-2.0751953,1.2207031,0.0,0.0,0.0,-59.96338,68.516235,-27.57019
1766499023487,-0.9291992,-0.32177734,0.18115234,-0.36621094,-2.0751953,1.2207031,0.0,0.0,0.0,-59.60083,68.53821,-27.262573
1766499023575,-0.93408203,-0.3154297,0.17626953,-1.4038086,-0.12207031,0.48828125,0.0,0.0,0.0,-59.60083,68.53821,-27.262573
1766499023586,-0.93408203,-0.3154297,0.17626953,-1.4038086,-0.12207031,0.48828125,0.0,0.0,0.0,-59.44153,68.565674,-26.965942
1766499023675,-0.9321289,-0.3125,0.18017578,0.48828125,-0.18310547,0.4272461,0.0,0.0,0.0,-59.44153,68.565674,-26.965942
1766499023686,-0.9321289,-0.3125,0.18017578,0.48828125,-0.18310547,0.4272461,0.0,0.0,0.0,-59.5459,68.604126,-27.070312
1766499023774,-0.93066406,-0.31396484,0.18408203,0.18310547,-0.061035156,0.12207031,0.0,0.0,0.0,-59.5459,68.604126,-27.070312
1766499023786,-0.93066406,-0.31396484,0.18408203,0.18310547,-0.061035156,0.12207031,0.0,0.0,0.0,-59.51294,68.60962,-27.075806
1766499023874,-0.93310547,-0.31152344,0.18164062,0.30517578,-0.36621094,0.061035156,0.0,0.0,0.0,-59.51294,68.60962,-27.075806
1766499023886,-0.93310547,-0.31152344,0.18164062,0.30517578,-0.36621094,0.061035156,0.0,0.0,0.0,-59.370117,68.604126,-26.91101
1766499023973,-0.9321289,-0.31396484,0.18554688,-0.061035156,-0.24414062,0.12207031,0.0,0.0,0.0,-59.370117,68.604126,-26.91101
1766499023985,-0.9321289,-0.31396484,0.18554688,-0.061035156,-0.24414062,0.12207031,0.0,0.0,0.0,-59.25476,68.58215,-26.812134
1766499024073,-0.9326172,-0.31152344,0.18603516,-0.36621094,0.18310547,0.12207031,0.0,0.0,0.0,-59.25476,68.58215,-26.812134
1766499024085,-0.9326172,-0.31152344,0.18603516,-0.36621094,0.18310547,0.12207031,0.0,0.0,0.0,-59.177856,68.58765,-26.724243
1766499024173,-0.9345703,-0.31396484,0.18798828,0.12207031,-0.5493164,-0.061035156,0.0,0.0,0.0,-59.177856,68.58765,-26.724243
1766499024185,-0.9345703,-0.31396484,0.18798828,0.12207031,-0.5493164,-0.061035156,0.0,0.0,0.0,-59.210815,68.58765,-26.801147
1766499024273,-0.92578125,-0.30859375,0.19091797,-0.48828125,0.61035156,0.0,0.0,0.0,0.0,-59.210815,68.58765,-26.801147
1766499024284,-0.92578125,-0.30859375,0.19091797,-0.48828125,0.61035156,0.0,0.0,0.0,0.0,-59.21631,68.58215,-26.790161
1766499024372,-0.9345703,-0.31396484,0.18261719,0.12207031,-0.061035156,0.0,0.0,0.0,0.0,-59.21631,68.58215,-26.790161
1766499024384,-0.9345703,-0.31396484,0.18261719,0.12207031,-0.061035156,0.0,0.0,0.0,0.0,-59.161377,68.57666,-26.773682
1766499024472,-0.9321289,-0.31201172,0.1875,-0.48828125,-0.4272461,0.48828125,0.0,0.0,0.0,-59.161377,68.57666,-26.773682
1766499024484,-0.9321289,-0.31201172,0.1875,-0.48828125,-0.4272461,0.48828125,0.0,0.0,0.0,-59.128418,68.58215,-26.73523
1766499024572,-0.93408203,-0.31445312,0.18115234,0.48828125,0.5493164,-0.24414062,0.0,0.0,0.0,-59.128418,68.58215,-26.73523
1766499024584,-0.93408203,-0.31445312,0.18115234,0.48828125,0.5493164,-0.24414062,0.0,0.0,0.0,-59.09546,68.58765,-26.73523
1766499024672,-0.9321289,-0.31201172,0.1821289,0.5493164,-0.30517578,0.0,0.0,0.0,0.0,-59.09546,68.58765,-26.73523
1766499024683,-0.9321289,-0.31201172,0.1821289,0.5493164,-0.30517578,0.0,0.0,0.0,0.0,-59.067993,68.56018,-26.762695
1766499024771,-0.9296875,-0.31396484,0.18652344,0.4272461,-0.24414062,0.0,0.0,0.0,0.0,-59.067993,68.56018,-26.762695
1766499024783,-0.9296875,-0.31396484,0.18652344,0.4272461,-0.24414062,0.0,0.0,0.0,0.0,-58.97461,68.53821,-26.707764
1766499024871,-0.93310547,-0.3125,0.18652344,0.36621094,0.0,0.0,0.0,0.0,0.0,-58.97461,68.53821,-26.707764
1766499024883,-0.93310547,-0.3125,0.18652344,0.36621094,0.0,0.0,0.0,0.0,0.0,-58.919678,68.52173,-26.669312
1766499024971,-0.92578125,-0.31347656,0.1875,1.0375977,0.24414062,-0.36621094,0.0,0.0,0.0,-58.919678,68.52173,-26.669312
1766499024982,-0.92578125,-0.31347656,0.1875,1.0375977,0.24414062,-0.36621094,0.0,0.0,0.0,-58.919678,68.51074,-26.669312
1766499025071,-0.9379883,-0.3178711,0.18408203,-0.18310547,-0.6713867,0.36621094,0.0,0.0,0.0,-58.919678,68.51074,-26.669312
1766499025082,-0.9379883,-0.3178711,0.18408203,-0.18310547,-0.6713867,0.36621094,0.0,0.0,0.0,-58.79883,68.47778,-26.553955
1766499025170,-0.9272461,-0.31152344,0.19189453,0.18310547,-0.24414062,0.12207031,0.0,0.0,0.0,-58.79883,68.47778,-26.553955
1766499025182,-0.9272461,-0.31152344,0.19189453,0.18310547,-0.24414062,0.12207031,0.0,0.0,0.0,-58.842773,68.48328,-26.559448
1766499025270,-0.9316406,-0.3149414,0.1875,0.30517578,-0.18310547,-0.24414062,0.0,0.0,0.0,-58.842773,68.48328,-26.559448
1766499025281,-0.9316406,-0.3149414,0.1875,0.30517578,-0.18310547,-0.24414062,0.0,0.0,0.0,-58.776855,68.4668,-26.515503
1766499025370,-0.9326172,-0.31396484,0.18701172,0.061035156,-0.48828125,0.24414062,0.0,0.0,0.0,-58.776855,68.4668,-26.515503
1766499025381,-0.9326172,-0.31396484,0.18701172,0.061035156,-0.48828125,0.24414062,0.0,0.0,0.0,-58.639526,68.43933,-26.339722
1766499025469,-0.9296875,-0.31396484,0.18896484,-0.24414062,-0.30517578,0.0,0.0,0.0,0.0,-58.639526,68.43933,-26.339722
1766499025481,-0.9296875,-0.31396484,0.18896484,-0.24414062,-0.30517578,0.0,0.0,0.0,0.0,-58.59558,68.428345,-26.28479
1766499025569,-0.9296875,-0.3125,0.18847656,0.0,-0.061035156,0.0,0.0,0.0,0.0,-58.59558,68.428345,-26.28479
1766499025581,-0.9296875,-0.3125,0.18847656,0.0,-0.061035156,0.0,0.0,0.0,0.0,-58.584595,68.41736,-26.26831
1766499025669,-0.92626953,-0.31103516,0.19189453,-0.36621094,-0.061035156,0.0,0.0,0.0,0.0,-58.584595,68.41736,-26.26831
1766499025681,-0.92626953,-0.31103516,0.19189453,-0.36621094,-0.061035156,0.0,0.0,0.0,0.0,-58.551636,68.40637,-26.224365
1766499025769,-0.93115234,-0.31298828,0.18798828,0.061035156,0.24414062,0.061035156,0.0,0.0,0.0,-58.551636,68.40637,-26.224365
1766499025781,-0.93115234,-0.31298828,0.18798828,0.061035156,0.24414062,0.061035156,0.0,0.0,0.0,-58.535156,68.41736,-26.185913
1766499025868,-0.92626953,-0.3100586,0.18798828,0.24414062,0.30517578,0.061035156,0.0,0.0,0.0,-58.535156,68.41736,-26.185913
1766499025880,-0.92626953,-0.3100586,0.18798828,0.24414062,0.30517578,0.061035156,0.0,0.0,0.0,-58.55713,68.428345,-26.229858
1766499025968,-0.9296875,-0.31445312,0.17773438,-0.30517578,-0.24414062,0.36621094,0.0,0.0,0.0,-58.55713,68.428345,-26.229858
1766499025980,-0.9296875,-0.31445312,0.17773438,-0.30517578,-0.24414062,0.36621094,0.0,0.0,0.0,-58.392334,68.41736,-26.026611
1766499026068,-0.93408203,-0.31152344,0.18798828,0.61035156,0.061035156,0.0,0.0,0.0,0.0,-58.392334,68.41736,-26.026611
1766499026079,-0.93408203,-0.31152344,0.18798828,0.61035156,0.061035156,0.0,0.0,0.0,0.0,-58.38684,68.43384,-26.004639
1766499026168,-0.92626953,-0.31054688,0.1928711,-0.24414062,0.18310547,0.12207031,0.0,0.0,0.0,-58.38684,68.43384,-26.004639
1766499026179,-0.92626953,-0.31054688,0.1928711,-0.24414062,0.18310547,0.12207031,0.0,0.0,0.0,-58.441772,68.444824,-26.081543
1766499026267,-0.93310547,-0.31396484,0.18261719,-0.18310547,0.0,0.30517578,0.0,0.0,0.0,-58.441772,68.444824,-26.081543
1766499026279,-0.93310547,-0.31396484,0.18261719,-0.18310547,0.0,0.30517578,0.0,0.0,0.0,-58.408813,68.45581,-26.021118
1766499026367,-0.9296875,-0.31103516,0.18847656,0.12207031,0.30517578,0.36621094,0.0,0.0,0.0,-58.408813,68.45581,-26.021118
1766499026379,-0.9296875,-0.31103516,0.18847656,0.12207031,0.30517578,0.36621094,0.0,0.0,0.0,-58.463745,68.49426,-26.04309
1766499026467,-0.93066406,-0.31347656,0.18945312,0.8544922,0.6713867,-0.36621094,0.0,0.0,0.0,-58.463745,68.49426,-26.04309
1766499026479,-0.93066406,-0.31347656,0.18945312,0.8544922,0.6713867,-0.36621094,0.0,0.0,0.0,-58.535156,68.49426,-26.174927
1766499026566,-0.93066406,-0.31152344,0.18896484,-0.5493164,-0.12207031,0.4272461,0.0,0.0,0.0,-58.535156,68.49426,-26.174927
1766499026578,-0.93066406,-0.31152344,0.18896484,-0.5493164,-0.12207031,0.4272461,0.0,0.0,0.0,-58.529663,68.50525,-26.169434
1766499026666,-0.93310547,-0.31347656,0.1821289,0.0,-0.24414062,0.36621094,0.0,0.0,0.0,-58.529663,68.50525,-26.169434
1766499026678,-0.93310547,-0.31347656,0.1821289,0.0,-0.24414062,0.36621094,0.0,0.0,0.0,-58.502197,68.532715,-26.202393
1766499026766,-0.92626953,-0.3095703,0.18896484,0.4272461,1.4648438,-0.30517578,0.0,0.0,0.0,-58.502197,68.532715,-26.202393
1766499026777,-0.92626953,-0.3095703,0.18896484,0.4272461,1.4648438,-0.30517578,0.0,0.0,0.0,-58.606567,68.565674,-26.328735
1766499026866,-0.93066406,-0.3100586,0.18066406,-0.91552734,-0.30517578,0.30517578,0.0,0.0,0.0,-58.606567,68.565674,-26.328735
1766499026877,-0.93066406,-0.3100586,0.18066406,-0.91552734,-0.30517578,0.30517578,0.0,0.0,0.0,-58.590088,68.55469,-26.328735
1766499026965,-0.93066406,-0.3125,0.18359375,1.4648438,0.36621094,-0.36621094,0.0,0.0,0.0,-58.590088,68.55469,-26.328735
1766499026977,-0.93066406,-0.3125,0.18359375,1.4648438,0.36621094,-0.36621094,0.0,0.0,0.0,-58.568115,68.56018,-26.367188
1766499027065,-0.92822266,-0.3100586,0.18847656,-0.30517578,-0.79345703,0.0,0.0,0.0,0.0,-58.568115,68.56018,-26.367188
1766499027077,-0.92822266,-0.3100586,0.18847656,-0.30517578,-0.79345703,0.0,0.0,0.0,0.0,-58.650513,68.5437,-26.542969
1766499027165,-0.9350586,-0.3095703,0.18359375,0.61035156,0.36621094,0.4272461,0.0,0.0,0.0,-58.650513,68.5437,-26.542969
1766499027177,-0.9350586,-0.3095703,0.18359375,0.61035156,0.36621094,0.4272461,0.0,0.0,0.0,-58.529663,68.5437,-26.40564
1766499027265,-0.9296875,-0.3149414,0.1875,0.24414062,0.36621094,0.0,0.0,0.0,0.0,-58.529663,68.5437,-26.40564
1766499027276,-0.9296875,-0.3149414,0.1875,0.24414062,0.36621094,0.0,0.0,0.0,0.0,-58.546143,68.58765,-26.466064
1766499027364,-0.93066406,-0.31201172,0.18798828,0.12207031,-0.24414062,-0.061035156,0.0,0.0,0.0,-58.546143,68.58765,-26.466064
1766499027376,-0.93066406,-0.31201172,0.18798828,0.12207031,-0.24414062,-0.061035156,0.0,0.0,0.0,-58.513184,68.565674,-26.455078
1766499027464,-0.9316406,-0.31152344,0.1875,0.0,0.0,0.12207031,0.0,0.0,0.0,-58.513184,68.565674,-26.455078
1766499027476,-0.9316406,-0.31152344,0.1875,0.0,0.0,0.12207031,0.0,0.0,0.0,-58.46924,68.549194,-26.438599
1766499027564,-0.9375,-0.3095703,0.18066406,-0.36621094,0.12207031,0.30517578,0.0,0.0,0.0,-58.46924,68.549194,-26.438599
1766499027575,-0.9375,-0.3095703,0.18066406,-0.36621094,0.12207031,0.30517578,0.0,0.0,0.0,-58.513184,68.565674,-26.466064
1766499027664,-0.9291992,-0.31054688,0.18310547,0.61035156,1.0986328,0.12207031,0.0,0.0,0.0,-58.513184,68.565674,-26.466064
1766499027675,-0.9291992,-0.31054688,0.18310547,0.61035156,1.0986328,0.12207031,0.0,0.0,0.0,-58.64502,68.6261,-26.575928
1766499027763,-0.93359375,-0.3095703,0.18017578,-0.9765625,-0.48828125,0.7324219,0.0,0.0,0.0,-58.64502,68.6261,-26.575928
1766499027775,-0.93359375,-0.3095703,0.18017578,-0.9765625,-0.48828125,0.7324219,0.0,0.0,0.0,-58.601074,68.64807,-26.455078
1766499027863,-0.9321289,-0.3125,0.18017578,0.5493164,0.5493164,0.061035156,0.0,0.0,0.0,-58.601074,68.64807,-26.455078
1766499027874,-0.9321289,-0.3125,0.18017578,0.5493164,0.5493164,0.061035156,0.0,0.0,0.0,-58.705444,68.69751,-26.559448
1766499027963,-0.9291992,-0.30908203,0.18603516,0.061035156,-0.12207031,-0.36621094,0.0,0.0,0.0,-58.705444,68.69751,-26.559448
1766499027974,-0.9291992,-0.30908203,0.18603516,0.061035156,-0.12207031,-0.36621094,0.0,0.0,0.0,-58.793335,68.66455,-26.663818
1766499028062,-0.9355469,-0.31103516,0.18164062,0.5493164,0.0,-0.18310547,0.0,0.0,0.0,-58.793335,68.66455,-26.663818
1766499028074,-0.9355469,-0.31103516,0.18164062,0.5493164,0.0,-0.18310547,0.0,0.0,0.0,-58.793335,68.653564,-26.680298
1766499028162,-0.93115234,-0.31103516,0.18701172,-0.18310547,0.0,0.0,0.0,0.0,0.0,-58.793335,68.653564,-26.680298
1766499028174,-0.93115234,-0.31103516,0.18701172,-0.18310547,0.0,0.0,0.0,0.0,0.0,-58.809814,68.637085,-26.70227
1766499028262,-0.9296875,-0.31054688,0.19091797,0.12207031,-0.48828125,0.0,0.0,0.0,0.0,-58.809814,68.637085,-26.70227
1766499028274,-0.9296875,-0.31054688,0.19091797,0.12207031,-0.48828125,0.0,0.0,0.0,0.0,-58.760376,68.6261,-26.636353
1766499028362,-0.9321289,-0.3154297,0.18701172,0.5493164,0.0,-0.48828125,0.0,0.0,0.0,-58.760376,68.6261,-26.636353
1766499028373,-0.9321289,-0.3154297,0.18701172,0.5493164,0.0,-0.48828125,0.0,0.0,0.0,-58.688965,68.57666,-26.608887
1766499028461,-0.93359375,-0.31103516,0.18164062,0.18310547,-0.061035156,-0.61035156,0.0,0.0,0.0,-58.688965,68.57666,-26.608887
1766499028473,-0.93359375,-0.31103516,0.18164062,0.18310547,-0.061035156,-0.61035156,0.0,0.0,0.0,-58.672485,68.499756,-26.61438
1766499028561,-0.93115234,-0.30419922,0.1875,0.30517578,-0.061035156,0.24414062,0.0,0.0,0.0,-58.672485,68.499756,-26.61438
1766499028573,-0.93115234,-0.30419922,0.1875,0.30517578,-0.061035156,0.24414062,0.0,0.0,0.0,-58.721924,68.51074,-26.70227
1766499028661,-0.9248047,-0.3149414,0.18310547,-0.12207031,0.48828125,0.18310547,0.0,0.0,0.0,-58.721924,68.51074,-26.70227
1766499028672,-0.9248047,-0.3149414,0.18310547,-0.12207031,0.48828125,0.18310547,0.0,0.0,0.0,-58.623047,68.532715,-26.592407
1766499028761,-0.9321289,-0.31396484,0.18457031,0.4272461,0.18310547,-0.36621094,0.0,0.0,0.0,-58.623047,68.532715,-26.592407
1766499028772,-0.9321289,-0.31396484,0.18457031,0.4272461,0.18310547,-0.36621094,0.0,0.0,0.0,-58.584595,68.516235,-26.51001
1766499028860,-0.9243164,-0.3100586,0.19238281,-0.36621094,-0.8544922,-0.24414062,0.0,0.0,0.0,-58.584595,68.516235,-26.51001
1766499028872,-0.9243164,-0.3100586,0.19238281,-0.36621094,-0.8544922,-0.24414062,0.0,0.0,0.0,-58.623047,68.45032,-26.548462
1766499028960,-0.93066406,-0.3125,0.18603516,0.0,-0.12207031,0.24414062,0.0,0.0,0.0,-58.623047,68.45032,-26.548462
1766499028972,-0.93066406,-0.3125,0.18603516,0.0,-0.12207031,0.24414062,0.0,0.0,0.0,-58.55713,68.43384,-26.482544
1766499029060,-0.9296875,-0.31298828,0.1875,0.4272461,0.18310547,0.36621094,0.0,0.0,0.0,-58.55713,68.43384,-26.482544
1766499029072,-0.9296875,-0.31298828,0.1875,0.4272461,0.18310547,0.36621094,0.0,0.0,0.0,-58.45276,68.45581,-26.378174
1766499029159,-0.93115234,-0.31298828,0.18847656,-0.061035156,-0.24414062,0.12207031,0.0,0.0,0.0,-58.45276,68.45581,-26.378174
1766499029171,-0.93115234,-0.31298828,0.18847656,-0.061035156,-0.24414062,0.12207031,0.0,0.0,0.0,-58.36487,68.45581,-26.262817
1766499029259,-0.9296875,-0.31152344,0.18896484,0.36621094,0.061035156,0.0,0.0,0.0,0.0,-58.36487,68.45581,-26.262817
1766499029271,-0.9296875,-0.31152344,0.18896484,0.36621094,0.061035156,0.0,0.0,0.0,0.0,-58.309937,68.444824,-26.185913
1766499029364,-0.9301758,-0.31152344,0.1899414,0.36621094,0.0,0.0,0.0,0.0,0.0,-58.309937,68.444824,-26.185913
1766499029370,-0.9301758,-0.31152344,0.1899414,0.36621094,0.0,0.0,0.0,0.0,0.0,-58.271484,68.43933,-26.152954
1766499029459,-0.9355469,-0.31445312,0.1928711,0.0,-0.9765625,0.48828125,0.0,0.0,0.0,-58.271484,68.43933,-26.152954
1766499029470,-0.9355469,-0.31445312,0.1928711,0.0,-0.9765625,0.48828125,0.0,0.0,0.0,-58.200073,68.43933,-26.114502
1766499029558,-0.9272461,-0.30810547,0.1977539,0.4272461,0.6713867,0.12207031,0.0,0.0,0.0,-58.200073,68.43933,-26.114502
1766499029570,-0.9272461,-0.30810547,0.1977539,0.4272461,0.6713867,0.12207031,0.0,0.0,0.0,-58.172607,68.45581,-26.054077
1766499029658,-0.93310547,-0.31445312,0.1875,0.18310547,0.18310547,-0.12207031,0.0,0.0,0.0,-58.172607,68.45581,-26.054077
1766499029670,-0.93310547,-0.31445312,0.1875,0.18310547,0.18310547,-0.12207031,0.0,0.0,0.0,-58.1781,68.45581,-26.103516
1766499029758,-0.93115234,-0.3095703,0.1928711,0.18310547,-0.18310547,0.24414062,0.0,0.0,0.0,-58.1781,68.45581,-26.103516
1766499029770,-0.93115234,-0.3095703,0.1928711,0.18310547,-0.18310547,0.24414062,0.0,0.0,0.0,-58.150635,68.45581,-26.070557
1766499029858,-0.93115234,-0.31152344,0.19042969,0.30517578,0.61035156,-0.061035156,0.0,0.0,0.0,-58.150635,68.45581,-26.070557
1766499029869,-0.93115234,-0.31152344,0.19042969,0.30517578,0.61035156,-0.061035156,0.0,0.0,0.0,-58.09021,68.4613,-26.015625
1766499029957,-0.93115234,-0.31152344,0.1899414,0.0,-0.061035156,0.12207031,0.0,0.0,0.0,-58.09021,68.4613,-26.015625
1766499029969,-0.93115234,-0.31152344,0.1899414,0.0,-0.061035156,0.12207031,0.0,0.0,0.0,-58.117676,68.4668,-26.04309
1766499030057,-0.9296875,-0.31054688,0.19042969,0.0,-0.24414062,0.12207031,0.0,0.0,0.0,-58.117676,68.4668,-26.04309
1766499030069,-0.9296875,-0.31054688,0.19042969,0.0,-0.24414062,0.12207031,0.0,0.0,0.0,-58.09021,68.4613,-25.993652
1766499030157,-0.9345703,-0.3095703,0.18847656,0.36621094,0.12207031,0.0,0.0,0.0,0.0,-58.09021,68.4613,-25.993652
1766499030168,-0.9345703,-0.3095703,0.18847656,0.36621094,0.12207031,0.0,0.0,0.0,0.0,-58.051758,68.45581,-25.933228
1766499030257,-0.92626953,-0.3154297,0.1875,0.6713867,0.8544922,-0.24414062,0.0,0.0,0.0,-58.051758,68.45581,-25.933228
1766499030268,-0.92626953,-0.3154297,0.1875,0.6713867,0.8544922,-0.24414062,0.0,0.0,0.0,-58.10669,68.4668,-26.010132
1766499030356,-0.93652344,-0.31396484,0.18310547,0.061035156,-0.5493164,0.36621094,0.0,0.0,0.0,-58.10669,68.4668,-26.010132
1766499030368,-0.93652344,-0.31396484,0.18310547,0.061035156,-0.5493164,0.36621094,0.0,0.0,0.0,-58.101196,68.47229,-26.015625
1766499030456,-0.92871094,-0.30859375,0.1928711,0.79345703,0.5493164,0.0,0.0,0.0,0.0,-58.101196,68.47229,-26.015625
1766499030468,-0.92871094,-0.30859375,0.1928711,0.79345703,0.5493164,0.0,0.0,0.0,0.0,-58.1781,68.49426,-26.087036
1766499030556,-0.9291992,-0.3095703,0.18945312,-0.061035156,-0.061035156,0.12207031,0.0,0.0,0.0,-58.1781,68.49426,-26.087036
1766499030567,-0.9291992,-0.3095703,0.18945312,-0.061035156,-0.061035156,0.12207031,0.0,0.0,0.0,-58.172607,68.48877,-26.125488
1766499030655,-0.93408203,-0.31054688,0.18847656,0.0,-0.4272461,0.30517578,0.0,0.0,0.0,-58.172607,68.48877,-26.125488
1766499030667,-0.93408203,-0.31054688,0.18847656,0.0,-0.4272461,0.30517578,0.0,0.0,0.0,-58.084717,68.499756,-25.993652
1766499030755,-0.9291992,-0.31103516,0.19042969,0.18310547,0.48828125,-0.12207031,0.0,0.0,0.0,-58.084717,68.499756,-25.993652
1766499030767,-0.9291992,-0.31103516,0.19042969,0.18310547,0.48828125,-0.12207031,0.0,0.0,0.0,-58.117676,68.50525,-26.04309
1766499030855,-0.9321289,-0.31152344,0.18945312,-0.12207031,0.0,0.12207031,0.0,0.0,0.0,-58.117676,68.50525,-26.04309
1766499030867,-0.9321289,-0.31152344,0.18945312,-0.12207031,0.0,0.12207031,0.0,0.0,0.0,-58.1781,68.51074,-26.103516
1766499030955,-0.93115234,-0.31103516,0.18945312,0.061035156,0.0,0.061035156,0.0,0.0,0.0,-58.1781,68.51074,-26.103516
1766499030966,-0.93115234,-0.31103516,0.18945312,0.061035156,0.0,0.061035156,0.0,0.0,0.0,-58.156128,68.51074,-26.05957
1766499031054,-0.93310547,-0.31054688,0.18652344,0.4272461,0.30517578,0.0,0.0,0.0,0.0,-58.156128,68.51074,-26.05957
1766499031066,-0.93310547,-0.31054688,0.18652344,0.4272461,0.30517578,0.0,0.0,0.0,0.0,-58.16162,68.51074,-26.04309
1766499031154,-0.9272461,-0.31347656,0.18603516,0.91552734,0.7324219,-0.18310547,0.0,0.0,0.0,-58.16162,68.51074,-26.04309
1766499031166,-0.9272461,-0.31347656,0.18603516,0.91552734,0.7324219,-0.18310547,0.0,0.0,0.0,-58.222046,68.52722,-26.098022
1766499031254,-0.93408203,-0.31103516,0.1821289,-0.24414062,-0.6713867,0.36621094,0.0,0.0,0.0,-58.222046,68.52722,-26.098022
1766499031266,-0.93408203,-0.31103516,0.1821289,-0.24414062,-0.6713867,0.36621094,0.0,0.0,0.0,-58.255005,68.52722,-26.136475
1766499031354,-0.9296875,-0.3095703,0.18945312,1.0986328,0.5493164,-0.061035156,0.0,0.0,0.0,-58.255005,68.52722,-26.136475
1766499031365,-0.9296875,-0.3095703,0.18945312,1.0986328,0.5493164,-0.061035156,0.0,0.0,0.0,-58.320923,68.549194,-26.191406
1766499031453,-0.9291992,-0.3076172,0.1899414,-0.18310547,-0.061035156,0.061035156,0.0,0.0,0.0,-58.320923,68.549194,-26.191406
1766499031465,-0.9291992,-0.3076172,0.1899414,-0.18310547,-0.061035156,0.061035156,0.0,0.0,0.0,-58.309937,68.5437,-26.207886
1766499031553,-0.93652344,-0.30908203,0.18847656,-0.061035156,-0.7324219,0.4272461,0.0,0.0,0.0,-58.309937,68.5437,-26.207886
1766499031565,-0.93652344,-0.30908203,0.18847656,-0.061035156,-0.7324219,0.4272461,0.0,0.0,0.0,-58.205566,68.5437,-26.048584
1766499031653,-0.93115234,-0.31396484,0.18701172,0.48828125,0.12207031,-0.24414062,0.0,0.0,0.0,-58.205566,68.5437,-26.048584
1766499031664,-0.93115234,-0.31396484,0.18701172,0.48828125,0.12207031,-0.24414062,0.0,0.0,0.0,-58.156128,68.53821,-26.04309
1766499031753,-0.93115234,-0.31103516,0.18945312,0.61035156,-0.24414062,-0.30517578,0.0,0.0,0.0,-58.156128,68.53821,-26.04309
1766499031764,-0.93115234,-0.31103516,0.18945312,0.61035156,-0.24414062,-0.30517578,0.0,0.0,0.0,-58.128662,68.49426,-26.048584
1766499031853,-0.9301758,-0.31103516,0.19140625,0.30517578,-0.12207031,0.0,0.0,0.0,0.0,-58.128662,68.49426,-26.048584
1766499031864,-0.9301758,-0.31103516,0.19140625,0.30517578,-0.12207031,0.0,0.0,0.0,0.0,-58.0188,68.4668,-25.9552
1766499031952,-0.9316406,-0.31152344,0.19042969,0.0,-0.061035156,0.0,0.0,0.0,0.0,-58.0188,68.4668,-25.9552
1766499031964,-0.9316406,-0.31152344,0.19042969,0.0,-0.061035156,0.0,0.0,0.0,0.0,-57.996826,68.45581,-25.93872
1766499032052,-0.92822266,-0.31152344,0.19384766,0.5493164,0.18310547,-0.18310547,0.0,0.0,0.0,-57.996826,68.45581,-25.93872
1766499032063,-0.92822266,-0.31152344,0.19384766,0.5493164,0.18310547,-0.18310547,0.0,0.0,0.0,-58.024292,68.45581,-25.966187
1766499032152,-0.93652344,-0.3154297,0.19091797,-0.30517578,-0.7324219,0.36621094,0.0,0.0,0.0,-58.024292,68.45581,-25.966187
1766499032163,-0.93652344,-0.3154297,0.19091797,-0.30517578,-0.7324219,0.36621094,0.0,0.0,0.0,-57.958374,68.43384,-25.889282
1766499032251,-0.92626953,-0.30664062,0.1977539,-0.061035156,0.12207031,0.0,0.0,0.0,0.0,-57.958374,68.43384,-25.889282
1766499032263,-0.92626953,-0.30664062,0.1977539,-0.061035156,0.12207031,0.0,0.0,0.0,0.0,-58.03528,68.43933,-25.911255
1766499032351,-0.93310547,-0.31445312,0.19140625,0.061035156,0.0,-0.12207031,0.0,0.0,0.0,-58.03528,68.43933,-25.911255
1766499032363,-0.93310547,-0.31445312,0.19140625,0.061035156,0.0,-0.12207031,0.0,0.0,0.0,-58.00232,68.428345,-25.878296
1766499032451,-0.9316406,-0.3100586,0.19238281,-0.061035156,-0.5493164,0.12207031,0.0,0.0,0.0,-58.00232,68.428345,-25.878296
1766499032462,-0.9316406,-0.3100586,0.19238281,-0.061035156,-0.5493164,0.12207031,0.0,0.0,0.0,-57.91992,68.40637,-25.74646
1766499032550,-0.93066406,-0.31201172,0.19433594,0.0,0.24414062,-0.24414062,0.0,0.0,0.0,-57.91992,68.40637,-25.74646
1766499032562,-0.93066406,-0.31201172,0.19433594,0.0,0.24414062,-0.24414062,0.0,0.0,0.0,-57.95288,68.38989,-25.790405
1766499032650,-0.92822266,-0.31103516,0.1928711,0.30517578,0.30517578,-0.061035156,0.0,0.0,0.0,-57.95288,68.38989,-25.790405
1766499032662,-0.92822266,-0.31103516,0.1928711,0.30517578,0.30517578,-0.061035156,0.0,0.0,0.0,-57.991333,68.3844,-25.83435
1766499032750,-0.92871094,-0.31054688,0.19189453,-0.5493164,-0.6713867,0.12207031,0.0,0.0,0.0,-57.991333,68.3844,-25.83435
1766499032762,-0.92871094,-0.31054688,0.19189453,-0.5493164,-0.6713867,0.12207031,0.0,0.0,0.0,-57.941895,68.36243,-25.76294
1766499032850,-0.9277344,-0.3095703,0.19433594,0.24414062,0.0,0.12207031,0.0,0.0,0.0,-57.941895,68.36243,-25.76294
1766499032861,-0.9277344,-0.3095703,0.19433594,0.24414062,0.0,0.12207031,0.0,0.0,0.0,-57.89795,68.35693,-25.697021
1766499032949,-0.92578125,-0.3095703,0.19189453,0.79345703,0.12207031,0.0,0.0,0.0,0.0,-57.89795,68.35693,-25.697021
1766499032961,-0.92578125,-0.3095703,0.19189453,0.79345703,0.12207031,0.0,0.0,0.0,0.0,-57.81555,68.34595,-25.62561
1766499033049,-0.9321289,-0.31689453,0.18652344,0.5493164,0.12207031,0.0,0.0,0.0,0.0,-57.81555,68.34595,-25.62561
1766499033061,-0.9321289,-0.31689453,0.18652344,0.5493164,0.12207031,0.0,0.0,0.0,0.0,-57.716675,68.323975,-25.565186
1766499033149,-0.9301758,-0.31054688,0.19726562,0.5493164,0.0,0.0,0.0,0.0,0.0,-57.716675,68.323975,-25.565186
1766499033160,-0.9301758,-0.31054688,0.19726562,0.5493164,0.0,0.0,0.0,0.0,0.0,-57.766113,68.33496,-25.647583
1766499033248,-0.92578125,-0.31054688,0.19433594,0.4272461,0.30517578,0.0,0.0,0.0,0.0,-57.766113,68.33496,-25.647583
1766499033260,-0.92578125,-0.31054688,0.19433594,0.4272461,0.30517578,0.0,0.0,0.0,0.0,-57.738647,68.33496,-25.669556
1766499033348,-0.93359375,-0.3125,0.18847656,-0.061035156,-0.30517578,0.30517578,0.0,0.0,0.0,-57.738647,68.33496,-25.669556
1766499033360,-0.93359375,-0.3125,0.18847656,-0.061035156,-0.30517578,0.30517578,0.0,0.0,0.0,-57.63977,68.33496,-25.543213
1766499033448,-0.9291992,-0.31152344,0.1953125,0.18310547,0.12207031,0.061035156,0.0,0.0,0.0,-57.63977,68.33496,-25.543213
1766499033460,-0.9291992,-0.31152344,0.1953125,0.18310547,0.12207031,0.061035156,0.0,0.0,0.0,-57.678223,68.34595,-25.603638
1766499033548,-0.9291992,-0.31054688,0.1953125,0.0,-0.12207031,0.18310547,0.0,0.0,0.0,-57.678223,68.34595,-25.603638
1766499033560,-0.9291992,-0.31054688,0.1953125,0.0,-0.12207031,0.18310547,0.0,0.0,0.0,-57.645264,68.35144,-25.581665
1766499033647,-0.93066406,-0.3100586,0.19335938,-0.12207031,-0.12207031,0.061035156,0.0,0.0,0.0,-57.645264,68.35144,-25.581665
1766499033659,-0.93066406,-0.3100586,0.19335938,-0.12207031,-0.12207031,0.061035156,0.0,0.0,0.0,-57.60132,68.35144,-25.52124
1766499033747,-0.93310547,-0.31152344,0.18945312,0.30517578,0.18310547,0.12207031,0.0,0.0,0.0,-57.60132,68.35144,-25.52124
1766499033759,-0.93310547,-0.31152344,0.18945312,0.30517578,0.18310547,0.12207031,0.0,0.0,0.0,-57.612305,68.35693,-25.565186
1766499033847,-0.9248047,-0.31445312,0.19091797,0.9765625,1.3427734,-0.4272461,0.0,0.0,0.0,-57.612305,68.35693,-25.565186
1766499033859,-0.9248047,-0.31445312,0.19091797,0.9765625,1.3427734,-0.4272461,0.0,0.0,0.0,-57.700195,68.38989,-25.697021
1766499033947,-0.93408203,-0.31298828,0.18310547,-0.36621094,-0.79345703,0.24414062,0.0,0.0,0.0,-57.700195,68.38989,-25.697021
1766499033958,-0.93408203,-0.31298828,0.18310547,-0.36621094,-0.79345703,0.24414062,0.0,0.0,0.0,-57.70569,68.37341,-25.713501
1766499034046,-0.92822266,-0.3071289,0.19384766,0.8544922,0.48828125,0.0,0.0,0.0,0.0,-57.70569,68.37341,-25.713501
1766499034058,-0.92822266,-0.3071289,0.19384766,0.8544922,0.48828125,0.0,0.0,0.0,0.0,-57.7771,68.395386,-25.751953
1766499034146,-0.9277344,-0.30908203,0.19189453,-0.30517578,-0.30517578,0.24414062,0.0,0.0,0.0,-57.7771,68.395386,-25.751953
1766499034158,-0.9277344,-0.30908203,0.19189453,-0.30517578,-0.30517578,0.24414062,0.0,0.0,0.0,-57.788086,68.40637,-25.801392
1766499034246,-0.9350586,-0.31103516,0.18945312,-0.18310547,-0.61035156,0.4272461,0.0,0.0,0.0,-57.788086,68.40637,-25.801392
1766499034257,-0.9350586,-0.31103516,0.18945312,-0.18310547,-0.61035156,0.4272461,0.0,0.0,0.0,-57.722168,68.40637,-25.675049
1766499034346,-0.9272461,-0.31347656,0.19384766,0.30517578,0.48828125,-0.18310547,0.0,0.0,0.0,-57.722168,68.40637,-25.675049
1766499034358,-0.9272461,-0.31347656,0.19384766,0.30517578,0.48828125,-0.18310547,0.0,0.0,0.0,-57.76062,68.42285,-25.751953
1766499034445,-0.9326172,-0.3100586,0.1928711,0.061035156,0.0,0.0,0.0,0.0,0.0,-57.76062,68.42285,-25.751953
1766499034457,-0.9326172,-0.3100586,0.1928711,0.061035156,0.0,0.0,0.0,0.0,0.0,-57.7771,68.41736,-25.768433
1766499034545,-0.9316406,-0.31445312,0.19042969,0.36621094,0.0,0.0,0.0,0.0,0.0,-57.7771,68.41736,-25.768433
1766499034556,-0.9316406,-0.31445312,0.19042969,0.36621094,0.0,0.0,0.0,0.0,0.0,-57.74414,68.41736,-25.76294
1766499034645,-0.9326172,-0.3095703,0.1899414,0.7324219,0.48828125,-0.24414062,0.0,0.0,0.0,-57.74414,68.41736,-25.76294
1766499034656,-0.9326172,-0.3095703,0.1899414,0.7324219,0.48828125,-0.24414062,0.0,0.0,0.0,-57.76062,68.40637,-25.790405
1766499034745,-0.9267578,-0.31396484,0.1875,0.61035156,0.4272461,-0.30517578,0.0,0.0,0.0,-57.76062,68.40637,-25.790405
1766499034756,-0.9267578,-0.31396484,0.1875,0.61035156,0.4272461,-0.30517578,0.0,0.0,0.0,-57.79358,68.40088,-25.856323
1766499034844,-0.93408203,-0.31347656,0.18554688,-0.18310547,-0.24414062,0.30517578,0.0,0.0,0.0,-57.79358,68.40088,-25.856323
1766499034856,-0.93408203,-0.31347656,0.18554688,-0.18310547,-0.24414062,0.30517578,0.0,0.0,0.0,-57.755127,68.38989,-25.806885
1766499034944,-0.9291992,-0.31201172,0.19238281,0.7324219,0.4272461,-0.18310547,0.0,0.0,0.0,-57.755127,68.38989,-25.806885
1766499034956,-0.9291992,-0.31201172,0.19238281,0.7324219,0.4272461,-0.18310547,0.0,0.0,0.0,-57.88147,68.40637,-25.916748
1766499035044,-0.9267578,-0.30859375,0.19238281,-0.061035156,0.061035156,0.0,0.0,0.0,0.0,-57.88147,68.40637,-25.916748
1766499035055,-0.9267578,-0.30859375,0.19238281,-0.061035156,0.061035156,0.0,0.0,0.0,0.0,-57.9364,68.40088,-25.977173
1766499035143,-0.93603516,-0.3125,0.18847656,0.30517578,-0.061035156,0.0,0.0,0.0,0.0,-57.9364,68.40088,-25.977173
1766499035155,-0.93603516,-0.3125,0.18847656,0.30517578,-0.061035156,0.0,0.0,0.0,0.0,-57.875977,68.395386,-25.894775
1766499035243,-0.93115234,-0.3154297,0.19189453,-0.9765625,-0.61035156,0.0,0.0,0.0,0.0,-57.875977,68.395386,-25.894775
1766499035255,-0.93115234,-0.3154297,0.19189453,-0.9765625,-0.61035156,0.0,0.0,0.0,0.0,-57.958374,68.395386,-25.993652
1766499035343,-0.9277344,-0.31054688,0.19433594,0.79345703,1.0986328,-0.18310547,0.0,0.0,0.0,-57.958374,68.395386,-25.993652
1766499035355,-0.9277344,-0.31054688,0.19433594,0.79345703,1.0986328,-0.18310547,0.0,0.0,0.0,-57.991333,68.395386,-25.98816
1766499035443,-0.92871094,-0.3125,0.19335938,-0.4272461,-0.24414062,0.0,0.0,0.0,0.0,-57.991333,68.395386,-25.98816
1766499035454,-0.92871094,-0.3125,0.19335938,-0.4272461,-0.24414062,0.0,0.0,0.0,0.0,-58.007812,68.3844,-25.993652
1766499035542,-0.9301758,-0.31201172,0.19091797,-0.30517578,-0.24414062,0.061035156,0.0,0.0,0.0,-58.007812,68.3844,-25.993652
1766499035554,-0.9301758,-0.31201172,0.19091797,-0.30517578,-0.24414062,0.061035156,0.0,0.0,0.0,-57.98584,68.36792,-25.927734
1766499035642,-0.92822266,-0.30810547,0.19580078,-0.18310547,-0.6713867,0.0,0.0,0.0,0.0,-57.98584,68.36792,-25.927734
1766499035654,-0.92822266,-0.30810547,0.19580078,-0.18310547,-0.6713867,0.0,0.0,0.0,0.0,-57.996826,68.35693,-25.9552
1766499035742,-0.9248047,-0.31054688,0.19238281,0.18310547,0.8544922,0.12207031,0.0,0.0,0.0,-57.996826,68.35693,-25.9552
1766499035754,-0.9248047,-0.31054688,0.19238281,0.18310547,0.8544922,0.12207031,0.0,0.0,0.0,-57.892456,68.35693,-25.795898
1766499035842,-0.9321289,-0.31591797,0.19042969,0.30517578,0.30517578,0.0,0.0,0.0,0.0,-57.892456,68.35693,-25.795898
1766499035853,-0.9321289,-0.31591797,0.19042969,0.30517578,0.30517578,0.0,0.0,0.0,0.0,-57.843018,68.36243,-25.757446
1766499035941,-0.92626953,-0.30859375,0.19482422,0.0,-0.4272461,0.0,0.0,0.0,0.0,-57.843018,68.36243,-25.757446
1766499035953,-0.92626953,-0.30859375,0.19482422,0.0,-0.4272461,0.0,0.0,0.0,0.0,-57.804565,68.34595,-25.708008
1766499036041,-0.93408203,-0.3149414,0.18554688,0.12207031,-0.18310547,0.24414062,0.0,0.0,0.0,-57.804565,68.34595,-25.708008
1766499036053,-0.93408203,-0.3149414,0.18554688,0.12207031,-0.18310547,0.24414062,0.0,0.0,0.0,-57.755127,68.35144,-25.675049
1766499036141,-0.92822266,-0.31103516,0.19335938,0.12207031,0.18310547,0.18310547,0.0,0.0,0.0,-57.755127,68.35144,-25.675049
1766499036152,-0.92822266,-0.31103516,0.19335938,0.12207031,0.18310547,0.18310547,0.0,0.0,0.0,-57.788086,68.35693,-25.72998
1766499036241,-0.92871094,-0.31103516,0.19580078,0.12207031,0.18310547,0.18310547,0.0,0.0,0.0,-57.788086,68.35693,-25.72998
1766499036252,-0.92871094,-0.31103516,0.19580078,0.12207031,0.18310547,0.18310547,0.0,0.0,0.0,-57.804565,68.36792,-25.74646
1766499036340,-0.9296875,-0.31103516,0.19482422,-0.18310547,0.061035156,0.24414062,0.0,0.0,0.0,-57.804565,68.36792,-25.74646
1766499036352,-0.9296875,-0.31103516,0.19482422,-0.18310547,0.061035156,0.24414062,0.0,0.0,0.0,-57.766113,68.3844,-25.686035
1766499036440,-0.9316406,-0.31103516,0.19091797,0.30517578,0.9765625,-0.12207031,0.0,0.0,0.0,-57.766113,68.3844,-25.686035
1766499036452,-0.9316406,-0.31103516,0.19091797,0.30517578,0.9765625,-0.12207031,0.0,0.0,0.0,-57.875977,68.40088,-25.83435
1766499036540,-0.9267578,-0.30810547,0.19628906,0.48828125,1.2817383,-0.18310547,0.0,0.0,0.0,-57.875977,68.40088,-25.83435
1766499036551,-0.9267578,-0.30810547,0.19628906,0.48828125,1.2817383,-0.18310547,0.0,0.0,0.0,-58.10669,68.444824,-26.125488
1766499036640,-0.9296875,-0.3125,0.18359375,-1.2207031,-0.48828125,0.48828125,0.0,0.0,0.0,-58.10669,68.444824,-26.125488
1766499036651,-0.9296875,-0.3125,0.18359375,-1.2207031,-0.48828125,0.48828125,0.0,0.0,0.0,-58.024292,68.43933,-26.021118
1766499036739,-0.9321289,-0.31396484,0.1875,1.0375977,1.3427734,-0.36621094,0.0,0.0,0.0,-58.024292,68.43933,-26.021118
1766499036751,-0.9321289,-0.31396484,0.1875,1.0375977,1.3427734,-0.36621094,0.0,0.0,0.0,-58.24402,68.48328,-26.26831
1766499036839,-0.92626953,-0.31103516,0.19189453,0.12207031,0.0,0.4272461,0.0,0.0,0.0,-58.24402,68.48328,-26.26831
1766499036850,-0.92626953,-0.31103516,0.19189453,0.12207031,0.0,0.4272461,0.0,0.0,0.0,-58.255005,68.49426,-26.279297
1766499036939,-0.9350586,-0.31298828,0.18408203,-0.61035156,-0.061035156,0.48828125,0.0,0.0,0.0,-58.255005,68.49426,-26.279297
1766499036950,-0.9350586,-0.31298828,0.18408203,-0.61035156,-0.061035156,0.48828125,0.0,0.0,0.0,-58.222046,68.53821,-26.185913
1766499037038,-0.93066406,-0.31201172,0.1875,0.24414062,0.6713867,0.0,0.0,0.0,0.0,-58.222046,68.53821,-26.185913
1766499037050,-0.93066406,-0.31201172,0.1875,0.24414062,0.6713867,0.0,0.0,0.0,0.0,-58.381348,68.565674,-26.356201
1766499037138,-0.9321289,-0.3095703,0.1899414,0.24414062,0.12207031,0.18310547,0.0,0.0,0.0,-58.381348,68.565674,-26.356201
1766499037150,-0.9321289,-0.3095703,0.1899414,0.24414062,0.12207031,0.18310547,0.0,0.0,0.0,-58.34839,68.57666,-26.28479
1766499037238,-0.9291992,-0.3100586,0.19140625,-0.30517578,0.0,0.061035156,0.0,0.0,0.0,-58.34839,68.57666,-26.28479
1766499037249,-0.9291992,-0.3100586,0.19140625,-0.30517578,0.0,0.061035156,0.0,0.0,0.0,-58.337402,68.58765,-26.257324
1766499037338,-0.9326172,-0.3076172,0.19189453,-0.36621094,0.18310547,0.061035156,0.0,0.0,0.0,-58.337402,68.58765,-26.257324
1766499037349,-0.9326172,-0.3076172,0.19189453,-0.36621094,0.18310547,0.061035156,0.0,0.0,0.0,-58.342896,68.59314,-26.251831
1766499037437,-0.9345703,-0.31201172,0.19238281,0.12207031,0.0,-0.061035156,0.0,0.0,0.0,-58.342896,68.59314,-26.251831
1766499037449,-0.9345703,-0.31201172,0.19238281,0.12207031,0.0,-0.061035156,0.0,0.0,0.0,-58.4198,68.59314,-26.378174
1766499037537,-0.92871094,-0.30859375,0.19335938,-0.4272461,0.5493164,0.12207031,0.0,0.0,0.0,-58.4198,68.59314,-26.378174
1766499037549,-0.92871094,-0.30859375,0.19335938,-0.4272461,0.5493164,0.12207031,0.0,0.0,0.0,-58.36487,68.59863,-26.26831
1766499037637,-0.93310547,-0.31152344,0.18652344,0.18310547,-0.061035156,0.0,0.0,0.0,0.0,-58.36487,68.59863,-26.26831
1766499037648,-0.93310547,-0.31152344,0.18652344,0.18310547,-0.061035156,0.0,0.0,0.0,0.0,-58.36487,68.604126,-26.290283
1766499037737,-0.9321289,-0.30908203,0.19091797,-0.24414062,-0.5493164,0.48828125,0.0,0.0,0.0,-58.36487,68.604126,-26.290283
1766499037748,-0.9321289,-0.30908203,0.19091797,-0.24414062,-0.5493164,0.48828125,0.0,0.0,0.0,-58.28247,68.604126,-26.191406
1766499037836,-0.9350586,-0.31298828,0.18457031,0.91552734,0.5493164,-0.18310547,0.0,0.0,0.0,-58.28247,68.604126,-26.191406
1766499037848,-0.9350586,-0.31298828,0.18457031,0.91552734,0.5493164,-0.18310547,0.0,0.0,0.0,-58.117676,68.59863,-26.054077
1766499037936,-0.93359375,-0.3100586,0.18603516,0.7324219,0.24414062,-0.61035156,0.0,0.0,0.0,-58.117676,68.59863,-26.054077
1766499037947,-0.93359375,-0.3100586,0.18603516,0.7324219,0.24414062,-0.61035156,0.0,0.0,0.0,-58.172607,68.56018,-26.152954
1766499038036,-0.9296875,-0.31054688,0.1875,0.30517578,0.61035156,-0.18310547,0.0,0.0,0.0,-58.172607,68.56018,-26.152954
1766499038047,-0.9296875,-0.31054688,0.1875,0.30517578,0.61035156,-0.18310547,0.0,0.0,0.0,-58.309937,68.549194,-26.317749
1766499038135,-0.9321289,-0.3095703,0.19042969,-0.79345703,-0.36621094,0.061035156,0.0,0.0,0.0,-58.309937,68.549194,-26.317749
1766499038147,-0.9321289,-0.3095703,0.19042969,-0.79345703,-0.36621094,0.061035156,0.0,0.0,0.0,-58.447266,68.55469,-26.40564
1766499038235,-0.9296875,-0.3076172,0.19628906,1.0986328,4.9438477,-1.6479492,0.0,0.0,0.0,-58.447266,68.55469,-26.40564
1766499038247,-0.9296875,-0.3076172,0.19628906,1.0986328,4.9438477,-1.6479492,0.0,0.0,0.0,-58.62854,68.56018,-26.47705
1766499038335,-0.9370117,-0.31689453,0.17089844,-1.3427734,0.18310547,-0.12207031,0.0,0.0,0.0,-58.62854,68.56018,-26.47705
1766499038347,-0.9370117,-0.31689453,0.17089844,-1.3427734,0.18310547,-0.12207031,0.0,0.0,0.0,-59.540405,68.65906,-27.416382
1766499038435,-0.93115234,-0.31298828,0.18164062,-0.30517578,-0.6713867,0.61035156,0.0,0.0,0.0,-59.540405,68.65906,-27.416382
1766499038446,-0.93115234,-0.31298828,0.18164062,-0.30517578,-0.6713867,0.61035156,0.0,0.0,0.0,-59.55139,68.66455,-27.37793
1766499038535,-0.9316406,-0.31445312,0.18017578,0.7324219,1.0375977,-0.30517578,0.0,0.0,0.0,-59.55139,68.66455,-27.37793
1766499038546,-0.9316406,-0.31445312,0.18017578,0.7324219,1.0375977,-0.30517578,0.0,0.0,0.0,-59.5459,68.67554,-27.34497
1766499038634,-0.93408203,-0.31591797,0.18066406,-0.5493164,1.0986328,-0.18310547,0.0,0.0,0.0,-59.5459,68.67554,-27.34497
1766499038646,-0.93408203,-0.31591797,0.18066406,-0.5493164,1.0986328,-0.18310547,0.0,0.0,0.0,-59.68872,68.703,-27.421875
1766499038734,-0.9350586,-0.31298828,0.1821289,-0.8544922,0.18310547,0.6713867,0.0,0.0,0.0,-59.68872,68.703,-27.421875
1766499038746,-0.9350586,-0.31298828,0.1821289,-0.8544922,0.18310547,0.6713867,0.0,0.0,0.0,-59.91394,68.74695,-27.641602
1766499038834,-0.9350586,-0.31640625,0.16894531,0.36621094,1.5258789,-0.061035156,0.0,0.0,0.0,-59.91394,68.74695,-27.641602
1766499038845,-0.9350586,-0.31640625,0.16894531,0.36621094,1.5258789,-0.061035156,0.0,0.0,0.0,-60.08972,68.774414,-27.81189
1766499038933,-0.9399414,-0.3178711,0.18261719,-0.061035156,0.4272461,0.36621094,0.0,0.0,0.0,-60.08972,68.774414,-27.81189
1766499038945,-0.9399414,-0.3178711,0.18261719,-0.061035156,0.4272461,0.36621094,0.0,0.0,0.0,-60.281982,68.829346,-27.927246
1766499039033,-0.9291992,-0.30908203,0.18310547,-0.79345703,-0.18310547,0.48828125,0.0,0.0,0.0,-60.281982,68.829346,-27.927246
1766499039044,-0.9291992,-0.30908203,0.18310547,-0.79345703,-0.18310547,0.48828125,0.0,0.0,0.0,-60.19409,68.845825,-27.767944
1766499039133,-0.93603516,-0.3154297,0.17773438,-0.6713867,-0.30517578,0.61035156,0.0,0.0,0.0,-60.19409,68.845825,-27.767944
1766499039144,-0.93603516,-0.3154297,0.17773438,-0.6713867,-0.30517578,0.61035156,0.0,0.0,0.0,-60.133667,68.878784,-27.658081
1766499039232,-0.9404297,-0.3100586,0.1743164,1.5869141,-0.48828125,0.0,0.0,0.0,0.0,-60.133667,68.878784,-27.658081
1766499039244,-0.9404297,-0.3100586,0.1743164,1.5869141,-0.48828125,0.0,0.0,0.0,0.0,-60.265503,68.88977,-27.81189
1766499039332,-0.92822266,-0.30908203,0.18798828,1.0375977,0.12207031,0.30517578,0.0,0.0,0.0,-60.265503,68.88977,-27.81189
1766499039344,-0.92822266,-0.30908203,0.18798828,1.0375977,0.12207031,0.30517578,0.0,0.0,0.0,-60.056763,68.90076,-27.614136
1766499039432,-0.93896484,-0.31396484,0.17480469,-0.18310547,-1.5869141,0.79345703,0.0,0.0,0.0,-60.056763,68.90076,-27.614136
1766499039443,-0.93896484,-0.31396484,0.17480469,-0.18310547,-1.5869141,0.79345703,0.0,0.0,0.0,-59.75464,68.89526,-27.399902
1766499039532,-0.93408203,-0.3095703,0.18261719,0.5493164,-0.24414062,0.18310547,0.0,0.0,0.0,-59.75464,68.89526,-27.399902
1766499039543,-0.93408203,-0.3095703,0.18261719,0.5493164,-0.24414062,0.18310547,0.0,0.0,0.0,-59.507446,68.88977,-27.081299
1766499039631,-0.9355469,-0.30908203,0.17480469,0.36621094,-0.48828125,0.12207031,0.0,0.0,0.0,-59.507446,68.88977,-27.081299
1766499039643,-0.9355469,-0.30908203,0.17480469,0.36621094,-0.48828125,0.12207031,0.0,0.0,0.0,-59.32068,68.87329,-26.932983
1766499039731,-0.9321289,-0.3076172,0.1821289,0.061035156,-0.61035156,0.24414062,0.0,0.0,0.0,-59.32068,68.87329,-26.932983
1766499039743,-0.9321289,-0.3076172,0.1821289,0.061035156,-0.61035156,0.24414062,0.0,0.0,0.0,-59.2218,68.862305,-26.817627
1766499039831,-0.9316406,-0.3095703,0.18310547,0.36621094,-0.30517578,0.18310547,0.0,0.0,0.0,-59.2218,68.862305,-26.817627
1766499039843,-0.9316406,-0.3095703,0.18310547,0.36621094,-0.30517578,0.18310547,0.0,0.0,0.0,-59.040527,68.85132,-26.625366
1766499039931,-0.9345703,-0.30908203,0.18310547,0.48828125,-0.18310547,0.0,0.0,0.0,0.0,-59.040527,68.85132,-26.625366
1766499039942,-0.9345703,-0.30908203,0.18310547,0.48828125,-0.18310547,0.0,0.0,0.0,0.0,-58.92517,68.83484,-26.49353
1766499040030,-0.93115234,-0.3100586,0.18261719,0.91552734,0.12207031,0.0,0.0,0.0,0.0,-58.92517,68.83484,-26.49353
1766499040042,-0.93115234,-0.3100586,0.18261719,0.91552734,0.12207031,0.0,0.0,0.0,0.0,-58.88672,68.829346,-26.471558
1766499040130,-0.93652344,-0.31054688,0.18115234,0.4272461,-0.5493164,0.30517578,0.0,0.0,0.0,-58.88672,68.829346,-26.471558
1766499040142,-0.93652344,-0.31054688,0.18115234,0.4272461,-0.5493164,0.30517578,0.0,0.0,0.0,-58.831787,68.80188,-26.460571
1766499040230,-0.93066406,-0.30615234,0.18896484,0.61035156,0.12207031,0.061035156,0.0,0.0,0.0,-58.831787,68.80188,-26.460571
1766499040241,-0.93066406,-0.30615234,0.18896484,0.61035156,0.12207031,0.061035156,0.0,0.0,0.0,-58.771362,68.81836,-26.361694
1766499040329,-0.93359375,-0.31054688,0.1850586,0.0,-0.18310547,0.0,0.0,0.0,0.0,-58.771362,68.81836,-26.361694
1766499040341,-0.93359375,-0.31054688,0.1850586,0.0,-0.18310547,0.0,0.0,0.0,0.0,-58.71643,68.80737,-26.350708
1766499040429,-0.93408203,-0.3076172,0.18554688,-0.12207031,-0.36621094,0.30517578,0.0,0.0,0.0,-58.71643,68.80737,-26.350708
1766499040441,-0.93408203,-0.3076172,0.18554688,-0.12207031,-0.36621094,0.30517578,0.0,0.0,0.0,-58.64502,68.79639,-26.26831
1766499040529,-0.93408203,-0.30908203,0.1821289,0.36621094,0.24414062,0.0,0.0,0.0,0.0,-58.64502,68.79639,-26.26831
1766499040541,-0.93408203,-0.30908203,0.1821289,0.36621094,0.24414062,0.0,0.0,0.0,0.0,-58.606567,68.81287,-26.257324
1766499040629,-0.93359375,-0.30859375,0.18310547,0.24414062,-0.12207031,0.061035156,0.0,0.0,0.0,-58.606567,68.81287,-26.257324
1766499040640,-0.93359375,-0.30859375,0.18310547,0.24414062,-0.12207031,0.061035156,0.0,0.0,0.0,-58.606567,68.80188,-26.273804
1766499040728,-0.9321289,-0.30859375,0.18652344,0.48828125,-0.061035156,0.0,0.0,0.0,0.0,-58.606567,68.80188,-26.273804
1766499040740,-0.9321289,-0.30859375,0.18652344,0.48828125,-0.061035156,0.0,0.0,0.0,0.0,-58.55713,68.79639,-26.257324
1766499040828,-0.9345703,-0.30810547,0.18701172,0.061035156,-0.061035156,0.0,0.0,0.0,0.0,-58.55713,68.79639,-26.257324
1766499040840,-0.9345703,-0.30810547,0.18701172,0.061035156,-0.061035156,0.0,0.0,0.0,0.0,-58.485718,68.77991,-26.169434
1766499040928,-0.9321289,-0.30810547,0.1899414,0.30517578,0.0,-0.061035156,0.0,0.0,0.0,-58.485718,68.77991,-26.169434
1766499040940,-0.9321289,-0.30810547,0.1899414,0.30517578,0.0,-0.061035156,0.0,0.0,0.0,-58.502197,68.76343,-26.207886
1766499041028,-0.94140625,-0.3125,0.1875,-0.8544922,-0.79345703,0.30517578,0.0,0.0,0.0,-58.502197,68.76343,-26.207886
1766499041039,-0.94140625,-0.3125,0.1875,-0.8544922,-0.79345703,0.30517578,0.0,0.0,0.0,-58.46924,68.73596,-26.16394
1766499041128,-0.92578125,-0.30517578,0.18847656,0.061035156,0.4272461,-0.18310547,0.0,0.0,0.0,-58.46924,68.73596,-26.16394
1766499041139,-0.92578125,-0.30517578,0.18847656,0.061035156,0.4272461,-0.18310547,0.0,0.0,0.0,-58.568115,68.73596,-26.235352
1766499041227,-0.9326172,-0.3100586,0.18554688,0.24414062,0.0,-0.61035156,0.0,0.0,0.0,-58.568115,68.73596,-26.235352
1766499041238,-0.9326172,-0.3100586,0.18554688,0.24414062,0.0,-0.61035156,0.0,0.0,0.0,-58.62854,68.708496,-26.312256
1766499041327,-0.9296875,-0.30664062,0.19433594,-0.30517578,-0.061035156,0.0,0.0,0.0,0.0,-58.62854,68.708496,-26.312256
1766499041339,-0.9296875,-0.30664062,0.19433594,-0.30517578,-0.061035156,0.0,0.0,0.0,0.0,-58.584595,68.67554,-26.235352
1766499041426,-0.93310547,-0.3178711,0.18359375,-1.6479492,1.0986328,0.061035156,0.0,0.0,0.0,-58.584595,68.67554,-26.235352
1766499041438,-0.93310547,-0.3178711,0.18359375,-1.6479492,1.0986328,0.061035156,0.0,0.0,0.0,-59.002075,68.703,-26.647339
1766499041526,-0.93359375,-0.30615234,0.18457031,0.18310547,0.0,0.12207031,0.0,0.0,0.0,-59.002075,68.703,-26.647339
1766499041538,-0.93359375,-0.30615234,0.18457031,0.18310547,0.0,0.12207031,0.0,0.0,0.0,-59.067993,68.73596,-26.5979
1766499041626,-0.9316406,-0.31347656,0.1850586,0.4272461,-0.30517578,-0.36621094,0.0,0.0,0.0,-59.067993,68.73596,-26.5979
1766499041637,-0.9316406,-0.31347656,0.1850586,0.4272461,-0.30517578,-0.36621094,0.0,0.0,0.0,-58.969116,68.69202,-26.58142
1766499041726,-0.9375,-0.31103516,0.1821289,-0.061035156,-0.79345703,0.79345703,0.0,0.0,0.0,-58.969116,68.69202,-26.58142
1766499041737,-0.9375,-0.31103516,0.1821289,-0.061035156,-0.79345703,0.79345703,0.0,0.0,0.0,-58.76587,68.67554,-26.367188
1766499041825,-0.9277344,-0.31298828,0.1875,1.6479492,1.0986328,-0.5493164,0.0,0.0,0.0,-58.76587,68.67554,-26.367188
1766499041837,-0.9277344,-0.31298828,0.1875,1.6479492,1.0986328,-0.5493164,0.0,0.0,0.0,-58.727417,68.703,-26.40564
1766499041925,-0.9316406,-0.31396484,0.17236328,-0.5493164,-0.5493164,0.12207031,0.0,0.0,0.0,-58.727417,68.703,-26.40564
1766499041937,-0.9316406,-0.31396484,0.17236328,-0.5493164,-0.5493164,0.12207031,0.0,0.0,0.0,-58.67798,68.64258,-26.400146
1766499042025,-0.93408203,-0.31298828,0.18652344,0.18310547,-0.5493164,0.91552734,0.0,0.0,0.0,-58.67798,68.64258,-26.400146
1766499042036,-0.93408203,-0.31298828,0.18652344,0.18310547,-0.5493164,0.91552734,0.0,0.0,0.0,-58.672485,68.69751,-26.306763
1766499042125,-0.9296875,-0.30615234,0.18896484,-0.12207031,-0.5493164,0.91552734,0.0,0.0,0.0,-58.672485,68.69751,-26.306763
1766499042136,-0.9296875,-0.30615234,0.18896484,-0.12207031,-0.5493164,0.91552734,0.0,0.0,0.0,-58.40332,68.724976,-26.021118
1766499042224,-0.9355469,-0.30664062,0.18359375,0.36621094,0.0,0.061035156,0.0,0.0,0.0,-58.40332,68.724976,-26.021118
1766499042236,-0.9355469,-0.30664062,0.18359375,0.36621094,0.0,0.061035156,0.0,0.0,0.0,-58.293457,68.741455,-25.916748
1766499042324,-0.9296875,-0.30664062,0.18603516,-0.18310547,0.0,0.36621094,0.0,0.0,0.0,-58.293457,68.741455,-25.916748
1766499042335,-0.9296875,-0.30664062,0.18603516,-0.18310547,0.0,0.36621094,0.0,0.0,0.0,-58.293457,68.757935,-25.905762
1766499042424,-0.9370117,-0.30859375,0.18652344,0.18310547,-0.24414062,0.30517578,0.0,0.0,0.0,-58.293457,68.757935,-25.905762
1766499042435,-0.9370117,-0.30859375,0.18652344,0.18310547,-0.24414062,0.30517578,0.0,0.0,0.0,-58.134155,68.76892,-25.740967
1766499042523,-0.9291992,-0.31054688,0.1899414,0.18310547,0.48828125,-0.24414062,0.0,0.0,0.0,-58.134155,68.76892,-25.740967
1766499042535,-0.9291992,-0.31054688,0.1899414,0.18310547,0.48828125,-0.24414062,0.0,0.0,0.0,-58.19458,68.774414,-25.86731
1766499042623,-0.9355469,-0.30615234,0.18603516,-0.9765625,-0.12207031,0.4272461,0.0,0.0,0.0,-58.19458,68.774414,-25.86731
1766499042635,-0.9355469,-0.30615234,0.18603516,-0.9765625,-0.12207031,0.4272461,0.0,0.0,0.0,-58.24402,68.77991,-25.86731
1766499042723,-0.93310547,-0.30615234,0.19335938,0.48828125,0.061035156,-0.48828125,0.0,0.0,0.0,-58.24402,68.77991,-25.86731
1766499042735,-0.93310547,-0.30615234,0.19335938,0.48828125,0.061035156,-0.48828125,0.0,0.0,0.0,-58.271484,68.77991,-25.927734
1766499042823,-0.9267578,-0.30371094,0.1899414,-0.9765625,0.30517578,0.12207031,0.0,0.0,0.0,-58.271484,68.77991,-25.927734
1766499042835,-0.9267578,-0.30371094,0.1899414,-0.9765625,0.30517578,0.12207031,0.0,0.0,0.0,-58.276978,68.76892,-25.927734
1766499042922,-0.93603516,-0.3100586,0.18457031,0.36621094,0.0,0.12207031,0.0,0.0,0.0,-58.276978,68.76892,-25.927734
1766499042934,-0.93603516,-0.3100586,0.18457031,0.36621094,0.0,0.12207031,0.0,0.0,0.0,-58.233032,68.77991,-25.927734
1766499043022,-0.92822266,-0.30859375,0.19189453,-0.061035156,0.0,0.12207031,0.0,0.0,0.0,-58.233032,68.77991,-25.927734
1766499043034,-0.92822266,-0.30859375,0.19189453,-0.061035156,0.0,0.12207031,0.0,0.0,0.0,-58.1781,68.76892,-25.88379
1766499043122,-0.9345703,-0.30810547,0.18408203,0.4272461,0.30517578,-0.061035156,0.0,0.0,0.0,-58.1781,68.76892,-25.88379
1766499043134,-0.9345703,-0.30810547,0.18408203,0.4272461,0.30517578,-0.061035156,0.0,0.0,0.0,-58.112183,68.75244,-25.801392
1766499043222,-0.9326172,-0.3071289,0.18847656,0.0,-0.061035156,0.24414062,0.0,0.0,0.0,-58.112183,68.75244,-25.801392
1766499043233,-0.9326172,-0.3071289,0.18847656,0.0,-0.061035156,0.24414062,0.0,0.0,0.0,-58.134155,68.75244,-25.823364
1766499043321,-0.9321289,-0.3071289,0.18945312,0.061035156,0.0,0.24414062,0.0,0.0,0.0,-58.134155,68.75244,-25.823364
1766499043333,-0.9321289,-0.3071289,0.18945312,0.061035156,0.0,0.24414062,0.0,0.0,0.0,-58.084717,68.76343,-25.74646
1766499043421,-0.93310547,-0.3071289,0.19140625,0.12207031,0.12207031,0.0,0.0,0.0,0.0,-58.084717,68.76343,-25.74646
1766499043433,-0.93310547,-0.3071289,0.19140625,0.12207031,0.12207031,0.0,0.0,0.0,0.0,-58.068237,68.76343,-25.718994
1766499043521,-0.9321289,-0.30517578,0.1928711,0.4272461,0.48828125,0.0,0.0,0.0,0.0,-58.068237,68.76343,-25.718994
1766499043532,-0.9321289,-0.30517578,0.1928711,0.4272461,0.48828125,0.0,0.0,0.0,0.0,-58.068237,68.76343,-25.708008
1766499043620,-0.9370117,-0.3100586,0.19140625,0.0,-0.4272461,0.18310547,0.0,0.0,0.0,-58.068237,68.76343,-25.708008
1766499043632,-0.9370117,-0.3100586,0.19140625,0.0,-0.4272461,0.18310547,0.0,0.0,0.0,-58.117676,68.76343,-25.795898
1766499043720,-0.93115234,-0.30664062,0.19628906,-0.061035156,0.5493164,0.0,0.0,0.0,0.0,-58.117676,68.76343,-25.795898
1766499043732,-0.93115234,-0.30664062,0.19628906,-0.061035156,0.5493164,0.0,0.0,0.0,0.0,-58.095703,68.76892,-25.735474
1766499043820,-0.93408203,-0.30908203,0.18847656,-0.061035156,-0.12207031,0.0,0.0,0.0,0.0,-58.095703,68.76892,-25.735474
1766499043831,-0.93408203,-0.30908203,0.18847656,-0.061035156,-0.12207031,0.0,0.0,0.0,0.0,-58.095703,68.76892,-25.784912
1766499043920,-0.93408203,-0.30664062,0.18945312,-0.30517578,-0.4272461,0.30517578,0.0,0.0,0.0,-58.095703,68.76892,-25.784912
1766499043931,-0.93408203,-0.30664062,0.18945312,-0.30517578,-0.4272461,0.30517578,0.0,0.0,0.0,-58.05725,68.76892,-25.735474
1766499044019,-0.9350586,-0.30859375,0.18652344,0.5493164,0.36621094,-0.24414062,0.0,0.0,0.0,-58.05725,68.76892,-25.735474
1766499044031,-0.9350586,-0.30859375,0.18652344,0.5493164,0.36621094,-0.24414062,0.0,0.0,0.0,-58.03528,68.76892,-25.735474
1766499044119,-0.93310547,-0.3076172,0.18701172,0.061035156,-0.18310547,0.12207031,0.0,0.0,0.0,-58.03528,68.76892,-25.735474
1766499044131,-0.93310547,-0.3076172,0.18701172,0.061035156,-0.18310547,0.12207031,0.0,0.0,0.0,-58.03528,68.76892,-25.740967
1766499044219,-0.9316406,-0.30810547,0.18798828,0.7324219,0.0,-0.18310547,0.0,0.0,0.0,-58.03528,68.76892,-25.740967
1766499044231,-0.9316406,-0.30810547,0.18798828,0.7324219,0.0,-0.18310547,0.0,0.0,0.0,-58.013306,68.75244,-25.751953
1766499044319,-0.93408203,-0.30664062,0.18847656,0.4272461,0.0,-0.18310547,0.0,0.0,0.0,-58.013306,68.75244,-25.751953
1766499044330,-0.93408203,-0.30664062,0.18847656,0.4272461,0.0,-0.18310547,0.0,0.0,0.0,-57.96936,68.724976,-25.724487
1766499044418,-0.9277344,-0.3095703,0.18945312,1.2207031,0.18310547,-0.4272461,0.0,0.0,0.0,-57.96936,68.724976,-25.724487
1766499044430,-0.9277344,-0.3095703,0.18945312,1.2207031,0.18310547,-0.4272461,0.0,0.0,0.0,-57.96936,68.71399,-25.757446
1766499044518,-0.9379883,-0.31103516,0.1875,-0.12207031,-0.36621094,0.24414062,0.0,0.0,0.0,-57.96936,68.71399,-25.757446
1766499044530,-0.9379883,-0.31103516,0.1875,-0.12207031,-0.36621094,0.24414062,0.0,0.0,0.0,-57.91992,68.68652,-25.735474
1766499044618,-0.9267578,-0.30322266,0.19628906,-0.12207031,0.24414062,-0.12207031,0.0,0.0,0.0,-57.91992,68.68652,-25.735474
1766499044629,-0.9267578,-0.30322266,0.19628906,-0.12207031,0.24414062,-0.12207031,0.0,0.0,0.0,-57.980347,68.68652,-25.768433
1766499044718,-0.9350586,-0.31103516,0.18896484,0.061035156,-0.061035156,-0.12207031,0.0,0.0,0.0,-57.980347,68.68652,-25.768433
1766499044729,-0.9350586,-0.31103516,0.18896484,0.061035156,-0.061035156,-0.12207031,0.0,0.0,0.0,-57.941895,68.66455,-25.76294
1766499044817,-0.93310547,-0.3071289,0.1928711,-0.061035156,-0.4272461,0.18310547,0.0,0.0,0.0,-57.941895,68.66455,-25.76294
1766499044829,-0.93310547,-0.3071289,0.1928711,-0.061035156,-0.4272461,0.18310547,0.0,0.0,0.0,-57.859497,68.64258,-25.64209
1766499044917,-0.9321289,-0.30908203,0.19189453,0.24414062,0.061035156,-0.24414062,0.0,0.0,0.0,-57.859497,68.64258,-25.64209
1766499044929,-0.9321289,-0.30908203,0.19189453,0.24414062,0.061035156,-0.24414062,0.0,0.0,0.0,-57.821045,68.61511,-25.620117
1766499045017,-0.9316406,-0.30859375,0.19140625,0.0,-0.18310547,0.0,0.0,0.0,0.0,-57.821045,68.61511,-25.620117
1766499045028,-0.9316406,-0.30859375,0.19140625,0.0,-0.18310547,0.0,0.0,0.0,0.0,-57.799072,68.59314,-25.581665
1766499045116,-0.9301758,-0.30859375,0.19189453,-0.12207031,-0.36621094,0.0,0.0,0.0,0.0,-57.799072,68.59314,-25.581665
1766499045128,-0.9301758,-0.30859375,0.19189453,-0.12207031,-0.36621094,0.0,0.0,0.0,0.0,-57.74414,68.57666,-25.515747
1766499045216,-0.93115234,-0.30810547,0.19091797,0.0,-0.18310547,0.0,0.0,0.0,0.0,-57.74414,68.57666,-25.515747
1766499045228,-0.93115234,-0.30810547,0.19091797,0.0,-0.18310547,0.0,0.0,0.0,0.0,-57.716675,68.56018,-25.44983
1766499045316,-0.9277344,-0.30615234,0.19238281,0.24414062,0.12207031,0.0,0.0,0.0,0.0,-57.716675,68.56018,-25.44983
1766499045328,-0.9277344,-0.30615234,0.19238281,0.24414062,0.12207031,0.0,0.0,0.0,0.0,-57.71118,68.56018,-25.460815
1766499045416,-0.9277344,-0.3095703,0.1875,0.24414062,1.2207031,0.0,0.0,0.0,0.0,-57.71118,68.56018,-25.460815
1766499045427,-0.9277344,-0.3095703,0.1875,0.24414062,1.2207031,0.0,0.0,0.0,0.0,-57.68921,68.565674,-25.40039
1766499045515,-0.93310547,-0.3095703,0.18896484,0.4272461,0.24414062,0.061035156,0.0,0.0,0.0,-57.68921,68.565674,-25.40039
1766499045527,-0.93310547,-0.3095703,0.18896484,0.4272461,0.24414062,0.061035156,0.0,0.0,0.0,-57.694702,68.57666,-25.411377
1766499045615,-0.92626953,-0.30566406,0.19628906,0.0,-0.4272461,0.18310547,0.0,0.0,0.0,-57.694702,68.57666,-25.411377
1766499045627,-0.92626953,-0.30566406,0.19628906,0.0,-0.4272461,0.18310547,0.0,0.0,0.0,-57.678223,68.57666,-25.389404
1766499045715,-0.9355469,-0.3100586,0.18603516,0.061035156,0.0,0.18310547,0.0,0.0,0.0,-57.678223,68.57666,-25.389404
1766499045726,-0.9355469,-0.3100586,0.18603516,0.061035156,0.0,0.18310547,0.0,0.0,0.0,-57.612305,68.57666,-25.334473
1766499045815,-0.92871094,-0.3076172,0.19189453,0.24414062,0.30517578,0.0,0.0,0.0,0.0,-57.612305,68.57666,-25.334473
1766499045826,-0.92871094,-0.3076172,0.19189453,0.24414062,0.30517578,0.0,0.0,0.0,0.0,-57.678223,68.58215,-25.427856
1766499045914,-0.9277344,-0.30566406,0.19091797,-1.2817383,1.4038086,0.0,0.0,0.0,0.0,-57.678223,68.58215,-25.427856
1766499045926,-0.9277344,-0.30566406,0.19091797,-1.2817383,1.4038086,0.0,0.0,0.0,0.0,-57.788086,68.59863,-25.477295
1766499046014,-0.93896484,-0.31298828,0.18554688,-1.7700195,3.7841797,-0.61035156,0.0,0.0,0.0,-57.788086,68.59863,-25.477295
1766499046025,-0.93896484,-0.31298828,0.18554688,-1.7700195,3.7841797,-0.61035156,0.0,0.0,0.0,-58.74939,68.741455,-26.383667
1766499046114,-0.92871094,-0.30371094,0.18408203,1.159668,-0.24414062,-0.4272461,0.0,0.0,0.0,-58.74939,68.741455,-26.383667
1766499046125,-0.92871094,-0.30371094,0.18408203,1.159668,-0.24414062,-0.4272461,0.0,0.0,0.0,-58.969116,68.741455,-26.608887
1766499046213,-0.93652344,-0.31298828,0.19970703,0.5493164,-0.91552734,0.48828125,0.0,0.0,0.0,-58.969116,68.741455,-26.608887
1766499046225,-0.93652344,-0.31298828,0.19970703,0.5493164,-0.91552734,0.48828125,0.0,0.0,0.0,-58.85376,68.71399,-26.575928
1766499046313,-0.9272461,-0.31103516,0.18554688,-0.7324219,0.0,0.79345703,0.0,0.0,0.0,-58.85376,68.71399,-26.575928
1766499046325,-0.9272461,-0.31103516,0.18554688,-0.7324219,0.0,0.79345703,0.0,0.0,0.0,-58.535156,68.73047,-26.191406
1766499046413,-0.93603516,-0.31054688,0.18310547,0.7324219,-0.5493164,0.24414062,0.0,0.0,0.0,-58.535156,68.73047,-26.191406
1766499046424,-0.93603516,-0.31054688,0.18310547,0.7324219,-0.5493164,0.24414062,0.0,0.0,0.0,-58.441772,68.724976,-26.114502
1766499046513,-0.9326172,-0.30615234,0.19384766,0.4272461,0.24414062,0.18310547,0.0,0.0,0.0,-58.441772,68.724976,-26.114502
1766499046524,-0.9326172,-0.30615234,0.19384766,0.4272461,0.24414062,0.18310547,0.0,0.0,0.0,-58.26599,68.73596,-25.93872
1766499046612,-0.9326172,-0.30371094,0.18798828,0.061035156,0.24414062,-0.061035156,0.0,0.0,0.0,-58.26599,68.73596,-25.93872
1766499046624,-0.9326172,-0.30371094,0.18798828,0.061035156,0.24414062,-0.061035156,0.0,0.0,0.0,-58.222046,68.73596,-25.894775
1766499046712,-0.93359375,-0.30566406,0.1850586,-0.61035156,0.12207031,0.5493164,0.0,0.0,0.0,-58.222046,68.73596,-25.894775
1766499046724,-0.93359375,-0.30566406,0.1850586,-0.61035156,0.12207031,0.5493164,0.0,0.0,0.0,-58.238525,68.76343,-25.856323
1766499046812,-0.9370117,-0.31103516,0.1772461,0.18310547,4.638672,-0.9765625,0.0,0.0,0.0,-58.238525,68.76343,-25.856323
1766499046823,-0.9370117,-0.31103516,0.1772461,0.18310547,4.638672,-0.9765625,0.0,0.0,0.0,-58.864746,68.8678,-26.433105
1766499046911,-0.9316406,-0.30810547,0.17773438,0.36621094,-0.4272461,-0.24414062,0.0,0.0,0.0,-58.864746,68.8678,-26.433105
1766499046923,-0.9316406,-0.30810547,0.17773438,0.36621094,-0.4272461,-0.24414062,0.0,0.0,0.0,-59.34265,68.878784,-26.932983
1766499047011,-0.9301758,-0.31347656,0.18164062,-0.48828125,0.0,0.36621094,0.0,0.0,0.0,-59.34265,68.878784,-26.932983
1766499047023,-0.9301758,-0.31347656,0.18164062,-0.48828125,0.0,0.36621094,0.0,0.0,0.0,-59.35913,68.88428,-26.889038
1766499047111,-0.9399414,-0.3100586,0.1743164,-0.061035156,-1.2207031,0.5493164,0.0,0.0,0.0,-59.35913,68.88428,-26.889038
1766499047123,-0.9399414,-0.3100586,0.1743164,-0.061035156,-1.2207031,0.5493164,0.0,0.0,0.0,-59.227295,68.878784,-26.740723
1766499047211,-0.9316406,-0.31152344,0.18164062,0.36621094,0.24414062,0.0,0.0,0.0,0.0,-59.227295,68.878784,-26.740723
1766499047222,-0.9316406,-0.31152344,0.18164062,0.36621094,0.24414062,0.0,0.0,0.0,0.0,-59.25476,68.89526,-26.751709
1766499047310,-0.9345703,-0.3076172,0.17675781,0.7324219,0.79345703,-0.061035156,0.0,0.0,0.0,-59.25476,68.89526,-26.751709
1766499047322,-0.9345703,-0.3076172,0.17675781,0.7324219,0.79345703,-0.061035156,0.0,0.0,0.0,-59.315186,68.90625,-26.80664
1766499047410,-0.9375,-0.30810547,0.18115234,-0.4272461,-0.18310547,0.18310547,0.0,0.0,0.0,-59.315186,68.90625,-26.80664
1766499047422,-0.9375,-0.30810547,0.18115234,-0.4272461,-0.18310547,0.18310547,0.0,0.0,0.0,-59.315186,68.92273,-26.779175
1766499047510,-0.9355469,-0.31201172,0.18457031,-0.5493164,-0.30517578,0.18310547,0.0,0.0,0.0,-59.315186,68.92273,-26.779175
1766499047521,-0.9355469,-0.31201172,0.18457031,-0.5493164,-0.30517578,0.18310547,0.0,0.0,0.0,-59.397583,68.92822,-26.92749
1766499047609,-0.93310547,-0.30810547,0.17675781,0.4272461,0.48828125,-0.061035156,0.0,0.0,0.0,-59.397583,68.92822,-26.92749
1766499047621,-0.93310547,-0.30810547,0.17675781,0.4272461,0.48828125,-0.061035156,0.0,0.0,0.0,-59.37561,68.92822,-26.894531
1766499047709,-0.9321289,-0.3100586,0.18066406,-0.24414062,0.61035156,-0.18310547,0.0,0.0,0.0,-59.37561,68.92822,-26.894531
1766499047721,-0.9321289,-0.3100586,0.18066406,-0.24414062,0.61035156,-0.18310547,0.0,0.0,0.0,-59.56787,68.95569,-27.092285
1766499047809,-0.9316406,-0.30908203,0.17382812,0.061035156,0.0,0.4272461,0.0,0.0,0.0,-59.56787,68.95569,-27.092285
1766499047820,-0.9316406,-0.30908203,0.17382812,0.061035156,0.0,0.4272461,0.0,0.0,0.0,-59.589844,68.95569,-27.114258
1766499047909,-0.9316406,-0.30859375,0.1743164,0.6713867,-0.18310547,0.18310547,0.0,0.0,0.0,-59.589844,68.95569,-27.114258
1766499047920,-0.9316406,-0.30859375,0.1743164,0.6713867,-0.18310547,0.18310547,0.0,0.0,0.0,-59.39209,68.96118,-26.965942
1766499048009,-0.93408203,-0.30908203,0.16699219,-0.9765625,-0.36621094,0.48828125,0.0,0.0,0.0,-59.39209,68.96118,-26.965942
1766499048020,-0.93408203,-0.30908203,0.16699219,-0.9765625,-0.36621094,0.48828125,0.0,0.0,0.0,-59.18335,68.950195,-26.790161
1766499048108,-0.9423828,-0.30859375,0.1694336,-1.0986328,3.9672852,0.061035156,0.0,0.0,0.0,-59.18335,68.950195,-26.790161
1766499048120,-0.9423828,-0.30859375,0.1694336,-1.0986328,3.9672852,0.061035156,0.0,0.0,0.0,-59.96338,69.087524,-27.399902
1766499048208,-0.9291992,-0.3046875,0.17529297,0.0,0.5493164,0.18310547,0.0,0.0,0.0,-59.96338,69.087524,-27.399902
1766499048220,-0.9291992,-0.3046875,0.17529297,0.0,0.5493164,0.18310547,0.0,0.0,0.0,-60.358887,69.16443,-27.685547
