timestamp,accX,accY,accZ,gyroX,gyroY,gyroZ,magX,magY,magZ,roll,pitch,yaw
1766497858198,-0.93896484,-0.2734375,0.2109375,-0.18310547,0.61035156,0.18310547,0.0,0.0,0.0,-52.591553,69.296265,-22.994385
1766497858209,-0.93896484,-0.2734375,0.2109375,-0.18310547,0.61035156,0.18310547,0.0,0.0,0.0,-52.476196,69.25781,-22.807617
1766497858298,-0.94091797,-0.28173828,0.21044922,-0.5493164,-0.8544922,1.159668,0.0,0.0,0.0,-52.476196,69.25781,-22.807617
1766497858310,-0.94091797,-0.28173828,0.21044922,-0.5493164,-0.8544922,1.159668,0.0,0.0,0.0,-52.371826,69.296265,-22.675781
1766497858397,-0.9350586,-0.27490234,0.21582031,-0.12207031,-0.12207031,1.2817383,0.0,0.0,0.0,-52.371826,69.296265,-22.675781
1766497858409,-0.9350586,-0.27490234,0.21582031,-0.12207031,-0.12207031,1.2817383,0.0,0.0,0.0,-52.08618,69.3512,-22.318726
1766497858497,-0.9379883,-0.28027344,0.20751953,0.61035156,-0.18310547,0.0,0.0,0.0,0.0,-52.08618,69.3512,-22.318726
1766497858509,-0.9379883,-0.28027344,0.20751953,0.61035156,-0.18310547,0.0,0.0,0.0,0.0,-51.85547,69.400635,-22.071533
1766497858598,-0.9355469,-0.27978516,0.22070312,-1.159668,0.0,-0.5493164,0.0,0.0,0.0,-51.85547,69.400635,-22.071533
1766497858609,-0.9355469,-0.27978516,0.22070312,-1.159668,0.0,-0.5493164,0.0,0.0,0.0,-51.921387,69.367676,-22.098999
1766497858698,-0.9355469,-0.27441406,0.20703125,-1.2817383,0.5493164,0.48828125,0.0,0.0,0.0,-51.921387,69.367676,-22.098999
1766497858709,-0.9355469,-0.27441406,0.20703125,-1.2817383,0.5493164,0.48828125,0.0,0.0,0.0,-51.98181,69.3512,-22.033081
1766497858796,-0.9399414,-0.27246094,0.20361328,0.12207031,-0.24414062,0.79345703,0.0,0.0,0.0,-51.98181,69.3512,-22.033081
1766497858808,-0.9399414,-0.27246094,0.20361328,0.12207031,-0.24414062,0.79345703,0.0,0.0,0.0,-52.157593,69.45007,-22.15393
1766497858896,-0.9423828,-0.27490234,0.20996094,0.61035156,0.24414062,0.24414062,0.0,0.0,0.0,-52.157593,69.45007,-22.15393
1766497858907,-0.9423828,-0.27490234,0.20996094,0.61035156,0.24414062,0.24414062,0.0,0.0,0.0,-51.99829,69.49951,-22.033081
1766497858996,-0.94384766,-0.27441406,0.20751953,1.4648438,0.24414062,-0.8544922,0.0,0.0,0.0,-51.99829,69.49951,-22.033081
1766497859007,-0.94384766,-0.27441406,0.20751953,1.4648438,0.24414062,-0.8544922,0.0,0.0,0.0,-52.053223,69.48303,-22.192383
1766497859095,-0.9321289,-0.27929688,0.20898438,1.2817383,1.0986328,-1.2207031,0.0,0.0,0.0,-52.053223,69.48303,-22.192383
1766497859107,-0.9321289,-0.27929688,0.20898438,1.2817383,1.0986328,-1.2207031,0.0,0.0,0.0,-52.283936,69.472046,-22.521973
1766497859195,-0.9394531,-0.28759766,0.19824219,-1.7700195,-0.7324219,-0.61035156,0.0,0.0,0.0,-52.283936,69.472046,-22.521973
1766497859207,-0.9394531,-0.28759766,0.19824219,-1.7700195,-0.7324219,-0.61035156,0.0,0.0,0.0,-52.37732,69.33472,-22.62085
1766497859295,-0.93896484,-0.27294922,0.20361328,0.061035156,-0.6713867,0.36621094,0.0,0.0,0.0,-52.37732,69.33472,-22.62085
1766497859307,-0.93896484,-0.27294922,0.20361328,0.061035156,-0.6713867,0.36621094,0.0,0.0,0.0,-52.382812,69.33472,-22.390137
1766497859395,-0.93359375,-0.2680664,0.2133789,-0.18310547,-2.4414062,1.3427734,0.0,0.0,0.0,-52.382812,69.33472,-22.390137
1766497859406,-0.93359375,-0.2680664,0.2133789,-0.18310547,-2.4414062,1.3427734,0.0,0.0,0.0,-52.130127,69.30176,-22.219849
1766497859494,-0.9404297,-0.2836914,0.21044922,0.91552734,0.5493164,0.4272461,0.0,0.0,0.0,-52.130127,69.30176,-22.219849
1766497859506,-0.9404297,-0.2836914,0.21044922,0.91552734,0.5493164,0.4272461,0.0,0.0,0.0,-51.740112,69.33472,-21.802368
1766497859594,-0.94189453,-0.27001953,0.20996094,-1.0375977,-0.61035156,0.30517578,0.0,0.0,0.0,-51.740112,69.33472,-21.802368
1766497859605,-0.94189453,-0.27001953,0.20996094,-1.0375977,-0.61035156,0.30517578,0.0,0.0,0.0,-51.970825,69.37317,-21.994629
1766497859694,-0.93652344,-0.2709961,0.20800781,1.2207031,-0.61035156,0.48828125,0.0,0.0,0.0,-51.970825,69.37317,-21.994629
1766497859705,-0.93652344,-0.2709961,0.20800781,1.2207031,-0.61035156,0.48828125,0.0,0.0,0.0,-51.784058,69.37317,-21.862793
1766497859793,-0.9453125,-0.28320312,0.20751953,4.0893555,1.4038086,-1.5258789,0.0,0.0,0.0,-51.784058,69.37317,-21.862793
1766497859805,-0.9453125,-0.28320312,0.20751953,4.0893555,1.4038086,-1.5258789,0.0,0.0,0.0,-51.795044,69.37866,-22.181396
1766497859893,-0.93408203,-0.27294922,0.22070312,-5.065918,-7.5683594,1.159668,0.0,0.0,0.0,-51.795044,69.37866,-22.181396
1766497859905,-0.93408203,-0.27294922,0.22070312,-5.065918,-7.5683594,1.159668,0.0,0.0,0.0,-51.229248,69.12598,-21.275024
1766497859993,-0.93359375,-0.27197266,0.21972656,5.9814453,2.319336,-2.6855469,0.0,0.0,0.0,-51.229248,69.12598,-21.275024
1766497860004,-0.93359375,-0.27197266,0.21972656,5.9814453,2.319336,-2.6855469,0.0,0.0,0.0,-50.88318,68.878784,-21.154175
1766497860093,-0.9140625,-0.3076172,0.23339844,-3.540039,-1.953125,0.18310547,0.0,0.0,0.0,-50.88318,68.878784,-21.154175
1766497860105,-0.9140625,-0.3076172,0.23339844,-3.540039,-1.953125,0.18310547,0.0,0.0,0.0,-50.839233,68.829346,-20.90149
1766497860192,-0.921875,-0.29492188,0.22558594,-4.5776367,-1.8920898,-1.7700195,0.0,0.0,0.0,-50.839233,68.829346,-20.90149
1766497860204,-0.921875,-0.29492188,0.22558594,-4.5776367,-1.8920898,-1.7700195,0.0,0.0,0.0,-51.602783,68.61511,-21.461792
1766497860292,-0.93310547,-0.28320312,0.21289062,-1.2207031,2.5634766,-2.0751953,0.0,0.0,0.0,-51.602783,68.61511,-21.461792
1766497860304,-0.93310547,-0.28320312,0.21289062,-1.2207031,2.5634766,-2.0751953,0.0,0.0,0.0,-52.058716,68.48877,-21.637573
1766497860392,-0.93896484,-0.29736328,0.20898438,-3.90625,-0.061035156,-0.18310547,0.0,0.0,0.0,-52.058716,68.48877,-21.637573
1766497860403,-0.93896484,-0.29736328,0.20898438,-3.90625,-0.061035156,-0.18310547,0.0,0.0,0.0,-52.921143,68.56018,-22.2583
1766497860492,-0.94433594,-0.29492188,0.20654297,-2.0751953,4.8828125,-1.3427734,0.0,0.0,0.0,-52.921143,68.56018,-22.2583
1766497860503,-0.94433594,-0.29492188,0.20654297,-2.0751953,4.8828125,-1.3427734,0.0,0.0,0.0,-53.931885,68.66455,-23.12622
1766497860591,-0.91796875,-0.29882812,0.19970703,-3.8452148,-0.5493164,-0.8544922,0.0,0.0,0.0,-53.931885,68.66455,-23.12622
1766497860603,-0.91796875,-0.29882812,0.19970703,-3.8452148,-0.5493164,-0.8544922,0.0,0.0,0.0,-55.06897,68.76892,-24.09851
1766497860691,-0.93408203,-0.30273438,0.19580078,-2.380371,4.0893555,-2.5634766,0.0,0.0,0.0,-55.06897,68.76892,-24.09851
1766497860702,-0.93408203,-0.30273438,0.19580078,-2.380371,4.0893555,-2.5634766,0.0,0.0,0.0,-55.881958,68.703,-24.697266
1766497860791,-0.9296875,-0.30322266,0.19677734,-2.8076172,1.5869141,-1.5869141,0.0,0.0,0.0,-55.881958,68.703,-24.697266
1766497860802,-0.9296875,-0.30322266,0.19677734,-2.8076172,1.5869141,-1.5869141,0.0,0.0,0.0,-57.321167,68.64807,-26.136475
1766497860890,-0.9248047,-0.30029297,0.1850586,-1.8920898,1.953125,-0.61035156,0.0,0.0,0.0,-57.321167,68.64807,-26.136475
1766497860902,-0.9248047,-0.30029297,0.1850586,-1.8920898,1.953125,-0.61035156,0.0,0.0,0.0,-58.233032,68.64258,-26.932983
1766497860990,-0.9296875,-0.31591797,0.1772461,-2.5024414,0.61035156,0.4272461,0.0,0.0,0.0,-58.233032,68.64258,-26.932983
1766497861002,-0.9296875,-0.31591797,0.1772461,-2.5024414,0.61035156,0.4272461,0.0,0.0,0.0,-58.551636,68.68103,-27.174683
1766497861090,-0.93652344,-0.31445312,0.17333984,-0.8544922,1.4648438,-0.61035156,0.0,0.0,0.0,-58.551636,68.68103,-27.174683
1766497861102,-0.93652344,-0.31445312,0.17333984,-0.8544922,1.4648438,-0.61035156,0.0,0.0,0.0,-59.249268,68.757935,-27.751465
1766497861189,-0.9272461,-0.30273438,0.17480469,0.30517578,0.6713867,-0.36621094,0.0,0.0,0.0,-59.249268,68.757935,-27.751465
1766497861201,-0.9272461,-0.30273438,0.17480469,0.30517578,0.6713867,-0.36621094,0.0,0.0,0.0,-59.65576,68.757935,-28.168945
1766497861289,-0.9301758,-0.31103516,0.17529297,3.9672852,0.91552734,-1.0986328,0.0,0.0,0.0,-59.65576,68.757935,-28.168945
1766497861301,-0.9301758,-0.31103516,0.17529297,3.9672852,0.91552734,-1.0986328,0.0,0.0,0.0,-59.710693,68.75244,-28.443604
1766497861389,-0.9321289,-0.3173828,0.16894531,3.540039,1.7700195,0.36621094,0.0,0.0,0.0,-59.710693,68.75244,-28.443604
1766497861401,-0.9321289,-0.3173828,0.16894531,3.540039,1.7700195,0.36621094,0.0,0.0,0.0,-59.73816,68.80737,-28.921509
1766497861489,-0.94628906,-0.30371094,0.17138672,0.61035156,-0.48828125,-0.48828125,0.0,0.0,0.0,-59.73816,68.80737,-28.921509
1766497861500,-0.94628906,-0.30371094,0.17138672,0.61035156,-0.48828125,-0.48828125,0.0,0.0,0.0,-59.67224,68.81836,-28.894043
1766497861588,-0.92041016,-0.30859375,0.18164062,6.1035156,1.0986328,-1.8920898,0.0,0.0,0.0,-59.67224,68.81836,-28.894043
1766497861600,-0.92041016,-0.30859375,0.18164062,6.1035156,1.0986328,-1.8920898,0.0,0.0,0.0,-59.75464,68.75244,-29.366455
1766497861688,-0.9291992,-0.31347656,0.19140625,3.2348633,-1.0986328,-0.30517578,0.0,0.0,0.0,-59.75464,68.75244,-29.366455
1766497861700,-0.9291992,-0.31347656,0.19140625,3.2348633,-1.0986328,-0.30517578,0.0,0.0,0.0,-59.243774,68.68652,-29.267578
1766497861788,-0.9316406,-0.31396484,0.1796875,1.7700195,-2.9296875,1.4038086,0.0,0.0,0.0,-59.243774,68.68652,-29.267578
1766497861799,-0.9316406,-0.31396484,0.1796875,1.7700195,-2.9296875,1.4038086,0.0,0.0,0.0,-58.815308,68.620605,-29.141235
1766497861887,-0.9165039,-0.31054688,0.18847656,6.1035156,-0.9765625,0.8544922,0.0,0.0,0.0,-58.815308,68.620605,-29.141235
1766497861899,-0.9165039,-0.31054688,0.18847656,6.1035156,-0.9765625,0.8544922,0.0,0.0,0.0,-57.9364,68.604126,-28.520508
1766497861987,-0.9448242,-0.30371094,0.19140625,6.286621,-0.6713867,0.48828125,0.0,0.0,0.0,-57.9364,68.604126,-28.520508
1766497861999,-0.9448242,-0.30371094,0.19140625,6.286621,-0.6713867,0.48828125,0.0,0.0,0.0,-56.96411,68.58765,-27.938232
1766497862087,-0.9301758,-0.30664062,0.20800781,5.6152344,-1.5258789,1.5258789,0.0,0.0,0.0,-56.96411,68.58765,-27.938232
1766497862098,-0.9301758,-0.30664062,0.20800781,5.6152344,-1.5258789,1.5258789,0.0,0.0,0.0,-56.046753,68.64258,-27.421875
1766497862187,-0.93408203,-0.28564453,0.20214844,4.0283203,-1.4038086,2.5634766,0.0,0.0,0.0,-56.046753,68.64258,-27.421875
1766497862199,-0.93408203,-0.28564453,0.20214844,4.0283203,-1.4038086,2.5634766,0.0,0.0,0.0,-55.008545,68.73596,-26.564941
1766497862286,-0.9165039,-0.27246094,0.19482422,9.460449,-3.90625,1.7700195,0.0,0.0,0.0,-55.008545,68.73596,-26.564941
1766497862298,-0.9165039,-0.27246094,0.19482422,9.460449,-3.90625,1.7700195,0.0,0.0,0.0,-53.54187,68.73596,-25.680542
1766497862386,-0.95947266,-0.27392578,0.1977539,12.817383,-3.2958984,4.4555664,0.0,0.0,0.0,-53.54187,68.73596,-25.680542
1766497862398,-0.95947266,-0.27392578,0.1977539,12.817383,-3.2958984,4.4555664,0.0,0.0,0.0,-51.49292,68.983154,-24.285278
1766497862489,-0.93359375,-0.2734375,0.24023438,13.000488,-2.319336,9.94873,0.0,0.0,0.0,-51.49292,68.983154,-24.285278
1766497862497,-0.93359375,-0.2734375,0.24023438,13.000488,-2.319336,9.94873,0.0,0.0,0.0,-48.652954,69.32373,-22.41211
1766497862586,-0.8847656,-0.30273438,0.21875,16.723633,-9.521484,11.779785,0.0,0.0,0.0,-48.652954,69.32373,-22.41211
1766497862598,-0.8847656,-0.30273438,0.21875,16.723633,-9.521484,11.779785,0.0,0.0,0.0,-44.30237,69.81262,-19.286499
1766497862685,-0.9448242,-0.2290039,0.28125,3.112793,-21.911621,21.240234,0.0,0.0,0.0,-44.30237,69.81262,-19.286499
1766497862697,-0.9448242,-0.2290039,0.28125,3.112793,-21.911621,21.240234,0.0,0.0,0.0,-37.825928,69.66431,-13.002319
1766497862785,-0.9189453,-0.1850586,0.31298828,3.6010742,-17.51709,20.568848,0.0,0.0,0.0,-37.825928,69.66431,-13.002319
1766497862797,-0.9189453,-0.1850586,0.31298828,3.6010742,-17.51709,20.568848,0.0,0.0,0.0,-30.234375,69.13696,-5.059204
1766497862885,-0.9536133,-0.1328125,0.3334961,9.277344,-20.935059,16.906738,0.0,0.0,0.0,-30.234375,69.13696,-5.059204
1766497862896,-0.9536133,-0.1328125,0.3334961,9.277344,-20.935059,16.906738,0.0,0.0,0.0,-23.47229,68.50525,1.5161133
1766497862984,-0.9370117,-0.08544922,0.38330078,8.544922,-16.296387,13.85498,0.0,0.0,0.0,-23.47229,68.50525,1.5161133
1766497862996,-0.9370117,-0.08544922,0.38330078,8.544922,-16.296387,13.85498,0.0,0.0,0.0,-17.506714,67.126465,6.965332
1766497863084,-0.90771484,-0.08642578,0.42041016,1.2207031,-7.2021484,8.911133,0.0,0.0,0.0,-17.506714,67.126465,6.965332
1766497863096,-0.90771484,-0.08642578,0.42041016,1.2207031,-7.2021484,8.911133,0.0,0.0,0.0,-14.265747,66.4563,9.700928
1766497863184,-0.9145508,-0.05078125,0.41064453,-1.4648438,-7.2021484,10.864258,0.0,0.0,0.0,-14.265747,66.4563,9.700928
1766497863195,-0.9145508,-0.05078125,0.41064453,-1.4648438,-7.2021484,10.864258,0.0,0.0,0.0,-11.678467,66.04431,12.194824
1766497863284,-0.90722656,-0.041503906,0.4248047,-0.061035156,-3.540039,3.540039,0.0,0.0,0.0,-11.678467,66.04431,12.194824
1766497863295,-0.90722656,-0.041503906,0.4248047,-0.061035156,-3.540039,3.540039,0.0,0.0,0.0,-9.63501,65.58838,14.342651
1766497863384,-0.91503906,-0.05859375,0.4243164,-3.4179688,-0.48828125,1.3427734,0.0,0.0,0.0,-9.63501,65.58838,14.342651
1766497863395,-0.91503906,-0.05859375,0.4243164,-3.4179688,-0.48828125,1.3427734,0.0,0.0,0.0,-9.091187,65.4126,14.760132
1766497863483,-0.9135742,-0.04638672,0.41308594,-2.0751953,-1.6479492,1.4038086,0.0,0.0,0.0,-9.091187,65.4126,14.760132
1766497863494,-0.9135742,-0.04638672,0.41308594,-2.0751953,-1.6479492,1.4038086,0.0,0.0,0.0,-9.190063,65.3302,14.468994
1766497863583,-0.9042969,-0.056640625,0.41796875,1.0986328,-1.8920898,0.4272461,0.0,0.0,0.0,-9.190063,65.3302,14.468994
1766497863594,-0.9042969,-0.056640625,0.41796875,1.0986328,-1.8920898,0.4272461,0.0,0.0,0.0,-8.953857,65.2478,14.331665
1766497863683,-0.90478516,-0.05517578,0.41259766,0.8544922,-0.30517578,2.319336,0.0,0.0,0.0,-8.953857,65.2478,14.331665
1766497863694,-0.90478516,-0.05517578,0.41259766,0.8544922,-0.30517578,2.319336,0.0,0.0,0.0,-8.377075,65.11597,14.37561
1766497863782,-0.9111328,-0.049804688,0.41503906,-1.0375977,-0.061035156,1.4648438,0.0,0.0,0.0,-8.377075,65.11597,14.37561
1766497863794,-0.9111328,-0.049804688,0.41503906,-1.0375977,-0.061035156,1.4648438,0.0,0.0,0.0,-7.827759,65.044556,14.639282
1766497863882,-0.9013672,-0.045410156,0.421875,1.8310547,0.5493164,1.2817383,0.0,0.0,0.0,-7.827759,65.044556,14.639282
1766497863894,-0.9013672,-0.045410156,0.421875,1.8310547,0.5493164,1.2817383,0.0,0.0,0.0,-7.371826,65.061035,14.628296
1766497863982,-0.90234375,-0.04345703,0.41796875,-0.8544922,-1.5258789,1.6479492,0.0,0.0,0.0,-7.371826,65.061035,14.628296
1766497863993,-0.90234375,-0.04345703,0.41796875,-0.8544922,-1.5258789,1.6479492,0.0,0.0,0.0,-6.9763184,65.01709,14.710693
1766497864081,-0.9082031,-0.044433594,0.42285156,0.48828125,-0.8544922,-0.6713867,0.0,0.0,0.0,-6.9763184,65.01709,14.710693
1766497864093,-0.9082031,-0.044433594,0.42285156,0.48828125,-0.8544922,-0.6713867,0.0,0.0,0.0,-6.82251,64.89075,14.490967
1766497864181,-0.90234375,-0.045898438,0.43017578,-1.4648438,-0.18310547,0.18310547,0.0,0.0,0.0,-6.82251,64.89075,14.490967
1766497864193,-0.90234375,-0.045898438,0.43017578,-1.4648438,-0.18310547,0.18310547,0.0,0.0,0.0,-6.7401123,64.80286,14.28772
1766497864281,-0.9057617,-0.0390625,0.4272461,0.061035156,-1.8920898,0.6713867,0.0,0.0,0.0,-6.7401123,64.80286,14.28772
1766497864293,-0.9057617,-0.0390625,0.4272461,0.061035156,-1.8920898,0.6713867,0.0,0.0,0.0,-6.564331,64.75891,14.111938
1766497864380,-0.90527344,-0.034179688,0.4248047,0.24414062,-0.5493164,0.36621094,0.0,0.0,0.0,-6.564331,64.75891,14.111938
1766497864392,-0.90527344,-0.034179688,0.4248047,0.24414062,-0.5493164,0.36621094,0.0,0.0,0.0,-6.465454,64.66553,13.83728
1766497864480,-0.89990234,-0.03564453,0.42089844,0.8544922,-0.24414062,-0.30517578,0.0,0.0,0.0,-6.465454,64.66553,13.83728
1766497864492,-0.89990234,-0.03564453,0.42089844,0.8544922,-0.24414062,-0.30517578,0.0,0.0,0.0,-6.4050293,64.6875,13.584595
1766497864580,-0.9038086,-0.048828125,0.4345703,0.36621094,0.12207031,-1.4648438,0.0,0.0,0.0,-6.4050293,64.6875,13.584595
1766497864592,-0.9038086,-0.048828125,0.4345703,0.36621094,0.12207031,-1.4648438,0.0,0.0,0.0,-6.3500977,64.70398,13.359375
1766497864684,-0.9111328,-0.051757812,0.43115234,-2.6245117,-0.061035156,-0.5493164,0.0,0.0,0.0,-6.3500977,64.70398,13.359375
1766497864691,-0.9111328,-0.051757812,0.43115234,-2.6245117,-0.061035156,-0.5493164,0.0,0.0,0.0,-6.525879,64.643555,13.051758
1766497864781,-0.90283203,-0.047851562,0.4169922,-1.5258789,1.0986328,-1.0986328,0.0,0.0,0.0,-6.525879,64.643555,13.051758
1766497864791,-0.90283203,-0.047851562,0.4169922,-1.5258789,1.0986328,-1.0986328,0.0,0.0,0.0,-6.866455,64.714966,12.645264
1766497864879,-0.90283203,-0.04736328,0.42333984,-1.0375977,-0.4272461,0.36621094,0.0,0.0,0.0,-6.866455,64.714966,12.645264
1766497864891,-0.90283203,-0.04736328,0.42333984,-1.0375977,-0.4272461,0.36621094,0.0,0.0,0.0,-6.937866,64.731445,12.485962
1766497864979,-0.90478516,-0.053710938,0.4248047,-2.0751953,0.12207031,0.7324219,0.0,0.0,0.0,-6.937866,64.731445,12.485962
1766497864991,-0.90478516,-0.053710938,0.4248047,-2.0751953,0.12207031,0.7324219,0.0,0.0,0.0,-6.8719482,64.714966,12.491455
1766497865079,-0.9042969,-0.05078125,0.42382812,-0.4272461,1.4648438,-0.061035156,0.0,0.0,0.0,-6.8719482,64.714966,12.491455
1766497865092,-0.9042969,-0.05078125,0.42382812,-0.4272461,1.4648438,-0.061035156,0.0,0.0,0.0,-6.9433594,64.7699,12.315674
1766497865178,-0.89746094,-0.051757812,0.42138672,-0.8544922,0.4272461,0.61035156,0.0,0.0,0.0,-6.9433594,64.7699,12.315674
1766497865190,-0.89746094,-0.051757812,0.42138672,-0.8544922,0.4272461,0.61035156,0.0,0.0,0.0,-6.9488525,64.747925,12.266235
1766497865278,-0.9067383,-0.04638672,0.421875,0.061035156,0.30517578,0.8544922,0.0,0.0,0.0,-6.9488525,64.747925,12.266235
1766497865289,-0.9067383,-0.04638672,0.421875,0.061035156,0.30517578,0.8544922,0.0,0.0,0.0,-6.729126,64.75891,12.34314
1766497865378,-0.9033203,-0.045898438,0.4243164,-2.4414062,-1.2817383,2.5024414,0.0,0.0,0.0,-6.729126,64.75891,12.34314
1766497865389,-0.9033203,-0.045898438,0.4243164,-2.4414062,-1.2817383,2.5024414,0.0,0.0,0.0,-6.5203857,64.70947,12.458496
1766497865477,-0.91015625,-0.0390625,0.42236328,0.8544922,0.4272461,-1.0375977,0.0,0.0,0.0,-6.5203857,64.70947,12.458496
1766497865489,-0.91015625,-0.0390625,0.42236328,0.8544922,0.4272461,-1.0375977,0.0,0.0,0.0,-6.295166,64.68201,12.502441
1766497865577,-0.89941406,-0.043945312,0.42529297,0.12207031,-0.5493164,-0.48828125,0.0,0.0,0.0,-6.295166,64.68201,12.502441
1766497865589,-0.89941406,-0.043945312,0.42529297,0.12207031,-0.5493164,-0.48828125,0.0,0.0,0.0,-6.289673,64.68201,12.354126
1766497865677,-0.90234375,-0.041503906,0.42333984,0.12207031,-0.6713867,0.30517578,0.0,0.0,0.0,-6.289673,64.68201,12.354126
1766497865689,-0.90234375,-0.041503906,0.42333984,0.12207031,-0.6713867,0.30517578,0.0,0.0,0.0,-6.3116455,64.660034,12.145386
1766497865777,-0.90185547,-0.05126953,0.42285156,0.30517578,0.4272461,-0.12207031,0.0,0.0,0.0,-6.3116455,64.660034,12.145386
1766497865788,-0.90185547,-0.05126953,0.42285156,0.30517578,0.4272461,-0.12207031,0.0,0.0,0.0,-6.190796,64.643555,12.084961
1766497865876,-0.90234375,-0.043945312,0.4267578,-0.12207031,0.5493164,0.061035156,0.0,0.0,0.0,-6.190796,64.643555,12.084961
1766497865888,-0.90234375,-0.043945312,0.4267578,-0.12207031,0.5493164,0.061035156,0.0,0.0,0.0,-6.201782,64.65454,12.041016
1766497865976,-0.90185547,-0.053710938,0.42529297,1.0986328,1.4038086,-1.0986328,0.0,0.0,0.0,-6.201782,64.65454,12.041016
1766497865988,-0.90185547,-0.053710938,0.42529297,1.0986328,1.4038086,-1.0986328,0.0,0.0,0.0,-6.1138916,64.63257,11.980591
1766497866076,-0.9057617,-0.041503906,0.42138672,1.4648438,1.2207031,-0.061035156,0.0,0.0,0.0,-6.1138916,64.63257,11.980591
1766497866087,-0.9057617,-0.041503906,0.42138672,1.4648438,1.2207031,-0.061035156,0.0,0.0,0.0,-6.119385,64.67102,11.80481
1766497866175,-0.8964844,-0.045410156,0.42333984,0.0,0.12207031,1.4038086,0.0,0.0,0.0,-6.119385,64.67102,11.80481
1766497866187,-0.8964844,-0.045410156,0.42333984,0.0,0.12207031,1.4038086,0.0,0.0,0.0,-5.927124,64.74243,11.810303
1766497866275,-0.90966797,-0.04296875,0.4248047,0.061035156,0.061035156,-0.12207031,0.0,0.0,0.0,-5.927124,64.74243,11.810303
1766497866287,-0.90966797,-0.04296875,0.4248047,0.061035156,0.061035156,-0.12207031,0.0,0.0,0.0,-5.718384,64.72046,11.99707
1766497866375,-0.90966797,-0.043945312,0.42626953,0.24414062,0.5493164,-0.61035156,0.0,0.0,0.0,-5.718384,64.72046,11.99707
1766497866387,-0.90966797,-0.043945312,0.42626953,0.24414062,0.5493164,-0.61035156,0.0,0.0,0.0,-5.7733154,64.764404,11.793823
1766497866475,-0.9013672,-0.04638672,0.42285156,0.5493164,-0.18310547,-0.79345703,0.0,0.0,0.0,-5.7733154,64.764404,11.793823
1766497866486,-0.9013672,-0.04638672,0.42285156,0.5493164,-0.18310547,-0.79345703,0.0,0.0,0.0,-5.8392334,64.747925,11.56311
1766497866574,-0.9067383,-0.041992188,0.42578125,-0.30517578,0.18310547,0.36621094,0.0,0.0,0.0,-5.8392334,64.747925,11.56311
1766497866586,-0.9067383,-0.041992188,0.42578125,-0.30517578,0.18310547,0.36621094,0.0,0.0,0.0,-5.8776855,64.764404,11.425781
1766497866674,-0.89990234,-0.045898438,0.41552734,0.18310547,-0.24414062,-0.36621094,0.0,0.0,0.0,-5.8776855,64.764404,11.425781
1766497866686,-0.89990234,-0.045898438,0.41552734,0.18310547,-0.24414062,-0.36621094,0.0,0.0,0.0,-5.8172607,64.764404,11.513672
1766497866774,-0.91796875,-0.04296875,0.4194336,0.30517578,-0.24414062,-0.4272461,0.0,0.0,0.0,-5.8172607,64.764404,11.513672
1766497866786,-0.91796875,-0.04296875,0.4194336,0.30517578,-0.24414062,-0.4272461,0.0,0.0,0.0,-5.960083,64.747925,11.271973
1766497866874,-0.90185547,-0.049316406,0.42041016,-0.91552734,-0.24414062,0.12207031,0.0,0.0,0.0,-5.960083,64.747925,11.271973
1766497866885,-0.90185547,-0.049316406,0.42041016,-0.91552734,-0.24414062,0.12207031,0.0,0.0,0.0,-6.031494,64.75342,11.096191
1766497866973,-0.90527344,-0.04638672,0.4272461,0.48828125,0.36621094,-0.7324219,0.0,0.0,0.0,-6.031494,64.75342,11.096191
1766497866985,-0.90527344,-0.04638672,0.4272461,0.48828125,0.36621094,-0.7324219,0.0,0.0,0.0,-6.1029053,64.73694,10.925903
1766497867073,-0.9038086,-0.045898438,0.42236328,0.30517578,-0.061035156,0.0,0.0,0.0,0.0,-6.1029053,64.73694,10.925903
1766497867085,-0.9038086,-0.045898438,0.42236328,0.30517578,-0.061035156,0.0,0.0,0.0,0.0,-6.031494,64.714966,10.9313965
1766497867173,-0.9067383,-0.04638672,0.42333984,0.4272461,0.12207031,-0.061035156,0.0,0.0,0.0,-6.031494,64.714966,10.9313965
1766497867184,-0.9067383,-0.04638672,0.42333984,0.4272461,0.12207031,-0.061035156,0.0,0.0,0.0,-5.9820557,64.68201,10.942383
1766497867272,-0.90527344,-0.049316406,0.42333984,0.061035156,0.5493164,-0.24414062,0.0,0.0,0.0,-5.9820557,64.68201,10.942383
1766497867284,-0.90527344,-0.049316406,0.42333984,0.061035156,0.5493164,-0.24414062,0.0,0.0,0.0,-5.993042,64.69849,10.843506
1766497867372,-0.9033203,-0.045410156,0.42138672,-0.12207031,0.30517578,-0.30517578,0.0,0.0,0.0,-5.993042,64.69849,10.843506
1766497867384,-0.9033203,-0.045410156,0.42138672,-0.12207031,0.30517578,-0.30517578,0.0,0.0,0.0,-6.05896,64.70947,10.739136
1766497867472,-0.90527344,-0.047851562,0.42578125,-0.061035156,1.0986328,-0.36621094,0.0,0.0,0.0,-6.05896,64.70947,10.739136
1766497867484,-0.90527344,-0.047851562,0.42578125,-0.061035156,1.0986328,-0.36621094,0.0,0.0,0.0,-6.086426,64.714966,10.629272
1766497867572,-0.9033203,-0.044921875,0.421875,0.30517578,0.7324219,-0.61035156,0.0,0.0,0.0,-6.086426,64.714966,10.629272
1766497867583,-0.9033203,-0.044921875,0.421875,0.30517578,0.7324219,-0.61035156,0.0,0.0,0.0,-6.064453,64.74243,10.629272
1766497867671,-0.90478516,-0.041992188,0.42138672,-0.36621094,-0.18310547,-0.5493164,0.0,0.0,0.0,-6.064453,64.74243,10.629272
1766497867683,-0.90478516,-0.041992188,0.42138672,-0.36621094,-0.18310547,-0.5493164,0.0,0.0,0.0,-6.1688232,64.747925,10.574341
1766497867771,-0.9116211,-0.047851562,0.42138672,-0.12207031,0.7324219,-0.91552734,0.0,0.0,0.0,-6.1688232,64.747925,10.574341
1766497867783,-0.9116211,-0.047851562,0.42138672,-0.12207031,0.7324219,-0.91552734,0.0,0.0,0.0,-6.3171387,64.80286,10.387573
1766497867871,-0.89990234,-0.053710938,0.42382812,0.48828125,0.0,-0.8544922,0.0,0.0,0.0,-6.3171387,64.80286,10.387573
1766497867882,-0.89990234,-0.053710938,0.42382812,0.48828125,0.0,-0.8544922,0.0,0.0,0.0,-6.4434814,64.80835,10.134888
1766497867971,-0.9057617,-0.045898438,0.41845703,0.6713867,-0.36621094,-0.18310547,0.0,0.0,0.0,-6.4434814,64.80835,10.134888
1766497867982,-0.9057617,-0.045898438,0.41845703,0.6713867,-0.36621094,-0.18310547,0.0,0.0,0.0,-6.5039062,64.80835,10.05249
1766497868070,-0.91308594,-0.05029297,0.41748047,-1.5869141,-0.4272461,0.9765625,0.0,0.0,0.0,-6.5039062,64.80835,10.05249
1766497868082,-0.91308594,-0.05029297,0.41748047,-1.5869141,-0.4272461,0.9765625,0.0,0.0,0.0,-6.4874268,64.82483,10.129395
1766497868170,-0.9003906,-0.051757812,0.4243164,-0.061035156,1.4648438,-0.6713867,0.0,0.0,0.0,-6.4874268,64.82483,10.129395
1766497868182,-0.9003906,-0.051757812,0.4243164,-0.061035156,1.4648438,-0.6713867,0.0,0.0,0.0,-6.5148926,64.82483,10.1623535
1766497868270,-0.9042969,-0.044433594,0.42529297,-0.4272461,-0.24414062,0.061035156,0.0,0.0,0.0,-6.5148926,64.82483,10.1623535
1766497868281,-0.9042969,-0.044433594,0.42529297,-0.4272461,-0.24414062,0.061035156,0.0,0.0,0.0,-6.558838,64.80835,10.112915
1766497868369,-0.9033203,-0.052734375,0.42041016,-0.30517578,-0.6713867,0.24414062,0.0,0.0,0.0,-6.558838,64.80835,10.112915
1766497868381,-0.9033203,-0.052734375,0.42041016,-0.30517578,-0.6713867,0.24414062,0.0,0.0,0.0,-6.465454,64.80835,10.112915
1766497868469,-0.91308594,-0.04345703,0.41601562,-0.7324219,-0.5493164,1.3427734,0.0,0.0,0.0,-6.465454,64.80835,10.112915
1766497868481,-0.91308594,-0.04345703,0.41601562,-0.7324219,-0.5493164,1.3427734,0.0,0.0,0.0,-6.38855,64.84131,10.1953125
1766497868569,-0.90283203,-0.056152344,0.42089844,-2.0141602,-0.79345703,-0.061035156,0.0,0.0,0.0,-6.38855,64.84131,10.1953125
1766497868580,-0.90283203,-0.056152344,0.42089844,-2.0141602,-0.79345703,-0.061035156,0.0,0.0,0.0,-6.394043,64.80835,10.327148
1766497868669,-0.9086914,-0.041015625,0.4165039,-0.6713867,0.6713867,-0.30517578,0.0,0.0,0.0,-6.394043,64.80835,10.327148
1766497868680,-0.9086914,-0.041015625,0.4165039,-0.6713867,0.6713867,-0.30517578,0.0,0.0,0.0,-6.5753174,64.79736,10.26123
1766497868768,-0.9008789,-0.052246094,0.42285156,0.5493164,0.91552734,-0.9765625,0.0,0.0,0.0,-6.5753174,64.79736,10.26123
1766497868780,-0.9008789,-0.052246094,0.42285156,0.5493164,0.91552734,-0.9765625,0.0,0.0,0.0,-6.7071533,64.7699,10.057983
1766497868868,-0.90722656,-0.049804688,0.42089844,0.12207031,-0.12207031,0.24414062,0.0,0.0,0.0,-6.7071533,64.7699,10.057983
1766497868880,-0.90722656,-0.049804688,0.42089844,0.12207031,-0.12207031,0.24414062,0.0,0.0,0.0,-6.6467285,64.72046,10.118408
1766497868968,-0.9086914,-0.053710938,0.421875,-1.4038086,-0.12207031,-0.061035156,0.0,0.0,0.0,-6.6467285,64.72046,10.118408
1766497868979,-0.9086914,-0.053710938,0.421875,-1.4038086,-0.12207031,-0.061035156,0.0,0.0,0.0,-6.7456055,64.72595,10.030518
1766497869067,-0.90234375,-0.052734375,0.421875,-0.9765625,0.0,-1.0375977,0.0,0.0,0.0,-6.7456055,64.72595,10.030518
1766497869080,-0.90234375,-0.052734375,0.421875,-0.9765625,0.0,-1.0375977,0.0,0.0,0.0,-7.0806885,64.72595,9.73938
1766497869167,-0.9033203,-0.060546875,0.4267578,-0.9765625,0.0,-0.79345703,0.0,0.0,0.0,-7.0806885,64.72595,9.73938
1766497869179,-0.9033203,-0.060546875,0.4267578,-0.9765625,0.0,-0.79345703,0.0,0.0,0.0,-7.3114014,64.67651,9.453735
1766497869267,-0.9086914,-0.057128906,0.4189453,0.0,0.79345703,-0.24414062,0.0,0.0,0.0,-7.3114014,64.67651,9.453735
1766497869279,-0.9086914,-0.057128906,0.4189453,0.0,0.79345703,-0.24414062,0.0,0.0,0.0,-7.3883057,64.63257,9.387817
1766497869367,-0.89941406,-0.05078125,0.4267578,-0.36621094,-0.91552734,-0.61035156,0.0,0.0,0.0,-7.3883057,64.63257,9.387817
1766497869378,-0.89941406,-0.05078125,0.4267578,-0.36621094,-0.91552734,-0.61035156,0.0,0.0,0.0,-7.4871826,64.67651,9.255981
1766497869466,-0.89697266,-0.047851562,0.40771484,1.159668,0.12207031,-1.5258789,0.0,0.0,0.0,-7.4871826,64.67651,9.255981
1766497869478,-0.89697266,-0.047851562,0.40771484,1.159668,0.12207031,-1.5258789,0.0,0.0,0.0,-7.7838135,64.54468,8.893433
1766497869566,-0.9121094,-0.06298828,0.4169922,1.5258789,1.3427734,-0.9765625,0.0,0.0,0.0,-7.7838135,64.54468,8.893433
1766497869578,-0.9121094,-0.06298828,0.4169922,1.5258789,1.3427734,-0.9765625,0.0,0.0,0.0,-7.7838135,64.53369,8.75061
1766497869666,-0.89208984,-0.0703125,0.43554688,-0.4272461,-0.6713867,1.159668,0.0,0.0,0.0,-7.7838135,64.53369,8.75061
1766497869677,-0.89208984,-0.0703125,0.43554688,-0.4272461,-0.6713867,1.159668,0.0,0.0,0.0,-7.597046,64.49524,8.800049
1766497869766,-0.90234375,-0.05908203,0.43310547,-1.0375977,-2.0141602,1.7700195,0.0,0.0,0.0,-7.597046,64.49524,8.800049
1766497869777,-0.90234375,-0.05908203,0.43310547,-1.0375977,-2.0141602,1.7700195,0.0,0.0,0.0,-7.294922,64.34143,9.234009
1766497869865,-0.8959961,-0.05859375,0.4248047,0.18310547,-0.91552734,0.91552734,0.0,0.0,0.0,-7.294922,64.34143,9.234009
1766497869877,-0.8959961,-0.05859375,0.4248047,0.18310547,-0.91552734,0.91552734,0.0,0.0,0.0,-7.1136475,64.27551,9.387817
1766497869965,-0.90771484,-0.0546875,0.43115234,1.8310547,0.4272461,-0.24414062,0.0,0.0,0.0,-7.1136475,64.27551,9.387817
1766497869976,-0.90771484,-0.0546875,0.43115234,1.8310547,0.4272461,-0.24414062,0.0,0.0,0.0,-6.828003,64.15466,9.607544
1766497870065,-0.89160156,-0.05078125,0.4345703,1.2207031,-0.24414062,0.0,0.0,0.0,0.0,-6.828003,64.15466,9.607544
1766497870076,-0.89160156,-0.05078125,0.4345703,1.2207031,-0.24414062,0.0,0.0,0.0,0.0,-6.6851807,64.13269,9.640503
1766497870164,-0.9082031,-0.05029297,0.4404297,1.2207031,0.91552734,-0.6713867,0.0,0.0,0.0,-6.6851807,64.13269,9.640503
1766497870176,-0.9082031,-0.05029297,0.4404297,1.2207031,0.91552734,-0.6713867,0.0,0.0,0.0,-6.59729,64.07776,9.547119
1766497870264,-0.9008789,-0.05908203,0.43017578,0.9765625,0.6713867,-0.79345703,0.0,0.0,0.0,-6.59729,64.07776,9.547119
1766497870276,-0.9008789,-0.05908203,0.43017578,0.9765625,0.6713867,-0.79345703,0.0,0.0,0.0,-6.5203857,64.13818,9.283447
1766497870364,-0.9013672,-0.048828125,0.43554688,0.79345703,-2.319336,-0.61035156,0.0,0.0,0.0,-6.5203857,64.13818,9.283447
1766497870375,-0.9013672,-0.048828125,0.43554688,0.79345703,-2.319336,-0.61035156,0.0,0.0,0.0,-6.289673,64.03381,9.53064
1766497870464,-0.90478516,-0.056640625,0.42626953,-1.7700195,-0.18310547,-0.18310547,0.0,0.0,0.0,-6.289673,64.03381,9.53064
1766497870475,-0.90478516,-0.056640625,0.42626953,-1.7700195,-0.18310547,-0.18310547,0.0,0.0,0.0,-6.564331,64.02832,9.18457
1766497870563,-0.8881836,-0.053222656,0.44140625,0.48828125,-0.7324219,0.061035156,0.0,0.0,0.0,-6.564331,64.02832,9.18457
1766497870575,-0.8881836,-0.053222656,0.44140625,0.48828125,-0.7324219,0.061035156,0.0,0.0,0.0,-6.4819336,63.97888,9.217529
1766497870663,-0.8979492,-0.052246094,0.44384766,0.0,-0.79345703,-0.48828125,0.0,0.0,0.0,-6.4819336,63.97888,9.217529
1766497870675,-0.8979492,-0.052246094,0.44384766,0.0,-0.79345703,-0.48828125,0.0,0.0,0.0,-6.333618,63.858032,9.349365
1766497870763,-0.9057617,-0.05419922,0.43701172,-1.7089844,0.18310547,-0.12207031,0.0,0.0,0.0,-6.333618,63.858032,9.349365
1766497870775,-0.9057617,-0.05419922,0.43701172,-1.7089844,0.18310547,-0.12207031,0.0,0.0,0.0,-6.4050293,63.808594,9.146118
1766497870863,-0.8935547,-0.037597656,0.42333984,0.9765625,1.3427734,-0.91552734,0.0,0.0,0.0,-6.4050293,63.808594,9.146118
1766497870874,-0.8935547,-0.037597656,0.42333984,0.9765625,1.3427734,-0.91552734,0.0,0.0,0.0,-6.6796875,63.847046,8.8220215
1766497870962,-0.89404297,-0.048339844,0.43652344,-0.18310547,-1.2207031,0.7324219,0.0,0.0,0.0,-6.6796875,63.847046,8.8220215
1766497870974,-0.89404297,-0.048339844,0.43652344,-0.18310547,-1.2207031,0.7324219,0.0,0.0,0.0,-6.657715,63.83606,8.772583
1766497871062,-0.89990234,-0.053222656,0.4428711,-1.8920898,0.5493164,0.61035156,0.0,0.0,0.0,-6.657715,63.83606,8.772583
1766497871074,-0.89990234,-0.053222656,0.4428711,-1.8920898,0.5493164,0.61035156,0.0,0.0,0.0,-6.5753174,63.781128,8.887939
1766497871162,-0.89208984,-0.052246094,0.4375,-1.7089844,-0.8544922,0.18310547,0.0,0.0,0.0,-6.5753174,63.781128,8.887939
1766497871173,-0.89208984,-0.052246094,0.4375,-1.7089844,-0.8544922,0.18310547,0.0,0.0,0.0,-6.8115234,63.83606,8.64624
1766497871262,-0.89453125,-0.052246094,0.44140625,0.4272461,-0.6713867,-0.48828125,0.0,0.0,0.0,-6.8115234,63.83606,8.64624
1766497871273,-0.89453125,-0.052246094,0.44140625,0.4272461,-0.6713867,-0.48828125,0.0,0.0,0.0,-6.7785645,63.720703,8.602295
1766497871361,-0.8925781,-0.05517578,0.4345703,-0.24414062,0.61035156,-1.7089844,0.0,0.0,0.0,-6.7785645,63.720703,8.602295
1766497871373,-0.8925781,-0.05517578,0.4345703,-0.24414062,0.61035156,-1.7089844,0.0,0.0,0.0,-7.025757,63.737183,8.223267
1766497871461,-0.9008789,-0.04345703,0.44335938,4.9438477,-0.79345703,-1.7700195,0.0,0.0,0.0,-7.025757,63.737183,8.223267
1766497871473,-0.9008789,-0.04345703,0.44335938,4.9438477,-0.79345703,-1.7700195,0.0,0.0,0.0,-6.9488525,63.775635,8.12439
1766497871561,-0.9033203,-0.056152344,0.43066406,2.4414062,0.30517578,-2.380371,0.0,0.0,0.0,-6.9488525,63.775635,8.12439
1766497871572,-0.9033203,-0.056152344,0.43066406,2.4414062,0.30517578,-2.380371,0.0,0.0,0.0,-6.965332,63.632812,7.6135254
1766497871660,-0.9082031,-0.04736328,0.43017578,2.380371,2.4414062,-1.4648438,0.0,0.0,0.0,-6.965332,63.632812,7.6135254
1766497871672,-0.9082031,-0.04736328,0.43017578,2.380371,2.4414062,-1.4648438,0.0,0.0,0.0,-7.2180176,63.73169,7.1795654
1766497871760,-0.90527344,-0.071777344,0.4375,-3.3569336,0.8544922,-2.9296875,0.0,0.0,0.0,-7.2180176,63.73169,7.1795654
1766497871772,-0.90527344,-0.071777344,0.4375,-3.3569336,0.8544922,-2.9296875,0.0,0.0,0.0,-7.67395,63.880005,6.7126465
1766497871860,-0.9326172,-0.11425781,0.44580078,-17.8833,2.1972656,-6.4697266,0.0,0.0,0.0,-7.67395,63.880005,6.7126465
1766497871872,-0.9326172,-0.11425781,0.44580078,-17.8833,2.1972656,-6.4697266,0.0,0.0,0.0,-9.244995,63.90747,5.789795
1766497871960,-0.88916016,-0.04736328,0.44091797,-10.559082,1.4038086,-0.5493164,0.0,0.0,0.0,-9.244995,63.90747,5.789795
1766497871971,-0.88916016,-0.04736328,0.44091797,-10.559082,1.4038086,-0.5493164,0.0,0.0,0.0,-12.930908,63.92395,3.8012695
1766497872059,-0.90722656,-0.09716797,0.4399414,-5.2490234,18.615723,-17.028809,0.0,0.0,0.0,-12.930908,63.92395,3.8012695
1766497872071,-0.90722656,-0.09716797,0.4399414,-5.2490234,18.615723,-17.028809,0.0,0.0,0.0,-15.238037,64.401855,2.4005127
1766497872159,-0.87158203,-0.1850586,0.38330078,-9.58252,0.18310547,-12.207031,0.0,0.0,0.0,-15.238037,64.401855,2.4005127
1766497872171,-0.87158203,-0.1850586,0.38330078,-9.58252,0.18310547,-12.207031,0.0,0.0,0.0,-19.423828,64.78638,-1.2689209
1766497872259,-0.9350586,-0.18847656,0.3930664,-9.094238,16.784668,-12.268066,0.0,0.0,0.0,-19.423828,64.78638,-1.2689209
1766497872271,-0.9350586,-0.18847656,0.3930664,-9.094238,16.784668,-12.268066,0.0,0.0,0.0,-23.356934,64.989624,-4.7296143
1766497872359,-0.90283203,-0.21826172,0.3618164,-14.038086,2.2583008,-15.625,0.0,0.0,0.0,-23.356934,64.989624,-4.7296143
1766497872370,-0.90283203,-0.21826172,0.3618164,-14.038086,2.2583008,-15.625,0.0,0.0,0.0,-28.092041,65.06653,-8.673706
1766497872458,-0.86376953,-0.21044922,0.3569336,-15.258789,7.2021484,-8.483887,0.0,0.0,0.0,-28.092041,65.06653,-8.673706
1766497872470,-0.86376953,-0.21044922,0.3569336,-15.258789,7.2021484,-8.483887,0.0,0.0,0.0,-32.39319,64.96765,-11.766357
1766497872558,-0.91748047,-0.25146484,0.3305664,-13.061523,-1.3427734,-8.056641,0.0,0.0,0.0,-32.39319,64.96765,-11.766357
1766497872570,-0.91748047,-0.25146484,0.3305664,-13.061523,-1.3427734,-8.056641,0.0,0.0,0.0,-35.233154,64.64905,-13.31543
1766497872658,-0.90185547,-0.27783203,0.32080078,-10.559082,12.573242,-13.671875,0.0,0.0,0.0,-35.233154,64.64905,-13.31543
1766497872669,-0.90185547,-0.27783203,0.32080078,-10.559082,12.573242,-13.671875,0.0,0.0,0.0,-39.138794,64.57214,-16.452026
1766497872758,-0.88720703,-0.30908203,0.3046875,-10.314941,5.3100586,-14.526367,0.0,0.0,0.0,-39.138794,64.57214,-16.452026
1766497872769,-0.88720703,-0.30908203,0.3046875,-10.314941,5.3100586,-14.526367,0.0,0.0,0.0,-43.406982,64.226074,-20.25879
1766497872857,-0.88671875,-0.3251953,0.27539062,-10.070801,3.6010742,-9.887695,0.0,0.0,0.0,-43.406982,64.226074,-20.25879
1766497872870,-0.88671875,-0.3251953,0.27539062,-10.070801,3.6010742,-9.887695,0.0,0.0,0.0,-46.713867,63.654785,-22.681274
1766497872957,-0.9140625,-0.3383789,0.28710938,-10.7421875,5.1879883,-4.0893555,0.0,0.0,0.0,-46.713867,63.654785,-22.681274
1766497872969,-0.9140625,-0.3383789,0.28710938,-10.7421875,5.1879883,-4.0893555,0.0,0.0,0.0,-48.757324,63.55591,-23.56018
1766497873057,-0.89404297,-0.34765625,0.2553711,-6.4697266,2.746582,-8.361816,0.0,0.0,0.0,-48.757324,63.55591,-23.56018
1766497873069,-0.89404297,-0.34765625,0.2553711,-6.4697266,2.746582,-8.361816,0.0,0.0,0.0,-51.394043,63.149414,-26.07605
1766497873156,-0.88623047,-0.38232422,0.25878906,-4.5776367,4.699707,-8.300781,0.0,0.0,0.0,-51.394043,63.149414,-26.07605
1766497873168,-0.88623047,-0.38232422,0.25878906,-4.5776367,4.699707,-8.300781,0.0,0.0,0.0,-53.6792,62.786865,-27.960205
1766497873256,-0.89746094,-0.3701172,0.2529297,-9.643555,2.5024414,-2.380371,0.0,0.0,0.0,-53.6792,62.786865,-27.960205
1766497873268,-0.89746094,-0.3701172,0.2529297,-9.643555,2.5024414,-2.380371,0.0,0.0,0.0,-55.426025,62.506714,-29.146729
1766497873356,-0.88427734,-0.40673828,0.23095703,-8.544922,5.9814453,-8.911133,0.0,0.0,0.0,-55.426025,62.506714,-29.146729
1766497873367,-0.88427734,-0.40673828,0.23095703,-8.544922,5.9814453,-8.911133,0.0,0.0,0.0,-57.35962,62.36389,-30.426636
1766497873456,-0.8833008,-0.42041016,0.19433594,-2.746582,0.79345703,-3.7231445,0.0,0.0,0.0,-57.35962,62.36389,-30.426636
1766497873467,-0.8833008,-0.42041016,0.19433594,-2.746582,0.79345703,-3.7231445,0.0,0.0,0.0,-59.474487,62.061768,-32.233887
1766497873555,-0.8466797,-0.40966797,0.22070312,1.2817383,2.6855469,-1.4648438,0.0,0.0,0.0,-59.474487,62.061768,-32.233887
1766497873567,-0.8466797,-0.40966797,0.22070312,1.2817383,2.6855469,-1.4648438,0.0,0.0,0.0,-59.919434,61.831055,-32.382202
1766497873655,-0.8647461,-0.4111328,0.19628906,11.230469,5.004883,1.8920898,0.0,0.0,0.0,-59.919434,61.831055,-32.382202
1766497873667,-0.8647461,-0.4111328,0.19628906,11.230469,5.004883,1.8920898,0.0,0.0,0.0,-59.804077,62.05078,-33.118286
1766497873755,-0.9116211,-0.4267578,0.21142578,10.009766,6.5307617,3.3569336,0.0,0.0,0.0,-59.804077,62.05078,-33.118286
1766497873766,-0.9116211,-0.4267578,0.21142578,10.009766,6.5307617,3.3569336,0.0,0.0,0.0,-59.89746,62.57263,-34.45862
1766497873855,-0.87060547,-0.44091797,0.20800781,2.5024414,6.164551,2.6245117,0.0,0.0,0.0,-59.89746,62.57263,-34.45862
1766497873866,-0.87060547,-0.44091797,0.20800781,2.5024414,6.164551,2.6245117,0.0,0.0,0.0,-60.19409,63.067017,-35.200195
1766497873954,-0.90185547,-0.4140625,0.20214844,4.8828125,1.0375977,6.164551,0.0,0.0,0.0,-60.19409,63.067017,-35.200195
1766497873966,-0.90185547,-0.4140625,0.20214844,4.8828125,1.0375977,6.164551,0.0,0.0,0.0,-60.57312,63.484497,-35.93628
1766497874054,-0.87890625,-0.3461914,0.24023438,7.751465,-12.512207,11.413574,0.0,0.0,0.0,-60.57312,63.484497,-35.93628
1766497874066,-0.87890625,-0.3461914,0.24023438,7.751465,-12.512207,11.413574,0.0,0.0,0.0,-57.98584,63.86902,-33.36548
1766497874154,-0.9370117,-0.36328125,0.27685547,2.9296875,-13.793945,9.521484,0.0,0.0,0.0,-57.98584,63.86902,-33.36548
1766497874165,-0.9370117,-0.36328125,0.27685547,2.9296875,-13.793945,9.521484,0.0,0.0,0.0,-53.8385,64.055786,-29.20166
1766497874254,-0.9165039,-0.33984375,0.25976562,1.2817383,-11.291504,2.6855469,0.0,0.0,0.0,-53.8385,64.055786,-29.20166
1766497874265,-0.9165039,-0.33984375,0.25976562,1.2817383,-11.291504,2.6855469,0.0,0.0,0.0,-51.5094,63.6438,-27.037354
1766497874353,-0.9086914,-0.3154297,0.29248047,3.1738281,0.30517578,0.79345703,0.0,0.0,0.0,-51.5094,63.6438,-27.037354
1766497874365,-0.9086914,-0.3154297,0.29248047,3.1738281,0.30517578,0.79345703,0.0,0.0,0.0,-49.938354,63.528442,-25.20813
1766497874453,-0.89697266,-0.328125,0.29296875,0.7324219,-4.8217773,4.333496,0.0,0.0,0.0,-49.938354,63.528442,-25.20813
1766497874465,-0.89697266,-0.328125,0.29296875,0.7324219,-4.8217773,4.333496,0.0,0.0,0.0,-48.933105,63.66028,-24.46106
1766497874553,-0.91308594,-0.35595703,0.28955078,-0.24414062,-3.2958984,4.699707,0.0,0.0,0.0,-48.933105,63.66028,-24.46106
1766497874565,-0.91308594,-0.35595703,0.28955078,-0.24414062,-3.2958984,4.699707,0.0,0.0,0.0,-47.911377,63.76465,-23.527222
1766497874652,-0.89404297,-0.3413086,0.31103516,-0.061035156,-0.24414062,0.9765625,0.0,0.0,0.0,-47.911377,63.76465,-23.527222
1766497874664,-0.89404297,-0.3413086,0.31103516,-0.061035156,-0.24414062,0.9765625,0.0,0.0,0.0,-47.422485,63.73169,-22.999878
1766497874752,-0.8911133,-0.31152344,0.3022461,-0.12207031,-2.1362305,0.36621094,0.0,0.0,0.0,-47.422485,63.73169,-22.999878
1766497874764,-0.8911133,-0.31152344,0.3022461,-0.12207031,-2.1362305,0.36621094,0.0,0.0,0.0,-46.82373,63.50647,-22.247314
1766497874852,-0.90625,-0.31933594,0.30419922,0.7324219,-7.2631836,2.746582,0.0,0.0,0.0,-46.82373,63.50647,-22.247314
1766497874863,-0.90625,-0.31933594,0.30419922,0.7324219,-7.2631836,2.746582,0.0,0.0,0.0,-46.323853,63.270264,-22.033081
1766497874952,-0.8979492,-0.30029297,0.29833984,7.9956055,-1.953125,-5.004883,0.0,0.0,0.0,-46.323853,63.270264,-22.033081
1766497874963,-0.8979492,-0.30029297,0.29833984,7.9956055,-1.953125,-5.004883,0.0,0.0,0.0,-45.340576,62.924194,-21.489258
1766497875051,-0.89160156,-0.3232422,0.31689453,0.0,-2.8076172,-1.4648438,0.0,0.0,0.0,-45.340576,62.924194,-21.489258
1766497875063,-0.89160156,-0.3232422,0.31689453,0.0,-2.8076172,-1.4648438,0.0,0.0,0.0,-45.04944,62.58911,-21.533203
1766497875151,-0.8959961,-0.32910156,0.30615234,2.8076172,3.112793,-1.4038086,0.0,0.0,0.0,-45.04944,62.58911,-21.533203
1766497875163,-0.8959961,-0.32910156,0.30615234,2.8076172,3.112793,-1.4038086,0.0,0.0,0.0,-45.368042,62.611084,-22.120972
1766497875251,-0.88427734,-0.3251953,0.31933594,1.2817383,-3.6621094,-2.0751953,0.0,0.0,0.0,-45.368042,62.611084,-22.120972
1766497875262,-0.88427734,-0.3251953,0.31933594,1.2817383,-3.6621094,-2.0751953,0.0,0.0,0.0,-45.444946,62.561646,-22.423096
1766497875351,-0.8671875,-0.35302734,0.3251953,4.3945312,2.0141602,-5.9814453,0.0,0.0,0.0,-45.444946,62.561646,-22.423096
1766497875363,-0.8671875,-0.35302734,0.3251953,4.3945312,2.0141602,-5.9814453,0.0,0.0,0.0,-45.840454,62.314453,-23.307495
1766497875450,-0.87939453,-0.31835938,0.33691406,2.746582,0.0,-4.5166016,0.0,0.0,0.0,-45.840454,62.314453,-23.307495
1766497875462,-0.87939453,-0.31835938,0.33691406,2.746582,0.0,-4.5166016,0.0,0.0,0.0,-46.19751,61.677246,-23.999634
1766497875550,-0.90478516,-0.36376953,0.3095703,1.6479492,1.4038086,-2.6855469,0.0,0.0,0.0,-46.19751,61.677246,-23.999634
1766497875561,-0.90478516,-0.36376953,0.3095703,1.6479492,1.4038086,-2.6855469,0.0,0.0,0.0,-46.35132,61.583862,-24.395142
1766497875650,-0.8847656,-0.32128906,0.32714844,2.319336,0.9765625,-1.4648438,0.0,0.0,0.0,-46.35132,61.583862,-24.395142
1766497875661,-0.8847656,-0.32128906,0.32714844,2.319336,0.9765625,-1.4648438,0.0,0.0,0.0,-46.642456,61.627808,-24.927979
1766497875749,-0.86816406,-0.35302734,0.31396484,-2.6245117,-0.12207031,1.159668,0.0,0.0,0.0,-46.642456,61.627808,-24.927979
1766497875761,-0.86816406,-0.35302734,0.31396484,-2.6245117,-0.12207031,1.159668,0.0,0.0,0.0,-46.96106,61.64978,-25.422363
1766497875849,-0.88964844,-0.34277344,0.31591797,2.5634766,0.061035156,0.36621094,0.0,0.0,0.0,-46.96106,61.64978,-25.422363
1766497875861,-0.88964844,-0.34277344,0.31591797,2.5634766,0.061035156,0.36621094,0.0,0.0,0.0,-46.66992,61.59485,-25.032349
1766497875949,-0.87597656,-0.32763672,0.34326172,1.0986328,-0.61035156,0.18310547,0.0,0.0,0.0,-46.66992,61.59485,-25.032349
1766497875960,-0.87597656,-0.32763672,0.34326172,1.0986328,-0.61035156,0.18310547,0.0,0.0,0.0,-46.483154,61.677246,-24.724731
1766497876049,-0.8828125,-0.3461914,0.30664062,-1.8310547,0.79345703,1.4038086,0.0,0.0,0.0,-46.483154,61.677246,-24.724731
1766497876060,-0.8828125,-0.3461914,0.30664062,-1.8310547,0.79345703,1.4038086,0.0,0.0,0.0,-46.10962,61.54541,-24.312744
1766497876148,-0.88134766,-0.33251953,0.32910156,-0.12207031,1.2817383,-0.8544922,0.0,0.0,0.0,-46.10962,61.54541,-24.312744
1766497876160,-0.88134766,-0.33251953,0.32910156,-0.12207031,1.2817383,-0.8544922,0.0,0.0,0.0,-46.428223,61.660767,-24.494019
1766497876248,-0.87646484,-0.35107422,0.31347656,-0.061035156,0.6713867,0.36621094,0.0,0.0,0.0,-46.428223,61.660767,-24.494019
1766497876260,-0.87646484,-0.35107422,0.31347656,-0.061035156,0.6713867,0.36621094,0.0,0.0,0.0,-46.466675,61.732178,-24.499512
1766497876348,-0.8798828,-0.34423828,0.3173828,-0.61035156,-0.5493164,-0.5493164,0.0,0.0,0.0,-46.466675,61.732178,-24.499512
1766497876359,-0.8798828,-0.34423828,0.3173828,-0.61035156,-0.5493164,-0.5493164,0.0,0.0,0.0,-46.66992,61.693726,-24.664307
1766497876448,-0.89404297,-0.34423828,0.328125,-1.7089844,-2.1972656,0.8544922,0.0,0.0,0.0,-46.66992,61.693726,-24.664307
1766497876459,-0.89404297,-0.34423828,0.328125,-1.7089844,-2.1972656,0.8544922,0.0,0.0,0.0,-46.68091,61.710205,-24.472046
1766497876547,-0.8701172,-0.33544922,0.34521484,1.3427734,1.953125,0.8544922,0.0,0.0,0.0,-46.68091,61.710205,-24.472046
1766497876559,-0.8701172,-0.33544922,0.34521484,1.3427734,1.953125,0.8544922,0.0,0.0,0.0,-46.675415,61.68274,-24.488525
1766497876647,-0.8823242,-0.36035156,0.3125,-1.4038086,6.591797,-1.0375977,0.0,0.0,0.0,-46.675415,61.68274,-24.488525
1766497876658,-0.8823242,-0.36035156,0.3125,-1.4038086,6.591797,-1.0375977,0.0,0.0,0.0,-46.46118,61.710205,-24.197388
1766497876747,-0.9033203,-0.34765625,0.31445312,-0.91552734,1.4648438,-1.6479492,0.0,0.0,0.0,-46.46118,61.710205,-24.197388
1766497876758,-0.9033203,-0.34765625,0.31445312,-0.91552734,1.4648438,-1.6479492,0.0,0.0,0.0,-47.592773,61.968384,-25.158691
1766497876847,-0.8808594,-0.35058594,0.3173828,-1.3427734,0.7324219,0.5493164,0.0,0.0,0.0,-47.592773,61.968384,-25.158691
1766497876858,-0.8808594,-0.35058594,0.3173828,-1.3427734,0.7324219,0.5493164,0.0,0.0,0.0,-48.010254,61.918945,-25.62561
1766497876946,-0.9082031,-0.34375,0.2944336,3.6621094,-2.8076172,0.48828125,0.0,0.0,0.0,-48.010254,61.918945,-25.62561
1766497876958,-0.9082031,-0.34375,0.2944336,3.6621094,-2.8076172,0.48828125,0.0,0.0,0.0,-47.598267,61.918945,-25.32898
1766497877046,-0.8774414,-0.3388672,0.33154297,0.12207031,-1.0986328,-0.30517578,0.0,0.0,0.0,-47.598267,61.918945,-25.32898
1766497877058,-0.8774414,-0.3388672,0.33154297,0.12207031,-1.0986328,-0.30517578,0.0,0.0,0.0,-47.054443,61.864014,-25.004883
1766497877146,-0.87158203,-0.35791016,0.31591797,-0.79345703,0.061035156,1.7700195,0.0,0.0,0.0,-47.054443,61.864014,-25.004883
1766497877157,-0.87158203,-0.35791016,0.31591797,-0.79345703,0.061035156,1.7700195,0.0,0.0,0.0,-46.796265,61.847534,-24.730225
1766497877245,-0.88183594,-0.34765625,0.3310547,-0.24414062,-0.24414062,0.91552734,0.0,0.0,0.0,-46.796265,61.847534,-24.730225
1766497877257,-0.88183594,-0.34765625,0.3310547,-0.24414062,-0.24414062,0.91552734,0.0,0.0,0.0,-46.697388,62.01233,-24.384155
1766497877345,-0.87060547,-0.3486328,0.32177734,-3.4179688,2.5634766,0.91552734,0.0,0.0,0.0,-46.697388,62.01233,-24.384155
1766497877357,-0.87060547,-0.3486328,0.32177734,-3.4179688,2.5634766,0.91552734,0.0,0.0,0.0,-46.80725,62.094727,-24.362183
1766497877445,-0.9038086,-0.34277344,0.30078125,-2.5634766,-1.4038086,2.6245117,0.0,0.0,0.0,-46.80725,62.094727,-24.362183
1766497877456,-0.9038086,-0.34277344,0.30078125,-2.5634766,-1.4038086,2.6245117,0.0,0.0,0.0,-46.80725,62.14966,-24.186401
1766497877545,-0.88378906,-0.3383789,0.3310547,1.5869141,4.272461,-1.4038086,0.0,0.0,0.0,-46.80725,62.14966,-24.186401
1766497877556,-0.88378906,-0.3383789,0.3310547,1.5869141,4.272461,-1.4038086,0.0,0.0,0.0,-47.158813,62.314453,-24.719238
1766497877644,-0.88378906,-0.33740234,0.2998047,-4.272461,1.8310547,2.1972656,0.0,0.0,0.0,-47.158813,62.314453,-24.719238
1766497877656,-0.88378906,-0.33740234,0.2998047,-4.272461,1.8310547,2.1972656,0.0,0.0,0.0,-47.06543,62.42981,-24.25232
1766497877744,-0.8803711,-0.32080078,0.32373047,-3.6010742,-4.4555664,2.0141602,0.0,0.0,0.0,-47.06543,62.42981,-24.25232
1766497877756,-0.8803711,-0.32080078,0.32373047,-3.6010742,-4.4555664,2.0141602,0.0,0.0,0.0,-47.340088,62.62207,-24.09851
1766497877844,-0.8857422,-0.3251953,0.30126953,2.319336,2.8076172,-0.48828125,0.0,0.0,0.0,-47.340088,62.62207,-24.09851
1766497877856,-0.8857422,-0.3251953,0.30126953,2.319336,2.8076172,-0.48828125,0.0,0.0,0.0,-47.252197,62.578125,-24.060059
1766497877944,-0.87646484,-0.3383789,0.3017578,0.8544922,0.4272461,1.2207031,0.0,0.0,0.0,-47.252197,62.578125,-24.060059
1766497877955,-0.87646484,-0.3383789,0.3017578,0.8544922,0.4272461,1.2207031,0.0,0.0,0.0,-46.829224,62.633057,-23.675537
1766497878043,-0.8857422,-0.33398438,0.31152344,1.4038086,-2.0141602,1.5258789,0.0,0.0,0.0,-46.829224,62.633057,-23.675537
1766497878055,-0.8857422,-0.33398438,0.31152344,1.4038086,-2.0141602,1.5258789,0.0,0.0,0.0,-46.47766,62.69348,-23.362427
1766497878143,-0.8847656,-0.33544922,0.3203125,-2.5024414,-3.112793,2.6245117,0.0,0.0,0.0,-46.47766,62.69348,-23.362427
1766497878155,-0.8847656,-0.33544922,0.3203125,-2.5024414,-3.112793,2.6245117,0.0,0.0,0.0,-45.961304,62.660522,-22.69226
1766497878243,-0.8925781,-0.33251953,0.3154297,-3.2348633,-4.699707,2.1362305,0.0,0.0,0.0,-45.961304,62.660522,-22.69226
1766497878254,-0.8925781,-0.33251953,0.3154297,-3.2348633,-4.699707,2.1362305,0.0,0.0,0.0,-45.439453,62.50122,-21.862793
1766497878343,-0.8964844,-0.31396484,0.32910156,1.953125,-1.2207031,-1.4648438,0.0,0.0,0.0,-45.439453,62.50122,-21.862793
1766497878354,-0.8964844,-0.31396484,0.32910156,1.953125,-1.2207031,-1.4648438,0.0,0.0,0.0,-45.148315,62.352905,-21.533203
1766497878443,-0.88720703,-0.34814453,0.32617188,-3.0517578,-4.3945312,3.3569336,0.0,0.0,0.0,-45.148315,62.352905,-21.533203
1766497878454,-0.88720703,-0.34814453,0.32617188,-3.0517578,-4.3945312,3.3569336,0.0,0.0,0.0,-44.41223,62.193604,-20.874023
1766497878542,-0.8955078,-0.3154297,0.34521484,-1.6479492,-3.2348633,0.48828125,0.0,0.0,0.0,-44.41223,62.193604,-20.874023
1766497878554,-0.8955078,-0.3154297,0.34521484,-1.6479492,-3.2348633,0.48828125,0.0,0.0,0.0,-43.76953,62.06726,-19.835815
1766497878642,-0.88623047,-0.31103516,0.34814453,-1.159668,-0.9765625,-0.5493164,0.0,0.0,0.0,-43.76953,62.06726,-19.835815
1766497878653,-0.88623047,-0.31103516,0.34814453,-1.159668,-0.9765625,-0.5493164,0.0,0.0,0.0,-43.742065,61.913452,-19.923706
1766497878741,-0.88671875,-0.3203125,0.34033203,2.6855469,1.5869141,-2.6245117,0.0,0.0,0.0,-43.742065,61.913452,-19.923706
1766497878753,-0.88671875,-0.3203125,0.34033203,2.6855469,1.5869141,-2.6245117,0.0,0.0,0.0,-43.813477,61.896973,-20.291748
1766497878841,-0.87841797,-0.3251953,0.33789062,-0.6713867,0.5493164,0.6713867,0.0,0.0,0.0,-43.813477,61.896973,-20.291748
1766497878853,-0.87841797,-0.3251953,0.33789062,-0.6713867,0.5493164,0.6713867,0.0,0.0,0.0,-43.989258,61.935425,-20.714722
1766497878941,-0.88671875,-0.3334961,0.32617188,-0.24414062,4.638672,-1.4648438,0.0,0.0,0.0,-43.989258,61.935425,-20.714722
1766497878953,-0.88671875,-0.3334961,0.32617188,-0.24414062,4.638672,-1.4648438,0.0,0.0,0.0,-44.395752,62.045288,-21.209106
1766497879041,-0.8769531,-0.3227539,0.32666016,0.79345703,-0.18310547,-0.5493164,0.0,0.0,0.0,-44.395752,62.045288,-21.209106
1766497879053,-0.8769531,-0.3227539,0.32666016,0.79345703,-0.18310547,-0.5493164,0.0,0.0,0.0,-44.609985,62.056274,-21.51123
1766497879140,-0.89160156,-0.32763672,0.34570312,-0.61035156,-1.8310547,0.0,0.0,0.0,0.0,-44.609985,62.056274,-21.51123
1766497879152,-0.89160156,-0.32763672,0.34570312,-0.61035156,-1.8310547,0.0,0.0,0.0,0.0,-44.63745,62.02881,-21.555176
1766497879240,-0.8798828,-0.3256836,0.33642578,-0.7324219,-0.48828125,-0.4272461,0.0,0.0,0.0,-44.63745,62.02881,-21.555176
1766497879252,-0.8798828,-0.3256836,0.33642578,-0.7324219,-0.48828125,-0.4272461,0.0,0.0,0.0,-44.560547,61.92993,-21.566162
1766497879340,-0.88964844,-0.3359375,0.32861328,-0.79345703,0.36621094,1.0375977,0.0,0.0,0.0,-44.560547,61.92993,-21.566162
1766497879352,-0.88964844,-0.3359375,0.32861328,-0.79345703,0.36621094,1.0375977,0.0,0.0,0.0,-44.417725,61.957397,-21.505737
1766497879440,-0.8769531,-0.3227539,0.33203125,0.0,0.18310547,-0.6713867,0.0,0.0,0.0,-44.417725,61.957397,-21.505737
1766497879451,-0.8769531,-0.3227539,0.33203125,0.0,0.18310547,-0.6713867,0.0,0.0,0.0,-44.642944,62.01233,-21.76941
1766497879539,-0.8876953,-0.3305664,0.33740234,-0.061035156,1.2817383,-0.9765625,0.0,0.0,0.0,-44.642944,62.01233,-21.76941
1766497879551,-0.8876953,-0.3305664,0.33740234,-0.061035156,1.2817383,-0.9765625,0.0,0.0,0.0,-44.70337,62.017822,-21.934204
1766497879639,-0.88964844,-0.3310547,0.32617188,0.91552734,1.2207031,-1.2817383,0.0,0.0,0.0,-44.70337,62.017822,-21.934204
1766497879651,-0.88964844,-0.3310547,0.32617188,0.91552734,1.2207031,-1.2817383,0.0,0.0,0.0,-44.857178,61.951904,-22.214355
1766497879739,-0.8828125,-0.3305664,0.3334961,-1.2207031,0.8544922,0.0,0.0,0.0,0.0,-44.857178,61.951904,-22.214355
1766497879750,-0.8828125,-0.3305664,0.3334961,-1.2207031,0.8544922,0.0,0.0,0.0,0.0,-45.12085,62.006836,-22.521973
1766497879839,-0.8774414,-0.3388672,0.3227539,-0.18310547,1.2207031,0.79345703,0.0,0.0,0.0,-45.12085,62.006836,-22.521973
1766497879850,-0.8774414,-0.3388672,0.3227539,-0.18310547,1.2207031,0.79345703,0.0,0.0,0.0,-45.27466,62.144165,-22.714233
1766497879938,-0.8881836,-0.33544922,0.31933594,-0.24414062,-0.36621094,-0.36621094,0.0,0.0,0.0,-45.27466,62.144165,-22.714233
1766497879950,-0.8881836,-0.33544922,0.31933594,-0.24414062,-0.36621094,-0.36621094,0.0,0.0,0.0,-45.390015,62.182617,-22.785645
1766497880038,-0.8876953,-0.32666016,0.32373047,1.4648438,1.2207031,-1.2207031,0.0,0.0,0.0,-45.390015,62.182617,-22.785645
1766497880050,-0.8876953,-0.32666016,0.32373047,1.4648438,1.2207031,-1.2207031,0.0,0.0,0.0,-45.598755,62.14966,-23.076782
1766497880138,-0.8774414,-0.3359375,0.32226562,0.24414062,-0.36621094,-0.6713867,0.0,0.0,0.0,-45.598755,62.14966,-23.076782
1766497880149,-0.8774414,-0.3359375,0.32226562,0.24414062,-0.36621094,-0.6713867,0.0,0.0,0.0,-45.807495,62.15515,-23.450317
1766497880237,-0.8886719,-0.33642578,0.31347656,-0.24414062,0.61035156,-0.36621094,0.0,0.0,0.0,-45.807495,62.15515,-23.450317
1766497880249,-0.8886719,-0.33642578,0.31347656,-0.24414062,0.61035156,-0.36621094,0.0,0.0,0.0,-45.802002,62.10022,-23.373413
1766497880337,-0.8803711,-0.3310547,0.32421875,0.12207031,-0.79345703,0.12207031,0.0,0.0,0.0,-45.802002,62.10022,-23.373413
1766497880349,-0.8803711,-0.3310547,0.32421875,0.12207031,-0.79345703,0.12207031,0.0,0.0,0.0,-45.840454,62.072754,-23.340454
1766497880437,-0.8852539,-0.32861328,0.32958984,0.61035156,0.0,-0.18310547,0.0,0.0,0.0,-45.840454,62.072754,-23.340454
1766497880448,-0.8852539,-0.32861328,0.32958984,0.61035156,0.0,-0.18310547,0.0,0.0,0.0,-45.785522,62.094727,-23.225098
1766497880537,-0.8798828,-0.3310547,0.32373047,0.12207031,1.2207031,-0.061035156,0.0,0.0,0.0,-45.785522,62.094727,-23.225098
1766497880548,-0.8798828,-0.3310547,0.32373047,0.12207031,1.2207031,-0.061035156,0.0,0.0,0.0,-45.78003,62.078247,-23.285522
1766497880636,-0.88183594,-0.33544922,0.32617188,0.4272461,-0.8544922,-0.5493164,0.0,0.0,0.0,-45.78003,62.078247,-23.285522
1766497880648,-0.88183594,-0.33544922,0.32617188,0.4272461,-0.8544922,-0.5493164,0.0,0.0,0.0,-45.81299,62.017822,-23.33496
1766497880736,-0.8881836,-0.33496094,0.32763672,0.12207031,0.7324219,-0.91552734,0.0,0.0,0.0,-45.81299,62.017822,-23.33496
1766497880748,-0.8881836,-0.33496094,0.32763672,0.12207031,0.7324219,-0.91552734,0.0,0.0,0.0,-45.76355,62.01233,-23.269043
1766497880836,-0.8798828,-0.3359375,0.31982422,0.24414062,1.3427734,-0.7324219,0.0,0.0,0.0,-45.76355,62.01233,-23.269043
1766497880848,-0.8798828,-0.3359375,0.31982422,0.24414062,1.3427734,-0.7324219,0.0,0.0,0.0,-45.90088,61.990356,-23.494263
1766497880935,-0.8852539,-0.33544922,0.32421875,0.24414062,-0.7324219,0.0,0.0,0.0,0.0,-45.90088,61.990356,-23.494263
1766497880947,-0.8852539,-0.33544922,0.32421875,0.24414062,-0.7324219,0.0,0.0,0.0,0.0,-45.994263,62.02881,-23.565674
1766497881035,-0.8823242,-0.33544922,0.32128906,0.24414062,0.12207031,-0.36621094,0.0,0.0,0.0,-45.994263,62.02881,-23.565674
1766497881047,-0.8823242,-0.33544922,0.32128906,0.24414062,0.12207031,-0.36621094,0.0,0.0,0.0,-45.95581,62.006836,-23.615112
1766497881135,-0.88916016,-0.33789062,0.32421875,3.2348633,-2.5634766,-0.24414062,0.0,0.0,0.0,-45.95581,62.006836,-23.615112
1766497881147,-0.88916016,-0.33789062,0.32421875,3.2348633,-2.5634766,-0.24414062,0.0,0.0,0.0,-45.889893,62.01233,-23.642578
1766497881235,-0.8847656,-0.3305664,0.3232422,2.746582,0.061035156,-1.0986328,0.0,0.0,0.0,-45.889893,62.01233,-23.642578
1766497881247,-0.8847656,-0.3305664,0.3232422,2.746582,0.061035156,-1.0986328,0.0,0.0,0.0,-45.27466,61.704712,-23.258057
1766497881334,-0.88183594,-0.34033203,0.3388672,2.8686523,0.91552734,-1.2817383,0.0,0.0,0.0,-45.27466,61.704712,-23.258057
1766497881347,-0.88183594,-0.34033203,0.3388672,2.8686523,0.91552734,-1.2817383,0.0,0.0,0.0,-45.357056,61.693726,-23.615112
1766497881434,-0.8779297,-0.33496094,0.33251953,2.5634766,-2.0751953,-0.61035156,0.0,0.0,0.0,-45.357056,61.693726,-23.615112
1766497881446,-0.8779297,-0.33496094,0.33251953,2.5634766,-2.0751953,-0.61035156,0.0,0.0,0.0,-45.043945,61.534424,-23.582153
1766497881534,-0.87841797,-0.3330078,0.3383789,1.4038086,2.9907227,-0.061035156,0.0,0.0,0.0,-45.043945,61.534424,-23.582153
1766497881546,-0.87841797,-0.3330078,0.3383789,1.4038086,2.9907227,-0.061035156,0.0,0.0,0.0,-45.03296,61.622314,-23.708496
1766497881634,-0.8803711,-0.34375,0.3227539,-0.91552734,2.319336,-2.0141602,0.0,0.0,0.0,-45.03296,61.622314,-23.708496
1766497881645,-0.8803711,-0.34375,0.3227539,-0.91552734,2.319336,-2.0141602,0.0,0.0,0.0,-45.510864,61.64978,-24.20288
1766497881733,-0.8876953,-0.33740234,0.32617188,0.91552734,0.9765625,-1.0375977,0.0,0.0,0.0,-45.510864,61.64978,-24.20288
1766497881745,-0.8876953,-0.33740234,0.32617188,0.91552734,0.9765625,-1.0375977,0.0,0.0,0.0,-45.769043,61.64978,-24.32373
1766497881833,-0.87060547,-0.34814453,0.33154297,-2.6245117,-0.7324219,0.7324219,0.0,0.0,0.0,-45.769043,61.64978,-24.32373
1766497881845,-0.87060547,-0.34814453,0.33154297,-2.6245117,-0.7324219,0.7324219,0.0,0.0,0.0,-45.97229,61.69922,-24.44458
1766497881933,-0.89746094,-0.328125,0.32714844,-2.746582,-2.9296875,3.6010742,0.0,0.0,0.0,-45.97229,61.69922,-24.44458
1766497881944,-0.89746094,-0.328125,0.32714844,-2.746582,-2.9296875,3.6010742,0.0,0.0,0.0,-45.70862,61.710205,-23.807373
1766497882033,-0.86572266,-0.33642578,0.31835938,-0.24414062,0.0,-0.79345703,0.0,0.0,0.0,-45.70862,61.710205,-23.807373
1766497882044,-0.86572266,-0.33642578,0.31835938,-0.24414062,0.0,-0.79345703,0.0,0.0,0.0,-45.357056,61.567383,-23.269043
1766497882132,-0.8754883,-0.3305664,0.3334961,-0.79345703,-0.12207031,-1.159668,0.0,0.0,0.0,-45.357056,61.567383,-23.269043
1766497882144,-0.8754883,-0.3305664,0.3334961,-0.79345703,-0.12207031,-1.159668,0.0,0.0,0.0,-45.60974,61.567383,-23.406372
1766497882232,-0.88427734,-0.3383789,0.31445312,0.6713867,3.7231445,-1.0375977,0.0,0.0,0.0,-45.60974,61.567383,-23.406372
1766497882244,-0.88427734,-0.3383789,0.31445312,0.6713867,3.7231445,-1.0375977,0.0,0.0,0.0,-45.845947,61.627808,-23.686523
1766497882332,-0.87890625,-0.34375,0.3203125,2.319336,6.5307617,-2.6245117,0.0,0.0,0.0,-45.845947,61.627808,-23.686523
1766497882343,-0.87890625,-0.34375,0.3203125,2.319336,6.5307617,-2.6245117,0.0,0.0,0.0,-46.63147,61.84204,-24.785156
1766497882432,-0.8886719,-0.34716797,0.3173828,-0.36621094,3.2348633,-0.6713867,0.0,0.0,0.0,-46.63147,61.84204,-24.785156
1766497882443,-0.8886719,-0.34716797,0.3173828,-0.36621094,3.2348633,-0.6713867,0.0,0.0,0.0,-47.406006,62.06726,-25.664062
1766497882531,-0.8852539,-0.34277344,0.30126953,1.3427734,2.1362305,-0.48828125,0.0,0.0,0.0,-47.406006,62.06726,-25.664062
1766497882543,-0.8852539,-0.34277344,0.30126953,1.3427734,2.1362305,-0.48828125,0.0,0.0,0.0,-47.60376,62.17163,-25.900269
1766497882631,-0.8808594,-0.34521484,0.2998047,1.8920898,-0.12207031,-0.36621094,0.0,0.0,0.0,-47.60376,62.17163,-25.900269
1766497882643,-0.8808594,-0.34521484,0.2998047,1.8920898,-0.12207031,-0.36621094,0.0,0.0,0.0,-47.669678,62.20459,-26.081543
1766497882731,-0.88427734,-0.34472656,0.3095703,2.5024414,-0.4272461,0.061035156,0.0,0.0,0.0,-47.669678,62.20459,-26.081543
1766497882742,-0.88427734,-0.34472656,0.3095703,2.5024414,-0.4272461,0.061035156,0.0,0.0,0.0,-47.51587,62.199097,-25.889282
1766497882830,-0.8730469,-0.33154297,0.33203125,1.0986328,1.2207031,0.48828125,0.0,0.0,0.0,-47.51587,62.199097,-25.889282
1766497882842,-0.8730469,-0.33154297,0.33203125,1.0986328,1.2207031,0.48828125,0.0,0.0,0.0,-47.24121,62.111206,-25.691528
1766497882930,-0.9057617,-0.34960938,0.31201172,-1.5869141,-1.5869141,1.159668,0.0,0.0,0.0,-47.24121,62.111206,-25.691528
1766497882942,-0.9057617,-0.34960938,0.31201172,-1.5869141,-1.5869141,1.159668,0.0,0.0,0.0,-47.076416,62.13318,-25.515747
1766497883030,-0.8666992,-0.3334961,0.32080078,-0.9765625,-1.3427734,1.8920898,0.0,0.0,0.0,-47.076416,62.13318,-25.515747
1766497883042,-0.8666992,-0.3334961,0.32080078,-0.9765625,-1.3427734,1.8920898,0.0,0.0,0.0,-47.08191,62.248535,-25.394897
1766497883130,-0.89208984,-0.3466797,0.3125,-2.4414062,2.319336,2.2583008,0.0,0.0,0.0,-47.08191,62.248535,-25.394897
1766497883141,-0.89208984,-0.3466797,0.3125,-2.4414062,2.319336,2.2583008,0.0,0.0,0.0,-46.988525,62.374878,-25.098267
1766497883229,-0.8803711,-0.3232422,0.31298828,-3.2958984,0.30517578,2.9907227,0.0,0.0,0.0,-46.988525,62.374878,-25.098267
1766497883241,-0.8803711,-0.3232422,0.31298828,-3.2958984,0.30517578,2.9907227,0.0,0.0,0.0,-47.06543,62.633057,-24.631348
1766497883329,-0.9013672,-0.3310547,0.31347656,0.5493164,0.7324219,-0.5493164,0.0,0.0,0.0,-47.06543,62.633057,-24.631348
1766497883341,-0.9013672,-0.3310547,0.31347656,0.5493164,0.7324219,-0.5493164,0.0,0.0,0.0,-47.005005,62.79236,-24.400635
1766497883429,-0.8911133,-0.33203125,0.30078125,0.18310547,1.5258789,-1.2207031,0.0,0.0,0.0,-47.005005,62.79236,-24.400635
1766497883440,-0.8911133,-0.33203125,0.30078125,0.18310547,1.5258789,-1.2207031,0.0,0.0,0.0,-47.213745,62.819824,-24.735718
1766497883529,-0.89160156,-0.3334961,0.296875,-0.61035156,0.48828125,0.79345703,0.0,0.0,0.0,-47.213745,62.819824,-24.735718
1766497883540,-0.89160156,-0.3334961,0.296875,-0.61035156,0.48828125,0.79345703,0.0,0.0,0.0,-47.37854,62.885742,-24.916992
1766497883628,-0.89208984,-0.32910156,0.30664062,-1.8310547,-0.12207031,0.0,0.0,0.0,0.0,-47.37854,62.885742,-24.916992
1766497883640,-0.89208984,-0.32910156,0.30664062,-1.8310547,-0.12207031,0.0,0.0,0.0,0.0,-47.543335,62.98462,-24.856567
1766497883728,-0.89746094,-0.3383789,0.3017578,-1.4648438,1.7089844,-1.5258789,0.0,0.0,0.0,-47.543335,62.98462,-24.856567
1766497883740,-0.89746094,-0.3383789,0.3017578,-1.4648438,1.7089844,-1.5258789,0.0,0.0,0.0,-47.680664,62.9187,-24.801636
1766497883828,-0.89160156,-0.33642578,0.30419922,-0.8544922,1.5258789,-1.3427734,0.0,0.0,0.0,-47.680664,62.9187,-24.801636
1766497883839,-0.89160156,-0.33642578,0.30419922,-0.8544922,1.5258789,-1.3427734,0.0,0.0,0.0,-48.2135,62.946167,-25.257568
1766497883928,-0.8911133,-0.34375,0.296875,-2.1362305,-0.18310547,0.5493164,0.0,0.0,0.0,-48.2135,62.946167,-25.257568
1766497883939,-0.8911133,-0.34375,0.296875,-2.1362305,-0.18310547,0.5493164,0.0,0.0,0.0,-48.581543,62.973633,-25.477295
1766497884027,-0.8989258,-0.33740234,0.29003906,0.4272461,0.7324219,-0.30517578,0.0,0.0,0.0,-48.581543,62.973633,-25.477295
1766497884039,-0.8989258,-0.33740234,0.29003906,0.4272461,0.7324219,-0.30517578,0.0,0.0,0.0,-48.554077,62.979126,-25.339966
1766497884127,-0.8886719,-0.3388672,0.28759766,3.0517578,1.0375977,-1.4038086,0.0,0.0,0.0,-48.554077,62.979126,-25.339966
1766497884138,-0.8886719,-0.3388672,0.28759766,3.0517578,1.0375977,-1.4038086,0.0,0.0,0.0,-48.64746,62.979126,-25.60913
1766497884227,-0.88671875,-0.3413086,0.3071289,-0.4272461,-0.9765625,0.24414062,0.0,0.0,0.0,-48.64746,62.979126,-25.60913
1766497884238,-0.88671875,-0.3413086,0.3071289,-0.4272461,-0.9765625,0.24414062,0.0,0.0,0.0,-48.619995,62.957153,-25.675049
1766497884326,-0.890625,-0.32617188,0.2993164,3.4179688,-0.61035156,-1.5258789,0.0,0.0,0.0,-48.619995,62.957153,-25.675049
1766497884338,-0.890625,-0.32617188,0.2993164,3.4179688,-0.61035156,-1.5258789,0.0,0.0,0.0,-48.345337,62.841797,-25.361938
1766497884426,-0.89404297,-0.35498047,0.30517578,1.8310547,-1.953125,-0.6713867,0.0,0.0,0.0,-48.345337,62.841797,-25.361938
1766497884438,-0.89404297,-0.35498047,0.30517578,1.8310547,-1.953125,-0.6713867,0.0,0.0,0.0,-48.27942,62.7594,-25.669556
1766497884526,-0.88720703,-0.3359375,0.30810547,0.0,0.5493164,0.5493164,0.0,0.0,0.0,-48.27942,62.7594,-25.669556
1766497884537,-0.88720703,-0.3359375,0.30810547,0.0,0.5493164,0.5493164,0.0,0.0,0.0,-48.07617,62.68799,-25.361938
1766497884626,-0.8886719,-0.3461914,0.30517578,-0.061035156,0.12207031,-0.24414062,0.0,0.0,0.0,-48.07617,62.68799,-25.361938
1766497884637,-0.8886719,-0.3461914,0.30517578,-0.061035156,0.12207031,-0.24414062,0.0,0.0,0.0,-48.026733,62.715454,-25.317993
1766497884725,-0.8911133,-0.3305664,0.3071289,0.9765625,-0.48828125,-0.4272461,0.0,0.0,0.0,-48.026733,62.715454,-25.317993
1766497884737,-0.8911133,-0.3305664,0.3071289,0.9765625,-0.48828125,-0.4272461,0.0,0.0,0.0,-48.02124,62.65503,-25.268555
1766497884825,-0.89160156,-0.34423828,0.30126953,0.24414062,0.6713867,-0.12207031,0.0,0.0,0.0,-48.02124,62.65503,-25.268555
1766497884836,-0.89160156,-0.34423828,0.30126953,0.24414062,0.6713867,-0.12207031,0.0,0.0,0.0,-48.032227,62.649536,-25.372925
1766497884925,-0.8911133,-0.33935547,0.30029297,-0.6713867,0.0,0.12207031,0.0,0.0,0.0,-48.032227,62.649536,-25.372925
1766497884936,-0.8911133,-0.33935547,0.30029297,-0.6713867,0.0,0.12207031,0.0,0.0,0.0,-48.07617,62.67151,-25.356445
1766497885024,-0.8881836,-0.34277344,0.30078125,1.0375977,0.30517578,-0.6713867,0.0,0.0,0.0,-48.07617,62.67151,-25.356445
1766497885036,-0.8881836,-0.34277344,0.30078125,1.0375977,0.30517578,-0.6713867,0.0,0.0,0.0,-48.07617,62.67151,-25.32898
1766497885124,-0.8823242,-0.34033203,0.30419922,0.48828125,0.30517578,-0.5493164,0.0,0.0,0.0,-48.07617,62.67151,-25.32898
1766497885136,-0.8823242,-0.34033203,0.30419922,0.48828125,0.30517578,-0.5493164,0.0,0.0,0.0,-48.120117,62.65503,-25.394897
1766497885224,-0.8901367,-0.33496094,0.29736328,-0.79345703,-0.5493164,-0.5493164,0.0,0.0,0.0,-48.120117,62.65503,-25.394897
1766497885235,-0.8901367,-0.33496094,0.29736328,-0.79345703,-0.5493164,-0.5493164,0.0,0.0,0.0,-48.00476,62.556152,-25.158691
1766497885324,-0.8881836,-0.34277344,0.30273438,1.6479492,0.30517578,-2.746582,0.0,0.0,0.0,-48.00476,62.556152,-25.158691
1766497885335,-0.8881836,-0.34277344,0.30273438,1.6479492,0.30517578,-2.746582,0.0,0.0,0.0,-48.257446,62.46826,-25.488281
1766497885423,-0.88378906,-0.3461914,0.30419922,-1.2207031,-0.48828125,0.7324219,0.0,0.0,0.0,-48.257446,62.46826,-25.488281
1766497885435,-0.88378906,-0.3461914,0.30419922,-1.2207031,-0.48828125,0.7324219,0.0,0.0,0.0,-48.35083,62.347412,-25.592651
1766497885523,-0.8876953,-0.34765625,0.3022461,0.30517578,0.79345703,-0.5493164,0.0,0.0,0.0,-48.35083,62.347412,-25.592651
1766497885535,-0.8876953,-0.34765625,0.3022461,0.30517578,0.79345703,-0.5493164,0.0,0.0,0.0,-48.306885,62.38037,-25.394897
1766497885623,-0.8808594,-0.3466797,0.3046875,0.18310547,0.6713867,-0.4272461,0.0,0.0,0.0,-48.306885,62.38037,-25.394897
1766497885635,-0.8808594,-0.3466797,0.3046875,0.18310547,0.6713867,-0.4272461,0.0,0.0,0.0,-48.554077,62.391357,-25.675049
1766497885723,-0.88720703,-0.3486328,0.2993164,-0.061035156,0.0,0.30517578,0.0,0.0,0.0,-48.554077,62.391357,-25.675049
1766497885734,-0.88720703,-0.3486328,0.2993164,-0.061035156,0.0,0.30517578,0.0,0.0,0.0,-48.581543,62.391357,-25.691528
1766497885822,-0.89501953,-0.34960938,0.3022461,-0.7324219,-0.061035156,1.0375977,0.0,0.0,0.0,-48.581543,62.391357,-25.691528
1766497885834,-0.89501953,-0.34960938,0.3022461,-0.7324219,-0.061035156,1.0375977,0.0,0.0,0.0,-48.52661,62.451782,-25.548706
1766497885922,-0.88183594,-0.3413086,0.3022461,0.6713867,2.5634766,-0.30517578,0.0,0.0,0.0,-48.52661,62.451782,-25.548706
1766497885933,-0.88183594,-0.3413086,0.3022461,0.6713867,2.5634766,-0.30517578,0.0,0.0,0.0,-48.66394,62.545166,-25.614624
1766497886022,-0.89208984,-0.3466797,0.2919922,0.18310547,0.0,-0.36621094,0.0,0.0,0.0,-48.66394,62.545166,-25.614624
1766497886033,-0.89208984,-0.3466797,0.2919922,0.18310547,0.0,-0.36621094,0.0,0.0,0.0,-48.636475,62.506714,-25.581665
1766497886121,-0.8876953,-0.34570312,0.30371094,-0.79345703,0.4272461,0.12207031,0.0,0.0,0.0,-48.636475,62.506714,-25.581665
1766497886133,-0.8876953,-0.34570312,0.30371094,-0.79345703,0.4272461,0.12207031,0.0,0.0,0.0,-48.823242,62.578125,-25.686035
1766497886221,-0.89160156,-0.34228516,0.30078125,-1.3427734,0.6713867,0.061035156,0.0,0.0,0.0,-48.823242,62.578125,-25.686035
1766497886233,-0.89160156,-0.34228516,0.30078125,-1.3427734,0.6713867,0.061035156,0.0,0.0,0.0,-49.092407,62.65503,-25.790405
1766497886321,-0.88720703,-0.34570312,0.2939453,0.061035156,0.7324219,-1.8920898,0.0,0.0,0.0,-49.092407,62.65503,-25.790405
1766497886332,-0.88720703,-0.34570312,0.2939453,0.061035156,0.7324219,-1.8920898,0.0,0.0,0.0,-49.26819,62.58362,-25.872803
1766497886421,-0.8911133,-0.35302734,0.2939453,-0.91552734,1.159668,-0.36621094,0.0,0.0,0.0,-49.26819,62.58362,-25.872803
1766497886432,-0.8911133,-0.35302734,0.2939453,-0.91552734,1.159668,-0.36621094,0.0,0.0,0.0,-49.559326,62.58911,-26.130981
1766497886520,-0.8989258,-0.3720703,0.29589844,-4.1503906,-0.9765625,-1.3427734,0.0,0.0,0.0,-49.559326,62.58911,-26.130981
1766497886532,-0.8989258,-0.3720703,0.29589844,-4.1503906,-0.9765625,-1.3427734,0.0,0.0,0.0,-50.004272,62.561646,-26.224365
1766497886620,-0.8901367,-0.33935547,0.2841797,-2.9296875,-5.1879883,-8.911133,0.0,0.0,0.0,-50.004272,62.561646,-26.224365
1766497886632,-0.8901367,-0.33935547,0.2841797,-2.9296875,-5.1879883,-8.911133,0.0,0.0,0.0,-50.526123,61.84204,-26.306763
1766497886720,-0.8666992,-0.3359375,0.2915039,-0.5493164,1.8920898,-8.544922,0.0,0.0,0.0,-50.526123,61.84204,-26.306763
1766497886731,-0.8666992,-0.3359375,0.2915039,-0.5493164,1.8920898,-8.544922,0.0,0.0,0.0,-51.828003,61.221313,-27.630615
1766497886820,-0.86328125,-0.37353516,0.27978516,-0.061035156,4.272461,-5.432129,0.0,0.0,0.0,-51.828003,61.221313,-27.630615
1766497886831,-0.86328125,-0.37353516,0.27978516,-0.061035156,4.272461,-5.432129,0.0,0.0,0.0,-52.838745,60.858765,-28.701782
1766497886919,-0.84375,-0.39257812,0.28222656,0.4272461,3.7841797,-2.9907227,0.0,0.0,0.0,-52.838745,60.858765,-28.701782
1766497886931,-0.84375,-0.39257812,0.28222656,0.4272461,3.7841797,-2.9907227,0.0,0.0,0.0,-53.71216,60.86975,-29.6521
1766497887019,-0.88134766,-0.4243164,0.28173828,-5.554199,-0.91552734,0.7324219,0.0,0.0,0.0,-53.71216,60.86975,-29.6521
1766497887031,-0.88134766,-0.4243164,0.28173828,-5.554199,-0.91552734,0.7324219,0.0,0.0,0.0,-54.228516,60.875244,-29.94873
1766497887119,-0.8725586,-0.37353516,0.2783203,0.6713867,2.0141602,-2.746582,0.0,0.0,0.0,-54.228516,60.875244,-29.94873
1766497887130,-0.8725586,-0.37353516,0.2783203,0.6713867,2.0141602,-2.746582,0.0,0.0,0.0,-54.46472,60.776367,-29.910278
1766497887218,-0.8701172,-0.41455078,0.26123047,0.12207031,0.0,-1.5869141,0.0,0.0,0.0,-54.46472,60.776367,-29.910278
1766497887230,-0.8701172,-0.41455078,0.26123047,0.12207031,0.0,-1.5869141,0.0,0.0,0.0,-54.733887,60.688477,-30.338745
1766497887318,-0.8676758,-0.41210938,0.29296875,-3.6010742,-0.4272461,-0.6713867,0.0,0.0,0.0,-54.733887,60.688477,-30.338745
1766497887330,-0.8676758,-0.41210938,0.29296875,-3.6010742,-0.4272461,-0.6713867,0.0,0.0,0.0,-55.283203,60.611572,-30.778198
1766497887418,-0.8671875,-0.39111328,0.27734375,-6.225586,-3.112793,2.0141602,0.0,0.0,0.0,-55.283203,60.611572,-30.778198
1766497887429,-0.8671875,-0.39111328,0.27734375,-6.225586,-3.112793,2.0141602,0.0,0.0,0.0,-55.18982,60.46875,-30.075073
1766497887518,-0.90185547,-0.4794922,0.3095703,-5.065918,-1.7700195,-7.385254,0.0,0.0,0.0,-55.18982,60.46875,-30.075073
1766497887529,-0.90185547,-0.4794922,0.3095703,-5.065918,-1.7700195,-7.385254,0.0,0.0,0.0,-55.54138,60.1886,-30.025635
1766497887617,-0.8339844,-0.38330078,0.27685547,-12.084961,-5.004883,3.2958984,0.0,0.0,0.0,-55.54138,60.1886,-30.025635
1766497887629,-0.8339844,-0.38330078,0.27685547,-12.084961,-5.004883,3.2958984,0.0,0.0,0.0,-55.618286,59.331665,-29.454346
1766497887717,-0.89697266,-0.36376953,0.26416016,4.272461,-0.12207031,-3.112793,0.0,0.0,0.0,-55.618286,59.331665,-29.454346
1766497887729,-0.89697266,-0.36376953,0.26416016,4.272461,-0.12207031,-3.112793,0.0,0.0,0.0,-54.66797,59.309692,-28.179932
1766497887817,-0.8457031,-0.45410156,0.29248047,0.30517578,4.8828125,0.7324219,0.0,0.0,0.0,-54.66797,59.309692,-28.179932
1766497887828,-0.8457031,-0.45410156,0.29248047,0.30517578,4.8828125,0.7324219,0.0,0.0,0.0,-55.881958,59.76013,-30.10254
1766497887916,-0.8720703,-0.40576172,0.26953125,0.8544922,2.5024414,-0.7324219,0.0,0.0,0.0,-55.881958,59.76013,-30.10254
1766497887928,-0.8720703,-0.40576172,0.26953125,0.8544922,2.5024414,-0.7324219,0.0,0.0,0.0,-55.645752,59.639282,-29.893799
1766497888016,-0.87939453,-0.41796875,0.27490234,-2.1362305,-0.79345703,2.8076172,0.0,0.0,0.0,-55.645752,59.639282,-29.893799
1766497888028,-0.87939453,-0.41796875,0.27490234,-2.1362305,-0.79345703,2.8076172,0.0,0.0,0.0,-55.964355,59.869995,-30.289307
1766497888116,-0.8491211,-0.48046875,0.28271484,-3.540039,2.380371,-3.479004,0.0,0.0,0.0,-55.964355,59.869995,-30.289307
1766497888127,-0.8491211,-0.48046875,0.28271484,-3.540039,2.380371,-3.479004,0.0,0.0,0.0,-56.645508,60.007324,-30.80017
1766497888216,-0.86279297,-0.37841797,0.2866211,-5.432129,-9.399414,5.3710938,0.0,0.0,0.0,-56.645508,60.007324,-30.80017
1766497888227,-0.86279297,-0.37841797,0.2866211,-5.432129,-9.399414,5.3710938,0.0,0.0,0.0,-56.78833,59.798584,-30.2948
1766497888315,-0.86621094,-0.42382812,0.2763672,6.7749023,9.033203,-3.2958984,0.0,0.0,0.0,-56.78833,59.798584,-30.2948
1766497888327,-0.86621094,-0.42382812,0.2763672,6.7749023,9.033203,-3.2958984,0.0,0.0,0.0,-56.04126,59.88098,-29.575195
1766497888415,-0.8623047,-0.43017578,0.26611328,-1.2207031,-4.8828125,2.2583008,0.0,0.0,0.0,-56.04126,59.88098,-29.575195
1766497888427,-0.8623047,-0.43017578,0.26611328,-1.2207031,-4.8828125,2.2583008,0.0,0.0,0.0,-56.0907,59.869995,-30.146484
1766497888515,-0.875,-0.4033203,0.28076172,2.0751953,0.061035156,-0.4272461,0.0,0.0,0.0,-56.0907,59.869995,-30.146484
1766497888526,-0.875,-0.4033203,0.28076172,2.0751953,0.061035156,-0.4272461,0.0,0.0,0.0,-55.87097,59.891968,-30.064087
1766497888615,-0.86376953,-0.41308594,0.27392578,2.1972656,1.2817383,0.12207031,0.0,0.0,0.0,-55.87097,59.891968,-30.064087
1766497888627,-0.86376953,-0.41308594,0.27392578,2.1972656,1.2817383,0.12207031,0.0,0.0,0.0,-55.72815,59.87549,-30.239868
1766497888714,-0.8696289,-0.41748047,0.2763672,2.5024414,-0.91552734,0.0,0.0,0.0,0.0,-55.72815,59.87549,-30.239868
1766497888726,-0.8696289,-0.41748047,0.2763672,2.5024414,-0.91552734,0.0,0.0,0.0,0.0,-55.475464,59.869995,-30.20691
1766497888814,-0.86279297,-0.4086914,0.28222656,1.8920898,-0.4272461,0.36621094,0.0,0.0,0.0,-55.475464,59.869995,-30.20691
1766497888825,-0.86279297,-0.4086914,0.28222656,1.8920898,-0.4272461,0.36621094,0.0,0.0,0.0,-55.22278,59.853516,-30.135498
1766497888914,-0.8701172,-0.4086914,0.28173828,1.8920898,1.2207031,-0.48828125,0.0,0.0,0.0,-55.22278,59.853516,-30.135498
1766497888925,-0.8701172,-0.4086914,0.28173828,1.8920898,1.2207031,-0.48828125,0.0,0.0,0.0,-55.167847,59.853516,-30.267334
1766497889013,-0.86621094,-0.41015625,0.28271484,-0.12207031,0.0,0.79345703,0.0,0.0,0.0,-55.167847,59.853516,-30.267334
1766497889025,-0.86621094,-0.41015625,0.28271484,-0.12207031,0.0,0.79345703,0.0,0.0,0.0,-55.074463,59.864502,-30.256348
1766497889113,-0.86083984,-0.40039062,0.2866211,1.7700195,-0.12207031,-0.36621094,0.0,0.0,0.0,-55.074463,59.864502,-30.256348
1766497889125,-0.86083984,-0.40039062,0.2866211,1.7700195,-0.12207031,-0.36621094,0.0,0.0,0.0,-55.025024,59.87549,-30.300293
1766497889213,-0.87402344,-0.41015625,0.2866211,2.6245117,0.9765625,-1.5258789,0.0,0.0,0.0,-55.025024,59.87549,-30.300293
1766497889224,-0.87402344,-0.41015625,0.2866211,2.6245117,0.9765625,-1.5258789,0.0,0.0,0.0,-54.94812,59.864502,-30.470581
1766497889313,-0.86376953,-0.41455078,0.28271484,-0.061035156,1.5869141,-1.0375977,0.0,0.0,0.0,-54.94812,59.864502,-30.470581
1766497889325,-0.86376953,-0.41455078,0.28271484,-0.061035156,1.5869141,-1.0375977,0.0,0.0,0.0,-54.926147,59.837036,-30.50354
1766497889412,-0.8779297,-0.4140625,0.28320312,-0.30517578,-1.0986328,0.7324219,0.0,0.0,0.0,-54.926147,59.837036,-30.50354
1766497889424,-0.8779297,-0.4140625,0.28320312,-0.30517578,-1.0986328,0.7324219,0.0,0.0,0.0,-54.9646,59.815063,-30.574951
1766497889512,-0.8588867,-0.41357422,0.2890625,-2.5024414,-2.8076172,0.30517578,0.0,0.0,0.0,-54.9646,59.815063,-30.574951
1766497889523,-0.8588867,-0.41357422,0.2890625,-2.5024414,-2.8076172,0.30517578,0.0,0.0,0.0,-54.871216,59.804077,-30.289307
1766497889612,-0.85839844,-0.41308594,0.2841797,-0.18310547,3.3569336,-1.2817383,0.0,0.0,0.0,-54.871216,59.804077,-30.289307
1766497889623,-0.85839844,-0.41308594,0.2841797,-0.18310547,3.3569336,-1.2817383,0.0,0.0,0.0,-54.87671,59.699707,-30.19043
1766497889711,-0.86865234,-0.41308594,0.2709961,-1.2207031,-1.7089844,1.5869141,0.0,0.0,0.0,-54.87671,59.699707,-30.19043
1766497889723,-0.86865234,-0.41308594,0.2709961,-1.2207031,-1.7089844,1.5869141,0.0,0.0,0.0,-54.89868,59.732666,-30.19043
1766497889811,-0.86083984,-0.3984375,0.28857422,2.319336,2.2583008,0.61035156,0.0,0.0,0.0,-54.89868,59.732666,-30.19043
1766497889823,-0.86083984,-0.3984375,0.28857422,2.319336,2.2583008,0.61035156,0.0,0.0,0.0,-54.871216,59.84253,-30.15747
1766497889911,-0.8588867,-0.4013672,0.27246094,0.24414062,-0.24414062,0.0,0.0,0.0,0.0,-54.871216,59.84253,-30.15747
1766497889923,-0.8588867,-0.4013672,0.27246094,0.24414062,-0.24414062,0.0,0.0,0.0,0.0,-55.014038,59.902954,-30.470581
1766497890011,-0.875,-0.41601562,0.2939453,-1.159668,0.061035156,3.0517578,0.0,0.0,0.0,-55.014038,59.902954,-30.470581
1766497890022,-0.875,-0.41601562,0.2939453,-1.159668,0.061035156,3.0517578,0.0,0.0,0.0,-55.10742,60.13916,-30.426636
1766497890110,-0.86572266,-0.390625,0.28515625,-1.5258789,-3.540039,-0.061035156,0.0,0.0,0.0,-55.10742,60.13916,-30.426636
1766497890122,-0.86572266,-0.390625,0.28515625,-1.5258789,-3.540039,-0.061035156,0.0,0.0,0.0,-54.77234,60.040283,-29.893799
1766497890210,-0.8847656,-0.3930664,0.26220703,2.0751953,-0.12207031,-2.746582,0.0,0.0,0.0,-54.77234,60.040283,-29.893799
1766497890222,-0.8847656,-0.3930664,0.26220703,2.0751953,-0.12207031,-2.746582,0.0,0.0,0.0,-54.66797,59.837036,-29.849854
1766497890310,-0.8701172,-0.3959961,0.27734375,4.3945312,1.4648438,-1.7089844,0.0,0.0,0.0,-54.66797,59.837036,-29.849854
1766497890321,-0.8701172,-0.3959961,0.27734375,4.3945312,1.4648438,-1.7089844,0.0,0.0,0.0,-54.54712,59.804077,-30.058594
1766497890410,-0.8618164,-0.4165039,0.29589844,1.6479492,0.30517578,1.2817383,0.0,0.0,0.0,-54.54712,59.804077,-30.058594
1766497890421,-0.8618164,-0.4165039,0.29589844,1.6479492,0.30517578,1.2817383,0.0,0.0,0.0,-54.35486,59.89746,-30.10254
1766497890509,-0.86816406,-0.3876953,0.29101562,3.4179688,-0.5493164,-0.79345703,0.0,0.0,0.0,-54.35486,59.89746,-30.10254
1766497890521,-0.86816406,-0.3876953,0.29101562,3.4179688,-0.5493164,-0.79345703,0.0,0.0,0.0,-53.986816,59.837036,-29.915771
1766497890609,-0.8613281,-0.40771484,0.29833984,2.2583008,-0.5493164,0.0,0.0,0.0,0.0,-53.986816,59.837036,-29.915771
1766497890621,-0.8613281,-0.40771484,0.29833984,2.2583008,-0.5493164,0.0,0.0,0.0,0.0,-53.69568,59.853516,-29.899292
1766497890709,-0.8642578,-0.41064453,0.29541016,1.2817383,0.91552734,-1.4038086,0.0,0.0,0.0,-53.69568,59.853516,-29.899292
1766497890720,-0.8642578,-0.41064453,0.29541016,1.2817383,0.91552734,-1.4038086,0.0,0.0,0.0,-53.635254,59.76013,-30.06958
1766497890808,-0.8671875,-0.3876953,0.29589844,-0.48828125,-0.61035156,1.4038086,0.0,0.0,0.0,-53.635254,59.76013,-30.06958
1766497890820,-0.8671875,-0.3876953,0.29589844,-0.48828125,-0.61035156,1.4038086,0.0,0.0,0.0,-53.624268,59.765625,-30.014648
1766497890908,-0.86328125,-0.4111328,0.2890625,2.9907227,-0.24414062,0.4272461,0.0,0.0,0.0,-53.624268,59.765625,-30.014648
1766497890920,-0.86328125,-0.4111328,0.2890625,2.9907227,-0.24414062,0.4272461,0.0,0.0,0.0,-53.16284,59.80957,-29.6521
1766497891008,-0.8701172,-0.4038086,0.28759766,0.8544922,-1.2817383,-0.79345703,0.0,0.0,0.0,-53.16284,59.80957,-29.6521
1766497891019,-0.8701172,-0.4038086,0.28759766,0.8544922,-1.2817383,-0.79345703,0.0,0.0,0.0,-52.97058,59.727173,-29.465332
1766497891108,-0.8691406,-0.3828125,0.30078125,2.9296875,1.0986328,-0.8544922,0.0,0.0,0.0,-52.97058,59.727173,-29.465332
1766497891119,-0.8691406,-0.3828125,0.30078125,2.9296875,1.0986328,-0.8544922,0.0,0.0,0.0,-52.998047,59.699707,-29.61914
1766497891207,-0.8642578,-0.40039062,0.30078125,3.1738281,2.1972656,-1.6479492,0.0,0.0,0.0,-52.998047,59.699707,-29.61914
1766497891219,-0.8642578,-0.40039062,0.30078125,3.1738281,2.1972656,-1.6479492,0.0,0.0,0.0,-52.98706,59.75464,-29.882812
1766497891307,-0.87158203,-0.40820312,0.2998047,0.48828125,-0.12207031,-1.8310547,0.0,0.0,0.0,-52.98706,59.75464,-29.882812
1766497891318,-0.87158203,-0.40820312,0.2998047,0.48828125,-0.12207031,-1.8310547,0.0,0.0,0.0,-53.069458,59.68872,-30.097046
1766497891407,-0.86035156,-0.39208984,0.29785156,2.746582,1.8920898,-2.8076172,0.0,0.0,0.0,-53.069458,59.68872,-30.097046
1766497891418,-0.86035156,-0.39208984,0.29785156,2.746582,1.8920898,-2.8076172,0.0,0.0,0.0,-53.28369,59.540405,-30.454102
1766497891507,-0.86621094,-0.4116211,0.2939453,2.4414062,0.061035156,-2.6245117,0.0,0.0,0.0,-53.28369,59.540405,-30.454102
1766497891518,-0.86621094,-0.4116211,0.2939453,2.4414062,0.061035156,-2.6245117,0.0,0.0,0.0,-53.30017,59.414062,-30.72876
1766497891606,-0.8623047,-0.4008789,0.30273438,0.79345703,-0.79345703,-1.4038086,0.0,0.0,0.0,-53.30017,59.414062,-30.72876
1766497891618,-0.8623047,-0.4008789,0.30273438,0.79345703,-0.79345703,-1.4038086,0.0,0.0,0.0,-53.432007,59.282227,-30.942993
1766497891706,-0.86328125,-0.3852539,0.2915039,2.8686523,0.0,-0.79345703,0.0,0.0,0.0,-53.432007,59.282227,-30.942993
1766497891717,-0.86328125,-0.3852539,0.2915039,2.8686523,0.0,-0.79345703,0.0,0.0,0.0,-53.33313,59.19983,-30.871582
1766497891806,-0.8666992,-0.43017578,0.3100586,0.7324219,2.319336,0.061035156,0.0,0.0,0.0,-53.33313,59.19983,-30.871582
1766497891817,-0.8666992,-0.43017578,0.3100586,0.7324219,2.319336,0.061035156,0.0,0.0,0.0,-53.327637,59.32617,-31.019897
1766497891905,-0.8691406,-0.3876953,0.3100586,-1.6479492,-3.540039,1.2817383,0.0,0.0,0.0,-53.327637,59.32617,-31.019897
1766497891917,-0.8691406,-0.3876953,0.3100586,-1.6479492,-3.540039,1.2817383,0.0,0.0,0.0,-53.07495,59.205322,-30.421143
1766497892005,-0.85253906,-0.42919922,0.2993164,-0.5493164,-1.8310547,-2.1362305,0.0,0.0,0.0,-53.07495,59.205322,-30.421143
1766497892017,-0.85253906,-0.42919922,0.2993164,-0.5493164,-1.8310547,-2.1362305,0.0,0.0,0.0,-53.025513,59.089966,-30.470581
1766497892105,-0.859375,-0.41552734,0.31347656,-3.6010742,-1.5258789,-0.79345703,0.0,0.0,0.0,-53.025513,59.089966,-30.470581
1766497892116,-0.859375,-0.41552734,0.31347656,-3.6010742,-1.5258789,-0.79345703,0.0,0.0,0.0,-53.14087,58.97461,-30.179443
1766497892204,-0.8618164,-0.4038086,0.29833984,0.9765625,3.8452148,-0.7324219,0.0,0.0,0.0,-53.14087,58.97461,-30.179443
1766497892216,-0.8618164,-0.4038086,0.29833984,0.9765625,3.8452148,-0.7324219,0.0,0.0,0.0,-53.151855,58.8208,-30.113525
1766497892305,-0.85595703,-0.43115234,0.31103516,-3.6010742,1.3427734,4.211426,0.0,0.0,0.0,-53.151855,58.8208,-30.113525
1766497892316,-0.85595703,-0.43115234,0.31103516,-3.6010742,1.3427734,4.211426,0.0,0.0,0.0,-53.49243,59.172363,-30.541992
1766497892404,-0.86279297,-0.40722656,0.30566406,-5.554199,0.8544922,3.90625,0.0,0.0,0.0,-53.49243,59.172363,-30.541992
1766497892415,-0.86279297,-0.40722656,0.30566406,-5.554199,0.8544922,3.90625,0.0,0.0,0.0,-53.640747,59.595337,-30.151978
1766497892504,-0.87646484,-0.3881836,0.27441406,0.4272461,3.1738281,0.12207031,0.0,0.0,0.0,-53.640747,59.595337,-30.151978
1766497892515,-0.87646484,-0.3881836,0.27441406,0.4272461,3.1738281,0.12207031,0.0,0.0,0.0,-53.948364,59.77661,-30.256348
1766497892603,-0.88378906,-0.40234375,0.28710938,3.7231445,7.3242188,-2.319336,0.0,0.0,0.0,-53.948364,59.77661,-30.256348
1766497892615,-0.88378906,-0.40234375,0.28710938,3.7231445,7.3242188,-2.319336,0.0,0.0,0.0,-54.44275,59.935913,-31.05835
1766497892703,-0.86621094,-0.39892578,0.26953125,3.2958984,3.2348633,3.1738281,0.0,0.0,0.0,-54.44275,59.935913,-31.05835
1766497892715,-0.86621094,-0.39892578,0.26953125,3.2958984,3.2348633,3.1738281,0.0,0.0,0.0,-54.60205,60.270996,-31.734009
1766497892803,-0.8676758,-0.4091797,0.28759766,-0.91552734,-0.9765625,0.48828125,0.0,0.0,0.0,-54.60205,60.270996,-31.734009
1766497892815,-0.8676758,-0.4091797,0.28759766,-0.91552734,-0.9765625,0.48828125,0.0,0.0,0.0,-54.82727,60.54016,-32.18994
1766497892903,-0.87939453,-0.39208984,0.28515625,-2.1972656,1.0986328,-0.4272461,0.0,0.0,0.0,-54.82727,60.54016,-32.18994
1766497892914,-0.87939453,-0.39208984,0.28515625,-2.1972656,1.0986328,-0.4272461,0.0,0.0,0.0,-54.904175,60.490723,-31.876831
1766497893002,-0.8774414,-0.39794922,0.26171875,-2.4414062,-0.061035156,0.8544922,0.0,0.0,0.0,-54.904175,60.490723,-31.876831
1766497893014,-0.8774414,-0.39794922,0.26171875,-2.4414062,-0.061035156,0.8544922,0.0,0.0,0.0,-54.9646,60.57312,-31.640625
1766497893102,-0.8725586,-0.41796875,0.26367188,-3.540039,-1.0375977,0.8544922,0.0,0.0,0.0,-54.9646,60.57312,-31.640625
1766497893114,-0.8725586,-0.41796875,0.26367188,-3.540039,-1.0375977,0.8544922,0.0,0.0,0.0,-55.321655,60.655518,-31.71753
1766497893202,-0.87646484,-0.3876953,0.2685547,-5.1879883,-2.746582,3.3569336,0.0,0.0,0.0,-55.321655,60.655518,-31.71753
1766497893213,-0.87646484,-0.3876953,0.2685547,-5.1879883,-2.746582,3.3569336,0.0,0.0,0.0,-55.43152,60.737915,-31.124268
1766497893302,-0.8779297,-0.36865234,0.2607422,-0.36621094,0.61035156,2.9296875,0.0,0.0,0.0,-55.43152,60.737915,-31.124268
1766497893313,-0.8779297,-0.36865234,0.2607422,-0.36621094,0.61035156,2.9296875,0.0,0.0,0.0,-55.01953,61.001587,-30.27832
1766497893401,-0.8730469,-0.4038086,0.27685547,1.2207031,0.0,-0.24414062,0.0,0.0,0.0,-55.01953,61.001587,-30.27832
1766497893413,-0.8730469,-0.4038086,0.27685547,1.2207031,0.0,-0.24414062,0.0,0.0,0.0,-55.134888,61.149902,-30.547485
1766497893501,-0.8828125,-0.39208984,0.25683594,-2.746582,-0.9765625,0.12207031,0.0,0.0,0.0,-55.134888,61.149902,-30.547485
1766497893512,-0.8828125,-0.39208984,0.25683594,-2.746582,-0.9765625,0.12207031,0.0,0.0,0.0,-54.992065,61.051025,-30.15747
1766497893601,-0.8754883,-0.3725586,0.2788086,-1.2207031,-1.5869141,-0.30517578,0.0,0.0,0.0,-54.992065,61.051025,-30.15747
1766497893612,-0.8754883,-0.3725586,0.2788086,-1.2207031,-1.5869141,-0.30517578,0.0,0.0,0.0,-55.239258,61.067505,-30.162964
1766497893700,-0.8803711,-0.40234375,0.27148438,-2.6245117,0.79345703,2.0141602,0.0,0.0,0.0,-55.239258,61.067505,-30.162964
1766497893712,-0.8803711,-0.40234375,0.27148438,-2.6245117,0.79345703,2.0141602,0.0,0.0,0.0,-55.27771,61.14441,-30.228882
1766497893800,-0.88183594,-0.37548828,0.25732422,1.6479492,-1.7700195,-2.319336,0.0,0.0,0.0,-55.27771,61.14441,-30.228882
1766497893812,-0.88183594,-0.37548828,0.25732422,1.6479492,-1.7700195,-2.319336,0.0,0.0,0.0,-55.06897,61.034546,-29.811401
1766497893900,-0.87109375,-0.40673828,0.27978516,1.2207031,-1.2207031,-3.2348633,0.0,0.0,0.0,-55.06897,61.034546,-29.811401
1766497893912,-0.87109375,-0.40673828,0.27978516,1.2207031,-1.2207031,-3.2348633,0.0,0.0,0.0,-55.15686,60.891724,-30.15747
1766497894000,-0.86279297,-0.39892578,0.2626953,-4.4555664,-2.2583008,-3.8452148,0.0,0.0,0.0,-55.15686,60.891724,-30.15747
1766497894011,-0.86279297,-0.39892578,0.2626953,-4.4555664,-2.2583008,-3.8452148,0.0,0.0,0.0,-55.31067,60.52368,-30.10254
1766497894099,-0.8852539,-0.38183594,0.25683594,1.0986328,-1.953125,-5.7373047,0.0,0.0,0.0,-55.31067,60.52368,-30.10254
1766497894111,-0.8852539,-0.38183594,0.25683594,1.0986328,-1.953125,-5.7373047,0.0,0.0,0.0,-55.62378,59.98535,-30.283813
1766497894199,-0.8574219,-0.42236328,0.28320312,4.0283203,3.7231445,-2.4414062,0.0,0.0,0.0,-55.62378,59.98535,-30.283813
1766497894211,-0.8574219,-0.42236328,0.28320312,4.0283203,3.7231445,-2.4414062,0.0,0.0,0.0,-56.063232,59.820557,-31.256104
1766497894299,-0.8535156,-0.41748047,0.2685547,-1.6479492,-2.5024414,0.91552734,0.0,0.0,0.0,-56.063232,59.820557,-31.256104
1766497894310,-0.8535156,-0.41748047,0.2685547,-1.6479492,-2.5024414,0.91552734,0.0,0.0,0.0,-56.035767,59.765625,-31.333008
1766497894399,-0.8725586,-0.40625,0.29101562,0.5493164,-1.8920898,1.0375977,0.0,0.0,0.0,-56.035767,59.765625,-31.333008
1766497894410,-0.8725586,-0.40625,0.29101562,0.5493164,-1.8920898,1.0375977,0.0,0.0,0.0,-55.92041,59.80957,-30.964966
1766497894499,-0.87060547,-0.40234375,0.26904297,3.3569336,2.9296875,-0.24414062,0.0,0.0,0.0,-55.92041,59.80957,-30.964966
1766497894510,-0.87060547,-0.40234375,0.26904297,3.3569336,2.9296875,-0.24414062,0.0,0.0,0.0,-55.524902,59.79309,-30.750732
1766497894598,-0.86035156,-0.4165039,0.28466797,3.6621094,1.7089844,0.0,0.0,0.0,0.0,-55.524902,59.79309,-30.750732
1766497894610,-0.86035156,-0.4165039,0.28466797,3.6621094,1.7089844,0.0,0.0,0.0,0.0,-55.43152,59.974365,-31.069336
1766497894698,-0.8671875,-0.41845703,0.27246094,-1.0986328,-1.0375977,-0.061035156,0.0,0.0,0.0,-55.43152,59.974365,-31.069336
1766497894711,-0.8671875,-0.41845703,0.27246094,-1.0986328,-1.0375977,-0.061035156,0.0,0.0,0.0,-55.299683,59.952393,-30.992432
1766497894797,-0.8691406,-0.4086914,0.28125,-0.30517578,-4.333496,-0.8544922,0.0,0.0,0.0,-55.299683,59.952393,-30.992432
1766497894809,-0.8691406,-0.4086914,0.28125,-0.30517578,-4.333496,-0.8544922,0.0,0.0,0.0,-55.420532,59.88098,-30.915527
1766497894897,-0.8691406,-0.41210938,0.2866211,5.6762695,6.164551,-3.7231445,0.0,0.0,0.0,-55.420532,59.88098,-30.915527
1766497894909,-0.8691406,-0.41210938,0.2866211,5.6762695,6.164551,-3.7231445,0.0,0.0,0.0,-55.299683,59.694214,-31.05835
1766497894997,-0.859375,-0.41455078,0.2783203,-0.79345703,-2.5634766,1.0375977,0.0,0.0,0.0,-55.299683,59.694214,-31.05835
1766497895009,-0.859375,-0.41455078,0.2783203,-0.79345703,-2.5634766,1.0375977,0.0,0.0,0.0,-55.178833,59.628296,-30.964966
1766497895097,-0.87353516,-0.41210938,0.28222656,0.48828125,-2.1972656,0.061035156,0.0,0.0,0.0,-55.178833,59.628296,-30.964966
1766497895108,-0.87353516,-0.41210938,0.28222656,0.48828125,-2.1972656,0.061035156,0.0,0.0,0.0,-55.06897,59.628296,-30.81665
1766497895196,-0.859375,-0.40673828,0.2993164,-2.1972656,0.79345703,2.1362305,0.0,0.0,0.0,-55.06897,59.628296,-30.81665
1766497895208,-0.859375,-0.40673828,0.2993164,-2.1972656,0.79345703,2.1362305,0.0,0.0,0.0,-55.151367,59.716187,-30.701294
1766497895296,-0.87597656,-0.40478516,0.26513672,1.0986328,0.6713867,-1.0986328,0.0,0.0,0.0,-55.151367,59.716187,-30.701294
1766497895308,-0.87597656,-0.40478516,0.26513672,1.0986328,0.6713867,-1.0986328,0.0,0.0,0.0,-54.838257,59.644775,-30.289307
1766497895396,-0.8535156,-0.42089844,0.2998047,-1.2207031,-1.3427734,2.0751953,0.0,0.0,0.0,-54.838257,59.644775,-30.289307
1766497895407,-0.8535156,-0.42089844,0.2998047,-1.2207031,-1.3427734,2.0751953,0.0,0.0,0.0,-55.079956,59.80957,-30.613403
1766497895496,-0.875,-0.39111328,0.2763672,-0.36621094,-1.6479492,1.5258789,0.0,0.0,0.0,-55.079956,59.80957,-30.613403
1766497895508,-0.875,-0.39111328,0.2763672,-0.36621094,-1.6479492,1.5258789,0.0,0.0,0.0,-54.733887,59.804077,-30.025635
1766497895595,-0.86816406,-0.41015625,0.2866211,1.5258789,0.6713867,-0.18310547,0.0,0.0,0.0,-54.733887,59.804077,-30.025635
1766497895607,-0.86816406,-0.41015625,0.2866211,1.5258789,0.6713867,-0.18310547,0.0,0.0,0.0,-54.777832,59.908447,-30.228882
1766497895695,-0.8666992,-0.40185547,0.28271484,0.79345703,1.5869141,-0.6713867,0.0,0.0,0.0,-54.777832,59.908447,-30.228882
1766497895706,-0.8666992,-0.40185547,0.28271484,0.79345703,1.5869141,-0.6713867,0.0,0.0,0.0,-54.656982,59.869995,-30.036621
1766497895795,-0.87109375,-0.41210938,0.28857422,0.48828125,0.48828125,0.4272461,0.0,0.0,0.0,-54.656982,59.869995,-30.036621
1766497895806,-0.87109375,-0.41210938,0.28857422,0.48828125,0.48828125,0.4272461,0.0,0.0,0.0,-54.56909,59.919434,-29.96521
1766497895894,-0.8666992,-0.4008789,0.29345703,0.24414062,-2.5634766,0.4272461,0.0,0.0,0.0,-54.56909,59.919434,-29.96521
1766497895906,-0.8666992,-0.4008789,0.29345703,0.24414062,-2.5634766,0.4272461,0.0,0.0,0.0,-54.645996,59.853516,-30.036621
1766497895996,-0.8652344,-0.4091797,0.29101562,-0.12207031,-1.7089844,-1.4038086,0.0,0.0,0.0,-54.645996,59.853516,-30.036621
1766497896005,-0.8652344,-0.4091797,0.29101562,-0.12207031,-1.7089844,-1.4038086,0.0,0.0,0.0,-54.54712,59.815063,-29.84436
1766497896094,-0.87646484,-0.4013672,0.29345703,1.953125,2.5634766,-2.1362305,0.0,0.0,0.0,-54.54712,59.815063,-29.84436
1766497896105,-0.87646484,-0.4013672,0.29345703,1.953125,2.5634766,-2.1362305,0.0,0.0,0.0,-54.415283,59.60083,-29.77295
1766497896193,-0.86816406,-0.4038086,0.28955078,1.0375977,-2.5634766,0.36621094,0.0,0.0,0.0,-54.415283,59.60083,-29.77295
1766497896205,-0.86816406,-0.4038086,0.28955078,1.0375977,-2.5634766,0.36621094,0.0,0.0,0.0,-54.277954,59.589844,-29.855347
1766497896293,-0.85791016,-0.41748047,0.29736328,0.18310547,1.953125,-0.30517578,0.0,0.0,0.0,-54.277954,59.589844,-29.855347
1766497896305,-0.85791016,-0.41748047,0.29736328,0.18310547,1.953125,-0.30517578,0.0,0.0,0.0,-54.420776,59.65027,-30.212402
1766497896393,-0.8754883,-0.39160156,0.28808594,0.12207031,0.36621094,0.24414062,0.0,0.0,0.0,-54.420776,59.65027,-30.212402
1766497896404,-0.8754883,-0.39160156,0.28808594,0.12207031,0.36621094,0.24414062,0.0,0.0,0.0,-54.195557,59.677734,-29.783936
1766497896493,-0.8540039,-0.42529297,0.2919922,-0.48828125,-0.061035156,-0.4272461,0.0,0.0,0.0,-54.195557,59.677734,-29.783936
1766497896504,-0.8540039,-0.42529297,0.2919922,-0.48828125,-0.061035156,-0.4272461,0.0,0.0,0.0,-54.51416,59.699707,-30.344238
1766497896592,-0.8701172,-0.40185547,0.2763672,-2.0141602,-0.61035156,2.0141602,0.0,0.0,0.0,-54.51416,59.699707,-30.344238
1766497896604,-0.8701172,-0.40185547,0.2763672,-2.0141602,-0.61035156,2.0141602,0.0,0.0,0.0,-54.343872,59.677734,-29.96521
1766497896693,-0.8642578,-0.40673828,0.2915039,1.159668,1.4038086,-1.3427734,0.0,0.0,0.0,-54.343872,59.677734,-29.96521
1766497896704,-0.8642578,-0.40673828,0.2915039,1.159668,1.4038086,-1.3427734,0.0,0.0,0.0,-54.4812,59.75464,-30.140991
1766497896792,-0.8652344,-0.4111328,0.27490234,-1.2817383,1.8920898,0.6713867,0.0,0.0,0.0,-54.4812,59.75464,-30.140991
1766497896804,-0.8652344,-0.4111328,0.27490234,-1.2817383,1.8920898,0.6713867,0.0,0.0,0.0,-54.492188,59.820557,-30.217896
1766497896892,-0.87109375,-0.40625,0.2890625,1.0986328,-0.48828125,0.12207031,0.0,0.0,0.0,-54.492188,59.820557,-30.217896
1766497896903,-0.87109375,-0.40625,0.2890625,1.0986328,-0.48828125,0.12207031,0.0,0.0,0.0,-54.607544,59.886475,-30.2948
1766497896991,-0.8647461,-0.40234375,0.29052734,-0.5493164,0.6713867,-0.24414062,0.0,0.0,0.0,-54.607544,59.886475,-30.2948
1766497897003,-0.8647461,-0.40234375,0.29052734,-0.5493164,0.6713867,-0.24414062,0.0,0.0,0.0,-54.63501,59.908447,-30.300293
1766497897091,-0.8696289,-0.41015625,0.28173828,0.79345703,0.4272461,0.0,0.0,0.0,0.0,-54.63501,59.908447,-30.300293
1766497897103,-0.8696289,-0.41015625,0.28173828,0.79345703,0.4272461,0.0,0.0,0.0,0.0,-54.662476,59.902954,-30.443115
1766497897191,-0.8691406,-0.39892578,0.28759766,0.79345703,0.6713867,-0.61035156,0.0,0.0,0.0,-54.662476,59.902954,-30.443115
1766497897202,-0.8691406,-0.39892578,0.28759766,0.79345703,0.6713867,-0.61035156,0.0,0.0,0.0,-54.63501,59.93042,-30.41565
1766497897290,-0.86572266,-0.4111328,0.2866211,-0.5493164,-0.48828125,0.4272461,0.0,0.0,0.0,-54.63501,59.93042,-30.41565
1766497897302,-0.86572266,-0.4111328,0.2866211,-0.5493164,-0.48828125,0.4272461,0.0,0.0,0.0,-54.711914,59.9469,-30.558472
1766497897390,-0.86865234,-0.40234375,0.2866211,0.36621094,1.0986328,-0.48828125,0.0,0.0,0.0,-54.711914,59.9469,-30.558472
1766497897402,-0.86865234,-0.40234375,0.2866211,0.36621094,1.0986328,-0.48828125,0.0,0.0,0.0,-54.733887,59.96338,-30.492554
1766497897490,-0.8647461,-0.4086914,0.28125,0.9765625,0.6713867,0.0,0.0,0.0,0.0,-54.733887,59.96338,-30.492554
1766497897502,-0.8647461,-0.4086914,0.28125,0.9765625,0.6713867,0.0,0.0,0.0,0.0,-54.75586,59.990845,-30.547485
1766497897590,-0.86816406,-0.40820312,0.28320312,-0.5493164,-1.2817383,1.0375977,0.0,0.0,0.0,-54.75586,59.990845,-30.547485
1766497897602,-0.86816406,-0.40820312,0.28320312,-0.5493164,-1.2817383,1.0375977,0.0,0.0,0.0,-54.58008,60.078735,-30.322266
1766497897689,-0.87353516,-0.41064453,0.2939453,-4.8828125,-3.540039,4.8217773,0.0,0.0,0.0,-54.58008,60.078735,-30.322266
1766497897701,-0.87353516,-0.41064453,0.2939453,-4.8828125,-3.540039,4.8217773,0.0,0.0,0.0,-54.42627,60.21057,-29.866333
1766497897789,-0.8955078,-0.39013672,0.2841797,0.0,1.5869141,0.8544922,0.0,0.0,0.0,-54.42627,60.21057,-29.866333
1766497897800,-0.8955078,-0.39013672,0.2841797,0.0,1.5869141,0.8544922,0.0,0.0,0.0,-54.223022,60.3479,-29.51477
1766497897889,-0.86279297,-0.3959961,0.2861328,1.159668,-1.6479492,1.0986328,0.0,0.0,0.0,-54.223022,60.3479,-29.51477
1766497897900,-0.86279297,-0.3959961,0.2861328,1.159668,-1.6479492,1.0986328,0.0,0.0,0.0,-53.964844,60.584106,-28.987427
1766497897989,-0.87646484,-0.42529297,0.296875,-3.112793,2.0141602,0.79345703,0.0,0.0,0.0,-53.964844,60.584106,-28.987427
1766497898000,-0.87646484,-0.42529297,0.296875,-3.112793,2.0141602,0.79345703,0.0,0.0,0.0,-53.75061,60.51819,-28.668823
1766497898088,-0.86816406,-0.39697266,0.28271484,-4.4555664,-4.8217773,-0.61035156,0.0,0.0,0.0,-53.75061,60.51819,-28.668823
1766497898100,-0.86816406,-0.39697266,0.28271484,-4.4555664,-4.8217773,-0.61035156,0.0,0.0,0.0,-53.833008,60.38086,-28.24585
1766497898188,-0.8588867,-0.40966797,0.2998047,-1.953125,4.0283203,-0.8544922,0.0,0.0,0.0,-53.833008,60.38086,-28.24585
1766497898199,-0.8588867,-0.40966797,0.2998047,-1.953125,4.0283203,-0.8544922,0.0,0.0,0.0,-54.349365,60.33142,-28.564453
1766497898288,-0.87597656,-0.35791016,0.30078125,-2.9296875,-8.178711,4.8828125,0.0,0.0,0.0,-54.349365,60.33142,-28.564453
1766497898299,-0.87597656,-0.35791016,0.30078125,-2.9296875,-8.178711,4.8828125,0.0,0.0,0.0,-54.190063,60.38086,-27.993164
1766497898387,-0.88916016,-0.37841797,0.28955078,7.9956055,1.7700195,0.4272461,0.0,0.0,0.0,-54.190063,60.38086,-27.993164
1766497898399,-0.88916016,-0.37841797,0.28955078,7.9956055,1.7700195,0.4272461,0.0,0.0,0.0,-52.64099,60.166626,-26.5979
1766497898487,-0.8544922,-0.41015625,0.28125,8.361816,-2.2583008,-3.1738281,0.0,0.0,0.0,-52.64099,60.166626,-26.5979
1766497898499,-0.8544922,-0.41015625,0.28125,8.361816,-2.2583008,-3.1738281,0.0,0.0,0.0,-51.800537,60.062256,-27.037354
1766497898587,-0.8676758,-0.39941406,0.31884766,5.79834,-3.2958984,-9.460449,0.0,0.0,0.0,-51.800537,60.062256,-27.037354
1766497898599,-0.8676758,-0.39941406,0.31884766,5.79834,-3.2958984,-9.460449,0.0,0.0,0.0,-51.784058,59.40857,-27.877808
1766497898687,-0.8671875,-0.34814453,0.3383789,5.126953,-4.1503906,3.7231445,0.0,0.0,0.0,-51.784058,59.40857,-27.877808
1766497898698,-0.8671875,-0.34814453,0.3383789,5.126953,-4.1503906,3.7231445,0.0,0.0,0.0,-50.822754,58.639526,-27.548218
1766497898787,-0.81591797,-0.44921875,0.31884766,0.0,1.2817383,5.7373047,0.0,0.0,0.0,-50.822754,58.639526,-27.548218
1766497898798,-0.81591797,-0.44921875,0.31884766,0.0,1.2817383,5.7373047,0.0,0.0,0.0,-49.784546,59.19983,-26.954956
1766497898886,-0.87841797,-0.33691406,0.34814453,0.18310547,-22.277832,6.591797,0.0,0.0,0.0,-49.784546,59.19983,-26.954956
1766497898898,-0.87841797,-0.33691406,0.34814453,0.18310547,-22.277832,6.591797,0.0,0.0,0.0,-48.17505,58.743896,-24.801636
1766497898986,-0.8911133,-0.3383789,0.35351562,5.7373047,2.8076172,4.760742,0.0,0.0,0.0,-48.17505,58.743896,-24.801636
1766497898997,-0.8911133,-0.3383789,0.35351562,5.7373047,2.8076172,4.760742,0.0,0.0,0.0,-45.97229,58.502197,-22.505493
1766497899085,-0.84033203,-0.40283203,0.35839844,1.0375977,1.4038086,3.4179688,0.0,0.0,0.0,-45.97229,58.502197,-22.505493
1766497899097,-0.84033203,-0.40283203,0.35839844,1.0375977,1.4038086,3.4179688,0.0,0.0,0.0,-46.049194,59.232788,-22.988892
1766497899185,-0.8540039,-0.34960938,0.38623047,1.953125,0.30517578,2.1362305,0.0,0.0,0.0,-46.049194,59.232788,-22.988892
1766497899197,-0.8540039,-0.34960938,0.38623047,1.953125,0.30517578,2.1362305,0.0,0.0,0.0,-45.53833,59.34265,-22.62085
1766497899285,-0.8408203,-0.35058594,0.3623047,3.0517578,-7.751465,3.6621094,0.0,0.0,0.0,-45.53833,59.34265,-22.62085
1766497899297,-0.8408203,-0.35058594,0.3623047,3.0517578,-7.751465,3.6621094,0.0,0.0,0.0,-44.395752,59.243774,-21.604614
1766497899385,-0.8808594,-0.36328125,0.35498047,-3.0517578,2.8686523,5.3710938,0.0,0.0,0.0,-44.395752,59.243774,-21.604614
1766497899396,-0.8808594,-0.36328125,0.35498047,-3.0517578,2.8686523,5.3710938,0.0,0.0,0.0,-43.4729,59.452515,-20.53894
1766497899484,-0.8701172,-0.3232422,0.35205078,3.90625,2.1972656,-2.6855469,0.0,0.0,0.0,-43.4729,59.452515,-20.53894
1766497899496,-0.8701172,-0.3232422,0.35205078,3.90625,2.1972656,-2.6855469,0.0,0.0,0.0,-43.379517,59.452515,-20.786133
1766497899584,-0.86621094,-0.359375,0.34960938,-1.0375977,7.507324,-0.48828125,0.0,0.0,0.0,-43.379517,59.452515,-20.786133
1766497899596,-0.86621094,-0.359375,0.34960938,-1.0375977,7.507324,-0.48828125,0.0,0.0,0.0,-44.467163,59.957886,-22.302246
1766497899684,-0.8730469,-0.35253906,0.36669922,-2.2583008,-0.061035156,0.0,0.0,0.0,0.0,-44.467163,59.957886,-22.302246
1766497899695,-0.8730469,-0.35253906,0.36669922,-2.2583008,-0.061035156,0.0,0.0,0.0,0.0,-45.36255,60.232544,-23.312988
1766497899784,-0.8618164,-0.34716797,0.33935547,2.5024414,3.8452148,-2.5634766,0.0,0.0,0.0,-45.36255,60.232544,-23.312988
1766497899795,-0.8618164,-0.34716797,0.33935547,2.5024414,3.8452148,-2.5634766,0.0,0.0,0.0,-45.52185,60.183105,-23.648071
1766497899883,-0.87402344,-0.36132812,0.34570312,0.5493164,3.540039,-1.6479492,0.0,0.0,0.0,-45.52185,60.183105,-23.648071
1766497899895,-0.87402344,-0.36132812,0.34570312,0.5493164,3.540039,-1.6479492,0.0,0.0,0.0,-46.13159,60.358887,-24.439087
1766497899983,-0.87402344,-0.34375,0.33154297,0.0,2.319336,-0.4272461,0.0,0.0,0.0,-46.13159,60.358887,-24.439087
1766497899994,-0.87402344,-0.34375,0.33154297,0.0,2.319336,-0.4272461,0.0,0.0,0.0,-46.54358,60.474243,-24.960938
1766497900083,-0.8779297,-0.3569336,0.34814453,0.79345703,-1.0986328,0.061035156,0.0,0.0,0.0,-46.54358,60.474243,-24.960938
1766497900094,-0.8779297,-0.3569336,0.34814453,0.79345703,-1.0986328,0.061035156,0.0,0.0,0.0,-46.571045,60.512695,-25.081787
1766497900183,-0.8666992,-0.359375,0.33398438,-0.061035156,4.333496,-0.7324219,0.0,0.0,0.0,-46.571045,60.512695,-25.081787
1766497900194,-0.8666992,-0.359375,0.33398438,-0.061035156,4.333496,-0.7324219,0.0,0.0,0.0,-46.741333,60.595093,-25.279541
1766497900283,-0.8779297,-0.3544922,0.3256836,-0.5493164,-1.7700195,0.4272461,0.0,0.0,0.0,-46.741333,60.595093,-25.279541
1766497900294,-0.8779297,-0.3544922,0.3256836,-0.5493164,-1.7700195,0.4272461,0.0,0.0,0.0,-46.66992,60.584106,-25.043335
1766497900382,-0.8676758,-0.34960938,0.3486328,-1.5869141,-1.6479492,1.2207031,0.0,0.0,0.0,-46.66992,60.584106,-25.043335
1766497900393,-0.8676758,-0.34960938,0.3486328,-1.5869141,-1.6479492,1.2207031,0.0,0.0,0.0,-46.653442,60.633545,-24.873047
1766497900482,-0.8779297,-0.35253906,0.32128906,0.18310547,1.6479492,-0.061035156,0.0,0.0,0.0,-46.653442,60.633545,-24.873047
1766497900493,-0.8779297,-0.35253906,0.32128906,0.18310547,1.6479492,-0.061035156,0.0,0.0,0.0,-46.466675,60.584106,-24.697266
1766497900581,-0.86279297,-0.34814453,0.34033203,-0.48828125,-1.3427734,0.4272461,0.0,0.0,0.0,-46.466675,60.584106,-24.697266
1766497900593,-0.86279297,-0.34814453,0.34033203,-0.48828125,-1.3427734,0.4272461,0.0,0.0,0.0,-46.5271,60.639038,-24.74121
1766497900681,-0.87890625,-0.3569336,0.3334961,1.0986328,0.36621094,-1.0986328,0.0,0.0,0.0,-46.5271,60.639038,-24.74121
1766497900693,-0.87890625,-0.3569336,0.3334961,1.0986328,0.36621094,-1.0986328,0.0,0.0,0.0,-46.257935,60.52368,-24.384155
1766497900781,-0.8769531,-0.34765625,0.33789062,0.48828125,2.0141602,-0.8544922,0.0,0.0,0.0,-46.257935,60.52368,-24.384155
1766497900793,-0.8769531,-0.34765625,0.33789062,0.48828125,2.0141602,-0.8544922,0.0,0.0,0.0,-46.40625,60.57312,-24.505005
1766497900881,-0.86816406,-0.3540039,0.34375,-1.7700195,-3.8452148,0.5493164,0.0,0.0,0.0,-46.40625,60.57312,-24.505005
1766497900892,-0.86816406,-0.3540039,0.34375,-1.7700195,-3.8452148,0.5493164,0.0,0.0,0.0,-46.58203,60.595093,-24.785156
1766497900980,-0.87597656,-0.3486328,0.33251953,0.5493164,3.540039,-0.6713867,0.0,0.0,0.0,-46.58203,60.595093,-24.785156
1766497900992,-0.87597656,-0.3486328,0.33251953,0.5493164,3.540039,-0.6713867,0.0,0.0,0.0,-46.70288,60.5896,-24.900513
1766497901080,-0.8720703,-0.35595703,0.32910156,3.90625,3.112793,-2.319336,0.0,0.0,0.0,-46.70288,60.5896,-24.900513
1766497901091,-0.8720703,-0.35595703,0.32910156,3.90625,3.112793,-2.319336,0.0,0.0,0.0,-46.6864,60.578613,-25.059814
1766497901180,-0.8745117,-0.36083984,0.3359375,0.36621094,0.061035156,-0.61035156,0.0,0.0,0.0,-46.6864,60.578613,-25.059814
1766497901191,-0.8745117,-0.36083984,0.3359375,0.36621094,0.061035156,-0.61035156,0.0,0.0,0.0,-46.9281,60.66101,-25.488281
1766497901279,-0.8745117,-0.3544922,0.3256836,-1.5869141,-0.5493164,-0.30517578,0.0,0.0,0.0,-46.9281,60.66101,-25.488281
1766497901291,-0.8745117,-0.3544922,0.3256836,-1.5869141,-0.5493164,-0.30517578,0.0,0.0,0.0,-47.037964,60.57312,-25.576172
1766497901379,-0.8774414,-0.35595703,0.32373047,-1.0375977,0.18310547,0.30517578,0.0,0.0,0.0,-47.037964,60.57312,-25.576172
1766497901391,-0.8774414,-0.35595703,0.32373047,-1.0375977,0.18310547,0.30517578,0.0,0.0,0.0,-47.12036,60.611572,-25.493774
1766497901479,-0.8676758,-0.35595703,0.33007812,0.0,0.0,-0.24414062,0.0,0.0,0.0,-47.12036,60.611572,-25.493774
1766497901491,-0.8676758,-0.35595703,0.33007812,0.0,0.0,-0.24414062,0.0,0.0,0.0,-47.208252,60.639038,-25.543213
1766497901579,-0.8730469,-0.35888672,0.3334961,-0.12207031,0.18310547,-0.36621094,0.0,0.0,0.0,-47.208252,60.639038,-25.543213
1766497901590,-0.8730469,-0.35888672,0.3334961,-0.12207031,0.18310547,-0.36621094,0.0,0.0,0.0,-47.1698,60.611572,-25.444336
1766497901678,-0.87597656,-0.35253906,0.33203125,-0.24414062,0.0,-1.2207031,0.0,0.0,0.0,-47.1698,60.611572,-25.444336
1766497901690,-0.87597656,-0.35253906,0.33203125,-0.24414062,0.0,-1.2207031,0.0,0.0,0.0,-47.235718,60.551147,-25.477295
1766497901778,-0.87060547,-0.35888672,0.32421875,-1.159668,0.6713867,0.12207031,0.0,0.0,0.0,-47.235718,60.551147,-25.477295
1766497901790,-0.87060547,-0.35888672,0.32421875,-1.159668,0.6713867,0.12207031,0.0,0.0,0.0,-47.24121,60.51819,-25.411377
1766497901878,-0.87158203,-0.35986328,0.32763672,1.2207031,0.4272461,-0.24414062,0.0,0.0,0.0,-47.24121,60.51819,-25.411377
1766497901889,-0.87158203,-0.35986328,0.32763672,1.2207031,0.4272461,-0.24414062,0.0,0.0,0.0,-47.24121,60.551147,-25.389404
1766497901977,-0.86816406,-0.35742188,0.33496094,-0.12207031,-0.48828125,-0.12207031,0.0,0.0,0.0,-47.24121,60.551147,-25.389404
1766497901989,-0.86816406,-0.35742188,0.33496094,-0.12207031,-0.48828125,-0.12207031,0.0,0.0,0.0,-47.21924,60.551147,-25.361938
1766497902077,-0.8754883,-0.3623047,0.32421875,-0.24414062,0.0,0.12207031,0.0,0.0,0.0,-47.21924,60.551147,-25.361938
1766497902089,-0.8754883,-0.3623047,0.32421875,-0.24414062,0.0,0.12207031,0.0,0.0,0.0,-47.13684,60.52368,-25.285034
1766497902177,-0.87109375,-0.35888672,0.32861328,0.30517578,0.4272461,0.0,0.0,0.0,0.0,-47.13684,60.52368,-25.285034
1766497902189,-0.87109375,-0.35888672,0.32861328,0.30517578,0.4272461,0.0,0.0,0.0,0.0,-47.191772,60.55664,-25.323486
1766497902277,-0.87060547,-0.35595703,0.33154297,-0.6713867,-0.61035156,0.4272461,0.0,0.0,0.0,-47.191772,60.55664,-25.323486
1766497902288,-0.87060547,-0.35595703,0.33154297,-0.6713867,-0.61035156,0.4272461,0.0,0.0,0.0,-47.180786,60.567627,-25.246582
1766497902376,-0.8745117,-0.35839844,0.32861328,0.4272461,0.61035156,-0.061035156,0.0,0.0,0.0,-47.180786,60.567627,-25.246582
1766497902388,-0.8745117,-0.35839844,0.32861328,0.4272461,0.61035156,-0.061035156,0.0,0.0,0.0,-47.125854,60.567627,-25.180664
1766497902476,-0.8696289,-0.35791016,0.3251953,0.4272461,1.8920898,-1.3427734,0.0,0.0,0.0,-47.125854,60.567627,-25.180664
1766497902488,-0.8696289,-0.35791016,0.3251953,0.4272461,1.8920898,-1.3427734,0.0,0.0,0.0,-47.22473,60.578613,-25.3125
1766497902576,-0.8691406,-0.3564453,0.31982422,-1.2207031,0.7324219,0.7324219,0.0,0.0,0.0,-47.22473,60.578613,-25.3125
1766497902587,-0.8691406,-0.3564453,0.31982422,-1.2207031,0.7324219,0.7324219,0.0,0.0,0.0,-47.42798,60.639038,-25.515747
1766497902676,-0.8754883,-0.35742188,0.32958984,1.4648438,-1.4648438,-0.4272461,0.0,0.0,0.0,-47.42798,60.639038,-25.515747
1766497902687,-0.8754883,-0.35742188,0.32958984,1.4648438,-1.4648438,-0.4272461,0.0,0.0,0.0,-47.356567,60.62805,-25.438843
1766497902775,-0.87597656,-0.3569336,0.33007812,-0.6713867,1.4038086,-0.18310547,0.0,0.0,0.0,-47.356567,60.62805,-25.438843
1766497902787,-0.87597656,-0.3569336,0.33007812,-0.6713867,1.4038086,-0.18310547,0.0,0.0,0.0,-47.351074,60.62805,-25.422363
1766497902875,-0.86816406,-0.36083984,0.3251953,0.91552734,-0.24414062,-0.36621094,0.0,0.0,0.0,-47.351074,60.62805,-25.422363
1766497902887,-0.86816406,-0.36083984,0.3251953,0.91552734,-0.24414062,-0.36621094,0.0,0.0,0.0,-47.422485,60.682983,-25.50476
1766497902975,-0.8745117,-0.36279297,0.328125,0.91552734,0.61035156,-0.48828125,0.0,0.0,0.0,-47.422485,60.682983,-25.50476
1766497902987,-0.8745117,-0.36279297,0.328125,0.91552734,0.61035156,-0.48828125,0.0,0.0,0.0,-47.400513,60.650024,-25.5542
1766497903075,-0.8676758,-0.36279297,0.32861328,0.4272461,0.24414062,-0.7324219,0.0,0.0,0.0,-47.400513,60.650024,-25.5542
1766497903086,-0.8676758,-0.36279297,0.32861328,0.4272461,0.24414062,-0.7324219,0.0,0.0,0.0,-47.43347,60.595093,-25.636597
1766497903174,-0.87646484,-0.35839844,0.3251953,0.79345703,1.4648438,-0.30517578,0.0,0.0,0.0,-47.43347,60.595093,-25.636597
1766497903186,-0.87646484,-0.35839844,0.3251953,0.79345703,1.4648438,-0.30517578,0.0,0.0,0.0,-47.400513,60.611572,-25.493774
1766497903274,-0.8671875,-0.35302734,0.32861328,-0.7324219,-1.953125,0.48828125,0.0,0.0,0.0,-47.400513,60.611572,-25.493774
1766497903285,-0.8671875,-0.35302734,0.32861328,-0.7324219,-1.953125,0.48828125,0.0,0.0,0.0,-47.477417,60.617065,-25.60913
1766497903374,-0.8745117,-0.36669922,0.3305664,1.159668,0.30517578,-0.24414062,0.0,0.0,0.0,-47.477417,60.617065,-25.60913
1766497903385,-0.8745117,-0.36669922,0.3305664,1.159668,0.30517578,-0.24414062,0.0,0.0,0.0,-47.340088,60.595093,-25.444336
1766497903473,-0.8598633,-0.3540039,0.3408203,0.30517578,0.8544922,-0.48828125,0.0,0.0,0.0,-47.340088,60.595093,-25.444336
1766497903485,-0.8598633,-0.3540039,0.3408203,0.30517578,0.8544922,-0.48828125,0.0,0.0,0.0,-47.36206,60.5896,-25.422363
1766497903573,-0.8852539,-0.36523438,0.3173828,-0.48828125,-0.6713867,0.0,0.0,0.0,0.0,-47.36206,60.5896,-25.422363
1766497903585,-0.8852539,-0.36523438,0.3173828,-0.48828125,-0.6713867,0.0,0.0,0.0,0.0,-47.285156,60.55664,-25.356445
1766497903673,-0.87353516,-0.35498047,0.33447266,0.18310547,-0.24414062,0.0,0.0,0.0,0.0,-47.285156,60.55664,-25.356445
1766497903684,-0.87353516,-0.35498047,0.33447266,0.18310547,-0.24414062,0.0,0.0,0.0,0.0,-47.389526,60.584106,-25.438843
1766497903773,-0.87402344,-0.36083984,0.33251953,0.24414062,1.2817383,-0.24414062,0.0,0.0,0.0,-47.389526,60.584106,-25.438843
1766497903784,-0.87402344,-0.36083984,0.33251953,0.24414062,1.2817383,-0.24414062,0.0,0.0,0.0,-47.351074,60.595093,-25.361938
1766497903872,-0.8696289,-0.3618164,0.32714844,-0.30517578,-0.18310547,-0.061035156,0.0,0.0,0.0,-47.351074,60.595093,-25.361938
1766497903884,-0.8696289,-0.3618164,0.32714844,-0.30517578,-0.18310547,-0.061035156,0.0,0.0,0.0,-47.34558,60.5896,-25.334473
1766497903972,-0.87402344,-0.3564453,0.3310547,-0.36621094,-0.24414062,0.061035156,0.0,0.0,0.0,-47.34558,60.5896,-25.334473
1766497903984,-0.87402344,-0.3564453,0.3310547,-0.36621094,-0.24414062,0.061035156,0.0,0.0,0.0,-47.373047,60.57312,-25.3125
1766497904072,-0.8720703,-0.35742188,0.33154297,0.5493164,0.7324219,-0.12207031,0.0,0.0,0.0,-47.373047,60.57312,-25.3125
1766497904083,-0.8720703,-0.35742188,0.33154297,0.5493164,0.7324219,-0.12207031,0.0,0.0,0.0,-47.400513,60.595093,-25.350952
1766497904171,-0.8754883,-0.3618164,0.3334961,-0.12207031,-0.8544922,0.0,0.0,0.0,0.0,-47.400513,60.595093,-25.350952
1766497904183,-0.8754883,-0.3618164,0.3334961,-0.12207031,-0.8544922,0.0,0.0,0.0,0.0,-47.37854,60.57312,-25.345459
1766497904271,-0.8642578,-0.35742188,0.33789062,-0.4272461,0.6713867,-0.061035156,0.0,0.0,0.0,-47.37854,60.57312,-25.345459
1766497904283,-0.8642578,-0.35742188,0.33789062,-0.4272461,0.6713867,-0.061035156,0.0,0.0,0.0,-47.455444,60.60608,-25.372925
1766497904371,-0.87841797,-0.36621094,0.32128906,0.61035156,0.6713867,-0.5493164,0.0,0.0,0.0,-47.455444,60.60608,-25.372925
1766497904382,-0.87841797,-0.36621094,0.32128906,0.61035156,0.6713867,-0.5493164,0.0,0.0,0.0,-47.4115,60.5896,-25.361938
1766497904471,-0.87353516,-0.35888672,0.32958984,-0.36621094,-0.91552734,0.4272461,0.0,0.0,0.0,-47.4115,60.5896,-25.361938
1766497904483,-0.87353516,-0.35888672,0.32958984,-0.36621094,-0.91552734,0.4272461,0.0,0.0,0.0,-47.400513,60.5896,-25.32898
1766497904570,-0.86865234,-0.36083984,0.33203125,0.7324219,1.7089844,-0.7324219,0.0,0.0,0.0,-47.400513,60.5896,-25.32898
1766497904582,-0.86865234,-0.36083984,0.33203125,0.7324219,1.7089844,-0.7324219,0.0,0.0,0.0,-47.521362,60.639038,-25.493774
1766497904670,-0.8725586,-0.36083984,0.32617188,-0.12207031,0.36621094,-0.30517578,0.0,0.0,0.0,-47.521362,60.639038,-25.493774
1766497904682,-0.8725586,-0.36083984,0.32617188,-0.12207031,0.36621094,-0.30517578,0.0,0.0,0.0,-47.67517,60.650024,-25.697021
1766497904770,-0.8725586,-0.36132812,0.32617188,0.36621094,0.12207031,-0.12207031,0.0,0.0,0.0,-47.67517,60.650024,-25.697021
1766497904782,-0.8725586,-0.36132812,0.32617188,0.36621094,0.12207031,-0.12207031,0.0,0.0,0.0,-47.65869,60.633545,-25.653076
1766497904870,-0.8691406,-0.35986328,0.32910156,0.24414062,0.48828125,-0.24414062,0.0,0.0,0.0,-47.65869,60.633545,-25.653076
1766497904881,-0.8691406,-0.35986328,0.32910156,0.24414062,0.48828125,-0.24414062,0.0,0.0,0.0,-47.63672,60.633545,-25.598145
1766497904969,-0.8769531,-0.36523438,0.32617188,-0.12207031,-1.7700195,0.6713867,0.0,0.0,0.0,-47.63672,60.633545,-25.598145
1766497904981,-0.8769531,-0.36523438,0.32617188,-0.12207031,-1.7700195,0.6713867,0.0,0.0,0.0,-47.543335,60.595093,-25.493774
1766497905069,-0.86621094,-0.3544922,0.34228516,0.30517578,0.0,-0.061035156,0.0,0.0,0.0,-47.543335,60.595093,-25.493774
1766497905081,-0.86621094,-0.3544922,0.34228516,0.30517578,0.0,-0.061035156,0.0,0.0,0.0,-47.592773,60.62256,-25.488281
1766497905169,-0.87353516,-0.36669922,0.32128906,0.0,0.79345703,-0.12207031,0.0,0.0,0.0,-47.592773,60.62256,-25.488281
1766497905180,-0.87353516,-0.36669922,0.32128906,0.0,0.79345703,-0.12207031,0.0,0.0,0.0,-47.559814,60.600586,-25.510254
1766497905268,-0.8730469,-0.35888672,0.328125,0.061035156,-0.4272461,0.061035156,0.0,0.0,0.0,-47.559814,60.600586,-25.510254
1766497905280,-0.8730469,-0.35888672,0.328125,0.061035156,-0.4272461,0.061035156,0.0,0.0,0.0,-47.53784,60.595093,-25.444336
1766497905368,-0.8696289,-0.35791016,0.33251953,0.18310547,0.4272461,-0.24414062,0.0,0.0,0.0,-47.53784,60.595093,-25.444336
1766497905380,-0.8696289,-0.35791016,0.33251953,0.18310547,0.4272461,-0.24414062,0.0,0.0,0.0,-47.58728,60.60608,-25.50476
1766497905468,-0.8720703,-0.36083984,0.3251953,-0.24414062,0.12207031,0.0,0.0,0.0,0.0,-47.58728,60.60608,-25.50476
1766497905479,-0.8720703,-0.36083984,0.3251953,-0.24414062,0.12207031,0.0,0.0,0.0,0.0,-47.58728,60.60608,-25.510254
1766497905568,-0.8725586,-0.36035156,0.32470703,0.24414062,-0.18310547,-0.12207031,0.0,0.0,0.0,-47.58728,60.60608,-25.510254
1766497905579,-0.8725586,-0.36035156,0.32470703,0.24414062,-0.18310547,-0.12207031,0.0,0.0,0.0,-47.58728,60.600586,-25.488281
1766497905667,-0.8666992,-0.36376953,0.32714844,1.5869141,0.91552734,-0.8544922,0.0,0.0,0.0,-47.58728,60.600586,-25.488281
1766497905679,-0.8666992,-0.36376953,0.32714844,1.5869141,0.91552734,-0.8544922,0.0,0.0,0.0,-47.55432,60.60608,-25.466309
1766497905767,-0.875,-0.36376953,0.3178711,-0.79345703,-1.159668,0.30517578,0.0,0.0,0.0,-47.55432,60.60608,-25.466309
1766497905779,-0.875,-0.36376953,0.3178711,-0.79345703,-1.159668,0.30517578,0.0,0.0,0.0,-47.53784,60.57312,-25.444336
1766497905867,-0.86865234,-0.35595703,0.33496094,0.7324219,-0.18310547,-0.061035156,0.0,0.0,0.0,-47.53784,60.57312,-25.444336
1766497905879,-0.86865234,-0.35595703,0.33496094,0.7324219,-0.18310547,-0.061035156,0.0,0.0,0.0,-47.559814,60.584106,-25.405884
1766497905966,-0.87060547,-0.36035156,0.32958984,-0.12207031,-0.24414062,0.0,0.0,0.0,0.0,-47.559814,60.584106,-25.405884
1766497905978,-0.87060547,-0.36035156,0.32958984,-0.12207031,-0.24414062,0.0,0.0,0.0,0.0,-47.510376,60.567627,-25.383911
1766497906066,-0.87353516,-0.3618164,0.3256836,0.24414062,0.0,0.061035156,0.0,0.0,0.0,-47.510376,60.567627,-25.383911
1766497906078,-0.87353516,-0.3618164,0.3256836,0.24414062,0.0,0.061035156,0.0,0.0,0.0,-47.42798,60.534668,-25.274048
1766497906166,-0.8725586,-0.359375,0.32910156,0.36621094,0.61035156,-0.18310547,0.0,0.0,0.0,-47.42798,60.534668,-25.274048
1766497906178,-0.8725586,-0.359375,0.32910156,0.36621094,0.61035156,-0.18310547,0.0,0.0,0.0,-47.43347,60.545654,-25.257568
1766497906266,-0.8701172,-0.35986328,0.33251953,-0.4272461,0.0,0.18310547,0.0,0.0,0.0,-47.43347,60.545654,-25.257568
1766497906277,-0.8701172,-0.35986328,0.33251953,-0.4272461,0.0,0.18310547,0.0,0.0,0.0,-47.422485,60.545654,-25.230103
1766497906365,-0.8725586,-0.35986328,0.33203125,-0.18310547,0.4272461,0.061035156,0.0,0.0,0.0,-47.422485,60.545654,-25.230103
1766497906377,-0.8725586,-0.35986328,0.33203125,-0.18310547,0.4272461,0.061035156,0.0,0.0,0.0,-47.37854,60.551147,-25.180664
1766497906465,-0.8774414,-0.35839844,0.3334961,0.061035156,-0.24414062,-0.4272461,0.0,0.0,0.0,-47.37854,60.551147,-25.180664
1766497906477,-0.8774414,-0.35839844,0.3334961,0.061035156,-0.24414062,-0.4272461,0.0,0.0,0.0,-47.389526,60.534668,-25.235596
1766497906565,-0.86865234,-0.35839844,0.33398438,-0.30517578,0.7324219,0.061035156,0.0,0.0,0.0,-47.389526,60.534668,-25.235596
1766497906577,-0.86865234,-0.35839844,0.33398438,-0.30517578,0.7324219,0.061035156,0.0,0.0,0.0,-47.37854,60.534668,-25.213623
1766497906665,-0.8774414,-0.36572266,0.3232422,0.36621094,0.061035156,-0.36621094,0.0,0.0,0.0,-47.37854,60.534668,-25.213623
1766497906677,-0.8774414,-0.36572266,0.3232422,0.36621094,0.061035156,-0.36621094,0.0,0.0,0.0,-47.34558,60.54016,-25.235596
1766497906764,-0.8696289,-0.35791016,0.33544922,0.4272461,-0.5493164,-0.12207031,0.0,0.0,0.0,-47.34558,60.54016,-25.235596
1766497906776,-0.8696289,-0.35791016,0.33544922,0.4272461,-0.5493164,-0.12207031,0.0,0.0,0.0,-47.367554,60.51819,-25.274048
1766497906864,-0.87353516,-0.36035156,0.33203125,-0.12207031,0.4272461,0.0,0.0,0.0,0.0,-47.367554,60.51819,-25.274048
1766497906875,-0.87353516,-0.36035156,0.33203125,-0.12207031,0.4272461,0.0,0.0,0.0,0.0,-47.30713,60.51819,-25.202637
1766497906964,-0.8720703,-0.36328125,0.3256836,0.061035156,0.061035156,-0.36621094,0.0,0.0,0.0,-47.30713,60.51819,-25.202637
1766497906975,-0.8720703,-0.36328125,0.3256836,0.061035156,0.061035156,-0.36621094,0.0,0.0,0.0,-47.334595,60.529175,-25.252075
1766497907063,-0.87402344,-0.35986328,0.32958984,0.061035156,0.18310547,-0.12207031,0.0,0.0,0.0,-47.334595,60.529175,-25.252075
1766497907075,-0.87402344,-0.35986328,0.32958984,0.061035156,0.18310547,-0.12207031,0.0,0.0,0.0,-47.37854,60.52368,-25.263062
1766497907163,-0.87060547,-0.36132812,0.33007812,0.9765625,1.2817383,-0.79345703,0.0,0.0,0.0,-47.37854,60.52368,-25.263062
