timestamp,accX,accY,accZ,gyroX,gyroY,gyroZ,magX,magY,magZ,roll,pitch,yaw
1766498278423,-0.8876953,-0.3725586,0.26953125,0.0,0.24414062,-0.12207031,0.0,0.0,0.0,-53.085938,61.902466,-27.053833
1766498278435,-0.8876953,-0.3725586,0.26953125,0.0,0.24414062,-0.12207031,0.0,0.0,0.0,-53.102417,61.918945,-27.06482
1766498278523,-0.88378906,-0.37158203,0.27197266,0.48828125,0.61035156,-0.36621094,0.0,0.0,0.0,-53.102417,61.918945,-27.06482
1766498278534,-0.88378906,-0.37158203,0.27197266,0.48828125,0.61035156,-0.36621094,0.0,0.0,0.0,-53.17932,61.92993,-27.16919
1766498278623,-0.88671875,-0.37109375,0.26708984,-0.30517578,0.0,-0.061035156,0.0,0.0,0.0,-53.17932,61.92993,-27.16919
1766498278634,-0.88671875,-0.37109375,0.26708984,-0.30517578,0.0,-0.061035156,0.0,0.0,0.0,-53.168335,61.92444,-27.141724
1766498278722,-0.8876953,-0.375,0.2685547,0.36621094,-0.24414062,-0.18310547,0.0,0.0,0.0,-53.168335,61.92444,-27.141724
1766498278734,-0.8876953,-0.375,0.2685547,0.36621094,-0.24414062,-0.18310547,0.0,0.0,0.0,-53.201294,61.92993,-27.224121
1766498278822,-0.88378906,-0.37060547,0.27734375,0.6713867,-0.6713867,-0.12207031,0.0,0.0,0.0,-53.201294,61.92993,-27.224121
1766498278833,-0.88378906,-0.37060547,0.27734375,0.6713867,-0.6713867,-0.12207031,0.0,0.0,0.0,-53.151855,61.913452,-27.213135
1766498278922,-0.88964844,-0.37695312,0.2705078,0.8544922,0.0,-0.4272461,0.0,0.0,0.0,-53.151855,61.913452,-27.213135
1766498278933,-0.88964844,-0.37695312,0.2705078,0.8544922,0.0,-0.4272461,0.0,0.0,0.0,-53.00354,61.885986,-27.13623
1766498279022,-0.88378906,-0.37109375,0.2763672,0.5493164,0.0,-0.5493164,0.0,0.0,0.0,-53.00354,61.885986,-27.13623
1766498279033,-0.88378906,-0.37109375,0.2763672,0.5493164,0.0,-0.5493164,0.0,0.0,0.0,-53.047485,61.869507,-27.279053
1766498279121,-0.88378906,-0.37402344,0.27392578,0.0,0.0,-0.061035156,0.0,0.0,0.0,-53.047485,61.869507,-27.279053
1766498279133,-0.88378906,-0.37402344,0.27392578,0.0,0.0,-0.061035156,0.0,0.0,0.0,-53.063965,61.864014,-27.339478
1766498279221,-0.88671875,-0.37695312,0.2763672,-1.4038086,-0.18310547,0.7324219,0.0,0.0,0.0,-53.063965,61.864014,-27.339478
1766498279232,-0.88671875,-0.37695312,0.2763672,-1.4038086,-0.18310547,0.7324219,0.0,0.0,0.0,-53.085938,61.902466,-27.29004
1766498279321,-0.890625,-0.37597656,0.26757812,0.61035156,-0.48828125,-1.4038086,0.0,0.0,0.0,-53.085938,61.902466,-27.29004
1766498279332,-0.890625,-0.37597656,0.26757812,0.61035156,-0.48828125,-1.4038086,0.0,0.0,0.0,-53.102417,61.880493,-27.312012
1766498279420,-0.88183594,-0.3671875,0.27783203,0.36621094,-0.6713867,0.18310547,0.0,0.0,0.0,-53.102417,61.880493,-27.312012
1766498279432,-0.88183594,-0.3671875,0.27783203,0.36621094,-0.6713867,0.18310547,0.0,0.0,0.0,-53.063965,61.847534,-27.366943
1766498279520,-0.8823242,-0.36621094,0.26904297,0.4272461,0.8544922,0.0,0.0,0.0,0.0,-53.063965,61.847534,-27.366943
1766498279532,-0.8823242,-0.36621094,0.26904297,0.4272461,0.8544922,0.0,0.0,0.0,0.0,-52.871704,61.869507,-27.16919
1766498279620,-0.88623047,-0.37060547,0.27978516,2.2583008,0.0,-0.36621094,0.0,0.0,0.0,-52.871704,61.869507,-27.16919
1766498279632,-0.88623047,-0.37060547,0.27978516,2.2583008,0.0,-0.36621094,0.0,0.0,0.0,-52.822266,61.875,-27.262573
1766498279719,-0.88134766,-0.37841797,0.28076172,-0.30517578,-0.24414062,1.0375977,0.0,0.0,0.0,-52.822266,61.875,-27.262573
1766498279731,-0.88134766,-0.37841797,0.28076172,-0.30517578,-0.24414062,1.0375977,0.0,0.0,0.0,-52.679443,61.968384,-27.191162
1766498279819,-0.8828125,-0.36572266,0.27490234,0.0,-0.7324219,-0.061035156,0.0,0.0,0.0,-52.679443,61.968384,-27.191162
1766498279831,-0.8828125,-0.36572266,0.27490234,0.0,-0.7324219,-0.061035156,0.0,0.0,0.0,-52.591553,61.951904,-27.03186
1766498279919,-0.8803711,-0.36035156,0.28076172,2.8076172,-0.061035156,-0.4272461,0.0,0.0,0.0,-52.591553,61.951904,-27.03186
1766498279931,-0.8803711,-0.36035156,0.28076172,2.8076172,-0.061035156,-0.4272461,0.0,0.0,0.0,-52.44873,61.940918,-27.03186
1766498280019,-0.890625,-0.36523438,0.2788086,0.0,-2.6245117,1.2817383,0.0,0.0,0.0,-52.44873,61.940918,-27.03186
1766498280031,-0.890625,-0.36523438,0.2788086,0.0,-2.6245117,1.2817383,0.0,0.0,0.0,-52.036743,61.92444,-26.625366
1766498280118,-0.8769531,-0.36767578,0.28564453,1.0986328,-0.7324219,0.91552734,0.0,0.0,0.0,-52.036743,61.92444,-26.625366
1766498280130,-0.8769531,-0.36767578,0.28564453,1.0986328,-0.7324219,0.91552734,0.0,0.0,0.0,-51.76758,61.89148,-26.47705
1766498280218,-0.88623047,-0.36914062,0.28759766,-0.18310547,-2.1972656,1.5258789,0.0,0.0,0.0,-51.76758,61.89148,-26.47705
1766498280230,-0.88623047,-0.36914062,0.28759766,-0.18310547,-2.1972656,1.5258789,0.0,0.0,0.0,-51.344604,61.92993,-25.982666
1766498280318,-0.8847656,-0.3564453,0.2919922,1.0375977,-1.2817383,0.12207031,0.0,0.0,0.0,-51.344604,61.92993,-25.982666
1766498280330,-0.8847656,-0.3564453,0.2919922,1.0375977,-1.2817383,0.12207031,0.0,0.0,0.0,-51.069946,61.880493,-25.691528
1766498280418,-0.88378906,-0.3642578,0.30126953,-1.7700195,0.79345703,1.2207031,0.0,0.0,0.0,-51.069946,61.880493,-25.691528
1766498280430,-0.88378906,-0.3642578,0.30126953,-1.7700195,0.79345703,1.2207031,0.0,0.0,0.0,-50.949097,61.951904,-25.515747
1766498280517,-0.8930664,-0.36035156,0.2788086,0.36621094,-0.7324219,0.061035156,0.0,0.0,0.0,-50.949097,61.951904,-25.515747
1766498280529,-0.8930664,-0.36035156,0.2788086,0.36621094,-0.7324219,0.061035156,0.0,0.0,0.0,-50.734863,61.96289,-25.279541
1766498280617,-0.88623047,-0.34960938,0.28857422,0.79345703,-1.8310547,-0.7324219,0.0,0.0,0.0,-50.734863,61.96289,-25.279541
1766498280629,-0.88623047,-0.34960938,0.28857422,0.79345703,-1.8310547,-0.7324219,0.0,0.0,0.0,-50.646973,61.918945,-25.213623
1766498280717,-0.88671875,-0.3564453,0.29492188,0.12207031,0.30517578,0.24414062,0.0,0.0,0.0,-50.646973,61.918945,-25.213623
1766498280728,-0.88671875,-0.3564453,0.29492188,0.12207031,0.30517578,0.24414062,0.0,0.0,0.0,-50.707397,61.951904,-25.323486
1766498280817,-0.88183594,-0.35595703,0.28466797,1.4038086,0.24414062,-0.61035156,0.0,0.0,0.0,-50.707397,61.951904,-25.323486
1766498280828,-0.88183594,-0.35595703,0.28466797,1.4038086,0.24414062,-0.61035156,0.0,0.0,0.0,-50.65796,61.94641,-25.301514
1766498280916,-0.8833008,-0.36572266,0.2944336,-0.91552734,0.0,0.36621094,0.0,0.0,0.0,-50.65796,61.94641,-25.301514
1766498280928,-0.8833008,-0.36572266,0.2944336,-0.91552734,0.0,0.36621094,0.0,0.0,0.0,-50.646973,61.96289,-25.29602
1766498281016,-0.88671875,-0.3544922,0.2866211,1.4648438,0.5493164,-1.0375977,0.0,0.0,0.0,-50.646973,61.96289,-25.29602
1766498281027,-0.88671875,-0.3544922,0.2866211,1.4648438,0.5493164,-1.0375977,0.0,0.0,0.0,-50.630493,61.918945,-25.323486
1766498281116,-0.88720703,-0.3569336,0.29492188,-0.061035156,0.0,-0.30517578,0.0,0.0,0.0,-50.630493,61.918945,-25.323486
1766498281127,-0.88720703,-0.3569336,0.29492188,-0.061035156,0.0,-0.30517578,0.0,0.0,0.0,-50.77881,61.94641,-25.576172
1766498281216,-0.88623047,-0.35791016,0.2919922,-1.4648438,0.79345703,0.30517578,0.0,0.0,0.0,-50.77881,61.94641,-25.576172
1766498281227,-0.88623047,-0.35791016,0.2919922,-1.4648438,0.79345703,0.30517578,0.0,0.0,0.0,-50.701904,61.951904,-25.422363
1766498281315,-0.8911133,-0.37402344,0.28466797,0.18310547,0.7324219,-0.36621094,0.0,0.0,0.0,-50.701904,61.951904,-25.422363
1766498281327,-0.8911133,-0.37402344,0.28466797,0.18310547,0.7324219,-0.36621094,0.0,0.0,0.0,-50.685425,61.984863,-25.44983
1766498281415,-0.8911133,-0.35791016,0.28808594,0.061035156,-0.6713867,-0.12207031,0.0,0.0,0.0,-50.685425,61.984863,-25.44983
1766498281426,-0.8911133,-0.35791016,0.28808594,0.061035156,-0.6713867,-0.12207031,0.0,0.0,0.0,-50.652466,61.957397,-25.389404
1766498281515,-0.89208984,-0.35839844,0.28857422,1.0986328,-0.4272461,-0.8544922,0.0,0.0,0.0,-50.652466,61.957397,-25.389404
1766498281526,-0.89208984,-0.35839844,0.28857422,1.0986328,-0.4272461,-0.8544922,0.0,0.0,0.0,-50.630493,61.96289,-25.405884
1766498281614,-0.8881836,-0.36132812,0.29492188,-1.8310547,0.061035156,0.91552734,0.0,0.0,0.0,-50.630493,61.96289,-25.405884
1766498281626,-0.8881836,-0.36132812,0.29492188,-1.8310547,0.061035156,0.91552734,0.0,0.0,0.0,-50.630493,62.001343,-25.40039
1766498281714,-0.8886719,-0.35742188,0.28710938,0.12207031,0.30517578,-0.30517578,0.0,0.0,0.0,-50.630493,62.001343,-25.40039
1766498281725,-0.8886719,-0.35742188,0.28710938,0.12207031,0.30517578,-0.30517578,0.0,0.0,0.0,-50.64148,62.039795,-25.32898
1766498281814,-0.8886719,-0.35546875,0.2841797,1.2207031,-0.30517578,-0.24414062,0.0,0.0,0.0,-50.64148,62.039795,-25.32898
1766498281825,-0.8886719,-0.35546875,0.2841797,1.2207031,-0.30517578,-0.24414062,0.0,0.0,0.0,-50.718384,62.08374,-25.43335
1766498281913,-0.88378906,-0.36279297,0.30029297,0.12207031,0.91552734,0.061035156,0.0,0.0,0.0,-50.718384,62.08374,-25.43335
1766498281925,-0.88378906,-0.36279297,0.30029297,0.12207031,0.91552734,0.061035156,0.0,0.0,0.0,-50.74585,62.127686,-25.471802
1766498282013,-0.8901367,-0.3642578,0.28320312,1.4648438,-0.18310547,-0.12207031,0.0,0.0,0.0,-50.74585,62.127686,-25.471802
1766498282025,-0.8901367,-0.3642578,0.28320312,1.4648438,-0.18310547,-0.12207031,0.0,0.0,0.0,-50.630493,62.094727,-25.438843
1766498282113,-0.8808594,-0.36279297,0.29101562,-0.9765625,-0.8544922,0.61035156,0.0,0.0,0.0,-50.630493,62.094727,-25.438843
1766498282125,-0.8808594,-0.36279297,0.29101562,-0.9765625,-0.8544922,0.61035156,0.0,0.0,0.0,-50.548096,62.078247,-25.350952
1766498282213,-0.8979492,-0.35791016,0.2890625,0.061035156,-0.7324219,0.18310547,0.0,0.0,0.0,-50.548096,62.078247,-25.350952
1766498282224,-0.8979492,-0.35791016,0.2890625,0.061035156,-0.7324219,0.18310547,0.0,0.0,0.0,-50.53711,62.1167,-25.301514
1766498282312,-0.8876953,-0.35498047,0.29492188,-1.0375977,-0.8544922,0.48828125,0.0,0.0,0.0,-50.53711,62.1167,-25.301514
1766498282324,-0.8876953,-0.35498047,0.29492188,-1.0375977,-0.8544922,0.48828125,0.0,0.0,0.0,-50.388794,62.078247,-25.098267
1766498282413,-0.88916016,-0.359375,0.29736328,-2.5024414,0.12207031,0.9765625,0.0,0.0,0.0,-50.388794,62.078247,-25.098267
1766498282424,-0.88916016,-0.359375,0.29736328,-2.5024414,0.12207031,0.9765625,0.0,0.0,0.0,-50.34485,62.111206,-24.906006
1766498282512,-0.8959961,-0.34521484,0.2788086,-0.48828125,-0.8544922,-0.8544922,0.0,0.0,0.0,-50.34485,62.111206,-24.906006
1766498282524,-0.8959961,-0.34521484,0.2788086,-0.48828125,-0.8544922,-0.8544922,0.0,0.0,0.0,-50.41626,62.17163,-24.840088
1766498282611,-0.8852539,-0.36572266,0.2866211,2.0751953,0.79345703,-1.5869141,0.0,0.0,0.0,-50.41626,62.17163,-24.840088
1766498282624,-0.8852539,-0.36572266,0.2866211,2.0751953,0.79345703,-1.5869141,0.0,0.0,0.0,-50.526123,62.078247,-25.213623
1766498282712,-0.8911133,-0.3569336,0.29345703,0.24414062,0.36621094,0.30517578,0.0,0.0,0.0,-50.526123,62.078247,-25.213623
1766498282723,-0.8911133,-0.3569336,0.29345703,0.24414062,0.36621094,0.30517578,0.0,0.0,0.0,-50.531616,62.078247,-25.290527
1766498282812,-0.8930664,-0.359375,0.30126953,-1.159668,-1.4648438,-0.30517578,0.0,0.0,0.0,-50.531616,62.078247,-25.290527
1766498282822,-0.8930664,-0.359375,0.30126953,-1.159668,-1.4648438,-0.30517578,0.0,0.0,0.0,-50.581055,62.13318,-25.378418
1766498282911,-0.87939453,-0.3647461,0.29296875,-1.0986328,1.7700195,-0.79345703,0.0,0.0,0.0,-50.581055,62.13318,-25.378418
1766498282922,-0.87939453,-0.3647461,0.29296875,-1.0986328,1.7700195,-0.79345703,0.0,0.0,0.0,-50.690918,62.072754,-25.482788
1766498283010,-0.89501953,-0.34960938,0.28320312,0.18310547,-0.8544922,0.24414062,0.0,0.0,0.0,-50.690918,62.072754,-25.482788
1766498283022,-0.89501953,-0.34960938,0.28320312,0.18310547,-0.8544922,0.24414062,0.0,0.0,0.0,-50.69641,62.039795,-25.427856
1766498283110,-0.8930664,-0.36816406,0.3046875,-0.9765625,-0.9765625,0.7324219,0.0,0.0,0.0,-50.69641,62.039795,-25.427856
1766498283122,-0.8930664,-0.36816406,0.3046875,-0.9765625,-0.9765625,0.7324219,0.0,0.0,0.0,-50.630493,62.122192,-25.356445
1766498283210,-0.8979492,-0.3779297,0.28808594,-0.8544922,2.319336,-0.5493164,0.0,0.0,0.0,-50.630493,62.122192,-25.356445
1766498283221,-0.8979492,-0.3779297,0.28808594,-0.8544922,2.319336,-0.5493164,0.0,0.0,0.0,-50.526123,62.111206,-25.279541
1766498283310,-0.89208984,-0.35742188,0.28320312,0.61035156,-2.0751953,-1.6479492,0.0,0.0,0.0,-50.526123,62.111206,-25.279541
1766498283321,-0.89208984,-0.35742188,0.28320312,0.61035156,-2.0751953,-1.6479492,0.0,0.0,0.0,-50.542603,62.056274,-25.3125
1766498283409,-0.8881836,-0.34033203,0.29492188,-1.3427734,-6.3476562,1.4648438,0.0,0.0,0.0,-50.542603,62.056274,-25.3125
1766498283421,-0.8881836,-0.34033203,0.29492188,-1.3427734,-6.3476562,1.4648438,0.0,0.0,0.0,-50.427246,61.97937,-25.263062
1766498283509,-0.8847656,-0.35742188,0.29345703,-0.8544922,-2.319336,1.0986328,0.0,0.0,0.0,-50.427246,61.97937,-25.263062
1766498283521,-0.8847656,-0.35742188,0.29345703,-0.8544922,-2.319336,1.0986328,0.0,0.0,0.0,-50.267944,61.99585,-25.12024
1766498283609,-0.8852539,-0.35058594,0.29785156,0.24414062,1.2817383,-0.6713867,0.0,0.0,0.0,-50.267944,61.99585,-25.12024
1766498283620,-0.8852539,-0.35058594,0.29785156,0.24414062,1.2817383,-0.6713867,0.0,0.0,0.0,-50.256958,61.990356,-25.10376
1766498283708,-0.8769531,-0.3647461,0.28564453,0.5493164,0.12207031,-0.24414062,0.0,0.0,0.0,-50.256958,61.990356,-25.10376
1766498283720,-0.8769531,-0.3647461,0.28564453,0.5493164,0.12207031,-0.24414062,0.0,0.0,0.0,-50.24597,61.935425,-25.0708
1766498283808,-0.8911133,-0.36621094,0.3076172,2.0751953,1.2817383,-1.159668,0.0,0.0,0.0,-50.24597,61.935425,-25.0708
1766498283820,-0.8911133,-0.36621094,0.3076172,2.0751953,1.2817383,-1.159668,0.0,0.0,0.0,-50.020752,61.85852,-24.86206
1766498283908,-0.88134766,-0.36083984,0.28173828,1.0375977,0.91552734,-0.24414062,0.0,0.0,0.0,-50.020752,61.85852,-24.86206
1766498283919,-0.88134766,-0.36083984,0.28173828,1.0375977,0.91552734,-0.24414062,0.0,0.0,0.0,-49.921875,61.85852,-24.768677
1766498284008,-0.88916016,-0.3461914,0.3022461,-1.5258789,-0.8544922,1.6479492,0.0,0.0,0.0,-49.921875,61.85852,-24.768677
1766498284019,-0.88916016,-0.3461914,0.3022461,-1.5258789,-0.8544922,1.6479492,0.0,0.0,0.0,-49.987793,61.90796,-24.75769
1766498284107,-0.8745117,-0.37890625,0.30029297,1.4648438,3.0517578,-2.319336,0.0,0.0,0.0,-49.987793,61.90796,-24.75769
1766498284119,-0.8745117,-0.37890625,0.30029297,1.4648438,3.0517578,-2.319336,0.0,0.0,0.0,-50.224,61.935425,-25.136719
1766498284207,-0.90185547,-0.36035156,0.2890625,0.6713867,-1.7089844,-0.48828125,0.0,0.0,0.0,-50.224,61.935425,-25.136719
1766498284219,-0.90185547,-0.36035156,0.2890625,0.6713867,-1.7089844,-0.48828125,0.0,0.0,0.0,-49.833984,61.814575,-24.746704
1766498284307,-0.8828125,-0.35058594,0.30029297,-1.8920898,-3.0517578,1.2207031,0.0,0.0,0.0,-49.833984,61.814575,-24.746704
1766498284319,-0.8828125,-0.35058594,0.30029297,-1.8920898,-3.0517578,1.2207031,0.0,0.0,0.0,-49.899902,61.885986,-24.75769
1766498284406,-0.8720703,-0.34765625,0.3046875,-0.18310547,1.2207031,-0.24414062,0.0,0.0,0.0,-49.899902,61.885986,-24.75769
1766498284418,-0.8720703,-0.34765625,0.3046875,-0.18310547,1.2207031,-0.24414062,0.0,0.0,0.0,-50.267944,61.92444,-25.202637
1766498284506,-0.89208984,-0.3618164,0.2866211,1.2207031,0.12207031,-0.6713867,0.0,0.0,0.0,-50.267944,61.92444,-25.202637
1766498284518,-0.89208984,-0.3618164,0.2866211,1.2207031,0.12207031,-0.6713867,0.0,0.0,0.0,-50.180054,61.885986,-25.08728
1766498284606,-0.87890625,-0.35498047,0.3046875,0.24414062,0.6713867,0.0,0.0,0.0,0.0,-50.180054,61.885986,-25.08728
1766498284618,-0.87890625,-0.35498047,0.3046875,0.24414062,0.6713867,0.0,0.0,0.0,0.0,-50.202026,61.89148,-25.076294
1766498284706,-0.8676758,-0.3618164,0.29003906,0.79345703,0.79345703,-0.36621094,0.0,0.0,0.0,-50.202026,61.89148,-25.076294
1766498284717,-0.8676758,-0.3618164,0.29003906,0.79345703,0.79345703,-0.36621094,0.0,0.0,0.0,-50.234985,61.853027,-25.219116
1766498284805,-0.8930664,-0.35302734,0.2998047,0.6713867,-0.6713867,1.2817383,0.0,0.0,0.0,-50.234985,61.853027,-25.219116
1766498284817,-0.8930664,-0.35302734,0.2998047,0.6713867,-0.6713867,1.2817383,0.0,0.0,0.0,-49.943848,61.875,-24.785156
1766498284905,-0.88427734,-0.35888672,0.28759766,0.0,1.159668,-0.18310547,0.0,0.0,0.0,-49.943848,61.875,-24.785156
1766498284917,-0.88427734,-0.35888672,0.28759766,0.0,1.159668,-0.18310547,0.0,0.0,0.0,-49.9823,61.990356,-24.834595
1766498285005,-0.8876953,-0.35253906,0.29589844,-0.36621094,0.36621094,-0.79345703,0.0,0.0,0.0,-49.9823,61.990356,-24.834595
1766498285016,-0.8876953,-0.35253906,0.29589844,-0.36621094,0.36621094,-0.79345703,0.0,0.0,0.0,-50.20752,61.984863,-25.01587
1766498285106,-0.89501953,-0.3623047,0.2890625,1.2817383,-0.5493164,-0.91552734,0.0,0.0,0.0,-50.20752,61.984863,-25.01587
1766498285117,-0.89501953,-0.3623047,0.2890625,1.2817383,-0.5493164,-0.91552734,0.0,0.0,0.0,-50.114136,61.957397,-24.99939
1766498285209,-0.8828125,-0.35302734,0.29589844,-0.4272461,-2.0751953,0.8544922,0.0,0.0,0.0,-50.114136,61.957397,-24.99939
1766498285216,-0.8828125,-0.35302734,0.29589844,-0.4272461,-2.0751953,0.8544922,0.0,0.0,0.0,-49.888916,61.896973,-24.818115
1766498285304,-0.8828125,-0.36523438,0.29638672,0.91552734,1.0375977,-0.24414062,0.0,0.0,0.0,-49.888916,61.896973,-24.818115
1766498285316,-0.8828125,-0.36523438,0.29638672,0.91552734,1.0375977,-0.24414062,0.0,0.0,0.0,-49.80652,61.90796,-24.867554
1766498285404,-0.8989258,-0.35107422,0.28515625,-0.36621094,-1.0986328,0.0,0.0,0.0,0.0,-49.80652,61.90796,-24.867554
1766498285416,-0.8989258,-0.35107422,0.28515625,-0.36621094,-1.0986328,0.0,0.0,0.0,0.0,-49.768066,61.913452,-24.74121
1766498285504,-0.8808594,-0.35986328,0.30322266,-1.159668,-0.061035156,-0.12207031,0.0,0.0,0.0,-49.768066,61.913452,-24.74121
1766498285515,-0.8808594,-0.35986328,0.30322266,-1.159668,-0.061035156,-0.12207031,0.0,0.0,0.0,-49.954834,61.94641,-24.96643
1766498285603,-0.89160156,-0.35058594,0.2939453,1.159668,-0.4272461,-0.36621094,0.0,0.0,0.0,-49.954834,61.94641,-24.96643
1766498285615,-0.89160156,-0.35058594,0.2939453,1.159668,-0.4272461,-0.36621094,0.0,0.0,0.0,-49.943848,61.940918,-24.916992
1766498285703,-0.8779297,-0.36083984,0.30419922,0.0,0.0,-0.91552734,0.0,0.0,0.0,-49.943848,61.940918,-24.916992
1766498285715,-0.8779297,-0.36083984,0.30419922,0.0,0.0,-0.91552734,0.0,0.0,0.0,-49.87793,61.864014,-24.977417
1766498285803,-0.8901367,-0.35009766,0.29003906,0.91552734,0.061035156,-0.6713867,0.0,0.0,0.0,-49.87793,61.864014,-24.977417
1766498285814,-0.8901367,-0.35009766,0.29003906,0.91552734,0.061035156,-0.6713867,0.0,0.0,0.0,-49.86145,61.78711,-24.944458
1766498285902,-0.8833008,-0.35839844,0.30419922,-1.2207031,-1.953125,1.2817383,0.0,0.0,0.0,-49.86145,61.78711,-24.944458
1766498285914,-0.8833008,-0.35839844,0.30419922,-1.2207031,-1.953125,1.2817383,0.0,0.0,0.0,-49.883423,61.853027,-25.010376
1766498286002,-0.8823242,-0.35351562,0.28857422,2.6245117,1.7700195,-2.1972656,0.0,0.0,0.0,-49.883423,61.853027,-25.010376
1766498286014,-0.8823242,-0.35351562,0.28857422,2.6245117,1.7700195,-2.1972656,0.0,0.0,0.0,-49.850464,61.84204,-24.96643
1766498286102,-0.8808594,-0.35595703,0.30322266,-1.7089844,-0.91552734,1.159668,0.0,0.0,0.0,-49.850464,61.84204,-24.96643
1766498286113,-0.8808594,-0.35595703,0.30322266,-1.7089844,-0.91552734,1.159668,0.0,0.0,0.0,-49.954834,61.80359,-25.142212
1766498286201,-0.8823242,-0.3623047,0.30322266,1.159668,1.0375977,-0.61035156,0.0,0.0,0.0,-49.954834,61.80359,-25.142212
1766498286213,-0.8823242,-0.3623047,0.30322266,1.159668,1.0375977,-0.61035156,0.0,0.0,0.0,-49.817505,61.798096,-25.010376
1766498286301,-0.8852539,-0.3540039,0.29052734,0.0,1.7089844,-0.30517578,0.0,0.0,0.0,-49.817505,61.798096,-25.010376
1766498286313,-0.8852539,-0.3540039,0.29052734,0.0,1.7089844,-0.30517578,0.0,0.0,0.0,-49.82849,61.831055,-24.911499
1766498286401,-0.88623047,-0.3569336,0.2944336,0.30517578,0.8544922,-0.8544922,0.0,0.0,0.0,-49.82849,61.831055,-24.911499
1766498286412,-0.88623047,-0.3569336,0.2944336,0.30517578,0.8544922,-0.8544922,0.0,0.0,0.0,-50.026245,61.880493,-25.10376
1766498286501,-0.8857422,-0.359375,0.29833984,0.6713867,-1.0375977,-0.48828125,0.0,0.0,0.0,-50.026245,61.880493,-25.10376
1766498286512,-0.8857422,-0.359375,0.29833984,0.6713867,-1.0375977,-0.48828125,0.0,0.0,0.0,-49.866943,61.814575,-24.960938
1766498286600,-0.8979492,-0.35791016,0.29248047,-0.24414062,-0.48828125,0.48828125,0.0,0.0,0.0,-49.866943,61.814575,-24.960938
1766498286612,-0.8979492,-0.35791016,0.29248047,-0.24414062,-0.48828125,0.48828125,0.0,0.0,0.0,-49.762573,61.82007,-24.801636
1766498286700,-0.87597656,-0.3569336,0.2939453,0.061035156,1.0986328,-0.4272461,0.0,0.0,0.0,-49.762573,61.82007,-24.801636
1766498286712,-0.87597656,-0.3569336,0.2939453,0.061035156,1.0986328,-0.4272461,0.0,0.0,0.0,-49.92737,61.90796,-24.977417
1766498286800,-0.88623047,-0.34765625,0.29736328,-0.4272461,-1.8310547,0.4272461,0.0,0.0,0.0,-49.92737,61.90796,-24.977417
1766498286812,-0.88623047,-0.34765625,0.29736328,-0.4272461,-1.8310547,0.4272461,0.0,0.0,0.0,-49.960327,61.885986,-24.933472
1766498286900,-0.8798828,-0.35839844,0.29589844,0.24414062,-0.48828125,-0.24414062,0.0,0.0,0.0,-49.960327,61.885986,-24.933472
1766498286911,-0.8798828,-0.35839844,0.29589844,0.24414062,-0.48828125,-0.24414062,0.0,0.0,0.0,-49.817505,61.831055,-24.851074
1766498286999,-0.8847656,-0.3540039,0.29101562,0.8544922,0.24414062,0.0,0.0,0.0,0.0,-49.817505,61.831055,-24.851074
1766498287011,-0.8847656,-0.3540039,0.29101562,0.8544922,0.24414062,0.0,0.0,0.0,0.0,-49.77356,61.847534,-24.730225
1766498287099,-0.8930664,-0.35742188,0.29589844,-1.7700195,0.061035156,0.61035156,0.0,0.0,0.0,-49.77356,61.847534,-24.730225
1766498287111,-0.8930664,-0.35742188,0.29589844,-1.7700195,0.061035156,0.61035156,0.0,0.0,0.0,-49.768066,61.864014,-24.713745
1766498287199,-0.8803711,-0.36328125,0.29638672,0.0,0.91552734,-0.9765625,0.0,0.0,0.0,-49.768066,61.864014,-24.713745
1766498287210,-0.8803711,-0.36328125,0.29638672,0.0,0.91552734,-0.9765625,0.0,0.0,0.0,-49.921875,61.90796,-24.86206
1766498287299,-0.8935547,-0.34960938,0.2915039,0.6713867,-2.1362305,-0.24414062,0.0,0.0,0.0,-49.921875,61.90796,-24.86206
1766498287311,-0.8935547,-0.34960938,0.2915039,0.6713867,-2.1362305,-0.24414062,0.0,0.0,0.0,-49.888916,61.875,-24.818115
1766498287398,-0.8754883,-0.35742188,0.30566406,-1.0375977,-1.0986328,0.79345703,0.0,0.0,0.0,-49.888916,61.875,-24.818115
1766498287410,-0.8754883,-0.35742188,0.30566406,-1.0375977,-1.0986328,0.79345703,0.0,0.0,0.0,-49.822998,61.82556,-24.79065
1766498287498,-0.8901367,-0.36328125,0.29736328,-0.61035156,1.7700195,0.12207031,0.0,0.0,0.0,-49.822998,61.82556,-24.79065
1766498287509,-0.8901367,-0.36328125,0.29736328,-0.61035156,1.7700195,0.12207031,0.0,0.0,0.0,-49.768066,61.853027,-24.746704
1766498287598,-0.8808594,-0.36083984,0.29492188,0.48828125,0.4272461,-0.61035156,0.0,0.0,0.0,-49.768066,61.853027,-24.746704
1766498287610,-0.8808594,-0.36083984,0.29492188,0.48828125,0.4272461,-0.61035156,0.0,0.0,0.0,-49.888916,61.89148,-24.89502
1766498287697,-0.8935547,-0.35595703,0.2993164,-0.7324219,-2.1362305,0.24414062,0.0,0.0,0.0,-49.888916,61.89148,-24.89502
1766498287709,-0.8935547,-0.35595703,0.2993164,-0.7324219,-2.1362305,0.24414062,0.0,0.0,0.0,-49.79004,61.831055,-24.77417
1766498287797,-0.88183594,-0.3515625,0.29492188,1.0986328,-0.4272461,0.0,0.0,0.0,0.0,-49.79004,61.831055,-24.77417
1766498287809,-0.88183594,-0.3515625,0.29492188,1.0986328,-0.4272461,0.0,0.0,0.0,0.0,-49.680176,61.831055,-24.724731
1766498287897,-0.8833008,-0.36523438,0.2998047,-1.4648438,0.4272461,0.18310547,0.0,0.0,0.0,-49.680176,61.831055,-24.724731
1766498287908,-0.8833008,-0.36523438,0.2998047,-1.4648438,0.4272461,0.18310547,0.0,0.0,0.0,-49.779053,61.885986,-24.840088
1766498287997,-0.8847656,-0.3461914,0.29492188,-0.4272461,1.953125,-0.6713867,0.0,0.0,0.0,-49.779053,61.885986,-24.840088
1766498288008,-0.8847656,-0.3461914,0.29492188,-0.4272461,1.953125,-0.6713867,0.0,0.0,0.0,-49.938354,61.89148,-24.840088
1766498288096,-0.88378906,-0.359375,0.28955078,0.12207031,2.0141602,-0.61035156,0.0,0.0,0.0,-49.938354,61.89148,-24.840088
1766498288108,-0.88378906,-0.359375,0.28955078,0.12207031,2.0141602,-0.61035156,0.0,0.0,0.0,-50.17456,61.940918,-25.10376
1766498288196,-0.88623047,-0.35498047,0.29345703,-1.7089844,0.12207031,0.18310547,0.0,0.0,0.0,-50.17456,61.940918,-25.10376
1766498288207,-0.88623047,-0.35498047,0.29345703,-1.7089844,0.12207031,0.18310547,0.0,0.0,0.0,-50.36682,62.017822,-25.125732
1766498288296,-0.88671875,-0.35888672,0.2841797,0.0,1.4648438,-1.0375977,0.0,0.0,0.0,-50.36682,62.017822,-25.125732
1766498288307,-0.88671875,-0.35888672,0.2841797,0.0,1.4648438,-1.0375977,0.0,0.0,0.0,-50.65796,62.056274,-25.41687
1766498288395,-0.8857422,-0.3623047,0.28759766,-1.2817383,-0.061035156,-0.48828125,0.0,0.0,0.0,-50.65796,62.056274,-25.41687
1766498288407,-0.8857422,-0.3623047,0.28759766,-1.2817383,-0.061035156,-0.48828125,0.0,0.0,0.0,-50.88867,62.061768,-25.581665
1766498288495,-0.8857422,-0.35595703,0.2866211,-0.24414062,0.24414062,-0.4272461,0.0,0.0,0.0,-50.88867,62.061768,-25.581665
1766498288507,-0.8857422,-0.35595703,0.2866211,-0.24414062,0.24414062,-0.4272461,0.0,0.0,0.0,-51.00952,62.056274,-25.631104
1766498288595,-0.88378906,-0.36132812,0.2836914,0.4272461,0.061035156,-0.4272461,0.0,0.0,0.0,-51.00952,62.056274,-25.631104
1766498288607,-0.88378906,-0.36132812,0.2836914,0.4272461,0.061035156,-0.4272461,0.0,0.0,0.0,-51.135864,62.061768,-25.779419
1766498288695,-0.88671875,-0.36132812,0.28173828,0.4272461,-0.48828125,-0.36621094,0.0,0.0,0.0,-51.135864,62.061768,-25.779419
1766498288706,-0.88671875,-0.36132812,0.28173828,0.4272461,-0.48828125,-0.36621094,0.0,0.0,0.0,-51.05896,62.039795,-25.62561
1766498288794,-0.89501953,-0.36816406,0.28955078,-0.36621094,-1.0375977,0.24414062,0.0,0.0,0.0,-51.05896,62.039795,-25.62561
1766498288806,-0.89501953,-0.36816406,0.28955078,-0.36621094,-1.0375977,0.24414062,0.0,0.0,0.0,-51.09192,62.023315,-25.669556
1766498288894,-0.8833008,-0.35498047,0.28955078,0.5493164,0.36621094,-0.7324219,0.0,0.0,0.0,-51.09192,62.023315,-25.669556
1766498288906,-0.8833008,-0.35498047,0.28955078,0.5493164,0.36621094,-0.7324219,0.0,0.0,0.0,-51.135864,62.001343,-25.647583
1766498288994,-0.89160156,-0.36865234,0.28076172,-0.5493164,-0.48828125,0.061035156,0.0,0.0,0.0,-51.135864,62.001343,-25.647583
1766498289005,-0.89160156,-0.36865234,0.28076172,-0.5493164,-0.48828125,0.061035156,0.0,0.0,0.0,-51.17981,61.984863,-25.713501
1766498289094,-0.88916016,-0.3671875,0.28808594,-0.18310547,-0.6713867,-0.30517578,0.0,0.0,0.0,-51.17981,61.984863,-25.713501
1766498289105,-0.88916016,-0.3671875,0.28808594,-0.18310547,-0.6713867,-0.30517578,0.0,0.0,0.0,-51.07544,61.92993,-25.532227
1766498289193,-0.88183594,-0.36328125,0.28564453,-0.91552734,-0.30517578,0.0,0.0,0.0,0.0,-51.07544,61.92993,-25.532227
1766498289205,-0.88183594,-0.36328125,0.28564453,-0.91552734,-0.30517578,0.0,0.0,0.0,0.0,-51.201782,61.940918,-25.647583
1766498289293,-0.8911133,-0.36376953,0.2841797,0.79345703,0.0,-0.7324219,0.0,0.0,0.0,-51.201782,61.940918,-25.647583
1766498289305,-0.8911133,-0.36376953,0.2841797,0.79345703,0.0,-0.7324219,0.0,0.0,0.0,-51.201782,61.918945,-25.64209
1766498289393,-0.8823242,-0.36328125,0.29101562,-0.48828125,0.48828125,-0.12207031,0.0,0.0,0.0,-51.201782,61.918945,-25.64209
1766498289404,-0.8823242,-0.36328125,0.29101562,-0.48828125,0.48828125,-0.12207031,0.0,0.0,0.0,-51.328125,61.913452,-25.76294
1766498289492,-0.88964844,-0.36328125,0.28564453,-0.30517578,1.4648438,-0.79345703,0.0,0.0,0.0,-51.328125,61.913452,-25.76294
1766498289504,-0.88964844,-0.36328125,0.28564453,-0.30517578,1.4648438,-0.79345703,0.0,0.0,0.0,-51.498413,61.94641,-25.905762
1766498289592,-0.8911133,-0.36816406,0.28271484,0.12207031,-1.0986328,0.4272461,0.0,0.0,0.0,-51.498413,61.94641,-25.905762
1766498289604,-0.8911133,-0.36816406,0.28271484,0.12207031,-1.0986328,0.4272461,0.0,0.0,0.0,-51.49292,61.951904,-26.037598
1766498289692,-0.8798828,-0.36083984,0.28222656,1.2207031,0.0,-0.79345703,0.0,0.0,0.0,-51.49292,61.951904,-26.037598
1766498289704,-0.8798828,-0.36083984,0.28222656,1.2207031,0.0,-0.79345703,0.0,0.0,0.0,-51.553345,61.99585,-26.152954
1766498289792,-0.88134766,-0.3642578,0.28515625,0.30517578,1.2207031,-0.79345703,0.0,0.0,0.0,-51.553345,61.99585,-26.152954
1766498289803,-0.88134766,-0.3642578,0.28515625,0.30517578,1.2207031,-0.79345703,0.0,0.0,0.0,-51.536865,61.951904,-26.191406
1766498289891,-0.8852539,-0.35888672,0.28955078,-1.0986328,-2.9296875,-0.36621094,0.0,0.0,0.0,-51.536865,61.951904,-26.191406
1766498289904,-0.8852539,-0.35888672,0.28955078,-1.0986328,-2.9296875,-0.36621094,0.0,0.0,0.0,-51.49292,61.864014,-26.05957
1766498289991,-0.89208984,-0.3696289,0.29248047,-0.36621094,-2.1972656,0.12207031,0.0,0.0,0.0,-51.49292,61.864014,-26.05957
1766498290003,-0.89208984,-0.3696289,0.29248047,-0.36621094,-2.1972656,0.12207031,0.0,0.0,0.0,-51.25122,61.759644,-25.790405
1766498290091,-0.8808594,-0.37402344,0.2866211,1.4038086,0.6713867,-0.36621094,0.0,0.0,0.0,-51.25122,61.759644,-25.790405
1766498290102,-0.8808594,-0.37402344,0.2866211,1.4038086,0.6713867,-0.36621094,0.0,0.0,0.0,-51.020508,61.7157,-25.702515
1766498290191,-0.8828125,-0.36083984,0.28466797,0.79345703,-2.1972656,0.18310547,0.0,0.0,0.0,-51.020508,61.7157,-25.702515
1766498290203,-0.8828125,-0.36083984,0.28466797,0.79345703,-2.1972656,0.18310547,0.0,0.0,0.0,-50.910645,61.726685,-25.570679
1766498290290,-0.8798828,-0.3647461,0.29296875,1.159668,-0.30517578,0.0,0.0,0.0,0.0,-50.910645,61.726685,-25.570679
1766498290302,-0.8798828,-0.3647461,0.29296875,1.159668,-0.30517578,0.0,0.0,0.0,0.0,-50.690918,61.64978,-25.460815
1766498290390,-0.89453125,-0.35888672,0.28857422,-0.18310547,-2.1362305,0.79345703,0.0,0.0,0.0,-50.690918,61.64978,-25.460815
1766498290402,-0.89453125,-0.35888672,0.28857422,-0.18310547,-2.1362305,0.79345703,0.0,0.0,0.0,-50.526123,61.677246,-25.252075
1766498290490,-0.8779297,-0.35546875,0.30078125,0.7324219,0.7324219,-0.061035156,0.0,0.0,0.0,-50.526123,61.677246,-25.252075
1766498290501,-0.8779297,-0.35546875,0.30078125,0.7324219,0.7324219,-0.061035156,0.0,0.0,0.0,-50.493164,61.72119,-25.20813
1766498290589,-0.88671875,-0.36767578,0.29248047,0.061035156,0.6713867,0.36621094,0.0,0.0,0.0,-50.493164,61.72119,-25.20813
1766498290601,-0.88671875,-0.36767578,0.29248047,0.061035156,0.6713867,0.36621094,0.0,0.0,0.0,-50.377808,61.743164,-25.136719
1766498290689,-0.88623047,-0.3618164,0.29101562,-0.6713867,-1.159668,0.6713867,0.0,0.0,0.0,-50.377808,61.743164,-25.136719
1766498290701,-0.88623047,-0.3618164,0.29101562,-0.6713867,-1.159668,0.6713867,0.0,0.0,0.0,-50.27893,61.781616,-24.927979
1766498290789,-0.88623047,-0.359375,0.29003906,-0.18310547,0.5493164,-0.4272461,0.0,0.0,0.0,-50.27893,61.781616,-24.927979
1766498290800,-0.88623047,-0.359375,0.29003906,-0.18310547,0.5493164,-0.4272461,0.0,0.0,0.0,-50.322876,61.798096,-24.960938
1766498290889,-0.8828125,-0.35595703,0.28955078,0.8544922,1.2817383,-0.4272461,0.0,0.0,0.0,-50.322876,61.798096,-24.960938
1766498290900,-0.8828125,-0.35595703,0.28955078,0.8544922,1.2817383,-0.4272461,0.0,0.0,0.0,-50.531616,61.853027,-25.202637
1766498290988,-0.88720703,-0.359375,0.2919922,-0.48828125,0.18310547,0.24414062,0.0,0.0,0.0,-50.531616,61.853027,-25.202637
1766498291000,-0.88720703,-0.359375,0.2919922,-0.48828125,0.18310547,0.24414062,0.0,0.0,0.0,-50.586548,61.90796,-25.219116
1766498291088,-0.8857422,-0.3618164,0.2890625,-0.18310547,1.8310547,-0.48828125,0.0,0.0,0.0,-50.586548,61.90796,-25.219116
1766498291100,-0.8857422,-0.3618164,0.2890625,-0.18310547,1.8310547,-0.48828125,0.0,0.0,0.0,-50.718384,61.951904,-25.372925
1766498291188,-0.88964844,-0.3647461,0.28759766,-0.36621094,-0.061035156,-0.4272461,0.0,0.0,0.0,-50.718384,61.951904,-25.372925
1766498291199,-0.88964844,-0.3647461,0.28759766,-0.36621094,-0.061035156,-0.4272461,0.0,0.0,0.0,-50.943604,61.99585,-25.64209
1766498291288,-0.8857422,-0.359375,0.28759766,-0.12207031,0.5493164,-0.18310547,0.0,0.0,0.0,-50.943604,61.99585,-25.64209
1766498291299,-0.8857422,-0.359375,0.28759766,-0.12207031,0.5493164,-0.18310547,0.0,0.0,0.0,-50.916138,61.968384,-25.52124
1766498291387,-0.88964844,-0.36523438,0.27978516,0.4272461,0.24414062,-0.36621094,0.0,0.0,0.0,-50.916138,61.968384,-25.52124
1766498291399,-0.88964844,-0.36523438,0.27978516,0.4272461,0.24414062,-0.36621094,0.0,0.0,0.0,-50.97107,61.990356,-25.620117
1766498291487,-0.88378906,-0.36035156,0.28955078,-0.24414062,-0.61035156,0.18310547,0.0,0.0,0.0,-50.97107,61.990356,-25.620117
1766498291499,-0.88378906,-0.36035156,0.28955078,-0.24414062,-0.61035156,0.18310547,0.0,0.0,0.0,-50.97107,61.990356,-25.592651
1766498291587,-0.8901367,-0.3647461,0.28222656,0.4272461,0.36621094,-0.24414062,0.0,0.0,0.0,-50.97107,61.990356,-25.592651
1766498291599,-0.8901367,-0.3647461,0.28222656,0.4272461,0.36621094,-0.24414062,0.0,0.0,0.0,-50.92163,61.984863,-25.565186
1766498291687,-0.88623047,-0.3623047,0.2841797,0.36621094,0.24414062,-0.24414062,0.0,0.0,0.0,-50.92163,61.984863,-25.565186
1766498291702,-0.88623047,-0.3623047,0.2841797,0.36621094,0.24414062,-0.24414062,0.0,0.0,0.0,-50.97107,61.99585,-25.64209
1766498291786,-0.88623047,-0.35986328,0.28515625,0.24414062,-0.24414062,0.0,0.0,0.0,0.0,-50.97107,61.99585,-25.64209
1766498291798,-0.88623047,-0.35986328,0.28515625,0.24414062,-0.24414062,0.0,0.0,0.0,0.0,-50.960083,61.99585,-25.631104
1766498291886,-0.88964844,-0.36328125,0.2841797,0.0,-0.061035156,0.0,0.0,0.0,0.0,-50.960083,61.99585,-25.631104
1766498291898,-0.88964844,-0.36328125,0.2841797,0.0,-0.061035156,0.0,0.0,0.0,0.0,-50.95459,62.01233,-25.647583
1766498291986,-0.8823242,-0.3642578,0.28515625,0.9765625,0.5493164,-0.4272461,0.0,0.0,0.0,-50.95459,62.01233,-25.647583
1766498291997,-0.8823242,-0.3642578,0.28515625,0.9765625,0.5493164,-0.4272461,0.0,0.0,0.0,-50.98755,62.02881,-25.664062
1766498292085,-0.8930664,-0.3647461,0.2866211,-0.24414062,-1.0986328,0.12207031,0.0,0.0,0.0,-50.98755,62.02881,-25.664062
1766498292098,-0.8930664,-0.3647461,0.2866211,-0.24414062,-1.0986328,0.12207031,0.0,0.0,0.0,-51.015015,62.023315,-25.718994
1766498292185,-0.8828125,-0.35742188,0.29101562,0.6713867,0.12207031,-0.24414062,0.0,0.0,0.0,-51.015015,62.023315,-25.718994
1766498292197,-0.8828125,-0.35742188,0.29101562,0.6713867,0.12207031,-0.24414062,0.0,0.0,0.0,-51.036987,62.039795,-25.686035
1766498292285,-0.890625,-0.36279297,0.2861328,0.0,-0.4272461,0.0,0.0,0.0,0.0,-51.036987,62.039795,-25.686035
1766498292297,-0.890625,-0.36279297,0.2861328,0.0,-0.4272461,0.0,0.0,0.0,0.0,-51.015015,62.0343,-25.697021
1766498292385,-0.88916016,-0.36083984,0.28710938,0.4272461,-1.4648438,0.12207031,0.0,0.0,0.0,-51.015015,62.0343,-25.697021
1766498292397,-0.88916016,-0.36083984,0.28710938,0.4272461,-1.4648438,0.12207031,0.0,0.0,0.0,-50.83374,61.99585,-25.482788
1766498292484,-0.8876953,-0.3623047,0.28466797,0.79345703,-0.18310547,-0.48828125,0.0,0.0,0.0,-50.83374,61.99585,-25.482788
1766498292496,-0.8876953,-0.3623047,0.28466797,0.79345703,-0.18310547,-0.48828125,0.0,0.0,0.0,-50.751343,61.957397,-25.482788
1766498292584,-0.88623047,-0.35888672,0.28564453,0.4272461,-0.36621094,-0.12207031,0.0,0.0,0.0,-50.751343,61.957397,-25.482788
1766498292596,-0.88623047,-0.35888672,0.28564453,0.4272461,-0.36621094,-0.12207031,0.0,0.0,0.0,-50.690918,61.935425,-25.43335
1766498292684,-0.8857422,-0.359375,0.28808594,0.61035156,-0.4272461,0.0,0.0,0.0,0.0,-50.690918,61.935425,-25.43335
1766498292695,-0.8857422,-0.359375,0.28808594,0.61035156,-0.4272461,0.0,0.0,0.0,0.0,-50.60852,61.935425,-25.367432
1766498292784,-0.8876953,-0.36132812,0.2866211,0.79345703,0.12207031,-0.061035156,0.0,0.0,0.0,-50.60852,61.935425,-25.367432
1766498292795,-0.8876953,-0.36132812,0.2866211,0.79345703,0.12207031,-0.061035156,0.0,0.0,0.0,-50.57556,61.94641,-25.367432
1766498292883,-0.87890625,-0.36132812,0.2890625,0.18310547,0.061035156,0.0,0.0,0.0,0.0,-50.57556,61.94641,-25.367432
1766498292895,-0.87890625,-0.36132812,0.2890625,0.18310547,0.061035156,0.0,0.0,0.0,0.0,-50.614014,61.973877,-25.389404
1766498292983,-0.8925781,-0.3618164,0.2861328,0.061035156,0.0,0.0,0.0,0.0,0.0,-50.614014,61.973877,-25.389404
1766498292994,-0.8925781,-0.3618164,0.2861328,0.061035156,0.0,0.0,0.0,0.0,0.0,-50.55359,61.951904,-25.268555
1766498293083,-0.8833008,-0.35791016,0.2944336,0.12207031,-0.24414062,-0.12207031,0.0,0.0,0.0,-50.55359,61.951904,-25.268555
1766498293094,-0.8833008,-0.35791016,0.2944336,0.12207031,-0.24414062,-0.12207031,0.0,0.0,0.0,-50.597534,61.96289,-25.307007
1766498293182,-0.88720703,-0.35888672,0.28759766,-0.36621094,-0.24414062,-0.061035156,0.0,0.0,0.0,-50.597534,61.96289,-25.307007
1766498293194,-0.88720703,-0.35888672,0.28759766,-0.36621094,-0.24414062,-0.061035156,0.0,0.0,0.0,-50.67444,61.99585,-25.378418
1766498293283,-0.8886719,-0.36376953,0.28222656,0.18310547,-0.12207031,-0.24414062,0.0,0.0,0.0,-50.67444,61.99585,-25.378418
1766498293294,-0.8886719,-0.36376953,0.28222656,0.18310547,-0.12207031,-0.24414062,0.0,0.0,0.0,-50.630493,61.984863,-25.32898
1766498293382,-0.8847656,-0.35986328,0.29101562,0.0,-0.12207031,-0.24414062,0.0,0.0,0.0,-50.630493,61.984863,-25.32898
1766498293393,-0.8847656,-0.35986328,0.29101562,0.0,-0.12207031,-0.24414062,0.0,0.0,0.0,-50.69641,61.97937,-25.383911
1766498293482,-0.88378906,-0.35986328,0.28955078,-0.18310547,-0.30517578,0.0,0.0,0.0,0.0,-50.69641,61.97937,-25.383911
1766498293493,-0.88378906,-0.35986328,0.28955078,-0.18310547,-0.30517578,0.0,0.0,0.0,0.0,-50.71289,61.984863,-25.378418
1766498293581,-0.8828125,-0.35791016,0.28955078,-0.30517578,-0.48828125,0.0,0.0,0.0,0.0,-50.71289,61.984863,-25.378418
1766498293593,-0.8828125,-0.35791016,0.28955078,-0.30517578,-0.48828125,0.0,0.0,0.0,0.0,-50.668945,61.973877,-25.307007
1766498293681,-0.88671875,-0.35839844,0.28759766,0.061035156,-0.12207031,-0.12207031,0.0,0.0,0.0,-50.668945,61.973877,-25.307007
1766498293693,-0.88671875,-0.35839844,0.28759766,0.061035156,-0.12207031,-0.12207031,0.0,0.0,0.0,-50.64148,61.97937,-25.252075
1766498293781,-0.88671875,-0.35839844,0.29052734,-0.18310547,-0.79345703,-0.12207031,0.0,0.0,0.0,-50.64148,61.97937,-25.252075
1766498293792,-0.88671875,-0.35839844,0.29052734,-0.18310547,-0.79345703,-0.12207031,0.0,0.0,0.0,-50.60852,61.96289,-25.257568
1766498293880,-0.8823242,-0.35888672,0.28320312,0.18310547,0.4272461,-0.30517578,0.0,0.0,0.0,-50.60852,61.96289,-25.257568
1766498293892,-0.8823242,-0.35888672,0.28320312,0.18310547,0.4272461,-0.30517578,0.0,0.0,0.0,-50.53711,61.935425,-25.158691
1766498293980,-0.88916016,-0.36279297,0.28564453,0.7324219,0.061035156,-0.18310547,0.0,0.0,0.0,-50.53711,61.935425,-25.158691
1766498293992,-0.88916016,-0.36279297,0.28564453,0.7324219,0.061035156,-0.18310547,0.0,0.0,0.0,-50.460205,61.918945,-25.092773
1766498294080,-0.88134766,-0.3564453,0.29638672,0.12207031,-0.7324219,0.0,0.0,0.0,0.0,-50.460205,61.918945,-25.092773
1766498294092,-0.88134766,-0.3564453,0.29638672,0.12207031,-0.7324219,0.0,0.0,0.0,0.0,-50.394287,61.896973,-24.988403
1766498294180,-0.88916016,-0.3623047,0.2866211,0.0,-0.36621094,0.0,0.0,0.0,0.0,-50.394287,61.896973,-24.988403
1766498294191,-0.88916016,-0.3623047,0.2866211,0.0,-0.36621094,0.0,0.0,0.0,0.0,-50.317383,61.880493,-24.938965
1766498294279,-0.88427734,-0.35888672,0.29052734,0.36621094,-0.061035156,-0.18310547,0.0,0.0,0.0,-50.317383,61.880493,-24.938965
1766498294292,-0.88427734,-0.35888672,0.29052734,0.36621094,-0.061035156,-0.18310547,0.0,0.0,0.0,-50.333862,61.885986,-24.949951
1766498294379,-0.8857422,-0.35888672,0.2939453,0.061035156,-0.12207031,-0.061035156,0.0,0.0,0.0,-50.333862,61.885986,-24.949951
1766498294391,-0.8857422,-0.35888672,0.2939453,0.061035156,-0.12207031,-0.061035156,0.0,0.0,0.0,-50.317383,61.880493,-24.916992
1766498294479,-0.8847656,-0.35986328,0.29345703,-0.18310547,0.061035156,0.0,0.0,0.0,0.0,-50.317383,61.880493,-24.916992
1766498294490,-0.8847656,-0.35986328,0.29345703,-0.18310547,0.061035156,0.0,0.0,0.0,0.0,-50.306396,61.89148,-24.900513
1766498294579,-0.8876953,-0.36035156,0.29248047,-0.30517578,0.18310547,0.0,0.0,0.0,0.0,-50.306396,61.89148,-24.900513
1766498294590,-0.8876953,-0.36035156,0.29248047,-0.30517578,0.18310547,0.0,0.0,0.0,0.0,-50.300903,61.902466,-24.900513
1766498294678,-0.88720703,-0.36035156,0.296875,0.061035156,0.18310547,-0.4272461,0.0,0.0,0.0,-50.300903,61.902466,-24.900513
1766498294690,-0.88720703,-0.36035156,0.296875,0.061035156,0.18310547,-0.4272461,0.0,0.0,0.0,-50.372314,61.92444,-25.021362
1766498294778,-0.88427734,-0.35742188,0.2915039,-0.48828125,0.24414062,0.18310547,0.0,0.0,0.0,-50.372314,61.92444,-25.021362
1766498294790,-0.88427734,-0.35742188,0.2915039,-0.48828125,0.24414062,0.18310547,0.0,0.0,0.0,-50.317383,61.913452,-24.89502
1766498294878,-0.88916016,-0.36279297,0.2866211,0.61035156,0.0,-0.18310547,0.0,0.0,0.0,-50.317383,61.913452,-24.89502
1766498294890,-0.88916016,-0.36279297,0.2866211,0.61035156,0.0,-0.18310547,0.0,0.0,0.0,-50.322876,61.92993,-24.933472
1766498294977,-0.88427734,-0.35595703,0.296875,-0.061035156,-0.30517578,0.0,0.0,0.0,0.0,-50.322876,61.92993,-24.933472
1766498294989,-0.88427734,-0.35595703,0.296875,-0.061035156,-0.30517578,0.0,0.0,0.0,0.0,-50.317383,61.92444,-24.906006
1766498295077,-0.88916016,-0.36132812,0.28515625,0.12207031,0.18310547,-0.24414062,0.0,0.0,0.0,-50.317383,61.92444,-24.906006
1766498295088,-0.88916016,-0.36132812,0.28515625,0.12207031,0.18310547,-0.24414062,0.0,0.0,0.0,-50.27893,61.92993,-24.900513
1766498295177,-0.8852539,-0.35986328,0.28955078,0.36621094,0.24414062,-0.24414062,0.0,0.0,0.0,-50.27893,61.92993,-24.900513
1766498295188,-0.8852539,-0.35986328,0.28955078,0.36621094,0.24414062,-0.24414062,0.0,0.0,0.0,-50.35034,61.940918,-24.96643
1766498295277,-0.88623047,-0.35888672,0.2915039,0.061035156,-0.12207031,0.0,0.0,0.0,0.0,-50.35034,61.940918,-24.96643
1766498295288,-0.88623047,-0.35888672,0.2915039,0.061035156,-0.12207031,0.0,0.0,0.0,0.0,-50.36133,61.935425,-24.971924
1766498295376,-0.8852539,-0.35986328,0.2939453,0.061035156,0.0,0.0,0.0,0.0,0.0,-50.36133,61.935425,-24.971924
1766498295388,-0.8852539,-0.35986328,0.2939453,0.061035156,0.0,0.0,0.0,0.0,0.0,-50.34485,61.94641,-24.960938
1766498295476,-0.88623047,-0.35791016,0.29541016,-0.061035156,0.18310547,0.0,0.0,0.0,0.0,-50.34485,61.94641,-24.960938
1766498295488,-0.88623047,-0.35791016,0.29541016,-0.061035156,0.18310547,0.0,0.0,0.0,0.0,-50.36682,61.973877,-24.977417
1766498295576,-0.890625,-0.3618164,0.2939453,-0.061035156,-0.061035156,-0.18310547,0.0,0.0,0.0,-50.36682,61.973877,-24.977417
1766498295588,-0.890625,-0.3618164,0.2939453,-0.061035156,-0.061035156,-0.18310547,0.0,0.0,0.0,-50.438232,61.990356,-25.092773
1766498295675,-0.8828125,-0.35498047,0.2944336,0.4272461,0.9765625,-0.36621094,0.0,0.0,0.0,-50.438232,61.990356,-25.092773
1766498295687,-0.8828125,-0.35498047,0.2944336,0.4272461,0.9765625,-0.36621094,0.0,0.0,0.0,-50.410767,61.984863,-25.004883
1766498295775,-0.89160156,-0.36279297,0.2861328,0.0,0.0,-0.061035156,0.0,0.0,0.0,-50.410767,61.984863,-25.004883
1766498295787,-0.89160156,-0.36279297,0.2861328,0.0,0.0,-0.061035156,0.0,0.0,0.0,-50.443726,61.990356,-25.08728
1766498295875,-0.8852539,-0.35791016,0.2939453,0.36621094,-0.18310547,-0.12207031,0.0,0.0,0.0,-50.443726,61.990356,-25.08728
1766498295887,-0.8852539,-0.35791016,0.2939453,0.36621094,-0.18310547,-0.12207031,0.0,0.0,0.0,-50.4657,61.990356,-25.092773
1766498295975,-0.8876953,-0.36132812,0.2866211,0.4272461,0.4272461,-0.30517578,0.0,0.0,0.0,-50.4657,61.990356,-25.092773
1766498295986,-0.8876953,-0.36132812,0.2866211,0.4272461,0.4272461,-0.30517578,0.0,0.0,0.0,-50.41626,61.984863,-25.065308
1766498296075,-0.88671875,-0.35839844,0.28857422,0.5493164,-0.5493164,0.0,0.0,0.0,0.0,-50.41626,61.984863,-25.065308
1766498296086,-0.88671875,-0.35839844,0.28857422,0.5493164,-0.5493164,0.0,0.0,0.0,0.0,-50.39978,61.97937,-25.065308
1766498296174,-0.8857422,-0.35791016,0.2915039,0.7324219,-0.48828125,-0.061035156,0.0,0.0,0.0,-50.39978,61.97937,-25.065308
1766498296186,-0.8857422,-0.35791016,0.2915039,0.7324219,-0.48828125,-0.061035156,0.0,0.0,0.0,-50.29541,61.957397,-24.993896
1766498296274,-0.88720703,-0.35888672,0.2939453,0.12207031,-0.061035156,-0.12207031,0.0,0.0,0.0,-50.29541,61.957397,-24.993896
1766498296286,-0.88720703,-0.35888672,0.2939453,0.12207031,-0.061035156,-0.12207031,0.0,0.0,0.0,-50.24048,61.94641,-24.96643
1766498296373,-0.8857422,-0.3564453,0.29052734,0.0,0.30517578,-0.061035156,0.0,0.0,0.0,-50.24048,61.94641,-24.96643
1766498296386,-0.8857422,-0.3564453,0.29052734,0.0,0.30517578,-0.061035156,0.0,0.0,0.0,-50.251465,61.957397,-24.993896
1766498296473,-0.8881836,-0.35888672,0.29541016,0.0,-0.12207031,-0.18310547,0.0,0.0,0.0,-50.251465,61.957397,-24.993896
1766498296485,-0.8881836,-0.35888672,0.29541016,0.0,-0.12207031,-0.18310547,0.0,0.0,0.0,-50.289917,61.968384,-25.076294
1766498296573,-0.88378906,-0.35498047,0.29052734,0.0,1.159668,-0.36621094,0.0,0.0,0.0,-50.289917,61.968384,-25.076294
1766498296584,-0.88378906,-0.35498047,0.29052734,0.0,1.159668,-0.36621094,0.0,0.0,0.0,-50.317383,61.97937,-25.059814
1766498296673,-0.89160156,-0.3618164,0.2841797,0.4272461,0.36621094,-0.24414062,0.0,0.0,0.0,-50.317383,61.97937,-25.059814
1766498296685,-0.89160156,-0.3618164,0.2841797,0.4272461,0.36621094,-0.24414062,0.0,0.0,0.0,-50.339355,61.990356,-25.109253
1766498296772,-0.88134766,-0.35546875,0.29541016,-0.24414062,-0.30517578,0.12207031,0.0,0.0,0.0,-50.339355,61.990356,-25.109253
1766498296784,-0.88134766,-0.35546875,0.29541016,-0.24414062,-0.30517578,0.12207031,0.0,0.0,0.0,-50.3833,62.006836,-25.114746
1766498296872,-0.8881836,-0.36035156,0.2866211,0.24414062,0.7324219,-0.36621094,0.0,0.0,0.0,-50.3833,62.006836,-25.114746
1766498296883,-0.8881836,-0.36035156,0.2866211,0.24414062,0.7324219,-0.36621094,0.0,0.0,0.0,-50.39978,62.017822,-25.142212
1766498296972,-0.8852539,-0.35791016,0.28759766,0.24414062,0.4272461,-0.18310547,0.0,0.0,0.0,-50.39978,62.017822,-25.142212
1766498296983,-0.8852539,-0.35791016,0.28759766,0.24414062,0.4272461,-0.18310547,0.0,0.0,0.0,-50.482178,62.0343,-25.219116
1766498297072,-0.8852539,-0.35839844,0.28955078,0.061035156,0.0,-0.12207031,0.0,0.0,0.0,-50.482178,62.0343,-25.219116
1766498297083,-0.8852539,-0.35839844,0.28955078,0.061035156,0.0,-0.12207031,0.0,0.0,0.0,-50.509644,62.045288,-25.241089
1766498297171,-0.8881836,-0.35742188,0.28955078,0.061035156,-0.30517578,0.0,0.0,0.0,0.0,-50.509644,62.045288,-25.241089
1766498297183,-0.8881836,-0.35742188,0.28955078,0.061035156,-0.30517578,0.0,0.0,0.0,0.0,-50.509644,62.045288,-25.20813
1766498297271,-0.8803711,-0.35888672,0.29296875,0.30517578,0.061035156,-0.18310547,0.0,0.0,0.0,-50.509644,62.045288,-25.20813
1766498297283,-0.8803711,-0.35888672,0.29296875,0.30517578,0.061035156,-0.18310547,0.0,0.0,0.0,-50.52063,62.056274,-25.202637
1766498297371,-0.88916016,-0.36132812,0.29248047,-0.4272461,-0.5493164,0.24414062,0.0,0.0,0.0,-50.52063,62.056274,-25.202637
1766498297382,-0.88916016,-0.36132812,0.29248047,-0.4272461,-0.5493164,0.24414062,0.0,0.0,0.0,-50.443726,62.039795,-25.098267
1766498297470,-0.88427734,-0.3564453,0.29492188,-0.061035156,-1.0375977,0.12207031,0.0,0.0,0.0,-50.443726,62.039795,-25.098267
1766498297482,-0.88427734,-0.3564453,0.29492188,-0.061035156,-1.0375977,0.12207031,0.0,0.0,0.0,-50.460205,62.05078,-25.114746
1766498297570,-0.88623047,-0.35742188,0.28710938,-0.30517578,-0.6713867,0.12207031,0.0,0.0,0.0,-50.460205,62.05078,-25.114746
1766498297582,-0.88623047,-0.35742188,0.28710938,-0.30517578,-0.6713867,0.12207031,0.0,0.0,0.0,-50.438232,62.056274,-25.092773
1766498297670,-0.88720703,-0.36083984,0.28808594,0.48828125,-0.4272461,-0.24414062,0.0,0.0,0.0,-50.438232,62.056274,-25.092773
1766498297681,-0.88720703,-0.36083984,0.28808594,0.48828125,-0.4272461,-0.24414062,0.0,0.0,0.0,-50.34485,62.02881,-24.993896
1766498297770,-0.8852539,-0.35498047,0.29345703,0.0,-0.24414062,-0.061035156,0.0,0.0,0.0,-50.34485,62.02881,-24.993896
1766498297781,-0.8852539,-0.35498047,0.29345703,0.0,-0.24414062,-0.061035156,0.0,0.0,0.0,-50.27893,62.001343,-24.911499
1766498297869,-0.88623047,-0.35791016,0.29248047,0.061035156,-0.48828125,0.0,0.0,0.0,0.0,-50.27893,62.001343,-24.911499
1766498297881,-0.88623047,-0.35791016,0.29248047,0.061035156,-0.48828125,0.0,0.0,0.0,0.0,-50.24597,61.990356,-24.867554
1766498297969,-0.8847656,-0.35839844,0.29003906,-0.12207031,-0.30517578,0.0,0.0,0.0,0.0,-50.24597,61.990356,-24.867554
1766498297980,-0.8847656,-0.35839844,0.29003906,-0.12207031,-0.30517578,0.0,0.0,0.0,0.0,-50.196533,61.984863,-24.812622
1766498298069,-0.8881836,-0.35791016,0.28857422,0.48828125,-0.061035156,-0.36621094,0.0,0.0,0.0,-50.196533,61.984863,-24.812622
1766498298080,-0.8881836,-0.35791016,0.28857422,0.48828125,-0.061035156,-0.36621094,0.0,0.0,0.0,-50.147095,61.968384,-24.746704
1766498298168,-0.88134766,-0.35791016,0.2915039,0.61035156,0.18310547,-0.48828125,0.0,0.0,0.0,-50.147095,61.968384,-24.746704
1766498298180,-0.88134766,-0.35791016,0.2915039,0.61035156,0.18310547,-0.48828125,0.0,0.0,0.0,-50.17456,61.957397,-24.851074
1766498298268,-0.8881836,-0.35839844,0.2841797,-0.36621094,-0.24414062,-0.061035156,0.0,0.0,0.0,-50.17456,61.957397,-24.851074
1766498298280,-0.8881836,-0.35839844,0.2841797,-0.36621094,-0.24414062,-0.061035156,0.0,0.0,0.0,-50.092163,61.90796,-24.746704
1766498298368,-0.88720703,-0.36083984,0.29248047,0.6713867,-0.18310547,-0.30517578,0.0,0.0,0.0,-50.092163,61.90796,-24.746704
1766498298380,-0.88720703,-0.36083984,0.29248047,0.6713867,-0.18310547,-0.30517578,0.0,0.0,0.0,-50.147095,61.913452,-24.856567
1766498298468,-0.88134766,-0.35595703,0.29736328,-0.12207031,-0.36621094,0.0,0.0,0.0,0.0,-50.147095,61.913452,-24.856567
1766498298479,-0.88134766,-0.35595703,0.29736328,-0.12207031,-0.36621094,0.0,0.0,0.0,0.0,-50.152588,61.902466,-24.867554
1766498298567,-0.8876953,-0.3623047,0.2866211,0.4272461,-0.12207031,-0.30517578,0.0,0.0,0.0,-50.152588,61.902466,-24.867554
1766498298579,-0.8876953,-0.3623047,0.2866211,0.4272461,-0.12207031,-0.30517578,0.0,0.0,0.0,-50.08667,61.880493,-24.818115
1766498298667,-0.88427734,-0.35791016,0.29492188,0.18310547,0.0,-0.18310547,0.0,0.0,0.0,-50.08667,61.880493,-24.818115
1766498298679,-0.88427734,-0.35791016,0.29492188,0.18310547,0.0,-0.18310547,0.0,0.0,0.0,-50.147095,61.885986,-24.900513
1766498298767,-0.88427734,-0.36035156,0.2944336,-0.12207031,-0.24414062,0.12207031,0.0,0.0,0.0,-50.147095,61.885986,-24.900513
1766498298779,-0.88427734,-0.36035156,0.2944336,-0.12207031,-0.24414062,0.12207031,0.0,0.0,0.0,-50.152588,61.885986,-24.916992
1766498298866,-0.88378906,-0.35888672,0.2944336,0.0,0.12207031,-0.12207031,0.0,0.0,0.0,-50.152588,61.885986,-24.916992
1766498298879,-0.88378906,-0.35888672,0.2944336,0.0,0.12207031,-0.12207031,0.0,0.0,0.0,-50.147095,61.902466,-24.87854
1766498298966,-0.88671875,-0.35839844,0.2939453,-0.4272461,0.12207031,0.0,0.0,0.0,0.0,-50.147095,61.902466,-24.87854
1766498298978,-0.88671875,-0.35839844,0.2939453,-0.4272461,0.12207031,0.0,0.0,0.0,0.0,-50.180054,61.913452,-24.906006
1766498299066,-0.8886719,-0.36083984,0.29638672,0.0,-0.24414062,-0.12207031,0.0,0.0,0.0,-50.180054,61.913452,-24.906006
1766498299078,-0.8886719,-0.36083984,0.29638672,0.0,-0.24414062,-0.12207031,0.0,0.0,0.0,-50.24597,61.92444,-25.021362
1766498299166,-0.8823242,-0.35595703,0.29541016,0.24414062,0.9765625,-0.4272461,0.0,0.0,0.0,-50.24597,61.92444,-25.021362
1766498299177,-0.8823242,-0.35595703,0.29541016,0.24414062,0.9765625,-0.4272461,0.0,0.0,0.0,-50.218506,61.92444,-24.922485
1766498299265,-0.8881836,-0.36328125,0.28759766,0.36621094,0.18310547,-0.4272461,0.0,0.0,0.0,-50.218506,61.92444,-24.922485
1766498299277,-0.8881836,-0.36328125,0.28759766,0.36621094,0.18310547,-0.4272461,0.0,0.0,0.0,-50.24048,61.92444,-25.004883
1766498299365,-0.88427734,-0.35791016,0.29345703,0.0,-0.36621094,0.0,0.0,0.0,0.0,-50.24048,61.92444,-25.004883
1766498299377,-0.88427734,-0.35791016,0.29345703,0.0,-0.36621094,0.0,0.0,0.0,0.0,-50.224,61.90796,-24.96643
1766498299465,-0.88916016,-0.36279297,0.2861328,0.24414062,0.4272461,-0.30517578,0.0,0.0,0.0,-50.224,61.90796,-24.96643
1766498299476,-0.88916016,-0.36279297,0.2861328,0.24414062,0.4272461,-0.30517578,0.0,0.0,0.0,-50.202026,61.90796,-24.938965
1766498299564,-0.8857422,-0.35839844,0.29248047,0.30517578,-0.12207031,-0.12207031,0.0,0.0,0.0,-50.202026,61.90796,-24.938965
1766498299576,-0.8857422,-0.35839844,0.29248047,0.30517578,-0.12207031,-0.12207031,0.0,0.0,0.0,-50.273438,61.918945,-25.021362
1766498299664,-0.8847656,-0.35888672,0.29248047,0.12207031,-0.61035156,0.0,0.0,0.0,0.0,-50.273438,61.918945,-25.021362
1766498299676,-0.8847656,-0.35888672,0.29248047,0.12207031,-0.61035156,0.0,0.0,0.0,0.0,-50.24048,61.90796,-24.99939
1766498299764,-0.8881836,-0.35986328,0.2890625,0.9765625,-0.24414062,-0.30517578,0.0,0.0,0.0,-50.24048,61.90796,-24.99939
1766498299775,-0.8881836,-0.35986328,0.2890625,0.9765625,-0.24414062,-0.30517578,0.0,0.0,0.0,-50.180054,61.89148,-24.944458
1766498299864,-0.8803711,-0.36376953,0.29248047,0.7324219,0.18310547,-0.36621094,0.0,0.0,0.0,-50.180054,61.89148,-24.944458
1766498299875,-0.8803711,-0.36376953,0.29248047,0.7324219,0.18310547,-0.36621094,0.0,0.0,0.0,-50.17456,61.902466,-24.98291
1766498299963,-0.890625,-0.36328125,0.28857422,-0.061035156,-0.79345703,0.18310547,0.0,0.0,0.0,-50.17456,61.902466,-24.98291
1766498299975,-0.890625,-0.36328125,0.28857422,-0.061035156,-0.79345703,0.18310547,0.0,0.0,0.0,-50.13611,61.885986,-24.977417
1766498300063,-0.88134766,-0.35498047,0.29833984,0.79345703,0.12207031,-0.4272461,0.0,0.0,0.0,-50.13611,61.885986,-24.977417
1766498300074,-0.88134766,-0.35498047,0.29833984,0.79345703,0.12207031,-0.4272461,0.0,0.0,0.0,-50.218506,61.902466,-25.059814
1766498300163,-0.88623047,-0.35742188,0.29101562,-0.18310547,0.4272461,-0.061035156,0.0,0.0,0.0,-50.218506,61.902466,-25.059814
1766498300174,-0.88623047,-0.35742188,0.29101562,-0.18310547,0.4272461,-0.061035156,0.0,0.0,0.0,-50.24597,61.913452,-25.10376
1766498300262,-0.8886719,-0.3623047,0.2890625,0.48828125,-0.24414062,-0.12207031,0.0,0.0,0.0,-50.24597,61.913452,-25.10376
1766498300274,-0.8886719,-0.3623047,0.2890625,0.48828125,-0.24414062,-0.12207031,0.0,0.0,0.0,-50.234985,61.918945,-25.0708
1766498300362,-0.88378906,-0.35839844,0.2944336,0.0,0.30517578,-0.30517578,0.0,0.0,0.0,-50.234985,61.918945,-25.0708
1766498300374,-0.88378906,-0.35839844,0.2944336,0.0,0.30517578,-0.30517578,0.0,0.0,0.0,-50.333862,61.935425,-25.19165
1766498300462,-0.88623047,-0.359375,0.2919922,-0.061035156,0.061035156,-0.061035156,0.0,0.0,0.0,-50.333862,61.935425,-25.19165
1766498300474,-0.88623047,-0.359375,0.2919922,-0.061035156,0.061035156,-0.061035156,0.0,0.0,0.0,-50.405273,61.951904,-25.246582
1766498300562,-0.8857422,-0.359375,0.29052734,-0.4272461,-0.12207031,0.0,0.0,0.0,0.0,-50.405273,61.951904,-25.246582
1766498300573,-0.8857422,-0.359375,0.29052734,-0.4272461,-0.12207031,0.0,0.0,0.0,0.0,-50.405273,61.957397,-25.197144
1766498300661,-0.8857422,-0.35839844,0.28808594,-0.12207031,0.36621094,0.0,0.0,0.0,0.0,-50.405273,61.957397,-25.197144
1766498300674,-0.8857422,-0.35839844,0.28808594,-0.12207031,0.36621094,0.0,0.0,0.0,0.0,-50.421753,61.973877,-25.164185
1766498300761,-0.88623047,-0.35742188,0.29003906,0.30517578,0.12207031,0.0,0.0,0.0,0.0,-50.421753,61.973877,-25.164185
1766498300773,-0.88623047,-0.35742188,0.29003906,0.30517578,0.12207031,0.0,0.0,0.0,0.0,-50.493164,62.017822,-25.257568
1766498300861,-0.8833008,-0.3564453,0.2841797,-0.12207031,2.0141602,0.61035156,0.0,0.0,0.0,-50.493164,62.017822,-25.257568
1766498300872,-0.8833008,-0.3564453,0.2841797,-0.12207031,2.0141602,0.61035156,0.0,0.0,0.0,-50.542603,62.094727,-25.235596
1766498300960,-0.8886719,-0.35595703,0.28173828,0.7324219,1.5258789,-0.24414062,0.0,0.0,0.0,-50.542603,62.094727,-25.235596
1766498300972,-0.8886719,-0.35595703,0.28173828,0.7324219,1.5258789,-0.24414062,0.0,0.0,0.0,-50.646973,62.177124,-25.290527
1766498301060,-0.8808594,-0.35742188,0.2890625,-1.159668,-0.24414062,0.61035156,0.0,0.0,0.0,-50.646973,62.177124,-25.290527
1766498301072,-0.8808594,-0.35742188,0.2890625,-1.159668,-0.24414062,0.61035156,0.0,0.0,0.0,-50.734863,62.232056,-25.301514
1766498301160,-0.8881836,-0.35498047,0.27539062,0.18310547,0.5493164,0.91552734,0.0,0.0,0.0,-50.734863,62.232056,-25.301514
1766498301172,-0.8881836,-0.35498047,0.27539062,0.18310547,0.5493164,0.91552734,0.0,0.0,0.0,-50.734863,62.303467,-25.219116
1766498301260,-0.8959961,-0.3671875,0.29345703,-0.61035156,0.0,1.7700195,0.0,0.0,0.0,-50.734863,62.303467,-25.219116
1766498301271,-0.8959961,-0.3671875,0.29345703,-0.61035156,0.0,1.7700195,0.0,0.0,0.0,-50.614014,62.523193,-25.08728
1766498301360,-0.88916016,-0.35107422,0.2866211,-1.5869141,-0.5493164,1.6479492,0.0,0.0,0.0,-50.614014,62.523193,-25.08728
1766498301371,-0.88916016,-0.35107422,0.2866211,-1.5869141,-0.5493164,1.6479492,0.0,0.0,0.0,-50.394287,62.55066,-24.74121
1766498301459,-0.90185547,-0.32958984,0.28515625,0.4272461,1.2207031,3.7231445,0.0,0.0,0.0,-50.394287,62.55066,-24.74121
1766498301471,-0.90185547,-0.32958984,0.28515625,0.4272461,1.2207031,3.7231445,0.0,0.0,0.0,-50.1416,62.858276,-24.367676
1766498301559,-0.8935547,-0.3486328,0.27490234,0.12207031,-0.8544922,0.0,0.0,0.0,0.0,-50.1416,62.858276,-24.367676
1766498301570,-0.8935547,-0.3486328,0.27490234,0.12207031,-0.8544922,0.0,0.0,0.0,0.0,-50.130615,63.028564,-24.433594
1766498301658,-0.8935547,-0.36083984,0.28710938,-1.5869141,3.0517578,1.953125,0.0,0.0,0.0,-50.130615,63.028564,-24.433594
1766498301670,-0.8935547,-0.36083984,0.28710938,-1.5869141,3.0517578,1.953125,0.0,0.0,0.0,-50.36682,63.24829,-24.658813
1766498301758,-0.89941406,-0.32910156,0.28320312,0.4272461,3.479004,0.8544922,0.0,0.0,0.0,-50.36682,63.24829,-24.658813
1766498301770,-0.89941406,-0.32910156,0.28320312,0.4272461,3.479004,0.8544922,0.0,0.0,0.0,-50.394287,63.495483,-24.466553
1766498301858,-0.91552734,-0.34814453,0.26757812,-1.6479492,-0.9765625,1.7700195,0.0,0.0,0.0,-50.394287,63.495483,-24.466553
1766498301869,-0.91552734,-0.34814453,0.26757812,-1.6479492,-0.9765625,1.7700195,0.0,0.0,0.0,-50.53711,63.687744,-24.6698
1766498301958,-0.9067383,-0.34277344,0.27929688,-6.958008,-0.8544922,0.0,0.0,0.0,0.0,-50.53711,63.687744,-24.6698
1766498301969,-0.9067383,-0.34277344,0.27929688,-6.958008,-0.8544922,0.0,0.0,0.0,0.0,-50.795288,63.78662,-24.576416
1766498302057,-0.8876953,-0.35107422,0.26953125,-2.0751953,0.061035156,-3.7841797,0.0,0.0,0.0,-50.795288,63.78662,-24.576416
1766498302069,-0.8876953,-0.35107422,0.26953125,-2.0751953,0.061035156,-3.7841797,0.0,0.0,0.0,-51.328125,63.654785,-24.680786
1766498302157,-0.89990234,-0.34375,0.25878906,1.4648438,0.61035156,-1.8920898,0.0,0.0,0.0,-51.328125,63.654785,-24.680786
1766498302169,-0.89990234,-0.34375,0.25878906,1.4648438,0.61035156,-1.8920898,0.0,0.0,0.0,-51.569824,63.495483,-24.99939
1766498302257,-0.8574219,-0.328125,0.26220703,6.1035156,-0.24414062,-0.4272461,0.0,0.0,0.0,-51.569824,63.495483,-24.99939
1766498302268,-0.8574219,-0.328125,0.26220703,6.1035156,-0.24414062,-0.4272461,0.0,0.0,0.0,-51.65222,63.446045,-25.235596
1766498302357,-0.91308594,-0.36865234,0.26464844,0.8544922,1.0375977,0.7324219,0.0,0.0,0.0,-51.65222,63.446045,-25.235596
1766498302368,-0.91308594,-0.36865234,0.26464844,0.8544922,1.0375977,0.7324219,0.0,0.0,0.0,-51.278687,63.57788,-25.213623
1766498302456,-0.8930664,-0.34277344,0.26904297,3.112793,1.5869141,-0.12207031,0.0,0.0,0.0,-51.278687,63.57788,-25.213623
1766498302468,-0.8930664,-0.34277344,0.26904297,3.112793,1.5869141,-0.12207031,0.0,0.0,0.0,-50.90515,63.676758,-25.010376
1766498302556,-0.8935547,-0.33398438,0.25732422,-1.4648438,-2.5634766,1.2817383,0.0,0.0,0.0,-50.90515,63.676758,-25.010376
1766498302567,-0.8935547,-0.33398438,0.25732422,-1.4648438,-2.5634766,1.2817383,0.0,0.0,0.0,-50.844727,63.6438,-24.77417
1766498302656,-0.90771484,-0.33789062,0.27246094,-0.48828125,-1.7089844,0.79345703,0.0,0.0,0.0,-50.844727,63.6438,-24.77417
1766498302667,-0.90771484,-0.33789062,0.27246094,-0.48828125,-1.7089844,0.79345703,0.0,0.0,0.0,-50.67444,63.726196,-24.53247
1766498302755,-0.90234375,-0.36816406,0.28564453,-8.728027,0.36621094,-0.61035156,0.0,0.0,0.0,-50.67444,63.726196,-24.53247
1766498302767,-0.90234375,-0.36816406,0.28564453,-8.728027,0.36621094,-0.61035156,0.0,0.0,0.0,-50.965576,63.71521,-24.455566
1766498302855,-0.91308594,-0.3149414,0.25976562,-2.8076172,-3.0517578,-2.5634766,0.0,0.0,0.0,-50.965576,63.71521,-24.455566
1766498302867,-0.91308594,-0.3149414,0.25976562,-2.8076172,-3.0517578,-2.5634766,0.0,0.0,0.0,-51.37207,63.308716,-24.395142
1766498302955,-0.8876953,-0.34179688,0.27001953,-1.0375977,-1.5869141,-0.4272461,0.0,0.0,0.0,-51.37207,63.308716,-24.395142
1766498302967,-0.8876953,-0.34179688,0.27001953,-1.0375977,-1.5869141,-0.4272461,0.0,0.0,0.0,-51.87744,63.286743,-25.032349
1766498303055,-0.90185547,-0.34814453,0.26416016,2.0141602,2.9296875,-2.0141602,0.0,0.0,0.0,-51.87744,63.286743,-25.032349
1766498303066,-0.90185547,-0.34814453,0.26416016,2.0141602,2.9296875,-2.0141602,0.0,0.0,0.0,-51.860962,63.286743,-25.136719
1766498303154,-0.8984375,-0.3466797,0.26660156,2.380371,0.91552734,0.18310547,0.0,0.0,0.0,-51.860962,63.286743,-25.136719
1766498303166,-0.8984375,-0.3466797,0.26660156,2.380371,0.91552734,0.18310547,0.0,0.0,0.0,-51.882935,63.347168,-25.32898
1766498303254,-0.9067383,-0.36083984,0.265625,1.2817383,1.5869141,3.2958984,0.0,0.0,0.0,-51.882935,63.347168,-25.32898
1766498303266,-0.9067383,-0.36083984,0.265625,1.2817383,1.5869141,3.2958984,0.0,0.0,0.0,-51.569824,63.654785,-25.372925
1766498303354,-0.89697266,-0.33984375,0.26416016,1.2817383,0.36621094,0.0,0.0,0.0,0.0,-51.569824,63.654785,-25.372925
1766498303365,-0.89697266,-0.33984375,0.26416016,1.2817383,0.36621094,0.0,0.0,0.0,0.0,-51.394043,63.742676,-25.307007
1766498303453,-0.8964844,-0.33691406,0.26660156,0.30517578,0.9765625,0.5493164,0.0,0.0,0.0,-51.394043,63.742676,-25.307007
1766498303465,-0.8964844,-0.33691406,0.26660156,0.30517578,0.9765625,0.5493164,0.0,0.0,0.0,-51.240234,63.814087,-25.125732
1766498303553,-0.90283203,-0.33935547,0.26367188,0.61035156,-0.6713867,1.2817383,0.0,0.0,0.0,-51.240234,63.814087,-25.125732
1766498303565,-0.90283203,-0.33935547,0.26367188,0.61035156,-0.6713867,1.2817383,0.0,0.0,0.0,-50.998535,63.87451,-24.873047
1766498303653,-0.91064453,-0.33789062,0.2758789,-2.8076172,-0.6713867,-0.18310547,0.0,0.0,0.0,-50.998535,63.87451,-24.873047
1766498303665,-0.91064453,-0.33789062,0.2758789,-2.8076172,-0.6713867,-0.18310547,0.0,0.0,0.0,-50.822754,63.984375,-24.53247
1766498303753,-0.88964844,-0.33789062,0.26464844,-2.1362305,-1.0375977,-2.746582,0.0,0.0,0.0,-50.822754,63.984375,-24.53247
1766498303764,-0.88964844,-0.33789062,0.26464844,-2.1362305,-1.0375977,-2.746582,0.0,0.0,0.0,-51.240234,63.841553,-24.499512
1766498303852,-0.91259766,-0.35351562,0.26757812,0.0,0.6713867,-0.9765625,0.0,0.0,0.0,-51.240234,63.841553,-24.499512
1766498303864,-0.91259766,-0.35351562,0.26757812,0.0,0.6713867,-0.9765625,0.0,0.0,0.0,-51.201782,63.742676,-24.515991
1766498303952,-0.90283203,-0.3330078,0.27197266,2.6245117,-0.4272461,0.79345703,0.0,0.0,0.0,-51.201782,63.742676,-24.515991
1766498303964,-0.90283203,-0.3330078,0.27197266,2.6245117,-0.4272461,0.79345703,0.0,0.0,0.0,-51.14685,63.814087,-24.592896
1766498304052,-0.9008789,-0.33935547,0.27246094,0.48828125,-0.6713867,0.5493164,0.0,0.0,0.0,-51.14685,63.814087,-24.592896
1766498304063,-0.9008789,-0.33935547,0.27246094,0.48828125,-0.6713867,0.5493164,0.0,0.0,0.0,-50.916138,63.86902,-24.58191
1766498304152,-0.8964844,-0.3310547,0.2734375,0.6713867,0.0,-0.12207031,0.0,0.0,0.0,-50.916138,63.86902,-24.58191
1766498304163,-0.8964844,-0.3310547,0.2734375,0.6713867,0.0,-0.12207031,0.0,0.0,0.0,-50.773315,63.880005,-24.417114
1766498304251,-0.91064453,-0.34033203,0.2783203,-1.2207031,-1.0986328,0.4272461,0.0,0.0,0.0,-50.773315,63.880005,-24.417114
1766498304263,-0.91064453,-0.34033203,0.2783203,-1.2207031,-1.0986328,0.4272461,0.0,0.0,0.0,-50.60852,63.87451,-24.312744
1766498304351,-0.90185547,-0.3359375,0.28027344,-2.9907227,-0.18310547,-1.0375977,0.0,0.0,0.0,-50.60852,63.87451,-24.312744
1766498304363,-0.90185547,-0.3359375,0.28027344,-2.9907227,-0.18310547,-1.0375977,0.0,0.0,0.0,-50.828247,63.89099,-24.395142
1766498304451,-0.9003906,-0.34033203,0.2680664,-2.1972656,-0.9765625,-2.9907227,0.0,0.0,0.0,-50.828247,63.89099,-24.395142
1766498304462,-0.9003906,-0.34033203,0.2680664,-2.1972656,-0.9765625,-2.9907227,0.0,0.0,0.0,-51.361084,63.742676,-24.54895
1766498304550,-0.88916016,-0.34423828,0.27246094,0.0,0.6713867,-0.61035156,0.0,0.0,0.0,-51.361084,63.742676,-24.54895
1766498304562,-0.88916016,-0.34423828,0.27246094,0.0,0.6713867,-0.61035156,0.0,0.0,0.0,-51.553345,63.566895,-24.647827
1766498304650,-0.9033203,-0.34472656,0.26464844,1.7089844,1.0375977,-1.2817383,0.0,0.0,0.0,-51.553345,63.566895,-24.647827
1766498304662,-0.9033203,-0.34472656,0.26464844,1.7089844,1.0375977,-1.2817383,0.0,0.0,0.0,-51.531372,63.550415,-24.74121
1766498304750,-0.8857422,-0.32617188,0.26416016,6.4086914,0.4272461,2.6855469,0.0,0.0,0.0,-51.531372,63.550415,-24.74121
1766498304761,-0.8857422,-0.32617188,0.26416016,6.4086914,0.4272461,2.6855469,0.0,0.0,0.0,-51.47644,63.57788,-24.922485
1766498304850,-0.90478516,-0.34423828,0.26757812,1.5869141,-0.79345703,0.0,0.0,0.0,0.0,-51.47644,63.57788,-24.922485
1766498304861,-0.90478516,-0.34423828,0.26757812,1.5869141,-0.79345703,0.0,0.0,0.0,0.0,-50.95459,63.78662,-24.658813
1766498304949,-0.8989258,-0.33642578,0.27978516,0.6713867,0.6713867,0.9765625,0.0,0.0,0.0,-50.95459,63.78662,-24.658813
1766498304961,-0.8989258,-0.33642578,0.27978516,0.6713867,0.6713867,0.9765625,0.0,0.0,0.0,-50.69641,63.81958,-24.411621
1766498305049,-0.89941406,-0.3388672,0.27294922,0.79345703,0.12207031,-0.6713867,0.0,0.0,0.0,-50.69641,63.81958,-24.411621
1766498305061,-0.89941406,-0.3388672,0.27294922,0.79345703,0.12207031,-0.6713867,0.0,0.0,0.0,-50.65796,63.797607,-24.389648
1766498305149,-0.9067383,-0.3383789,0.2705078,0.36621094,-1.0375977,-0.30517578,0.0,0.0,0.0,-50.65796,63.797607,-24.389648
1766498305161,-0.9067383,-0.3383789,0.2705078,0.36621094,-1.0375977,-0.30517578,0.0,0.0,0.0,-50.57007,63.74817,-24.25232
1766498305249,-0.89404297,-0.3310547,0.27783203,-0.12207031,-0.6713867,0.0,0.0,0.0,0.0,-50.57007,63.74817,-24.25232
1766498305260,-0.89404297,-0.3310547,0.27783203,-0.12207031,-0.6713867,0.0,0.0,0.0,0.0,-50.614014,63.77014,-24.274292
1766498305348,-0.89941406,-0.33642578,0.2705078,-0.4272461,-0.79345703,0.0,0.0,0.0,0.0,-50.614014,63.77014,-24.274292
1766498305360,-0.89941406,-0.33642578,0.2705078,-0.4272461,-0.79345703,0.0,0.0,0.0,0.0,-50.603027,63.76465,-24.285278
1766498305448,-0.90234375,-0.3388672,0.27197266,-0.061035156,-0.91552734,0.12207031,0.0,0.0,0.0,-50.603027,63.76465,-24.285278
1766498305460,-0.90234375,-0.3388672,0.27197266,-0.061035156,-0.91552734,0.12207031,0.0,0.0,0.0,-50.50415,63.742676,-24.142456
1766498305548,-0.89746094,-0.3334961,0.2763672,0.18310547,0.0,-0.18310547,0.0,0.0,0.0,-50.50415,63.742676,-24.142456
1766498305559,-0.89746094,-0.3334961,0.2763672,0.18310547,0.0,-0.18310547,0.0,0.0,0.0,-50.48767,63.742676,-24.13147
1766498305647,-0.8979492,-0.33398438,0.2763672,0.0,-0.061035156,0.24414062,0.0,0.0,0.0,-50.48767,63.742676,-24.13147
1766498305659,-0.8979492,-0.33398438,0.2763672,0.0,-0.061035156,0.24414062,0.0,0.0,0.0,-50.44922,63.77014,-24.076538
1766498305747,-0.9008789,-0.3334961,0.27197266,-0.18310547,-0.36621094,0.30517578,0.0,0.0,0.0,-50.44922,63.77014,-24.076538
1766498305759,-0.9008789,-0.3334961,0.27197266,-0.18310547,-0.36621094,0.30517578,0.0,0.0,0.0,-50.36682,63.78662,-23.950195
1766498305847,-0.9145508,-0.3388672,0.27148438,-4.5776367,-0.6713867,-1.159668,0.0,0.0,0.0,-50.36682,63.78662,-23.950195
1766498305859,-0.9145508,-0.3388672,0.27148438,-4.5776367,-0.6713867,-1.159668,0.0,0.0,0.0,-50.64148,63.775635,-23.99414
1766498305947,-0.8852539,-0.33935547,0.2709961,-2.1972656,-0.8544922,-3.6010742,0.0,0.0,0.0,-50.64148,63.775635,-23.99414
1766498305959,-0.8852539,-0.33935547,0.2709961,-2.1972656,-0.8544922,-3.6010742,0.0,0.0,0.0,-51.30066,63.48999,-24.334717
1766498306046,-0.89453125,-0.34326172,0.25878906,0.48828125,-0.30517578,-0.48828125,0.0,0.0,0.0,-51.30066,63.48999,-24.334717
1766498306058,-0.89453125,-0.34326172,0.25878906,0.48828125,-0.30517578,-0.48828125,0.0,0.0,0.0,-51.33911,63.275757,-24.274292
1766498306146,-0.8964844,-0.34814453,0.27148438,-0.5493164,-1.3427734,-0.24414062,0.0,0.0,0.0,-51.33911,63.275757,-24.274292
1766498306158,-0.8964844,-0.34814453,0.27148438,-0.5493164,-1.3427734,-0.24414062,0.0,0.0,0.0,-51.47644,63.303223,-24.505005
1766498306246,-0.90283203,-0.3383789,0.27929688,3.0517578,0.61035156,0.48828125,0.0,0.0,0.0,-51.47644,63.303223,-24.505005
1766498306257,-0.90283203,-0.3383789,0.27929688,3.0517578,0.61035156,0.48828125,0.0,0.0,0.0,-51.344604,63.325195,-24.642334
1766498306346,-0.9086914,-0.36035156,0.27490234,1.4648438,0.6713867,2.9296875,0.0,0.0,0.0,-51.344604,63.325195,-24.642334
1766498306357,-0.9086914,-0.36035156,0.27490234,1.4648438,0.6713867,2.9296875,0.0,0.0,0.0,-50.72937,63.566895,-24.274292
1766498306445,-0.8984375,-0.33398438,0.27929688,0.7324219,0.18310547,1.4648438,0.0,0.0,0.0,-50.72937,63.566895,-24.274292
1766498306457,-0.8984375,-0.33398438,0.27929688,0.7324219,0.18310547,1.4648438,0.0,0.0,0.0,-50.427246,63.66577,-24.104004
1766498306545,-0.89941406,-0.33154297,0.2734375,0.48828125,-0.30517578,0.9765625,0.0,0.0,0.0,-50.427246,63.66577,-24.104004
1766498306556,-0.89941406,-0.33154297,0.2734375,0.48828125,-0.30517578,0.9765625,0.0,0.0,0.0,-50.317383,63.737183,-24.087524
1766498306645,-0.9140625,-0.3408203,0.27734375,0.18310547,0.18310547,0.0,0.0,0.0,0.0,-50.317383,63.737183,-24.087524
1766498306656,-0.9140625,-0.3408203,0.27734375,0.18310547,0.18310547,0.0,0.0,0.0,0.0,-50.15808,63.830566,-23.961182
1766498306744,-0.89697266,-0.3334961,0.2705078,-0.48828125,0.0,-0.48828125,0.0,0.0,0.0,-50.15808,63.830566,-23.961182
1766498306756,-0.89697266,-0.3334961,0.2705078,-0.48828125,0.0,-0.48828125,0.0,0.0,0.0,-50.388794,63.77014,-24.104004
1766498306844,-0.89697266,-0.3388672,0.27001953,2.2583008,0.4272461,-0.9765625,0.0,0.0,0.0,-50.388794,63.77014,-24.104004
1766498306856,-0.89697266,-0.3388672,0.27001953,2.2583008,0.4272461,-0.9765625,0.0,0.0,0.0,-50.410767,63.781128,-24.224854
1766498306944,-0.8989258,-0.33154297,0.2680664,0.0,-0.61035156,-0.18310547,0.0,0.0,0.0,-50.410767,63.781128,-24.224854
1766498306956,-0.8989258,-0.33154297,0.2680664,0.0,-0.61035156,-0.18310547,0.0,0.0,0.0,-50.34485,63.704224,-24.191895
1766498307044,-0.9091797,-0.3383789,0.27294922,0.48828125,-0.30517578,-0.30517578,0.0,0.0,0.0,-50.34485,63.704224,-24.191895
1766498307055,-0.9091797,-0.3383789,0.27294922,0.48828125,-0.30517578,-0.30517578,0.0,0.0,0.0,-50.317383,63.720703,-24.169922
1766498307143,-0.89453125,-0.3330078,0.27734375,-0.30517578,-0.48828125,0.061035156,0.0,0.0,0.0,-50.317383,63.720703,-24.169922
1766498307155,-0.89453125,-0.3330078,0.27734375,-0.30517578,-0.48828125,0.061035156,0.0,0.0,0.0,-50.36682,63.704224,-24.20288
1766498307243,-0.90185547,-0.3359375,0.26953125,2.0141602,-0.061035156,-0.30517578,0.0,0.0,0.0,-50.36682,63.704224,-24.20288
1766498307255,-0.90185547,-0.3359375,0.26953125,2.0141602,-0.061035156,-0.30517578,0.0,0.0,0.0,-50.180054,63.69873,-23.99414
1766498307343,-0.89453125,-0.33984375,0.28173828,0.30517578,0.24414062,0.5493164,0.0,0.0,0.0,-50.180054,63.69873,-23.99414
1766498307355,-0.89453125,-0.33984375,0.28173828,0.30517578,0.24414062,0.5493164,0.0,0.0,0.0,-50.092163,63.737183,-24.060059
1766498307443,-0.8989258,-0.32666016,0.27734375,-0.12207031,-0.061035156,0.6713867,0.0,0.0,0.0,-50.092163,63.737183,-24.060059
1766498307454,-0.8989258,-0.32666016,0.27734375,-0.12207031,-0.061035156,0.6713867,0.0,0.0,0.0,-50.081177,63.775635,-23.950195
1766498307542,-0.90283203,-0.33398438,0.27490234,1.7700195,0.18310547,-1.0375977,0.0,0.0,0.0,-50.081177,63.775635,-23.950195
1766498307554,-0.90283203,-0.33398438,0.27490234,1.7700195,0.18310547,-1.0375977,0.0,0.0,0.0,-50.004272,63.8031,-23.966675
1766498307642,-0.9003906,-0.33642578,0.27441406,0.30517578,0.61035156,-0.61035156,0.0,0.0,0.0,-50.004272,63.8031,-23.966675
1766498307653,-0.9003906,-0.33642578,0.27441406,0.30517578,0.61035156,-0.61035156,0.0,0.0,0.0,-50.042725,63.759155,-24.120483
1766498307742,-0.89941406,-0.32958984,0.27392578,1.5258789,0.6713867,-0.4272461,0.0,0.0,0.0,-50.042725,63.759155,-24.120483
1766498307753,-0.89941406,-0.32958984,0.27392578,1.5258789,0.6713867,-0.4272461,0.0,0.0,0.0,-50.075684,63.78662,-24.20288
1766498307841,-0.8955078,-0.3388672,0.2685547,1.3427734,1.6479492,-0.91552734,0.0,0.0,0.0,-50.075684,63.78662,-24.20288
1766498307853,-0.8955078,-0.3388672,0.2685547,1.3427734,1.6479492,-0.91552734,0.0,0.0,0.0,-50.048218,63.781128,-24.23584
1766498307941,-0.9038086,-0.33496094,0.27246094,1.2207031,0.8544922,-0.9765625,0.0,0.0,0.0,-50.048218,63.781128,-24.23584
1766498307953,-0.9038086,-0.33496094,0.27246094,1.2207031,0.8544922,-0.9765625,0.0,0.0,0.0,-50.108643,63.753662,-24.329224
1766498308041,-0.89453125,-0.3330078,0.27734375,0.4272461,-0.24414062,-0.5493164,0.0,0.0,0.0,-50.108643,63.753662,-24.329224
1766498308053,-0.89453125,-0.3330078,0.27734375,0.4272461,-0.24414062,-0.5493164,0.0,0.0,0.0,-50.213013,63.726196,-24.483032
1766498308141,-0.9038086,-0.34033203,0.2734375,0.4272461,0.0,-0.5493164,0.0,0.0,0.0,-50.213013,63.726196,-24.483032
1766498308152,-0.9038086,-0.34033203,0.2734375,0.4272461,0.0,-0.5493164,0.0,0.0,0.0,-50.213013,63.704224,-24.499512
1766498308240,-0.8955078,-0.33740234,0.2734375,-0.12207031,0.4272461,-0.7324219,0.0,0.0,0.0,-50.213013,63.704224,-24.499512
1766498308252,-0.8955078,-0.33740234,0.2734375,-0.12207031,0.4272461,-0.7324219,0.0,0.0,0.0,-50.35034,63.68225,-24.625854
1766498308340,-0.90185547,-0.33251953,0.27978516,0.8544922,0.18310547,-1.4038086,0.0,0.0,0.0,-50.35034,63.68225,-24.625854
1766498308352,-0.90185547,-0.33251953,0.27978516,0.8544922,0.18310547,-1.4038086,0.0,0.0,0.0,-50.515137,63.654785,-24.75769
1766498308440,-0.8964844,-0.34033203,0.2783203,0.061035156,-0.18310547,-0.12207031,0.0,0.0,0.0,-50.515137,63.654785,-24.75769
1766498308451,-0.8964844,-0.34033203,0.2783203,0.061035156,-0.18310547,-0.12207031,0.0,0.0,0.0,-50.564575,63.61084,-24.87854
1766498308540,-0.9003906,-0.33740234,0.27929688,-0.5493164,0.5493164,0.24414062,0.0,0.0,0.0,-50.564575,63.61084,-24.87854
1766498308551,-0.9003906,-0.33740234,0.27929688,-0.5493164,0.5493164,0.24414062,0.0,0.0,0.0,-50.586548,63.6438,-24.807129
1766498308640,-0.90478516,-0.34326172,0.2763672,0.48828125,-0.79345703,-0.5493164,0.0,0.0,0.0,-50.586548,63.6438,-24.807129
1766498308651,-0.90478516,-0.34326172,0.2763672,0.48828125,-0.79345703,-0.5493164,0.0,0.0,0.0,-50.64148,63.654785,-24.873047
1766498308739,-0.8955078,-0.33398438,0.28173828,-0.12207031,0.48828125,0.0,0.0,0.0,0.0,-50.64148,63.654785,-24.873047
1766498308750,-0.8955078,-0.33398438,0.28173828,-0.12207031,0.48828125,0.0,0.0,0.0,0.0,-50.65796,63.6438,-24.829102
1766498308839,-0.9013672,-0.34277344,0.26953125,0.36621094,0.7324219,-0.061035156,0.0,0.0,0.0,-50.65796,63.6438,-24.829102
1766498308851,-0.9013672,-0.34277344,0.26953125,0.36621094,0.7324219,-0.061035156,0.0,0.0,0.0,-50.630493,63.66577,-24.79065
1766498308939,-0.8979492,-0.33789062,0.27539062,0.4272461,-0.12207031,-0.18310547,0.0,0.0,0.0,-50.630493,63.66577,-24.79065
1766498308950,-0.8979492,-0.33789062,0.27539062,0.4272461,-0.12207031,-0.18310547,0.0,0.0,0.0,-50.635986,63.676758,-24.763184
1766498309038,-0.9008789,-0.33789062,0.2709961,0.24414062,0.30517578,-0.24414062,0.0,0.0,0.0,-50.635986,63.676758,-24.763184
1766498309050,-0.9008789,-0.33789062,0.2709961,0.24414062,0.30517578,-0.24414062,0.0,0.0,0.0,-50.581055,63.66577,-24.664307
1766498309138,-0.89941406,-0.33789062,0.27197266,0.4272461,-0.12207031,0.0,0.0,0.0,0.0,-50.581055,63.66577,-24.664307
1766498309149,-0.89941406,-0.33789062,0.27197266,0.4272461,-0.12207031,0.0,0.0,0.0,0.0,-50.597534,63.676758,-24.65332
1766498309238,-0.9003906,-0.33935547,0.27441406,0.18310547,-0.061035156,0.0,0.0,0.0,0.0,-50.597534,63.676758,-24.65332
1766498309249,-0.9003906,-0.33935547,0.27441406,0.18310547,-0.061035156,0.0,0.0,0.0,0.0,-50.559082,63.68225,-24.576416
1766498309337,-0.89990234,-0.33740234,0.27539062,0.0,0.061035156,0.0,0.0,0.0,0.0,-50.559082,63.68225,-24.576416
1766498309349,-0.89990234,-0.33740234,0.27539062,0.0,0.061035156,0.0,0.0,0.0,0.0,-50.55359,63.69873,-24.53247
1766498309437,-0.89990234,-0.33691406,0.2758789,0.0,0.0,0.0,0.0,0.0,0.0,-50.55359,63.69873,-24.53247
1766498309449,-0.89990234,-0.33691406,0.2758789,0.0,0.0,0.0,0.0,0.0,0.0,-50.559082,63.71521,-24.505005
1766498309537,-0.9042969,-0.33935547,0.2783203,0.061035156,-0.91552734,0.12207031,0.0,0.0,0.0,-50.559082,63.71521,-24.505005
1766498309549,-0.9042969,-0.33935547,0.2783203,0.061035156,-0.91552734,0.12207031,0.0,0.0,0.0,-50.55359,63.726196,-24.510498
1766498309637,-0.89746094,-0.33544922,0.27978516,0.24414062,0.18310547,-0.18310547,0.0,0.0,0.0,-50.55359,63.726196,-24.510498
1766498309648,-0.89746094,-0.33544922,0.27978516,0.24414062,0.18310547,-0.18310547,0.0,0.0,0.0,-50.493164,63.737183,-24.400635
1766498309736,-0.90185547,-0.3388672,0.27197266,0.0,0.061035156,-0.18310547,0.0,0.0,0.0,-50.493164,63.737183,-24.400635
1766498309748,-0.90185547,-0.3388672,0.27197266,0.0,0.061035156,-0.18310547,0.0,0.0,0.0,-50.476685,63.742676,-24.395142
1766498309836,-0.9003906,-0.33544922,0.27734375,0.061035156,-0.36621094,0.061035156,0.0,0.0,0.0,-50.476685,63.742676,-24.395142
1766498309848,-0.9003906,-0.33544922,0.27734375,0.061035156,-0.36621094,0.061035156,0.0,0.0,0.0,-50.421753,63.737183,-24.296265
1766498309936,-0.9033203,-0.33935547,0.27197266,0.4272461,0.4272461,-0.36621094,0.0,0.0,0.0,-50.421753,63.737183,-24.296265
1766498309948,-0.9033203,-0.33935547,0.27197266,0.4272461,0.4272461,-0.36621094,0.0,0.0,0.0,-50.3833,63.737183,-24.263306
1766498310035,-0.89941406,-0.3359375,0.27246094,0.0,0.0,0.0,0.0,0.0,0.0,-50.3833,63.737183,-24.263306
1766498310047,-0.89941406,-0.3359375,0.27246094,0.0,0.0,0.0,0.0,0.0,0.0,-50.39978,63.737183,-24.263306
1766498310135,-0.89990234,-0.3388672,0.2734375,0.30517578,-0.12207031,0.0,0.0,0.0,0.0,-50.39978,63.737183,-24.263306
1766498310147,-0.89990234,-0.3388672,0.2734375,0.30517578,-0.12207031,0.0,0.0,0.0,0.0,-50.394287,63.74817,-24.246826
1766498310235,-0.9033203,-0.33642578,0.27148438,0.12207031,0.0,-0.061035156,0.0,0.0,0.0,-50.394287,63.74817,-24.246826
1766498310247,-0.9033203,-0.33642578,0.27148438,0.12207031,0.0,-0.061035156,0.0,0.0,0.0,-50.36682,63.742676,-24.164429
1766498310335,-0.8955078,-0.33984375,0.27392578,0.61035156,0.48828125,-0.24414062,0.0,0.0,0.0,-50.36682,63.742676,-24.164429
1766498310346,-0.8955078,-0.33984375,0.27392578,0.61035156,0.48828125,-0.24414062,0.0,0.0,0.0,-50.421753,63.775635,-24.21936
1766498310434,-0.9042969,-0.33935547,0.26757812,-0.5493164,-0.91552734,0.4272461,0.0,0.0,0.0,-50.421753,63.775635,-24.21936
1766498310446,-0.9042969,-0.33935547,0.26757812,-0.5493164,-0.91552734,0.4272461,0.0,0.0,0.0,-50.454712,63.797607,-24.230347
1766498310534,-0.89941406,-0.33496094,0.27539062,0.9765625,0.12207031,-0.36621094,0.0,0.0,0.0,-50.454712,63.797607,-24.230347
1766498310546,-0.89941406,-0.33496094,0.27539062,0.9765625,0.12207031,-0.36621094,0.0,0.0,0.0,-50.476685,63.808594,-24.224854
1766498310634,-0.9008789,-0.33398438,0.27294922,-0.061035156,-0.9765625,-0.061035156,0.0,0.0,0.0,-50.476685,63.808594,-24.224854
1766498310646,-0.9008789,-0.33398438,0.27294922,-0.061035156,-0.9765625,-0.061035156,0.0,0.0,0.0,-50.427246,63.781128,-24.164429
1766498310734,-0.9013672,-0.33740234,0.2705078,0.4272461,-0.91552734,0.061035156,0.0,0.0,0.0,-50.427246,63.781128,-24.164429
1766498310745,-0.9013672,-0.33740234,0.2705078,0.4272461,-0.91552734,0.061035156,0.0,0.0,0.0,-50.251465,63.742676,-23.988647
1766498310833,-0.89941406,-0.33642578,0.27490234,0.061035156,-0.18310547,-0.48828125,0.0,0.0,0.0,-50.251465,63.742676,-23.988647
1766498310845,-0.89941406,-0.33642578,0.27490234,0.061035156,-0.18310547,-0.48828125,0.0,0.0,0.0,-50.256958,63.720703,-24.01062
1766498310933,-0.89990234,-0.33740234,0.27441406,0.18310547,0.0,-0.18310547,0.0,0.0,0.0,-50.256958,63.720703,-24.01062
1766498310945,-0.89990234,-0.33740234,0.27441406,0.18310547,0.0,-0.18310547,0.0,0.0,0.0,-50.300903,63.709717,-24.060059
1766498311033,-0.8989258,-0.3383789,0.27490234,-0.18310547,-0.18310547,0.0,0.0,0.0,0.0,-50.300903,63.709717,-24.060059
1766498311044,-0.8989258,-0.3383789,0.27490234,-0.18310547,-0.18310547,0.0,0.0,0.0,0.0,-50.273438,63.709717,-24.005127
1766498311133,-0.9008789,-0.33642578,0.27197266,0.24414062,0.36621094,-0.30517578,0.0,0.0,0.0,-50.273438,63.709717,-24.005127
1766498311144,-0.9008789,-0.33642578,0.27197266,0.24414062,0.36621094,-0.30517578,0.0,0.0,0.0,-50.300903,63.71521,-23.99414
1766498311232,-0.89501953,-0.33398438,0.27441406,0.48828125,0.30517578,-0.36621094,0.0,0.0,0.0,-50.300903,63.71521,-23.99414
1766498311244,-0.89501953,-0.33398438,0.27441406,0.48828125,0.30517578,-0.36621094,0.0,0.0,0.0,-50.39978,63.73169,-24.125977
1766498311332,-0.90185547,-0.33935547,0.26757812,-0.18310547,0.48828125,-0.061035156,0.0,0.0,0.0,-50.39978,63.73169,-24.125977
1766498311344,-0.90185547,-0.33935547,0.26757812,-0.18310547,0.48828125,-0.061035156,0.0,0.0,0.0,-50.34485,63.71521,-23.983154
1766498311432,-0.9033203,-0.33935547,0.26953125,0.30517578,0.12207031,-0.18310547,0.0,0.0,0.0,-50.34485,63.71521,-23.983154
1766498311443,-0.9033203,-0.33935547,0.26953125,0.30517578,0.12207031,-0.18310547,0.0,0.0,0.0,-50.388794,63.709717,-24.01062
1766498311531,-0.89453125,-0.33544922,0.27929688,-0.48828125,-0.8544922,0.0,0.0,0.0,0.0,-50.388794,63.709717,-24.01062
1766498311544,-0.89453125,-0.33544922,0.27929688,-0.48828125,-0.8544922,0.0,0.0,0.0,0.0,-50.443726,63.71521,-24.049072
1766498311631,-0.90185547,-0.3413086,0.2685547,0.061035156,-0.061035156,-0.12207031,0.0,0.0,0.0,-50.443726,63.71521,-24.049072
1766498311643,-0.90185547,-0.3413086,0.2685547,0.061035156,-0.061035156,-0.12207031,0.0,0.0,0.0,-50.3833,63.709717,-23.961182
1766498311731,-0.8979492,-0.33642578,0.27392578,0.18310547,0.12207031,-0.18310547,0.0,0.0,0.0,-50.3833,63.709717,-23.961182
1766498311743,-0.8979492,-0.33642578,0.27392578,0.18310547,0.12207031,-0.18310547,0.0,0.0,0.0,-50.394287,63.704224,-23.933716
1766498311831,-0.8959961,-0.33642578,0.27685547,-0.12207031,-0.48828125,0.0,0.0,0.0,0.0,-50.394287,63.704224,-23.933716
1766498311842,-0.8959961,-0.33642578,0.27685547,-0.12207031,-0.48828125,0.0,0.0,0.0,0.0,-50.377808,63.704224,-23.90625
1766498311930,-0.89941406,-0.33691406,0.2758789,0.36621094,-0.48828125,0.0,0.0,0.0,0.0,-50.377808,63.704224,-23.90625
1766498311942,-0.89941406,-0.33691406,0.2758789,0.36621094,-0.48828125,0.0,0.0,0.0,0.0,-50.322876,63.69873,-23.851318
1766498312030,-0.8984375,-0.3359375,0.27685547,0.7324219,0.061035156,-0.5493164,0.0,0.0,0.0,-50.322876,63.69873,-23.851318
1766498312042,-0.8984375,-0.3359375,0.27685547,0.7324219,0.061035156,-0.5493164,0.0,0.0,0.0,-50.300903,63.693237,-23.840332
1766498312130,-0.90478516,-0.34179688,0.2758789,-0.36621094,-1.0986328,0.18310547,0.0,0.0,0.0,-50.300903,63.693237,-23.840332
1766498312142,-0.90478516,-0.34179688,0.2758789,-0.36621094,-1.0986328,0.18310547,0.0,0.0,0.0,-50.20752,63.654785,-23.774414
1766498312230,-0.89501953,-0.33203125,0.28271484,0.61035156,-0.36621094,-0.061035156,0.0,0.0,0.0,-50.20752,63.654785,-23.774414
1766498312241,-0.89501953,-0.33203125,0.28271484,0.61035156,-0.36621094,-0.061035156,0.0,0.0,0.0,-50.234985,63.66577,-23.796387
1766498312329,-0.9008789,-0.33789062,0.27392578,-0.18310547,-0.4272461,-0.061035156,0.0,0.0,0.0,-50.234985,63.66577,-23.796387
1766498312341,-0.9008789,-0.33789062,0.27392578,-0.18310547,-0.4272461,-0.061035156,0.0,0.0,0.0,-50.185547,63.66577,-23.774414
1766498312429,-0.9003906,-0.33691406,0.27392578,0.4272461,-0.5493164,-0.061035156,0.0,0.0,0.0,-50.185547,63.66577,-23.774414
1766498312441,-0.9003906,-0.33691406,0.27392578,0.4272461,-0.5493164,-0.061035156,0.0,0.0,0.0,-50.10315,63.638306,-23.692017
1766498312529,-0.89990234,-0.33544922,0.2783203,0.061035156,0.24414062,-0.12207031,0.0,0.0,0.0,-50.10315,63.638306,-23.692017
1766498312541,-0.89990234,-0.33544922,0.2783203,0.061035156,0.24414062,-0.12207031,0.0,0.0,0.0,-50.081177,63.6438,-23.66455
1766498312628,-0.89941406,-0.33691406,0.2763672,0.0,-0.12207031,-0.12207031,0.0,0.0,0.0,-50.081177,63.6438,-23.66455
1766498312640,-0.89941406,-0.33691406,0.2763672,0.0,-0.12207031,-0.12207031,0.0,0.0,0.0,-50.108643,63.649292,-23.703003
1766498312728,-0.89941406,-0.33691406,0.27490234,0.12207031,0.24414062,0.0,0.0,0.0,0.0,-50.108643,63.649292,-23.703003
1766498312740,-0.89941406,-0.33691406,0.27490234,0.12207031,0.24414062,0.0,0.0,0.0,0.0,-50.10315,63.66028,-23.703003
1766498312828,-0.90234375,-0.33642578,0.27294922,0.7324219,0.79345703,-0.5493164,0.0,0.0,0.0,-50.10315,63.66028,-23.703003
1766498312839,-0.90234375,-0.33642578,0.27294922,0.7324219,0.79345703,-0.5493164,0.0,0.0,0.0,-50.169067,63.693237,-23.7854
1766498312928,-0.89697266,-0.3413086,0.27197266,0.6713867,1.0375977,-0.48828125,0.0,0.0,0.0,-50.169067,63.693237,-23.7854
1766498312940,-0.89697266,-0.3413086,0.27197266,0.6713867,1.0375977,-0.48828125,0.0,0.0,0.0,-50.322876,63.73169,-23.999634
1766498313027,-0.9033203,-0.33935547,0.26513672,-0.30517578,-0.91552734,0.18310547,0.0,0.0,0.0,-50.322876,63.73169,-23.999634
1766498313039,-0.9033203,-0.33935547,0.26513672,-0.30517578,-0.91552734,0.18310547,0.0,0.0,0.0,-50.35034,63.73169,-24.032593
1766498313127,-0.89746094,-0.33642578,0.27294922,0.6713867,0.30517578,-0.18310547,0.0,0.0,0.0,-50.35034,63.73169,-24.032593
1766498313139,-0.89746094,-0.33642578,0.27294922,0.6713867,0.30517578,-0.18310547,0.0,0.0,0.0,-50.405273,63.74817,-24.087524
1766498313227,-0.89990234,-0.33447266,0.27294922,-0.36621094,-0.36621094,0.0,0.0,0.0,0.0,-50.405273,63.74817,-24.087524
1766498313238,-0.89990234,-0.33447266,0.27294922,-0.36621094,-0.36621094,0.0,0.0,0.0,0.0,-50.443726,63.759155,-24.125977
1766498313327,-0.9013672,-0.3383789,0.2709961,0.061035156,-0.12207031,0.0,0.0,0.0,0.0,-50.443726,63.759155,-24.125977
1766498313338,-0.9013672,-0.3383789,0.2709961,0.061035156,-0.12207031,0.0,0.0,0.0,0.0,-50.421753,63.759155,-24.065552
1766498313426,-0.89990234,-0.33642578,0.2734375,0.0,0.48828125,-0.4272461,0.0,0.0,0.0,-50.421753,63.759155,-24.065552
1766498313438,-0.89990234,-0.33642578,0.2734375,0.0,0.48828125,-0.4272461,0.0,0.0,0.0,-50.515137,63.792114,-24.180908
1766498313526,-0.9003906,-0.33740234,0.2709961,-0.18310547,-0.18310547,0.12207031,0.0,0.0,0.0,-50.515137,63.792114,-24.180908
1766498313538,-0.9003906,-0.33740234,0.2709961,-0.18310547,-0.18310547,0.12207031,0.0,0.0,0.0,-50.57007,63.8031,-24.213867
1766498313626,-0.89941406,-0.3383789,0.2705078,0.0,-0.061035156,0.0,0.0,0.0,0.0,-50.57007,63.8031,-24.213867
1766498313637,-0.89941406,-0.3383789,0.2705078,0.0,-0.061035156,0.0,0.0,0.0,0.0,-50.548096,63.825073,-24.169922
1766498313725,-0.9042969,-0.33740234,0.2680664,0.18310547,0.061035156,0.0,0.0,0.0,0.0,-50.548096,63.825073,-24.169922
1766498313737,-0.9042969,-0.33740234,0.2680664,0.18310547,0.061035156,0.0,0.0,0.0,0.0,-50.559082,63.830566,-24.142456
1766498313825,-0.8964844,-0.33984375,0.27001953,0.61035156,0.36621094,-0.36621094,0.0,0.0,0.0,-50.559082,63.830566,-24.142456
1766498313837,-0.8964844,-0.33984375,0.27001953,0.61035156,0.36621094,-0.36621094,0.0,0.0,0.0,-50.586548,63.85254,-24.158936
1766498313925,-0.90478516,-0.3388672,0.26611328,-0.36621094,-0.7324219,0.18310547,0.0,0.0,0.0,-50.586548,63.85254,-24.158936
1766498313937,-0.90478516,-0.3388672,0.26611328,-0.36621094,-0.7324219,0.18310547,0.0,0.0,0.0,-50.581055,63.841553,-24.136963
1766498314024,-0.8989258,-0.33447266,0.27197266,1.0375977,0.12207031,-0.4272461,0.0,0.0,0.0,-50.581055,63.841553,-24.136963
1766498314036,-0.8989258,-0.33447266,0.27197266,1.0375977,0.12207031,-0.4272461,0.0,0.0,0.0,-50.64148,63.858032,-24.21936
1766498314124,-0.89990234,-0.33447266,0.27246094,-0.12207031,-0.6713867,0.0,0.0,0.0,0.0,-50.64148,63.858032,-24.21936
1766498314136,-0.89990234,-0.33447266,0.27246094,-0.12207031,-0.6713867,0.0,0.0,0.0,0.0,-50.614014,63.841553,-24.197388
1766498314224,-0.9033203,-0.33935547,0.27001953,0.4272461,-1.7089844,0.0,0.0,0.0,0.0,-50.614014,63.841553,-24.197388
1766498314236,-0.9033203,-0.33935547,0.27001953,0.4272461,-1.7089844,0.0,0.0,0.0,0.0,-50.405273,63.792114,-23.988647
1766498314324,-0.8989258,-0.33691406,0.2734375,0.48828125,-0.7324219,-0.4272461,0.0,0.0,0.0,-50.405273,63.792114,-23.988647
1766498314335,-0.8989258,-0.33691406,0.2734375,0.48828125,-0.7324219,-0.4272461,0.0,0.0,0.0,-50.31189,63.737183,-23.939209
1766498314423,-0.9003906,-0.33691406,0.27441406,0.36621094,-0.4272461,-0.18310547,0.0,0.0,0.0,-50.31189,63.737183,-23.939209
1766498314435,-0.9003906,-0.33691406,0.27441406,0.36621094,-0.4272461,-0.18310547,0.0,0.0,0.0,-50.218506,63.693237,-23.867798
1766498314523,-0.89990234,-0.33691406,0.2758789,0.0,-0.30517578,0.0,0.0,0.0,0.0,-50.218506,63.693237,-23.867798
1766498314535,-0.89990234,-0.33691406,0.2758789,0.0,-0.30517578,0.0,0.0,0.0,0.0,-50.15808,63.68225,-23.796387
1766498314623,-0.90185547,-0.33691406,0.27392578,0.0,0.0,-0.061035156,0.0,0.0,0.0,-50.15808,63.68225,-23.796387
1766498314635,-0.90185547,-0.33691406,0.27392578,0.0,0.0,-0.061035156,0.0,0.0,0.0,-50.169067,63.693237,-23.80188
1766498314723,-0.89453125,-0.33935547,0.27539062,0.4272461,0.30517578,-0.30517578,0.0,0.0,0.0,-50.169067,63.693237,-23.80188
1766498314734,-0.89453125,-0.33935547,0.27539062,0.4272461,0.30517578,-0.30517578,0.0,0.0,0.0,-50.24597,63.709717,-23.878784
1766498314822,-0.9067383,-0.33984375,0.27148438,-0.61035156,-0.36621094,0.18310547,0.0,0.0,0.0,-50.24597,63.709717,-23.878784
1766498314834,-0.9067383,-0.33984375,0.27148438,-0.61035156,-0.36621094,0.18310547,0.0,0.0,0.0,-50.251465,63.69873,-23.834839
1766498314922,-0.8959961,-0.3330078,0.27929688,0.12207031,-0.061035156,-0.30517578,0.0,0.0,0.0,-50.251465,63.69873,-23.834839
1766498314934,-0.8959961,-0.3330078,0.27929688,0.12207031,-0.061035156,-0.30517578,0.0,0.0,0.0,-50.372314,63.71521,-23.933716
1766498315022,-0.9008789,-0.33691406,0.27294922,-0.48828125,-0.061035156,-0.12207031,0.0,0.0,0.0,-50.372314,63.71521,-23.933716
1766498315034,-0.9008789,-0.33691406,0.27294922,-0.48828125,-0.061035156,-0.12207031,0.0,0.0,0.0,-50.47119,63.737183,-24.04358
1766498315121,-0.9013672,-0.34033203,0.26904297,0.0,-0.12207031,0.0,0.0,0.0,0.0,-50.47119,63.737183,-24.04358
1766498315134,-0.9013672,-0.34033203,0.26904297,0.0,-0.12207031,0.0,0.0,0.0,0.0,-50.443726,63.726196,-23.99414
1766498315221,-0.8984375,-0.33642578,0.27490234,-0.18310547,0.061035156,-0.30517578,0.0,0.0,0.0,-50.443726,63.726196,-23.99414
1766498315233,-0.8984375,-0.33642578,0.27490234,-0.18310547,0.061035156,-0.30517578,0.0,0.0,0.0,-50.50415,63.73169,-24.038086
1766498315321,-0.89746094,-0.3359375,0.2758789,-0.061035156,-0.4272461,-0.12207031,0.0,0.0,0.0,-50.50415,63.73169,-24.038086
1766498315333,-0.89746094,-0.3359375,0.2758789,-0.061035156,-0.4272461,-0.12207031,0.0,0.0,0.0,-50.526123,63.720703,-24.049072
1766498315421,-0.8979492,-0.3359375,0.27685547,0.0,-0.30517578,0.0,0.0,0.0,0.0,-50.526123,63.720703,-24.049072
1766498315432,-0.8979492,-0.3359375,0.27685547,0.0,-0.30517578,0.0,0.0,0.0,0.0,-50.454712,63.709717,-23.955688
1766498315520,-0.9013672,-0.33740234,0.27197266,0.24414062,-0.061035156,-0.12207031,0.0,0.0,0.0,-50.454712,63.709717,-23.955688
1766498315532,-0.9013672,-0.33740234,0.27197266,0.24414062,-0.061035156,-0.12207031,0.0,0.0,0.0,-50.410767,63.71521,-23.895264
1766498315620,-0.89453125,-0.33691406,0.26953125,0.79345703,0.30517578,-0.18310547,0.0,0.0,0.0,-50.410767,63.71521,-23.895264
1766498315632,-0.89453125,-0.33691406,0.26953125,0.79345703,0.30517578,-0.18310547,0.0,0.0,0.0,-50.39978,63.709717,-23.911743
1766498315720,-0.9033203,-0.33789062,0.265625,0.18310547,-0.61035156,0.061035156,0.0,0.0,0.0,-50.39978,63.709717,-23.911743
1766498315731,-0.9033203,-0.33789062,0.265625,0.18310547,-0.61035156,0.061035156,0.0,0.0,0.0,-50.234985,63.66577,-23.692017
1766498315820,-0.8984375,-0.33691406,0.27783203,0.61035156,-0.12207031,-0.18310547,0.0,0.0,0.0,-50.234985,63.66577,-23.692017
1766498315831,-0.8984375,-0.33691406,0.27783203,0.61035156,-0.12207031,-0.18310547,0.0,0.0,0.0,-50.229492,63.66028,-23.735962
1766498315919,-0.89697266,-0.3334961,0.27734375,-0.12207031,-0.8544922,0.061035156,0.0,0.0,0.0,-50.229492,63.66028,-23.735962
1766498315931,-0.89697266,-0.3334961,0.27734375,-0.12207031,-0.8544922,0.061035156,0.0,0.0,0.0,-50.180054,63.66028,-23.708496
1766498316019,-0.90283203,-0.3413086,0.27148438,0.0,-0.5493164,0.061035156,0.0,0.0,0.0,-50.180054,63.66028,-23.708496
1766498316031,-0.90283203,-0.3413086,0.27148438,0.0,-0.5493164,0.061035156,0.0,0.0,0.0,-50.097656,63.649292,-23.631592
1766498316119,-0.8984375,-0.33544922,0.27685547,0.18310547,0.24414062,-0.30517578,0.0,0.0,0.0,-50.097656,63.649292,-23.631592
1766498316131,-0.8984375,-0.33544922,0.27685547,0.18310547,0.24414062,-0.30517578,0.0,0.0,0.0,-50.163574,63.66028,-23.719482
1766498316218,-0.8989258,-0.3359375,0.27685547,0.18310547,-0.36621094,0.0,0.0,0.0,0.0,-50.163574,63.66028,-23.719482
1766498316230,-0.8989258,-0.3359375,0.27685547,0.18310547,-0.36621094,0.0,0.0,0.0,0.0,-50.15808,63.66028,-23.730469
1766498316318,-0.9013672,-0.3359375,0.2758789,0.24414062,-0.18310547,-0.12207031,0.0,0.0,0.0,-50.15808,63.66028,-23.730469
1766498316330,-0.9013672,-0.3359375,0.2758789,0.24414062,-0.18310547,-0.12207031,0.0,0.0,0.0,-50.092163,63.654785,-23.66455
1766498316418,-0.9013672,-0.33789062,0.27197266,0.24414062,-0.12207031,-0.12207031,0.0,0.0,0.0,-50.092163,63.654785,-23.66455
1766498316430,-0.9013672,-0.33789062,0.27197266,0.24414062,-0.12207031,-0.12207031,0.0,0.0,0.0,-50.092163,63.66028,-23.68103
1766498316518,-0.89453125,-0.33984375,0.27441406,0.6713867,0.36621094,-0.4272461,0.0,0.0,0.0,-50.092163,63.66028,-23.68103
1766498316529,-0.89453125,-0.33984375,0.27441406,0.6713867,0.36621094,-0.4272461,0.0,0.0,0.0,-50.114136,63.671265,-23.735962
1766498316617,-0.9038086,-0.33691406,0.26757812,-0.5493164,-1.0375977,0.4272461,0.0,0.0,0.0,-50.114136,63.671265,-23.735962
1766498316629,-0.9038086,-0.33691406,0.26757812,-0.5493164,-1.0375977,0.4272461,0.0,0.0,0.0,-50.075684,63.649292,-23.692017
1766498316717,-0.8984375,-0.3359375,0.2758789,0.8544922,0.0,-0.18310547,0.0,0.0,0.0,-50.075684,63.649292,-23.692017
1766498316729,-0.8984375,-0.3359375,0.2758789,0.8544922,0.0,-0.18310547,0.0,0.0,0.0,-50.114136,63.671265,-23.763428
1766498316817,-0.8979492,-0.3330078,0.27685547,-0.18310547,-0.4272461,0.061035156,0.0,0.0,0.0,-50.114136,63.671265,-23.763428
1766498316829,-0.8979492,-0.3330078,0.27685547,-0.18310547,-0.4272461,0.061035156,0.0,0.0,0.0,-50.092163,63.671265,-23.735962
1766498316917,-0.90185547,-0.3388672,0.27392578,0.0,-0.7324219,0.18310547,0.0,0.0,0.0,-50.092163,63.671265,-23.735962
1766498316928,-0.90185547,-0.3388672,0.27392578,0.0,-0.7324219,0.18310547,0.0,0.0,0.0,-50.004272,63.671265,-23.620605
1766498317016,-0.8979492,-0.33398438,0.2788086,0.18310547,0.061035156,-0.48828125,0.0,0.0,0.0,-50.004272,63.671265,-23.620605
1766498317028,-0.8979492,-0.33398438,0.2788086,0.18310547,0.061035156,-0.48828125,0.0,0.0,0.0,-50.03174,63.671265,-23.675537
1766498317116,-0.9003906,-0.33544922,0.2758789,0.061035156,0.0,-0.061035156,0.0,0.0,0.0,-50.03174,63.671265,-23.675537
1766498317128,-0.9003906,-0.33544922,0.2758789,0.061035156,0.0,-0.061035156,0.0,0.0,0.0,-50.05371,63.671265,-23.692017
1766498317216,-0.9008789,-0.33642578,0.27539062,0.061035156,0.061035156,0.0,0.0,0.0,0.0,-50.05371,63.671265,-23.692017
1766498317227,-0.9008789,-0.33642578,0.27539062,0.061035156,0.061035156,0.0,0.0,0.0,0.0,-50.03723,63.68225,-23.675537
1766498317316,-0.9003906,-0.33740234,0.2734375,0.4272461,0.061035156,-0.24414062,0.0,0.0,0.0,-50.03723,63.68225,-23.675537
1766498317327,-0.9003906,-0.33740234,0.2734375,0.4272461,0.061035156,-0.24414062,0.0,0.0,0.0,-50.059204,63.693237,-23.708496
1766498317415,-0.89501953,-0.3383789,0.27539062,0.36621094,0.18310547,-0.24414062,0.0,0.0,0.0,-50.059204,63.693237,-23.708496
1766498317427,-0.89501953,-0.3383789,0.27539062,0.36621094,0.18310547,-0.24414062,0.0,0.0,0.0,-50.097656,63.71521,-23.76892
1766498317515,-0.90527344,-0.33740234,0.27197266,-0.12207031,-0.6713867,0.18310547,0.0,0.0,0.0,-50.097656,63.71521,-23.76892
1766498317526,-0.90527344,-0.33740234,0.27197266,-0.12207031,-0.6713867,0.18310547,0.0,0.0,0.0,-50.147095,63.71521,-23.829346
1766498317615,-0.8984375,-0.3334961,0.2783203,0.8544922,0.36621094,-0.36621094,0.0,0.0,0.0,-50.147095,63.71521,-23.829346
1766498317626,-0.8984375,-0.3334961,0.2783203,0.8544922,0.36621094,-0.36621094,0.0,0.0,0.0,-50.213013,63.742676,-23.88977
1766498317714,-0.89990234,-0.3334961,0.27539062,-0.24414062,-0.24414062,-0.061035156,0.0,0.0,0.0,-50.213013,63.742676,-23.88977
1766498317726,-0.89990234,-0.3334961,0.27539062,-0.24414062,-0.24414062,-0.061035156,0.0,0.0,0.0,-50.218506,63.753662,-23.900757
1766498317814,-0.9033203,-0.33691406,0.2734375,0.0,-0.7324219,0.061035156,0.0,0.0,0.0,-50.218506,63.753662,-23.900757
1766498317827,-0.9033203,-0.33691406,0.2734375,0.0,-0.7324219,0.061035156,0.0,0.0,0.0,-50.19104,63.74817,-23.851318
1766498317914,-0.89990234,-0.3359375,0.2734375,0.0,0.24414062,-0.30517578,0.0,0.0,0.0,-50.19104,63.74817,-23.851318
1766498317926,-0.89990234,-0.3359375,0.2734375,0.0,0.24414062,-0.30517578,0.0,0.0,0.0,-50.24048,63.76465,-23.92273
1766498318014,-0.9013672,-0.33544922,0.2734375,0.061035156,0.061035156,-0.12207031,0.0,0.0,0.0,-50.24048,63.76465,-23.92273
1766498318025,-0.9013672,-0.33544922,0.2734375,0.061035156,0.061035156,-0.12207031,0.0,0.0,0.0,-50.284424,63.77014,-23.955688
1766498318113,-0.90185547,-0.33544922,0.2734375,0.0,0.0,0.0,0.0,0.0,0.0,-50.284424,63.77014,-23.955688
1766498318125,-0.90185547,-0.33544922,0.2734375,0.0,0.0,0.0,0.0,0.0,0.0,-50.27893,63.781128,-23.933716
1766498318213,-0.90283203,-0.3359375,0.2734375,0.18310547,0.4272461,-0.30517578,0.0,0.0,0.0,-50.27893,63.781128,-23.933716
1766498318225,-0.90283203,-0.3359375,0.2734375,0.18310547,0.4272461,-0.30517578,0.0,0.0,0.0,-50.372314,63.808594,-24.032593
1766498318313,-0.8989258,-0.33447266,0.27929688,0.18310547,-0.18310547,0.0,0.0,0.0,0.0,-50.372314,63.808594,-24.032593
1766498318324,-0.8989258,-0.33447266,0.27929688,0.18310547,-0.18310547,0.0,0.0,0.0,0.0,-50.421753,63.81958,-24.082031
1766498318412,-0.9033203,-0.33740234,0.27685547,0.12207031,-1.8310547,0.0,0.0,0.0,0.0,-50.421753,63.81958,-24.082031
1766498318424,-0.9033203,-0.33740234,0.27685547,0.12207031,-1.8310547,0.0,0.0,0.0,0.0,-50.218506,63.742676,-23.856812
1766498318512,-0.8979492,-0.33203125,0.27929688,0.7324219,0.36621094,-0.6713867,0.0,0.0,0.0,-50.218506,63.742676,-23.856812
1766498318524,-0.8979492,-0.33203125,0.27929688,0.7324219,0.36621094,-0.6713867,0.0,0.0,0.0,-50.169067,63.73169,-23.81836
1766498318612,-0.90234375,-0.3413086,0.2709961,0.061035156,0.24414062,-0.48828125,0.0,0.0,0.0,-50.169067,63.73169,-23.81836
1766498318624,-0.90234375,-0.3413086,0.2709961,0.061035156,0.24414062,-0.48828125,0.0,0.0,0.0,-50.251465,63.73169,-23.977661
1766498318712,-0.8964844,-0.33642578,0.27685547,0.0,-0.5493164,-0.12207031,0.0,0.0,0.0,-50.251465,63.73169,-23.977661
1766498318724,-0.8964844,-0.33642578,0.27685547,0.0,-0.5493164,-0.12207031,0.0,0.0,0.0,-50.273438,63.709717,-23.977661
1766498318811,-0.9033203,-0.33984375,0.2709961,0.30517578,0.6713867,-0.5493164,0.0,0.0,0.0,-50.273438,63.709717,-23.977661
1766498318823,-0.9033203,-0.33984375,0.2709961,0.30517578,0.6713867,-0.5493164,0.0,0.0,0.0,-50.289917,63.693237,-23.999634
1766498318911,-0.8989258,-0.33544922,0.2709961,0.061035156,0.8544922,-0.5493164,0.0,0.0,0.0,-50.289917,63.693237,-23.999634
1766498318923,-0.8989258,-0.33544922,0.2709961,0.061035156,0.8544922,-0.5493164,0.0,0.0,0.0,-50.50415,63.71521,-24.20288
1766498319012,-0.89941406,-0.3383789,0.2734375,-0.18310547,0.0,0.0,0.0,0.0,0.0,-50.50415,63.71521,-24.20288
1766498319022,-0.89941406,-0.3383789,0.2734375,-0.18310547,0.0,0.0,0.0,0.0,0.0,-50.559082,63.720703,-24.230347
1766498319111,-0.90185547,-0.33789062,0.26904297,-0.18310547,-0.061035156,0.0,0.0,0.0,0.0,-50.559082,63.720703,-24.230347
1766498319122,-0.90185547,-0.33789062,0.26904297,-0.18310547,-0.061035156,0.0,0.0,0.0,0.0,-50.57556,63.726196,-24.180908
1766498319210,-0.8930664,-0.3383789,0.27148438,1.5869141,0.9765625,-0.61035156,0.0,0.0,0.0,-50.57556,63.726196,-24.180908
1766498319222,-0.8930664,-0.3383789,0.27148438,1.5869141,0.9765625,-0.61035156,0.0,0.0,0.0,-50.701904,63.76465,-24.334717
1766498319310,-0.90527344,-0.34033203,0.26611328,-0.061035156,0.4272461,-0.061035156,0.0,0.0,0.0,-50.701904,63.76465,-24.334717
1766498319322,-0.90527344,-0.34033203,0.26611328,-0.061035156,0.4272461,-0.061035156,0.0,0.0,0.0,-50.71289,63.77014,-24.301758
1766498319410,-0.89746094,-0.33789062,0.27392578,0.061035156,-0.9765625,-0.30517578,0.0,0.0,0.0,-50.71289,63.77014,-24.301758
1766498319421,-0.89746094,-0.33789062,0.27392578,0.061035156,-0.9765625,-0.30517578,0.0,0.0,0.0,-50.828247,63.775635,-24.422607
1766498319510,-0.89697266,-0.33447266,0.27685547,-0.18310547,-0.61035156,-0.061035156,0.0,0.0,0.0,-50.828247,63.775635,-24.422607
1766498319521,-0.89697266,-0.33447266,0.27685547,-0.18310547,-0.61035156,-0.061035156,0.0,0.0,0.0,-50.894165,63.775635,-24.483032
1766498319609,-0.9033203,-0.34228516,0.265625,0.0,-0.6713867,0.061035156,0.0,0.0,0.0,-50.894165,63.775635,-24.483032
1766498319621,-0.9033203,-0.34228516,0.265625,0.0,-0.6713867,0.061035156,0.0,0.0,0.0,-50.773315,63.74817,-24.362183
1766498319709,-0.89941406,-0.3388672,0.2705078,0.24414062,0.0,-0.24414062,0.0,0.0,0.0,-50.773315,63.74817,-24.362183
1766498319721,-0.89941406,-0.3388672,0.2705078,0.24414062,0.0,-0.24414062,0.0,0.0,0.0,-50.751343,63.737183,-24.334717
1766498319809,-0.8989258,-0.33935547,0.27246094,0.0,-0.5493164,0.0,0.0,0.0,0.0,-50.751343,63.737183,-24.334717
1766498319821,-0.8989258,-0.33935547,0.27246094,0.0,-0.5493164,0.0,0.0,0.0,0.0,-50.718384,63.726196,-24.307251
1766498319909,-0.89941406,-0.33642578,0.27685547,-0.30517578,-0.7324219,0.061035156,0.0,0.0,0.0,-50.718384,63.726196,-24.307251
1766498319920,-0.89941406,-0.33642578,0.27685547,-0.30517578,-0.7324219,0.061035156,0.0,0.0,0.0,-50.65796,63.720703,-24.224854
1766498320008,-0.9013672,-0.3359375,0.2758789,-0.24414062,0.0,0.0,0.0,0.0,0.0,-50.65796,63.720703,-24.224854
1766498320020,-0.9013672,-0.3359375,0.2758789,-0.24414062,0.0,0.0,0.0,0.0,0.0,-50.60852,63.720703,-24.158936
1766498320108,-0.9003906,-0.33789062,0.27734375,0.12207031,-0.4272461,-0.18310547,0.0,0.0,0.0,-50.60852,63.720703,-24.158936
1766498320120,-0.9003906,-0.33789062,0.27734375,0.12207031,-0.4272461,-0.18310547,0.0,0.0,0.0,-50.603027,63.726196,-24.197388
1766498320208,-0.89990234,-0.33447266,0.27441406,0.12207031,1.2817383,-0.48828125,0.0,0.0,0.0,-50.603027,63.726196,-24.197388
1766498320220,-0.89990234,-0.33447266,0.27441406,0.12207031,1.2817383,-0.48828125,0.0,0.0,0.0,-50.57007,63.71521,-24.13147
1766498320308,-0.90625,-0.3383789,0.265625,-0.061035156,-0.48828125,0.5493164,0.0,0.0,0.0,-50.57007,63.71521,-24.13147
1766498320319,-0.90625,-0.3383789,0.265625,-0.061035156,-0.48828125,0.5493164,0.0,0.0,0.0,-50.531616,63.74817,-24.14795
1766498320408,-0.89404297,-0.3413086,0.27783203,1.0986328,-0.24414062,-1.2207031,0.0,0.0,0.0,-50.531616,63.74817,-24.14795
1766498320419,-0.89404297,-0.3413086,0.27783203,1.0986328,-0.24414062,-1.2207031,0.0,0.0,0.0,-50.603027,63.753662,-24.268799
1766498320507,-0.90527344,-0.34179688,0.26367188,0.8544922,1.0375977,-0.79345703,0.0,0.0,0.0,-50.603027,63.753662,-24.268799
1766498320518,-0.90527344,-0.34179688,0.26367188,0.8544922,1.0375977,-0.79345703,0.0,0.0,0.0,-50.47119,63.66028,-24.153442
1766498320607,-0.89160156,-0.3334961,0.27685547,0.24414062,0.5493164,-0.4272461,0.0,0.0,0.0,-50.47119,63.66028,-24.153442
1766498320618,-0.89160156,-0.3334961,0.27685547,0.24414062,0.5493164,-0.4272461,0.0,0.0,0.0,-50.734863,63.709717,-24.466553
1766498320707,-0.9042969,-0.34521484,0.27001953,0.9765625,1.7700195,-1.0986328,0.0,0.0,0.0,-50.734863,63.709717,-24.466553
1766498320718,-0.9042969,-0.34521484,0.27001953,0.9765625,1.7700195,-1.0986328,0.0,0.0,0.0,-50.965576,63.76465,-24.801636
1766498320806,-0.9008789,-0.33251953,0.2709961,0.18310547,0.12207031,0.36621094,0.0,0.0,0.0,-50.965576,63.76465,-24.801636
1766498320818,-0.9008789,-0.33251953,0.2709961,0.18310547,0.12207031,0.36621094,0.0,0.0,0.0,-51.069946,63.78662,-24.906006
1766498320906,-0.9008789,-0.34423828,0.2631836,1.6479492,1.2817383,-1.0986328,0.0,0.0,0.0,-51.069946,63.78662,-24.906006
1766498320917,-0.9008789,-0.34423828,0.2631836,1.6479492,1.2817383,-1.0986328,0.0,0.0,0.0,-51.1084,63.83606,-24.971924
1766498321006,-0.90527344,-0.3461914,0.2626953,0.7324219,-0.61035156,-0.4272461,0.0,0.0,0.0,-51.1084,63.83606,-24.971924
1766498321017,-0.90527344,-0.3461914,0.2626953,0.7324219,-0.61035156,-0.4272461,0.0,0.0,0.0,-51.31714,63.847046,-25.279541
1766498321105,-0.89746094,-0.3359375,0.2763672,0.36621094,-0.7324219,0.12207031,0.0,0.0,0.0,-51.31714,63.847046,-25.279541
1766498321117,-0.89746094,-0.3359375,0.2763672,0.36621094,-0.7324219,0.12207031,0.0,0.0,0.0,-51.240234,63.814087,-25.136719
1766498321205,-0.90478516,-0.33740234,0.26611328,-0.4272461,-1.4038086,0.0,0.0,0.0,0.0,-51.240234,63.814087,-25.136719
1766498321217,-0.90478516,-0.33740234,0.26611328,-0.4272461,-1.4038086,0.0,0.0,0.0,0.0,-51.135864,63.792114,-25.021362
1766498321305,-0.9013672,-0.34179688,0.26611328,0.36621094,-0.24414062,-0.24414062,0.0,0.0,0.0,-51.135864,63.792114,-25.021362
1766498321316,-0.9013672,-0.34179688,0.26611328,0.36621094,-0.24414062,-0.24414062,0.0,0.0,0.0,-51.157837,63.78662,-25.032349
1766498321405,-0.90185547,-0.34277344,0.26660156,-0.061035156,-0.4272461,-0.24414062,0.0,0.0,0.0,-51.157837,63.78662,-25.032349
1766498321416,-0.90185547,-0.34277344,0.26660156,-0.061035156,-0.4272461,-0.24414062,0.0,0.0,0.0,-51.124878,63.77014,-24.949951
1766498321504,-0.90234375,-0.3383789,0.2680664,0.24414062,-0.36621094,0.0,0.0,0.0,0.0,-51.124878,63.77014,-24.949951
1766498321516,-0.90234375,-0.3383789,0.2680664,0.24414062,-0.36621094,0.0,0.0,0.0,0.0,-50.993042,63.737183,-24.75769
1766498321604,-0.89990234,-0.34277344,0.265625,0.061035156,-0.5493164,-0.5493164,0.0,0.0,0.0,-50.993042,63.737183,-24.75769
1766498321616,-0.89990234,-0.34277344,0.265625,0.061035156,-0.5493164,-0.5493164,0.0,0.0,0.0,-50.93811,63.71521,-24.730225
1766498321704,-0.9003906,-0.33789062,0.26757812,-0.30517578,-0.48828125,-0.36621094,0.0,0.0,0.0,-50.93811,63.71521,-24.730225
1766498321716,-0.9003906,-0.33789062,0.26757812,-0.30517578,-0.48828125,-0.36621094,0.0,0.0,0.0,-50.965576,63.66028,-24.724731
1766498321803,-0.89746094,-0.33789062,0.2734375,-0.24414062,-0.061035156,0.0,0.0,0.0,0.0,-50.965576,63.66028,-24.724731
1766498321815,-0.89746094,-0.33789062,0.2734375,-0.24414062,-0.061035156,0.0,0.0,0.0,0.0,-50.982056,63.66577,-24.697266
1766498321903,-0.89990234,-0.33935547,0.26660156,-0.79345703,0.24414062,0.18310547,0.0,0.0,0.0,-50.982056,63.66577,-24.697266
1766498321915,-0.89990234,-0.33935547,0.26660156,-0.79345703,0.24414062,0.18310547,0.0,0.0,0.0,-50.872192,63.66028,-24.46106
1766498322003,-0.9013672,-0.34375,0.26611328,0.24414062,0.36621094,-0.30517578,0.0,0.0,0.0,-50.872192,63.66028,-24.46106
1766498322015,-0.9013672,-0.34375,0.26611328,0.24414062,0.36621094,-0.30517578,0.0,0.0,0.0,-50.88867,63.676758,-24.439087
1766498322103,-0.89404297,-0.33691406,0.2763672,-0.18310547,-0.48828125,0.061035156,0.0,0.0,0.0,-50.88867,63.676758,-24.439087
1766498322114,-0.89404297,-0.33691406,0.2763672,-0.18310547,-0.48828125,0.061035156,0.0,0.0,0.0,-50.93811,63.687744,-24.450073
1766498322203,-0.90283203,-0.3408203,0.26660156,0.061035156,-0.36621094,-0.061035156,0.0,0.0,0.0,-50.93811,63.687744,-24.450073
1766498322214,-0.90283203,-0.3408203,0.26660156,0.061035156,-0.36621094,-0.061035156,0.0,0.0,0.0,-50.83374,63.66577,-24.34021
1766498322302,-0.9013672,-0.3388672,0.2680664,0.18310547,0.48828125,-0.18310547,0.0,0.0,0.0,-50.83374,63.66577,-24.34021
1766498322315,-0.9013672,-0.3388672,0.2680664,0.18310547,0.48828125,-0.18310547,0.0,0.0,0.0,-50.88867,63.687744,-24.395142
1766498322402,-0.8979492,-0.33984375,0.2705078,0.0,-0.24414062,-0.061035156,0.0,0.0,0.0,-50.88867,63.687744,-24.395142
1766498322413,-0.8979492,-0.33984375,0.2705078,0.0,-0.24414062,-0.061035156,0.0,0.0,0.0,-50.932617,63.704224,-24.46106
1766498322502,-0.8984375,-0.33984375,0.2709961,0.0,-0.18310547,-0.061035156,0.0,0.0,0.0,-50.932617,63.704224,-24.46106
1766498322514,-0.8984375,-0.33984375,0.2709961,0.0,-0.18310547,-0.061035156,0.0,0.0,0.0,-50.916138,63.69873,-24.406128
1766498322601,-0.8959961,-0.33544922,0.2758789,0.12207031,-0.061035156,-0.061035156,0.0,0.0,0.0,-50.916138,63.69873,-24.406128
1766498322613,-0.8959961,-0.33544922,0.2758789,0.12207031,-0.061035156,-0.061035156,0.0,0.0,0.0,-50.90515,63.704224,-24.35669
1766498322701,-0.90625,-0.33984375,0.2734375,-0.91552734,-1.159668,0.5493164,0.0,0.0,0.0,-50.90515,63.704224,-24.35669
1766498322713,-0.90625,-0.33984375,0.2734375,-0.91552734,-1.159668,0.5493164,0.0,0.0,0.0,-50.81726,63.69873,-24.285278
1766498322801,-0.89453125,-0.33251953,0.2783203,0.24414062,-0.61035156,0.0,0.0,0.0,0.0,-50.81726,63.69873,-24.285278
1766498322812,-0.89453125,-0.33251953,0.2783203,0.24414062,-0.61035156,0.0,0.0,0.0,0.0,-50.844727,63.742676,-24.329224
1766498322901,-0.90185547,-0.3383789,0.27197266,0.79345703,0.48828125,-0.36621094,0.0,0.0,0.0,-50.844727,63.742676,-24.329224
1766498322912,-0.90185547,-0.3383789,0.27197266,0.79345703,0.48828125,-0.36621094,0.0,0.0,0.0,-50.811768,63.753662,-24.34021
1766498323000,-0.89746094,-0.34228516,0.2685547,1.3427734,0.0,-0.91552734,0.0,0.0,0.0,-50.811768,63.753662,-24.34021
1766498323012,-0.89746094,-0.34228516,0.2685547,1.3427734,0.0,-0.91552734,0.0,0.0,0.0,-50.773315,63.709717,-24.433594
1766498323100,-0.9013672,-0.33740234,0.27246094,1.2207031,0.61035156,-0.9765625,0.0,0.0,0.0,-50.773315,63.709717,-24.433594
1766498323112,-0.9013672,-0.33740234,0.27246094,1.2207031,0.61035156,-0.9765625,0.0,0.0,0.0,-50.773315,63.66577,-24.510498
1766498323200,-0.9008789,-0.34033203,0.2680664,0.24414062,0.18310547,-0.24414062,0.0,0.0,0.0,-50.773315,63.66577,-24.510498
1766498323211,-0.9008789,-0.34033203,0.2680664,0.24414062,0.18310547,-0.24414062,0.0,0.0,0.0,-50.861206,63.68225,-24.6698
1766498323300,-0.8989258,-0.3388672,0.27001953,-0.061035156,-0.24414062,0.061035156,0.0,0.0,0.0,-50.861206,63.68225,-24.6698
1766498323311,-0.8989258,-0.3388672,0.27001953,-0.061035156,-0.24414062,0.061035156,0.0,0.0,0.0,-50.83374,63.693237,-24.603882
1766498323399,-0.90185547,-0.3413086,0.27001953,0.24414062,-0.30517578,-0.061035156,0.0,0.0,0.0,-50.83374,63.693237,-24.603882
1766498323411,-0.90185547,-0.3413086,0.27001953,0.24414062,-0.30517578,-0.061035156,0.0,0.0,0.0,-50.74585,63.676758,-24.47754
1766498323499,-0.89453125,-0.34179688,0.2680664,0.79345703,0.6713867,-0.4272461,0.0,0.0,0.0,-50.74585,63.676758,-24.47754
1766498323511,-0.89453125,-0.34179688,0.2680664,0.79345703,0.6713867,-0.4272461,0.0,0.0,0.0,-50.811768,63.676758,-24.576416
1766498323599,-0.90478516,-0.33984375,0.26123047,-0.6713867,-1.2817383,0.4272461,0.0,0.0,0.0,-50.811768,63.676758,-24.576416
1766498323610,-0.90478516,-0.33984375,0.26123047,-0.6713867,-1.2817383,0.4272461,0.0,0.0,0.0,-50.751343,63.654785,-24.499512
1766498323698,-0.8989258,-0.3383789,0.27294922,1.0375977,0.12207031,-0.48828125,0.0,0.0,0.0,-50.751343,63.654785,-24.499512
1766498323710,-0.8989258,-0.3383789,0.27294922,1.0375977,0.12207031,-0.48828125,0.0,0.0,0.0,-50.795288,63.676758,-24.54895
1766498323798,-0.89697266,-0.33691406,0.27294922,0.0,-0.36621094,-0.24414062,0.0,0.0,0.0,-50.795288,63.676758,-24.54895
1766498323810,-0.89697266,-0.33691406,0.27294922,0.0,-0.36621094,-0.24414062,0.0,0.0,0.0,-50.789795,63.66577,-24.543457
1766498323898,-0.90283203,-0.34277344,0.2685547,0.30517578,-0.5493164,0.0,0.0,0.0,0.0,-50.789795,63.66577,-24.543457
1766498323910,-0.90283203,-0.34277344,0.2685547,0.30517578,-0.5493164,0.0,0.0,0.0,0.0,-50.718384,63.649292,-24.466553
1766498323998,-0.8984375,-0.3383789,0.27392578,0.24414062,0.30517578,-0.4272461,0.0,0.0,0.0,-50.718384,63.649292,-24.466553
1766498324009,-0.8984375,-0.3383789,0.27392578,0.24414062,0.30517578,-0.4272461,0.0,0.0,0.0,-50.77881,63.66028,-24.53247
1766498324097,-0.9003906,-0.33984375,0.27294922,-0.12207031,-0.4272461,0.061035156,0.0,0.0,0.0,-50.77881,63.66028,-24.53247
1766498324109,-0.9003906,-0.33984375,0.27294922,-0.12207031,-0.4272461,0.061035156,0.0,0.0,0.0,-50.767822,63.66577,-24.515991
1766498324197,-0.9008789,-0.3388672,0.2705078,-0.061035156,-0.4272461,0.0,0.0,0.0,0.0,-50.767822,63.66577,-24.515991
1766498324209,-0.9008789,-0.3388672,0.2705078,-0.061035156,-0.4272461,0.0,0.0,0.0,0.0,-50.71289,63.66028,-24.433594
1766498324297,-0.9013672,-0.34033203,0.26708984,0.30517578,0.061035156,-0.18310547,0.0,0.0,0.0,-50.71289,63.66028,-24.433594
1766498324309,-0.9013672,-0.34033203,0.26708984,0.30517578,0.061035156,-0.18310547,0.0,0.0,0.0,-50.723877,63.66577,-24.455566
1766498324397,-0.8959961,-0.34228516,0.2680664,0.6713867,0.4272461,-0.4272461,0.0,0.0,0.0,-50.723877,63.66577,-24.455566
1766498324408,-0.8959961,-0.34228516,0.2680664,0.6713867,0.4272461,-0.4272461,0.0,0.0,0.0,-50.734863,63.676758,-24.466553
1766498324496,-0.90234375,-0.33984375,0.2626953,-0.4272461,-0.61035156,0.18310547,0.0,0.0,0.0,-50.734863,63.676758,-24.466553
1766498324508,-0.90234375,-0.33984375,0.2626953,-0.4272461,-0.61035156,0.18310547,0.0,0.0,0.0,-50.69641,63.66028,-24.395142
1766498324596,-0.89990234,-0.34033203,0.26953125,0.79345703,0.0,-0.30517578,0.0,0.0,0.0,-50.69641,63.66028,-24.395142
1766498324608,-0.89990234,-0.34033203,0.26953125,0.79345703,0.0,-0.30517578,0.0,0.0,0.0,-50.756836,63.676758,-24.488525
1766498324696,-0.8959961,-0.33496094,0.27246094,0.18310547,-0.24414062,-0.12207031,0.0,0.0,0.0,-50.756836,63.676758,-24.488525
1766498324708,-0.8959961,-0.33496094,0.27246094,0.18310547,-0.24414062,-0.12207031,0.0,0.0,0.0,-50.74585,63.671265,-24.46106
1766498324796,-0.9038086,-0.34228516,0.26904297,0.24414062,-0.36621094,-0.061035156,0.0,0.0,0.0,-50.74585,63.671265,-24.46106
1766498324807,-0.9038086,-0.34228516,0.26904297,0.24414062,-0.36621094,-0.061035156,0.0,0.0,0.0,-50.663452,63.66028,-24.373169
1766498324896,-0.8964844,-0.3388672,0.2709961,0.0,-0.24414062,-0.30517578,0.0,0.0,0.0,-50.663452,63.66028,-24.373169
1766498324907,-0.8964844,-0.3388672,0.2709961,0.0,-0.24414062,-0.30517578,0.0,0.0,0.0,-50.734863,63.66028,-24.483032
1766498324995,-0.89990234,-0.3388672,0.27392578,0.0,-0.36621094,0.061035156,0.0,0.0,0.0,-50.734863,63.66028,-24.483032
1766498325006,-0.89990234,-0.3388672,0.27392578,0.0,-0.36621094,0.061035156,0.0,0.0,0.0,-50.734863,63.671265,-24.46106
1766498325095,-0.89941406,-0.34033203,0.27197266,0.24414062,0.0,-0.12207031,0.0,0.0,0.0,-50.734863,63.671265,-24.46106
1766498325106,-0.89941406,-0.34033203,0.27197266,0.24414062,0.0,-0.12207031,0.0,0.0,0.0,-50.690918,63.671265,-24.400635
1766498325195,-0.90283203,-0.33789062,0.2705078,0.6713867,-0.18310547,-0.24414062,0.0,0.0,0.0,-50.690918,63.671265,-24.400635
1766498325206,-0.90283203,-0.33789062,0.2705078,0.6713867,-0.18310547,-0.24414062,0.0,0.0,0.0,-50.67444,63.66577,-24.384155
1766498325294,-0.89697266,-0.34326172,0.2709961,0.48828125,-0.7324219,-0.12207031,0.0,0.0,0.0,-50.67444,63.66577,-24.384155
1766498325306,-0.89697266,-0.34326172,0.2709961,0.48828125,-0.7324219,-0.12207031,0.0,0.0,0.0,-50.630493,63.66028,-24.362183
1766498325394,-0.9042969,-0.3408203,0.26757812,0.4272461,-1.0375977,0.061035156,0.0,0.0,0.0,-50.630493,63.66028,-24.362183
1766498325405,-0.9042969,-0.3408203,0.26757812,0.4272461,-1.0375977,0.061035156,0.0,0.0,0.0,-50.493164,63.62732,-24.208374
1766498325494,-0.8964844,-0.3359375,0.27734375,0.7324219,0.0,-0.4272461,0.0,0.0,0.0,-50.493164,63.62732,-24.208374
1766498325505,-0.8964844,-0.3359375,0.27734375,0.7324219,0.0,-0.4272461,0.0,0.0,0.0,-50.53711,63.632812,-24.25232
1766498325593,-0.89941406,-0.33544922,0.2734375,-0.18310547,-0.24414062,0.0,0.0,0.0,0.0,-50.53711,63.632812,-24.25232
1766498325605,-0.89941406,-0.33544922,0.2734375,-0.18310547,-0.24414062,0.0,0.0,0.0,0.0,-50.542603,63.62732,-24.274292
1766498325693,-0.90185547,-0.33984375,0.27246094,0.0,-0.4272461,0.0,0.0,0.0,0.0,-50.542603,63.62732,-24.274292
1766498325705,-0.90185547,-0.33984375,0.27246094,0.0,-0.4272461,0.0,0.0,0.0,0.0,-50.52063,63.638306,-24.241333
1766498325793,-0.8984375,-0.3383789,0.27246094,0.0,0.36621094,-0.4272461,0.0,0.0,0.0,-50.52063,63.638306,-24.241333
1766498325805,-0.8984375,-0.3383789,0.27246094,0.0,0.36621094,-0.4272461,0.0,0.0,0.0,-50.619507,63.66028,-24.367676
1766498325893,-0.89990234,-0.34033203,0.27197266,0.0,0.0,-0.061035156,0.0,0.0,0.0,-50.619507,63.66028,-24.367676
1766498325904,-0.89990234,-0.34033203,0.27197266,0.0,0.0,-0.061035156,0.0,0.0,0.0,-50.707397,63.676758,-24.455566
1766498325992,-0.8984375,-0.3388672,0.27001953,0.0,0.061035156,-0.12207031,0.0,0.0,0.0,-50.707397,63.676758,-24.455566
1766498326004,-0.8984375,-0.3388672,0.27001953,0.0,0.061035156,-0.12207031,0.0,0.0,0.0,-50.69641,63.676758,-24.400635
1766498326092,-0.9013672,-0.3383789,0.26904297,0.12207031,0.12207031,-0.18310547,0.0,0.0,0.0,-50.69641,63.676758,-24.400635
1766498326104,-0.9013672,-0.3383789,0.26904297,0.12207031,0.12207031,-0.18310547,0.0,0.0,0.0,-50.74585,63.68225,-24.406128
1766498326192,-0.89208984,-0.3408203,0.27197266,0.61035156,0.18310547,-0.36621094,0.0,0.0,0.0,-50.74585,63.68225,-24.406128
1766498326203,-0.89208984,-0.3408203,0.27197266,0.61035156,0.18310547,-0.36621094,0.0,0.0,0.0,-50.80078,63.693237,-24.439087
1766498326292,-0.9067383,-0.34277344,0.26660156,-0.7324219,-0.5493164,0.18310547,0.0,0.0,0.0,-50.80078,63.693237,-24.439087
1766498326303,-0.9067383,-0.34277344,0.26660156,-0.7324219,-0.5493164,0.18310547,0.0,0.0,0.0,-50.740356,63.671265,-24.32373
1766498326391,-0.8964844,-0.3359375,0.27929688,0.36621094,-0.61035156,-0.24414062,0.0,0.0,0.0,-50.740356,63.671265,-24.32373
1766498326403,-0.8964844,-0.3359375,0.27929688,0.36621094,-0.61035156,-0.24414062,0.0,0.0,0.0,-50.839233,63.676758,-24.406128
1766498326491,-0.8959961,-0.33642578,0.27392578,-0.18310547,-0.91552734,0.0,0.0,0.0,0.0,-50.839233,63.676758,-24.406128
1766498326503,-0.8959961,-0.33642578,0.27392578,-0.18310547,-0.91552734,0.0,0.0,0.0,0.0,-50.811768,63.676758,-24.406128
1766498326591,-0.90234375,-0.34228516,0.2680664,0.4272461,-0.24414062,0.0,0.0,0.0,0.0,-50.811768,63.676758,-24.406128
1766498326603,-0.90234375,-0.34228516,0.2680664,0.4272461,-0.24414062,0.0,0.0,0.0,0.0,-50.690918,63.654785,-24.279785
1766498326691,-0.8984375,-0.33740234,0.27294922,0.18310547,0.061035156,-0.36621094,0.0,0.0,0.0,-50.690918,63.654785,-24.279785
1766498326702,-0.8984375,-0.33740234,0.27294922,0.18310547,0.061035156,-0.36621094,0.0,0.0,0.0,-50.67444,63.649292,-24.257812
1766498326790,-0.89941406,-0.3383789,0.27441406,-0.36621094,-0.91552734,0.18310547,0.0,0.0,0.0,-50.67444,63.649292,-24.257812
1766498326802,-0.89941406,-0.3383789,0.27441406,-0.36621094,-0.91552734,0.18310547,0.0,0.0,0.0,-50.67993,63.6438,-24.268799
1766498326890,-0.9003906,-0.3383789,0.27246094,0.0,-0.48828125,0.0,0.0,0.0,0.0,-50.67993,63.6438,-24.268799
1766498326902,-0.9003906,-0.3383789,0.27246094,0.0,-0.48828125,0.0,0.0,0.0,0.0,-50.603027,63.632812,-24.164429
1766498326990,-0.9008789,-0.3383789,0.27246094,0.48828125,-0.061035156,-0.30517578,0.0,0.0,0.0,-50.603027,63.632812,-24.164429
1766498327001,-0.9008789,-0.3383789,0.27246094,0.48828125,-0.061035156,-0.30517578,0.0,0.0,0.0,-50.548096,63.621826,-24.104004
1766498327090,-0.89501953,-0.3388672,0.27441406,0.7324219,0.30517578,-0.30517578,0.0,0.0,0.0,-50.548096,63.621826,-24.104004
1766498327101,-0.89501953,-0.3388672,0.27441406,0.7324219,0.30517578,-0.30517578,0.0,0.0,0.0,-50.586548,63.62732,-24.180908
1766498327189,-0.90625,-0.34326172,0.2709961,0.0,-1.3427734,0.12207031,0.0,0.0,0.0,-50.586548,63.62732,-24.180908
1766498327201,-0.90625,-0.34326172,0.2709961,0.0,-1.3427734,0.12207031,0.0,0.0,0.0,-50.493164,63.599854,-24.082031
1766498327289,-0.8955078,-0.33398438,0.28125,0.8544922,0.0,-0.30517578,0.0,0.0,0.0,-50.493164,63.599854,-24.082031
1766498327300,-0.8955078,-0.33398438,0.28125,0.8544922,0.0,-0.30517578,0.0,0.0,0.0,-50.498657,63.599854,-24.104004
1766498327389,-0.89990234,-0.33740234,0.27294922,-0.4272461,-0.30517578,0.061035156,0.0,0.0,0.0,-50.498657,63.599854,-24.104004
