timestamp,accX,accY,accZ,gyroX,gyroY,gyroZ,magX,magY,magZ,roll,pitch,yaw
1766497978263,-0.87939453,-0.36035156,0.3125,0.061035156,-0.48828125,0.061035156,0.0,0.0,0.0,-49.51538,61.309204,-26.295776
1766497978277,-0.87939453,-0.36035156,0.3125,0.061035156,-0.48828125,0.061035156,0.0,0.0,0.0,-49.432983,61.28723,-26.191406
1766497978363,-0.87939453,-0.36328125,0.30566406,0.7324219,0.91552734,-0.5493164,0.0,0.0,0.0,-49.432983,61.28723,-26.191406
1766497978374,-0.87939453,-0.36328125,0.30566406,0.7324219,0.91552734,-0.5493164,0.0,0.0,0.0,-49.361572,61.276245,-26.18042
1766497978462,-0.8779297,-0.36132812,0.3095703,0.18310547,0.12207031,-0.12207031,0.0,0.0,0.0,-49.361572,61.276245,-26.18042
1766497978473,-0.8779297,-0.36132812,0.3095703,0.18310547,0.12207031,-0.12207031,0.0,0.0,0.0,-49.405518,61.270752,-26.251831
1766497978562,-0.87841797,-0.3618164,0.30859375,-0.061035156,-0.36621094,0.12207031,0.0,0.0,0.0,-49.405518,61.270752,-26.251831
1766497978574,-0.87841797,-0.3618164,0.30859375,-0.061035156,-0.36621094,0.12207031,0.0,0.0,0.0,-49.361572,61.26526,-26.224365
1766497978661,-0.8798828,-0.3623047,0.3071289,0.0,0.18310547,0.0,0.0,0.0,0.0,-49.361572,61.26526,-26.224365
1766497978673,-0.8798828,-0.3623047,0.3071289,0.0,0.18310547,0.0,0.0,0.0,0.0,-49.367065,61.270752,-26.246338
1766497978762,-0.87109375,-0.36279297,0.30908203,0.8544922,0.6713867,-0.36621094,0.0,0.0,0.0,-49.367065,61.270752,-26.246338
1766497978772,-0.87109375,-0.36279297,0.30908203,0.8544922,0.6713867,-0.36621094,0.0,0.0,0.0,-49.41101,61.28723,-26.334229
1766497978861,-0.8808594,-0.36376953,0.3017578,-0.24414062,-0.18310547,0.18310547,0.0,0.0,0.0,-49.41101,61.28723,-26.334229
1766497978872,-0.8808594,-0.36376953,0.3017578,-0.24414062,-0.18310547,0.18310547,0.0,0.0,0.0,-49.32312,61.26526,-26.218872
1766497978960,-0.8769531,-0.35888672,0.31591797,0.36621094,-0.24414062,-0.18310547,0.0,0.0,0.0,-49.32312,61.26526,-26.218872
1766497978972,-0.8769531,-0.35888672,0.31591797,0.36621094,-0.24414062,-0.18310547,0.0,0.0,0.0,-49.361572,61.270752,-26.246338
1766497979060,-0.875,-0.35986328,0.30810547,-0.48828125,-0.4272461,0.12207031,0.0,0.0,0.0,-49.361572,61.270752,-26.246338
1766497979072,-0.875,-0.35986328,0.30810547,-0.48828125,-0.4272461,0.12207031,0.0,0.0,0.0,-49.35608,61.28174,-26.30127
1766497979160,-0.8803711,-0.36376953,0.3046875,0.0,-0.24414062,0.12207031,0.0,0.0,0.0,-49.35608,61.28174,-26.30127
1766497979172,-0.8803711,-0.36376953,0.3046875,0.0,-0.24414062,0.12207031,0.0,0.0,0.0,-49.23523,61.254272,-26.136475
1766497979260,-0.875,-0.35791016,0.3173828,-0.4272461,0.7324219,0.0,0.0,0.0,0.0,-49.23523,61.254272,-26.136475
1766497979271,-0.875,-0.35791016,0.3173828,-0.4272461,0.7324219,0.0,0.0,0.0,0.0,-49.32312,61.28174,-26.1969
1766497979359,-0.8857422,-0.36279297,0.31054688,-1.3427734,0.18310547,0.12207031,0.0,0.0,0.0,-49.32312,61.28174,-26.1969
1766497979371,-0.8857422,-0.36279297,0.31054688,-1.3427734,0.18310547,0.12207031,0.0,0.0,0.0,-49.400024,61.32019,-26.224365
1766497979459,-0.8852539,-0.36035156,0.31201172,-3.6010742,1.159668,-0.061035156,0.0,0.0,0.0,-49.400024,61.32019,-26.224365
1766497979470,-0.8852539,-0.36035156,0.31201172,-3.6010742,1.159668,-0.061035156,0.0,0.0,0.0,-49.801025,61.3916,-26.38916
1766497979559,-0.8955078,-0.37402344,0.3071289,-5.554199,1.7700195,-0.36621094,0.0,0.0,0.0,-49.801025,61.3916,-26.38916
1766497979570,-0.8955078,-0.37402344,0.3071289,-5.554199,1.7700195,-0.36621094,0.0,0.0,0.0,-50.333862,61.452026,-26.499023
1766497979659,-0.89404297,-0.38720703,0.30810547,-7.5683594,-3.3569336,-4.211426,0.0,0.0,0.0,-50.333862,61.452026,-26.499023
1766497979670,-0.89404297,-0.38720703,0.30810547,-7.5683594,-3.3569336,-4.211426,0.0,0.0,0.0,-51.13037,61.259766,-26.740723
1766497979758,-0.87646484,-0.3642578,0.30322266,-6.591797,-1.2817383,-9.70459,0.0,0.0,0.0,-51.13037,61.259766,-26.740723
1766497979770,-0.87646484,-0.3642578,0.30322266,-6.591797,-1.2817383,-9.70459,0.0,0.0,0.0,-52.19055,60.545654,-27.213135
1766497979858,-0.85253906,-0.39404297,0.2788086,-0.5493164,4.3945312,-8.666992,0.0,0.0,0.0,-52.19055,60.545654,-27.213135
1766497979869,-0.85253906,-0.39404297,0.2788086,-0.5493164,4.3945312,-8.666992,0.0,0.0,0.0,-53.684692,60.08423,-28.668823
1766497979958,-0.8354492,-0.42871094,0.28271484,-9.58252,5.1879883,-2.0141602,0.0,0.0,0.0,-53.684692,60.08423,-28.668823
1766497979969,-0.8354492,-0.42871094,0.28271484,-9.58252,5.1879883,-2.0141602,0.0,0.0,0.0,-55.06897,59.87549,-29.679565
1766497980057,-0.86376953,-0.42822266,0.2626953,-9.460449,-0.48828125,0.6713867,0.0,0.0,0.0,-55.06897,59.87549,-29.679565
1766497980069,-0.86376953,-0.42822266,0.2626953,-9.460449,-0.48828125,0.6713867,0.0,0.0,0.0,-56.348877,59.9469,-30.245361
1766497980157,-0.8618164,-0.42919922,0.25927734,-3.7841797,2.0141602,-4.0283203,0.0,0.0,0.0,-56.348877,59.9469,-30.245361
1766497980168,-0.8618164,-0.42919922,0.25927734,-3.7841797,2.0141602,-4.0283203,0.0,0.0,0.0,-57.43103,59.87549,-30.860596
1766497980257,-0.8432617,-0.43066406,0.24658203,-6.286621,1.7089844,2.380371,0.0,0.0,0.0,-57.43103,59.87549,-30.860596
1766497980268,-0.8432617,-0.43066406,0.24658203,-6.286621,1.7089844,2.380371,0.0,0.0,0.0,-58.21106,59.628296,-31.404419
1766497980357,-0.85791016,-0.4013672,0.25,-1.6479492,-4.9438477,7.507324,0.0,0.0,0.0,-58.21106,59.628296,-31.404419
1766497980368,-0.85791016,-0.4013672,0.25,-1.6479492,-4.9438477,7.507324,0.0,0.0,0.0,-58.183594,60.15564,-30.72876
1766497980456,-0.87158203,-0.4609375,0.25732422,0.4272461,9.155273,-0.48828125,0.0,0.0,0.0,-58.183594,60.15564,-30.72876
1766497980468,-0.87158203,-0.4609375,0.25732422,0.4272461,9.155273,-0.48828125,0.0,0.0,0.0,-57.409058,60.671997,-30.119019
1766497980556,-0.8725586,-0.37304688,0.27490234,-0.91552734,-14.038086,1.0986328,0.0,0.0,0.0,-57.409058,60.671997,-30.119019
1766497980567,-0.8725586,-0.37304688,0.27490234,-0.91552734,-14.038086,1.0986328,0.0,0.0,0.0,-58.10669,60.66101,-30.975952
1766497980656,-0.88134766,-0.41552734,0.23486328,4.5166016,7.9345703,-2.319336,0.0,0.0,0.0,-58.10669,60.66101,-30.975952
1766497980667,-0.88134766,-0.41552734,0.23486328,4.5166016,7.9345703,-2.319336,0.0,0.0,0.0,-56.898193,60.424805,-29.718018
1766497980755,-0.8833008,-0.40527344,0.26757812,0.7324219,-3.1738281,1.0986328,0.0,0.0,0.0,-56.898193,60.424805,-29.718018
1766497980767,-0.8833008,-0.40527344,0.26757812,0.7324219,-3.1738281,1.0986328,0.0,0.0,0.0,-57.161865,60.534668,-30.267334
1766497980855,-0.87060547,-0.41210938,0.26367188,-2.1362305,0.12207031,-0.061035156,0.0,0.0,0.0,-57.161865,60.534668,-30.267334
1766497980867,-0.87060547,-0.41210938,0.26367188,-2.1362305,0.12207031,-0.061035156,0.0,0.0,0.0,-57.156372,60.545654,-30.305786
1766497980955,-0.8720703,-0.39746094,0.2685547,0.36621094,-1.7089844,0.61035156,0.0,0.0,0.0,-57.156372,60.545654,-30.305786
1766497980966,-0.8720703,-0.39746094,0.2685547,0.36621094,-1.7089844,0.61035156,0.0,0.0,0.0,-57.052002,60.52368,-30.223389
1766497981054,-0.87353516,-0.41503906,0.2705078,1.3427734,0.36621094,-0.9765625,0.0,0.0,0.0,-57.052002,60.52368,-30.223389
1766497981066,-0.87353516,-0.41503906,0.2705078,1.3427734,0.36621094,-0.9765625,0.0,0.0,0.0,-56.931152,60.507202,-30.2948
1766497981154,-0.8691406,-0.4165039,0.2607422,-0.30517578,1.2817383,-1.3427734,0.0,0.0,0.0,-56.931152,60.507202,-30.2948
1766497981166,-0.8691406,-0.4165039,0.2607422,-0.30517578,1.2817383,-1.3427734,0.0,0.0,0.0,-56.975098,60.424805,-30.470581
1766497981254,-0.88183594,-0.42578125,0.24609375,-1.8920898,-0.48828125,-0.6713867,0.0,0.0,0.0,-56.975098,60.424805,-30.470581
1766497981266,-0.88183594,-0.42578125,0.24609375,-1.8920898,-0.48828125,-0.6713867,0.0,0.0,0.0,-57.200317,60.342407,-30.739746
1766497981354,-0.85839844,-0.40625,0.26708984,-1.953125,3.112793,0.9765625,0.0,0.0,0.0,-57.200317,60.342407,-30.739746
1766497981365,-0.85839844,-0.40625,0.26708984,-1.953125,3.112793,0.9765625,0.0,0.0,0.0,-57.74414,60.48523,-31.157227
1766497981453,-0.8803711,-0.41259766,0.24951172,-2.6245117,-2.5024414,2.8076172,0.0,0.0,0.0,-57.74414,60.48523,-31.157227
1766497981465,-0.8803711,-0.41259766,0.24951172,-2.6245117,-2.5024414,2.8076172,0.0,0.0,0.0,-57.612305,60.62256,-30.81665
1766497981553,-0.8676758,-0.4116211,0.25878906,2.5634766,5.554199,-2.0141602,0.0,0.0,0.0,-57.612305,60.62256,-30.81665
1766497981565,-0.8676758,-0.4116211,0.25878906,2.5634766,5.554199,-2.0141602,0.0,0.0,0.0,-58.04077,60.721436,-31.431885
1766497981653,-0.8779297,-0.42041016,0.23925781,-1.953125,1.0986328,-1.159668,0.0,0.0,0.0,-58.04077,60.721436,-31.431885
1766497981664,-0.8779297,-0.42041016,0.23925781,-1.953125,1.0986328,-1.159668,0.0,0.0,0.0,-58.562622,60.74341,-31.970215
1766497981752,-0.87841797,-0.42285156,0.24316406,-1.7700195,3.6010742,-0.061035156,0.0,0.0,0.0,-58.562622,60.74341,-31.970215
1766497981764,-0.87841797,-0.42285156,0.24316406,-1.7700195,3.6010742,-0.061035156,0.0,0.0,0.0,-59.386597,60.930176,-32.667847
1766497981852,-0.8774414,-0.421875,0.23583984,-0.61035156,3.8452148,-0.61035156,0.0,0.0,0.0,-59.386597,60.930176,-32.667847
1766497981864,-0.8774414,-0.421875,0.23583984,-0.61035156,3.8452148,-0.61035156,0.0,0.0,0.0,-60.012817,60.996094,-33.250122
1766497981952,-0.87939453,-0.4038086,0.23046875,1.5258789,2.319336,-1.2207031,0.0,0.0,0.0,-60.012817,60.996094,-33.250122
1766497981964,-0.87939453,-0.4038086,0.23046875,1.5258789,2.319336,-1.2207031,0.0,0.0,0.0,-60.430298,61.07849,-33.744507
1766497982052,-0.8725586,-0.4248047,0.23095703,2.1362305,3.8452148,-1.0986328,0.0,0.0,0.0,-60.430298,61.07849,-33.744507
1766497982063,-0.8725586,-0.4248047,0.23095703,2.1362305,3.8452148,-1.0986328,0.0,0.0,0.0,-60.979614,61.17737,-34.65088
1766497982151,-0.87890625,-0.41455078,0.23046875,0.0,2.6855469,-0.9765625,0.0,0.0,0.0,-60.979614,61.17737,-34.65088
1766497982163,-0.87890625,-0.41455078,0.23046875,0.0,2.6855469,-0.9765625,0.0,0.0,0.0,-61.226807,61.19934,-34.953003
1766497982251,-0.8852539,-0.4165039,0.23095703,0.4272461,-0.48828125,0.061035156,0.0,0.0,0.0,-61.226807,61.19934,-34.953003
1766497982263,-0.8852539,-0.4165039,0.23095703,0.4272461,-0.48828125,0.061035156,0.0,0.0,0.0,-61.40808,61.21582,-35.24414
1766497982351,-0.87841797,-0.4194336,0.21923828,-0.7324219,3.7841797,-0.4272461,0.0,0.0,0.0,-61.40808,61.21582,-35.24414
1766497982362,-0.87841797,-0.4194336,0.21923828,-0.7324219,3.7841797,-0.4272461,0.0,0.0,0.0,-61.463013,61.259766,-35.18921
1766497982451,-0.875,-0.42041016,0.22460938,-1.0986328,-3.3569336,0.5493164,0.0,0.0,0.0,-61.463013,61.259766,-35.18921
1766497982462,-0.875,-0.42041016,0.22460938,-1.0986328,-3.3569336,0.5493164,0.0,0.0,0.0,-61.638794,61.276245,-35.282593
1766497982550,-0.87939453,-0.4140625,0.22802734,0.5493164,0.36621094,0.24414062,0.0,0.0,0.0,-61.638794,61.276245,-35.282593
1766497982562,-0.87939453,-0.4140625,0.22802734,0.5493164,0.36621094,0.24414062,0.0,0.0,0.0,-61.446533,61.26526,-34.974976
1766497982650,-0.87939453,-0.42578125,0.21826172,0.48828125,0.0,-1.2207031,0.0,0.0,0.0,-61.446533,61.26526,-34.974976
1766497982661,-0.87939453,-0.42578125,0.21826172,0.48828125,0.0,-1.2207031,0.0,0.0,0.0,-61.24878,61.204834,-34.788208
1766497982750,-0.8774414,-0.4243164,0.22363281,-0.79345703,0.0,-0.24414062,0.0,0.0,0.0,-61.24878,61.204834,-34.788208
1766497982761,-0.8774414,-0.4243164,0.22363281,-0.79345703,0.0,-0.24414062,0.0,0.0,0.0,-61.402588,61.14441,-34.887085
1766497982849,-0.87158203,-0.41796875,0.22998047,-0.12207031,0.4272461,-0.18310547,0.0,0.0,0.0,-61.402588,61.14441,-34.887085
1766497982861,-0.87158203,-0.41796875,0.22998047,-0.12207031,0.4272461,-0.18310547,0.0,0.0,0.0,-61.539917,61.149902,-34.958496
1766497982949,-0.87841797,-0.42041016,0.22460938,-0.9765625,-0.12207031,0.48828125,0.0,0.0,0.0,-61.539917,61.149902,-34.958496
1766497982961,-0.87841797,-0.42041016,0.22460938,-0.9765625,-0.12207031,0.48828125,0.0,0.0,0.0,-61.506958,61.133423,-34.848633
1766497983049,-0.87890625,-0.41992188,0.2241211,-1.159668,-0.91552734,0.30517578,0.0,0.0,0.0,-61.506958,61.133423,-34.848633
1766497983060,-0.87890625,-0.41992188,0.2241211,-1.159668,-0.91552734,0.30517578,0.0,0.0,0.0,-61.52893,61.171875,-34.81018
1766497983149,-0.87646484,-0.42236328,0.22216797,-1.0986328,0.061035156,-0.18310547,0.0,0.0,0.0,-61.52893,61.171875,-34.81018
1766497983160,-0.87646484,-0.42236328,0.22216797,-1.0986328,0.061035156,-0.18310547,0.0,0.0,0.0,-61.468506,61.12793,-34.595947
1766497983248,-0.88183594,-0.41992188,0.22167969,0.24414062,-0.79345703,0.12207031,0.0,0.0,0.0,-61.468506,61.12793,-34.595947
1766497983260,-0.88183594,-0.41992188,0.22167969,0.24414062,-0.79345703,0.12207031,0.0,0.0,0.0,-61.468506,61.12793,-34.524536
1766497983348,-0.87353516,-0.42236328,0.23144531,-0.18310547,1.7089844,-0.30517578,0.0,0.0,0.0,-61.468506,61.12793,-34.524536
1766497983359,-0.87353516,-0.42236328,0.23144531,-0.18310547,1.7089844,-0.30517578,0.0,0.0,0.0,-61.627808,61.155396,-34.700317
1766497983448,-0.88134766,-0.42285156,0.21923828,-0.12207031,0.8544922,-0.5493164,0.0,0.0,0.0,-61.627808,61.155396,-34.700317
1766497983459,-0.88134766,-0.42285156,0.21923828,-0.12207031,0.8544922,-0.5493164,0.0,0.0,0.0,-61.60034,61.138916,-34.579468
1766497983547,-0.8857422,-0.4321289,0.22998047,-1.5258789,1.4038086,0.12207031,0.0,0.0,0.0,-61.60034,61.138916,-34.579468
1766497983559,-0.8857422,-0.4321289,0.22998047,-1.5258789,1.4038086,0.12207031,0.0,0.0,0.0,-61.99585,61.18286,-34.94751
1766497983647,-0.86376953,-0.42089844,0.20703125,-0.79345703,1.7089844,0.061035156,0.0,0.0,0.0,-61.99585,61.18286,-34.94751
1766497983659,-0.86376953,-0.42089844,0.20703125,-0.79345703,1.7089844,0.061035156,0.0,0.0,0.0,-62.5177,61.28174,-35.337524
1766497983747,-0.8901367,-0.41601562,0.21484375,5.6762695,5.3100586,0.0,0.0,0.0,0.0,-62.5177,61.28174,-35.337524
1766497983759,-0.8901367,-0.41601562,0.21484375,5.6762695,5.3100586,0.0,0.0,0.0,0.0,-62.63855,61.3916,-35.628662
1766497983847,-0.8730469,-0.42285156,0.21142578,3.7231445,3.8452148,-0.18310547,0.0,0.0,0.0,-62.63855,61.3916,-35.628662
1766497983858,-0.8730469,-0.42285156,0.21142578,3.7231445,3.8452148,-0.18310547,0.0,0.0,0.0,-63.00659,61.655273,-36.47461
1766497983946,-0.8701172,-0.44091797,0.19921875,-0.4272461,-0.5493164,-0.5493164,0.0,0.0,0.0,-63.00659,61.655273,-36.47461
1766497983958,-0.8701172,-0.44091797,0.19921875,-0.4272461,-0.5493164,-0.5493164,0.0,0.0,0.0,-63.396606,61.660767,-37.128296
1766497984046,-0.8901367,-0.4008789,0.20947266,-1.8920898,0.0,1.4648438,0.0,0.0,0.0,-63.396606,61.660767,-37.128296
1766497984058,-0.8901367,-0.4008789,0.20947266,-1.8920898,0.0,1.4648438,0.0,0.0,0.0,-63.616333,61.732178,-36.936035
1766497984146,-0.89697266,-0.41503906,0.20117188,2.6245117,3.8452148,-0.48828125,0.0,0.0,0.0,-63.616333,61.732178,-36.936035
1766497984157,-0.89697266,-0.41503906,0.20117188,2.6245117,3.8452148,-0.48828125,0.0,0.0,0.0,-63.391113,61.89148,-36.661377
1766497984245,-0.87597656,-0.42285156,0.20703125,2.0751953,-0.48828125,0.48828125,0.0,0.0,0.0,-63.391113,61.89148,-36.661377
1766497984257,-0.87597656,-0.42285156,0.20703125,2.0751953,-0.48828125,0.48828125,0.0,0.0,0.0,-63.676758,61.957397,-37.298584
1766497984345,-0.8930664,-0.41259766,0.1977539,-0.91552734,-0.8544922,0.0,0.0,0.0,0.0,-63.676758,61.957397,-37.298584
1766497984357,-0.8930664,-0.41259766,0.1977539,-0.91552734,-0.8544922,0.0,0.0,0.0,0.0,-63.31421,61.951904,-36.83716
1766497984445,-0.8779297,-0.4116211,0.20898438,-0.4272461,0.0,1.2817383,0.0,0.0,0.0,-63.31421,61.951904,-36.83716
1766497984456,-0.8779297,-0.4116211,0.20898438,-0.4272461,0.0,1.2817383,0.0,0.0,0.0,-63.43506,62.001343,-36.853638
1766497984545,-0.8886719,-0.40625,0.2006836,2.0751953,1.5258789,-0.79345703,0.0,0.0,0.0,-63.43506,62.001343,-36.853638
1766497984557,-0.8886719,-0.40625,0.2006836,2.0751953,1.5258789,-0.79345703,0.0,0.0,0.0,-63.10547,62.01233,-36.480103
1766497984644,-0.8798828,-0.42333984,0.21142578,-0.36621094,-1.0986328,0.18310547,0.0,0.0,0.0,-63.10547,62.01233,-36.480103
1766497984656,-0.8798828,-0.42333984,0.21142578,-0.36621094,-1.0986328,0.18310547,0.0,0.0,0.0,-63.17688,62.045288,-36.694336
1766497984744,-0.8979492,-0.39892578,0.2265625,1.5869141,0.36621094,0.79345703,0.0,0.0,0.0,-63.17688,62.045288,-36.694336
1766497984755,-0.8979492,-0.39892578,0.2265625,1.5869141,0.36621094,0.79345703,0.0,0.0,0.0,-62.946167,62.023315,-36.359253
1766497984844,-0.8935547,-0.41845703,0.20507812,0.4272461,1.0986328,0.30517578,0.0,0.0,0.0,-62.946167,62.023315,-36.359253
1766497984855,-0.8935547,-0.41845703,0.20507812,0.4272461,1.0986328,0.30517578,0.0,0.0,0.0,-62.314453,62.061768,-35.859375
1766497984943,-0.87109375,-0.4272461,0.21826172,0.0,-1.5869141,0.6713867,0.0,0.0,0.0,-62.314453,62.061768,-35.859375
1766497984955,-0.87109375,-0.4272461,0.21826172,0.0,-1.5869141,0.6713867,0.0,0.0,0.0,-62.556152,62.14966,-36.23291
1766497985044,-0.88720703,-0.39404297,0.20800781,1.0375977,2.5024414,-0.79345703,0.0,0.0,0.0,-62.556152,62.14966,-36.23291
1766497985055,-0.88720703,-0.39404297,0.20800781,1.0375977,2.5024414,-0.79345703,0.0,0.0,0.0,-62.15515,62.111206,-35.700073
1766497985143,-0.88916016,-0.41308594,0.21777344,0.6713867,-2.2583008,0.79345703,0.0,0.0,0.0,-62.15515,62.111206,-35.700073
1766497985154,-0.88916016,-0.41308594,0.21777344,0.6713867,-2.2583008,0.79345703,0.0,0.0,0.0,-62.265015,62.105713,-35.88684
1766497985243,-0.890625,-0.4091797,0.21533203,-1.2817383,-0.30517578,0.0,0.0,0.0,0.0,-62.265015,62.105713,-35.88684
1766497985254,-0.890625,-0.4091797,0.21533203,-1.2817383,-0.30517578,0.0,0.0,0.0,0.0,-62.06726,62.10022,-35.507812
1766497985342,-0.88427734,-0.40966797,0.2211914,1.7089844,1.7089844,-0.7324219,0.0,0.0,0.0,-62.06726,62.10022,-35.507812
1766497985354,-0.88427734,-0.40966797,0.2211914,1.7089844,1.7089844,-0.7324219,0.0,0.0,0.0,-62.23755,62.0343,-35.71106
1766497985442,-0.8833008,-0.41357422,0.2133789,-0.8544922,-0.4272461,0.61035156,0.0,0.0,0.0,-62.23755,62.0343,-35.71106
1766497985454,-0.8833008,-0.41357422,0.2133789,-0.8544922,-0.4272461,0.61035156,0.0,0.0,0.0,-62.061768,62.078247,-35.447388
1766497985542,-0.8852539,-0.41064453,0.22167969,-0.8544922,-0.36621094,0.61035156,0.0,0.0,0.0,-62.061768,62.078247,-35.447388
1766497985553,-0.8852539,-0.41064453,0.22167969,-0.8544922,-0.36621094,0.61035156,0.0,0.0,0.0,-62.08374,62.089233,-35.39795
1766497985641,-0.8847656,-0.40283203,0.22460938,1.7700195,0.12207031,-1.7089844,0.0,0.0,0.0,-62.08374,62.089233,-35.39795
1766497985653,-0.8847656,-0.40283203,0.22460938,1.7700195,0.12207031,-1.7089844,0.0,0.0,0.0,-62.023315,62.05078,-35.38147
1766497985741,-0.8857422,-0.4013672,0.21679688,-2.1362305,-0.36621094,1.4648438,0.0,0.0,0.0,-62.023315,62.05078,-35.38147
1766497985753,-0.8857422,-0.4013672,0.21679688,-2.1362305,-0.36621094,1.4648438,0.0,0.0,0.0,-61.759644,62.061768,-34.974976
1766497985841,-0.8779297,-0.41455078,0.21582031,2.5634766,1.0986328,-1.6479492,0.0,0.0,0.0,-61.759644,62.061768,-34.974976
1766497985852,-0.8779297,-0.41455078,0.21582031,2.5634766,1.0986328,-1.6479492,0.0,0.0,0.0,-61.732178,62.0343,-35.05188
1766497985941,-0.8886719,-0.4033203,0.2133789,2.6245117,1.4648438,-0.30517578,0.0,0.0,0.0,-61.732178,62.0343,-35.05188
1766497985952,-0.8886719,-0.4033203,0.2133789,2.6245117,1.4648438,-0.30517578,0.0,0.0,0.0,-61.627808,61.97937,-35.134277
1766497986040,-0.8886719,-0.4189453,0.22705078,1.2817383,0.91552734,-1.8310547,0.0,0.0,0.0,-61.627808,61.97937,-35.134277
1766497986052,-0.8886719,-0.4189453,0.22705078,1.2817383,0.91552734,-1.8310547,0.0,0.0,0.0,-61.869507,61.92444,-35.546265
1766497986140,-0.88916016,-0.41308594,0.21728516,0.48828125,0.61035156,-1.0375977,0.0,0.0,0.0,-61.869507,61.92444,-35.546265
1766497986151,-0.88916016,-0.41308594,0.21728516,0.48828125,0.61035156,-1.0375977,0.0,0.0,0.0,-61.97937,61.869507,-35.705566
1766497986240,-0.8769531,-0.40722656,0.21533203,0.91552734,1.2817383,-0.4272461,0.0,0.0,0.0,-61.97937,61.869507,-35.705566
1766497986251,-0.8769531,-0.40722656,0.21533203,0.91552734,1.2817383,-0.4272461,0.0,0.0,0.0,-62.061768,61.864014,-35.84839
1766497986339,-0.89501953,-0.4091797,0.203125,-5.92041,-6.591797,0.61035156,0.0,0.0,0.0,-62.061768,61.864014,-35.84839
1766497986351,-0.89501953,-0.4091797,0.203125,-5.92041,-6.591797,0.61035156,0.0,0.0,0.0,-61.660767,61.644287,-34.96399
1766497986439,-0.8691406,-0.41992188,0.2368164,4.272461,2.1362305,-7.019043,0.0,0.0,0.0,-61.660767,61.644287,-34.96399
1766497986451,-0.8691406,-0.41992188,0.2368164,4.272461,2.1362305,-7.019043,0.0,0.0,0.0,-61.84204,61.375122,-35.112305
1766497986539,-0.8852539,-0.43603516,0.23388672,-2.1362305,-4.699707,0.12207031,0.0,0.0,0.0,-61.84204,61.375122,-35.112305
1766497986551,-0.8852539,-0.43603516,0.23388672,-2.1362305,-4.699707,0.12207031,0.0,0.0,0.0,-61.831055,60.897217,-35.128784
1766497986639,-0.8803711,-0.40625,0.22998047,1.2817383,4.3945312,-0.24414062,0.0,0.0,0.0,-61.831055,60.897217,-35.128784
1766497986651,-0.8803711,-0.40625,0.22998047,1.2817383,4.3945312,-0.24414062,0.0,0.0,0.0,-61.66626,60.9906,-34.75525
1766497986738,-0.87158203,-0.44091797,0.21289062,0.4272461,1.6479492,-0.24414062,0.0,0.0,0.0,-61.66626,60.9906,-34.75525
1766497986750,-0.87158203,-0.44091797,0.21289062,0.4272461,1.6479492,-0.24414062,0.0,0.0,0.0,-62.0343,61.072998,-35.4364
1766497986838,-0.8730469,-0.41796875,0.2265625,-1.6479492,-1.0986328,0.61035156,0.0,0.0,0.0,-62.0343,61.072998,-35.4364
1766497986850,-0.8730469,-0.41796875,0.2265625,-1.6479492,-1.0986328,0.61035156,0.0,0.0,0.0,-62.18811,61.133423,-35.359497
1766497986938,-0.88134766,-0.42285156,0.2211914,0.48828125,0.4272461,-0.18310547,0.0,0.0,0.0,-62.18811,61.133423,-35.359497
1766497986949,-0.88134766,-0.42285156,0.2211914,0.48828125,0.4272461,-0.18310547,0.0,0.0,0.0,-62.182617,61.116943,-35.321045
1766497987037,-0.87402344,-0.42382812,0.2241211,-0.5493164,0.5493164,0.18310547,0.0,0.0,0.0,-62.182617,61.116943,-35.321045
1766497987049,-0.87402344,-0.42382812,0.2241211,-0.5493164,0.5493164,0.18310547,0.0,0.0,0.0,-62.32544,61.155396,-35.4364
1766497987137,-0.87890625,-0.42529297,0.2211914,0.18310547,0.24414062,-0.36621094,0.0,0.0,0.0,-62.32544,61.155396,-35.4364
1766497987149,-0.87890625,-0.42529297,0.2211914,0.18310547,0.24414062,-0.36621094,0.0,0.0,0.0,-62.29248,61.16638,-35.321045
1766497987237,-0.87841797,-0.42578125,0.22216797,1.2817383,-0.4272461,-0.48828125,0.0,0.0,0.0,-62.29248,61.16638,-35.321045
1766497987248,-0.87841797,-0.42578125,0.22216797,1.2817383,-0.4272461,-0.48828125,0.0,0.0,0.0,-62.330933,61.149902,-35.33203
1766497987337,-0.8847656,-0.43017578,0.2163086,1.2207031,1.5869141,-0.8544922,0.0,0.0,0.0,-62.330933,61.149902,-35.33203
1766497987348,-0.8847656,-0.43017578,0.2163086,1.2207031,1.5869141,-0.8544922,0.0,0.0,0.0,-62.440796,61.12793,-35.546265
1766497987436,-0.8754883,-0.42041016,0.23046875,0.79345703,2.0751953,-0.61035156,0.0,0.0,0.0,-62.440796,61.12793,-35.546265
1766497987448,-0.8754883,-0.42041016,0.23046875,0.79345703,2.0751953,-0.61035156,0.0,0.0,0.0,-62.74292,61.16089,-35.859375
1766497987536,-0.87353516,-0.43066406,0.21972656,2.4414062,1.2817383,-0.8544922,0.0,0.0,0.0,-62.74292,61.16089,-35.859375
1766497987547,-0.87353516,-0.43066406,0.21972656,2.4414062,1.2817383,-0.8544922,0.0,0.0,0.0,-62.63855,61.133423,-35.892334
1766497987636,-0.8803711,-0.42529297,0.21679688,1.0375977,-2.0141602,-0.7324219,0.0,0.0,0.0,-62.63855,61.133423,-35.892334
1766497987647,-0.8803711,-0.42529297,0.21679688,1.0375977,-2.0141602,-0.7324219,0.0,0.0,0.0,-62.46826,61.012573,-35.83191
1766497987735,-0.87597656,-0.4296875,0.21533203,-0.5493164,1.8920898,-0.9765625,0.0,0.0,0.0,-62.46826,61.012573,-35.83191
1766497987747,-0.87597656,-0.4296875,0.21533203,-0.5493164,1.8920898,-0.9765625,0.0,0.0,0.0,-62.65503,60.97412,-36.11206
1766497987835,-0.8691406,-0.41015625,0.22021484,2.746582,1.7089844,-0.79345703,0.0,0.0,0.0,-62.65503,60.97412,-36.11206
1766497987847,-0.8691406,-0.41015625,0.22021484,2.746582,1.7089844,-0.79345703,0.0,0.0,0.0,-62.885742,60.897217,-36.540527
1766497987935,-0.86865234,-0.4428711,0.22460938,1.6479492,-1.5258789,-0.5493164,0.0,0.0,0.0,-62.885742,60.897217,-36.540527
1766497987947,-0.86865234,-0.4428711,0.22460938,1.6479492,-1.5258789,-0.5493164,0.0,0.0,0.0,-62.68799,60.88623,-36.5625
1766497988035,-0.8847656,-0.42285156,0.22070312,-0.9765625,1.8310547,0.7324219,0.0,0.0,0.0,-62.68799,60.88623,-36.5625
1766497988046,-0.8847656,-0.42285156,0.22070312,-0.9765625,1.8310547,0.7324219,0.0,0.0,0.0,-62.528687,60.864258,-36.28235
1766497988134,-0.87158203,-0.42578125,0.23095703,0.9765625,0.30517578,-0.36621094,0.0,0.0,0.0,-62.528687,60.864258,-36.28235
1766497988146,-0.87158203,-0.42578125,0.23095703,0.9765625,0.30517578,-0.36621094,0.0,0.0,0.0,-62.748413,60.941162,-36.502075
1766497988234,-0.8769531,-0.42138672,0.22363281,-0.30517578,2.5024414,-0.061035156,0.0,0.0,0.0,-62.748413,60.941162,-36.502075
1766497988246,-0.8769531,-0.42138672,0.22363281,-0.30517578,2.5024414,-0.061035156,0.0,0.0,0.0,-62.556152,60.913696,-36.194458
1766497988334,-0.8779297,-0.4345703,0.2163086,-0.12207031,-0.8544922,0.18310547,0.0,0.0,0.0,-62.556152,60.913696,-36.194458
1766497988346,-0.8779297,-0.4345703,0.2163086,-0.12207031,-0.8544922,0.18310547,0.0,0.0,0.0,-62.62207,60.941162,-36.28784
1766497988434,-0.87646484,-0.43554688,0.2319336,-2.5024414,0.7324219,0.18310547,0.0,0.0,0.0,-62.62207,60.941162,-36.28784
1766497988445,-0.87646484,-0.43554688,0.2319336,-2.5024414,0.7324219,0.18310547,0.0,0.0,0.0,-62.90222,60.985107,-36.419678
1766497988533,-0.8881836,-0.43847656,0.22314453,-3.2958984,3.112793,1.4038086,0.0,0.0,0.0,-62.90222,60.985107,-36.419678
1766497988545,-0.8881836,-0.43847656,0.22314453,-3.2958984,3.112793,1.4038086,0.0,0.0,0.0,-63.045044,61.018066,-36.205444
1766497988633,-0.88183594,-0.41357422,0.20751953,-0.7324219,-2.2583008,4.638672,0.0,0.0,0.0,-63.045044,61.018066,-36.205444
1766497988645,-0.88183594,-0.41357422,0.20751953,-0.7324219,-2.2583008,4.638672,0.0,0.0,0.0,-63.220825,61.33667,-36.14502
1766497988733,-0.87158203,-0.42871094,0.21679688,4.8217773,5.3100586,-1.159668,0.0,0.0,0.0,-63.220825,61.33667,-36.14502
1766497988745,-0.87158203,-0.42871094,0.21679688,4.8217773,5.3100586,-1.159668,0.0,0.0,0.0,-63.116455,61.54541,-36.326294
1766497988832,-0.86572266,-0.42529297,0.20703125,0.9765625,-1.4648438,-1.7089844,0.0,0.0,0.0,-63.116455,61.54541,-36.326294
1766497988844,-0.86572266,-0.42529297,0.20703125,0.9765625,-1.4648438,-1.7089844,0.0,0.0,0.0,-62.852783,61.419067,-36.33728
1766497988933,-0.8857422,-0.41210938,0.24169922,-0.4272461,-1.159668,0.5493164,0.0,0.0,0.0,-62.852783,61.419067,-36.33728
1766497988944,-0.8857422,-0.41210938,0.24169922,-0.4272461,-1.159668,0.5493164,0.0,0.0,0.0,-63.347168,61.380615,-36.853638
1766497989032,-0.88623047,-0.4267578,0.2055664,0.30517578,5.004883,-0.6713867,0.0,0.0,0.0,-63.347168,61.380615,-36.853638
1766497989044,-0.88623047,-0.4267578,0.2055664,0.30517578,5.004883,-0.6713867,0.0,0.0,0.0,-62.616577,61.30371,-36.018677
1766497989132,-0.8833008,-0.41748047,0.2133789,-0.30517578,-4.211426,0.8544922,0.0,0.0,0.0,-62.616577,61.30371,-36.018677
1766497989143,-0.8833008,-0.41748047,0.2133789,-0.30517578,-4.211426,0.8544922,0.0,0.0,0.0,-62.990112,61.325684,-36.381226
1766497989231,-0.8652344,-0.42285156,0.22167969,0.30517578,3.2958984,1.3427734,0.0,0.0,0.0,-62.990112,61.325684,-36.381226
1766497989243,-0.8652344,-0.42285156,0.22167969,0.30517578,3.2958984,1.3427734,0.0,0.0,0.0,-63.0011,61.40808,-36.315308
1766497989331,-0.89501953,-0.41259766,0.2055664,-0.5493164,-0.4272461,0.7324219,0.0,0.0,0.0,-63.0011,61.40808,-36.315308
1766497989342,-0.89501953,-0.41259766,0.2055664,-0.5493164,-0.4272461,0.7324219,0.0,0.0,0.0,-62.63855,61.57837,-35.6781
1766497989431,-0.8676758,-0.43896484,0.2290039,-2.319336,-0.5493164,0.6713867,0.0,0.0,0.0,-62.63855,61.57837,-35.6781
1766497989442,-0.8676758,-0.43896484,0.2290039,-2.319336,-0.5493164,0.6713867,0.0,0.0,0.0,-62.913208,61.644287,-35.842896
1766497989530,-0.8857422,-0.40478516,0.203125,-1.8920898,-3.6010742,-0.18310547,0.0,0.0,0.0,-62.913208,61.644287,-35.842896
1766497989542,-0.8857422,-0.40478516,0.203125,-1.8920898,-3.6010742,-0.18310547,0.0,0.0,0.0,-62.56714,61.484985,-35.117798
1766497989630,-0.86865234,-0.4399414,0.22802734,-2.9907227,-0.8544922,-0.6713867,0.0,0.0,0.0,-62.56714,61.484985,-35.117798
1766497989642,-0.86865234,-0.4399414,0.22802734,-2.9907227,-0.8544922,-0.6713867,0.0,0.0,0.0,-62.957153,61.506958,-35.26062
1766497989730,-0.87402344,-0.40966797,0.21191406,3.8452148,3.1738281,-0.61035156,0.0,0.0,0.0,-62.957153,61.506958,-35.26062
1766497989742,-0.87402344,-0.40966797,0.21191406,3.8452148,3.1738281,-0.61035156,0.0,0.0,0.0,-62.352905,61.375122,-34.595947
1766497989830,-0.8823242,-0.4321289,0.20605469,1.0986328,-4.5776367,-0.24414062,0.0,0.0,0.0,-62.352905,61.375122,-34.595947
1766497989841,-0.8823242,-0.4321289,0.20605469,1.0986328,-4.5776367,-0.24414062,0.0,0.0,0.0,-61.99585,61.309204,-34.469604
1766497989929,-0.875,-0.4296875,0.23876953,-2.5634766,-2.0751953,0.4272461,0.0,0.0,0.0,-61.99585,61.309204,-34.469604
1766497989941,-0.875,-0.4296875,0.23876953,-2.5634766,-2.0751953,0.4272461,0.0,0.0,0.0,-62.248535,61.30371,-34.72229
1766497990029,-0.8930664,-0.4189453,0.21435547,0.061035156,1.8310547,-1.0375977,0.0,0.0,0.0,-62.248535,61.30371,-34.72229
1766497990041,-0.8930664,-0.4189453,0.21435547,0.061035156,1.8310547,-1.0375977,0.0,0.0,0.0,-62.105713,61.18286,-34.524536
1766497990129,-0.87158203,-0.4272461,0.21972656,0.9765625,-1.2817383,1.4648438,0.0,0.0,0.0,-62.105713,61.18286,-34.524536
1766497990140,-0.87158203,-0.4272461,0.21972656,0.9765625,-1.2817383,1.4648438,0.0,0.0,0.0,-62.078247,61.21582,-34.573975
1766497990229,-0.8745117,-0.42089844,0.234375,2.5634766,-0.36621094,-2.6245117,0.0,0.0,0.0,-62.078247,61.21582,-34.573975
1766497990240,-0.8745117,-0.42089844,0.234375,2.5634766,-0.36621094,-2.6245117,0.0,0.0,0.0,-62.089233,61.210327,-34.628906
1766497990328,-0.8701172,-0.4243164,0.234375,1.4648438,-2.0141602,0.7324219,0.0,0.0,0.0,-62.089233,61.210327,-34.628906
1766497990340,-0.8701172,-0.4243164,0.234375,1.4648438,-2.0141602,0.7324219,0.0,0.0,0.0,-62.3584,60.9906,-35.343018
1766497990428,-0.9135742,-0.39208984,0.2265625,4.9438477,0.30517578,1.6479492,0.0,0.0,0.0,-62.3584,60.9906,-35.343018
1766497990439,-0.9135742,-0.39208984,0.2265625,4.9438477,0.30517578,1.6479492,0.0,0.0,0.0,-61.24878,60.95764,-34.381714
1766497990528,-0.8520508,-0.45117188,0.2241211,-2.8686523,-2.1972656,3.9672852,0.0,0.0,0.0,-61.24878,60.95764,-34.381714
1766497990539,-0.8520508,-0.45117188,0.2241211,-2.8686523,-2.1972656,3.9672852,0.0,0.0,0.0,-61.342163,61.413574,-34.760742
1766497990627,-0.90625,-0.39941406,0.22607422,-1.4648438,-5.432129,2.5634766,0.0,0.0,0.0,-61.342163,61.413574,-34.760742
1766497990639,-0.90625,-0.39941406,0.22607422,-1.4648438,-5.432129,2.5634766,0.0,0.0,0.0,-60.62256,61.51245,-33.327026
1766497990727,-0.8671875,-0.39160156,0.24511719,6.591797,1.8310547,-3.3569336,0.0,0.0,0.0,-60.62256,61.51245,-33.327026
1766497990739,-0.8671875,-0.39160156,0.24511719,6.591797,1.8310547,-3.3569336,0.0,0.0,0.0,-60.281982,61.45752,-33.255615
1766497990827,-0.87597656,-0.43652344,0.23242188,0.8544922,2.319336,-5.126953,0.0,0.0,0.0,-60.281982,61.45752,-33.255615
1766497990838,-0.87597656,-0.43652344,0.23242188,0.8544922,2.319336,-5.126953,0.0,0.0,0.0,-60.062256,61.051025,-33.55774
1766497990927,-0.8652344,-0.42626953,0.23876953,-3.3569336,-6.4086914,1.8920898,0.0,0.0,0.0,-60.062256,61.051025,-33.55774
1766497990939,-0.8652344,-0.42626953,0.23876953,-3.3569336,-6.4086914,1.8920898,0.0,0.0,0.0,-60.161133,60.891724,-33.43689
1766497991026,-0.88720703,-0.40429688,0.24511719,-4.333496,0.12207031,2.6855469,0.0,0.0,0.0,-60.161133,60.891724,-33.43689
1766497991039,-0.88720703,-0.40429688,0.24511719,-4.333496,0.12207031,2.6855469,0.0,0.0,0.0,-59.990845,60.979614,-32.662354
1766497991126,-0.8720703,-0.41845703,0.23583984,-0.18310547,0.79345703,-0.61035156,0.0,0.0,0.0,-59.990845,60.979614,-32.662354
1766497991138,-0.8720703,-0.41845703,0.23583984,-0.18310547,0.79345703,-0.61035156,0.0,0.0,0.0,-59.97986,60.9906,-32.51953
1766497991226,-0.86865234,-0.42871094,0.24853516,-1.7089844,-1.2817383,-1.0986328,0.0,0.0,0.0,-59.97986,60.9906,-32.51953
1766497991237,-0.86865234,-0.42871094,0.24853516,-1.7089844,-1.2817383,-1.0986328,0.0,0.0,0.0,-60.144653,60.90271,-32.6239
1766497991325,-0.87939453,-0.40429688,0.25195312,-3.112793,-2.1362305,0.061035156,0.0,0.0,0.0,-60.144653,60.90271,-32.6239
1766497991337,-0.87939453,-0.40429688,0.25195312,-3.112793,-2.1362305,0.061035156,0.0,0.0,0.0,-60.06775,60.73242,-32.349243
1766497991425,-0.87353516,-0.41064453,0.23046875,-1.8920898,-3.4179688,1.953125,0.0,0.0,0.0,-60.06775,60.73242,-32.349243
1766497991437,-0.87353516,-0.41064453,0.23046875,-1.8920898,-3.4179688,1.953125,0.0,0.0,0.0,-59.67224,60.617065,-31.898804
1766497991525,-0.88427734,-0.4326172,0.24658203,-3.7231445,0.18310547,2.380371,0.0,0.0,0.0,-59.67224,60.617065,-31.898804
1766497991536,-0.88427734,-0.4326172,0.24658203,-3.7231445,0.18310547,2.380371,0.0,0.0,0.0,-59.51294,60.91919,-31.393433
1766497991624,-0.8881836,-0.40478516,0.2397461,2.8686523,1.0375977,-2.2583008,0.0,0.0,0.0,-59.51294,60.91919,-31.393433
1766497991636,-0.8881836,-0.40478516,0.2397461,2.8686523,1.0375977,-2.2583008,0.0,0.0,0.0,-59.44702,60.803833,-31.497803
1766497991724,-0.85302734,-0.43896484,0.25341797,0.12207031,-0.36621094,-3.90625,0.0,0.0,0.0,-59.44702,60.803833,-31.497803
1766497991736,-0.85302734,-0.43896484,0.25341797,0.12207031,-0.36621094,-3.90625,0.0,0.0,0.0,-60.056763,60.655518,-32.53601
1766497991824,-0.8730469,-0.42822266,0.23925781,-1.0986328,0.061035156,-0.9765625,0.0,0.0,0.0,-60.056763,60.655518,-32.53601
1766497991835,-0.8730469,-0.42822266,0.23925781,-1.0986328,0.061035156,-0.9765625,0.0,0.0,0.0,-59.996338,60.358887,-32.32727
1766497991924,-0.87646484,-0.42382812,0.24169922,1.7089844,-0.36621094,-0.12207031,0.0,0.0,0.0,-59.996338,60.358887,-32.32727
1766497991936,-0.87646484,-0.42382812,0.24169922,1.7089844,-0.36621094,-0.12207031,0.0,0.0,0.0,-59.996338,60.31494,-32.32727
1766497992023,-0.8754883,-0.41796875,0.24169922,7.3242188,-0.61035156,0.6713867,0.0,0.0,0.0,-59.996338,60.31494,-32.32727
1766497992035,-0.8754883,-0.41796875,0.24169922,7.3242188,-0.61035156,0.6713867,0.0,0.0,0.0,-59.28772,60.221558,-32.173462
1766497992123,-0.86816406,-0.41748047,0.24511719,9.338379,1.4038086,4.333496,0.0,0.0,0.0,-59.28772,60.221558,-32.173462
1766497992135,-0.86816406,-0.41748047,0.24511719,9.338379,1.4038086,4.333496,0.0,0.0,0.0,-58.112183,60.529175,-31.887817
1766497992223,-0.83154297,-0.41357422,0.2680664,3.6621094,-3.112793,1.2207031,0.0,0.0,0.0,-58.112183,60.529175,-31.887817
1766497992234,-0.83154297,-0.41357422,0.2680664,3.6621094,-3.112793,1.2207031,0.0,0.0,0.0,-57.7771,60.93567,-31.915283
1766497992322,-0.890625,-0.3876953,0.2265625,7.080078,-1.7089844,7.385254,0.0,0.0,0.0,-57.7771,60.93567,-31.915283
1766497992334,-0.890625,-0.3876953,0.2265625,7.080078,-1.7089844,7.385254,0.0,0.0,0.0,-55.200806,60.770874,-29.498291
1766497992422,-0.8691406,-0.40039062,0.3100586,7.8125,2.380371,1.2817383,0.0,0.0,0.0,-55.200806,60.770874,-29.498291
1766497992434,-0.8691406,-0.40039062,0.3100586,7.8125,2.380371,1.2817383,0.0,0.0,0.0,-55.184326,61.605835,-30.26184
1766497992522,-0.8881836,-0.3959961,0.2475586,-1.0375977,5.92041,1.2207031,0.0,0.0,0.0,-55.184326,61.605835,-30.26184
1766497992534,-0.8881836,-0.3959961,0.2475586,-1.0375977,5.92041,1.2207031,0.0,0.0,0.0,-54.783325,61.638794,-30.162964
1766497992622,-0.8955078,-0.36621094,0.28808594,-2.319336,2.8686523,2.2583008,0.0,0.0,0.0,-54.783325,61.638794,-30.162964
1766497992633,-0.8955078,-0.36621094,0.28808594,-2.319336,2.8686523,2.2583008,0.0,0.0,0.0,-55.755615,62.127686,-30.95398
1766497992721,-0.8955078,-0.3803711,0.27392578,-2.9296875,0.61035156,2.4414062,0.0,0.0,0.0,-55.755615,62.127686,-30.95398
1766497992733,-0.8955078,-0.3803711,0.27392578,-2.9296875,0.61035156,2.4414062,0.0,0.0,0.0,-55.964355,62.479248,-30.964966
1766497992821,-0.89453125,-0.38330078,0.25195312,-0.4272461,0.7324219,0.4272461,0.0,0.0,0.0,-55.964355,62.479248,-30.964966
1766497992833,-0.89453125,-0.38330078,0.25195312,-0.4272461,0.7324219,0.4272461,0.0,0.0,0.0,-55.821533,62.56714,-30.569458
1766497992921,-0.88964844,-0.37451172,0.25585938,1.5258789,1.6479492,-1.5258789,0.0,0.0,0.0,-55.821533,62.56714,-30.569458
1766497992933,-0.88964844,-0.37451172,0.25585938,1.5258789,1.6479492,-1.5258789,0.0,0.0,0.0,-56.068726,62.56714,-30.904541
1766497993021,-0.8857422,-0.37890625,0.25439453,1.5258789,2.380371,-2.0141602,0.0,0.0,0.0,-56.068726,62.56714,-30.904541
1766497993032,-0.8857422,-0.37890625,0.25439453,1.5258789,2.380371,-2.0141602,0.0,0.0,0.0,-56.519165,62.578125,-31.503296
1766497993120,-0.8959961,-0.37353516,0.24853516,-0.24414062,-0.6713867,0.18310547,0.0,0.0,0.0,-56.519165,62.578125,-31.503296
1766497993132,-0.8959961,-0.37353516,0.24853516,-0.24414062,-0.6713867,0.18310547,0.0,0.0,0.0,-56.623535,62.53418,-31.640625
1766497993220,-0.8857422,-0.37646484,0.2529297,0.24414062,1.3427734,0.4272461,0.0,0.0,0.0,-56.623535,62.53418,-31.640625
1766497993231,-0.8857422,-0.37646484,0.2529297,0.24414062,1.3427734,0.4272461,0.0,0.0,0.0,-56.61255,62.62207,-31.536255
1766497993320,-0.88916016,-0.38378906,0.24560547,0.24414062,1.4648438,-0.61035156,0.0,0.0,0.0,-56.61255,62.62207,-31.536255
1766497993332,-0.88916016,-0.38378906,0.24560547,0.24414062,1.4648438,-0.61035156,0.0,0.0,0.0,-56.70044,62.715454,-31.574707
1766497993419,-0.8911133,-0.3720703,0.24804688,-0.91552734,-1.7089844,0.61035156,0.0,0.0,0.0,-56.70044,62.715454,-31.574707
1766497993431,-0.8911133,-0.3720703,0.24804688,-0.91552734,-1.7089844,0.61035156,0.0,0.0,0.0,-56.782837,62.69348,-31.536255
1766497993519,-0.8955078,-0.3779297,0.24902344,0.4272461,0.6713867,-0.18310547,0.0,0.0,0.0,-56.782837,62.69348,-31.536255
1766497993531,-0.8955078,-0.3779297,0.24902344,0.4272461,0.6713867,-0.18310547,0.0,0.0,0.0,-56.727905,62.704468,-31.415405
1766497993619,-0.8935547,-0.3774414,0.24609375,-0.61035156,1.0986328,0.0,0.0,0.0,0.0,-56.727905,62.704468,-31.415405
1766497993630,-0.8935547,-0.3774414,0.24609375,-0.61035156,1.0986328,0.0,0.0,0.0,0.0,-56.832275,62.764893,-31.426392
1766497993719,-0.88623047,-0.37597656,0.25146484,2.2583008,2.1362305,-1.4648438,0.0,0.0,0.0,-56.832275,62.764893,-31.426392
1766497993730,-0.88623047,-0.37597656,0.25146484,2.2583008,2.1362305,-1.4648438,0.0,0.0,0.0,-56.991577,62.79236,-31.607666
1766497993818,-0.8955078,-0.38232422,0.24511719,-1.2207031,-1.7089844,0.61035156,0.0,0.0,0.0,-56.991577,62.79236,-31.607666
1766497993830,-0.8955078,-0.38232422,0.24511719,-1.2207031,-1.7089844,0.61035156,0.0,0.0,0.0,-56.96411,62.748413,-31.558228
1766497993918,-0.8935547,-0.37890625,0.25048828,1.953125,2.9907227,-2.2583008,0.0,0.0,0.0,-56.96411,62.748413,-31.558228
1766497993930,-0.8935547,-0.37890625,0.25048828,1.953125,2.9907227,-2.2583008,0.0,0.0,0.0,-57.183838,62.704468,-31.816406
1766497994018,-0.8911133,-0.3828125,0.23779297,-0.9765625,1.2817383,0.12207031,0.0,0.0,0.0,-57.183838,62.704468,-31.816406
1766497994029,-0.8911133,-0.3828125,0.23779297,-0.9765625,1.2817383,0.12207031,0.0,0.0,0.0,-57.08496,62.69348,-31.569214
1766497994117,-0.89501953,-0.3852539,0.24023438,-1.5869141,-2.8076172,0.61035156,0.0,0.0,0.0,-57.08496,62.69348,-31.569214
1766497994129,-0.89501953,-0.3852539,0.24023438,-1.5869141,-2.8076172,0.61035156,0.0,0.0,0.0,-57.08496,62.677002,-31.38794
1766497994217,-0.8852539,-0.38085938,0.2548828,-1.2817383,0.30517578,0.30517578,0.0,0.0,0.0,-57.08496,62.677002,-31.38794
1766497994229,-0.8852539,-0.38085938,0.2548828,-1.2817383,0.30517578,0.30517578,0.0,0.0,0.0,-57.20581,62.72644,-31.311035
1766497994317,-0.890625,-0.37890625,0.24365234,-0.7324219,-1.0986328,0.18310547,0.0,0.0,0.0,-57.20581,62.72644,-31.311035
1766497994329,-0.890625,-0.37890625,0.24365234,-0.7324219,-1.0986328,0.18310547,0.0,0.0,0.0,-56.975098,62.666016,-30.915527
1766497994417,-0.8925781,-0.38330078,0.2446289,-0.61035156,0.4272461,0.061035156,0.0,0.0,0.0,-56.975098,62.666016,-30.915527
1766497994428,-0.8925781,-0.38330078,0.2446289,-0.61035156,0.4272461,0.061035156,0.0,0.0,0.0,-57.01355,62.677002,-30.84961
1766497994516,-0.8901367,-0.38476562,0.24707031,-1.5869141,-1.0375977,0.4272461,0.0,0.0,0.0,-57.01355,62.677002,-30.84961
1766497994528,-0.8901367,-0.38476562,0.24707031,-1.5869141,-1.0375977,0.4272461,0.0,0.0,0.0,-57.052002,62.68799,-30.706787
1766497994616,-0.8930664,-0.38330078,0.24658203,-1.159668,0.30517578,-0.48828125,0.0,0.0,0.0,-57.052002,62.68799,-30.706787
1766497994628,-0.8930664,-0.38330078,0.24658203,-1.159668,0.30517578,-0.48828125,0.0,0.0,0.0,-57.10144,62.67151,-30.536499
1766497994716,-0.8901367,-0.37939453,0.24609375,-0.91552734,-0.6713867,-0.6713867,0.0,0.0,0.0,-57.10144,62.67151,-30.536499
1766497994727,-0.8901367,-0.37939453,0.24609375,-0.91552734,-0.6713867,-0.6713867,0.0,0.0,0.0,-57.23877,62.611084,-30.536499
1766497994816,-0.90771484,-0.3930664,0.24804688,-2.0141602,-3.4179688,-0.8544922,0.0,0.0,0.0,-57.23877,62.611084,-30.536499
1766497994827,-0.90771484,-0.3930664,0.24804688,-2.0141602,-3.4179688,-0.8544922,0.0,0.0,0.0,-57.370605,62.490234,-30.558472
1766497994915,-0.88720703,-0.3798828,0.25878906,-2.9907227,2.4414062,-3.2958984,0.0,0.0,0.0,-57.370605,62.490234,-30.558472
1766497994927,-0.88720703,-0.3798828,0.25878906,-2.9907227,2.4414062,-3.2958984,0.0,0.0,0.0,-57.766113,62.248535,-30.635376
1766497995015,-0.8935547,-0.3959961,0.23632812,-4.333496,-1.4038086,-3.1738281,0.0,0.0,0.0,-57.766113,62.248535,-30.635376
1766497995027,-0.8935547,-0.3959961,0.23632812,-4.333496,-1.4038086,-3.1738281,0.0,0.0,0.0,-58.200073,62.001343,-30.794678
1766497995115,-0.8745117,-0.390625,0.25341797,-3.112793,0.061035156,-4.272461,0.0,0.0,0.0,-58.200073,62.001343,-30.794678
1766497995126,-0.8745117,-0.390625,0.25341797,-3.112793,0.061035156,-4.272461,0.0,0.0,0.0,-59.018555,61.743164,-31.333008
1766497995215,-0.8798828,-0.39794922,0.2290039,-2.380371,-0.4272461,-1.8920898,0.0,0.0,0.0,-59.018555,61.743164,-31.333008
1766497995226,-0.8798828,-0.39794922,0.2290039,-2.380371,-0.4272461,-1.8920898,0.0,0.0,0.0,-59.205322,61.430054,-31.305542
1766497995314,-0.8779297,-0.41210938,0.22949219,-0.61035156,0.91552734,-1.3427734,0.0,0.0,0.0,-59.205322,61.430054,-31.305542
1766497995326,-0.8779297,-0.41210938,0.22949219,-0.61035156,0.91552734,-1.3427734,0.0,0.0,0.0,-59.501953,61.358643,-31.618652
1766497995414,-0.8696289,-0.41796875,0.23095703,-1.159668,-0.4272461,-0.7324219,0.0,0.0,0.0,-59.501953,61.358643,-31.618652
1766497995426,-0.8696289,-0.41796875,0.23095703,-1.159668,-0.4272461,-0.7324219,0.0,0.0,0.0,-59.89746,61.314697,-32.041626
1766497995514,-0.8808594,-0.4140625,0.234375,1.2817383,0.5493164,-0.7324219,0.0,0.0,0.0,-59.89746,61.314697,-32.041626
1766497995525,-0.8808594,-0.4140625,0.234375,1.2817383,0.5493164,-0.7324219,0.0,0.0,0.0,-59.952393,61.259766,-32.107544
1766497995613,-0.87109375,-0.41357422,0.23632812,1.2207031,0.0,0.0,0.0,0.0,0.0,-59.952393,61.259766,-32.107544
1766497995625,-0.87109375,-0.41357422,0.23632812,1.2207031,0.0,0.0,0.0,0.0,0.0,-59.88098,61.24878,-32.13501
1766497995713,-0.8876953,-0.41455078,0.23388672,1.0375977,-2.5634766,0.61035156,0.0,0.0,0.0,-59.88098,61.24878,-32.13501
1766497995724,-0.8876953,-0.41455078,0.23388672,1.0375977,-2.5634766,0.61035156,0.0,0.0,0.0,-59.644775,61.237793,-31.986694
1766497995813,-0.87109375,-0.4086914,0.24707031,1.6479492,2.8686523,0.18310547,0.0,0.0,0.0,-59.644775,61.237793,-31.986694
1766497995824,-0.87109375,-0.4086914,0.24707031,1.6479492,2.8686523,0.18310547,0.0,0.0,0.0,-59.578857,61.30371,-31.992188
1766497995913,-0.88378906,-0.41015625,0.23388672,0.18310547,-1.0986328,0.91552734,0.0,0.0,0.0,-59.578857,61.30371,-31.992188
1766497995924,-0.88378906,-0.41015625,0.23388672,0.18310547,-1.0986328,0.91552734,0.0,0.0,0.0,-59.249268,61.342163,-31.734009
1766497996012,-0.8779297,-0.40625,0.24902344,0.0,-1.2207031,0.79345703,0.0,0.0,0.0,-59.249268,61.342163,-31.734009
1766497996024,-0.8779297,-0.40625,0.24902344,0.0,-1.2207031,0.79345703,0.0,0.0,0.0,-59.28772,61.42456,-31.860352
1766497996112,-0.8823242,-0.40673828,0.23876953,-0.12207031,1.0375977,0.0,0.0,0.0,0.0,-59.28772,61.42456,-31.860352
1766497996123,-0.8823242,-0.40673828,0.23876953,-0.12207031,1.0375977,0.0,0.0,0.0,0.0,-59.09546,61.435547,-31.662598
1766497996212,-0.8852539,-0.40478516,0.2368164,-0.24414062,-0.5493164,0.48828125,0.0,0.0,0.0,-59.09546,61.435547,-31.662598
1766497996223,-0.8852539,-0.40478516,0.2368164,-0.24414062,-0.5493164,0.48828125,0.0,0.0,0.0,-59.11743,61.474,-31.706543
1766497996311,-0.8833008,-0.40625,0.2397461,2.2583008,2.6245117,-1.0986328,0.0,0.0,0.0,-59.11743,61.474,-31.706543
1766497996323,-0.8833008,-0.40625,0.2397461,2.2583008,2.6245117,-1.0986328,0.0,0.0,0.0,-59.249268,61.523438,-32.01416
1766497996411,-0.87841797,-0.40771484,0.24365234,0.4272461,1.5869141,-0.8544922,0.0,0.0,0.0,-59.249268,61.523438,-32.01416
1766497996423,-0.87841797,-0.40771484,0.24365234,0.4272461,1.5869141,-0.8544922,0.0,0.0,0.0,-59.518433,61.534424,-32.475586
1766497996511,-0.8769531,-0.40771484,0.24072266,0.0,1.4038086,0.5493164,0.0,0.0,0.0,-59.518433,61.534424,-32.475586
1766497996523,-0.8769531,-0.40771484,0.24072266,0.0,1.4038086,0.5493164,0.0,0.0,0.0,-59.611816,61.567383,-32.64038
1766497996611,-0.88134766,-0.4038086,0.24658203,0.79345703,0.12207031,-0.4272461,0.0,0.0,0.0,-59.611816,61.567383,-32.64038
1766497996622,-0.88134766,-0.4038086,0.24658203,0.79345703,0.12207031,-0.4272461,0.0,0.0,0.0,-59.67224,61.59485,-32.805176
1766497996710,-0.88183594,-0.40478516,0.2397461,-0.7324219,2.1362305,-0.061035156,0.0,0.0,0.0,-59.67224,61.59485,-32.805176
1766497996722,-0.88183594,-0.40478516,0.2397461,-0.7324219,2.1362305,-0.061035156,0.0,0.0,0.0,-59.595337,61.583862,-32.695312
1766497996810,-0.88427734,-0.4111328,0.22607422,-0.79345703,-1.2207031,0.61035156,0.0,0.0,0.0,-59.595337,61.583862,-32.695312
1766497996822,-0.88427734,-0.4111328,0.22607422,-0.79345703,-1.2207031,0.61035156,0.0,0.0,0.0,-59.52942,61.622314,-32.60742
1766497996910,-0.8798828,-0.4013672,0.2475586,0.30517578,0.061035156,-0.36621094,0.0,0.0,0.0,-59.52942,61.622314,-32.60742
1766497996921,-0.8798828,-0.4013672,0.2475586,0.30517578,0.061035156,-0.36621094,0.0,0.0,0.0,-59.73816,61.638794,-32.81067
1766497997010,-0.8823242,-0.4038086,0.23144531,0.0,1.2207031,-0.12207031,0.0,0.0,0.0,-59.73816,61.638794,-32.81067
1766497997021,-0.8823242,-0.4038086,0.23144531,0.0,1.2207031,-0.12207031,0.0,0.0,0.0,-59.622803,61.605835,-32.695312
1766497997109,-0.8847656,-0.40625,0.23535156,0.0,-0.91552734,-0.12207031,0.0,0.0,0.0,-59.622803,61.605835,-32.695312
1766497997121,-0.8847656,-0.40625,0.23535156,0.0,-0.91552734,-0.12207031,0.0,0.0,0.0,-59.65027,61.627808,-32.717285
1766497997209,-0.87890625,-0.4091797,0.23779297,-0.061035156,0.24414062,-0.061035156,0.0,0.0,0.0,-59.65027,61.627808,-32.717285
1766497997221,-0.87890625,-0.4091797,0.23779297,-0.061035156,0.24414062,-0.061035156,0.0,0.0,0.0,-59.68872,61.627808,-32.788696
1766497997309,-0.88134766,-0.40625,0.24023438,-0.18310547,0.12207031,0.12207031,0.0,0.0,0.0,-59.68872,61.627808,-32.788696
1766497997320,-0.88134766,-0.40625,0.24023438,-0.18310547,0.12207031,0.12207031,0.0,0.0,0.0,-59.65576,61.627808,-32.74475
1766497997408,-0.88134766,-0.40234375,0.24365234,0.12207031,0.5493164,0.36621094,0.0,0.0,0.0,-59.65576,61.627808,-32.74475
1766497997420,-0.88134766,-0.40234375,0.24365234,0.12207031,0.5493164,0.36621094,0.0,0.0,0.0,-59.661255,61.644287,-32.755737
1766497997508,-0.88720703,-0.40234375,0.24023438,-0.4272461,-1.159668,0.7324219,0.0,0.0,0.0,-59.661255,61.644287,-32.755737
1766497997520,-0.88720703,-0.40234375,0.24023438,-0.4272461,-1.159668,0.7324219,0.0,0.0,0.0,-59.534912,61.677246,-32.700806
1766497997608,-0.875,-0.40283203,0.2475586,-0.48828125,-0.18310547,0.24414062,0.0,0.0,0.0,-59.534912,61.677246,-32.700806
1766497997620,-0.875,-0.40283203,0.2475586,-0.48828125,-0.18310547,0.24414062,0.0,0.0,0.0,-59.606323,61.743164,-32.83264
1766497997707,-0.88427734,-0.40722656,0.2319336,0.24414062,1.0986328,-0.061035156,0.0,0.0,0.0,-59.606323,61.743164,-32.83264
1766497997719,-0.88427734,-0.40722656,0.2319336,0.24414062,1.0986328,-0.061035156,0.0,0.0,0.0,-59.44153,61.7157,-32.67334
1766497997807,-0.88623047,-0.40478516,0.23828125,0.30517578,-1.0986328,0.36621094,0.0,0.0,0.0,-59.44153,61.7157,-32.67334
1766497997819,-0.88623047,-0.40478516,0.23828125,0.30517578,-1.0986328,0.36621094,0.0,0.0,0.0,-59.44702,61.73767,-32.7063
1766497997907,-0.8823242,-0.4008789,0.24511719,0.30517578,0.7324219,-0.7324219,0.0,0.0,0.0,-59.44702,61.73767,-32.7063
1766497997918,-0.8823242,-0.4008789,0.24511719,0.30517578,0.7324219,-0.7324219,0.0,0.0,0.0,-59.353638,61.75415,-32.60193
1766497998007,-0.8808594,-0.40283203,0.23486328,1.0986328,-0.6713867,0.12207031,0.0,0.0,0.0,-59.353638,61.75415,-32.60193
1766497998018,-0.8808594,-0.40283203,0.23486328,1.0986328,-0.6713867,0.12207031,0.0,0.0,0.0,-59.19983,61.69922,-32.557983
1766497998106,-0.8833008,-0.40576172,0.24072266,1.4038086,-0.8544922,0.48828125,0.0,0.0,0.0,-59.19983,61.69922,-32.557983
1766497998118,-0.8833008,-0.40576172,0.24072266,1.4038086,-0.8544922,0.48828125,0.0,0.0,0.0,-59.024048,61.7157,-32.50305
1766497998206,-0.8833008,-0.40185547,0.24267578,1.4648438,-0.18310547,0.0,0.0,0.0,0.0,-59.024048,61.7157,-32.50305
1766497998218,-0.8833008,-0.40185547,0.24267578,1.4648438,-0.18310547,0.0,0.0,0.0,0.0,-58.760376,61.69922,-32.321777
1766497998306,-0.88134766,-0.40039062,0.25,1.953125,0.8544922,0.061035156,0.0,0.0,0.0,-58.760376,61.69922,-32.321777
1766497998317,-0.88134766,-0.40039062,0.25,1.953125,0.8544922,0.061035156,0.0,0.0,0.0,-58.617554,61.743164,-32.283325
1766497998405,-0.88378906,-0.4013672,0.2553711,1.6479492,-0.7324219,0.0,0.0,0.0,0.0,-58.617554,61.743164,-32.283325
1766497998417,-0.88378906,-0.4013672,0.2553711,1.6479492,-0.7324219,0.0,0.0,0.0,0.0,-58.480225,61.732178,-32.316284
1766497998505,-0.87646484,-0.39404297,0.25048828,0.36621094,1.3427734,0.36621094,0.0,0.0,0.0,-58.480225,61.732178,-32.316284
1766497998517,-0.87646484,-0.39404297,0.25048828,0.36621094,1.3427734,0.36621094,0.0,0.0,0.0,-58.189087,61.726685,-31.975708
1766497998605,-0.8964844,-0.40429688,0.23876953,-0.6713867,-1.7700195,1.2817383,0.0,0.0,0.0,-58.189087,61.726685,-31.975708
1766497998617,-0.8964844,-0.40429688,0.23876953,-0.6713867,-1.7700195,1.2817383,0.0,0.0,0.0,-57.958374,61.765137,-31.690063
1766497998705,-0.875,-0.39794922,0.2529297,-0.30517578,2.380371,-0.30517578,0.0,0.0,0.0,-57.958374,61.765137,-31.690063
1766497998716,-0.875,-0.39794922,0.2529297,-0.30517578,2.380371,-0.30517578,0.0,0.0,0.0,-58.375854,61.89148,-32.10205
1766497998804,-0.8847656,-0.38720703,0.2548828,0.48828125,-2.319336,0.79345703,0.0,0.0,0.0,-58.375854,61.89148,-32.10205
1766497998816,-0.8847656,-0.38720703,0.2548828,0.48828125,-2.319336,0.79345703,0.0,0.0,0.0,-57.903442,61.84204,-31.514282
1766497998904,-0.8935547,-0.40966797,0.24365234,0.61035156,-1.2817383,-0.79345703,0.0,0.0,0.0,-57.903442,61.84204,-31.514282
1766497998916,-0.8935547,-0.40966797,0.24365234,0.61035156,-1.2817383,-0.79345703,0.0,0.0,0.0,-57.44751,61.743164,-31.102295
1766497999004,-0.88183594,-0.39404297,0.25732422,-2.4414062,0.79345703,-1.4648438,0.0,0.0,0.0,-57.44751,61.743164,-31.102295
1766497999015,-0.88183594,-0.39404297,0.25732422,-2.4414062,0.79345703,-1.4648438,0.0,0.0,0.0,-57.886963,61.66626,-31.409912
1766497999104,-0.8881836,-0.39501953,0.2578125,0.5493164,1.7089844,-1.6479492,0.0,0.0,0.0,-57.886963,61.66626,-31.409912
1766497999115,-0.8881836,-0.39501953,0.2578125,0.5493164,1.7089844,-1.6479492,0.0,0.0,0.0,-58.16162,61.56189,-31.657104
1766497999203,-0.88134766,-0.4111328,0.24951172,-2.5024414,0.0,-2.8076172,0.0,0.0,0.0,-58.16162,61.56189,-31.657104
1766497999215,-0.88134766,-0.4111328,0.24951172,-2.5024414,0.0,-2.8076172,0.0,0.0,0.0,-58.45276,61.402588,-31.865845
1766497999303,-0.87939453,-0.40527344,0.24951172,-2.0141602,0.6713867,-5.126953,0.0,0.0,0.0,-58.45276,61.402588,-31.865845
1766497999315,-0.87939453,-0.40527344,0.24951172,-2.0141602,0.6713867,-5.126953,0.0,0.0,0.0,-59.27124,61.116943,-32.4646
1766497999403,-0.8769531,-0.39013672,0.26367188,-2.2583008,4.4555664,-0.7324219,0.0,0.0,0.0,-59.27124,61.116943,-32.4646
1766497999415,-0.8769531,-0.39013672,0.26367188,-2.2583008,4.4555664,-0.7324219,0.0,0.0,0.0,-60.012817,60.985107,-32.975464
1766497999502,-0.88183594,-0.44140625,0.22705078,-3.90625,-2.1362305,1.5869141,0.0,0.0,0.0,-60.012817,60.985107,-32.975464
1766497999514,-0.88183594,-0.44140625,0.22705078,-3.90625,-2.1362305,1.5869141,0.0,0.0,0.0,-60.265503,61.133423,-33.184204
1766497999602,-0.8769531,-0.41748047,0.23779297,-3.0517578,4.4555664,0.0,0.0,0.0,0.0,-60.265503,61.133423,-33.184204
1766497999614,-0.8769531,-0.41748047,0.23779297,-3.0517578,4.4555664,0.0,0.0,0.0,0.0,-60.820312,61.19934,-33.343506
1766497999702,-0.8652344,-0.42089844,0.2055664,-1.4648438,-2.380371,3.2958984,0.0,0.0,0.0,-60.820312,61.19934,-33.343506
1766497999714,-0.8652344,-0.42089844,0.2055664,-1.4648438,-2.380371,3.2958984,0.0,0.0,0.0,-60.996094,61.16089,-33.458862
1766497999802,-0.86816406,-0.4423828,0.22314453,-0.5493164,4.333496,0.91552734,0.0,0.0,0.0,-60.996094,61.16089,-33.458862
1766497999813,-0.86816406,-0.4423828,0.22314453,-0.5493164,4.333496,0.91552734,0.0,0.0,0.0,-61.45752,61.534424,-33.79944
1766497999901,-0.8720703,-0.43115234,0.21289062,-0.9765625,4.5776367,-0.79345703,0.0,0.0,0.0,-61.45752,61.534424,-33.79944
1766497999913,-0.8720703,-0.43115234,0.21289062,-0.9765625,4.5776367,-0.79345703,0.0,0.0,0.0,-61.92993,61.54541,-34.222412
1766498000001,-0.91308594,-0.39990234,0.20214844,3.6621094,1.4038086,5.554199,0.0,0.0,0.0,-61.92993,61.54541,-34.222412
1766498000013,-0.91308594,-0.39990234,0.20214844,3.6621094,1.4038086,5.554199,0.0,0.0,0.0,-61.743164,61.85852,-34.101562
1766498000101,-0.85253906,-0.4248047,0.22021484,8.7890625,13.793945,-3.4179688,0.0,0.0,0.0,-61.743164,61.85852,-34.101562
1766498000112,-0.85253906,-0.4248047,0.22021484,8.7890625,13.793945,-3.4179688,0.0,0.0,0.0,-62.753906,62.490234,-36.210938
1766498000200,-0.8964844,-0.41357422,0.20410156,-2.1362305,-12.878418,-1.0375977,0.0,0.0,0.0,-62.753906,62.490234,-36.210938
1766498000213,-0.8964844,-0.41357422,0.20410156,-2.1362305,-12.878418,-1.0375977,0.0,0.0,0.0,-62.753906,62.056274,-36.639404
1766498000300,-0.8935547,-0.4038086,0.2368164,-0.9765625,7.5683594,-0.5493164,0.0,0.0,0.0,-62.753906,62.056274,-36.639404
1766498000312,-0.8935547,-0.4038086,0.2368164,-0.9765625,7.5683594,-0.5493164,0.0,0.0,0.0,-63.204346,62.127686,-36.628418
1766498000400,-0.89404297,-0.4116211,0.17675781,-3.9672852,3.0517578,1.3427734,0.0,0.0,0.0,-63.204346,62.127686,-36.628418
1766498000411,-0.89404297,-0.4116211,0.17675781,-3.9672852,3.0517578,1.3427734,0.0,0.0,0.0,-63.187866,62.243042,-36.117554
1766498000500,-0.90478516,-0.39746094,0.20214844,-5.065918,-2.6855469,2.380371,0.0,0.0,0.0,-63.187866,62.243042,-36.117554
1766498000511,-0.90478516,-0.39746094,0.20214844,-5.065918,-2.6855469,2.380371,0.0,0.0,0.0,-64.17114,62.424316,-36.672363
1766498000599,-0.88378906,-0.41748047,0.19482422,-3.479004,3.7231445,-0.18310547,0.0,0.0,0.0,-64.17114,62.424316,-36.672363
1766498000611,-0.88378906,-0.41748047,0.19482422,-3.479004,3.7231445,-0.18310547,0.0,0.0,0.0,-64.77539,62.539673,-36.919556
1766498000699,-0.8847656,-0.40478516,0.18017578,-4.0283203,-1.5258789,2.8076172,0.0,0.0,0.0,-64.77539,62.539673,-36.919556
1766498000710,-0.8847656,-0.40478516,0.18017578,-4.0283203,-1.5258789,2.8076172,0.0,0.0,0.0,-64.73694,62.70996,-36.28235
1766498000799,-0.89208984,-0.40771484,0.1899414,0.0,-0.7324219,-0.5493164,0.0,0.0,0.0,-64.73694,62.70996,-36.28235
1766498000810,-0.89208984,-0.40771484,0.1899414,0.0,-0.7324219,-0.5493164,0.0,0.0,0.0,-64.64905,62.81433,-36.051636
1766498000898,-0.8828125,-0.41845703,0.19873047,-1.2817383,0.7324219,-1.0375977,0.0,0.0,0.0,-64.64905,62.81433,-36.051636
1766498000910,-0.8828125,-0.41845703,0.19873047,-1.2817383,0.7324219,-1.0375977,0.0,0.0,0.0,-65.0116,62.748413,-36.518555
1766498000998,-0.8989258,-0.40234375,0.19433594,-0.9765625,-1.3427734,-0.30517578,0.0,0.0,0.0,-65.0116,62.748413,-36.518555
1766498001010,-0.8989258,-0.40234375,0.19433594,-0.9765625,-1.3427734,-0.30517578,0.0,0.0,0.0,-64.85779,62.611084,-36.221924
1766498001098,-0.88720703,-0.40039062,0.19970703,1.4648438,1.5869141,-0.30517578,0.0,0.0,0.0,-64.85779,62.611084,-36.221924
1766498001109,-0.88720703,-0.40039062,0.19970703,1.4648438,1.5869141,-0.30517578,0.0,0.0,0.0,-64.78638,62.633057,-36.090088
1766498001197,-0.89453125,-0.42089844,0.18359375,0.7324219,0.79345703,-0.9765625,0.0,0.0,0.0,-64.78638,62.633057,-36.090088
1766498001209,-0.89453125,-0.42089844,0.18359375,0.7324219,0.79345703,-0.9765625,0.0,0.0,0.0,-64.64905,62.58911,-36.101074
1766498001297,-0.8823242,-0.40478516,0.1977539,-0.48828125,-1.4648438,0.0,0.0,0.0,0.0,-64.64905,62.58911,-36.101074
1766498001310,-0.8823242,-0.40478516,0.1977539,-0.48828125,-1.4648438,0.0,0.0,0.0,0.0,-64.82483,62.545166,-36.243896
1766498001397,-0.8955078,-0.4169922,0.19726562,0.8544922,1.0375977,0.0,0.0,0.0,0.0,-64.82483,62.545166,-36.243896
1766498001409,-0.8955078,-0.4169922,0.19726562,0.8544922,1.0375977,0.0,0.0,0.0,0.0,-64.555664,62.506714,-36.002197
1766498001497,-0.8823242,-0.4140625,0.19189453,-0.7324219,-0.9765625,1.0375977,0.0,0.0,0.0,-64.555664,62.506714,-36.002197
1766498001508,-0.8823242,-0.4140625,0.19189453,-0.7324219,-0.9765625,1.0375977,0.0,0.0,0.0,-64.48425,62.545166,-35.963745
1766498001596,-0.8925781,-0.41748047,0.19580078,1.0986328,0.0,-0.4272461,0.0,0.0,0.0,-64.48425,62.545166,-35.963745
1766498001609,-0.8925781,-0.41748047,0.19580078,1.0986328,0.0,-0.4272461,0.0,0.0,0.0,-64.2865,62.616577,-35.809937
1766498001696,-0.8857422,-0.4116211,0.1953125,-0.5493164,-0.4272461,-0.48828125,0.0,0.0,0.0,-64.2865,62.616577,-35.809937
1766498001708,-0.8857422,-0.4116211,0.1953125,-0.5493164,-0.4272461,-0.48828125,0.0,0.0,0.0,-64.3634,62.545166,-35.985718
1766498001796,-0.88720703,-0.40625,0.20019531,-0.30517578,1.2207031,-1.0375977,0.0,0.0,0.0,-64.3634,62.545166,-35.985718
1766498001807,-0.88720703,-0.40625,0.20019531,-0.30517578,1.2207031,-1.0375977,0.0,0.0,0.0,-64.522705,62.473755,-36.1615
1766498001895,-0.89453125,-0.40527344,0.18701172,-0.12207031,0.24414062,1.159668,0.0,0.0,0.0,-64.522705,62.473755,-36.1615
1766498001907,-0.89453125,-0.40527344,0.18701172,-0.12207031,0.24414062,1.159668,0.0,0.0,0.0,-64.13269,62.48474,-35.722046
1766498001995,-0.88916016,-0.43603516,0.19140625,-1.5869141,-3.1738281,-0.24414062,0.0,0.0,0.0,-64.13269,62.48474,-35.722046
1766498002007,-0.88916016,-0.43603516,0.19140625,-1.5869141,-3.1738281,-0.24414062,0.0,0.0,0.0,-64.48425,62.528687,-36.221924
1766498002095,-0.8828125,-0.40429688,0.19677734,1.2207031,2.380371,-1.4038086,0.0,0.0,0.0,-64.48425,62.528687,-36.221924
1766498002106,-0.8828125,-0.40429688,0.19677734,1.2207031,2.380371,-1.4038086,0.0,0.0,0.0,-64.330444,62.46826,-35.90332
1766498002195,-0.89697266,-0.41455078,0.18847656,0.0,-1.0986328,0.36621094,0.0,0.0,0.0,-64.330444,62.46826,-35.90332
1766498002206,-0.89697266,-0.41455078,0.18847656,0.0,-1.0986328,0.36621094,0.0,0.0,0.0,-64.297485,62.44629,-35.925293
1766498002294,-0.88720703,-0.41748047,0.19824219,0.48828125,1.159668,-1.159668,0.0,0.0,0.0,-64.297485,62.44629,-35.925293
1766498002306,-0.88720703,-0.41748047,0.19824219,0.48828125,1.159668,-1.159668,0.0,0.0,0.0,-64.44031,62.42981,-36.134033
1766498002394,-0.88964844,-0.40576172,0.19433594,-0.7324219,-2.0141602,0.7324219,0.0,0.0,0.0,-64.44031,62.42981,-36.134033
1766498002406,-0.88964844,-0.40576172,0.19433594,-0.7324219,-2.0141602,0.7324219,0.0,0.0,0.0,-64.33594,62.41333,-35.947266
1766498002494,-0.890625,-0.41845703,0.19921875,1.6479492,0.6713867,-1.159668,0.0,0.0,0.0,-64.33594,62.41333,-35.947266
1766498002506,-0.890625,-0.41845703,0.19921875,1.6479492,0.6713867,-1.159668,0.0,0.0,0.0,-64.32495,62.352905,-36.09558
1766498002594,-0.8833008,-0.4091797,0.19873047,0.61035156,0.4272461,-0.18310547,0.0,0.0,0.0,-64.32495,62.352905,-36.09558
1766498002605,-0.8833008,-0.4091797,0.19873047,0.61035156,0.4272461,-0.18310547,0.0,0.0,0.0,-64.16016,62.34192,-35.9198
1766498002693,-0.890625,-0.41259766,0.20361328,0.8544922,-1.5258789,-0.79345703,0.0,0.0,0.0,-64.16016,62.34192,-35.9198
1766498002705,-0.890625,-0.41259766,0.20361328,0.8544922,-1.5258789,-0.79345703,0.0,0.0,0.0,-64.22058,62.276,-36.02417
1766498002793,-0.88378906,-0.40722656,0.20898438,0.5493164,1.8310547,0.5493164,0.0,0.0,0.0,-64.22058,62.276,-36.02417
1766498002804,-0.88378906,-0.40722656,0.20898438,0.5493164,1.8310547,0.5493164,0.0,0.0,0.0,-64.176636,62.32544,-35.97473
1766498002893,-0.8959961,-0.41552734,0.19433594,0.5493164,0.30517578,-1.0986328,0.0,0.0,0.0,-64.176636,62.32544,-35.97473
1766498002907,-0.8959961,-0.41552734,0.19433594,0.5493164,0.30517578,-1.0986328,0.0,0.0,0.0,-63.945923,62.265015,-35.79895
1766498002992,-0.8857422,-0.41308594,0.2006836,-0.30517578,-1.3427734,-0.7324219,0.0,0.0,0.0,-63.945923,62.265015,-35.79895
1766498003004,-0.8857422,-0.41308594,0.2006836,-0.30517578,-1.3427734,-0.7324219,0.0,0.0,0.0,-64.05029,62.18811,-35.914307
1766498003092,-0.88720703,-0.41210938,0.20166016,0.8544922,1.5258789,-0.18310547,0.0,0.0,0.0,-64.05029,62.18811,-35.914307
1766498003103,-0.88720703,-0.41210938,0.20166016,0.8544922,1.5258789,-0.18310547,0.0,0.0,0.0,-64.05029,62.17163,-35.958252
1766498003192,-0.88183594,-0.41796875,0.19970703,0.48828125,0.36621094,0.12207031,0.0,0.0,0.0,-64.05029,62.17163,-35.958252
1766498003203,-0.88183594,-0.41796875,0.19970703,0.48828125,0.36621094,0.12207031,0.0,0.0,0.0,-63.98987,62.215576,-35.925293
1766498003291,-0.8886719,-0.41992188,0.19921875,0.30517578,-0.24414062,-0.4272461,0.0,0.0,0.0,-63.98987,62.215576,-35.925293
1766498003303,-0.8886719,-0.41992188,0.19921875,0.30517578,-0.24414062,-0.4272461,0.0,0.0,0.0,-63.880005,62.210083,-35.79895
1766498003391,-0.8881836,-0.41748047,0.19482422,-0.30517578,-0.24414062,-0.36621094,0.0,0.0,0.0,-63.880005,62.210083,-35.79895
1766498003403,-0.8881836,-0.41748047,0.19482422,-0.30517578,-0.24414062,-0.36621094,0.0,0.0,0.0,-63.880005,62.166138,-35.79895
1766498003491,-0.88183594,-0.40966797,0.19384766,0.24414062,0.061035156,0.061035156,0.0,0.0,0.0,-63.880005,62.166138,-35.79895
1766498003502,-0.88183594,-0.40966797,0.19384766,0.24414062,0.061035156,0.061035156,0.0,0.0,0.0,-63.97339,62.177124,-35.9198
1766498003591,-0.8925781,-0.4189453,0.18847656,-1.0986328,-1.4648438,0.36621094,0.0,0.0,0.0,-63.97339,62.177124,-35.9198
1766498003602,-0.8925781,-0.4189453,0.18847656,-1.0986328,-1.4648438,0.36621094,0.0,0.0,0.0,-63.781128,62.17163,-35.69458
1766498003690,-0.88671875,-0.41796875,0.20117188,0.5493164,-1.159668,-0.18310547,0.0,0.0,0.0,-63.781128,62.17163,-35.69458
1766498003702,-0.88671875,-0.41796875,0.20117188,0.5493164,-1.159668,-0.18310547,0.0,0.0,0.0,-63.94043,62.20459,-35.859375
1766498003790,-0.8857422,-0.4116211,0.20458984,0.5493164,1.6479492,-0.61035156,0.0,0.0,0.0,-63.94043,62.20459,-35.859375
1766498003802,-0.8857422,-0.4116211,0.20458984,0.5493164,1.6479492,-0.61035156,0.0,0.0,0.0,-63.97888,62.182617,-35.892334
1766498003890,-0.8876953,-0.41259766,0.19482422,0.36621094,-0.7324219,0.0,0.0,0.0,0.0,-63.97888,62.182617,-35.892334
1766498003902,-0.8876953,-0.41259766,0.19482422,0.36621094,-0.7324219,0.0,0.0,0.0,0.0,-63.90747,62.166138,-35.787964
1766498003990,-0.8857422,-0.41552734,0.19970703,0.0,0.0,0.24414062,0.0,0.0,0.0,-63.90747,62.166138,-35.787964
1766498004001,-0.8857422,-0.41552734,0.19970703,0.0,0.0,0.24414062,0.0,0.0,0.0,-63.99536,62.199097,-35.875854
1766498004089,-0.8847656,-0.4116211,0.19970703,0.7324219,0.61035156,-0.18310547,0.0,0.0,0.0,-63.99536,62.199097,-35.875854
1766498004101,-0.8847656,-0.4116211,0.19970703,0.7324219,0.61035156,-0.18310547,0.0,0.0,0.0,-63.984375,62.22107,-35.837402
1766498004189,-0.88916016,-0.40966797,0.19677734,1.0986328,0.36621094,0.18310547,0.0,0.0,0.0,-63.984375,62.22107,-35.837402
1766498004201,-0.88916016,-0.40966797,0.19677734,1.0986328,0.36621094,0.18310547,0.0,0.0,0.0,-63.86902,62.248535,-35.760498
1766498004289,-0.8881836,-0.40673828,0.19677734,0.6713867,-1.5258789,2.0751953,0.0,0.0,0.0,-63.86902,62.248535,-35.760498
1766498004300,-0.8881836,-0.40673828,0.19677734,0.6713867,-1.5258789,2.0751953,0.0,0.0,0.0,-63.742676,62.347412,-35.71106
1766498004388,-0.8881836,-0.41259766,0.20263672,0.48828125,2.1362305,-1.2817383,0.0,0.0,0.0,-63.742676,62.347412,-35.71106
1766498004400,-0.8881836,-0.41259766,0.20263672,0.48828125,2.1362305,-1.2817383,0.0,0.0,0.0,-63.781128,62.473755,-35.837402
1766498004488,-0.8886719,-0.42285156,0.18652344,0.4272461,2.319336,-2.5634766,0.0,0.0,0.0,-63.781128,62.473755,-35.837402
1766498004500,-0.8886719,-0.42285156,0.18652344,0.4272461,2.319336,-2.5634766,0.0,0.0,0.0,-63.858032,62.330933,-35.985718
1766498004588,-0.89746094,-0.4375,0.17675781,4.5776367,-3.540039,-2.746582,0.0,0.0,0.0,-63.858032,62.330933,-35.985718
1766498004600,-0.89746094,-0.4375,0.17675781,4.5776367,-3.540039,-2.746582,0.0,0.0,0.0,-63.814087,62.111206,-36.35376
1766498004688,-0.86816406,-0.4169922,0.23779297,2.4414062,-0.12207031,-0.48828125,0.0,0.0,0.0,-63.814087,62.111206,-36.35376
1766498004699,-0.86816406,-0.4169922,0.23779297,2.4414062,-0.12207031,-0.48828125,0.0,0.0,0.0,-64.19861,62.061768,-37.06787
1766498004787,-0.8886719,-0.40625,0.18701172,4.0893555,6.8359375,-3.2958984,0.0,0.0,0.0,-64.19861,62.061768,-37.06787
1766498004799,-0.8886719,-0.40625,0.18701172,4.0893555,6.8359375,-3.2958984,0.0,0.0,0.0,-63.517456,61.84204,-36.52954
1766498004887,-0.8691406,-0.42822266,0.2055664,-1.8310547,-6.591797,2.9907227,0.0,0.0,0.0,-63.517456,61.84204,-36.52954
1766498004898,-0.8691406,-0.42822266,0.2055664,-1.8310547,-6.591797,2.9907227,0.0,0.0,0.0,-63.984375,61.82007,-37.15576
1766498004987,-0.89697266,-0.4091797,0.20214844,-3.1738281,-1.6479492,7.873535,0.0,0.0,0.0,-63.984375,61.82007,-37.15576
1766498004998,-0.89697266,-0.4091797,0.20214844,-3.1738281,-1.6479492,7.873535,0.0,0.0,0.0,-63.22632,62.265015,-35.74402
1766498005086,-0.89453125,-0.4013672,0.20117188,2.2583008,-2.2583008,1.6479492,0.0,0.0,0.0,-63.22632,62.265015,-35.74402
1766498005098,-0.89453125,-0.4013672,0.20117188,2.2583008,-2.2583008,1.6479492,0.0,0.0,0.0,-62.32544,62.512207,-34.711304
1766498005186,-0.8803711,-0.41015625,0.22265625,-2.8686523,-2.5024414,-3.479004,0.0,0.0,0.0,-62.32544,62.512207,-34.711304
1766498005198,-0.8803711,-0.41015625,0.22265625,-2.8686523,-2.5024414,-3.479004,0.0,0.0,0.0,-62.226562,62.347412,-34.557495
1766498005286,-0.87109375,-0.40429688,0.22167969,-1.5869141,-0.79345703,-1.8310547,0.0,0.0,0.0,-62.226562,62.347412,-34.557495
1766498005298,-0.87109375,-0.40429688,0.22167969,-1.5869141,-0.79345703,-1.8310547,0.0,0.0,0.0,-62.127686,62.06726,-34.118042
1766498005386,-0.91015625,-0.4111328,0.18896484,-3.6010742,-4.1503906,2.1972656,0.0,0.0,0.0,-62.127686,62.06726,-34.118042
1766498005397,-0.91015625,-0.4111328,0.18896484,-3.6010742,-4.1503906,2.1972656,0.0,0.0,0.0,-61.435547,61.82556,-32.98645
1766498005485,-0.8857422,-0.38232422,0.24072266,6.7749023,0.0,1.4038086,0.0,0.0,0.0,-61.435547,61.82556,-32.98645
1766498005497,-0.8857422,-0.38232422,0.24072266,6.7749023,0.0,1.4038086,0.0,0.0,0.0,-61.358643,62.02881,-33.17871
1766498005585,-0.87402344,-0.4169922,0.21582031,4.638672,1.0375977,-0.7324219,0.0,0.0,0.0,-61.358643,62.02881,-33.17871
1766498005597,-0.87402344,-0.4169922,0.21582031,4.638672,1.0375977,-0.7324219,0.0,0.0,0.0,-60.820312,62.127686,-33.206177
1766498005685,-0.8823242,-0.40283203,0.22705078,6.225586,-5.79834,-3.540039,0.0,0.0,0.0,-60.820312,62.127686,-33.206177
1766498005696,-0.8823242,-0.40283203,0.22705078,6.225586,-5.79834,-3.540039,0.0,0.0,0.0,-60.029297,61.902466,-32.64038
1766498005785,-0.8881836,-0.38867188,0.23828125,9.277344,-0.9765625,-3.7841797,0.0,0.0,0.0,-60.029297,61.902466,-32.64038
1766498005796,-0.8881836,-0.38867188,0.23828125,9.277344,-0.9765625,-3.7841797,0.0,0.0,0.0,-59.051514,61.3916,-32.332764
1766498005884,-0.8486328,-0.40234375,0.25097656,5.554199,1.3427734,1.7700195,0.0,0.0,0.0,-59.051514,61.3916,-32.332764
1766498005896,-0.8486328,-0.40234375,0.25097656,5.554199,1.3427734,1.7700195,0.0,0.0,0.0,-58.5791,61.452026,-32.579956
1766498005984,-0.8833008,-0.41796875,0.24511719,3.2958984,-3.3569336,0.0,0.0,0.0,0.0,-58.5791,61.452026,-32.579956
1766498005995,-0.8833008,-0.41796875,0.24511719,3.2958984,-3.3569336,0.0,0.0,0.0,0.0,-57.755127,61.435547,-32.091064
1766498006084,-0.88183594,-0.39013672,0.25830078,3.2958984,-3.4179688,0.30517578,0.0,0.0,0.0,-57.755127,61.435547,-32.091064
1766498006095,-0.88183594,-0.39013672,0.25830078,3.2958984,-3.4179688,0.30517578,0.0,0.0,0.0,-56.969604,61.243286,-31.503296
1766498006183,-0.8691406,-0.4086914,0.26464844,2.0141602,-0.6713867,-1.0986328,0.0,0.0,0.0,-56.969604,61.243286,-31.503296
1766498006195,-0.8691406,-0.4086914,0.26464844,2.0141602,-0.6713867,-1.0986328,0.0,0.0,0.0,-56.63452,61.155396,-31.486816
1766498006283,-0.8881836,-0.38085938,0.26416016,-0.4272461,-3.2348633,1.5869141,0.0,0.0,0.0,-56.63452,61.155396,-31.486816
1766498006295,-0.8881836,-0.38085938,0.26416016,-0.4272461,-3.2348633,1.5869141,0.0,0.0,0.0,-55.947876,61.001587,-30.635376
1766498006383,-0.88183594,-0.3959961,0.27294922,1.953125,0.0,4.0283203,0.0,0.0,0.0,-55.947876,61.001587,-30.635376
1766498006394,-0.88183594,-0.3959961,0.27294922,1.953125,0.0,4.0283203,0.0,0.0,0.0,-55.39856,61.2323,-30.091553
1766498006483,-0.87841797,-0.39257812,0.28076172,0.7324219,-0.5493164,1.0375977,0.0,0.0,0.0,-55.39856,61.2323,-30.091553
1766498006494,-0.87841797,-0.39257812,0.28076172,0.7324219,-0.5493164,1.0375977,0.0,0.0,0.0,-54.926147,61.479492,-29.580688
1766498006582,-0.8833008,-0.3935547,0.26513672,0.61035156,0.18310547,-0.9765625,0.0,0.0,0.0,-54.926147,61.479492,-29.580688
1766498006594,-0.8833008,-0.3935547,0.26513672,0.61035156,0.18310547,-0.9765625,0.0,0.0,0.0,-54.73938,61.40808,-29.470825
1766498006682,-0.8769531,-0.37646484,0.28564453,-0.24414062,-0.12207031,-0.12207031,0.0,0.0,0.0,-54.73938,61.40808,-29.470825
1766498006694,-0.8769531,-0.37646484,0.28564453,-0.24414062,-0.12207031,-0.12207031,0.0,0.0,0.0,-54.959106,61.33667,-29.718018
1766498006782,-0.88134766,-0.38085938,0.2709961,-0.6713867,-0.5493164,1.0986328,0.0,0.0,0.0,-54.959106,61.33667,-29.718018
1766498006793,-0.88134766,-0.38085938,0.2709961,-0.6713867,-0.5493164,1.0986328,0.0,0.0,0.0,-54.750366,61.36963,-29.421387
1766498006881,-0.8847656,-0.38623047,0.2734375,-1.159668,-1.0986328,1.3427734,0.0,0.0,0.0,-54.750366,61.36963,-29.421387
1766498006893,-0.8847656,-0.38623047,0.2734375,-1.159668,-1.0986328,1.3427734,0.0,0.0,0.0,-54.58557,61.44104,-29.135742
1766498006981,-0.88671875,-0.38330078,0.26757812,0.18310547,0.9765625,-0.18310547,0.0,0.0,0.0,-54.58557,61.44104,-29.135742
1766498006993,-0.88671875,-0.38330078,0.26757812,0.18310547,0.9765625,-0.18310547,0.0,0.0,0.0,-54.574585,61.49048,-29.069824
1766498007081,-0.8779297,-0.3881836,0.26220703,1.8310547,6.713867,-2.319336,0.0,0.0,0.0,-54.574585,61.49048,-29.069824
1766498007093,-0.8779297,-0.3881836,0.26220703,1.8310547,6.713867,-2.319336,0.0,0.0,0.0,-55.178833,61.64978,-29.84436
1766498007180,-0.88720703,-0.39746094,0.25683594,-0.5493164,-0.7324219,-0.30517578,0.0,0.0,0.0,-55.178833,61.64978,-29.84436
1766498007192,-0.88720703,-0.39746094,0.25683594,-0.5493164,-0.7324219,-0.30517578,0.0,0.0,0.0,-55.827026,61.69922,-30.690308
1766498007280,-0.88183594,-0.3696289,0.26953125,-0.18310547,2.1362305,0.0,0.0,0.0,0.0,-55.827026,61.69922,-30.690308
1766498007292,-0.88183594,-0.3696289,0.26953125,-0.18310547,2.1362305,0.0,0.0,0.0,0.0,-56.17859,61.77063,-30.942993
1766498007380,-0.88916016,-0.39990234,0.24609375,1.6479492,3.2348633,-1.2817383,0.0,0.0,0.0,-56.17859,61.77063,-30.942993
1766498007391,-0.88916016,-0.39990234,0.24609375,1.6479492,3.2348633,-1.2817383,0.0,0.0,0.0,-56.453247,61.84204,-31.453857
1766498007480,-0.88671875,-0.37890625,0.25976562,0.6713867,0.6713867,-0.9765625,0.0,0.0,0.0,-56.453247,61.84204,-31.453857
1766498007491,-0.88671875,-0.37890625,0.25976562,0.6713867,0.6713867,-0.9765625,0.0,0.0,0.0,-56.82129,61.89148,-31.827393
1766498007580,-0.8857422,-0.39648438,0.24902344,0.4272461,2.6245117,-0.91552734,0.0,0.0,0.0,-56.82129,61.89148,-31.827393
1766498007591,-0.8857422,-0.39648438,0.24902344,0.4272461,2.6245117,-0.91552734,0.0,0.0,0.0,-57.106934,61.902466,-32.250366
1766498007679,-0.8857422,-0.390625,0.24804688,0.9765625,2.0141602,-0.79345703,0.0,0.0,0.0,-57.106934,61.902466,-32.250366
1766498007691,-0.8857422,-0.390625,0.24804688,0.9765625,2.0141602,-0.79345703,0.0,0.0,0.0,-57.35962,61.968384,-32.49756
1766498007779,-0.8857422,-0.3935547,0.2475586,-0.79345703,0.48828125,-0.4272461,0.0,0.0,0.0,-57.35962,61.968384,-32.49756
1766498007790,-0.8857422,-0.3935547,0.2475586,-0.79345703,0.48828125,-0.4272461,0.0,0.0,0.0,-57.612305,61.984863,-32.7063
1766498007878,-0.8886719,-0.38867188,0.24658203,-0.91552734,1.2817383,0.18310547,0.0,0.0,0.0,-57.612305,61.984863,-32.7063
1766498007890,-0.8886719,-0.38867188,0.24658203,-0.91552734,1.2817383,0.18310547,0.0,0.0,0.0,-57.804565,62.023315,-32.750244
1766498007978,-0.8911133,-0.39013672,0.24804688,-0.9765625,0.061035156,0.0,0.0,0.0,0.0,-57.804565,62.023315,-32.750244
1766498007990,-0.8911133,-0.39013672,0.24804688,-0.9765625,0.061035156,0.0,0.0,0.0,0.0,-58.024292,62.089233,-32.93701
1766498008078,-0.87890625,-0.38476562,0.24414062,-1.0986328,0.7324219,0.24414062,0.0,0.0,0.0,-58.024292,62.089233,-32.93701
1766498008089,-0.87890625,-0.38476562,0.24414062,-1.0986328,0.7324219,0.24414062,0.0,0.0,0.0,-58.05725,62.127686,-32.77771
1766498008178,-0.89208984,-0.39453125,0.23632812,-0.79345703,-0.91552734,0.24414062,0.0,0.0,0.0,-58.05725,62.127686,-32.77771
1766498008189,-0.89208984,-0.39453125,0.23632812,-0.79345703,-0.91552734,0.24414062,0.0,0.0,0.0,-57.98584,62.13318,-32.56897
1766498008277,-0.8833008,-0.39111328,0.24560547,-0.36621094,-0.30517578,-0.30517578,0.0,0.0,0.0,-57.98584,62.13318,-32.56897
1766498008289,-0.8833008,-0.39111328,0.24560547,-0.36621094,-0.30517578,-0.30517578,0.0,0.0,0.0,-58.04077,62.13867,-32.525024
1766498008377,-0.88916016,-0.39111328,0.23876953,-1.0375977,-0.18310547,-0.24414062,0.0,0.0,0.0,-58.04077,62.13867,-32.525024
1766498008389,-0.88916016,-0.39111328,0.23876953,-1.0375977,-0.18310547,-0.24414062,0.0,0.0,0.0,-58.007812,62.111206,-32.338257
1766498008477,-0.88623047,-0.39111328,0.24121094,-1.2207031,-1.4038086,0.24414062,0.0,0.0,0.0,-58.007812,62.111206,-32.338257
1766498008488,-0.88623047,-0.39111328,0.24121094,-1.2207031,-1.4038086,0.24414062,0.0,0.0,0.0,-58.013306,62.094727,-32.140503
1766498008576,-0.8876953,-0.39111328,0.2421875,-0.061035156,-0.48828125,0.0,0.0,0.0,0.0,-58.013306,62.094727,-32.140503
1766498008588,-0.8876953,-0.39111328,0.2421875,-0.061035156,-0.48828125,0.0,0.0,0.0,0.0,-57.903442,62.06726,-31.904297
1766498008676,-0.8886719,-0.39160156,0.24267578,0.30517578,-0.61035156,-0.5493164,0.0,0.0,0.0,-57.903442,62.06726,-31.904297
1766498008688,-0.8886719,-0.39160156,0.24267578,0.30517578,-0.61035156,-0.5493164,0.0,0.0,0.0,-57.821045,62.01233,-31.755981
1766498008776,-0.8808594,-0.3935547,0.24121094,1.0986328,0.6713867,-0.4272461,0.0,0.0,0.0,-57.821045,62.01233,-31.755981
1766498008788,-0.8808594,-0.3935547,0.24121094,1.0986328,0.6713867,-0.4272461,0.0,0.0,0.0,-57.804565,61.990356,-31.71753
1766498008876,-0.8935547,-0.39990234,0.23291016,-0.24414062,-1.7700195,0.24414062,0.0,0.0,0.0,-57.804565,61.990356,-31.71753
1766498008887,-0.8935547,-0.39990234,0.23291016,-0.24414062,-1.7700195,0.24414062,0.0,0.0,0.0,-57.683716,61.968384,-31.558228
1766498008975,-0.8823242,-0.38671875,0.2553711,0.79345703,-0.61035156,0.12207031,0.0,0.0,0.0,-57.683716,61.968384,-31.558228
1766498008987,-0.8823242,-0.38671875,0.2553711,0.79345703,-0.61035156,0.12207031,0.0,0.0,0.0,-57.749634,62.006836,-31.5802
1766498009075,-0.88623047,-0.3935547,0.24169922,-0.061035156,-0.48828125,-0.18310547,0.0,0.0,0.0,-57.749634,62.006836,-31.5802
1766498009087,-0.88623047,-0.3935547,0.24169922,-0.061035156,-0.48828125,-0.18310547,0.0,0.0,0.0,-57.420044,61.94641,-31.212158
1766498009175,-0.88916016,-0.38964844,0.24707031,-0.5493164,-1.7700195,0.5493164,0.0,0.0,0.0,-57.420044,61.94641,-31.212158
1766498009187,-0.88916016,-0.38964844,0.24707031,-0.5493164,-1.7700195,0.5493164,0.0,0.0,0.0,-57.332153,61.913452,-31.04187
1766498009275,-0.8857422,-0.39257812,0.25048828,0.061035156,0.30517578,-0.30517578,0.0,0.0,0.0,-57.332153,61.913452,-31.04187
1766498009286,-0.8857422,-0.39257812,0.25048828,0.061035156,0.30517578,-0.30517578,0.0,0.0,0.0,-57.32666,61.913452,-31.030884
1766498009374,-0.88720703,-0.38867188,0.25,-0.24414062,-0.36621094,0.0,0.0,0.0,0.0,-57.32666,61.913452,-31.030884
1766498009386,-0.88720703,-0.38867188,0.25,-0.24414062,-0.36621094,0.0,0.0,0.0,0.0,-57.31018,61.913452,-30.964966
1766498009474,-0.88623047,-0.39160156,0.24951172,-0.4272461,-0.4272461,0.30517578,0.0,0.0,0.0,-57.31018,61.913452,-30.964966
1766498009485,-0.88623047,-0.39160156,0.24951172,-0.4272461,-0.4272461,0.30517578,0.0,0.0,0.0,-57.233276,61.92444,-30.844116
1766498009574,-0.8901367,-0.38867188,0.24609375,-0.30517578,0.0,0.30517578,0.0,0.0,0.0,-57.233276,61.92444,-30.844116
1766498009585,-0.8901367,-0.38867188,0.24609375,-0.30517578,0.0,0.30517578,0.0,0.0,0.0,-57.18933,61.951904,-30.74524
1766498009673,-0.8823242,-0.3881836,0.2529297,0.12207031,0.36621094,-0.4272461,0.0,0.0,0.0,-57.18933,61.951904,-30.74524
1766498009685,-0.8823242,-0.3881836,0.2529297,0.12207031,0.36621094,-0.4272461,0.0,0.0,0.0,-57.282715,61.984863,-30.926514
1766498009773,-0.88964844,-0.3876953,0.24121094,-1.4038086,0.24414062,0.36621094,0.0,0.0,0.0,-57.282715,61.984863,-30.926514
1766498009785,-0.88964844,-0.3876953,0.24121094,-1.4038086,0.24414062,0.36621094,0.0,0.0,0.0,-57.095947,61.951904,-30.646362
1766498009873,-0.8911133,-0.3930664,0.2446289,0.061035156,-1.0986328,0.18310547,0.0,0.0,0.0,-57.095947,61.951904,-30.646362
1766498009884,-0.8911133,-0.3930664,0.2446289,0.061035156,-1.0986328,0.18310547,0.0,0.0,0.0,-57.145386,61.968384,-30.706787
1766498009973,-0.87890625,-0.38183594,0.25830078,-0.061035156,-0.8544922,0.36621094,0.0,0.0,0.0,-57.145386,61.968384,-30.706787
1766498009984,-0.87890625,-0.38183594,0.25830078,-0.061035156,-0.8544922,0.36621094,0.0,0.0,0.0,-57.095947,61.951904,-30.662842
1766498010072,-0.89208984,-0.3930664,0.24414062,0.6713867,0.30517578,-0.30517578,0.0,0.0,0.0,-57.095947,61.951904,-30.662842
1766498010084,-0.89208984,-0.3930664,0.24414062,0.6713867,0.30517578,-0.30517578,0.0,0.0,0.0,-56.744385,61.92444,-30.267334
1766498010172,-0.88183594,-0.39208984,0.24951172,-0.12207031,0.0,-0.5493164,0.0,0.0,0.0,-56.744385,61.92444,-30.267334
1766498010184,-0.88183594,-0.39208984,0.24951172,-0.12207031,0.0,-0.5493164,0.0,0.0,0.0,-56.898193,61.92993,-30.459595
1766498010272,-0.8847656,-0.3881836,0.25390625,0.36621094,-0.36621094,0.0,0.0,0.0,0.0,-56.898193,61.92993,-30.459595
1766498010283,-0.8847656,-0.3881836,0.25390625,0.36621094,-0.36621094,0.0,0.0,0.0,0.0,-56.920166,61.913452,-30.476074
1766498010371,-0.88671875,-0.39208984,0.2529297,-0.18310547,-0.061035156,0.061035156,0.0,0.0,0.0,-56.920166,61.913452,-30.476074
1766498010383,-0.88671875,-0.39208984,0.2529297,-0.18310547,-0.061035156,0.061035156,0.0,0.0,0.0,-56.77185,61.90796,-30.333252
1766498010471,-0.8857422,-0.38232422,0.25585938,-0.12207031,0.91552734,-0.061035156,0.0,0.0,0.0,-56.77185,61.90796,-30.333252
1766498010483,-0.8857422,-0.38232422,0.25585938,-0.12207031,0.91552734,-0.061035156,0.0,0.0,0.0,-56.78833,61.918945,-30.338745
1766498010571,-0.8881836,-0.3881836,0.2553711,-0.36621094,-0.48828125,-0.18310547,0.0,0.0,0.0,-56.78833,61.918945,-30.338745
1766498010582,-0.8881836,-0.3881836,0.2553711,-0.36621094,-0.48828125,-0.18310547,0.0,0.0,0.0,-56.793823,61.918945,-30.410156
1766498010671,-0.88427734,-0.38427734,0.25390625,-0.4272461,0.6713867,-0.12207031,0.0,0.0,0.0,-56.793823,61.918945,-30.410156
1766498010682,-0.88427734,-0.38427734,0.25390625,-0.4272461,0.6713867,-0.12207031,0.0,0.0,0.0,-56.678467,61.90796,-30.250854
1766498010770,-0.88720703,-0.39208984,0.24707031,0.18310547,-0.4272461,0.0,0.0,0.0,0.0,-56.678467,61.90796,-30.250854
1766498010782,-0.88720703,-0.39208984,0.24707031,0.18310547,-0.4272461,0.0,0.0,0.0,0.0,-56.694946,61.913452,-30.305786
1766498010870,-0.8803711,-0.38623047,0.25830078,0.24414062,-0.30517578,0.061035156,0.0,0.0,0.0,-56.694946,61.913452,-30.305786
1766498010882,-0.8803711,-0.38623047,0.25830078,0.24414062,-0.30517578,0.061035156,0.0,0.0,0.0,-56.661987,61.913452,-30.256348
1766498010970,-0.89404297,-0.3955078,0.24511719,-0.18310547,0.6713867,0.0,0.0,0.0,0.0,-56.661987,61.913452,-30.256348
1766498010981,-0.89404297,-0.3955078,0.24511719,-0.18310547,0.6713867,0.0,0.0,0.0,0.0,-56.557617,61.935425,-30.119019
1766498011069,-0.87109375,-0.38476562,0.27148438,1.0375977,-0.18310547,-1.0986328,0.0,0.0,0.0,-56.557617,61.935425,-30.119019
1766498011081,-0.87109375,-0.38476562,0.27148438,1.0375977,-0.18310547,-1.0986328,0.0,0.0,0.0,-56.640015,61.940918,-30.162964
1766498011169,-0.890625,-0.3959961,0.23779297,-1.953125,-0.30517578,0.7324219,0.0,0.0,0.0,-56.640015,61.940918,-30.162964
1766498011181,-0.890625,-0.3959961,0.23779297,-1.953125,-0.30517578,0.7324219,0.0,0.0,0.0,-56.447754,61.853027,-29.96521
1766498011269,-0.8847656,-0.38476562,0.25195312,0.0,0.0,0.0,0.0,0.0,0.0,-56.447754,61.853027,-29.96521
1766498011281,-0.8847656,-0.38476562,0.25195312,0.0,0.0,0.0,0.0,0.0,0.0,-56.61255,61.92444,-30.080566
1766498011369,-0.8935547,-0.3876953,0.25683594,0.8544922,0.79345703,-0.4272461,0.0,0.0,0.0,-56.61255,61.92444,-30.080566
1766498011380,-0.8935547,-0.3876953,0.25683594,0.8544922,0.79345703,-0.4272461,0.0,0.0,0.0,-56.590576,61.957397,-30.08606
1766498011468,-0.8847656,-0.3852539,0.25048828,0.0,0.9765625,-0.30517578,0.0,0.0,0.0,-56.590576,61.957397,-30.08606
1766498011480,-0.8847656,-0.3852539,0.25048828,0.0,0.9765625,-0.30517578,0.0,0.0,0.0,-56.66748,61.973877,-30.239868
1766498011568,-0.8886719,-0.39160156,0.24023438,-0.18310547,0.36621094,-0.48828125,0.0,0.0,0.0,-56.66748,61.973877,-30.239868
1766498011580,-0.8886719,-0.39160156,0.24023438,-0.18310547,0.36621094,-0.48828125,0.0,0.0,0.0,-56.722412,61.96289,-30.344238
1766498011668,-0.88623047,-0.39160156,0.24853516,0.8544922,-0.061035156,-0.5493164,0.0,0.0,0.0,-56.722412,61.96289,-30.344238
1766498011679,-0.88623047,-0.39160156,0.24853516,0.8544922,-0.061035156,-0.5493164,0.0,0.0,0.0,-56.881714,61.96289,-30.580444
1766498011768,-0.88720703,-0.38134766,0.25341797,0.4272461,0.48828125,-0.30517578,0.0,0.0,0.0,-56.881714,61.96289,-30.580444
1766498011779,-0.88720703,-0.38134766,0.25341797,0.4272461,0.48828125,-0.30517578,0.0,0.0,0.0,-57.002563,61.96289,-30.734253
1766498011867,-0.8886719,-0.39208984,0.24658203,0.7324219,0.8544922,-0.36621094,0.0,0.0,0.0,-57.002563,61.96289,-30.734253
1766498011879,-0.8886719,-0.39208984,0.24658203,0.7324219,0.8544922,-0.36621094,0.0,0.0,0.0,-56.92566,61.94641,-30.662842
1766498011967,-0.88378906,-0.39257812,0.25146484,0.36621094,1.159668,-0.4272461,0.0,0.0,0.0,-56.92566,61.94641,-30.662842
1766498011978,-0.88378906,-0.39257812,0.25146484,0.36621094,1.159668,-0.4272461,0.0,0.0,0.0,-57.123413,61.99585,-30.926514
1766498012067,-0.8852539,-0.3881836,0.25048828,0.12207031,0.4272461,-0.48828125,0.0,0.0,0.0,-57.123413,61.99585,-30.926514
1766498012078,-0.8852539,-0.3881836,0.25048828,0.12207031,0.4272461,-0.48828125,0.0,0.0,0.0,-57.282715,61.990356,-31.102295
1766498012166,-0.8847656,-0.38964844,0.24853516,-0.12207031,0.24414062,-0.18310547,0.0,0.0,0.0,-57.282715,61.990356,-31.102295
1766498012178,-0.8847656,-0.38964844,0.24853516,-0.12207031,0.24414062,-0.18310547,0.0,0.0,0.0,-57.31018,61.990356,-31.113281
1766498012266,-0.88964844,-0.3876953,0.24267578,-0.9765625,0.36621094,0.5493164,0.0,0.0,0.0,-57.31018,61.990356,-31.113281
1766498012278,-0.88964844,-0.3876953,0.24267578,-0.9765625,0.36621094,0.5493164,0.0,0.0,0.0,-57.32666,62.045288,-31.080322
1766498012366,-0.8925781,-0.38671875,0.25048828,-0.36621094,-0.4272461,0.0,0.0,0.0,0.0,-57.32666,62.045288,-31.080322
1766498012377,-0.8925781,-0.38671875,0.25048828,-0.36621094,-0.4272461,0.0,0.0,0.0,0.0,-57.41455,62.078247,-31.190186
1766498012466,-0.88183594,-0.3852539,0.24609375,-0.48828125,1.4648438,0.0,0.0,0.0,0.0,-57.41455,62.078247,-31.190186
1766498012477,-0.88183594,-0.3852539,0.24609375,-0.48828125,1.4648438,0.0,0.0,0.0,0.0,-57.436523,62.111206,-31.113281
1766498012565,-0.89208984,-0.39160156,0.24072266,0.061035156,-0.24414062,-0.12207031,0.0,0.0,0.0,-57.436523,62.111206,-31.113281
1766498012577,-0.89208984,-0.39160156,0.24072266,0.061035156,-0.24414062,-0.12207031,0.0,0.0,0.0,-57.41455,62.1167,-31.080322
1766498012665,-0.88183594,-0.38427734,0.2529297,0.30517578,0.0,-0.4272461,0.0,0.0,0.0,-57.41455,62.1167,-31.080322
1766498012676,-0.88183594,-0.38427734,0.2529297,0.30517578,0.0,-0.4272461,0.0,0.0,0.0,-57.524414,62.1167,-31.190186
1766498012765,-0.88964844,-0.39111328,0.24316406,0.30517578,0.24414062,-0.36621094,0.0,0.0,0.0,-57.524414,62.1167,-31.190186
1766498012776,-0.88964844,-0.39111328,0.24316406,0.30517578,0.24414062,-0.36621094,0.0,0.0,0.0,-57.420044,62.089233,-31.096802
1766498012864,-0.88671875,-0.390625,0.24414062,0.18310547,-0.4272461,-0.24414062,0.0,0.0,0.0,-57.420044,62.089233,-31.096802
1766498012876,-0.88671875,-0.390625,0.24414062,0.18310547,-0.4272461,-0.24414062,0.0,0.0,0.0,-57.39807,62.072754,-31.07483
1766498012964,-0.88720703,-0.390625,0.24658203,0.36621094,-0.5493164,-0.12207031,0.0,0.0,0.0,-57.39807,62.072754,-31.07483
1766498012976,-0.88720703,-0.390625,0.24658203,0.36621094,-0.5493164,-0.12207031,0.0,0.0,0.0,-57.299194,62.039795,-30.95398
1766498013064,-0.8881836,-0.38964844,0.24707031,0.12207031,-0.24414062,-0.061035156,0.0,0.0,0.0,-57.299194,62.039795,-30.95398
1766498013076,-0.8881836,-0.38964844,0.24707031,0.12207031,-0.24414062,-0.061035156,0.0,0.0,0.0,-57.227783,62.023315,-30.827637
1766498013164,-0.88183594,-0.39111328,0.25,0.91552734,0.5493164,-0.36621094,0.0,0.0,0.0,-57.227783,62.023315,-30.827637
1766498013175,-0.88183594,-0.39111328,0.25,0.91552734,0.5493164,-0.36621094,0.0,0.0,0.0,-57.23877,62.0343,-30.838623
1766498013263,-0.89160156,-0.39453125,0.24316406,0.061035156,-1.5258789,0.061035156,0.0,0.0,0.0,-57.23877,62.0343,-30.838623
1766498013275,-0.89160156,-0.39453125,0.24316406,0.061035156,-1.5258789,0.061035156,0.0,0.0,0.0,-57.16736,62.017822,-30.794678
1766498013363,-0.88134766,-0.38134766,0.25878906,0.48828125,0.30517578,-0.18310547,0.0,0.0,0.0,-57.16736,62.017822,-30.794678
1766498013375,-0.88134766,-0.38134766,0.25878906,0.48828125,0.30517578,-0.18310547,0.0,0.0,0.0,-57.27722,62.056274,-30.866089
1766498013463,-0.88964844,-0.38964844,0.2421875,0.30517578,0.79345703,-0.61035156,0.0,0.0,0.0,-57.27722,62.056274,-30.866089
1766498013474,-0.88964844,-0.38964844,0.2421875,0.30517578,0.79345703,-0.61035156,0.0,0.0,0.0,-57.211304,62.05078,-30.838623
1766498013563,-0.8876953,-0.38964844,0.24609375,0.0,-0.79345703,-0.061035156,0.0,0.0,0.0,-57.211304,62.05078,-30.838623
1766498013574,-0.8876953,-0.38964844,0.24609375,0.0,-0.79345703,-0.061035156,0.0,0.0,0.0,-57.260742,62.039795,-30.893555
1766498013662,-0.88671875,-0.38867188,0.24853516,0.24414062,0.6713867,-0.48828125,0.0,0.0,0.0,-57.260742,62.039795,-30.893555
1766498013674,-0.88671875,-0.38867188,0.24853516,0.24414062,0.6713867,-0.48828125,0.0,0.0,0.0,-57.337646,62.05078,-30.997925
1766498013762,-0.8876953,-0.38964844,0.24853516,-0.18310547,0.0,0.061035156,0.0,0.0,0.0,-57.337646,62.05078,-30.997925
1766498013773,-0.8876953,-0.38964844,0.24853516,-0.18310547,0.0,0.061035156,0.0,0.0,0.0,-57.39807,62.061768,-31.085815
1766498013862,-0.88671875,-0.39013672,0.24560547,0.0,0.0,0.0,0.0,0.0,0.0,-57.39807,62.061768,-31.085815
1766498013873,-0.88671875,-0.39013672,0.24560547,0.0,0.0,0.0,0.0,0.0,0.0,-57.38159,62.078247,-31.052856
1766498013961,-0.8886719,-0.39208984,0.24023438,-0.30517578,-0.36621094,0.24414062,0.0,0.0,0.0,-57.38159,62.078247,-31.052856
1766498013973,-0.8886719,-0.39208984,0.24023438,-0.30517578,-0.36621094,0.24414062,0.0,0.0,0.0,-57.332153,62.078247,-30.942993
1766498014061,-0.88183594,-0.39160156,0.2446289,0.61035156,-0.12207031,-0.36621094,0.0,0.0,0.0,-57.332153,62.078247,-30.942993
1766498014072,-0.88183594,-0.39160156,0.2446289,0.61035156,-0.12207031,-0.36621094,0.0,0.0,0.0,-57.35962,62.105713,-30.959473
1766498014161,-0.89160156,-0.39257812,0.2397461,-0.36621094,-1.3427734,0.30517578,0.0,0.0,0.0,-57.35962,62.105713,-30.959473
1766498014172,-0.89160156,-0.39257812,0.2397461,-0.36621094,-1.3427734,0.30517578,0.0,0.0,0.0,-57.266235,62.061768,-30.893555
1766498014260,-0.8852539,-0.38671875,0.25,0.61035156,-0.18310547,0.0,0.0,0.0,0.0,-57.266235,62.061768,-30.893555
1766498014272,-0.8852539,-0.38671875,0.25,0.61035156,-0.18310547,0.0,0.0,0.0,0.0,-57.354126,62.111206,-30.948486
1766498014360,-0.8852539,-0.3881836,0.24658203,0.12207031,0.36621094,-0.30517578,0.0,0.0,0.0,-57.354126,62.111206,-30.948486
1766498014372,-0.8852539,-0.3881836,0.24658203,0.12207031,0.36621094,-0.30517578,0.0,0.0,0.0,-57.315674,62.105713,-30.915527
1766498014460,-0.8886719,-0.390625,0.24511719,-0.12207031,-0.91552734,0.24414062,0.0,0.0,0.0,-57.315674,62.105713,-30.915527
1766498014471,-0.8886719,-0.390625,0.24511719,-0.12207031,-0.91552734,0.24414062,0.0,0.0,0.0,-57.249756,62.08374,-30.83313
1766498014560,-0.88623047,-0.3881836,0.25048828,0.061035156,0.18310547,-0.24414062,0.0,0.0,0.0,-57.249756,62.08374,-30.83313
1766498014571,-0.88623047,-0.3881836,0.25048828,0.061035156,0.18310547,-0.24414062,0.0,0.0,0.0,-57.27173,62.094727,-30.860596
1766498014659,-0.88720703,-0.38623047,0.2475586,0.0,-0.12207031,-0.061035156,0.0,0.0,0.0,-57.27173,62.094727,-30.860596
1766498014671,-0.88720703,-0.38623047,0.2475586,0.0,-0.12207031,-0.061035156,0.0,0.0,0.0,-57.266235,62.10022,-30.838623
1766498014759,-0.8881836,-0.38916016,0.2475586,0.0,0.061035156,0.0,0.0,0.0,0.0,-57.266235,62.10022,-30.838623
1766498014771,-0.8881836,-0.38916016,0.2475586,0.0,0.061035156,0.0,0.0,0.0,0.0,-57.233276,62.111206,-30.794678
1766498014859,-0.88964844,-0.38964844,0.2421875,-0.18310547,-0.4272461,0.061035156,0.0,0.0,0.0,-57.233276,62.111206,-30.794678
1766498014870,-0.88964844,-0.38964844,0.2421875,-0.18310547,-0.4272461,0.061035156,0.0,0.0,0.0,-57.20581,62.1167,-30.761719
1766498014958,-0.88183594,-0.3876953,0.24414062,0.79345703,0.36621094,-0.61035156,0.0,0.0,0.0,-57.20581,62.1167,-30.761719
1766498014970,-0.88183594,-0.3876953,0.24414062,0.79345703,0.36621094,-0.61035156,0.0,0.0,0.0,-57.244263,62.13318,-30.822144
1766498015058,-0.890625,-0.38964844,0.2368164,-0.8544922,-0.91552734,0.24414062,0.0,0.0,0.0,-57.244263,62.13318,-30.822144
1766498015070,-0.890625,-0.38964844,0.2368164,-0.8544922,-0.91552734,0.24414062,0.0,0.0,0.0,-57.16736,62.089233,-30.761719
1766498015158,-0.8857422,-0.3881836,0.24853516,0.36621094,-1.0375977,0.061035156,0.0,0.0,0.0,-57.16736,62.089233,-30.761719
1766498015170,-0.8857422,-0.3881836,0.24853516,0.36621094,-1.0375977,0.061035156,0.0,0.0,0.0,-57.227783,62.1167,-30.81665
1766498015258,-0.88378906,-0.38378906,0.2529297,0.6713867,0.8544922,-0.48828125,0.0,0.0,0.0,-57.227783,62.1167,-30.81665
1766498015269,-0.88378906,-0.38378906,0.2529297,0.6713867,0.8544922,-0.48828125,0.0,0.0,0.0,-57.145386,62.10022,-30.71228
1766498015357,-0.88964844,-0.38916016,0.24707031,-0.36621094,-1.4648438,0.4272461,0.0,0.0,0.0,-57.145386,62.10022,-30.71228
1766498015369,-0.88964844,-0.38916016,0.24707031,-0.36621094,-1.4648438,0.4272461,0.0,0.0,0.0,-57.052002,62.08374,-30.602417
1766498015457,-0.8881836,-0.38623047,0.25,0.0,0.36621094,-0.24414062,0.0,0.0,0.0,-57.052002,62.08374,-30.602417
1766498015469,-0.8881836,-0.38623047,0.25,0.0,0.36621094,-0.24414062,0.0,0.0,0.0,-57.08496,62.10022,-30.64087
1766498015557,-0.8857422,-0.38720703,0.24707031,0.0,-0.061035156,-0.12207031,0.0,0.0,0.0,-57.08496,62.10022,-30.64087
1766498015568,-0.8857422,-0.38720703,0.24707031,0.0,-0.061035156,-0.12207031,0.0,0.0,0.0,-57.090454,62.105713,-30.657349
1766498015656,-0.8901367,-0.3857422,0.24853516,0.061035156,-0.48828125,0.061035156,0.0,0.0,0.0,-57.090454,62.105713,-30.657349
1766498015668,-0.8901367,-0.3857422,0.24853516,0.061035156,-0.48828125,0.061035156,0.0,0.0,0.0,-57.008057,62.105713,-30.536499
1766498015756,-0.8876953,-0.3876953,0.2475586,0.36621094,-0.061035156,0.061035156,0.0,0.0,0.0,-57.008057,62.105713,-30.536499
1766498015768,-0.8876953,-0.3876953,0.2475586,0.36621094,-0.061035156,0.061035156,0.0,0.0,0.0,-56.953125,62.122192,-30.492554
1766498015856,-0.8833008,-0.38916016,0.25,0.5493164,-0.18310547,0.0,0.0,0.0,0.0,-56.953125,62.122192,-30.492554
1766498015868,-0.8833008,-0.38916016,0.25,0.5493164,-0.18310547,0.0,0.0,0.0,0.0,-56.920166,62.13867,-30.470581
1766498015956,-0.8935547,-0.38867188,0.24511719,0.0,-1.6479492,0.4272461,0.0,0.0,0.0,-56.920166,62.13867,-30.470581
1766498015967,-0.8935547,-0.38867188,0.24511719,0.0,-1.6479492,0.4272461,0.0,0.0,0.0,-56.810303,62.127686,-30.344238
1766498016055,-0.8857422,-0.38232422,0.25976562,1.2207031,1.2817383,-0.5493164,0.0,0.0,0.0,-56.810303,62.127686,-30.344238
1766498016067,-0.8857422,-0.38232422,0.25976562,1.2207031,1.2817383,-0.5493164,0.0,0.0,0.0,-56.87622,62.166138,-30.421143
1766498016155,-0.89160156,-0.38378906,0.24902344,0.4272461,0.8544922,0.18310547,0.0,0.0,0.0,-56.87622,62.166138,-30.421143
1766498016167,-0.89160156,-0.38378906,0.24902344,0.4272461,0.8544922,0.18310547,0.0,0.0,0.0,-56.82129,62.193604,-30.432129
1766498016255,-0.8823242,-0.38623047,0.24023438,0.36621094,-1.2817383,3.0517578,0.0,0.0,0.0,-56.82129,62.193604,-30.432129
1766498016266,-0.8823242,-0.38623047,0.24023438,0.36621094,-1.2817383,3.0517578,0.0,0.0,0.0,-56.51367,62.352905,-30.179443
1766498016355,-0.89990234,-0.37402344,0.24951172,0.79345703,0.12207031,-0.24414062,0.0,0.0,0.0,-56.51367,62.352905,-30.179443
1766498016366,-0.89990234,-0.37402344,0.24951172,0.79345703,0.12207031,-0.24414062,0.0,0.0,0.0,-56.260986,62.424316,-29.882812
1766498016454,-0.8808594,-0.3930664,0.26904297,1.8920898,1.159668,-1.0986328,0.0,0.0,0.0,-56.260986,62.424316,-29.882812
1766498016466,-0.8808594,-0.3930664,0.26904297,1.8920898,1.159668,-1.0986328,0.0,0.0,0.0,-56.640015,62.39685,-30.618896
1766498016554,-0.8876953,-0.37402344,0.25341797,0.61035156,0.12207031,2.8076172,0.0,0.0,0.0,-56.640015,62.39685,-30.618896
1766498016565,-0.8876953,-0.37402344,0.25341797,0.61035156,0.12207031,2.8076172,0.0,0.0,0.0,-56.359863,62.490234,-30.327759
1766498016654,-0.91503906,-0.3696289,0.22851562,0.0,-0.7324219,3.2348633,0.0,0.0,0.0,-56.359863,62.490234,-30.327759
1766498016665,-0.91503906,-0.3696289,0.22851562,0.0,-0.7324219,3.2348633,0.0,0.0,0.0,-55.717163,62.704468,-29.53125
1766498016753,-0.8823242,-0.3647461,0.26757812,2.9296875,4.4555664,-1.7700195,0.0,0.0,0.0,-55.717163,62.704468,-29.53125
1766498016765,-0.8823242,-0.3647461,0.26757812,2.9296875,4.4555664,-1.7700195,0.0,0.0,0.0,-56.134644,62.913208,-30.091553
1766498016853,-0.89746094,-0.37695312,0.23632812,-3.4179688,-4.211426,0.6713867,0.0,0.0,0.0,-56.134644,62.913208,-30.091553
1766498016865,-0.89746094,-0.37695312,0.23632812,-3.4179688,-4.211426,0.6713867,0.0,0.0,0.0,-56.07422,62.819824,-29.954224
1766498016953,-0.89208984,-0.36621094,0.26464844,0.79345703,-0.6713867,-0.48828125,0.0,0.0,0.0,-56.07422,62.819824,-29.954224
1766498016964,-0.89208984,-0.36621094,0.26464844,0.79345703,-0.6713867,-0.48828125,0.0,0.0,0.0,-56.07422,62.808838,-29.800415
1766498017052,-0.89208984,-0.38232422,0.24267578,0.36621094,1.7089844,-1.6479492,0.0,0.0,0.0,-56.07422,62.808838,-29.800415
1766498017064,-0.89208984,-0.38232422,0.24267578,0.36621094,1.7089844,-1.6479492,0.0,0.0,0.0,-56.0907,62.77588,-29.943237
1766498017152,-0.88916016,-0.37304688,0.25097656,0.91552734,-2.0751953,-0.30517578,0.0,0.0,0.0,-56.0907,62.77588,-29.943237
1766498017164,-0.88916016,-0.37304688,0.25097656,0.91552734,-2.0751953,-0.30517578,0.0,0.0,0.0,-56.206055,62.660522,-30.119019
1766498017252,-0.89501953,-0.37646484,0.25048828,0.36621094,0.9765625,-0.12207031,0.0,0.0,0.0,-56.206055,62.660522,-30.119019
1766498017263,-0.89501953,-0.37646484,0.25048828,0.36621094,0.9765625,-0.12207031,0.0,0.0,0.0,-56.013794,62.616577,-29.915771
1766498017352,-0.89160156,-0.37304688,0.24951172,-0.30517578,0.18310547,-0.7324219,0.0,0.0,0.0,-56.013794,62.616577,-29.915771
1766498017363,-0.89160156,-0.37304688,0.24951172,-0.30517578,0.18310547,-0.7324219,0.0,0.0,0.0,-56.134644,62.65503,-30.003662
1766498017451,-0.88964844,-0.3779297,0.2475586,-0.6713867,-1.953125,0.61035156,0.0,0.0,0.0,-56.134644,62.65503,-30.003662
1766498017463,-0.88964844,-0.3779297,0.2475586,-0.6713867,-1.953125,0.61035156,0.0,0.0,0.0,-56.167603,62.660522,-30.075073
1766498017551,-0.8959961,-0.3774414,0.25146484,1.0986328,0.61035156,-0.4272461,0.0,0.0,0.0,-56.167603,62.660522,-30.075073
1766498017563,-0.8959961,-0.3774414,0.25146484,1.0986328,0.61035156,-0.4272461,0.0,0.0,0.0,-56.068726,62.65503,-29.959717
1766498017651,-0.8881836,-0.37548828,0.24609375,0.7324219,1.0375977,-0.48828125,0.0,0.0,0.0,-56.068726,62.65503,-29.959717
1766498017663,-0.8881836,-0.37548828,0.24609375,0.7324219,1.0375977,-0.48828125,0.0,0.0,0.0,-56.118164,62.69348,-29.976196
1766498017751,-0.8959961,-0.3828125,0.24414062,-0.12207031,-1.7089844,0.30517578,0.0,0.0,0.0,-56.118164,62.69348,-29.976196
1766498017762,-0.8959961,-0.3828125,0.24414062,-0.12207031,-1.7089844,0.30517578,0.0,0.0,0.0,-56.140137,62.682495,-30.025635
1766498017850,-0.88964844,-0.36816406,0.25927734,0.5493164,0.8544922,0.0,0.0,0.0,0.0,-56.140137,62.682495,-30.025635
1766498017862,-0.88964844,-0.36816406,0.25927734,0.5493164,0.8544922,0.0,0.0,0.0,0.0,-56.123657,62.74292,-29.904785
1766498017950,-0.890625,-0.37402344,0.24365234,-0.24414062,0.9765625,-0.7324219,0.0,0.0,0.0,-56.123657,62.74292,-29.904785
1766498017961,-0.890625,-0.37402344,0.24365234,-0.24414062,0.9765625,-0.7324219,0.0,0.0,0.0,-56.222534,62.79236,-30.064087
1766498018050,-0.88964844,-0.3779297,0.24951172,0.12207031,-0.61035156,0.12207031,0.0,0.0,0.0,-56.222534,62.79236,-30.064087
1766498018061,-0.88964844,-0.3779297,0.24951172,0.12207031,-0.61035156,0.12207031,0.0,0.0,0.0,-56.343384,62.781372,-30.20691
1766498018149,-0.8984375,-0.3720703,0.24267578,-0.5493164,0.48828125,-0.12207031,0.0,0.0,0.0,-56.343384,62.781372,-30.20691
1766498018161,-0.8984375,-0.3720703,0.24267578,-0.5493164,0.48828125,-0.12207031,0.0,0.0,0.0,-56.260986,62.764893,-30.036621
1766498018249,-0.8911133,-0.37646484,0.25048828,-0.18310547,-0.30517578,-0.61035156,0.0,0.0,0.0,-56.260986,62.764893,-30.036621
1766498018261,-0.8911133,-0.37646484,0.25048828,-0.18310547,-0.30517578,-0.61035156,0.0,0.0,0.0,-56.486206,62.781372,-30.27832
1766498018349,-0.890625,-0.37695312,0.24609375,-0.9765625,-0.79345703,0.061035156,0.0,0.0,0.0,-56.486206,62.781372,-30.27832
1766498018360,-0.890625,-0.37695312,0.24609375,-0.9765625,-0.79345703,0.061035156,0.0,0.0,0.0,-56.47522,62.7594,-30.201416
1766498018448,-0.8979492,-0.3857422,0.2421875,0.061035156,-0.36621094,0.0,0.0,0.0,0.0,-56.47522,62.7594,-30.201416
1766498018460,-0.8979492,-0.3857422,0.2421875,0.061035156,-0.36621094,0.0,0.0,0.0,0.0,-56.436768,62.74292,-30.140991
1766498018548,-0.88623047,-0.37353516,0.24707031,2.380371,1.4038086,-0.8544922,0.0,0.0,0.0,-56.436768,62.74292,-30.140991
1766498018560,-0.88623047,-0.37353516,0.24707031,2.380371,1.4038086,-0.8544922,0.0,0.0,0.0,-56.47522,62.764893,-30.162964
1766498018648,-0.890625,-0.38671875,0.2421875,0.48828125,-0.5493164,0.4272461,0.0,0.0,0.0,-56.47522,62.764893,-30.162964
1766498018659,-0.890625,-0.38671875,0.2421875,0.48828125,-0.5493164,0.4272461,0.0,0.0,0.0,-56.244507,62.731934,-30.042114
1766498018748,-0.89697266,-0.37353516,0.24707031,1.7700195,0.18310547,0.6713867,0.0,0.0,0.0,-56.244507,62.731934,-30.042114
1766498018759,-0.89697266,-0.37353516,0.24707031,1.7700195,0.18310547,0.6713867,0.0,0.0,0.0,-56.14563,62.781372,-29.959717
1766498018847,-0.890625,-0.37060547,0.24072266,-1.4038086,0.6713867,3.4179688,0.0,0.0,0.0,-56.14563,62.781372,-29.959717
1766498018859,-0.890625,-0.37060547,0.24072266,-1.4038086,0.6713867,3.4179688,0.0,0.0,0.0,-56.05774,63.0011,-29.932251
1766498018947,-0.8979492,-0.36328125,0.24121094,-2.5634766,-2.9296875,0.24414062,0.0,0.0,0.0,-56.05774,63.0011,-29.932251
1766498018959,-0.8979492,-0.36328125,0.24121094,-2.5634766,-2.9296875,0.24414062,0.0,0.0,0.0,-55.88745,63.083496,-29.509277
1766498019047,-0.88671875,-0.36572266,0.25878906,0.4272461,-0.7324219,-2.2583008,0.0,0.0,0.0,-55.88745,63.083496,-29.509277
1766498019058,-0.88671875,-0.36572266,0.25878906,0.4272461,-0.7324219,-2.2583008,0.0,0.0,0.0,-55.821533,62.973633,-29.28955
1766498019146,-0.8881836,-0.39404297,0.24902344,-0.91552734,-1.159668,-1.159668,0.0,0.0,0.0,-55.821533,62.973633,-29.28955
1766498019158,-0.8881836,-0.39404297,0.24902344,-0.91552734,-1.159668,-1.159668,0.0,0.0,0.0,-55.76111,62.737427,-29.382935
1766498019246,-0.91015625,-0.34423828,0.24658203,-1.6479492,-1.953125,0.12207031,0.0,0.0,0.0,-55.76111,62.737427,-29.382935
1766498019258,-0.91015625,-0.34423828,0.24658203,-1.6479492,-1.953125,0.12207031,0.0,0.0,0.0,-55.55237,62.539673,-28.80066
1766498019346,-0.88623047,-0.3857422,0.24902344,2.0751953,1.4648438,0.0,0.0,0.0,0.0,-55.55237,62.539673,-28.80066
1766498019357,-0.88623047,-0.3857422,0.24902344,2.0751953,1.4648438,0.0,0.0,0.0,0.0,-55.72815,62.58362,-29.251099
1766498019446,-0.8881836,-0.37402344,0.26171875,-1.0375977,-1.4038086,-0.30517578,0.0,0.0,0.0,-55.72815,62.58362,-29.251099
1766498019457,-0.8881836,-0.37402344,0.26171875,-1.0375977,-1.4038086,-0.30517578,0.0,0.0,0.0,-55.750122,62.627563,-29.284058
1766498019545,-0.89697266,-0.37695312,0.2421875,0.8544922,-0.061035156,-1.0986328,0.0,0.0,0.0,-55.750122,62.627563,-29.284058
1766498019557,-0.89697266,-0.37695312,0.2421875,0.8544922,-0.061035156,-1.0986328,0.0,0.0,0.0,-55.546875,62.490234,-29.047852
1766498019645,-0.88720703,-0.37939453,0.2553711,1.159668,0.6713867,-0.91552734,0.0,0.0,0.0,-55.546875,62.490234,-29.047852
1766498019657,-0.88720703,-0.37939453,0.2553711,1.159668,0.6713867,-0.91552734,0.0,0.0,0.0,-55.827026,62.490234,-29.503784
1766498019745,-0.8911133,-0.3725586,0.25048828,-0.7324219,-0.12207031,0.30517578,0.0,0.0,0.0,-55.827026,62.490234,-29.503784
1766498019756,-0.8911133,-0.3725586,0.25048828,-0.7324219,-0.12207031,0.30517578,0.0,0.0,0.0,-55.849,62.48474,-29.481812
1766498019844,-0.9003906,-0.3696289,0.25927734,6.286621,3.7841797,-2.5634766,0.0,0.0,0.0,-55.849,62.48474,-29.481812
1766498019856,-0.9003906,-0.3696289,0.25927734,6.286621,3.7841797,-2.5634766,0.0,0.0,0.0,-55.964355,62.523193,-29.94873
1766498019944,-0.87939453,-0.40625,0.24951172,0.6713867,1.3427734,-2.4414062,0.0,0.0,0.0,-55.964355,62.523193,-29.94873
1766498019956,-0.87939453,-0.40625,0.24951172,0.6713867,1.3427734,-2.4414062,0.0,0.0,0.0,-56.4917,62.48474,-30.970459
1766498020044,-0.9003906,-0.3618164,0.2446289,-0.79345703,1.159668,0.0,0.0,0.0,0.0,-56.4917,62.48474,-30.970459
1766498020056,-0.9003906,-0.3618164,0.2446289,-0.79345703,1.159668,0.0,0.0,0.0,0.0,-56.61255,62.39685,-30.80017
1766498020144,-0.8935547,-0.39257812,0.2631836,9.765625,4.760742,-3.0517578,0.0,0.0,0.0,-56.61255,62.39685,-30.80017
1766498020155,-0.8935547,-0.39257812,0.2631836,9.765625,4.760742,-3.0517578,0.0,0.0,0.0,-56.656494,62.44629,-31.519775
1766498020243,-0.8754883,-0.37646484,0.25195312,1.7700195,3.2348633,1.2207031,0.0,0.0,0.0,-56.656494,62.44629,-31.519775
1766498020255,-0.8754883,-0.37646484,0.25195312,1.7700195,3.2348633,1.2207031,0.0,0.0,0.0,-56.84326,62.56714,-32.261353
1766498020343,-0.8935547,-0.36767578,0.23291016,0.30517578,0.61035156,0.0,0.0,0.0,0.0,-56.84326,62.56714,-32.261353
1766498020355,-0.8935547,-0.36767578,0.23291016,0.30517578,0.61035156,0.0,0.0,0.0,0.0,-57.090454,62.698975,-32.64038
1766498020443,-0.9145508,-0.3881836,0.2368164,-3.90625,-1.0986328,-0.7324219,0.0,0.0,0.0,-57.090454,62.698975,-32.64038
1766498020454,-0.9145508,-0.3881836,0.2368164,-3.90625,-1.0986328,-0.7324219,0.0,0.0,0.0,-57.25525,62.660522,-32.27234
1766498020543,-0.88183594,-0.39013672,0.22998047,0.5493164,-0.4272461,0.6713867,0.0,0.0,0.0,-57.25525,62.660522,-32.27234
1766498020555,-0.88183594,-0.39013672,0.22998047,0.5493164,-0.4272461,0.6713867,0.0,0.0,0.0,-57.425537,62.72644,-32.53601
1766498020642,-0.8779297,-0.38085938,0.26220703,-2.9907227,-2.746582,-2.5634766,0.0,0.0,0.0,-57.425537,62.72644,-32.53601
1766498020654,-0.8779297,-0.38085938,0.26220703,-2.9907227,-2.746582,-2.5634766,0.0,0.0,0.0,-57.590332,62.506714,-32.244873
1766498020742,-0.8935547,-0.3881836,0.24023438,2.319336,-2.1972656,-3.6621094,0.0,0.0,0.0,-57.590332,62.506714,-32.244873
1766498020753,-0.8935547,-0.3881836,0.24023438,2.319336,-2.1972656,-3.6621094,0.0,0.0,0.0,-57.17285,62.02881,-31.695557
1766498020842,-0.88427734,-0.39013672,0.24316406,-1.7700195,-1.5258789,0.61035156,0.0,0.0,0.0,-57.17285,62.02881,-31.695557
1766498020853,-0.88427734,-0.39013672,0.24316406,-1.7700195,-1.5258789,0.61035156,0.0,0.0,0.0,-56.92566,61.913452,-31.38794
1766498020941,-0.8798828,-0.39648438,0.25976562,-1.0375977,0.4272461,0.30517578,0.0,0.0,0.0,-56.92566,61.913452,-31.38794
1766498020953,-0.8798828,-0.39648438,0.25976562,-1.0375977,0.4272461,0.30517578,0.0,0.0,0.0,-57.139893,62.006836,-31.470337
1766498021041,-0.8857422,-0.39111328,0.24951172,-1.5258789,-1.2817383,-0.30517578,0.0,0.0,0.0,-57.139893,62.006836,-31.470337
1766498021052,-0.8857422,-0.39111328,0.24951172,-1.5258789,-1.2817383,-0.30517578,0.0,0.0,0.0,-57.161865,61.97937,-31.305542
1766498021141,-0.88720703,-0.39208984,0.25146484,0.18310547,-1.0375977,-0.6713867,0.0,0.0,0.0,-57.161865,61.97937,-31.305542
1766498021152,-0.88720703,-0.39208984,0.25146484,0.18310547,-1.0375977,-0.6713867,0.0,0.0,0.0,-57.035522,61.85852,-31.151733
1766498021240,-0.88623047,-0.3828125,0.24902344,-1.8920898,0.30517578,0.18310547,0.0,0.0,0.0,-57.035522,61.85852,-31.151733
1766498021252,-0.88623047,-0.3828125,0.24902344,-1.8920898,0.30517578,0.18310547,0.0,0.0,0.0,-57.128906,61.82556,-31.113281
1766498021340,-0.88720703,-0.39208984,0.24414062,-0.61035156,-1.159668,0.12207031,0.0,0.0,0.0,-57.128906,61.82556,-31.113281
1766498021351,-0.88720703,-0.39208984,0.24414062,-0.61035156,-1.159668,0.12207031,0.0,0.0,0.0,-57.090454,61.82007,-30.992432
1766498021440,-0.8833008,-0.39160156,0.25732422,-2.0141602,-3.4179688,0.79345703,0.0,0.0,0.0,-57.090454,61.82007,-30.992432
1766498021452,-0.8833008,-0.39160156,0.25732422,-2.0141602,-3.4179688,0.79345703,0.0,0.0,0.0,-56.8927,61.792603,-30.618896
1766498021540,-0.8876953,-0.38916016,0.25048828,-0.7324219,0.6713867,-0.4272461,0.0,0.0,0.0,-56.8927,61.792603,-30.618896
1766498021551,-0.8876953,-0.38916016,0.25048828,-0.7324219,0.6713867,-0.4272461,0.0,0.0,0.0,-56.898193,61.765137,-30.547485
1766498021639,-0.8828125,-0.39257812,0.24658203,0.061035156,0.12207031,-0.61035156,0.0,0.0,0.0,-56.898193,61.765137,-30.547485
1766498021651,-0.8828125,-0.39257812,0.24658203,0.061035156,0.12207031,-0.61035156,0.0,0.0,0.0,-57.01355,61.732178,-30.679321
1766498021739,-0.8833008,-0.39697266,0.25390625,0.0,0.18310547,-0.4272461,0.0,0.0,0.0,-57.01355,61.732178,-30.679321
1766498021750,-0.8833008,-0.39697266,0.25390625,0.0,0.18310547,-0.4272461,0.0,0.0,0.0,-57.019043,61.693726,-30.679321
1766498021839,-0.8911133,-0.39208984,0.24707031,-0.4272461,1.7089844,-0.6713867,0.0,0.0,0.0,-57.019043,61.693726,-30.679321
1766498021850,-0.8911133,-0.39208984,0.24707031,-0.4272461,1.7089844,-0.6713867,0.0,0.0,0.0,-57.052002,61.677246,-30.646362
1766498021938,-0.8779297,-0.3959961,0.25390625,0.18310547,1.0986328,-0.91552734,0.0,0.0,0.0,-57.052002,61.677246,-30.646362
1766498021950,-0.8779297,-0.3959961,0.25390625,0.18310547,1.0986328,-0.91552734,0.0,0.0,0.0,-57.58484,61.704712,-31.448364
1766498022038,-0.87841797,-0.38330078,0.2578125,-0.79345703,-0.12207031,0.9765625,0.0,0.0,0.0,-57.58484,61.704712,-31.448364
1766498022050,-0.87841797,-0.38330078,0.2578125,-0.79345703,-0.12207031,0.9765625,0.0,0.0,0.0,-57.44751,61.693726,-31.102295
1766498022138,-0.8964844,-0.41503906,0.22509766,-0.8544922,-0.6713867,1.2817383,0.0,0.0,0.0,-57.44751,61.693726,-31.102295
1766498022150,-0.8964844,-0.41503906,0.22509766,-0.8544922,-0.6713867,1.2817383,0.0,0.0,0.0,-57.06299,61.732178,-30.72876
1766498022237,-0.8754883,-0.37695312,0.2763672,1.5258789,1.0375977,-2.0751953,0.0,0.0,0.0,-57.06299,61.732178,-30.72876
1766498022249,-0.8754883,-0.37695312,0.2763672,1.5258789,1.0375977,-2.0751953,0.0,0.0,0.0,-57.44751,61.82007,-31.003418
1766498022337,-0.8876953,-0.4111328,0.23144531,-6.7749023,-1.5869141,2.8076172,0.0,0.0,0.0,-57.44751,61.82007,-31.003418
1766498022349,-0.8876953,-0.4111328,0.23144531,-6.7749023,-1.5869141,2.8076172,0.0,0.0,0.0,-57.41455,61.726685,-30.827637
1766498022437,-0.89160156,-0.37548828,0.24511719,-1.3427734,-0.79345703,1.159668,0.0,0.0,0.0,-57.41455,61.726685,-30.827637
1766498022449,-0.89160156,-0.37548828,0.24511719,-1.3427734,-0.79345703,1.159668,0.0,0.0,0.0,-57.38159,61.853027,-30.212402
1766498022537,-0.8911133,-0.39697266,0.2475586,-0.7324219,1.5869141,0.48828125,0.0,0.0,0.0,-57.38159,61.853027,-30.212402
1766498022549,-0.8911133,-0.39697266,0.2475586,-0.7324219,1.5869141,0.48828125,0.0,0.0,0.0,-57.573853,62.0343,-30.371704
1766498022636,-0.88427734,-0.3798828,0.2421875,-1.0375977,0.24414062,1.0375977,0.0,0.0,0.0,-57.573853,62.0343,-30.371704
1766498022648,-0.88427734,-0.3798828,0.2421875,-1.0375977,0.24414062,1.0375977,0.0,0.0,0.0,-57.799072,62.13318,-30.536499
1766498022736,-0.88623047,-0.39697266,0.2421875,1.6479492,-0.061035156,0.12207031,0.0,0.0,0.0,-57.799072,62.13318,-30.536499
1766498022748,-0.88623047,-0.39697266,0.2421875,1.6479492,-0.061035156,0.12207031,0.0,0.0,0.0,-57.562866,62.199097,-30.272827
1766498022836,-0.8886719,-0.39990234,0.2368164,-0.36621094,0.36621094,0.0,0.0,0.0,0.0,-57.562866,62.199097,-30.272827
1766498022847,-0.8886719,-0.39990234,0.2368164,-0.36621094,0.36621094,0.0,0.0,0.0,0.0,-57.420044,62.199097,-30.223389
1766498022936,-0.88916016,-0.38330078,0.24658203,0.48828125,-0.24414062,-0.6713867,0.0,0.0,0.0,-57.420044,62.199097,-30.223389
1766498022947,-0.88916016,-0.38330078,0.24658203,0.48828125,-0.24414062,-0.6713867,0.0,0.0,0.0,-57.667236,62.22107,-30.50354
1766498023035,-0.8911133,-0.3857422,0.23925781,-0.4272461,0.0,0.61035156,0.0,0.0,0.0,-57.667236,62.22107,-30.50354
1766498023047,-0.8911133,-0.3857422,0.23925781,-0.4272461,0.0,0.61035156,0.0,0.0,0.0,-57.55188,62.210083,-30.410156
1766498023135,-0.8886719,-0.38867188,0.24267578,0.36621094,-0.36621094,-0.12207031,0.0,0.0,0.0,-57.55188,62.210083,-30.410156
1766498023146,-0.8886719,-0.38867188,0.24267578,0.36621094,-0.36621094,-0.12207031,0.0,0.0,0.0,-57.524414,62.243042,-30.360718
1766498023235,-0.88964844,-0.38720703,0.24365234,0.30517578,0.6713867,-0.24414062,0.0,0.0,0.0,-57.524414,62.243042,-30.360718
1766498023246,-0.88964844,-0.38720703,0.24365234,0.30517578,0.6713867,-0.24414062,0.0,0.0,0.0,-57.546387,62.25952,-30.421143
1766498023334,-0.88916016,-0.3876953,0.2421875,0.5493164,0.061035156,0.0,0.0,0.0,0.0,-57.546387,62.25952,-30.421143
1766498023346,-0.88916016,-0.3876953,0.2421875,0.5493164,0.061035156,0.0,0.0,0.0,0.0,-57.562866,62.276,-30.498047
1766498023434,-0.8876953,-0.38623047,0.24609375,0.4272461,0.18310547,-0.48828125,0.0,0.0,0.0,-57.562866,62.276,-30.498047
1766498023446,-0.8876953,-0.38623047,0.24609375,0.4272461,0.18310547,-0.48828125,0.0,0.0,0.0,-57.524414,62.276,-30.50354
1766498023534,-0.88916016,-0.3857422,0.24853516,0.4272461,0.8544922,-0.4272461,0.0,0.0,0.0,-57.524414,62.276,-30.50354
1766498023546,-0.88916016,-0.3857422,0.24853516,0.4272461,0.8544922,-0.4272461,0.0,0.0,0.0,-57.562866,62.270508,-30.569458
1766498023634,-0.8930664,-0.38867188,0.24707031,0.7324219,0.12207031,-0.7324219,0.0,0.0,0.0,-57.562866,62.270508,-30.569458
1766498023645,-0.8930664,-0.38867188,0.24707031,0.7324219,0.12207031,-0.7324219,0.0,0.0,0.0,-57.65625,62.25403,-30.772705
1766498023733,-0.88427734,-0.38427734,0.25,0.61035156,1.0986328,-0.5493164,0.0,0.0,0.0,-57.65625,62.25403,-30.772705
1766498023745,-0.88427734,-0.38427734,0.25,0.61035156,1.0986328,-0.5493164,0.0,0.0,0.0,-57.60681,62.23755,-30.71228
1766498023833,-0.89160156,-0.39257812,0.23779297,0.36621094,-0.18310547,-0.061035156,0.0,0.0,0.0,-57.60681,62.23755,-30.71228
1766498023844,-0.89160156,-0.39257812,0.23779297,0.36621094,-0.18310547,-0.061035156,0.0,0.0,0.0,-57.55188,62.232056,-30.701294
1766498023933,-0.8847656,-0.3857422,0.24707031,0.0,-0.24414062,-0.12207031,0.0,0.0,0.0,-57.55188,62.232056,-30.701294
1766498023944,-0.8847656,-0.3857422,0.24707031,0.0,-0.24414062,-0.12207031,0.0,0.0,0.0,-57.573853,62.232056,-30.723267
1766498024032,-0.8925781,-0.390625,0.24121094,0.5493164,0.48828125,-0.18310547,0.0,0.0,0.0,-57.573853,62.232056,-30.723267
1766498024044,-0.8925781,-0.390625,0.24121094,0.5493164,0.48828125,-0.18310547,0.0,0.0,0.0,-57.49695,62.232056,-30.657349
1766498024132,-0.8886719,-0.38623047,0.24560547,0.30517578,0.24414062,-0.24414062,0.0,0.0,0.0,-57.49695,62.232056,-30.657349
1766498024145,-0.8886719,-0.38623047,0.24560547,0.30517578,0.24414062,-0.24414062,0.0,0.0,0.0,-57.55188,62.248535,-30.706787
1766498024232,-0.88671875,-0.38720703,0.24511719,0.24414062,0.18310547,-0.24414062,0.0,0.0,0.0,-57.55188,62.248535,-30.706787
1766498024243,-0.88671875,-0.38720703,0.24511719,0.24414062,0.18310547,-0.24414062,0.0,0.0,0.0,-57.55188,62.23755,-30.723267
1766498024332,-0.8911133,-0.3881836,0.24414062,-0.24414062,-0.061035156,0.061035156,0.0,0.0,0.0,-57.55188,62.23755,-30.723267
1766498024343,-0.8911133,-0.3881836,0.24414062,-0.24414062,-0.061035156,0.061035156,0.0,0.0,0.0,-57.50244,62.243042,-30.629883
1766498024431,-0.890625,-0.39013672,0.23925781,0.18310547,0.7324219,-0.30517578,0.0,0.0,0.0,-57.50244,62.243042,-30.629883
1766498024443,-0.890625,-0.39013672,0.23925781,0.18310547,0.7324219,-0.30517578,0.0,0.0,0.0,-57.612305,62.270508,-30.767212
1766498024531,-0.88427734,-0.3857422,0.2421875,0.8544922,0.6713867,-0.91552734,0.0,0.0,0.0,-57.612305,62.270508,-30.767212
1766498024543,-0.88427734,-0.3857422,0.2421875,0.8544922,0.6713867,-0.91552734,0.0,0.0,0.0,-57.749634,62.265015,-31.019897
1766498024631,-0.890625,-0.38964844,0.23535156,-0.061035156,0.79345703,-0.30517578,0.0,0.0,0.0,-57.749634,62.265015,-31.019897
1766498024642,-0.890625,-0.38964844,0.23535156,-0.061035156,0.79345703,-0.30517578,0.0,0.0,0.0,-57.738647,62.23755,-31.014404
1766498024731,-0.89160156,-0.390625,0.23925781,0.48828125,-0.24414062,-0.12207031,0.0,0.0,0.0,-57.738647,62.23755,-31.014404
1766498024742,-0.89160156,-0.390625,0.23925781,0.48828125,-0.24414062,-0.12207031,0.0,0.0,0.0,-57.755127,62.248535,-31.052856
1766498024831,-0.88378906,-0.38671875,0.24902344,0.30517578,-0.061035156,-0.12207031,0.0,0.0,0.0,-57.755127,62.248535,-31.052856
1766498024842,-0.88378906,-0.38671875,0.24902344,0.30517578,-0.061035156,-0.12207031,0.0,0.0,0.0,-57.782593,62.248535,-31.085815
1766498024930,-0.8901367,-0.39160156,0.23925781,0.5493164,0.36621094,-0.24414062,0.0,0.0,0.0,-57.782593,62.248535,-31.085815
1766498024942,-0.8901367,-0.39160156,0.23925781,0.5493164,0.36621094,-0.24414062,0.0,0.0,0.0,-57.65625,62.23755,-30.942993
1766498025030,-0.88720703,-0.38916016,0.24414062,0.4272461,0.0,-0.48828125,0.0,0.0,0.0,-57.65625,62.23755,-30.942993
1766498025041,-0.88720703,-0.38916016,0.24414062,0.4272461,0.0,-0.48828125,0.0,0.0,0.0,-57.694702,62.232056,-30.997925
1766498025129,-0.88720703,-0.3876953,0.2446289,0.24414062,-0.12207031,-0.18310547,0.0,0.0,0.0,-57.694702,62.232056,-30.997925
1766498025141,-0.88720703,-0.3876953,0.2446289,0.24414062,-0.12207031,-0.18310547,0.0,0.0,0.0,-57.678223,62.215576,-30.986938
1766498025229,-0.88916016,-0.38964844,0.24414062,-0.061035156,-0.5493164,0.12207031,0.0,0.0,0.0,-57.678223,62.215576,-30.986938
1766498025241,-0.88916016,-0.38964844,0.24414062,-0.061035156,-0.5493164,0.12207031,0.0,0.0,0.0,-57.60681,62.210083,-30.910034
1766498025329,-0.88916016,-0.3876953,0.24414062,0.30517578,0.12207031,-0.061035156,0.0,0.0,0.0,-57.60681,62.210083,-30.910034
1766498025340,-0.88916016,-0.3876953,0.24414062,0.30517578,0.12207031,-0.061035156,0.0,0.0,0.0,-57.58484,62.22107,-30.877075
1766498025428,-0.8803711,-0.3881836,0.24121094,1.2207031,0.30517578,-0.18310547,0.0,0.0,0.0,-57.58484,62.22107,-30.877075
1766498025440,-0.8803711,-0.3881836,0.24121094,1.2207031,0.30517578,-0.18310547,0.0,0.0,0.0,-57.546387,62.23755,-30.844116
1766498025528,-0.890625,-0.39160156,0.23828125,-0.061035156,-0.12207031,0.0,0.0,0.0,0.0,-57.546387,62.23755,-30.844116
1766498025540,-0.890625,-0.39160156,0.23828125,-0.061035156,-0.12207031,0.0,0.0,0.0,0.0,-57.436523,62.22107,-30.657349
1766498025628,-0.88671875,-0.3857422,0.25097656,0.5493164,-0.18310547,0.0,0.0,0.0,0.0,-57.436523,62.22107,-30.657349
1766498025639,-0.88671875,-0.3857422,0.25097656,0.5493164,-0.18310547,0.0,0.0,0.0,0.0,-57.409058,62.22107,-30.613403
1766498025728,-0.8847656,-0.38427734,0.24951172,-0.12207031,0.12207031,-0.24414062,0.0,0.0,0.0,-57.409058,62.22107,-30.613403
1766498025739,-0.8847656,-0.38427734,0.24951172,-0.12207031,0.12207031,-0.24414062,0.0,0.0,0.0,-57.39807,62.22107,-30.59143
1766498025827,-0.890625,-0.39013672,0.23876953,0.0,-0.5493164,0.12207031,0.0,0.0,0.0,-57.39807,62.22107,-30.59143
1766498025839,-0.890625,-0.39013672,0.23876953,0.0,-0.5493164,0.12207031,0.0,0.0,0.0,-57.27173,62.199097,-30.437622
1766498025927,-0.8847656,-0.38867188,0.24804688,0.12207031,-0.12207031,-0.061035156,0.0,0.0,0.0,-57.27173,62.199097,-30.437622
1766498025939,-0.8847656,-0.38867188,0.24804688,0.12207031,-0.12207031,-0.061035156,0.0,0.0,0.0,-57.321167,62.210083,-30.50354
1766498026027,-0.8876953,-0.38720703,0.24853516,0.12207031,-0.12207031,0.0,0.0,0.0,0.0,-57.321167,62.210083,-30.50354
1766498026038,-0.8876953,-0.38720703,0.24853516,0.12207031,-0.12207031,0.0,0.0,0.0,0.0,-57.288208,62.210083,-30.465088
1766498026126,-0.88720703,-0.38720703,0.24707031,0.18310547,0.0,-0.061035156,0.0,0.0,0.0,-57.288208,62.210083,-30.465088
1766498026138,-0.88720703,-0.38720703,0.24707031,0.18310547,0.0,-0.061035156,0.0,0.0,0.0,-57.249756,62.215576,-30.432129
1766498026226,-0.88916016,-0.38623047,0.24707031,0.36621094,0.18310547,-0.18310547,0.0,0.0,0.0,-57.249756,62.215576,-30.432129
1766498026238,-0.88916016,-0.38623047,0.24707031,0.36621094,0.18310547,-0.18310547,0.0,0.0,0.0,-57.244263,62.22107,-30.432129
1766498026326,-0.8833008,-0.38964844,0.24658203,0.61035156,0.12207031,-0.36621094,0.0,0.0,0.0,-57.244263,62.22107,-30.432129
1766498026338,-0.8833008,-0.38964844,0.24658203,0.61035156,0.12207031,-0.36621094,0.0,0.0,0.0,-57.260742,62.232056,-30.470581
1766498026426,-0.89160156,-0.39208984,0.24365234,0.061035156,-1.8920898,0.18310547,0.0,0.0,0.0,-57.260742,62.232056,-30.470581
1766498026438,-0.89160156,-0.39208984,0.24365234,0.061035156,-1.8920898,0.18310547,0.0,0.0,0.0,-57.211304,62.20459,-30.459595
1766498026525,-0.88378906,-0.3828125,0.25585938,0.61035156,0.61035156,-0.36621094,0.0,0.0,0.0,-57.211304,62.20459,-30.459595
1766498026537,-0.88378906,-0.3828125,0.25585938,0.61035156,0.61035156,-0.36621094,0.0,0.0,0.0,-57.233276,62.210083,-30.459595
1766498026625,-0.88916016,-0.38720703,0.24560547,0.30517578,0.30517578,-0.4272461,0.0,0.0,0.0,-57.233276,62.210083,-30.459595
1766498026637,-0.88916016,-0.38720703,0.24560547,0.30517578,0.30517578,-0.4272461,0.0,0.0,0.0,-57.15088,62.193604,-30.404663
1766498026725,-0.88916016,-0.3876953,0.24804688,-0.12207031,-1.0375977,0.18310547,0.0,0.0,0.0,-57.15088,62.193604,-30.404663
1766498026736,-0.88916016,-0.3876953,0.24804688,-0.12207031,-1.0375977,0.18310547,0.0,0.0,0.0,-57.123413,62.182617,-30.38269
1766498026824,-0.88623047,-0.3857422,0.24804688,0.18310547,0.5493164,-0.36621094,0.0,0.0,0.0,-57.123413,62.182617,-30.38269
1766498026836,-0.88623047,-0.3857422,0.24804688,0.18310547,0.5493164,-0.36621094,0.0,0.0,0.0,-57.106934,62.18811,-30.371704
1766498026924,-0.88916016,-0.3876953,0.24609375,-0.30517578,-0.36621094,0.0,0.0,0.0,0.0,-57.106934,62.18811,-30.371704
1766498026936,-0.88916016,-0.3876953,0.24609375,-0.30517578,-0.36621094,0.0,0.0,0.0,0.0,-57.11792,62.193604,-30.39917
1766498027024,-0.8857422,-0.38867188,0.24853516,0.0,-0.30517578,0.0,0.0,0.0,0.0,-57.11792,62.193604,-30.39917
1766498027035,-0.8857422,-0.38867188,0.24853516,0.0,-0.30517578,0.0,0.0,0.0,0.0,-57.10144,62.18811,-30.388184
1766498027124,-0.88623047,-0.38623047,0.24902344,-0.12207031,0.061035156,-0.18310547,0.0,0.0,0.0,-57.10144,62.18811,-30.388184
1766498027135,-0.88623047,-0.38623047,0.24902344,-0.12207031,0.061035156,-0.18310547,0.0,0.0,0.0,-57.035522,62.182617,-30.2948
1766498027224,-0.8881836,-0.38427734,0.24804688,-0.5493164,-0.061035156,0.12207031,0.0,0.0,0.0,-57.035522,62.182617,-30.2948
