timestamp,accX,accY,accZ,gyroX,gyroY,gyroZ,magX,magY,magZ,roll,pitch,yaw
1766498338458,-0.89941406,-0.33740234,0.2758789,-0.12207031,0.0,-0.24414062,0.0,0.0,0.0,-50.454712,63.720703,-24.290771
1766498338470,-0.89941406,-0.33740234,0.2758789,-0.12207031,0.0,-0.24414062,0.0,0.0,0.0,-50.4657,63.726196,-24.318237
1766498338559,-0.9033203,-0.33496094,0.27978516,0.0,-0.7324219,-0.12207031,0.0,0.0,0.0,-50.4657,63.726196,-24.318237
1766498338570,-0.9033203,-0.33496094,0.27978516,0.0,-0.7324219,-0.12207031,0.0,0.0,0.0,-50.4657,63.726196,-24.334717
1766498338658,-0.8979492,-0.33398438,0.27734375,0.12207031,0.5493164,-0.36621094,0.0,0.0,0.0,-50.4657,63.726196,-24.334717
1766498338670,-0.8979492,-0.33398438,0.27734375,0.12207031,0.5493164,-0.36621094,0.0,0.0,0.0,-50.388794,63.69873,-24.246826
1766498338758,-0.90185547,-0.3408203,0.2685547,0.5493164,0.61035156,-0.5493164,0.0,0.0,0.0,-50.388794,63.69873,-24.246826
1766498338769,-0.90185547,-0.3408203,0.2685547,0.5493164,0.61035156,-0.5493164,0.0,0.0,0.0,-50.43274,63.704224,-24.384155
1766498338858,-0.8984375,-0.33691406,0.2763672,0.12207031,-0.061035156,0.0,0.0,0.0,0.0,-50.43274,63.704224,-24.384155
1766498338870,-0.8984375,-0.33691406,0.2763672,0.12207031,-0.061035156,0.0,0.0,0.0,0.0,-50.454712,63.71521,-24.400635
1766498338961,-0.90185547,-0.33984375,0.27001953,0.48828125,0.79345703,-0.48828125,0.0,0.0,0.0,-50.454712,63.71521,-24.400635
1766498338969,-0.90185547,-0.33984375,0.27001953,0.48828125,0.79345703,-0.48828125,0.0,0.0,0.0,-50.43274,63.71521,-24.4281
1766498339060,-0.89941406,-0.33691406,0.27148438,0.30517578,0.30517578,-0.12207031,0.0,0.0,0.0,-50.43274,63.71521,-24.4281
1766498339068,-0.89941406,-0.33691406,0.27148438,0.30517578,0.30517578,-0.12207031,0.0,0.0,0.0,-50.548096,63.737183,-24.576416
1766498339157,-0.9008789,-0.33691406,0.27294922,0.18310547,0.0,0.061035156,0.0,0.0,0.0,-50.548096,63.737183,-24.576416
1766498339169,-0.9008789,-0.33691406,0.27294922,0.18310547,0.0,0.061035156,0.0,0.0,0.0,-50.542603,63.753662,-24.56543
1766498339256,-0.90185547,-0.33740234,0.27246094,0.0,0.30517578,-0.18310547,0.0,0.0,0.0,-50.542603,63.753662,-24.56543
1766498339268,-0.90185547,-0.33740234,0.27246094,0.0,0.30517578,-0.18310547,0.0,0.0,0.0,-50.559082,63.77014,-24.587402
1766498339356,-0.9003906,-0.3359375,0.27539062,0.0,0.48828125,0.0,0.0,0.0,0.0,-50.559082,63.77014,-24.587402
1766498339368,-0.9003906,-0.3359375,0.27539062,0.0,0.48828125,0.0,0.0,0.0,0.0,-50.60852,63.797607,-24.609375
1766498339456,-0.9042969,-0.33789062,0.27490234,0.36621094,-0.12207031,-0.48828125,0.0,0.0,0.0,-50.60852,63.797607,-24.609375
1766498339467,-0.9042969,-0.33789062,0.27490234,0.36621094,-0.12207031,-0.48828125,0.0,0.0,0.0,-50.690918,63.808594,-24.730225
1766498339555,-0.8979492,-0.3334961,0.27734375,0.4272461,0.79345703,-0.4272461,0.0,0.0,0.0,-50.690918,63.808594,-24.730225
1766498339567,-0.8979492,-0.3334961,0.27734375,0.4272461,0.79345703,-0.4272461,0.0,0.0,0.0,-50.690918,63.8031,-24.65332
1766498339655,-0.9038086,-0.34033203,0.26757812,-0.12207031,0.12207031,-0.24414062,0.0,0.0,0.0,-50.690918,63.8031,-24.65332
1766498339667,-0.9038086,-0.34033203,0.26757812,-0.12207031,0.12207031,-0.24414062,0.0,0.0,0.0,-50.740356,63.814087,-24.735718
1766498339755,-0.9008789,-0.33740234,0.27148438,0.12207031,-0.24414062,0.0,0.0,0.0,0.0,-50.740356,63.814087,-24.735718
1766498339766,-0.9008789,-0.33740234,0.27148438,0.12207031,-0.24414062,0.0,0.0,0.0,0.0,-50.76233,63.825073,-24.702759
1766498339855,-0.90234375,-0.3388672,0.2685547,0.4272461,0.6713867,-0.4272461,0.0,0.0,0.0,-50.76233,63.825073,-24.702759
1766498339866,-0.90234375,-0.3388672,0.2685547,0.4272461,0.6713867,-0.4272461,0.0,0.0,0.0,-50.756836,63.830566,-24.68628
1766498339954,-0.9008789,-0.33740234,0.2685547,0.12207031,-0.12207031,-0.061035156,0.0,0.0,0.0,-50.756836,63.830566,-24.68628
1766498339966,-0.9008789,-0.33740234,0.2685547,0.12207031,-0.12207031,-0.061035156,0.0,0.0,0.0,-50.789795,63.830566,-24.691772
1766498340054,-0.9013672,-0.33789062,0.27246094,0.24414062,-0.48828125,0.061035156,0.0,0.0,0.0,-50.789795,63.830566,-24.691772
1766498340065,-0.9013672,-0.33789062,0.27246094,0.24414062,-0.48828125,0.061035156,0.0,0.0,0.0,-50.740356,63.830566,-24.598389
1766498340154,-0.9038086,-0.33691406,0.2705078,0.48828125,-0.36621094,-0.12207031,0.0,0.0,0.0,-50.740356,63.830566,-24.598389
1766498340166,-0.9038086,-0.33691406,0.2705078,0.48828125,-0.36621094,-0.12207031,0.0,0.0,0.0,-50.619507,63.8031,-24.450073
1766498340253,-0.89990234,-0.33740234,0.27294922,0.8544922,-0.18310547,-0.48828125,0.0,0.0,0.0,-50.619507,63.8031,-24.450073
1766498340265,-0.89990234,-0.33740234,0.27294922,0.8544922,-0.18310547,-0.48828125,0.0,0.0,0.0,-50.597534,63.78662,-24.466553
1766498340353,-0.90527344,-0.34228516,0.27246094,-0.4272461,-1.4648438,0.18310547,0.0,0.0,0.0,-50.597534,63.78662,-24.466553
1766498340365,-0.90527344,-0.34228516,0.27246094,-0.4272461,-1.4648438,0.18310547,0.0,0.0,0.0,-50.548096,63.74817,-24.389648
1766498340453,-0.89453125,-0.33154297,0.28076172,0.36621094,0.30517578,-0.30517578,0.0,0.0,0.0,-50.548096,63.74817,-24.389648
1766498340465,-0.89453125,-0.33154297,0.28076172,0.36621094,0.30517578,-0.30517578,0.0,0.0,0.0,-50.625,63.77014,-24.4281
1766498340553,-0.9042969,-0.3383789,0.27197266,-0.24414062,0.36621094,-0.18310547,0.0,0.0,0.0,-50.625,63.77014,-24.4281
1766498340564,-0.9042969,-0.3383789,0.27197266,-0.24414062,0.36621094,-0.18310547,0.0,0.0,0.0,-50.646973,63.781128,-24.44458
1766498340652,-0.90185547,-0.33740234,0.27001953,0.18310547,-0.4272461,0.0,0.0,0.0,0.0,-50.646973,63.781128,-24.44458
1766498340664,-0.90185547,-0.33740234,0.27001953,0.18310547,-0.4272461,0.0,0.0,0.0,0.0,-50.603027,63.775635,-24.351196
1766498340752,-0.9008789,-0.33642578,0.27197266,-0.18310547,0.18310547,-0.30517578,0.0,0.0,0.0,-50.603027,63.775635,-24.351196
1766498340764,-0.9008789,-0.33642578,0.27197266,-0.18310547,0.18310547,-0.30517578,0.0,0.0,0.0,-50.663452,63.792114,-24.411621
1766498340852,-0.9008789,-0.3383789,0.27001953,0.061035156,0.24414062,-0.18310547,0.0,0.0,0.0,-50.663452,63.792114,-24.411621
1766498340864,-0.9008789,-0.3383789,0.27001953,0.061035156,0.24414062,-0.18310547,0.0,0.0,0.0,-50.723877,63.8031,-24.450073
1766498340951,-0.89990234,-0.33740234,0.27197266,-0.18310547,0.0,-0.30517578,0.0,0.0,0.0,-50.723877,63.8031,-24.450073
1766498340964,-0.89990234,-0.33740234,0.27197266,-0.18310547,0.0,-0.30517578,0.0,0.0,0.0,-50.72937,63.797607,-24.439087
1766498341052,-0.90185547,-0.3383789,0.2680664,-0.18310547,0.061035156,-0.18310547,0.0,0.0,0.0,-50.72937,63.797607,-24.439087
1766498341063,-0.90185547,-0.3383789,0.2680664,-0.18310547,0.061035156,-0.18310547,0.0,0.0,0.0,-50.773315,63.8031,-24.472046
1766498341151,-0.90234375,-0.33642578,0.27246094,-0.4272461,-0.61035156,-0.061035156,0.0,0.0,0.0,-50.773315,63.8031,-24.472046
1766498341162,-0.90234375,-0.33642578,0.27246094,-0.4272461,-0.61035156,-0.061035156,0.0,0.0,0.0,-50.80078,63.808594,-24.521484
1766498341251,-0.89404297,-0.33398438,0.27001953,-0.061035156,0.8544922,-0.7324219,0.0,0.0,0.0,-50.80078,63.808594,-24.521484
1766498341262,-0.89404297,-0.33398438,0.27001953,-0.061035156,0.8544922,-0.7324219,0.0,0.0,0.0,-50.8667,63.814087,-24.526978
1766498341350,-0.90283203,-0.33984375,0.26660156,0.36621094,0.79345703,-0.30517578,0.0,0.0,0.0,-50.8667,63.814087,-24.526978
1766498341362,-0.90283203,-0.33984375,0.26660156,0.36621094,0.79345703,-0.30517578,0.0,0.0,0.0,-50.872192,63.81958,-24.543457
1766498341450,-0.8979492,-0.3359375,0.27294922,0.5493164,-0.18310547,0.0,0.0,0.0,0.0,-50.872192,63.81958,-24.543457
1766498341462,-0.8979492,-0.3359375,0.27294922,0.5493164,-0.18310547,0.0,0.0,0.0,0.0,-50.789795,63.797607,-24.422607
1766498341550,-0.9033203,-0.3383789,0.26904297,0.36621094,0.0,-0.30517578,0.0,0.0,0.0,-50.789795,63.797607,-24.422607
1766498341561,-0.9033203,-0.3383789,0.26904297,0.36621094,0.0,-0.30517578,0.0,0.0,0.0,-50.74585,63.797607,-24.400635
1766498341650,-0.9008789,-0.33740234,0.2705078,0.30517578,0.0,-0.24414062,0.0,0.0,0.0,-50.74585,63.797607,-24.400635
1766498341661,-0.9008789,-0.33740234,0.2705078,0.30517578,0.0,-0.24414062,0.0,0.0,0.0,-50.773315,63.797607,-24.455566
1766498341749,-0.89941406,-0.33740234,0.2705078,0.061035156,-0.6713867,0.0,0.0,0.0,0.0,-50.773315,63.797607,-24.455566
1766498341761,-0.89941406,-0.33740234,0.2705078,0.061035156,-0.6713867,0.0,0.0,0.0,0.0,-50.663452,63.775635,-24.318237
1766498341849,-0.9038086,-0.33642578,0.26953125,0.12207031,-0.24414062,-0.061035156,0.0,0.0,0.0,-50.663452,63.775635,-24.318237
1766498341860,-0.9038086,-0.33642578,0.26953125,0.12207031,-0.24414062,-0.061035156,0.0,0.0,0.0,-50.619507,63.76465,-24.263306
1766498341949,-0.8955078,-0.33691406,0.2709961,1.0986328,0.79345703,-0.4272461,0.0,0.0,0.0,-50.619507,63.76465,-24.263306
1766498341960,-0.8955078,-0.33691406,0.2709961,1.0986328,0.79345703,-0.4272461,0.0,0.0,0.0,-50.663452,63.781128,-24.35669
1766498342049,-0.9033203,-0.33789062,0.2607422,-0.79345703,-0.8544922,0.18310547,0.0,0.0,0.0,-50.663452,63.781128,-24.35669
1766498342060,-0.9033203,-0.33789062,0.2607422,-0.79345703,-0.8544922,0.18310547,0.0,0.0,0.0,-50.526123,63.742676,-24.169922
1766498342148,-0.9013672,-0.33935547,0.2685547,0.7324219,-0.24414062,-0.30517578,0.0,0.0,0.0,-50.526123,63.742676,-24.169922
1766498342160,-0.9013672,-0.33935547,0.2685547,0.7324219,-0.24414062,-0.30517578,0.0,0.0,0.0,-50.55359,63.759155,-24.23584
1766498342248,-0.8959961,-0.3334961,0.2763672,0.0,-0.5493164,0.0,0.0,0.0,0.0,-50.55359,63.759155,-24.23584
1766498342259,-0.8959961,-0.3334961,0.2763672,0.0,-0.5493164,0.0,0.0,0.0,0.0,-50.564575,63.759155,-24.23584
1766498342348,-0.9038086,-0.3413086,0.2685547,0.18310547,-0.48828125,0.0,0.0,0.0,0.0,-50.564575,63.759155,-24.23584
1766498342363,-0.9038086,-0.3413086,0.2685547,0.18310547,-0.48828125,0.0,0.0,0.0,0.0,-50.438232,63.737183,-24.09851
1766498342448,-0.8989258,-0.33691406,0.27441406,0.12207031,0.0,-0.30517578,0.0,0.0,0.0,-50.438232,63.737183,-24.09851
1766498342460,-0.8989258,-0.33691406,0.27441406,0.12207031,0.0,-0.30517578,0.0,0.0,0.0,-50.48767,63.737183,-24.175415
1766498342547,-0.89990234,-0.33691406,0.27392578,0.0,-0.24414062,0.0,0.0,0.0,0.0,-50.48767,63.737183,-24.175415
1766498342559,-0.89990234,-0.33691406,0.27392578,0.0,-0.24414062,0.0,0.0,0.0,0.0,-50.482178,63.73169,-24.180908
1766498342647,-0.90234375,-0.33691406,0.27246094,0.30517578,-0.061035156,-0.18310547,0.0,0.0,0.0,-50.482178,63.73169,-24.180908
1766498342658,-0.90234375,-0.33691406,0.27246094,0.30517578,-0.061035156,-0.18310547,0.0,0.0,0.0,-50.47119,63.742676,-24.169922
1766498342747,-0.89746094,-0.33691406,0.27441406,0.48828125,0.30517578,-0.4272461,0.0,0.0,0.0,-50.47119,63.742676,-24.169922
1766498342758,-0.89746094,-0.33691406,0.27441406,0.48828125,0.30517578,-0.4272461,0.0,0.0,0.0,-50.509644,63.753662,-24.230347
1766498342846,-0.90527344,-0.34033203,0.26757812,-0.30517578,-1.2207031,0.36621094,0.0,0.0,0.0,-50.509644,63.753662,-24.230347
1766498342858,-0.90527344,-0.34033203,0.26757812,-0.30517578,-1.2207031,0.36621094,0.0,0.0,0.0,-50.526123,63.753662,-24.274292
1766498342946,-0.89746094,-0.33447266,0.2783203,1.0375977,0.30517578,-0.48828125,0.0,0.0,0.0,-50.526123,63.753662,-24.274292
1766498342957,-0.89746094,-0.33447266,0.2783203,1.0375977,0.30517578,-0.48828125,0.0,0.0,0.0,-50.559082,63.775635,-24.274292
1766498343046,-0.9013672,-0.33496094,0.27246094,-0.18310547,-0.18310547,-0.061035156,0.0,0.0,0.0,-50.559082,63.775635,-24.274292
1766498343057,-0.9013672,-0.33496094,0.27246094,-0.18310547,-0.18310547,-0.061035156,0.0,0.0,0.0,-50.55359,63.76465,-24.290771
1766498343146,-0.90234375,-0.3388672,0.26953125,0.24414062,-0.7324219,0.061035156,0.0,0.0,0.0,-50.55359,63.76465,-24.290771
1766498343157,-0.90234375,-0.3388672,0.26953125,0.24414062,-0.7324219,0.061035156,0.0,0.0,0.0,-50.482178,63.759155,-24.208374
1766498343245,-0.89941406,-0.33642578,0.27441406,0.24414062,0.18310547,-0.48828125,0.0,0.0,0.0,-50.482178,63.759155,-24.208374
1766498343257,-0.89941406,-0.33642578,0.27441406,0.24414062,0.18310547,-0.48828125,0.0,0.0,0.0,-50.52063,63.76465,-24.268799
1766498343345,-0.89990234,-0.33740234,0.27197266,-0.061035156,-0.18310547,0.0,0.0,0.0,0.0,-50.52063,63.76465,-24.268799
1766498343357,-0.89990234,-0.33740234,0.27197266,-0.061035156,-0.18310547,0.0,0.0,0.0,0.0,-50.542603,63.759155,-24.290771
1766498343445,-0.9008789,-0.33691406,0.2734375,-0.061035156,-0.18310547,0.0,0.0,0.0,0.0,-50.542603,63.759155,-24.290771
1766498343456,-0.9008789,-0.33691406,0.2734375,-0.061035156,-0.18310547,0.0,0.0,0.0,0.0,-50.509644,63.76465,-24.230347
1766498343545,-0.9003906,-0.33544922,0.27685547,0.0,0.30517578,-0.12207031,0.0,0.0,0.0,-50.509644,63.76465,-24.230347
1766498343556,-0.9003906,-0.33544922,0.27685547,0.0,0.30517578,-0.12207031,0.0,0.0,0.0,-50.515137,63.775635,-24.241333
1766498343644,-0.90185547,-0.3388672,0.2763672,-0.48828125,-1.0375977,0.061035156,0.0,0.0,0.0,-50.515137,63.775635,-24.241333
1766498343656,-0.90185547,-0.3388672,0.2763672,-0.48828125,-1.0375977,0.061035156,0.0,0.0,0.0,-50.542603,63.781128,-24.312744
1766498343744,-0.89746094,-0.3334961,0.27929688,0.48828125,0.61035156,-0.5493164,0.0,0.0,0.0,-50.542603,63.781128,-24.312744
1766498343755,-0.89746094,-0.3334961,0.27929688,0.48828125,0.61035156,-0.5493164,0.0,0.0,0.0,-50.515137,63.77014,-24.23584
1766498343844,-0.90283203,-0.33984375,0.2709961,-0.24414062,0.0,-0.18310547,0.0,0.0,0.0,-50.515137,63.77014,-24.23584
1766498343855,-0.90283203,-0.33984375,0.2709961,-0.24414062,0.0,-0.18310547,0.0,0.0,0.0,-50.531616,63.76465,-24.307251
1766498343943,-0.9013672,-0.33740234,0.2734375,0.24414062,-0.6713867,0.061035156,0.0,0.0,0.0,-50.531616,63.76465,-24.307251
1766498343955,-0.9013672,-0.33740234,0.2734375,0.24414062,-0.6713867,0.061035156,0.0,0.0,0.0,-50.482178,63.76465,-24.241333
1766498344043,-0.90283203,-0.33789062,0.27001953,0.79345703,0.24414062,-0.48828125,0.0,0.0,0.0,-50.482178,63.76465,-24.241333
1766498344055,-0.90283203,-0.33789062,0.27001953,0.79345703,0.24414062,-0.48828125,0.0,0.0,0.0,-50.377808,63.73169,-24.136963
1766498344143,-0.90234375,-0.33740234,0.27197266,0.24414062,-0.30517578,-0.12207031,0.0,0.0,0.0,-50.377808,63.73169,-24.136963
1766498344154,-0.90234375,-0.33740234,0.27197266,0.24414062,-0.30517578,-0.12207031,0.0,0.0,0.0,-50.3833,63.726196,-24.164429
1766498344243,-0.89941406,-0.33642578,0.27392578,-0.061035156,-0.24414062,0.0,0.0,0.0,0.0,-50.3833,63.726196,-24.164429
1766498344254,-0.89941406,-0.33642578,0.27392578,-0.061035156,-0.24414062,0.0,0.0,0.0,0.0,-50.333862,63.71521,-24.109497
1766498344342,-0.9038086,-0.33789062,0.2705078,0.061035156,0.36621094,-0.18310547,0.0,0.0,0.0,-50.333862,63.71521,-24.109497
1766498344354,-0.9038086,-0.33789062,0.2705078,0.061035156,0.36621094,-0.18310547,0.0,0.0,0.0,-50.36682,63.726196,-24.13147
1766498344442,-0.89404297,-0.3408203,0.2709961,1.0375977,0.9765625,-0.61035156,0.0,0.0,0.0,-50.36682,63.726196,-24.13147
1766498344454,-0.89404297,-0.3408203,0.2709961,1.0375977,0.9765625,-0.61035156,0.0,0.0,0.0,-50.493164,63.759155,-24.285278
1766498344542,-0.90722656,-0.33984375,0.26416016,-0.7324219,-0.12207031,0.12207031,0.0,0.0,0.0,-50.493164,63.759155,-24.285278
1766498344553,-0.90722656,-0.33984375,0.26416016,-0.7324219,-0.12207031,0.12207031,0.0,0.0,0.0,-50.50415,63.753662,-24.230347
1766498344642,-0.89990234,-0.33789062,0.27392578,0.18310547,-0.18310547,-0.24414062,0.0,0.0,0.0,-50.50415,63.753662,-24.230347
1766498344653,-0.89990234,-0.33789062,0.27392578,0.18310547,-0.18310547,-0.24414062,0.0,0.0,0.0,-50.64148,63.78662,-24.367676
1766498344741,-0.89697266,-0.3330078,0.27392578,-0.5493164,0.0,-0.12207031,0.0,0.0,0.0,-50.64148,63.78662,-24.367676
1766498344753,-0.89697266,-0.3330078,0.27392578,-0.5493164,0.0,-0.12207031,0.0,0.0,0.0,-50.76233,63.814087,-24.450073
1766498344841,-0.90283203,-0.34326172,0.26464844,0.0,0.36621094,-0.12207031,0.0,0.0,0.0,-50.76233,63.814087,-24.450073
1766498344852,-0.90283203,-0.34326172,0.26464844,0.0,0.36621094,-0.12207031,0.0,0.0,0.0,-50.77881,63.830566,-24.439087
1766498344941,-0.89941406,-0.33691406,0.27001953,-0.12207031,0.36621094,-0.061035156,0.0,0.0,0.0,-50.77881,63.830566,-24.439087
1766498344952,-0.89941406,-0.33691406,0.27001953,-0.12207031,0.36621094,-0.061035156,0.0,0.0,0.0,-50.90515,63.863525,-24.543457
1766498345041,-0.9013672,-0.33642578,0.27001953,-0.30517578,-0.30517578,0.12207031,0.0,0.0,0.0,-50.90515,63.863525,-24.543457
1766498345052,-0.9013672,-0.33642578,0.27001953,-0.30517578,-0.30517578,0.12207031,0.0,0.0,0.0,-50.960083,63.896484,-24.576416
1766498345140,-0.8989258,-0.33398438,0.26660156,0.24414062,-0.24414062,0.0,0.0,0.0,0.0,-50.960083,63.896484,-24.576416
1766498345154,-0.8989258,-0.33398438,0.26660156,0.24414062,-0.24414062,0.0,0.0,0.0,0.0,-50.932617,63.901978,-24.521484
1766498345240,-0.90283203,-0.34326172,0.2763672,-1.0375977,-1.6479492,0.24414062,0.0,0.0,0.0,-50.932617,63.901978,-24.521484
1766498345252,-0.90283203,-0.34326172,0.2763672,-1.0375977,-1.6479492,0.24414062,0.0,0.0,0.0,-50.822754,63.901978,-24.34021
1766498345340,-0.90185547,-0.3334961,0.27148438,-1.159668,0.48828125,-1.0986328,0.0,0.0,0.0,-50.822754,63.901978,-24.34021
1766498345352,-0.90185547,-0.3334961,0.27148438,-1.159668,0.48828125,-1.0986328,0.0,0.0,0.0,-50.83374,63.781128,-24.186401
1766498345439,-0.9033203,-0.34326172,0.2680664,-1.2207031,-1.2207031,-0.24414062,0.0,0.0,0.0,-50.83374,63.781128,-24.186401
1766498345451,-0.9033203,-0.34326172,0.2680664,-1.2207031,-1.2207031,-0.24414062,0.0,0.0,0.0,-51.05896,63.76465,-24.44458
1766498345539,-0.90185547,-0.34277344,0.26708984,-2.6245117,-0.36621094,-0.12207031,0.0,0.0,0.0,-51.05896,63.76465,-24.44458
1766498345551,-0.90185547,-0.34277344,0.26708984,-2.6245117,-0.36621094,-0.12207031,0.0,0.0,0.0,-51.289673,63.781128,-24.537964
1766498345639,-0.90478516,-0.34521484,0.26611328,-2.0751953,0.61035156,-1.5869141,0.0,0.0,0.0,-51.289673,63.781128,-24.537964
1766498345651,-0.90478516,-0.34521484,0.26611328,-2.0751953,0.61035156,-1.5869141,0.0,0.0,0.0,-51.641235,63.737183,-24.625854
1766498345739,-0.90283203,-0.34472656,0.26660156,-0.48828125,1.5869141,-3.8452148,0.0,0.0,0.0,-51.641235,63.737183,-24.625854
1766498345750,-0.90283203,-0.34472656,0.26660156,-0.48828125,1.5869141,-3.8452148,0.0,0.0,0.0,-52.25647,63.61084,-25.142212
1766498345838,-0.8955078,-0.35205078,0.2602539,-0.7324219,1.159668,-4.272461,0.0,0.0,0.0,-52.25647,63.61084,-25.142212
1766498345850,-0.8955078,-0.35205078,0.2602539,-0.7324219,1.159668,-4.272461,0.0,0.0,0.0,-52.959595,63.363647,-25.922241
1766498345938,-0.8959961,-0.35498047,0.26708984,0.12207031,1.0986328,-3.6621094,0.0,0.0,0.0,-52.959595,63.363647,-25.922241
1766498345949,-0.8959961,-0.35498047,0.26708984,0.12207031,1.0986328,-3.6621094,0.0,0.0,0.0,-53.57483,63.12195,-26.5979
1766498346038,-0.8959961,-0.36376953,0.25634766,-0.79345703,3.1738281,-2.9296875,0.0,0.0,0.0,-53.57483,63.12195,-26.5979
1766498346050,-0.8959961,-0.36376953,0.25634766,-0.79345703,3.1738281,-2.9296875,0.0,0.0,0.0,-54.261475,63.00659,-27.317505
1766498346138,-0.90185547,-0.3701172,0.2475586,-2.319336,1.0986328,-2.0751953,0.0,0.0,0.0,-54.261475,63.00659,-27.317505
1766498346149,-0.90185547,-0.3701172,0.2475586,-2.319336,1.0986328,-2.0751953,0.0,0.0,0.0,-55.10193,62.946167,-28.097534
1766498346237,-0.8823242,-0.37304688,0.24316406,-3.6621094,1.2207031,-0.61035156,0.0,0.0,0.0,-55.10193,62.946167,-28.097534
1766498346249,-0.8823242,-0.37304688,0.24316406,-3.6621094,1.2207031,-0.61035156,0.0,0.0,0.0,-55.62378,62.924194,-28.22937
1766498346337,-0.8930664,-0.37939453,0.23828125,-1.2207031,0.36621094,-0.79345703,0.0,0.0,0.0,-55.62378,62.924194,-28.22937
1766498346348,-0.8930664,-0.37939453,0.23828125,-1.2207031,0.36621094,-0.79345703,0.0,0.0,0.0,-55.99182,62.929688,-28.339233
1766498346437,-0.8911133,-0.375,0.24414062,-1.2207031,0.61035156,-0.30517578,0.0,0.0,0.0,-55.99182,62.929688,-28.339233
1766498346448,-0.8911133,-0.375,0.24414062,-1.2207031,0.61035156,-0.30517578,0.0,0.0,0.0,-56.30493,62.9187,-28.564453
1766498346536,-0.8979492,-0.38964844,0.22851562,0.30517578,1.4038086,-2.0141602,0.0,0.0,0.0,-56.30493,62.9187,-28.564453
1766498346548,-0.8979492,-0.38964844,0.22851562,0.30517578,1.4038086,-2.0141602,0.0,0.0,0.0,-56.66748,62.891235,-28.95996
1766498346636,-0.8886719,-0.3701172,0.2397461,-0.6713867,-1.0375977,0.30517578,0.0,0.0,0.0,-56.66748,62.891235,-28.95996
1766498346648,-0.8886719,-0.3701172,0.2397461,-0.6713867,-1.0375977,0.30517578,0.0,0.0,0.0,-56.914673,62.819824,-29.146729
1766498346736,-0.89208984,-0.37597656,0.23339844,1.3427734,0.8544922,1.8310547,0.0,0.0,0.0,-56.914673,62.819824,-29.146729
1766498346747,-0.89208984,-0.37597656,0.23339844,1.3427734,0.8544922,1.8310547,0.0,0.0,0.0,-56.590576,62.90222,-28.756714
1766498346836,-0.89746094,-0.37451172,0.24365234,0.5493164,-2.746582,0.9765625,0.0,0.0,0.0,-56.590576,62.90222,-28.756714
1766498346847,-0.89746094,-0.37451172,0.24365234,0.5493164,-2.746582,0.9765625,0.0,0.0,0.0,-56.23352,63.03955,-28.377686
1766498346935,-0.8911133,-0.3720703,0.24560547,0.7324219,0.5493164,0.0,0.0,0.0,0.0,-56.23352,63.03955,-28.377686
1766498346947,-0.8911133,-0.3720703,0.24560547,0.7324219,0.5493164,0.0,0.0,0.0,0.0,-56.206055,63.078003,-28.493042
1766498347035,-0.89453125,-0.36279297,0.22998047,1.0375977,-0.061035156,1.0986328,0.0,0.0,0.0,-56.206055,63.078003,-28.493042
1766498347047,-0.89453125,-0.36279297,0.22998047,1.0375977,-0.061035156,1.0986328,0.0,0.0,0.0,-55.700684,63.00659,-27.982178
1766498347135,-0.8984375,-0.37548828,0.24072266,1.4648438,-0.4272461,1.8920898,0.0,0.0,0.0,-55.700684,63.00659,-27.982178
1766498347146,-0.8984375,-0.37548828,0.24072266,1.4648438,-0.4272461,1.8920898,0.0,0.0,0.0,-55.618286,63.242798,-28.015137
1766498347234,-0.89404297,-0.36083984,0.25146484,0.0,-1.6479492,2.6245117,0.0,0.0,0.0,-55.618286,63.242798,-28.015137
1766498347246,-0.89404297,-0.36083984,0.25146484,0.0,-1.6479492,2.6245117,0.0,0.0,0.0,-55.31067,63.429565,-27.663574
1766498347334,-0.89697266,-0.36035156,0.24609375,1.0986328,-3.4179688,1.4038086,0.0,0.0,0.0,-55.31067,63.429565,-27.663574
1766498347346,-0.89697266,-0.36035156,0.24609375,1.0986328,-3.4179688,1.4038086,0.0,0.0,0.0,-54.46472,63.391113,-26.790161
1766498347434,-0.9067383,-0.359375,0.24609375,1.2207031,0.12207031,0.61035156,0.0,0.0,0.0,-54.46472,63.391113,-26.790161
1766498347446,-0.9067383,-0.359375,0.24609375,1.2207031,0.12207031,0.61035156,0.0,0.0,0.0,-53.986816,63.4021,-26.339722
1766498347534,-0.8984375,-0.3540039,0.24853516,1.6479492,1.2817383,-0.061035156,0.0,0.0,0.0,-53.986816,63.4021,-26.339722
1766498347546,-0.8984375,-0.3540039,0.24853516,1.6479492,1.2817383,-0.061035156,0.0,0.0,0.0,-53.97583,63.484497,-26.449585
1766498347633,-0.8959961,-0.3515625,0.2553711,1.7089844,0.18310547,-0.18310547,0.0,0.0,0.0,-53.97583,63.484497,-26.449585
1766498347645,-0.8959961,-0.3515625,0.2553711,1.7089844,0.18310547,-0.18310547,0.0,0.0,0.0,-53.97583,63.511963,-26.570435
1766498347733,-0.9013672,-0.3623047,0.25634766,1.5869141,2.0751953,-0.4272461,0.0,0.0,0.0,-53.97583,63.511963,-26.570435
1766498347745,-0.9013672,-0.3623047,0.25634766,1.5869141,2.0751953,-0.4272461,0.0,0.0,0.0,-53.99231,63.572388,-26.669312
1766498347833,-0.9042969,-0.37109375,0.24804688,-3.4179688,-1.6479492,-0.36621094,0.0,0.0,0.0,-53.99231,63.572388,-26.669312
1766498347845,-0.9042969,-0.37109375,0.24804688,-3.4179688,-1.6479492,-0.36621094,0.0,0.0,0.0,-54.09668,63.533936,-26.636353
1766498347933,-0.9189453,-0.38085938,0.26123047,-7.2021484,1.5869141,-3.4179688,0.0,0.0,0.0,-54.09668,63.533936,-26.636353
1766498347944,-0.9189453,-0.38085938,0.26123047,-7.2021484,1.5869141,-3.4179688,0.0,0.0,0.0,-55.079956,63.550415,-27.158203
1766498348032,-0.9169922,-0.37353516,0.2446289,-10.7421875,-2.1362305,-10.7421875,0.0,0.0,0.0,-55.079956,63.550415,-27.158203
1766498348044,-0.9169922,-0.37353516,0.2446289,-10.7421875,-2.1362305,-10.7421875,0.0,0.0,0.0,-56.398315,62.825317,-27.729492
1766498348132,-0.9003906,-0.36523438,0.2421875,-6.3476562,7.2021484,-6.652832,0.0,0.0,0.0,-56.398315,62.825317,-27.729492
1766498348144,-0.9003906,-0.36523438,0.2421875,-6.3476562,7.2021484,-6.652832,0.0,0.0,0.0,-58.656006,62.1167,-29.503784
1766498348232,-0.88623047,-0.42236328,0.21728516,-5.92041,6.164551,-2.2583008,0.0,0.0,0.0,-58.656006,62.1167,-29.503784
1766498348244,-0.88623047,-0.42236328,0.21728516,-5.92041,6.164551,-2.2583008,0.0,0.0,0.0,-60.770874,62.451782,-31.195679
1766498348332,-0.8959961,-0.34765625,0.18457031,5.554199,11.474609,-5.554199,0.0,0.0,0.0,-60.770874,62.451782,-31.195679
1766498348344,-0.8959961,-0.34765625,0.18457031,5.554199,11.474609,-5.554199,0.0,0.0,0.0,-62.29248,62.1167,-32.67334
1766498348431,-0.85839844,-0.46728516,0.18017578,2.380371,8.056641,-0.24414062,0.0,0.0,0.0,-62.29248,62.1167,-32.67334
1766498348443,-0.85839844,-0.46728516,0.18017578,2.380371,8.056641,-0.24414062,0.0,0.0,0.0,-64.11072,62.556152,-35.403442
1766498348531,-0.89697266,-0.40527344,0.18652344,0.36621094,2.319336,5.3100586,0.0,0.0,0.0,-64.11072,62.556152,-35.403442
1766498348543,-0.89697266,-0.40527344,0.18652344,0.36621094,2.319336,5.3100586,0.0,0.0,0.0,-64.5282,63.067017,-35.738525
1766498348631,-0.90185547,-0.4091797,0.18066406,1.4648438,6.4697266,0.0,0.0,0.0,0.0,-64.5282,63.067017,-35.738525
1766498348642,-0.90185547,-0.4091797,0.18066406,1.4648438,6.4697266,0.0,0.0,0.0,0.0,-64.989624,63.484497,-36.359253
1766498348731,-0.8959961,-0.39453125,0.17236328,2.4414062,5.1879883,-1.159668,0.0,0.0,0.0,-64.989624,63.484497,-36.359253
1766498348742,-0.8959961,-0.39453125,0.17236328,2.4414062,5.1879883,-1.159668,0.0,0.0,0.0,-66.049805,63.550415,-37.666626
1766498348830,-0.89501953,-0.4013672,0.15722656,-1.953125,-2.380371,2.8076172,0.0,0.0,0.0,-66.049805,63.550415,-37.666626
1766498348842,-0.89501953,-0.4013672,0.15722656,-1.953125,-2.380371,2.8076172,0.0,0.0,0.0,-66.20361,63.676758,-37.749023
1766498348930,-0.90234375,-0.39794922,0.16699219,-2.0751953,2.6855469,2.6855469,0.0,0.0,0.0,-66.20361,63.676758,-37.749023
1766498348941,-0.90234375,-0.39794922,0.16699219,-2.0751953,2.6855469,2.6855469,0.0,0.0,0.0,-66.467285,64.055786,-37.562256
1766498349030,-0.90234375,-0.38867188,0.14111328,-2.9907227,0.79345703,1.4648438,0.0,0.0,0.0,-66.467285,64.055786,-37.562256
1766498349041,-0.90234375,-0.38867188,0.14111328,-2.9907227,0.79345703,1.4648438,0.0,0.0,0.0,-66.41235,64.23706,-36.9635
1766498349130,-0.9082031,-0.37353516,0.15185547,2.2583008,0.4272461,0.4272461,0.0,0.0,0.0,-66.41235,64.23706,-36.9635
1766498349141,-0.9082031,-0.37353516,0.15185547,2.2583008,0.4272461,0.4272461,0.0,0.0,0.0,-66.73645,64.385376,-37.194214
1766498349229,-0.91015625,-0.39208984,0.16308594,6.164551,-0.36621094,-2.2583008,0.0,0.0,0.0,-66.73645,64.385376,-37.194214
1766498349241,-0.91015625,-0.39208984,0.16308594,6.164551,-0.36621094,-2.2583008,0.0,0.0,0.0,-66.692505,64.37439,-37.650146
1766498349329,-0.90527344,-0.38232422,0.16357422,3.0517578,2.0751953,-1.2207031,0.0,0.0,0.0,-66.692505,64.37439,-37.650146
1766498349340,-0.90527344,-0.38232422,0.16357422,3.0517578,2.0751953,-1.2207031,0.0,0.0,0.0,-66.346436,64.176636,-37.562256
1766498349429,-0.9038086,-0.41210938,0.18408203,-0.9765625,-3.3569336,-0.61035156,0.0,0.0,0.0,-66.346436,64.176636,-37.562256
1766498349441,-0.9038086,-0.41210938,0.18408203,-0.9765625,-3.3569336,-0.61035156,0.0,0.0,0.0,-66.066284,64.15466,-37.25464
1766498349529,-0.90771484,-0.39404297,0.17285156,-4.0893555,-3.3569336,0.79345703,0.0,0.0,0.0,-66.066284,64.15466,-37.25464
1766498349540,-0.90771484,-0.39404297,0.17285156,-4.0893555,-3.3569336,0.79345703,0.0,0.0,0.0,-65.56641,63.97888,-36.29883
1766498349628,-0.9091797,-0.39208984,0.16894531,3.6010742,-0.6713867,-2.5634766,0.0,0.0,0.0,-65.56641,63.97888,-36.29883
1766498349640,-0.9091797,-0.39208984,0.16894531,3.6010742,-0.6713867,-2.5634766,0.0,0.0,0.0,-65.423584,63.753662,-36.172485
1766498349728,-0.87597656,-0.42285156,0.17919922,-1.3427734,2.8076172,-1.0375977,0.0,0.0,0.0,-65.423584,63.753662,-36.172485
1766498349740,-0.87597656,-0.42285156,0.17919922,-1.3427734,2.8076172,-1.0375977,0.0,0.0,0.0,-65.93994,63.726196,-36.694336
1766498349828,-0.8833008,-0.39794922,0.17089844,-4.0893555,-4.333496,4.0893555,0.0,0.0,0.0,-65.93994,63.726196,-36.694336
1766498349839,-0.8833008,-0.39794922,0.17089844,-4.0893555,-4.333496,4.0893555,0.0,0.0,0.0,-65.632324,63.77014,-35.90332
1766498349927,-0.92041016,-0.3828125,0.17382812,-2.0751953,-3.112793,2.6855469,0.0,0.0,0.0,-65.632324,63.77014,-35.90332
1766498349939,-0.92041016,-0.3828125,0.17382812,-2.0751953,-3.112793,2.6855469,0.0,0.0,0.0,-65.08301,63.951416,-34.88159
1766498350027,-0.8725586,-0.42236328,0.17236328,-6.1035156,-0.4272461,2.8076172,0.0,0.0,0.0,-65.08301,63.951416,-34.88159
1766498350039,-0.8725586,-0.42236328,0.17236328,-6.1035156,-0.4272461,2.8076172,0.0,0.0,0.0,-65.35217,64.11072,-34.942017
1766498350127,-0.9165039,-0.37597656,0.1665039,-15.991211,-11.779785,5.065918,0.0,0.0,0.0,-65.35217,64.11072,-34.942017
1766498350139,-0.9165039,-0.37597656,0.1665039,-15.991211,-11.779785,5.065918,0.0,0.0,0.0,-64.69299,64.18213,-32.695312
1766498350227,-0.92285156,-0.3305664,0.19628906,-4.5776367,-1.5869141,3.540039,0.0,0.0,0.0,-64.69299,64.18213,-32.695312
1766498350239,-0.92285156,-0.3305664,0.19628906,-4.5776367,-1.5869141,3.540039,0.0,0.0,0.0,-64.48425,64.39636,-31.558228
1766498350326,-0.9091797,-0.37695312,0.1875,-0.6713867,3.7841797,2.6245117,0.0,0.0,0.0,-64.48425,64.39636,-31.558228
1766498350338,-0.9091797,-0.37695312,0.1875,-0.6713867,3.7841797,2.6245117,0.0,0.0,0.0,-64.313965,64.764404,-31.365967
1766498350426,-0.9038086,-0.41064453,0.16357422,-5.6762695,-3.540039,0.30517578,0.0,0.0,0.0,-64.313965,64.764404,-31.365967
1766498350438,-0.9038086,-0.41064453,0.16357422,-5.6762695,-3.540039,0.30517578,0.0,0.0,0.0,-64.15466,64.89075,-31.107788
1766498350526,-0.9111328,-0.36328125,0.18017578,-10.192871,-4.1503906,3.2348633,0.0,0.0,0.0,-64.15466,64.89075,-31.107788
1766498350537,-0.9111328,-0.36328125,0.18017578,-10.192871,-4.1503906,3.2348633,0.0,0.0,0.0,-64.3689,64.940186,-30.459595
1766498350626,-0.90966797,-0.35888672,0.1743164,-3.1738281,0.18310547,2.5634766,0.0,0.0,0.0,-64.3689,64.940186,-30.459595
1766498350637,-0.90966797,-0.35888672,0.1743164,-3.1738281,0.18310547,2.5634766,0.0,0.0,0.0,-64.281006,65.148926,-29.910278
1766498350725,-0.9223633,-0.37402344,0.1640625,-2.319336,-2.6245117,0.91552734,0.0,0.0,0.0,-64.281006,65.148926,-29.910278
1766498350737,-0.9223633,-0.37402344,0.1640625,-2.319336,-2.6245117,0.91552734,0.0,0.0,0.0,-63.92395,65.24231,-29.503784
1766498350825,-0.9238281,-0.36083984,0.18310547,1.7089844,1.6479492,0.79345703,0.0,0.0,0.0,-63.92395,65.24231,-29.503784
1766498350836,-0.9238281,-0.36083984,0.18310547,1.7089844,1.6479492,0.79345703,0.0,0.0,0.0,-64.08325,65.34668,-29.893799
1766498350925,-0.9243164,-0.35351562,0.1772461,5.065918,5.126953,1.953125,0.0,0.0,0.0,-64.08325,65.34668,-29.893799
1766498350937,-0.9243164,-0.35351562,0.1772461,5.065918,5.126953,1.953125,0.0,0.0,0.0,-64.055786,65.70923,-30.426636
1766498351024,-0.9086914,-0.38916016,0.16796875,-0.91552734,-2.9296875,0.48828125,0.0,0.0,0.0,-64.055786,65.70923,-30.426636
1766498351036,-0.9086914,-0.38916016,0.16796875,-0.91552734,-2.9296875,0.48828125,0.0,0.0,0.0,-64.5282,65.87952,-31.38794
1766498351124,-0.91748047,-0.32177734,0.1743164,1.3427734,-0.24414062,2.1972656,0.0,0.0,0.0,-64.5282,65.87952,-31.38794
1766498351136,-0.91748047,-0.32177734,0.1743164,1.3427734,-0.24414062,2.1972656,0.0,0.0,0.0,-64.0448,65.808105,-30.668335
1766498351224,-0.9243164,-0.35888672,0.16308594,5.859375,5.2490234,2.5634766,0.0,0.0,0.0,-64.0448,65.808105,-30.668335
1766498351235,-0.9243164,-0.35888672,0.16308594,5.859375,5.2490234,2.5634766,0.0,0.0,0.0,-63.407593,66.17615,-30.541992
1766498351324,-0.92089844,-0.35351562,0.17480469,2.5024414,-1.7700195,2.5634766,0.0,0.0,0.0,-63.407593,66.17615,-30.541992
1766498351335,-0.92089844,-0.35351562,0.17480469,2.5024414,-1.7700195,2.5634766,0.0,0.0,0.0,-63.407593,66.56616,-31.05835
1766498351423,-0.91845703,-0.37158203,0.17773438,-4.5166016,3.9672852,0.061035156,0.0,0.0,0.0,-63.407593,66.56616,-31.05835
1766498351435,-0.91845703,-0.37158203,0.17773438,-4.5166016,3.9672852,0.061035156,0.0,0.0,0.0,-63.66028,66.68701,-31.442871
1766498351523,-0.921875,-0.36328125,0.16015625,-12.451172,-5.493164,-3.2958984,0.0,0.0,0.0,-63.66028,66.68701,-31.442871
1766498351535,-0.921875,-0.36328125,0.16015625,-12.451172,-5.493164,-3.2958984,0.0,0.0,0.0,-64.51172,66.62109,-31.322021
1766498351623,-0.9301758,-0.34277344,0.14550781,-2.4414062,-4.0283203,-17.944336,0.0,0.0,0.0,-64.51172,66.62109,-31.322021
1766498351635,-0.9301758,-0.34277344,0.14550781,-2.4414062,-4.0283203,-17.944336,0.0,0.0,0.0,-65.45105,65.462036,-31.640625
1766498351723,-0.8901367,-0.39257812,0.16210938,-0.30517578,1.0986328,-16.357422,0.0,0.0,0.0,-65.45105,65.462036,-31.640625
1766498351734,-0.8901367,-0.39257812,0.16210938,-0.30517578,1.0986328,-16.357422,0.0,0.0,0.0,-66.80786,63.858032,-33.26111
1766498351822,-0.8833008,-0.39990234,0.171875,4.8217773,0.79345703,-11.779785,0.0,0.0,0.0,-66.80786,63.858032,-33.26111
1766498351834,-0.8833008,-0.39990234,0.171875,4.8217773,0.79345703,-11.779785,0.0,0.0,0.0,-67.76367,62.79785,-34.612427
1766498351922,-0.89404297,-0.3984375,0.15234375,5.1879883,4.4555664,-6.958008,0.0,0.0,0.0,-67.76367,62.79785,-34.612427
1766498351933,-0.89404297,-0.3984375,0.15234375,5.1879883,4.4555664,-6.958008,0.0,0.0,0.0,-68.12622,62.094727,-35.689087
1766498352022,-0.8852539,-0.46826172,0.16552734,-0.12207031,3.2348633,-1.2207031,0.0,0.0,0.0,-68.12622,62.094727,-35.689087
1766498352033,-0.8852539,-0.46826172,0.16552734,-0.12207031,3.2348633,-1.2207031,0.0,0.0,0.0,-69.263306,62.045288,-37.402954
1766498352121,-0.87939453,-0.4272461,0.15673828,0.61035156,0.91552734,0.0,0.0,0.0,0.0,-69.263306,62.045288,-37.402954
1766498352133,-0.87939453,-0.4272461,0.15673828,0.61035156,0.91552734,0.0,0.0,0.0,0.0,-69.20288,62.13318,-37.232666
1766498352221,-0.8754883,-0.43798828,0.15966797,0.91552734,1.4038086,-0.48828125,0.0,0.0,0.0,-69.20288,62.13318,-37.232666
1766498352233,-0.8754883,-0.43798828,0.15966797,0.91552734,1.4038086,-0.48828125,0.0,0.0,0.0,-69.18091,62.08374,-37.562256
1766498352321,-0.8828125,-0.45117188,0.15625,-3.90625,-1.4038086,-0.91552734,0.0,0.0,0.0,-69.18091,62.08374,-37.562256
1766498352332,-0.8828125,-0.45117188,0.15625,-3.90625,-1.4038086,-0.91552734,0.0,0.0,0.0,-69.44458,62.023315,-37.77649
1766498352421,-0.8774414,-0.43945312,0.15283203,-0.24414062,-1.2207031,-3.90625,0.0,0.0,0.0,-69.44458,62.023315,-37.77649
1766498352432,-0.8774414,-0.43945312,0.15283203,-0.24414062,-1.2207031,-3.90625,0.0,0.0,0.0,-69.971924,61.78711,-38.26538
1766498352520,-0.8730469,-0.4326172,0.14501953,-1.6479492,0.36621094,-1.8310547,0.0,0.0,0.0,-69.971924,61.78711,-38.26538
1766498352532,-0.8730469,-0.4326172,0.14501953,-1.6479492,0.36621094,-1.8310547,0.0,0.0,0.0,-69.91699,61.474,-38.029175
1766498352620,-0.90527344,-0.4399414,0.1538086,-3.6621094,-5.9814453,0.79345703,0.0,0.0,0.0,-69.91699,61.474,-38.029175
1766498352632,-0.90527344,-0.4399414,0.1538086,-3.6621094,-5.9814453,0.79345703,0.0,0.0,0.0,-70.10376,61.474,-37.91931
1766498352720,-0.87353516,-0.4638672,0.17578125,-1.2817383,3.90625,0.36621094,0.0,0.0,0.0,-70.10376,61.474,-37.91931
1766498352731,-0.87353516,-0.4638672,0.17578125,-1.2817383,3.90625,0.36621094,0.0,0.0,0.0,-70.43884,61.605835,-38.078613
1766498352820,-0.8666992,-0.43603516,0.13476562,-2.6855469,-2.1972656,-0.061035156,0.0,0.0,0.0,-70.43884,61.605835,-38.078613
1766498352831,-0.8666992,-0.43603516,0.13476562,-2.6855469,-2.1972656,-0.061035156,0.0,0.0,0.0,-70.21912,61.638794,-37.595215
1766498352919,-0.88183594,-0.4345703,0.15722656,-1.3427734,-2.4414062,1.159668,0.0,0.0,0.0,-70.21912,61.638794,-37.595215
1766498352931,-0.88183594,-0.4345703,0.15722656,-1.3427734,-2.4414062,1.159668,0.0,0.0,0.0,-70.3949,61.710205,-37.51831
1766498353019,-0.86328125,-0.4453125,0.16015625,-1.2207031,-0.18310547,0.30517578,0.0,0.0,0.0,-70.3949,61.710205,-37.51831
1766498353031,-0.86328125,-0.4453125,0.16015625,-1.2207031,-0.18310547,0.30517578,0.0,0.0,0.0,-70.339966,61.864014,-37.419434
1766498353119,-0.89501953,-0.4477539,0.13671875,-0.6713867,-2.8076172,-1.4648438,0.0,0.0,0.0,-70.339966,61.864014,-37.419434
1766498353130,-0.89501953,-0.4477539,0.13671875,-0.6713867,-2.8076172,-1.4648438,0.0,0.0,0.0,-69.86206,61.688232,-36.89209
1766498353219,-0.8847656,-0.43896484,0.16796875,-1.0986328,-2.9907227,0.18310547,0.0,0.0,0.0,-69.86206,61.688232,-36.89209
1766498353230,-0.8847656,-0.43896484,0.16796875,-1.0986328,-2.9907227,0.18310547,0.0,0.0,0.0,-70.01587,61.644287,-36.97998
1766498353318,-0.8808594,-0.4404297,0.15771484,2.8076172,3.112793,0.9765625,0.0,0.0,0.0,-70.01587,61.644287,-36.97998
1766498353330,-0.8808594,-0.4404297,0.15771484,2.8076172,3.112793,0.9765625,0.0,0.0,0.0,-69.92798,61.677246,-37.144775
1766498353418,-0.88427734,-0.4716797,0.15039062,0.8544922,-1.3427734,-0.9765625,0.0,0.0,0.0,-69.92798,61.677246,-37.144775
1766498353429,-0.88427734,-0.4716797,0.15039062,0.8544922,-1.3427734,-0.9765625,0.0,0.0,0.0,-69.68628,61.605835,-37.216187
1766498353517,-0.8876953,-0.44091797,0.1640625,0.79345703,-0.9765625,-1.4038086,0.0,0.0,0.0,-69.68628,61.605835,-37.216187
1766498353529,-0.8876953,-0.44091797,0.1640625,0.79345703,-0.9765625,-1.4038086,0.0,0.0,0.0,-69.84009,61.52893,-37.424927
1766498353617,-0.8852539,-0.45263672,0.17382812,1.159668,2.5024414,-0.5493164,0.0,0.0,0.0,-69.84009,61.52893,-37.424927
1766498353629,-0.8852539,-0.45263672,0.17382812,1.159668,2.5024414,-0.5493164,0.0,0.0,0.0,-69.9115,61.484985,-37.716064
1766498353717,-0.8857422,-0.47216797,0.1665039,3.7841797,1.4038086,-2.6855469,0.0,0.0,0.0,-69.9115,61.484985,-37.716064
1766498353728,-0.8857422,-0.47216797,0.1665039,3.7841797,1.4038086,-2.6855469,0.0,0.0,0.0,-69.64783,61.36963,-37.787476
1766498353817,-0.8745117,-0.45507812,0.17382812,-0.79345703,-2.6855469,-1.2817383,0.0,0.0,0.0,-69.64783,61.36963,-37.787476
1766498353829,-0.8745117,-0.45507812,0.17382812,-0.79345703,-2.6855469,-1.2817383,0.0,0.0,0.0,-69.74121,61.28174,-37.91382
1766498353916,-0.8725586,-0.43554688,0.17626953,0.12207031,2.9296875,2.0751953,0.0,0.0,0.0,-69.74121,61.28174,-37.91382
1766498353928,-0.8725586,-0.43554688,0.17626953,0.12207031,2.9296875,2.0751953,0.0,0.0,0.0,-69.49402,61.375122,-37.51831
1766498354016,-0.875,-0.44970703,0.15283203,0.61035156,1.6479492,0.79345703,0.0,0.0,0.0,-69.49402,61.375122,-37.51831
1766498354028,-0.875,-0.44970703,0.15283203,0.61035156,1.6479492,0.79345703,0.0,0.0,0.0,-68.98865,61.49048,-37.15576
1766498354116,-0.8808594,-0.4428711,0.17382812,-3.112793,-3.7231445,4.1503906,0.0,0.0,0.0,-68.98865,61.49048,-37.15576
1766498354127,-0.8808594,-0.4428711,0.17382812,-3.112793,-3.7231445,4.1503906,0.0,0.0,0.0,-69.03259,61.556396,-37.23816
1766498354216,-0.86816406,-0.4013672,0.14550781,2.9907227,1.3427734,-0.48828125,0.0,0.0,0.0,-69.03259,61.556396,-37.23816
1766498354227,-0.86816406,-0.4013672,0.14550781,2.9907227,1.3427734,-0.48828125,0.0,0.0,0.0,-68.47778,61.38611,-36.82617
1766498354315,-0.88183594,-0.45703125,0.1772461,-0.7324219,-3.8452148,3.6621094,0.0,0.0,0.0,-68.47778,61.38611,-36.82617
1766498354327,-0.88183594,-0.45703125,0.1772461,-0.7324219,-3.8452148,3.6621094,0.0,0.0,0.0,-68.74695,61.847534,-37.386475
1766498354415,-0.8964844,-0.41992188,0.16308594,3.3569336,2.0751953,-0.6713867,0.0,0.0,0.0,-68.74695,61.847534,-37.386475
1766498354426,-0.8964844,-0.41992188,0.16308594,3.3569336,2.0751953,-0.6713867,0.0,0.0,0.0,-68.29651,61.957397,-37.02942
1766498354515,-0.88720703,-0.43066406,0.18261719,2.2583008,6.652832,4.638672,0.0,0.0,0.0,-68.29651,61.957397,-37.02942
1766498354526,-0.88720703,-0.43066406,0.18261719,2.2583008,6.652832,4.638672,0.0,0.0,0.0,-68.549194,62.199097,-37.644653
1766498354615,-0.90185547,-0.42236328,0.15771484,6.5307617,3.0517578,10.192871,0.0,0.0,0.0,-68.549194,62.199097,-37.644653
1766498354626,-0.90185547,-0.42236328,0.15771484,6.5307617,3.0517578,10.192871,0.0,0.0,0.0,-67.71423,62.924194,-37.348022
1766498354714,-0.87646484,-0.40283203,0.17480469,5.6762695,2.1972656,0.18310547,0.0,0.0,0.0,-67.71423,62.924194,-37.348022
1766498354726,-0.87646484,-0.40283203,0.17480469,5.6762695,2.1972656,0.18310547,0.0,0.0,0.0,-68.09326,63.55591,-38.600464
1766498354814,-0.9160156,-0.4267578,0.16699219,4.272461,8.728027,6.652832,0.0,0.0,0.0,-68.09326,63.55591,-38.600464
1766498354826,-0.9160156,-0.4267578,0.16699219,4.272461,8.728027,6.652832,0.0,0.0,0.0,-67.769165,63.901978,-39.067383
1766498354914,-0.89990234,-0.38232422,0.15332031,2.9296875,-4.5166016,-2.0751953,0.0,0.0,0.0,-67.769165,63.901978,-39.067383
1766498354926,-0.89990234,-0.38232422,0.15332031,2.9296875,-4.5166016,-2.0751953,0.0,0.0,0.0,-67.93396,64.03381,-39.501343
1766498355013,-0.8886719,-0.3857422,0.16699219,7.2021484,4.1503906,-3.1738281,0.0,0.0,0.0,-67.93396,64.03381,-39.501343
1766498355025,-0.8886719,-0.3857422,0.16699219,7.2021484,4.1503906,-3.1738281,0.0,0.0,0.0,-67.76367,63.863525,-39.68811
1766498355113,-0.91552734,-0.421875,0.17236328,7.2631836,2.380371,-1.2817383,0.0,0.0,0.0,-67.76367,63.863525,-39.68811
1766498355125,-0.91552734,-0.421875,0.17236328,7.2631836,2.380371,-1.2817383,0.0,0.0,0.0,-67.197876,63.89099,-39.874878
1766498355213,-0.89990234,-0.3696289,0.1772461,4.272461,0.5493164,-4.9438477,0.0,0.0,0.0,-67.197876,63.89099,-39.874878
1766498355225,-0.89990234,-0.3696289,0.1772461,4.272461,0.5493164,-4.9438477,0.0,0.0,0.0,-66.98364,63.48999,-39.847412
1766498355313,-0.89746094,-0.42138672,0.1616211,3.112793,0.30517578,-1.6479492,0.0,0.0,0.0,-66.98364,63.48999,-39.847412
1766498355324,-0.89746094,-0.42138672,0.1616211,3.112793,0.30517578,-1.6479492,0.0,0.0,0.0,-66.86279,63.396606,-40.07263
1766498355412,-0.9057617,-0.41210938,0.16552734,4.0283203,-1.0375977,-4.272461,0.0,0.0,0.0,-66.86279,63.396606,-40.07263
1766498355424,-0.9057617,-0.41210938,0.16552734,4.0283203,-1.0375977,-4.272461,0.0,0.0,0.0,-66.71448,63.034058,-39.973755
1766498355512,-0.88916016,-0.40820312,0.17919922,4.0893555,0.9765625,-3.540039,0.0,0.0,0.0,-66.71448,63.034058,-39.973755
1766498355524,-0.88916016,-0.40820312,0.17919922,4.0893555,0.9765625,-3.540039,0.0,0.0,0.0,-66.87378,62.715454,-40.281372
1766498355612,-0.88916016,-0.41748047,0.18603516,6.1035156,-0.12207031,-2.6245117,0.0,0.0,0.0,-66.87378,62.715454,-40.281372
1766498355623,-0.88916016,-0.41748047,0.18603516,6.1035156,-0.12207031,-2.6245117,0.0,0.0,0.0,-66.692505,62.545166,-40.303345
1766498355712,-0.89160156,-0.4248047,0.18261719,2.1972656,-1.4648438,0.24414062,0.0,0.0,0.0,-66.692505,62.545166,-40.303345
1766498355723,-0.89160156,-0.4248047,0.18261719,2.1972656,-1.4648438,0.24414062,0.0,0.0,0.0,-66.3739,62.385864,-40.220947
1766498355811,-0.88623047,-0.41259766,0.19580078,1.159668,-0.30517578,-1.8310547,0.0,0.0,0.0,-66.3739,62.385864,-40.220947
1766498355823,-0.88623047,-0.41259766,0.19580078,1.159668,-0.30517578,-1.8310547,0.0,0.0,0.0,-66.275024,62.34192,-39.98474
1766498355911,-0.8925781,-0.4189453,0.1743164,0.9765625,2.319336,-0.9765625,0.0,0.0,0.0,-66.275024,62.34192,-39.98474
1766498355923,-0.8925781,-0.4189453,0.1743164,0.9765625,2.319336,-0.9765625,0.0,0.0,0.0,-66.09924,62.13318,-39.79248
1766498356011,-0.88964844,-0.41455078,0.17871094,2.5634766,-0.79345703,-1.8310547,0.0,0.0,0.0,-66.09924,62.13318,-39.79248
1766498356022,-0.88964844,-0.41455078,0.17871094,2.5634766,-0.79345703,-1.8310547,0.0,0.0,0.0,-66.225586,62.06726,-39.847412
1766498356110,-0.8833008,-0.42382812,0.18652344,2.0751953,0.5493164,-1.2207031,0.0,0.0,0.0,-66.225586,62.06726,-39.847412
1766498356122,-0.8833008,-0.42382812,0.18652344,2.0751953,0.5493164,-1.2207031,0.0,0.0,0.0,-66.291504,61.99585,-39.98474
1766498356210,-0.8823242,-0.42529297,0.18457031,-0.5493164,-0.30517578,-0.30517578,0.0,0.0,0.0,-66.291504,61.99585,-39.98474
1766498356222,-0.8823242,-0.42529297,0.18457031,-0.5493164,-0.30517578,-0.30517578,0.0,0.0,0.0,-66.40686,61.984863,-39.96826
1766498356310,-0.8857422,-0.42138672,0.18652344,-0.48828125,0.061035156,0.5493164,0.0,0.0,0.0,-66.40686,61.984863,-39.96826
1766498356322,-0.8857422,-0.42138672,0.18652344,-0.48828125,0.061035156,0.5493164,0.0,0.0,0.0,-66.395874,62.017822,-39.699097
1766498356410,-0.8833008,-0.42333984,0.18310547,0.5493164,0.24414062,-0.91552734,0.0,0.0,0.0,-66.395874,62.017822,-39.699097
1766498356421,-0.8833008,-0.42333984,0.18310547,0.5493164,0.24414062,-0.91552734,0.0,0.0,0.0,-66.30249,62.023315,-39.517822
1766498356509,-0.88671875,-0.4243164,0.17480469,-0.36621094,1.4648438,-1.3427734,0.0,0.0,0.0,-66.30249,62.023315,-39.517822
1766498356521,-0.88671875,-0.4243164,0.17480469,-0.36621094,1.4648438,-1.3427734,0.0,0.0,0.0,-66.20911,61.90796,-39.27063
1766498356609,-0.89501953,-0.42285156,0.17675781,0.9765625,-0.5493164,-0.061035156,0.0,0.0,0.0,-66.20911,61.90796,-39.27063
1766498356621,-0.89501953,-0.42285156,0.17675781,0.9765625,-0.5493164,-0.061035156,0.0,0.0,0.0,-66.32446,61.880493,-39.25415
1766498356709,-0.88183594,-0.42578125,0.19384766,-0.7324219,1.0986328,0.30517578,0.0,0.0,0.0,-66.32446,61.880493,-39.25415
1766498356720,-0.88183594,-0.42578125,0.19384766,-0.7324219,1.0986328,0.30517578,0.0,0.0,0.0,-66.46179,61.918945,-39.30359
1766498356809,-0.88623047,-0.41992188,0.17675781,0.12207031,1.0375977,-0.61035156,0.0,0.0,0.0,-66.46179,61.918945,-39.30359
1766498356820,-0.88623047,-0.41992188,0.17675781,0.12207031,1.0375977,-0.61035156,0.0,0.0,0.0,-66.450806,61.97937,-39.07837
1766498356908,-0.88720703,-0.4272461,0.18066406,1.159668,0.48828125,-1.3427734,0.0,0.0,0.0,-66.450806,61.97937,-39.07837
1766498356920,-0.88720703,-0.4272461,0.18066406,1.159668,0.48828125,-1.3427734,0.0,0.0,0.0,-66.59363,61.940918,-39.18274
1766498357008,-0.8847656,-0.42333984,0.18115234,0.8544922,0.6713867,-0.7324219,0.0,0.0,0.0,-66.59363,61.940918,-39.18274
1766498357020,-0.8847656,-0.42333984,0.18115234,0.8544922,0.6713867,-0.7324219,0.0,0.0,0.0,-66.63208,61.864014,-39.210205
1766498357108,-0.89160156,-0.42578125,0.18798828,-0.91552734,1.3427734,-0.061035156,0.0,0.0,0.0,-66.63208,61.864014,-39.210205
1766498357119,-0.89160156,-0.42578125,0.18798828,-0.91552734,1.3427734,-0.061035156,0.0,0.0,0.0,-66.67053,61.875,-39.16626
1766498357207,-0.8833008,-0.42333984,0.18603516,0.8544922,2.0751953,-2.319336,0.0,0.0,0.0,-66.67053,61.875,-39.16626
1766498357219,-0.8833008,-0.42333984,0.18603516,0.8544922,2.0751953,-2.319336,0.0,0.0,0.0,-66.84082,61.864014,-39.226685
1766498357307,-0.8701172,-0.44140625,0.17773438,-1.2207031,0.36621094,-0.4272461,0.0,0.0,0.0,-66.84082,61.864014,-39.226685
1766498357319,-0.8701172,-0.44140625,0.17773438,-1.2207031,0.36621094,-0.4272461,0.0,0.0,0.0,-66.82434,61.809082,-38.94104
1766498357407,-0.88623047,-0.4423828,0.1796875,-1.2207031,-4.0893555,0.9765625,0.0,0.0,0.0,-66.82434,61.809082,-38.94104
1766498357419,-0.88623047,-0.4423828,0.1796875,-1.2207031,-4.0893555,0.9765625,0.0,0.0,0.0,-66.5387,61.765137,-38.325806
1766498357507,-0.88671875,-0.39794922,0.19433594,2.0751953,1.6479492,0.061035156,0.0,0.0,0.0,-66.5387,61.765137,-38.325806
1766498357519,-0.88671875,-0.39794922,0.19433594,2.0751953,1.6479492,0.061035156,0.0,0.0,0.0,-66.346436,61.75415,-38.051147
1766498357607,-0.87646484,-0.4111328,0.18701172,3.479004,-2.8686523,4.1503906,0.0,0.0,0.0,-66.346436,61.75415,-38.051147
1766498357618,-0.87646484,-0.4111328,0.18701172,3.479004,-2.8686523,4.1503906,0.0,0.0,0.0,-65.736694,62.017822,-37.67212
1766498357706,-0.88671875,-0.42773438,0.18603516,-1.4038086,-0.061035156,5.9814453,0.0,0.0,0.0,-65.736694,62.017822,-37.67212
1766498357718,-0.88671875,-0.42773438,0.18603516,-1.4038086,-0.061035156,5.9814453,0.0,0.0,0.0,-64.868774,62.48474,-36.61743
1766498357806,-0.9033203,-0.39697266,0.17626953,-2.0751953,-4.5166016,0.30517578,0.0,0.0,0.0,-64.868774,62.48474,-36.61743
1766498357817,-0.9033203,-0.39697266,0.17626953,-2.0751953,-4.5166016,0.30517578,0.0,0.0,0.0,-64.33594,62.545166,-35.722046
1766498357906,-0.86376953,-0.4345703,0.21289062,-3.9672852,-2.9907227,-3.540039,0.0,0.0,0.0,-64.33594,62.545166,-35.722046
1766498357917,-0.86376953,-0.4345703,0.21289062,-3.9672852,-2.9907227,-3.540039,0.0,0.0,0.0,-64.989624,62.3584,-36.26587
1766498358005,-0.88183594,-0.4423828,0.18798828,-8.972168,-3.7841797,-7.507324,0.0,0.0,0.0,-64.989624,62.3584,-36.26587
1766498358017,-0.88183594,-0.4423828,0.18798828,-8.972168,-3.7841797,-7.507324,0.0,0.0,0.0,-65.06653,61.539917,-35.53528
1766498358105,-0.8989258,-0.4194336,0.18701172,-6.5307617,-7.8125,-6.1035156,0.0,0.0,0.0,-65.06653,61.539917,-35.53528
1766498358116,-0.8989258,-0.4194336,0.18701172,-6.5307617,-7.8125,-6.1035156,0.0,0.0,0.0,-65.302734,60.74341,-35.024414
1766498358205,-0.86572266,-0.44189453,0.203125,-0.18310547,3.90625,-5.2490234,0.0,0.0,0.0,-65.302734,60.74341,-35.024414
1766498358216,-0.86572266,-0.44189453,0.203125,-0.18310547,3.90625,-5.2490234,0.0,0.0,0.0,-66.016846,60.336914,-35.705566
1766498358304,-0.85839844,-0.4633789,0.19140625,-0.79345703,-2.0751953,-4.9438477,0.0,0.0,0.0,-66.016846,60.336914,-35.705566
1766498358316,-0.85839844,-0.4633789,0.19140625,-0.79345703,-2.0751953,-4.9438477,0.0,0.0,0.0,-66.450806,59.87549,-36.221924
1766498358404,-0.8569336,-0.45654297,0.20410156,-1.7089844,-1.8920898,-2.5024414,0.0,0.0,0.0,-66.450806,59.87549,-36.221924
1766498358416,-0.8569336,-0.45654297,0.20410156,-1.7089844,-1.8920898,-2.5024414,0.0,0.0,0.0,-66.47278,59.540405,-36.051636
1766498358504,-0.86279297,-0.4790039,0.19433594,-0.36621094,0.0,-5.6152344,0.0,0.0,0.0,-66.47278,59.540405,-36.051636
1766498358515,-0.86279297,-0.4790039,0.19433594,-0.36621094,0.0,-5.6152344,0.0,0.0,0.0,-66.54419,59.089966,-36.188965
1766498358604,-0.8520508,-0.47802734,0.19482422,-0.61035156,-0.61035156,-6.1035156,0.0,0.0,0.0,-66.54419,59.089966,-36.188965
1766498358615,-0.8520508,-0.47802734,0.19482422,-0.61035156,-0.61035156,-6.1035156,0.0,0.0,0.0,-67.05505,58.535156,-36.809692
1766498358703,-0.85839844,-0.48632812,0.2006836,0.9765625,-1.6479492,-4.5776367,0.0,0.0,0.0,-67.05505,58.535156,-36.809692
1766498358715,-0.85839844,-0.48632812,0.2006836,0.9765625,-1.6479492,-4.5776367,0.0,0.0,0.0,-67.099,58.095703,-37.01294
1766498358803,-0.8491211,-0.47558594,0.19580078,2.1972656,1.7089844,-2.6245117,0.0,0.0,0.0,-67.099,58.095703,-37.01294
1766498358815,-0.8491211,-0.47558594,0.19580078,2.1972656,1.7089844,-2.6245117,0.0,0.0,0.0,-67.03308,57.579346,-37.35901
1766498358903,-0.8388672,-0.50146484,0.20703125,-0.79345703,0.91552734,2.746582,0.0,0.0,0.0,-67.03308,57.579346,-37.35901
1766498358915,-0.8388672,-0.50146484,0.20703125,-0.79345703,0.91552734,2.746582,0.0,0.0,0.0,-67.0166,57.694702,-37.529297
1766498359003,-0.8535156,-0.52197266,0.19824219,-2.9907227,-3.479004,2.5634766,0.0,0.0,0.0,-67.0166,57.694702,-37.529297
1766498359015,-0.8535156,-0.52197266,0.19824219,-2.9907227,-3.479004,2.5634766,0.0,0.0,0.0,-67.22534,57.91992,-37.58972
1766498359102,-0.83691406,-0.4736328,0.20898438,1.5258789,1.7089844,-2.1972656,0.0,0.0,0.0,-67.22534,57.91992,-37.58972
1766498359114,-0.83691406,-0.4736328,0.20898438,1.5258789,1.7089844,-2.1972656,0.0,0.0,0.0,-67.351685,57.766113,-37.65564
1766498359202,-0.8613281,-0.4765625,0.18847656,2.2583008,4.760742,0.79345703,0.0,0.0,0.0,-67.351685,57.766113,-37.65564
1766498359214,-0.8613281,-0.4765625,0.18847656,2.2583008,4.760742,0.79345703,0.0,0.0,0.0,-67.10449,57.628784,-37.595215
1766498359302,-0.828125,-0.5029297,0.203125,2.9907227,-1.4038086,4.333496,0.0,0.0,0.0,-67.10449,57.628784,-37.595215
1766498359314,-0.828125,-0.5029297,0.203125,2.9907227,-1.4038086,4.333496,0.0,0.0,0.0,-67.08252,57.96936,-37.946777
1766498359401,-0.8564453,-0.48779297,0.19580078,1.6479492,-3.9672852,-2.9907227,0.0,0.0,0.0,-67.08252,57.96936,-37.946777
1766498359413,-0.8564453,-0.48779297,0.19580078,1.6479492,-3.9672852,-2.9907227,0.0,0.0,0.0,-66.76941,58.068237,-37.578735
1766498359501,-0.85498047,-0.4711914,0.2133789,3.112793,-0.91552734,-4.8828125,0.0,0.0,0.0,-66.76941,58.068237,-37.578735
1766498359513,-0.85498047,-0.4711914,0.2133789,3.112793,-0.91552734,-4.8828125,0.0,0.0,0.0,-66.86279,57.7771,-37.891846
1766498359601,-0.8388672,-0.48046875,0.21679688,2.9296875,8.728027,2.319336,0.0,0.0,0.0,-66.86279,57.7771,-37.891846
1766498359613,-0.8388672,-0.48046875,0.21679688,2.9296875,8.728027,2.319336,0.0,0.0,0.0,-66.71997,57.826538,-38.133545
1766498359701,-0.83203125,-0.484375,0.1821289,-2.9296875,-1.7700195,3.7231445,0.0,0.0,0.0,-66.71997,57.826538,-38.133545
1766498359712,-0.83203125,-0.484375,0.1821289,-2.9296875,-1.7700195,3.7231445,0.0,0.0,0.0,-66.54968,58.024292,-37.91382
1766498359800,-0.88134766,-0.5175781,0.20410156,0.5493164,-5.6762695,-3.90625,0.0,0.0,0.0,-66.54968,58.024292,-37.91382
1766498359812,-0.88134766,-0.5175781,0.20410156,0.5493164,-5.6762695,-3.90625,0.0,0.0,0.0,-66.40686,57.98584,-37.56775
1766498359900,-0.8461914,-0.46240234,0.23339844,1.5869141,-0.061035156,-1.0986328,0.0,0.0,0.0,-66.40686,57.98584,-37.56775
1766498359912,-0.8461914,-0.46240234,0.23339844,1.5869141,-0.061035156,-1.0986328,0.0,0.0,0.0,-66.63757,57.612305,-37.886353
1766498360000,-0.83740234,-0.4897461,0.21484375,-0.5493164,0.36621094,3.6621094,0.0,0.0,0.0,-66.63757,57.612305,-37.886353
1766498360011,-0.83740234,-0.4897461,0.21484375,-0.5493164,0.36621094,3.6621094,0.0,0.0,0.0,-66.23657,57.925415,-37.47986
1766498360100,-0.84228516,-0.4897461,0.22558594,-1.5869141,-0.61035156,2.0141602,0.0,0.0,0.0,-66.23657,57.925415,-37.47986
1766498360111,-0.84228516,-0.4897461,0.22558594,-1.5869141,-0.61035156,2.0141602,0.0,0.0,0.0,-66.170654,58.216553,-37.15027
1766498360199,-0.828125,-0.48779297,0.19580078,2.5024414,5.2490234,-4.5776367,0.0,0.0,0.0,-66.170654,58.216553,-37.15027
1766498360211,-0.828125,-0.48779297,0.19580078,2.5024414,5.2490234,-4.5776367,0.0,0.0,0.0,-65.753174,57.996826,-36.743774
1766498360299,-0.87939453,-0.46240234,0.21923828,0.24414062,-4.0893555,4.9438477,0.0,0.0,0.0,-65.753174,57.996826,-36.743774
1766498360310,-0.87939453,-0.46240234,0.21923828,0.24414062,-4.0893555,4.9438477,0.0,0.0,0.0,-65.52246,57.79358,-36.677856
1766498360399,-0.85253906,-0.4897461,0.23388672,1.8310547,1.8310547,0.9765625,0.0,0.0,0.0,-65.52246,57.79358,-36.677856
1766498360410,-0.85253906,-0.4897461,0.23388672,1.8310547,1.8310547,0.9765625,0.0,0.0,0.0,-65.3302,58.10669,-36.864624
1766498360498,-0.8666992,-0.48632812,0.23046875,-1.7089844,-7.080078,-0.18310547,0.0,0.0,0.0,-65.3302,58.10669,-36.864624
1766498360510,-0.8666992,-0.48632812,0.23046875,-1.7089844,-7.080078,-0.18310547,0.0,0.0,0.0,-65.20935,58.238525,-36.567993
1766498360598,-0.83447266,-0.4428711,0.22167969,2.6245117,1.2817383,-2.5634766,0.0,0.0,0.0,-65.20935,58.238525,-36.567993
1766498360610,-0.83447266,-0.4428711,0.22167969,2.6245117,1.2817383,-2.5634766,0.0,0.0,0.0,-65.03357,57.9364,-36.540527
1766498360698,-0.8496094,-0.47802734,0.21484375,5.6762695,7.507324,0.91552734,0.0,0.0,0.0,-65.03357,57.9364,-36.540527
1766498360709,-0.8496094,-0.47802734,0.21484375,5.6762695,7.507324,0.91552734,0.0,0.0,0.0,-64.56665,57.870483,-36.49109
1766498360798,-0.84033203,-0.47802734,0.23046875,-4.638672,-3.479004,4.3945312,0.0,0.0,0.0,-64.56665,57.870483,-36.49109
1766498360809,-0.84033203,-0.47802734,0.23046875,-4.638672,-3.479004,4.3945312,0.0,0.0,0.0,-64.84131,58.222046,-36.765747
1766498360897,-0.85253906,-0.47070312,0.19091797,1.953125,-1.5258789,-3.2348633,0.0,0.0,0.0,-64.84131,58.222046,-36.765747
1766498360909,-0.85253906,-0.47070312,0.19091797,1.953125,-1.5258789,-3.2348633,0.0,0.0,0.0,-64.401855,58.12317,-36.1615
1766498360997,-0.8876953,-0.46777344,0.2421875,4.272461,-4.333496,-3.0517578,0.0,0.0,0.0,-64.401855,58.12317,-36.1615
1766498361009,-0.8876953,-0.46777344,0.2421875,4.272461,-4.333496,-3.0517578,0.0,0.0,0.0,-64.58313,57.908936,-36.75476
1766498361097,-0.8276367,-0.49804688,0.24853516,0.61035156,6.225586,-0.12207031,0.0,0.0,0.0,-64.58313,57.908936,-36.75476
1766498361108,-0.8276367,-0.49804688,0.24853516,0.61035156,6.225586,-0.12207031,0.0,0.0,0.0,-64.401855,58.007812,-37.001953
1766498361197,-0.8330078,-0.45751953,0.23242188,-3.2348633,-4.5776367,7.6904297,0.0,0.0,0.0,-64.401855,58.007812,-37.001953
1766498361208,-0.8330078,-0.45751953,0.23242188,-3.2348633,-4.5776367,7.6904297,0.0,0.0,0.0,-64.21509,57.95288,-36.655884
1766498361296,-0.87353516,-0.44140625,0.22216797,7.019043,3.9672852,-0.91552734,0.0,0.0,0.0,-64.21509,57.95288,-36.655884
1766498361308,-0.87353516,-0.44140625,0.22216797,7.019043,3.9672852,-0.91552734,0.0,0.0,0.0,-63.31421,58.414307,-35.568237
1766498361396,-0.84472656,-0.5024414,0.22021484,-0.61035156,2.0141602,7.019043,0.0,0.0,0.0,-63.31421,58.414307,-35.568237
1766498361407,-0.84472656,-0.5024414,0.22021484,-0.61035156,2.0141602,7.019043,0.0,0.0,0.0,-63.638306,59.04602,-36.496582
1766498361496,-0.87890625,-0.4169922,0.22949219,-4.0283203,-5.3100586,8.483887,0.0,0.0,0.0,-63.638306,59.04602,-36.496582
1766498361507,-0.87890625,-0.4169922,0.22949219,-4.0283203,-5.3100586,8.483887,0.0,0.0,0.0,-63.484497,59.364624,-35.826416
1766498361595,-0.8696289,-0.42333984,0.20800781,4.638672,5.493164,5.1879883,0.0,0.0,0.0,-63.484497,59.364624,-35.826416
1766498361607,-0.8696289,-0.42333984,0.20800781,4.638672,5.493164,5.1879883,0.0,0.0,0.0,-62.731934,59.891968,-34.985962
1766498361695,-0.8886719,-0.4326172,0.23388672,6.4697266,1.3427734,4.638672,0.0,0.0,0.0,-62.731934,59.891968,-34.985962
1766498361707,-0.8886719,-0.4326172,0.23388672,6.4697266,1.3427734,4.638672,0.0,0.0,0.0,-62.25403,60.62256,-34.936523
1766498361795,-0.8696289,-0.4321289,0.24414062,6.286621,1.2207031,4.333496,0.0,0.0,0.0,-62.25403,60.62256,-34.936523
1766498361807,-0.8696289,-0.4321289,0.24414062,6.286621,1.2207031,4.333496,0.0,0.0,0.0,-61.42456,60.968628,-34.821167
1766498361895,-0.87353516,-0.43066406,0.23242188,6.0424805,-6.713867,1.7700195,0.0,0.0,0.0,-61.42456,60.968628,-34.821167
1766498361906,-0.87353516,-0.43066406,0.23242188,6.0424805,-6.713867,1.7700195,0.0,0.0,0.0,-60.19409,61.221313,-34.00818
1766498361994,-0.86816406,-0.41796875,0.24853516,4.272461,-3.90625,-0.24414062,0.0,0.0,0.0,-60.19409,61.221313,-34.00818
1766498362006,-0.86816406,-0.41796875,0.24853516,4.272461,-3.90625,-0.24414062,0.0,0.0,0.0,-59.25476,61.045532,-33.294067
1766498362094,-0.89501953,-0.3876953,0.23583984,7.2631836,0.61035156,-4.333496,0.0,0.0,0.0,-59.25476,61.045532,-33.294067
1766498362106,-0.89501953,-0.3876953,0.23583984,7.2631836,0.61035156,-4.333496,0.0,0.0,0.0,-58.584595,60.67749,-32.821655
1766498362194,-0.8515625,-0.40722656,0.27441406,6.7749023,1.0375977,-0.061035156,0.0,0.0,0.0,-58.584595,60.67749,-32.821655
1766498362206,-0.8515625,-0.40722656,0.27441406,6.7749023,1.0375977,-0.061035156,0.0,0.0,0.0,-58.776855,60.64453,-33.865356
1766498362293,-0.8959961,-0.39697266,0.2319336,2.8686523,1.2817383,3.7841797,0.0,0.0,0.0,-58.776855,60.64453,-33.865356
1766498362305,-0.8959961,-0.39697266,0.2319336,2.8686523,1.2817383,3.7841797,0.0,0.0,0.0,-57.387085,60.759888,-32.579956
1766498362393,-0.8979492,-0.39453125,0.25097656,4.760742,-4.1503906,1.3427734,0.0,0.0,0.0,-57.387085,60.759888,-32.579956
1766498362405,-0.8979492,-0.39453125,0.25097656,4.760742,-4.1503906,1.3427734,0.0,0.0,0.0,-57.1344,61.051025,-32.8656
1766498362493,-0.8852539,-0.41796875,0.27197266,3.112793,5.6152344,2.380371,0.0,0.0,0.0,-57.1344,61.051025,-32.8656
1766498362505,-0.8852539,-0.41796875,0.27197266,3.112793,5.6152344,2.380371,0.0,0.0,0.0,-57.139893,61.44104,-33.26111
1766498362593,-0.8754883,-0.39501953,0.25683594,1.3427734,-0.061035156,0.30517578,0.0,0.0,0.0,-57.139893,61.44104,-33.26111
1766498362604,-0.8754883,-0.39501953,0.25683594,1.3427734,-0.061035156,0.30517578,0.0,0.0,0.0,-56.75537,61.435547,-32.678833
1766498362692,-0.8857422,-0.3852539,0.25830078,1.0375977,-1.5869141,0.5493164,0.0,0.0,0.0,-56.75537,61.435547,-32.678833
1766498362704,-0.8857422,-0.3852539,0.25830078,1.0375977,-1.5869141,0.5493164,0.0,0.0,0.0,-56.45874,61.474,-32.27234
1766498362792,-0.88134766,-0.38330078,0.25439453,2.8076172,1.159668,1.0986328,0.0,0.0,0.0,-56.45874,61.474,-32.27234
1766498362804,-0.88134766,-0.38330078,0.25439453,2.8076172,1.159668,1.0986328,0.0,0.0,0.0,-56.376343,61.463013,-32.299805
1766498362892,-0.8930664,-0.38183594,0.25976562,2.0141602,1.4648438,3.112793,0.0,0.0,0.0,-56.376343,61.463013,-32.299805
1766498362903,-0.8930664,-0.38183594,0.25976562,2.0141602,1.4648438,3.112793,0.0,0.0,0.0,-56.25,61.831055,-32.11853
1766498362991,-0.8808594,-0.3930664,0.2607422,3.540039,3.3569336,-1.4038086,0.0,0.0,0.0,-56.25,61.831055,-32.11853
1766498363003,-0.8808594,-0.3930664,0.2607422,3.540039,3.3569336,-1.4038086,0.0,0.0,0.0,-56.288452,62.061768,-32.28882
1766498363091,-0.8964844,-0.37304688,0.24902344,-0.36621094,-1.953125,2.6855469,0.0,0.0,0.0,-56.288452,62.061768,-32.28882
1766498363106,-0.8964844,-0.37304688,0.24902344,-0.36621094,-1.953125,2.6855469,0.0,0.0,0.0,-55.942383,62.023315,-31.849365
1766498363191,-0.88134766,-0.36767578,0.26220703,0.48828125,-0.5493164,3.2958984,0.0,0.0,0.0,-55.942383,62.023315,-31.849365
1766498363202,-0.88134766,-0.36767578,0.26220703,0.48828125,-0.5493164,3.2958984,0.0,0.0,0.0,-55.45349,62.25403,-31.190186
1766498363291,-0.9008789,-0.37304688,0.2626953,0.7324219,3.540039,1.159668,0.0,0.0,0.0,-55.45349,62.25403,-31.190186
1766498363309,-0.9008789,-0.37304688,0.2626953,0.7324219,3.540039,1.159668,0.0,0.0,0.0,-55.354614,62.578125,-30.986938
1766498363390,-0.88916016,-0.3857422,0.25,0.5493164,1.6479492,-1.3427734,0.0,0.0,0.0,-55.354614,62.578125,-30.986938
1766498363409,-0.88916016,-0.3857422,0.25,0.5493164,1.6479492,-1.3427734,0.0,0.0,0.0,-55.57434,62.660522,-31.23413
1766498363490,-0.90234375,-0.35742188,0.27148438,-2.319336,-1.6479492,1.0375977,0.0,0.0,0.0,-55.57434,62.660522,-31.23413
1766498363502,-0.90234375,-0.35742188,0.27148438,-2.319336,-1.6479492,1.0375977,0.0,0.0,0.0,-55.6073,62.72644,-30.904541
1766498363590,-0.890625,-0.35742188,0.25634766,-0.18310547,1.7700195,0.48828125,0.0,0.0,0.0,-55.6073,62.72644,-30.904541
1766498363602,-0.890625,-0.35742188,0.25634766,-0.18310547,1.7700195,0.48828125,0.0,0.0,0.0,-55.689697,62.819824,-30.783691
1766498363690,-0.9008789,-0.37353516,0.23828125,0.8544922,-1.0986328,0.061035156,0.0,0.0,0.0,-55.689697,62.819824,-30.783691
1766498363701,-0.9008789,-0.37353516,0.23828125,0.8544922,-1.0986328,0.061035156,0.0,0.0,0.0,-55.26123,62.86377,-30.283813
1766498363789,-0.89746094,-0.37060547,0.25585938,-0.7324219,1.5258789,-0.6713867,0.0,0.0,0.0,-55.26123,62.86377,-30.283813
1766498363802,-0.89746094,-0.37060547,0.25585938,-0.7324219,1.5258789,-0.6713867,0.0,0.0,0.0,-55.43152,62.929688,-30.316772
1766498363889,-0.8925781,-0.35546875,0.23925781,1.2817383,5.859375,-2.746582,0.0,0.0,0.0,-55.43152,62.929688,-30.316772
1766498363901,-0.8925781,-0.35546875,0.23925781,1.2817383,5.859375,-2.746582,0.0,0.0,0.0,-56.398315,63.061523,-31.305542
1766498363989,-0.89941406,-0.37890625,0.2446289,1.4648438,2.9296875,-0.61035156,0.0,0.0,0.0,-56.398315,63.061523,-31.305542
1766498364000,-0.89941406,-0.37890625,0.2446289,1.4648438,2.9296875,-0.61035156,0.0,0.0,0.0,-57.112427,63.17688,-32.096558
1766498364089,-0.9033203,-0.37158203,0.23730469,-0.12207031,0.0,0.12207031,0.0,0.0,0.0,-57.112427,63.17688,-32.096558
1766498364100,-0.9033203,-0.37158203,0.23730469,-0.12207031,0.0,0.12207031,0.0,0.0,0.0,-57.156372,63.20984,-31.959229
1766498364188,-0.90527344,-0.3720703,0.23046875,-0.91552734,-0.6713867,2.380371,0.0,0.0,0.0,-57.156372,63.20984,-31.959229
1766498364200,-0.90527344,-0.3720703,0.23046875,-0.91552734,-0.6713867,2.380371,0.0,0.0,0.0,-56.881714,63.303223,-31.365967
1766498364288,-0.90234375,-0.3720703,0.2397461,-1.953125,-2.9907227,2.2583008,0.0,0.0,0.0,-56.881714,63.303223,-31.365967
1766498364300,-0.90234375,-0.3720703,0.2397461,-1.953125,-2.9907227,2.2583008,0.0,0.0,0.0,-56.480713,63.407593,-30.613403
1766498364389,-0.8959961,-0.3564453,0.24414062,-1.2817383,0.61035156,0.48828125,0.0,0.0,0.0,-56.480713,63.407593,-30.613403
1766498364399,-0.8959961,-0.3564453,0.24414062,-1.2817383,0.61035156,0.48828125,0.0,0.0,0.0,-56.47522,63.528442,-30.272827
1766498364487,-0.8823242,-0.34521484,0.23242188,4.3945312,5.6762695,-3.4179688,0.0,0.0,0.0,-56.47522,63.528442,-30.272827
1766498364499,-0.8823242,-0.34521484,0.23242188,4.3945312,5.6762695,-3.4179688,0.0,0.0,0.0,-57.095947,63.572388,-30.959473
1766498364587,-0.9135742,-0.39111328,0.23632812,0.061035156,-0.36621094,3.7231445,0.0,0.0,0.0,-57.095947,63.572388,-30.959473
1766498364599,-0.9135742,-0.39111328,0.23632812,0.061035156,-0.36621094,3.7231445,0.0,0.0,0.0,-57.178345,63.76465,-31.300049
1766498364687,-0.90283203,-0.3720703,0.2290039,-5.3710938,0.30517578,3.0517578,0.0,0.0,0.0,-57.178345,63.76465,-31.300049
1766498364698,-0.90283203,-0.3720703,0.2290039,-5.3710938,0.30517578,3.0517578,0.0,0.0,0.0,-57.041016,64.11621,-30.60791
1766498364787,-0.9082031,-0.33691406,0.234375,-0.6713867,2.4414062,-2.380371,0.0,0.0,0.0,-57.041016,64.11621,-30.60791
1766498364798,-0.9082031,-0.33691406,0.234375,-0.6713867,2.4414062,-2.380371,0.0,0.0,0.0,-57.38159,64.14917,-30.509033
1766498364886,-0.8925781,-0.35205078,0.23779297,0.7324219,1.0375977,-2.2583008,0.0,0.0,0.0,-57.38159,64.14917,-30.509033
1766498364898,-0.8925781,-0.35205078,0.23779297,0.7324219,1.0375977,-2.2583008,0.0,0.0,0.0,-57.95288,64.11072,-31.173706
1766498364986,-0.91064453,-0.3618164,0.22949219,-0.9765625,-1.6479492,-0.48828125,0.0,0.0,0.0,-57.95288,64.11072,-31.173706
1766498364997,-0.91064453,-0.3618164,0.22949219,-0.9765625,-1.6479492,-0.48828125,0.0,0.0,0.0,-58.007812,64.02832,-31.228638
1766498365086,-0.90185547,-0.3671875,0.21240234,1.4038086,2.9296875,-2.1972656,0.0,0.0,0.0,-58.007812,64.02832,-31.228638
1766498365097,-0.90185547,-0.3671875,0.21240234,1.4038086,2.9296875,-2.1972656,0.0,0.0,0.0,-58.200073,64.03381,-31.415405
1766498365185,-0.89697266,-0.37646484,0.20800781,0.061035156,1.8310547,-1.953125,0.0,0.0,0.0,-58.200073,64.03381,-31.415405
1766498365197,-0.89697266,-0.37646484,0.20800781,0.061035156,1.8310547,-1.953125,0.0,0.0,0.0,-58.83728,64.01184,-32.08557
1766498365285,-0.8979492,-0.36328125,0.22363281,0.5493164,-2.6855469,-0.61035156,0.0,0.0,0.0,-58.83728,64.01184,-32.08557
1766498365297,-0.8979492,-0.36328125,0.22363281,0.5493164,-2.6855469,-0.61035156,0.0,0.0,0.0,-58.930664,63.87451,-32.06909
1766498365385,-0.90771484,-0.37109375,0.22607422,-0.7324219,0.7324219,0.7324219,0.0,0.0,0.0,-58.930664,63.87451,-32.06909
1766498365396,-0.90771484,-0.37109375,0.22607422,-0.7324219,0.7324219,0.7324219,0.0,0.0,0.0,-58.721924,63.86902,-31.70105
1766498365485,-0.90234375,-0.3671875,0.21044922,-0.30517578,0.0,-0.48828125,0.0,0.0,0.0,-58.721924,63.86902,-31.70105
1766498365496,-0.90234375,-0.3671875,0.21044922,-0.30517578,0.0,-0.48828125,0.0,0.0,0.0,-58.776855,63.901978,-31.635132
1766498365584,-0.90625,-0.36816406,0.2241211,-0.061035156,0.18310547,0.30517578,0.0,0.0,0.0,-58.776855,63.901978,-31.635132
1766498365596,-0.90625,-0.36816406,0.2241211,-0.061035156,0.18310547,0.30517578,0.0,0.0,0.0,-58.930664,63.945923,-31.651611
1766498365684,-0.8964844,-0.37353516,0.21435547,0.36621094,1.3427734,-0.12207031,0.0,0.0,0.0,-58.930664,63.945923,-31.651611
1766498365695,-0.8964844,-0.37353516,0.21435547,0.36621094,1.3427734,-0.12207031,0.0,0.0,0.0,-58.914185,64.000854,-31.49231
1766498365784,-0.90771484,-0.3725586,0.20898438,-0.24414062,-1.5869141,0.12207031,0.0,0.0,0.0,-58.914185,64.000854,-31.49231
1766498365796,-0.90771484,-0.3725586,0.20898438,-0.24414062,-1.5869141,0.12207031,0.0,0.0,0.0,-58.97461,64.017334,-31.470337
1766498365883,-0.9013672,-0.3623047,0.22460938,0.4272461,0.12207031,0.0,0.0,0.0,0.0,-58.97461,64.017334,-31.470337
1766498365895,-0.9013672,-0.3623047,0.22460938,0.4272461,0.12207031,0.0,0.0,0.0,0.0,-58.969116,64.02832,-31.300049
1766498365983,-0.9038086,-0.36865234,0.21386719,-0.061035156,-0.48828125,-0.24414062,0.0,0.0,0.0,-58.969116,64.02832,-31.300049
1766498365995,-0.9038086,-0.36865234,0.21386719,-0.061035156,-0.48828125,-0.24414062,0.0,0.0,0.0,-58.969116,64.02283,-31.343994
1766498366083,-0.91064453,-0.3671875,0.21142578,0.0,0.36621094,0.061035156,0.0,0.0,0.0,-58.969116,64.02283,-31.343994
1766498366094,-0.91064453,-0.3671875,0.21142578,0.0,0.36621094,0.061035156,0.0,0.0,0.0,-59.02954,64.0448,-31.300049
1766498366183,-0.9008789,-0.3701172,0.21435547,0.4272461,1.2207031,-0.36621094,0.0,0.0,0.0,-59.02954,64.0448,-31.300049
1766498366194,-0.9008789,-0.3701172,0.21435547,0.4272461,1.2207031,-0.36621094,0.0,0.0,0.0,-59.188843,64.09973,-31.448364
1766498366282,-0.9008789,-0.36865234,0.21875,-0.36621094,-0.6713867,0.0,0.0,0.0,0.0,-59.188843,64.09973,-31.448364
1766498366294,-0.9008789,-0.36865234,0.21875,-0.36621094,-0.6713867,0.0,0.0,0.0,0.0,-59.243774,64.11072,-31.420898
1766498366382,-0.90478516,-0.36572266,0.21875,0.12207031,0.0,-0.30517578,0.0,0.0,0.0,-59.243774,64.11072,-31.420898
1766498366394,-0.90478516,-0.36572266,0.21875,0.12207031,0.0,-0.30517578,0.0,0.0,0.0,-59.155884,64.088745,-31.239624
1766498366482,-0.9033203,-0.36767578,0.21875,-0.36621094,0.36621094,-0.12207031,0.0,0.0,0.0,-59.155884,64.088745,-31.239624
1766498366493,-0.9033203,-0.36767578,0.21875,-0.36621094,0.36621094,-0.12207031,0.0,0.0,0.0,-59.188843,64.11072,-31.228638
1766498366581,-0.9082031,-0.36816406,0.21972656,0.12207031,-0.18310547,-0.30517578,0.0,0.0,0.0,-59.188843,64.11072,-31.228638
1766498366593,-0.9082031,-0.36816406,0.21972656,0.12207031,-0.18310547,-0.30517578,0.0,0.0,0.0,-59.3042,64.105225,-31.360474
1766498366681,-0.89990234,-0.36621094,0.22460938,0.24414062,0.9765625,-0.18310547,0.0,0.0,0.0,-59.3042,64.105225,-31.360474
1766498366693,-0.89990234,-0.36621094,0.22460938,0.24414062,0.9765625,-0.18310547,0.0,0.0,0.0,-59.293213,64.1272,-31.239624
1766498366781,-0.90527344,-0.37109375,0.21191406,-0.24414062,0.0,-0.36621094,0.0,0.0,0.0,-59.293213,64.1272,-31.239624
1766498366793,-0.90527344,-0.37109375,0.21191406,-0.24414062,0.0,-0.36621094,0.0,0.0,0.0,-59.293213,64.1272,-31.25061
1766498366881,-0.9038086,-0.3647461,0.21777344,0.18310547,-0.30517578,0.0,0.0,0.0,0.0,-59.293213,64.1272,-31.25061
1766498366892,-0.9038086,-0.3647461,0.21777344,0.18310547,-0.30517578,0.0,0.0,0.0,0.0,-59.282227,64.11621,-31.184692
1766498366980,-0.90722656,-0.3701172,0.21289062,-0.18310547,0.30517578,0.0,0.0,0.0,0.0,-59.282227,64.11621,-31.184692
1766498366992,-0.90722656,-0.3701172,0.21289062,-0.18310547,0.30517578,0.0,0.0,0.0,0.0,-59.249268,64.13269,-31.124268
1766498367080,-0.90185547,-0.36865234,0.21533203,0.30517578,0.30517578,-0.18310547,0.0,0.0,0.0,-59.249268,64.13269,-31.124268
1766498367092,-0.90185547,-0.36865234,0.21533203,0.30517578,0.30517578,-0.18310547,0.0,0.0,0.0,-59.3042,64.14917,-31.151733
1766498367180,-0.9042969,-0.36865234,0.21679688,-0.061035156,-0.12207031,0.0,0.0,0.0,0.0,-59.3042,64.14917,-31.151733
1766498367192,-0.9042969,-0.36865234,0.21679688,-0.061035156,-0.12207031,0.0,0.0,0.0,0.0,-59.293213,64.16565,-31.091309
1766498367280,-0.90722656,-0.3701172,0.21533203,0.30517578,0.12207031,-0.061035156,0.0,0.0,0.0,-59.293213,64.16565,-31.091309
1766498367291,-0.90722656,-0.3701172,0.21533203,0.30517578,0.12207031,-0.061035156,0.0,0.0,0.0,-59.293213,64.176636,-31.04187
1766498367379,-0.9003906,-0.37158203,0.21582031,1.2817383,0.061035156,-0.48828125,0.0,0.0,0.0,-59.293213,64.176636,-31.04187
1766498367391,-0.9003906,-0.37158203,0.21582031,1.2817383,0.061035156,-0.48828125,0.0,0.0,0.0,-59.25476,64.18762,-31.019897
1766498367479,-0.90625,-0.37060547,0.2133789,0.7324219,-1.953125,0.18310547,0.0,0.0,0.0,-59.25476,64.18762,-31.019897
1766498367490,-0.90625,-0.37060547,0.2133789,0.7324219,-1.953125,0.18310547,0.0,0.0,0.0,-59.018555,64.13269,-30.822144
1766498367579,-0.9033203,-0.36376953,0.22363281,0.7324219,-0.18310547,0.0,0.0,0.0,0.0,-59.018555,64.13269,-30.822144
1766498367590,-0.9033203,-0.36376953,0.22363281,0.7324219,-0.18310547,0.0,0.0,0.0,0.0,-58.952637,64.13818,-30.701294
1766498367678,-0.9042969,-0.3696289,0.21484375,-0.4272461,-0.7324219,0.0,0.0,0.0,0.0,-58.952637,64.13818,-30.701294
1766498367690,-0.9042969,-0.3696289,0.21484375,-0.4272461,-0.7324219,0.0,0.0,0.0,0.0,-58.881226,64.14368,-30.635376
1766498367778,-0.9057617,-0.36376953,0.2211914,0.061035156,-0.79345703,0.24414062,0.0,0.0,0.0,-58.881226,64.14368,-30.635376
1766498367789,-0.9057617,-0.36376953,0.2211914,0.061035156,-0.79345703,0.24414062,0.0,0.0,0.0,-58.776855,64.13818,-30.41565
1766498367878,-0.90234375,-0.36669922,0.22021484,0.6713867,1.159668,-0.6713867,0.0,0.0,0.0,-58.776855,64.13818,-30.41565
1766498367889,-0.90234375,-0.36669922,0.22021484,0.6713867,1.159668,-0.6713867,0.0,0.0,0.0,-58.842773,64.17114,-30.536499
1766498367977,-0.90478516,-0.36816406,0.21728516,-0.48828125,-0.30517578,0.0,0.0,0.0,0.0,-58.842773,64.17114,-30.536499
1766498367989,-0.90478516,-0.36816406,0.21728516,-0.48828125,-0.30517578,0.0,0.0,0.0,0.0,-58.94165,64.17114,-30.629883
1766498368077,-0.90478516,-0.36669922,0.21777344,-0.4272461,0.0,0.48828125,0.0,0.0,0.0,-58.94165,64.17114,-30.629883
1766498368089,-0.90478516,-0.36669922,0.21777344,-0.4272461,0.0,0.48828125,0.0,0.0,0.0,-58.9032,64.193115,-30.498047
1766498368177,-0.9042969,-0.36523438,0.21777344,0.0,0.18310547,0.24414062,0.0,0.0,0.0,-58.9032,64.193115,-30.498047
1766498368189,-0.9042969,-0.36523438,0.21777344,0.0,0.18310547,0.24414062,0.0,0.0,0.0,-58.864746,64.24805,-30.349731
1766498368277,-0.89453125,-0.36621094,0.21875,1.159668,0.4272461,-0.36621094,0.0,0.0,0.0,-58.864746,64.24805,-30.349731
1766498368288,-0.89453125,-0.36621094,0.21875,1.159668,0.4272461,-0.36621094,0.0,0.0,0.0,-58.914185,64.26453,-30.349731
1766498368376,-0.9057617,-0.36523438,0.21386719,-0.12207031,0.24414062,0.061035156,0.0,0.0,0.0,-58.914185,64.26453,-30.349731
1766498368388,-0.9057617,-0.36523438,0.21386719,-0.12207031,0.24414062,0.061035156,0.0,0.0,0.0,-58.793335,64.25354,-30.135498
1766498368476,-0.9067383,-0.36572266,0.21923828,0.24414062,-0.61035156,0.18310547,0.0,0.0,0.0,-58.793335,64.25354,-30.135498
1766498368488,-0.9067383,-0.36572266,0.21923828,0.24414062,-0.61035156,0.18310547,0.0,0.0,0.0,-58.776855,64.27551,-30.08606
1766498368576,-0.9003906,-0.36279297,0.2241211,0.0,-0.36621094,-0.30517578,0.0,0.0,0.0,-58.776855,64.27551,-30.08606
1766498368587,-0.9003906,-0.36279297,0.2241211,0.0,-0.36621094,-0.30517578,0.0,0.0,0.0,-58.73291,64.27002,-30.036621
1766498368675,-0.9086914,-0.36816406,0.2133789,0.12207031,-0.61035156,0.061035156,0.0,0.0,0.0,-58.73291,64.27002,-30.036621
1766498368687,-0.9086914,-0.36816406,0.2133789,0.12207031,-0.61035156,0.061035156,0.0,0.0,0.0,-58.59558,64.24805,-29.893799
1766498368775,-0.9033203,-0.3647461,0.21972656,0.0,0.12207031,-0.12207031,0.0,0.0,0.0,-58.59558,64.24805,-29.893799
1766498368787,-0.9033203,-0.3647461,0.21972656,0.0,0.12207031,-0.12207031,0.0,0.0,0.0,-58.650513,64.25903,-29.94873
1766498368875,-0.9042969,-0.3647461,0.22216797,0.061035156,-0.12207031,0.0,0.0,0.0,0.0,-58.650513,64.25903,-29.94873
1766498368886,-0.9042969,-0.3647461,0.22216797,0.061035156,-0.12207031,0.0,0.0,0.0,0.0,-58.601074,64.25903,-29.888306
1766498368974,-0.9033203,-0.3642578,0.22070312,-0.30517578,-0.48828125,0.0,0.0,0.0,0.0,-58.601074,64.25903,-29.888306
1766498368986,-0.9033203,-0.3642578,0.22070312,-0.30517578,-0.48828125,0.0,0.0,0.0,0.0,-58.562622,64.26453,-29.838867
1766498369074,-0.9067383,-0.3642578,0.21728516,0.36621094,0.61035156,-0.36621094,0.0,0.0,0.0,-58.562622,64.26453,-29.838867
1766498369086,-0.9067383,-0.3642578,0.21728516,0.36621094,0.61035156,-0.36621094,0.0,0.0,0.0,-58.590088,64.27551,-29.866333
1766498369174,-0.89990234,-0.36523438,0.21728516,0.61035156,1.159668,-0.79345703,0.0,0.0,0.0,-58.590088,64.27551,-29.866333
1766498369186,-0.89990234,-0.36523438,0.21728516,0.61035156,1.159668,-0.79345703,0.0,0.0,0.0,-58.705444,64.27551,-30.047607
1766498369274,-0.90771484,-0.3647461,0.20947266,-0.9765625,0.0,0.061035156,0.0,0.0,0.0,-58.705444,64.27551,-30.047607
1766498369285,-0.90771484,-0.3647461,0.20947266,-0.9765625,0.0,0.061035156,0.0,0.0,0.0,-58.705444,64.25903,-30.014648
1766498369373,-0.9042969,-0.36767578,0.21728516,1.159668,1.7089844,-0.7324219,0.0,0.0,0.0,-58.705444,64.25903,-30.014648
1766498369385,-0.9042969,-0.36767578,0.21728516,1.159668,1.7089844,-0.7324219,0.0,0.0,0.0,-58.963623,64.31946,-30.289307
1766498369473,-0.89990234,-0.36669922,0.21972656,-0.12207031,0.30517578,-0.30517578,0.0,0.0,0.0,-58.963623,64.31946,-30.289307
1766498369485,-0.89990234,-0.36669922,0.21972656,-0.12207031,0.30517578,-0.30517578,0.0,0.0,0.0,-59.177856,64.33594,-30.580444
1766498369573,-0.9091797,-0.36816406,0.21386719,0.7324219,0.91552734,-0.4272461,0.0,0.0,0.0,-59.177856,64.33594,-30.580444
1766498369584,-0.9091797,-0.36816406,0.21386719,0.7324219,0.91552734,-0.4272461,0.0,0.0,0.0,-59.194336,64.33594,-30.558472
1766498369673,-0.9038086,-0.3671875,0.21435547,0.12207031,0.5493164,-0.5493164,0.0,0.0,0.0,-59.194336,64.33594,-30.558472
1766498369684,-0.9038086,-0.3671875,0.21435547,0.12207031,0.5493164,-0.5493164,0.0,0.0,0.0,-59.348145,64.3634,-30.739746
1766498369772,-0.9033203,-0.36767578,0.21533203,0.12207031,-0.061035156,-0.18310547,0.0,0.0,0.0,-59.348145,64.3634,-30.739746
1766498369784,-0.9033203,-0.36767578,0.21533203,0.12207031,-0.061035156,-0.18310547,0.0,0.0,0.0,-59.42505,64.3634,-30.827637
1766498369872,-0.9067383,-0.36914062,0.2133789,-0.18310547,-0.061035156,0.0,0.0,0.0,0.0,-59.42505,64.3634,-30.827637
1766498369883,-0.9067383,-0.36914062,0.2133789,-0.18310547,-0.061035156,0.0,0.0,0.0,0.0,-59.419556,64.3634,-30.811157
1766498369972,-0.90722656,-0.36621094,0.20947266,0.24414062,0.36621094,0.061035156,0.0,0.0,0.0,-59.419556,64.3634,-30.811157
1766498369983,-0.90722656,-0.36621094,0.20947266,0.24414062,0.36621094,0.061035156,0.0,0.0,0.0,-59.419556,64.37988,-30.750732
1766498370071,-0.9003906,-0.36767578,0.2133789,0.61035156,0.91552734,-0.24414062,0.0,0.0,0.0,-59.419556,64.37988,-30.750732
1766498370083,-0.9003906,-0.36767578,0.2133789,0.61035156,0.91552734,-0.24414062,0.0,0.0,0.0,-59.49646,64.40735,-30.81665
1766498370171,-0.90722656,-0.3642578,0.20458984,-0.48828125,-0.4272461,0.30517578,0.0,0.0,0.0,-59.49646,64.40735,-30.81665
1766498370183,-0.90722656,-0.3642578,0.20458984,-0.48828125,-0.4272461,0.30517578,0.0,0.0,0.0,-59.490967,64.41284,-30.80017
1766498370271,-0.90478516,-0.36865234,0.20703125,0.6713867,0.24414062,0.0,0.0,0.0,0.0,-59.490967,64.41284,-30.80017
1766498370282,-0.90478516,-0.36865234,0.20703125,0.6713867,0.24414062,0.0,0.0,0.0,0.0,-59.55139,64.4458,-30.882568
1766498370371,-0.90234375,-0.3642578,0.21533203,-0.6713867,-0.12207031,0.48828125,0.0,0.0,0.0,-59.55139,64.4458,-30.882568
1766498370382,-0.90234375,-0.3642578,0.21533203,-0.6713867,-0.12207031,0.48828125,0.0,0.0,0.0,-59.556885,64.49524,-30.84961
1766498370470,-0.91015625,-0.3642578,0.21191406,-0.24414062,-1.0986328,0.30517578,0.0,0.0,0.0,-59.556885,64.49524,-30.84961
1766498370482,-0.91015625,-0.3642578,0.21191406,-0.24414062,-1.0986328,0.30517578,0.0,0.0,0.0,-59.430542,64.51721,-30.629883
1766498370570,-0.9067383,-0.36621094,0.21435547,0.12207031,0.48828125,-0.36621094,0.0,0.0,0.0,-59.430542,64.51721,-30.629883
1766498370581,-0.9067383,-0.36621094,0.21435547,0.12207031,0.48828125,-0.36621094,0.0,0.0,0.0,-59.47998,64.51172,-30.723267
1766498370670,-0.90527344,-0.3642578,0.2133789,0.0,-0.24414062,-0.061035156,0.0,0.0,0.0,-59.47998,64.51172,-30.723267
1766498370681,-0.90527344,-0.3642578,0.2133789,0.0,-0.24414062,-0.061035156,0.0,0.0,0.0,-59.47998,64.522705,-30.701294
1766498370769,-0.9082031,-0.36621094,0.21484375,0.79345703,-1.159668,-0.24414062,0.0,0.0,0.0,-59.47998,64.522705,-30.701294
1766498370781,-0.9082031,-0.36621094,0.21484375,0.79345703,-1.159668,-0.24414062,0.0,0.0,0.0,-59.309692,64.489746,-30.569458
1766498370869,-0.90478516,-0.36376953,0.21582031,1.4038086,-0.79345703,-0.36621094,0.0,0.0,0.0,-59.309692,64.489746,-30.569458
1766498370881,-0.90478516,-0.36376953,0.21582031,1.4038086,-0.79345703,-0.36621094,0.0,0.0,0.0,-59.051514,64.42383,-30.349731
1766498370969,-0.90185547,-0.3671875,0.2163086,1.0986328,-0.30517578,-0.36621094,0.0,0.0,0.0,-59.051514,64.42383,-30.349731
1766498370981,-0.90185547,-0.3671875,0.2163086,1.0986328,-0.30517578,-0.36621094,0.0,0.0,0.0,-58.87024,64.39087,-30.228882
1766498371069,-0.9091797,-0.37060547,0.21289062,0.24414062,-1.5869141,0.24414062,0.0,0.0,0.0,-58.87024,64.39087,-30.228882
1766498371080,-0.9091797,-0.37060547,0.21289062,0.24414062,-1.5869141,0.24414062,0.0,0.0,0.0,-58.68347,64.33594,-30.097046
1766498371168,-0.90185547,-0.36132812,0.22558594,0.79345703,0.61035156,-0.48828125,0.0,0.0,0.0,-58.68347,64.33594,-30.097046
1766498371180,-0.90185547,-0.36132812,0.22558594,0.79345703,0.61035156,-0.48828125,0.0,0.0,0.0,-58.771362,64.346924,-30.17395
1766498371268,-0.9042969,-0.3642578,0.2163086,-0.6713867,-0.12207031,0.12207031,0.0,0.0,0.0,-58.771362,64.346924,-30.17395
1766498371280,-0.9042969,-0.3642578,0.2163086,-0.6713867,-0.12207031,0.12207031,0.0,0.0,0.0,-58.760376,64.346924,-30.168457
1766498371368,-0.9057617,-0.36523438,0.21972656,-0.30517578,-0.6713867,0.48828125,0.0,0.0,0.0,-58.760376,64.346924,-30.168457
1766498371379,-0.9057617,-0.36523438,0.21972656,-0.30517578,-0.6713867,0.48828125,0.0,0.0,0.0,-58.721924,64.37439,-30.06958
1766498371467,-0.9042969,-0.36523438,0.21875,0.0,0.7324219,-0.36621094,0.0,0.0,0.0,-58.721924,64.37439,-30.06958
1766498371479,-0.9042969,-0.36523438,0.21875,0.0,0.7324219,-0.36621094,0.0,0.0,0.0,-58.793335,64.401855,-30.140991
1766498371567,-0.9042969,-0.36328125,0.21923828,-0.4272461,0.18310547,0.0,0.0,0.0,0.0,-58.793335,64.401855,-30.140991
1766498371579,-0.9042969,-0.36328125,0.21923828,-0.4272461,0.18310547,0.0,0.0,0.0,0.0,-58.9032,64.42383,-30.228882
1766498371667,-0.90478516,-0.3647461,0.21728516,-0.36621094,-0.18310547,0.18310547,0.0,0.0,0.0,-58.9032,64.42383,-30.228882
1766498371679,-0.90478516,-0.3647461,0.21728516,-0.36621094,-0.18310547,0.18310547,0.0,0.0,0.0,-58.892212,64.434814,-30.184937
1766498371767,-0.90625,-0.36376953,0.21826172,-0.061035156,-0.24414062,0.18310547,0.0,0.0,0.0,-58.892212,64.434814,-30.184937
1766498371778,-0.90625,-0.36376953,0.21826172,-0.061035156,-0.24414062,0.18310547,0.0,0.0,0.0,-58.864746,64.451294,-30.091553
1766498371867,-0.8959961,-0.36376953,0.21826172,1.3427734,0.61035156,-0.24414062,0.0,0.0,0.0,-58.864746,64.451294,-30.091553
1766498371878,-0.8959961,-0.36376953,0.21826172,1.3427734,0.61035156,-0.24414062,0.0,0.0,0.0,-58.831787,64.46777,-30.042114
1766498371966,-0.9057617,-0.3642578,0.21240234,0.061035156,0.7324219,-0.18310547,0.0,0.0,0.0,-58.831787,64.46777,-30.042114
1766498371978,-0.9057617,-0.3642578,0.21240234,0.061035156,0.7324219,-0.18310547,0.0,0.0,0.0,-58.738403,64.45679,-29.866333
1766498372066,-0.90771484,-0.3623047,0.22021484,0.5493164,-0.18310547,0.061035156,0.0,0.0,0.0,-58.738403,64.45679,-29.866333
1766498372077,-0.90771484,-0.3623047,0.22021484,0.5493164,-0.18310547,0.061035156,0.0,0.0,0.0,-58.727417,64.46228,-29.838867
1766498372165,-0.9003906,-0.36132812,0.22558594,-0.36621094,-0.5493164,0.0,0.0,0.0,0.0,-58.727417,64.46228,-29.838867
1766498372177,-0.9003906,-0.36132812,0.22558594,-0.36621094,-0.5493164,0.0,0.0,0.0,0.0,-58.727417,64.47327,-29.849854
1766498372265,-0.90771484,-0.36669922,0.21386719,0.061035156,-0.36621094,0.061035156,0.0,0.0,0.0,-58.727417,64.47327,-29.849854
1766498372277,-0.90771484,-0.36669922,0.21386719,0.061035156,-0.36621094,0.061035156,0.0,0.0,0.0,-58.590088,64.46777,-29.707031
1766498372365,-0.9042969,-0.36328125,0.22021484,0.36621094,0.0,-0.061035156,0.0,0.0,0.0,-58.590088,64.46777,-29.707031
1766498372376,-0.9042969,-0.36328125,0.22021484,0.36621094,0.0,-0.061035156,0.0,0.0,0.0,-58.568115,64.46777,-29.685059
1766498372465,-0.9038086,-0.36328125,0.22167969,0.061035156,-0.30517578,0.0,0.0,0.0,0.0,-58.568115,64.46777,-29.685059
1766498372476,-0.9038086,-0.36328125,0.22167969,0.061035156,-0.30517578,0.0,0.0,0.0,0.0,-58.47473,64.45679,-29.591675
1766498372564,-0.9042969,-0.3618164,0.22167969,-0.48828125,-0.48828125,0.0,0.0,0.0,0.0,-58.47473,64.45679,-29.591675
1766498372576,-0.9042969,-0.3618164,0.22167969,-0.48828125,-0.48828125,0.0,0.0,0.0,0.0,-58.40332,64.4458,-29.503784
1766498372664,-0.90625,-0.3623047,0.22314453,-0.12207031,0.30517578,0.0,0.0,0.0,0.0,-58.40332,64.4458,-29.503784
1766498372676,-0.90625,-0.3623047,0.22314453,-0.12207031,0.30517578,0.0,0.0,0.0,0.0,-58.36487,64.45679,-29.498291
1766498372764,-0.9086914,-0.3618164,0.22802734,-0.061035156,-0.6713867,-0.24414062,0.0,0.0,0.0,-58.36487,64.45679,-29.498291
1766498372776,-0.9086914,-0.3618164,0.22802734,-0.061035156,-0.6713867,-0.24414062,0.0,0.0,0.0,-58.40332,64.4458,-29.597168
1766498372863,-0.8989258,-0.36035156,0.22802734,-0.061035156,0.8544922,-0.4272461,0.0,0.0,0.0,-58.40332,64.4458,-29.597168
1766498372875,-0.8989258,-0.36035156,0.22802734,-0.061035156,0.8544922,-0.4272461,0.0,0.0,0.0,-58.35388,64.42383,-29.542236
1766498372963,-0.90771484,-0.36669922,0.21484375,0.30517578,-0.061035156,-0.24414062,0.0,0.0,0.0,-58.35388,64.42383,-29.542236
1766498372975,-0.90771484,-0.36669922,0.21484375,0.30517578,-0.061035156,-0.24414062,0.0,0.0,0.0,-58.304443,64.41284,-29.542236
1766498373063,-0.90185547,-0.3618164,0.2265625,0.0,-0.18310547,0.0,0.0,0.0,0.0,-58.304443,64.41284,-29.542236
1766498373074,-0.90185547,-0.3618164,0.2265625,0.0,-0.18310547,0.0,0.0,0.0,0.0,-58.29895,64.40735,-29.51477
1766498373163,-0.90625,-0.36376953,0.22021484,0.18310547,0.48828125,-0.36621094,0.0,0.0,0.0,-58.29895,64.40735,-29.51477
1766498373174,-0.90625,-0.36376953,0.22021484,0.18310547,0.48828125,-0.36621094,0.0,0.0,0.0,-58.233032,64.39636,-29.448853
1766498373262,-0.90478516,-0.36328125,0.22070312,0.061035156,0.0,-0.18310547,0.0,0.0,0.0,-58.233032,64.39636,-29.448853
1766498373274,-0.90478516,-0.36328125,0.22070312,0.061035156,0.0,-0.18310547,0.0,0.0,0.0,-58.293457,64.39636,-29.553223
1766498373362,-0.90283203,-0.36376953,0.22363281,0.0,0.0,0.061035156,0.0,0.0,0.0,-58.293457,64.39636,-29.553223
1766498373374,-0.90283203,-0.36376953,0.22363281,0.0,0.0,0.061035156,0.0,0.0,0.0,-58.287964,64.39087,-29.536743
1766498373462,-0.9042969,-0.3623047,0.2241211,0.24414062,0.12207031,-0.12207031,0.0,0.0,0.0,-58.287964,64.39087,-29.536743
1766498373473,-0.9042969,-0.3623047,0.2241211,0.24414062,0.12207031,-0.12207031,0.0,0.0,0.0,-58.260498,64.39636,-29.503784
1766498373561,-0.90283203,-0.3618164,0.22509766,0.5493164,0.4272461,-0.18310547,0.0,0.0,0.0,-58.260498,64.39636,-29.503784
1766498373573,-0.90283203,-0.3618164,0.22509766,0.5493164,0.4272461,-0.18310547,0.0,0.0,0.0,-58.293457,64.41284,-29.542236
1766498373661,-0.9082031,-0.36523438,0.22216797,0.0,-1.2207031,0.061035156,0.0,0.0,0.0,-58.293457,64.41284,-29.542236
1766498373673,-0.9082031,-0.36523438,0.22216797,0.0,-1.2207031,0.061035156,0.0,0.0,0.0,-58.31543,64.39636,-29.613647
1766498373761,-0.89941406,-0.36083984,0.23144531,0.4272461,0.5493164,-0.24414062,0.0,0.0,0.0,-58.31543,64.39636,-29.613647
1766498373773,-0.89941406,-0.36083984,0.23144531,0.4272461,0.5493164,-0.24414062,0.0,0.0,0.0,-58.33191,64.39636,-29.602661
1766498373861,-0.90625,-0.36376953,0.2211914,0.061035156,0.0,-0.18310547,0.0,0.0,0.0,-58.33191,64.39636,-29.602661
1766498373872,-0.90625,-0.36376953,0.2211914,0.061035156,0.0,-0.18310547,0.0,0.0,0.0,-58.31543,64.39087,-29.63562
1766498373960,-0.9057617,-0.36279297,0.22314453,0.24414062,-0.30517578,-0.061035156,0.0,0.0,0.0,-58.31543,64.39087,-29.63562
1766498373972,-0.9057617,-0.36279297,0.22314453,0.24414062,-0.30517578,-0.061035156,0.0,0.0,0.0,-58.320923,64.39087,-29.6521
1766498374060,-0.9042969,-0.36279297,0.22070312,0.12207031,0.48828125,-0.24414062,0.0,0.0,0.0,-58.320923,64.39087,-29.6521
1766498374072,-0.9042969,-0.36279297,0.22070312,0.12207031,0.48828125,-0.24414062,0.0,0.0,0.0,-58.31543,64.39087,-29.6521
1766498374160,-0.90478516,-0.36376953,0.2211914,0.0,-0.061035156,0.0,0.0,0.0,0.0,-58.31543,64.39087,-29.6521
1766498374171,-0.90478516,-0.36376953,0.2211914,0.0,-0.061035156,0.0,0.0,0.0,0.0,-58.359375,64.39636,-29.718018
1766498374260,-0.9042969,-0.36328125,0.22265625,0.0,0.0,0.0,0.0,0.0,0.0,-58.359375,64.39636,-29.718018
1766498374271,-0.9042969,-0.36328125,0.22265625,0.0,0.0,0.0,0.0,0.0,0.0,-58.35388,64.40735,-29.707031
1766498374359,-0.9057617,-0.36279297,0.22021484,0.5493164,0.36621094,-0.18310547,0.0,0.0,0.0,-58.35388,64.40735,-29.707031
1766498374371,-0.9057617,-0.36279297,0.22021484,0.5493164,0.36621094,-0.18310547,0.0,0.0,0.0,-58.35388,64.40735,-29.712524
1766498374459,-0.8989258,-0.36572266,0.22070312,1.159668,0.61035156,-0.4272461,0.0,0.0,0.0,-58.35388,64.40735,-29.712524
1766498374470,-0.8989258,-0.36572266,0.22070312,1.159668,0.61035156,-0.4272461,0.0,0.0,0.0,-58.40332,64.42383,-29.77295
1766498374559,-0.9082031,-0.36376953,0.21484375,-0.061035156,-0.5493164,0.18310547,0.0,0.0,0.0,-58.40332,64.42383,-29.77295
1766498374570,-0.9082031,-0.36376953,0.21484375,-0.061035156,-0.5493164,0.18310547,0.0,0.0,0.0,-58.392334,64.41284,-29.761963
1766498374658,-0.9003906,-0.36083984,0.22949219,0.6713867,0.48828125,-0.30517578,0.0,0.0,0.0,-58.392334,64.41284,-29.761963
1766498374670,-0.9003906,-0.36083984,0.22949219,0.6713867,0.48828125,-0.30517578,0.0,0.0,0.0,-58.47473,64.42932,-29.833374
1766498374758,-0.9042969,-0.3623047,0.22167969,-0.061035156,0.0,-0.061035156,0.0,0.0,0.0,-58.47473,64.42932,-29.833374
1766498374770,-0.9042969,-0.3623047,0.22167969,-0.061035156,0.0,-0.061035156,0.0,0.0,0.0,-58.43628,64.42383,-29.816895
1766498374858,-0.9067383,-0.36279297,0.22070312,0.0,-0.6713867,0.18310547,0.0,0.0,0.0,-58.43628,64.42383,-29.816895
1766498374869,-0.9067383,-0.36279297,0.22070312,0.0,-0.6713867,0.18310547,0.0,0.0,0.0,-58.37036,64.418335,-29.734497
1766498374958,-0.90283203,-0.36328125,0.22167969,0.18310547,0.48828125,-0.36621094,0.0,0.0,0.0,-58.37036,64.418335,-29.734497
1766498374970,-0.90283203,-0.36328125,0.22167969,0.18310547,0.48828125,-0.36621094,0.0,0.0,0.0,-58.414307,64.42383,-29.805908
1766498375057,-0.90478516,-0.36328125,0.21972656,0.0,-0.061035156,0.0,0.0,0.0,0.0,-58.414307,64.42383,-29.805908
1766498375069,-0.90478516,-0.36328125,0.21972656,0.0,-0.061035156,0.0,0.0,0.0,0.0,-58.430786,64.42932,-29.816895
1766498375157,-0.90478516,-0.36279297,0.22216797,-0.061035156,-0.12207031,0.0,0.0,0.0,0.0,-58.430786,64.42932,-29.816895
1766498375168,-0.90478516,-0.36279297,0.22216797,-0.061035156,-0.12207031,0.0,0.0,0.0,0.0,-58.4198,64.434814,-29.789429
1766498375257,-0.90722656,-0.3623047,0.21972656,0.4272461,0.12207031,-0.24414062,0.0,0.0,0.0,-58.4198,64.434814,-29.789429
1766498375268,-0.90722656,-0.3623047,0.21972656,0.4272461,0.12207031,-0.24414062,0.0,0.0,0.0,-58.425293,64.42932,-29.778442
1766498375356,-0.8984375,-0.36669922,0.22167969,1.0375977,0.61035156,-0.4272461,0.0,0.0,0.0,-58.425293,64.42932,-29.778442
1766498375368,-0.8984375,-0.36669922,0.22167969,1.0375977,0.61035156,-0.4272461,0.0,0.0,0.0,-58.463745,64.451294,-29.833374
1766498375456,-0.9091797,-0.3647461,0.21582031,0.18310547,-0.30517578,0.0,0.0,0.0,0.0,-58.463745,64.451294,-29.833374
1766498375468,-0.9091797,-0.3647461,0.21582031,0.18310547,-0.30517578,0.0,0.0,0.0,0.0,-58.408813,64.42932,-29.783936
1766498375556,-0.90527344,-0.36279297,0.22363281,0.91552734,-0.12207031,-0.18310547,0.0,0.0,0.0,-58.408813,64.42932,-29.783936
1766498375568,-0.90527344,-0.36279297,0.22363281,0.91552734,-0.12207031,-0.18310547,0.0,0.0,0.0,-58.4198,64.42932,-29.811401
1766498375656,-0.90234375,-0.36035156,0.22167969,-0.18310547,-0.36621094,0.0,0.0,0.0,0.0,-58.4198,64.42932,-29.811401
1766498375667,-0.90234375,-0.36035156,0.22167969,-0.18310547,-0.36621094,0.0,0.0,0.0,0.0,-58.359375,64.418335,-29.761963
1766498375755,-0.9086914,-0.3647461,0.21875,0.061035156,-0.4272461,0.12207031,0.0,0.0,0.0,-58.359375,64.418335,-29.761963
1766498375767,-0.9086914,-0.3647461,0.21875,0.061035156,-0.4272461,0.12207031,0.0,0.0,0.0,-58.28247,64.41284,-29.685059
1766498375855,-0.90283203,-0.3623047,0.22363281,0.061035156,0.18310547,-0.18310547,0.0,0.0,0.0,-58.28247,64.41284,-29.685059
1766498375867,-0.90283203,-0.3623047,0.22363281,0.061035156,0.18310547,-0.18310547,0.0,0.0,0.0,-58.36487,64.42383,-29.800415
1766498375955,-0.9042969,-0.3642578,0.22216797,-0.18310547,0.36621094,0.0,0.0,0.0,0.0,-58.36487,64.42383,-29.800415
1766498375967,-0.9042969,-0.3642578,0.22216797,-0.18310547,0.36621094,0.0,0.0,0.0,0.0,-58.425293,64.4458,-29.86084
1766498376055,-0.90527344,-0.36376953,0.2211914,-0.24414062,0.5493164,0.0,0.0,0.0,0.0,-58.425293,64.4458,-29.86084
1766498376066,-0.90527344,-0.36376953,0.2211914,-0.24414062,0.5493164,0.0,0.0,0.0,0.0,-58.502197,64.47327,-29.904785
1766498376155,-0.9067383,-0.36279297,0.21679688,0.0,0.79345703,0.0,0.0,0.0,0.0,-58.502197,64.47327,-29.904785
1766498376166,-0.9067383,-0.36279297,0.21679688,0.0,0.79345703,0.0,0.0,0.0,0.0,-58.59558,64.506226,-29.96521
1766498376255,-0.89941406,-0.36328125,0.2163086,0.91552734,0.8544922,-0.4272461,0.0,0.0,0.0,-58.59558,64.506226,-29.96521
1766498376266,-0.89941406,-0.36328125,0.2163086,0.91552734,0.8544922,-0.4272461,0.0,0.0,0.0,-58.73291,64.539185,-30.119019
1766498376354,-0.9067383,-0.36376953,0.20898438,-0.24414062,0.9765625,0.0,0.0,0.0,0.0,-58.73291,64.539185,-30.119019
1766498376366,-0.9067383,-0.36376953,0.20898438,-0.24414062,0.9765625,0.0,0.0,0.0,0.0,-58.73291,64.55017,-30.047607
1766498376453,-0.9086914,-0.36376953,0.21826172,0.0,-0.061035156,0.24414062,0.0,0.0,0.0,-58.73291,64.55017,-30.047607
1766498376465,-0.9086914,-0.36376953,0.21826172,0.0,-0.061035156,0.24414062,0.0,0.0,0.0,-58.831787,64.58862,-30.108032
1766498376553,-0.9013672,-0.35986328,0.22265625,-0.6713867,-0.36621094,0.061035156,0.0,0.0,0.0,-58.831787,64.58862,-30.108032
1766498376565,-0.9013672,-0.35986328,0.22265625,-0.6713867,-0.36621094,0.061035156,0.0,0.0,0.0,-58.87024,64.6051,-30.10254
1766498376653,-0.9086914,-0.3647461,0.21289062,0.0,0.061035156,0.0,0.0,0.0,0.0,-58.87024,64.6051,-30.10254
1766498376664,-0.9086914,-0.3647461,0.21289062,0.0,0.061035156,0.0,0.0,0.0,0.0,-58.80432,64.610596,-30.009155
1766498376753,-0.9042969,-0.36083984,0.21777344,-0.24414062,-0.061035156,0.0,0.0,0.0,0.0,-58.80432,64.610596,-30.009155
1766498376764,-0.9042969,-0.36083984,0.21777344,-0.24414062,-0.061035156,0.0,0.0,0.0,0.0,-58.859253,64.627075,-30.047607
1766498376852,-0.90234375,-0.35986328,0.2211914,0.18310547,-0.061035156,0.0,0.0,0.0,0.0,-58.859253,64.627075,-30.047607
1766498376864,-0.90234375,-0.35986328,0.2211914,0.18310547,-0.061035156,0.0,0.0,0.0,0.0,-58.831787,64.63257,-29.992676
1766498376952,-0.9057617,-0.36083984,0.21972656,-0.79345703,-0.79345703,0.0,0.0,0.0,0.0,-58.831787,64.63257,-29.992676
1766498376964,-0.9057617,-0.36083984,0.21972656,-0.79345703,-0.79345703,0.0,0.0,0.0,0.0,-58.727417,64.61609,-29.849854
1766498377052,-0.90722656,-0.36083984,0.21826172,-0.12207031,0.12207031,0.0,0.0,0.0,0.0,-58.727417,64.61609,-29.849854
1766498377063,-0.90722656,-0.36083984,0.21826172,-0.12207031,0.12207031,0.0,0.0,0.0,0.0,-58.639526,64.6051,-29.750977
1766498377151,-0.90966797,-0.36083984,0.2241211,-0.36621094,-1.159668,0.0,0.0,0.0,0.0,-58.639526,64.6051,-29.750977
1766498377163,-0.90966797,-0.36083984,0.2241211,-0.36621094,-1.159668,0.0,0.0,0.0,0.0,-58.601074,64.59961,-29.761963
1766498377251,-0.9008789,-0.35839844,0.2241211,-0.36621094,0.4272461,-0.061035156,0.0,0.0,0.0,-58.601074,64.59961,-29.761963
1766498377263,-0.9008789,-0.35839844,0.2241211,-0.36621094,0.4272461,-0.061035156,0.0,0.0,0.0,-58.49121,64.58313,-29.61914
1766498377351,-0.9111328,-0.36572266,0.21289062,0.0,0.0,-0.18310547,0.0,0.0,0.0,-58.49121,64.58313,-29.61914
1766498377362,-0.9111328,-0.36572266,0.21289062,0.0,0.0,-0.18310547,0.0,0.0,0.0,-58.447266,64.58313,-29.602661
1766498377451,-0.9008789,-0.35888672,0.22460938,0.30517578,0.0,-0.30517578,0.0,0.0,0.0,-58.447266,64.58313,-29.602661
1766498377463,-0.9008789,-0.35888672,0.22460938,0.30517578,0.0,-0.30517578,0.0,0.0,0.0,-58.458252,64.55017,-29.602661
1766498377550,-0.9082031,-0.3618164,0.21923828,0.4272461,0.48828125,-0.18310547,0.0,0.0,0.0,-58.458252,64.55017,-29.602661
1766498377562,-0.9082031,-0.3618164,0.21923828,0.4272461,0.48828125,-0.18310547,0.0,0.0,0.0,-58.35388,64.54468,-29.498291
1766498377650,-0.9057617,-0.36279297,0.21875,0.36621094,0.061035156,-0.4272461,0.0,0.0,0.0,-58.35388,64.54468,-29.498291
1766498377662,-0.9057617,-0.36279297,0.21875,0.36621094,0.061035156,-0.4272461,0.0,0.0,0.0,-58.40332,64.53369,-29.597168
1766498377750,-0.9033203,-0.36279297,0.22070312,0.24414062,0.0,0.0,0.0,0.0,0.0,-58.40332,64.53369,-29.597168
1766498377762,-0.9033203,-0.36279297,0.22070312,0.24414062,0.0,0.0,0.0,0.0,0.0,-58.397827,64.522705,-29.61914
1766498377849,-0.90527344,-0.3623047,0.22363281,-0.12207031,0.0,0.0,0.0,0.0,0.0,-58.397827,64.522705,-29.61914
1766498377861,-0.90527344,-0.3623047,0.22363281,-0.12207031,0.0,0.0,0.0,0.0,0.0,-58.359375,64.522705,-29.558716
1766498377949,-0.90625,-0.36035156,0.22460938,0.12207031,0.48828125,0.0,0.0,0.0,0.0,-58.359375,64.522705,-29.558716
1766498377961,-0.90625,-0.36035156,0.22460938,0.12207031,0.48828125,0.0,0.0,0.0,0.0,-58.37036,64.53369,-29.553223
1766498378049,-0.9082031,-0.36279297,0.22509766,0.0,-0.6713867,0.061035156,0.0,0.0,0.0,-58.37036,64.53369,-29.553223
1766498378061,-0.9082031,-0.36279297,0.22509766,0.0,-0.6713867,0.061035156,0.0,0.0,0.0,-58.45276,64.55017,-29.685059
1766498378149,-0.9008789,-0.35839844,0.22851562,0.24414062,0.9765625,-0.24414062,0.0,0.0,0.0,-58.45276,64.55017,-29.685059
1766498378160,-0.9008789,-0.35839844,0.22851562,0.24414062,0.9765625,-0.24414062,0.0,0.0,0.0,-58.408813,64.55017,-29.580688
1766498378248,-0.9082031,-0.36376953,0.21728516,0.18310547,0.24414062,-0.36621094,0.0,0.0,0.0,-58.408813,64.55017,-29.580688
1766498378261,-0.9082031,-0.36376953,0.21728516,0.18310547,0.24414062,-0.36621094,0.0,0.0,0.0,-58.43628,64.56116,-29.657593
1766498378348,-0.90527344,-0.359375,0.22265625,0.061035156,-0.36621094,0.0,0.0,0.0,0.0,-58.43628,64.56116,-29.657593
1766498378360,-0.90527344,-0.359375,0.22265625,0.061035156,-0.36621094,0.0,0.0,0.0,0.0,-58.430786,64.555664,-29.646606
1766498378448,-0.9067383,-0.3618164,0.21875,0.24414062,0.6713867,-0.36621094,0.0,0.0,0.0,-58.430786,64.555664,-29.646606
1766498378460,-0.9067383,-0.3618164,0.21875,0.24414062,0.6713867,-0.36621094,0.0,0.0,0.0,-58.38684,64.55017,-29.61914
1766498378548,-0.90478516,-0.3623047,0.21875,0.18310547,0.12207031,-0.18310547,0.0,0.0,0.0,-58.38684,64.55017,-29.61914
1766498378559,-0.90478516,-0.3623047,0.21875,0.18310547,0.12207031,-0.18310547,0.0,0.0,0.0,-58.46924,64.55017,-29.72351
1766498378648,-0.90527344,-0.36132812,0.22021484,0.18310547,0.0,-0.061035156,0.0,0.0,0.0,-58.46924,64.55017,-29.72351
1766498378659,-0.90527344,-0.36132812,0.22021484,0.18310547,0.0,-0.061035156,0.0,0.0,0.0,-58.45276,64.54468,-29.701538
1766498378747,-0.90478516,-0.36132812,0.22216797,-0.12207031,0.24414062,-0.18310547,0.0,0.0,0.0,-58.45276,64.54468,-29.701538
1766498378759,-0.90478516,-0.36132812,0.22216797,-0.12207031,0.24414062,-0.18310547,0.0,0.0,0.0,-58.458252,64.54468,-29.701538
1766498378847,-0.90478516,-0.36083984,0.22558594,0.0,0.7324219,0.0,0.0,0.0,0.0,-58.458252,64.54468,-29.701538
1766498378858,-0.90478516,-0.36083984,0.22558594,0.0,0.7324219,0.0,0.0,0.0,0.0,-58.496704,64.56116,-29.750977
1766498378946,-0.90625,-0.36572266,0.22021484,-0.18310547,0.12207031,-0.7324219,0.0,0.0,0.0,-58.496704,64.56116,-29.750977
1766498378958,-0.90625,-0.36572266,0.22021484,-0.18310547,0.12207031,-0.7324219,0.0,0.0,0.0,-58.601074,64.555664,-29.910278
1766498379046,-0.9003906,-0.35888672,0.22167969,0.061035156,1.3427734,-0.48828125,0.0,0.0,0.0,-58.601074,64.555664,-29.910278
1766498379058,-0.9003906,-0.35888672,0.22167969,0.061035156,1.3427734,-0.48828125,0.0,0.0,0.0,-58.61206,64.555664,-29.882812
1766498379146,-0.9067383,-0.36523438,0.21240234,-0.061035156,-0.18310547,-0.30517578,0.0,0.0,0.0,-58.61206,64.555664,-29.882812
1766498379157,-0.9067383,-0.36523438,0.21240234,-0.061035156,-0.18310547,-0.30517578,0.0,0.0,0.0,-58.617554,64.555664,-29.910278
1766498379246,-0.90185547,-0.3623047,0.2211914,-0.18310547,-0.30517578,0.0,0.0,0.0,0.0,-58.617554,64.555664,-29.910278
1766498379257,-0.90185547,-0.3623047,0.2211914,-0.18310547,-0.30517578,0.0,0.0,0.0,0.0,-58.5791,64.539185,-29.84436
1766498379345,-0.9082031,-0.3642578,0.21679688,0.5493164,0.5493164,-0.30517578,0.0,0.0,0.0,-58.5791,64.539185,-29.84436
1766498379357,-0.9082031,-0.3642578,0.21679688,0.5493164,0.5493164,-0.30517578,0.0,0.0,0.0,-58.52417,64.53369,-29.805908
1766498379445,-0.9008789,-0.3647461,0.21923828,0.0,0.061035156,-0.12207031,0.0,0.0,0.0,-58.52417,64.53369,-29.805908
1766498379457,-0.9008789,-0.3647461,0.21923828,0.0,0.061035156,-0.12207031,0.0,0.0,0.0,-58.623047,64.539185,-29.954224
1766498379545,-0.9057617,-0.359375,0.22167969,0.36621094,0.0,0.0,0.0,0.0,0.0,-58.623047,64.539185,-29.954224
1766498379557,-0.9057617,-0.359375,0.22167969,0.36621094,0.0,0.0,0.0,0.0,0.0,-58.529663,64.5282,-29.794922
1766498379644,-0.9067383,-0.36376953,0.22021484,-0.18310547,-0.9765625,0.12207031,0.0,0.0,0.0,-58.529663,64.5282,-29.794922
1766498379656,-0.9067383,-0.36376953,0.22021484,-0.18310547,-0.9765625,0.12207031,0.0,0.0,0.0,-58.414307,64.522705,-29.685059
1766498379744,-0.9067383,-0.36132812,0.22021484,0.6713867,-0.30517578,-0.24414062,0.0,0.0,0.0,-58.414307,64.522705,-29.685059
1766498379756,-0.9067383,-0.36132812,0.22021484,0.6713867,-0.30517578,-0.24414062,0.0,0.0,0.0,-58.28247,64.49524,-29.597168
1766498379844,-0.9042969,-0.36279297,0.21875,0.79345703,0.5493164,-0.36621094,0.0,0.0,0.0,-58.28247,64.49524,-29.597168
1766498379855,-0.9042969,-0.36279297,0.21875,0.79345703,0.5493164,-0.36621094,0.0,0.0,0.0,-58.24951,64.49524,-29.641113
1766498379944,-0.90625,-0.36328125,0.21240234,0.061035156,0.79345703,-0.061035156,0.0,0.0,0.0,-58.24951,64.49524,-29.641113
1766498379955,-0.90625,-0.36328125,0.21240234,0.061035156,0.79345703,-0.061035156,0.0,0.0,0.0,-58.233032,64.49524,-29.663086
1766498380043,-0.90722656,-0.36328125,0.21923828,0.61035156,0.4272461,-0.061035156,0.0,0.0,0.0,-58.233032,64.49524,-29.663086
1766498380055,-0.90722656,-0.36328125,0.21923828,0.61035156,0.4272461,-0.061035156,0.0,0.0,0.0,-58.31543,64.522705,-29.750977
1766498380143,-0.90283203,-0.359375,0.22460938,-0.4272461,0.36621094,0.0,0.0,0.0,0.0,-58.31543,64.522705,-29.750977
1766498380155,-0.90283203,-0.359375,0.22460938,-0.4272461,0.36621094,0.0,0.0,0.0,0.0,-58.425293,64.55017,-29.822388
1766498380243,-0.9082031,-0.3642578,0.21533203,-0.24414062,0.5493164,0.0,0.0,0.0,0.0,-58.425293,64.55017,-29.822388
1766498380254,-0.9082031,-0.3642578,0.21533203,-0.24414062,0.5493164,0.0,0.0,0.0,0.0,-58.46924,64.57764,-29.833374
1766498380343,-0.90478516,-0.36083984,0.21972656,-0.12207031,0.8544922,-0.12207031,0.0,0.0,0.0,-58.46924,64.57764,-29.833374
1766498380354,-0.90478516,-0.36083984,0.21972656,-0.12207031,0.8544922,-0.12207031,0.0,0.0,0.0,-58.672485,64.627075,-30.036621
1766498380442,-0.9057617,-0.36132812,0.21923828,-0.48828125,0.0,0.0,0.0,0.0,0.0,-58.672485,64.627075,-30.036621
1766498380454,-0.9057617,-0.36132812,0.21923828,-0.48828125,0.0,0.0,0.0,0.0,0.0,-58.771362,64.660034,-30.10254
1766498380542,-0.9067383,-0.36132812,0.21777344,-0.24414062,0.12207031,0.0,0.0,0.0,0.0,-58.771362,64.660034,-30.10254
1766498380554,-0.9067383,-0.36132812,0.21777344,-0.24414062,0.12207031,0.0,0.0,0.0,0.0,-58.79883,64.67102,-30.075073
1766498380642,-0.90722656,-0.36132812,0.21386719,-0.18310547,0.24414062,0.0,0.0,0.0,0.0,-58.79883,64.67102,-30.075073
1766498380653,-0.90722656,-0.36132812,0.21386719,-0.18310547,0.24414062,0.0,0.0,0.0,0.0,-58.831787,64.6875,-30.064087
1766498380741,-0.9033203,-0.359375,0.21679688,0.18310547,0.12207031,0.0,0.0,0.0,0.0,-58.831787,64.6875,-30.064087
1766498380753,-0.9033203,-0.359375,0.21679688,0.18310547,0.12207031,0.0,0.0,0.0,0.0,-58.859253,64.70947,-30.091553
1766498380841,-0.9003906,-0.35986328,0.21289062,0.061035156,0.91552734,-0.36621094,0.0,0.0,0.0,-58.859253,64.70947,-30.091553
1766498380853,-0.9003906,-0.35986328,0.21289062,0.061035156,0.91552734,-0.36621094,0.0,0.0,0.0,-58.826294,64.70947,-29.987183
1766498380941,-0.91308594,-0.3623047,0.2109375,0.4272461,0.0,0.0,0.0,0.0,0.0,-58.826294,64.70947,-29.987183
1766498380952,-0.91308594,-0.3623047,0.2109375,0.4272461,0.0,0.0,0.0,0.0,0.0,-58.727417,64.69849,-29.871826
1766498381040,-0.89941406,-0.359375,0.22363281,0.0,-0.91552734,-0.061035156,0.0,0.0,0.0,-58.727417,64.69849,-29.871826
1766498381052,-0.89941406,-0.359375,0.22363281,0.0,-0.91552734,-0.061035156,0.0,0.0,0.0,-58.6615,64.6875,-29.800415
1766498381140,-0.90966797,-0.36376953,0.21484375,0.12207031,-0.4272461,-0.061035156,0.0,0.0,0.0,-58.6615,64.6875,-29.800415
1766498381152,-0.90966797,-0.36376953,0.21484375,0.12207031,-0.4272461,-0.061035156,0.0,0.0,0.0,-58.52417,64.660034,-29.674072
1766498381240,-0.9042969,-0.36132812,0.21875,0.48828125,0.061035156,-0.12207031,0.0,0.0,0.0,-58.52417,64.660034,-29.674072
1766498381251,-0.9042969,-0.36132812,0.21875,0.48828125,0.061035156,-0.12207031,0.0,0.0,0.0,-58.480225,64.64905,-29.6521
1766498381340,-0.9057617,-0.36035156,0.22167969,0.18310547,-0.061035156,-0.061035156,0.0,0.0,0.0,-58.480225,64.64905,-29.6521
1766498381351,-0.9057617,-0.36035156,0.22167969,0.18310547,-0.061035156,-0.061035156,0.0,0.0,0.0,-58.40332,64.63806,-29.564209
1766498381440,-0.90527344,-0.35986328,0.2211914,0.30517578,0.0,0.0,0.0,0.0,0.0,-58.40332,64.63806,-29.564209
1766498381451,-0.90527344,-0.35986328,0.2211914,0.30517578,0.0,0.0,0.0,0.0,0.0,-58.342896,64.63257,-29.509277
1766498381539,-0.90771484,-0.3623047,0.21679688,-0.24414062,0.0,0.0,0.0,0.0,0.0,-58.342896,64.63257,-29.509277
1766498381550,-0.90771484,-0.3623047,0.21679688,-0.24414062,0.0,0.0,0.0,0.0,0.0,-58.37036,64.63257,-29.575195
1766498381639,-0.9042969,-0.36132812,0.22167969,0.0,0.9765625,-0.48828125,0.0,0.0,0.0,-58.37036,64.63257,-29.575195
1766498381650,-0.9042969,-0.36132812,0.22167969,0.0,0.9765625,-0.48828125,0.0,0.0,0.0,-58.480225,64.64905,-29.707031
1766498381738,-0.9067383,-0.36035156,0.21435547,-0.9765625,0.0,0.061035156,0.0,0.0,0.0,-58.480225,64.64905,-29.707031
1766498381750,-0.9067383,-0.36035156,0.21435547,-0.9765625,0.0,0.061035156,0.0,0.0,0.0,-58.480225,64.63806,-29.679565
1766498381838,-0.90625,-0.3623047,0.21386719,1.159668,1.159668,-0.6713867,0.0,0.0,0.0,-58.480225,64.63806,-29.679565
1766498381850,-0.90625,-0.3623047,0.21386719,1.159668,1.159668,-0.6713867,0.0,0.0,0.0,-58.568115,64.643555,-29.794922
1766498381938,-0.89746094,-0.3623047,0.21923828,0.0,0.61035156,-0.48828125,0.0,0.0,0.0,-58.568115,64.643555,-29.794922
1766498381949,-0.89746094,-0.3623047,0.21923828,0.0,0.61035156,-0.48828125,0.0,0.0,0.0,-58.754883,64.643555,-30.036621
1766498382038,-0.9135742,-0.36132812,0.21240234,0.24414062,0.24414062,-0.24414062,0.0,0.0,0.0,-58.754883,64.643555,-30.036621
1766498382049,-0.9135742,-0.36132812,0.21240234,0.24414062,0.24414062,-0.24414062,0.0,0.0,0.0,-58.8208,64.643555,-30.06958
1766498382137,-0.90478516,-0.36572266,0.21875,0.0,0.30517578,-0.36621094,0.0,0.0,0.0,-58.8208,64.643555,-30.06958
1766498382149,-0.90478516,-0.36572266,0.21875,0.0,0.30517578,-0.36621094,0.0,0.0,0.0,-58.99109,64.643555,-30.327759
1766498382237,-0.9082031,-0.36132812,0.21777344,0.061035156,0.0,-0.24414062,0.0,0.0,0.0,-58.99109,64.643555,-30.327759
1766498382249,-0.9082031,-0.36132812,0.21777344,0.061035156,0.0,-0.24414062,0.0,0.0,0.0,-59.04602,64.63257,-30.36621
1766498382337,-0.90527344,-0.3647461,0.21533203,0.4272461,0.91552734,-0.6713867,0.0,0.0,0.0,-59.04602,64.63257,-30.36621
1766498382349,-0.90527344,-0.3647461,0.21533203,0.4272461,0.91552734,-0.6713867,0.0,0.0,0.0,-59.084473,64.627075,-30.437622
1766498382437,-0.9086914,-0.3647461,0.20898438,-0.061035156,0.36621094,0.0,0.0,0.0,0.0,-59.084473,64.627075,-30.437622
1766498382448,-0.9086914,-0.3647461,0.20898438,-0.061035156,0.36621094,0.0,0.0,0.0,0.0,-59.21631,64.627075,-30.596924
1766498382536,-0.9013672,-0.36523438,0.21142578,0.36621094,1.2207031,-0.7324219,0.0,0.0,0.0,-59.21631,64.627075,-30.596924
1766498382548,-0.9013672,-0.36523438,0.21142578,0.36621094,1.2207031,-0.7324219,0.0,0.0,0.0,-59.32068,64.65454,-30.6958
1766498382636,-0.90625,-0.3642578,0.20654297,-0.9765625,0.0,0.12207031,0.0,0.0,0.0,-59.32068,64.65454,-30.6958
1766498382648,-0.90625,-0.3642578,0.20654297,-0.9765625,0.0,0.12207031,0.0,0.0,0.0,-59.37561,64.643555,-30.74524
1766498382736,-0.90966797,-0.36816406,0.20458984,0.6713867,0.8544922,-0.18310547,0.0,0.0,0.0,-59.37561,64.643555,-30.74524
1766498382747,-0.90966797,-0.36816406,0.20458984,0.6713867,0.8544922,-0.18310547,0.0,0.0,0.0,-59.534912,64.67651,-30.893555
1766498382835,-0.9003906,-0.35888672,0.21972656,-0.12207031,-0.24414062,0.18310547,0.0,0.0,0.0,-59.534912,64.67651,-30.893555
1766498382847,-0.9003906,-0.35888672,0.21972656,-0.12207031,-0.24414062,0.18310547,0.0,0.0,0.0,-59.611816,64.66553,-30.970459
1766498382935,-0.90478516,-0.3647461,0.20751953,0.36621094,-1.5869141,0.5493164,0.0,0.0,0.0,-59.611816,64.66553,-30.970459
1766498382947,-0.90478516,-0.3647461,0.20751953,0.36621094,-1.5869141,0.5493164,0.0,0.0,0.0,-59.21631,64.660034,-30.552979
1766498383035,-0.9033203,-0.3647461,0.21777344,0.12207031,-0.30517578,-0.061035156,0.0,0.0,0.0,-59.21631,64.660034,-30.552979
1766498383046,-0.9033203,-0.3647461,0.21777344,0.12207031,-0.30517578,-0.061035156,0.0,0.0,0.0,-58.92517,64.6875,-30.327759
1766498383135,-0.9033203,-0.36035156,0.21777344,0.0,-0.061035156,0.18310547,0.0,0.0,0.0,-58.92517,64.6875,-30.327759
1766498383146,-0.9033203,-0.36035156,0.21777344,0.0,-0.061035156,0.18310547,0.0,0.0,0.0,-58.936157,64.65454,-30.327759
1766498383234,-0.9121094,-0.37158203,0.21679688,-0.36621094,-1.2207031,0.48828125,0.0,0.0,0.0,-58.936157,64.65454,-30.327759
1766498383246,-0.9121094,-0.37158203,0.21679688,-0.36621094,-1.2207031,0.48828125,0.0,0.0,0.0,-58.688965,64.67102,-30.042114
1766498383334,-0.90722656,-0.3647461,0.21826172,-1.4648438,-1.2817383,0.5493164,0.0,0.0,0.0,-58.688965,64.67102,-30.042114
1766498383346,-0.90722656,-0.3647461,0.21826172,-1.4648438,-1.2817383,0.5493164,0.0,0.0,0.0,-58.551636,64.65454,-29.805908
1766498383434,-0.9042969,-0.36083984,0.2163086,1.4038086,0.30517578,-0.4272461,0.0,0.0,0.0,-58.551636,64.65454,-29.805908
1766498383445,-0.9042969,-0.36083984,0.2163086,1.4038086,0.30517578,-0.4272461,0.0,0.0,0.0,-58.375854,64.643555,-29.558716
1766498383533,-0.9082031,-0.3515625,0.22167969,1.5258789,-1.5869141,-0.8544922,0.0,0.0,0.0,-58.375854,64.643555,-29.558716
1766498383545,-0.9082031,-0.3515625,0.22167969,1.5258789,-1.5869141,-0.8544922,0.0,0.0,0.0,-58.10669,64.53369,-29.32251
1766498383633,-0.90185547,-0.35595703,0.22021484,1.953125,-0.18310547,-0.6713867,0.0,0.0,0.0,-58.10669,64.53369,-29.32251
1766498383645,-0.90185547,-0.35595703,0.22021484,1.953125,-0.18310547,-0.6713867,0.0,0.0,0.0,-57.996826,64.451294,-29.454346
1766498383733,-0.9067383,-0.36376953,0.22265625,0.91552734,-0.4272461,-0.061035156,0.0,0.0,0.0,-57.996826,64.451294,-29.454346
1766498383745,-0.9067383,-0.36376953,0.22265625,0.91552734,-0.4272461,-0.061035156,0.0,0.0,0.0,-57.821045,64.46777,-29.33899
1766498383833,-0.90234375,-0.3623047,0.22070312,0.18310547,0.0,-0.12207031,0.0,0.0,0.0,-57.821045,64.46777,-29.33899
1766498383844,-0.90234375,-0.3623047,0.22070312,0.18310547,0.0,-0.12207031,0.0,0.0,0.0,-57.766113,64.44031,-29.284058
1766498383932,-0.9033203,-0.36621094,0.22753906,0.7324219,0.61035156,-0.48828125,0.0,0.0,0.0,-57.766113,64.44031,-29.284058
1766498383944,-0.9033203,-0.36621094,0.22753906,0.7324219,0.61035156,-0.48828125,0.0,0.0,0.0,-57.81555,64.42383,-29.421387
1766498384032,-0.90478516,-0.35986328,0.22949219,0.0,0.36621094,-0.18310547,0.0,0.0,0.0,-57.81555,64.42383,-29.421387
1766498384043,-0.90478516,-0.35986328,0.22949219,0.0,0.36621094,-0.18310547,0.0,0.0,0.0,-57.843018,64.42932,-29.388428
1766498384132,-0.90527344,-0.36328125,0.22167969,-0.7324219,1.0986328,-0.61035156,0.0,0.0,0.0,-57.843018,64.42932,-29.388428
1766498384143,-0.90527344,-0.36328125,0.22167969,-0.7324219,1.0986328,-0.61035156,0.0,0.0,0.0,-58.07373,64.434814,-29.63562
1766498384231,-0.9013672,-0.3623047,0.22802734,-0.18310547,1.6479492,-0.5493164,0.0,0.0,0.0,-58.07373,64.434814,-29.63562
1766498384243,-0.9013672,-0.3623047,0.22802734,-0.18310547,1.6479492,-0.5493164,0.0,0.0,0.0,-58.430786,64.47327,-30.014648
1766498384331,-0.90966797,-0.3671875,0.22216797,0.12207031,0.30517578,-0.36621094,0.0,0.0,0.0,-58.430786,64.47327,-30.014648
1766498384343,-0.90966797,-0.3671875,0.22216797,0.12207031,0.30517578,-0.36621094,0.0,0.0,0.0,-58.513184,64.489746,-30.223389
1766498384431,-0.8955078,-0.3618164,0.2241211,-0.4272461,0.4272461,0.5493164,0.0,0.0,0.0,-58.513184,64.489746,-30.223389
1766498384443,-0.8955078,-0.3618164,0.2241211,-0.4272461,0.4272461,0.5493164,0.0,0.0,0.0,-58.69995,64.522705,-30.459595
1766498384531,-0.90185547,-0.36572266,0.22314453,0.12207031,0.61035156,-0.48828125,0.0,0.0,0.0,-58.69995,64.522705,-30.459595
1766498384542,-0.90185547,-0.36572266,0.22314453,0.12207031,0.61035156,-0.48828125,0.0,0.0,0.0,-58.64502,64.51721,-30.355225
1766498384630,-0.9057617,-0.36279297,0.22021484,0.18310547,0.061035156,0.0,0.0,0.0,0.0,-58.64502,64.51721,-30.355225
1766498384642,-0.9057617,-0.36279297,0.22021484,0.18310547,0.061035156,0.0,0.0,0.0,0.0,-58.590088,64.506226,-30.228882
1766498384730,-0.9003906,-0.35888672,0.22363281,-0.48828125,-0.79345703,0.36621094,0.0,0.0,0.0,-58.590088,64.506226,-30.228882
1766498384742,-0.9003906,-0.35888672,0.22363281,-0.48828125,-0.79345703,0.36621094,0.0,0.0,0.0,-58.49121,64.489746,-30.119019
1766498384830,-0.90185547,-0.36914062,0.21435547,2.6245117,0.48828125,-0.48828125,0.0,0.0,0.0,-58.49121,64.489746,-30.119019
1766498384841,-0.90185547,-0.36914062,0.21435547,2.6245117,0.48828125,-0.48828125,0.0,0.0,0.0,-58.293457,64.489746,-29.992676
1766498384929,-0.90527344,-0.3618164,0.22998047,-1.4648438,-2.4414062,0.12207031,0.0,0.0,0.0,-58.293457,64.489746,-29.992676
1766498384941,-0.90527344,-0.3618164,0.22998047,-1.4648438,-2.4414062,0.12207031,0.0,0.0,0.0,-58.117676,64.434814,-29.767456
1766498385029,-0.89697266,-0.35595703,0.22558594,-0.9765625,-0.6713867,-0.79345703,0.0,0.0,0.0,-58.117676,64.434814,-29.767456
1766498385041,-0.89697266,-0.35595703,0.22558594,-0.9765625,-0.6713867,-0.79345703,0.0,0.0,0.0,-58.205566,64.31946,-29.86084
1766498385129,-0.91064453,-0.3647461,0.22216797,-1.3427734,-1.5258789,0.79345703,0.0,0.0,0.0,-58.205566,64.31946,-29.86084
1766498385141,-0.91064453,-0.3647461,0.22216797,-1.3427734,-1.5258789,0.79345703,0.0,0.0,0.0,-57.96936,64.31946,-29.509277
1766498385229,-0.9086914,-0.36669922,0.22021484,1.5258789,1.0375977,-0.30517578,0.0,0.0,0.0,-57.96936,64.31946,-29.509277
1766498385240,-0.9086914,-0.36669922,0.22021484,1.5258789,1.0375977,-0.30517578,0.0,0.0,0.0,-57.716675,64.3634,-29.21814
1766498385328,-0.9033203,-0.37109375,0.22509766,-0.4272461,-1.7700195,-0.12207031,0.0,0.0,0.0,-57.716675,64.3634,-29.21814
1766498385340,-0.9033203,-0.37109375,0.22509766,-0.4272461,-1.7700195,-0.12207031,0.0,0.0,0.0,-57.667236,64.313965,-29.28955
1766498385428,-0.89990234,-0.3647461,0.23242188,-0.5493164,-0.30517578,0.0,0.0,0.0,0.0,-57.667236,64.313965,-29.28955
1766498385440,-0.89990234,-0.3647461,0.23242188,-0.5493164,-0.30517578,0.0,0.0,0.0,0.0,-57.573853,64.26453,-29.190674
1766498385528,-0.9067383,-0.3623047,0.22460938,-0.8544922,0.0,-0.061035156,0.0,0.0,0.0,-57.573853,64.26453,-29.190674
1766498385539,-0.9067383,-0.3623047,0.22460938,-0.8544922,0.0,-0.061035156,0.0,0.0,0.0,-57.62329,64.25354,-29.168701
1766498385628,-0.9013672,-0.35986328,0.2265625,-1.159668,1.4038086,0.48828125,0.0,0.0,0.0,-57.62329,64.25354,-29.168701
1766498385639,-0.9013672,-0.35986328,0.2265625,-1.159668,1.4038086,0.48828125,0.0,0.0,0.0,-57.84851,64.313965,-29.23462
1766498385727,-0.90527344,-0.36914062,0.2211914,-1.5869141,0.5493164,0.5493164,0.0,0.0,0.0,-57.84851,64.313965,-29.23462
1766498385739,-0.90527344,-0.36914062,0.2211914,-1.5869141,0.5493164,0.5493164,0.0,0.0,0.0,-58.05725,64.42383,-29.328003
1766498385827,-0.9116211,-0.36328125,0.21533203,-0.4272461,0.6713867,-0.8544922,0.0,0.0,0.0,-58.05725,64.42383,-29.328003
1766498385838,-0.9116211,-0.36328125,0.21533203,-0.4272461,0.6713867,-0.8544922,0.0,0.0,0.0,-58.22754,64.42383,-29.421387
1766498385927,-0.89697266,-0.3647461,0.21582031,1.8920898,2.5634766,-1.4648438,0.0,0.0,0.0,-58.22754,64.42383,-29.421387
1766498385938,-0.89697266,-0.3647461,0.21582031,1.8920898,2.5634766,-1.4648438,0.0,0.0,0.0,-58.656006,64.40735,-29.910278
1766498386027,-0.9042969,-0.37158203,0.2109375,-0.7324219,0.24414062,-0.061035156,0.0,0.0,0.0,-58.656006,64.40735,-29.910278
1766498386038,-0.9042969,-0.37158203,0.2109375,-0.7324219,0.24414062,-0.061035156,0.0,0.0,0.0,-58.826294,64.39087,-30.108032
1766498386126,-0.9086914,-0.37158203,0.21191406,0.5493164,0.36621094,-0.24414062,0.0,0.0,0.0,-58.826294,64.39087,-30.108032
1766498386138,-0.9086914,-0.37158203,0.21191406,0.5493164,0.36621094,-0.24414062,0.0,0.0,0.0,-58.881226,64.39636,-30.108032
1766498386226,-0.90478516,-0.37109375,0.21533203,-0.91552734,0.0,-0.30517578,0.0,0.0,0.0,-58.881226,64.39636,-30.108032
1766498386237,-0.90478516,-0.37109375,0.21533203,-0.91552734,0.0,-0.30517578,0.0,0.0,0.0,-59.04602,64.37988,-30.333252
1766498386325,-0.90234375,-0.36816406,0.21386719,-0.061035156,0.061035156,-0.061035156,0.0,0.0,0.0,-59.04602,64.37988,-30.333252
1766498386337,-0.90234375,-0.36816406,0.21386719,-0.061035156,0.061035156,-0.061035156,0.0,0.0,0.0,-59.260254,64.37439,-30.547485
1766498386425,-0.90527344,-0.36523438,0.21289062,1.953125,0.8544922,-1.0986328,0.0,0.0,0.0,-59.260254,64.37439,-30.547485
1766498386437,-0.90527344,-0.36523438,0.21289062,1.953125,0.8544922,-1.0986328,0.0,0.0,0.0,-59.370117,64.385376,-30.723267
1766498386525,-0.9042969,-0.3803711,0.20751953,2.1362305,0.24414062,0.4272461,0.0,0.0,0.0,-59.370117,64.385376,-30.723267
1766498386536,-0.9042969,-0.3803711,0.20751953,2.1362305,0.24414062,0.4272461,0.0,0.0,0.0,-59.331665,64.39087,-30.964966
1766498386625,-0.90185547,-0.3725586,0.21777344,-0.79345703,-0.61035156,0.36621094,0.0,0.0,0.0,-59.331665,64.39087,-30.964966
1766498386636,-0.90185547,-0.3725586,0.21777344,-0.79345703,-0.61035156,0.36621094,0.0,0.0,0.0,-59.260254,64.44031,-30.888062
1766498386724,-0.90283203,-0.3540039,0.21875,1.5258789,1.0375977,0.0,0.0,0.0,0.0,-59.260254,64.44031,-30.888062
1766498386736,-0.90283203,-0.3540039,0.21875,1.5258789,1.0375977,0.0,0.0,0.0,0.0,-59.232788,64.434814,-30.81665
1766498386824,-0.90625,-0.37890625,0.21386719,0.0,-1.159668,2.6245117,0.0,0.0,0.0,-59.232788,64.434814,-30.81665
1766498386836,-0.90625,-0.37890625,0.21386719,0.0,-1.159668,2.6245117,0.0,0.0,0.0,-59.073486,64.51172,-30.866089
1766498386924,-0.9042969,-0.3647461,0.21728516,-1.5869141,-1.0375977,1.5869141,0.0,0.0,0.0,-59.073486,64.51172,-30.866089
1766498386936,-0.9042969,-0.3647461,0.21728516,-1.5869141,-1.0375977,1.5869141,0.0,0.0,0.0,-58.68347,64.59961,-30.267334
1766498387024,-0.91552734,-0.36865234,0.2133789,-1.7089844,-1.3427734,0.6713867,0.0,0.0,0.0,-58.68347,64.59961,-30.267334
1766498387035,-0.91552734,-0.36865234,0.2133789,-1.7089844,-1.3427734,0.6713867,0.0,0.0,0.0,-58.606567,64.65454,-30.047607
1766498387123,-0.8984375,-0.36328125,0.21435547,0.91552734,-2.2583008,-1.0375977,0.0,0.0,0.0,-58.606567,64.65454,-30.047607
1766498387135,-0.8984375,-0.36328125,0.21435547,0.91552734,-2.2583008,-1.0375977,0.0,0.0,0.0,-58.29895,64.53369,-29.657593
1766498387223,-0.91259766,-0.36767578,0.22802734,-0.91552734,-0.8544922,0.91552734,0.0,0.0,0.0,-58.29895,64.53369,-29.657593
1766498387235,-0.91259766,-0.36767578,0.22802734,-0.91552734,-0.8544922,0.91552734,0.0,0.0,0.0,-58.04077,64.489746,-29.415894
1766498387323,-0.9057617,-0.35839844,0.22265625,-0.9765625,-1.953125,0.79345703,0.0,0.0,0.0,-58.04077,64.489746,-29.415894
1766498387335,-0.9057617,-0.35839844,0.22265625,-0.9765625,-1.953125,0.79345703,0.0,0.0,0.0,-57.81006,64.51721,-29.025879
1766498387422,-0.90966797,-0.36083984,0.2211914,0.36621094,-1.2207031,0.48828125,0.0,0.0,0.0,-57.81006,64.51721,-29.025879
1766498387434,-0.90966797,-0.36083984,0.2211914,0.36621094,-1.2207031,0.48828125,0.0,0.0,0.0,-57.540894,64.522705,-28.734741
1766498387522,-0.91503906,-0.3647461,0.22216797,0.0,0.8544922,-0.30517578,0.0,0.0,0.0,-57.540894,64.522705,-28.734741
1766498387534,-0.91503906,-0.3647461,0.22216797,0.0,0.8544922,-0.30517578,0.0,0.0,0.0,-57.491455,64.51721,-28.690796
1766498387622,-0.9008789,-0.3618164,0.21972656,-1.0986328,-0.79345703,0.9765625,0.0,0.0,0.0,-57.491455,64.51721,-28.690796
1766498387634,-0.9008789,-0.3618164,0.21972656,-1.0986328,-0.79345703,0.9765625,0.0,0.0,0.0,-57.524414,64.53369,-28.67981
