timestamp,accX,accY,accZ,gyroX,gyroY,gyroZ,magX,magY,magZ,roll,pitch,yaw
1768032463251,-0.08300781,-0.9975586,0.111816406,0.061035156,-1.8920898,-0.5493164,0.0,0.0,0.0,-83.237915,4.8999023,-72.22412
1768032463263,-0.08300781,-0.9975586,0.111816406,0.061035156,-1.8920898,-0.5493164,0.0,0.0,0.0,-83.28186,4.8669434,-72.14172
1768032463352,-0.10058594,-0.9951172,0.12060547,5.6762695,-3.2348633,-0.24414062,0.0,0.0,0.0,-83.28186,4.8669434,-72.14172
1768032463363,-0.10058594,-0.9951172,0.12060547,5.6762695,-3.2348633,-0.24414062,0.0,0.0,0.0,-83.00171,4.680176,-71.94946
1768032463452,-0.064941406,-0.99560547,0.123046875,-10.681152,-14.831543,5.3100586,0.0,0.0,0.0,-83.00171,4.680176,-71.94946
1768032463463,-0.064941406,-0.99560547,0.123046875,-10.681152,-14.831543,5.3100586,0.0,0.0,0.0,-82.95227,4.5043945,-71.449585
1768032463550,-0.09033203,-1.0024414,0.11035156,-5.065918,-0.6713867,2.4414062,0.0,0.0,0.0,-82.95227,4.5043945,-71.449585
1768032463562,-0.09033203,-1.0024414,0.11035156,-5.065918,-0.6713867,2.4414062,0.0,0.0,0.0,-83.78174,4.7021484,-70.77942
1768032463650,-0.0859375,-0.9873047,0.09033203,-10.986328,1.2207031,7.5683594,0.0,0.0,0.0,-83.78174,4.7021484,-70.77942
1768032463662,-0.0859375,-0.9873047,0.09033203,-10.986328,1.2207031,7.5683594,0.0,0.0,0.0,-84.418945,5.020752,-70.83435
1768032463750,-0.10546875,-1.0024414,0.064941406,-0.79345703,1.5869141,6.0424805,0.0,0.0,0.0,-84.418945,5.020752,-70.83435
1768032463761,-0.10546875,-1.0024414,0.064941406,-0.79345703,1.5869141,6.0424805,0.0,0.0,0.0,-85.08362,5.553589,-71.032104
1768032463850,-0.09667969,-0.9921875,0.07861328,-0.48828125,-6.958008,10.498047,0.0,0.0,0.0,-85.08362,5.553589,-71.032104
1768032463861,-0.09667969,-0.9921875,0.07861328,-0.48828125,-6.958008,10.498047,0.0,0.0,0.0,-85.0177,6.2072754,-70.81787
1768032463949,-0.13427734,-0.9921875,0.08154297,6.958008,-4.211426,5.554199,0.0,0.0,0.0,-85.0177,6.2072754,-70.81787
1768032463961,-0.13427734,-0.9921875,0.08154297,6.958008,-4.211426,5.554199,0.0,0.0,0.0,-84.715576,6.9488525,-70.14221
1768032464049,-0.13134766,-0.9897461,0.103515625,6.1035156,-2.380371,3.2348633,0.0,0.0,0.0,-84.715576,6.9488525,-70.14221
1768032464061,-0.13134766,-0.9897461,0.103515625,6.1035156,-2.380371,3.2348633,0.0,0.0,0.0,-83.984985,7.327881,-69.801636
1768032464149,-0.14550781,-0.98779297,0.125,5.7373047,-4.4555664,2.8076172,0.0,0.0,0.0,-83.984985,7.327881,-69.801636
1768032464160,-0.14550781,-0.98779297,0.125,5.7373047,-4.4555664,2.8076172,0.0,0.0,0.0,-83.31482,7.56958,-69.3457
1768032464248,-0.12548828,-0.9814453,0.114746094,3.8452148,-1.2817383,1.3427734,0.0,0.0,0.0,-83.31482,7.56958,-69.3457
1768032464260,-0.12548828,-0.9814453,0.114746094,3.8452148,-1.2817383,1.3427734,0.0,0.0,0.0,-82.84241,7.7178955,-69.06006
1768032464348,-0.1352539,-0.9819336,0.12792969,3.6010742,-1.7700195,0.8544922,0.0,0.0,0.0,-82.84241,7.7178955,-69.06006
1768032464360,-0.1352539,-0.9819336,0.12792969,3.6010742,-1.7700195,0.8544922,0.0,0.0,0.0,-82.55127,7.7948,-68.92822
1768032464448,-0.1484375,-0.99121094,0.13085938,0.36621094,-3.2348633,3.90625,0.0,0.0,0.0,-82.55127,7.7948,-68.92822
1768032464459,-0.1484375,-0.99121094,0.13085938,0.36621094,-3.2348633,3.90625,0.0,0.0,0.0,-82.2876,8.009033,-68.51074
1768032464548,-0.14648438,-0.97802734,0.13378906,-2.8076172,-1.3427734,3.6621094,0.0,0.0,0.0,-82.2876,8.009033,-68.51074
1768032464559,-0.14648438,-0.97802734,0.13378906,-2.8076172,-1.3427734,3.6621094,0.0,0.0,0.0,-82.3645,8.31665,-68.28003
1768032464647,-0.15283203,-0.98046875,0.12939453,-3.540039,1.953125,2.6245117,0.0,0.0,0.0,-82.3645,8.31665,-68.28003
1768032464659,-0.15283203,-0.98046875,0.12939453,-3.540039,1.953125,2.6245117,0.0,0.0,0.0,-82.64465,8.563843,-68.33496
1768032464747,-0.15429688,-0.97753906,0.1171875,-5.004883,0.79345703,2.9296875,0.0,0.0,0.0,-82.64465,8.563843,-68.33496
1768032464759,-0.15429688,-0.97753906,0.1171875,-5.004883,0.79345703,2.9296875,0.0,0.0,0.0,-83.08411,8.811035,-68.42285
1768032464847,-0.15771484,-0.9863281,0.10498047,-4.211426,0.5493164,2.4414062,0.0,0.0,0.0,-83.08411,8.811035,-68.42285
1768032464858,-0.15771484,-0.9863281,0.10498047,-4.211426,0.5493164,2.4414062,0.0,0.0,0.0,-83.4906,9.074707,-68.42285
1768032464947,-0.15429688,-0.9682617,0.10205078,-9.521484,-1.8920898,6.1035156,0.0,0.0,0.0,-83.4906,9.074707,-68.42285
1768032464958,-0.15429688,-0.9682617,0.10205078,-9.521484,-1.8920898,6.1035156,0.0,0.0,0.0,-84.122314,9.398804,-68.35693
1768032465046,-0.20361328,-0.9790039,0.08300781,-15.869141,0.0,11.779785,0.0,0.0,0.0,-84.122314,9.398804,-68.35693
1768032465058,-0.20361328,-0.9790039,0.08300781,-15.869141,0.0,11.779785,0.0,0.0,0.0,-85.374756,10.371094,-68.13721
1768032465146,-0.19873047,-0.9926758,0.061035156,-15.014648,9.887695,-5.6152344,0.0,0.0,0.0,-85.374756,10.371094,-68.13721
1768032465158,-0.19873047,-0.9926758,0.061035156,-15.014648,9.887695,-5.6152344,0.0,0.0,0.0,-86.79199,10.415039,-68.966675
1768032465246,-0.1928711,-0.9897461,0.016601562,-15.74707,8.422852,1.8310547,0.0,0.0,0.0,-86.79199,10.415039,-68.966675
1768032465257,-0.1928711,-0.9897461,0.016601562,-15.74707,8.422852,1.8310547,0.0,0.0,0.0,-88.3136,10.299683,-69.73572
1768032465346,-0.16845703,-0.97998047,0.0,-15.136719,4.1503906,10.192871,0.0,0.0,0.0,-88.3136,10.299683,-69.73572
1768032465357,-0.16845703,-0.97998047,0.0,-15.136719,4.1503906,10.192871,0.0,0.0,0.0,-89.80774,10.700684,-70.53223
1768032465445,-0.20654297,-0.9736328,-0.049316406,-9.82666,6.0424805,6.652832,0.0,0.0,0.0,-89.80774,10.700684,-70.53223
1768032465457,-0.20654297,-0.9736328,-0.049316406,-9.82666,6.0424805,6.652832,0.0,0.0,0.0,-91.38428,11.705933,-71.087036
1768032465545,-0.21923828,-0.98339844,-0.04296875,-7.2631836,4.3945312,5.065918,0.0,0.0,0.0,-91.38428,11.705933,-71.087036
1768032465556,-0.21923828,-0.98339844,-0.04296875,-7.2631836,4.3945312,5.065918,0.0,0.0,0.0,-92.15881,12.156372,-71.70776
1768032465645,-0.2241211,-0.97314453,-0.057128906,-5.3100586,-2.6855469,-3.2348633,0.0,0.0,0.0,-92.15881,12.156372,-71.70776
1768032465656,-0.2241211,-0.97314453,-0.057128906,-5.3100586,-2.6855469,-3.2348633,0.0,0.0,0.0,-92.68616,12.035522,-71.674805
1768032465744,-0.21728516,-0.96240234,-0.06640625,-5.7373047,3.112793,-2.1972656,0.0,0.0,0.0,-92.68616,12.035522,-71.674805
1768032465756,-0.21728516,-0.96240234,-0.06640625,-5.7373047,3.112793,-2.1972656,0.0,0.0,0.0,-93.24646,11.672974,-71.6803
1768032465844,-0.20507812,-0.9692383,-0.09472656,-12.573242,2.380371,-0.9765625,0.0,0.0,0.0,-93.24646,11.672974,-71.6803
1768032465856,-0.20507812,-0.9692383,-0.09472656,-12.573242,2.380371,-0.9765625,0.0,0.0,0.0,-94.10889,11.310425,-71.81213
1768032465944,-0.18945312,-0.9892578,-0.095214844,-11.169434,4.8217773,-2.0141602,0.0,0.0,0.0,-94.10889,11.310425,-71.81213
1768032465955,-0.18945312,-0.9892578,-0.095214844,-11.169434,4.8217773,-2.0141602,0.0,0.0,0.0,-95.15808,11.090698,-72.20215
1768032466043,-0.18261719,-0.9663086,-0.12109375,-13.671875,5.004883,0.48828125,0.0,0.0,0.0,-95.15808,11.090698,-72.20215
1768032466055,-0.18261719,-0.9663086,-0.12109375,-13.671875,5.004883,0.48828125,0.0,0.0,0.0,-96.520386,11.057739,-72.76245
1768032466143,-0.19140625,-0.96875,-0.1665039,-17.51709,-0.8544922,2.8686523,0.0,0.0,0.0,-96.520386,11.057739,-72.76245
1768032466155,-0.19140625,-0.96875,-0.1665039,-17.51709,-0.8544922,2.8686523,0.0,0.0,0.0,-98.12988,11.2664795,-73.02612
1768032466243,-0.20117188,-0.9458008,-0.18164062,-8.605957,-8.056641,1.8310547,0.0,0.0,0.0,-98.12988,11.2664795,-73.02612
1768032466254,-0.20117188,-0.9458008,-0.18164062,-8.605957,-8.056641,1.8310547,0.0,0.0,0.0,-99.16809,11.552124,-72.55371
1768032466342,-0.21289062,-0.94921875,-0.16699219,-0.4272461,-6.0424805,0.79345703,0.0,0.0,0.0,-99.16809,11.552124,-72.55371
1768032466354,-0.21289062,-0.94921875,-0.16699219,-0.4272461,-6.0424805,0.79345703,0.0,0.0,0.0,-99.41528,11.826782,-71.87805
1768032466442,-0.20117188,-0.96972656,-0.15722656,-0.61035156,-7.080078,0.24414062,0.0,0.0,0.0,-99.41528,11.826782,-71.87805
1768032466454,-0.20117188,-0.96972656,-0.15722656,-0.61035156,-7.080078,0.24414062,0.0,0.0,0.0,-99.26697,11.887207,-71.48804
1768032466542,-0.2133789,-0.9667969,-0.16992188,1.0986328,-7.751465,1.159668,0.0,0.0,0.0,-99.26697,11.887207,-71.48804
1768032466554,-0.2133789,-0.9667969,-0.16992188,1.0986328,-7.751465,1.159668,0.0,0.0,0.0,-99.173584,11.99707,-70.669556
1768032466642,-0.21386719,-0.95214844,-0.16992188,1.5869141,-1.4038086,0.12207031,0.0,0.0,0.0,-99.173584,11.99707,-70.669556
1768032466653,-0.21386719,-0.95214844,-0.16992188,1.5869141,-1.4038086,0.12207031,0.0,0.0,0.0,-99.107666,12.167358,-70.21912
1768032466741,-0.21826172,-0.95947266,-0.17382812,2.6245117,1.4648438,2.1362305,0.0,0.0,0.0,-99.107666,12.167358,-70.21912
1768032466753,-0.21826172,-0.95947266,-0.17382812,2.6245117,1.4648438,2.1362305,0.0,0.0,0.0,-98.931885,12.22229,-70.24109
1768032466841,-0.22070312,-0.97998047,-0.16503906,2.1362305,1.159668,-2.4414062,0.0,0.0,0.0,-98.931885,12.22229,-70.24109
1768032466853,-0.22070312,-0.97998047,-0.16503906,2.1362305,1.159668,-2.4414062,0.0,0.0,0.0,-98.778076,12.11792,-70.32349
1768032466941,-0.2055664,-0.9663086,-0.14697266,0.0,0.9765625,-2.6245117,0.0,0.0,0.0,-98.778076,12.11792,-70.32349
1768032466952,-0.2055664,-0.9663086,-0.14697266,0.0,0.9765625,-2.6245117,0.0,0.0,0.0,-98.65173,11.832275,-70.389404
1768032467041,-0.20458984,-0.9682617,-0.16308594,-2.5024414,-0.36621094,0.18310547,0.0,0.0,0.0,-98.65173,11.832275,-70.389404
1768032467052,-0.20458984,-0.9682617,-0.16308594,-2.5024414,-0.36621094,0.18310547,0.0,0.0,0.0,-98.75061,11.694946,-70.37842
1768032467140,-0.2006836,-0.9633789,-0.1538086,-3.9672852,1.2817383,1.6479492,0.0,0.0,0.0,-98.75061,11.694946,-70.37842
1768032467152,-0.2006836,-0.9633789,-0.1538086,-3.9672852,1.2817383,1.6479492,0.0,0.0,0.0,-99.10217,11.782837,-70.444336
1768032467240,-0.21142578,-0.9692383,-0.17626953,-5.065918,0.91552734,-0.061035156,0.0,0.0,0.0,-99.10217,11.782837,-70.444336
1768032467251,-0.21142578,-0.9692383,-0.17626953,-5.065918,0.91552734,-0.061035156,0.0,0.0,0.0,-99.62402,11.821289,-70.52673
1768032467340,-0.19677734,-0.9589844,-0.1875,-4.0893555,0.4272461,1.0375977,0.0,0.0,0.0,-99.62402,11.821289,-70.52673
1768032467352,-0.19677734,-0.9589844,-0.1875,-4.0893555,0.4272461,1.0375977,0.0,0.0,0.0,-100.10193,11.815796,-70.54321
1768032467440,-0.20800781,-0.95996094,-0.1977539,-6.8359375,1.2207031,4.638672,0.0,0.0,0.0,-100.10193,11.815796,-70.54321
1768032467451,-0.20800781,-0.95996094,-0.1977539,-6.8359375,1.2207031,4.638672,0.0,0.0,0.0,-100.67871,12.079468,-70.702515
1768032467540,-0.23046875,-0.9550781,-0.19921875,-4.8217773,2.9907227,1.8920898,0.0,0.0,0.0,-100.67871,12.079468,-70.702515
1768032467551,-0.23046875,-0.9550781,-0.19921875,-4.8217773,2.9907227,1.8920898,0.0,0.0,0.0,-101.36536,12.403564,-71.00464
1768032467639,-0.21240234,-0.95751953,-0.21191406,-2.1362305,1.3427734,0.061035156,0.0,0.0,0.0,-101.36536,12.403564,-71.00464
1768032467651,-0.21240234,-0.95751953,-0.21191406,-2.1362305,1.3427734,0.061035156,0.0,0.0,0.0,-101.711426,12.392578,-71.19141
1768032467739,-0.21679688,-0.9550781,-0.20703125,-1.5258789,0.12207031,0.8544922,0.0,0.0,0.0,-101.711426,12.392578,-71.19141
1768032467750,-0.21679688,-0.9550781,-0.20703125,-1.5258789,0.12207031,0.8544922,0.0,0.0,0.0,-101.87622,12.398071,-71.257324
1768032467838,-0.21728516,-0.9536133,-0.2163086,-3.7231445,0.6713867,2.6855469,0.0,0.0,0.0,-101.87622,12.398071,-71.257324
1768032467850,-0.21728516,-0.9536133,-0.2163086,-3.7231445,0.6713867,2.6855469,0.0,0.0,0.0,-102.13989,12.540894,-71.32324
1768032467938,-0.23144531,-0.94921875,-0.22607422,-3.6621094,1.2207031,1.7089844,0.0,0.0,0.0,-102.13989,12.540894,-71.32324
1768032467950,-0.23144531,-0.94921875,-0.22607422,-3.6621094,1.2207031,1.7089844,0.0,0.0,0.0,-102.55737,12.793579,-71.449585
1768032468038,-0.22509766,-0.95214844,-0.2290039,-1.2207031,2.0751953,-3.2958984,0.0,0.0,0.0,-102.55737,12.793579,-71.449585
1768032468049,-0.22509766,-0.95214844,-0.2290039,-1.2207031,2.0751953,-3.2958984,0.0,0.0,0.0,-102.837524,12.634277,-71.641846
1768032468138,-0.2265625,-0.953125,-0.22314453,-2.6855469,1.6479492,0.061035156,0.0,0.0,0.0,-102.837524,12.634277,-71.641846
1768032468149,-0.2265625,-0.953125,-0.22314453,-2.6855469,1.6479492,0.061035156,0.0,0.0,0.0,-102.96387,12.376099,-71.79016
1768032468237,-0.20898438,-0.9584961,-0.22851562,-2.6855469,1.8920898,1.2207031,0.0,0.0,0.0,-102.96387,12.376099,-71.79016
1768032468249,-0.20898438,-0.9584961,-0.22851562,-2.6855469,1.8920898,1.2207031,0.0,0.0,0.0,-103.222046,12.387085,-71.88904
1768032468337,-0.21728516,-0.94677734,-0.24365234,-3.2958984,1.2817383,1.4648438,0.0,0.0,0.0,-103.222046,12.387085,-71.88904
1768032468348,-0.21728516,-0.94677734,-0.24365234,-3.2958984,1.2817383,1.4648438,0.0,0.0,0.0,-103.55713,12.480469,-72.125244
1768032468437,-0.22314453,-0.9482422,-0.24560547,-3.112793,-0.5493164,2.6855469,0.0,0.0,0.0,-103.55713,12.480469,-72.125244
1768032468449,-0.22314453,-0.9482422,-0.24560547,-3.112793,-0.5493164,2.6855469,0.0,0.0,0.0,-103.91968,12.661743,-72.2406
1768032468536,-0.22314453,-0.9399414,-0.24853516,-3.3569336,-0.9765625,2.5024414,0.0,0.0,0.0,-103.91968,12.661743,-72.2406
1768032468548,-0.22314453,-0.9399414,-0.24853516,-3.3569336,-0.9765625,2.5024414,0.0,0.0,0.0,-104.27673,12.925415,-72.213135
1768032468636,-0.23339844,-0.93603516,-0.2626953,-8.361816,-0.79345703,4.9438477,0.0,0.0,0.0,-104.27673,12.925415,-72.213135
1768032468648,-0.23339844,-0.93603516,-0.2626953,-8.361816,-0.79345703,4.9438477,0.0,0.0,0.0,-104.93042,13.370361,-72.20764
1768032468736,-0.2368164,-0.93115234,-0.2705078,-6.8359375,-0.18310547,5.065918,0.0,0.0,0.0,-104.93042,13.370361,-72.20764
1768032468748,-0.2368164,-0.93115234,-0.2705078,-6.8359375,-0.18310547,5.065918,0.0,0.0,0.0,-105.59509,13.754883,-72.39441
1768032468836,-0.25195312,-0.9272461,-0.2866211,-6.4086914,-0.36621094,3.2958984,0.0,0.0,0.0,-105.59509,13.754883,-72.39441
1768032468848,-0.25195312,-0.9272461,-0.2866211,-6.4086914,-0.36621094,3.2958984,0.0,0.0,0.0,-106.380615,14.210815,-72.438354
1768032468935,-0.24902344,-0.9248047,-0.2915039,-0.91552734,0.30517578,0.0,0.0,0.0,0.0,-106.380615,14.210815,-72.438354
1768032468947,-0.24902344,-0.9248047,-0.2915039,-0.91552734,0.30517578,0.0,0.0,0.0,0.0,-106.74866,14.331665,-72.50427
1768032469035,-0.24609375,-0.9272461,-0.29638672,-0.4272461,0.12207031,0.061035156,0.0,0.0,0.0,-106.74866,14.331665,-72.50427
1768032469047,-0.24609375,-0.9272461,-0.29638672,-0.4272461,0.12207031,0.061035156,0.0,0.0,0.0,-106.814575,14.315186,-72.51526
1768032469135,-0.25341797,-0.92285156,-0.2890625,-1.4648438,0.9765625,1.2207031,0.0,0.0,0.0,-106.814575,14.315186,-72.51526
1768032469146,-0.25341797,-0.92285156,-0.2890625,-1.4648438,0.9765625,1.2207031,0.0,0.0,0.0,-106.97937,14.397583,-72.61963
1768032469235,-0.25,-0.9140625,-0.29833984,-3.112793,0.7324219,0.18310547,0.0,0.0,0.0,-106.97937,14.397583,-72.61963
1768032469246,-0.25,-0.9140625,-0.29833984,-3.112793,0.7324219,0.18310547,0.0,0.0,0.0,-107.30347,14.490967,-72.65259
1768032469334,-0.25585938,-0.9169922,-0.30615234,-3.6010742,-0.4272461,2.6855469,0.0,0.0,0.0,-107.30347,14.490967,-72.65259
1768032469346,-0.25585938,-0.9169922,-0.30615234,-3.6010742,-0.4272461,2.6855469,0.0,0.0,0.0,-107.666016,14.644775,-72.767944
1768032469434,-0.26416016,-0.9091797,-0.30273438,-2.5024414,1.6479492,3.0517578,0.0,0.0,0.0,-107.666016,14.644775,-72.767944
1768032469446,-0.26416016,-0.9091797,-0.30273438,-2.5024414,1.6479492,3.0517578,0.0,0.0,0.0,-108.01758,14.869995,-72.8833
1768032469534,-0.26220703,-0.91796875,-0.31152344,-4.333496,0.79345703,1.8310547,0.0,0.0,0.0,-108.01758,14.869995,-72.8833
1768032469545,-0.26220703,-0.91796875,-0.31152344,-4.333496,0.79345703,1.8310547,0.0,0.0,0.0,-108.38013,14.996338,-73.03711
1768032469633,-0.26708984,-0.91796875,-0.328125,-9.399414,0.061035156,4.699707,0.0,0.0,0.0,-108.38013,14.996338,-73.03711
1768032469645,-0.26708984,-0.91796875,-0.328125,-9.399414,0.061035156,4.699707,0.0,0.0,0.0,-109.09973,15.325928,-73.185425
1768032469733,-0.2783203,-0.8989258,-0.32666016,-10.986328,-0.18310547,6.0424805,0.0,0.0,0.0,-109.09973,15.325928,-73.185425
1768032469745,-0.2783203,-0.8989258,-0.32666016,-10.986328,-0.18310547,6.0424805,0.0,0.0,0.0,-110.03906,15.842285,-73.377686
1768032469833,-0.28710938,-0.890625,-0.3569336,-4.760742,4.0283203,0.9765625,0.0,0.0,0.0,-110.03906,15.842285,-73.377686
1768032469848,-0.28710938,-0.890625,-0.3569336,-4.760742,4.0283203,0.9765625,0.0,0.0,0.0,-110.83008,16.04004,-73.83362
1768032469933,-0.28076172,-0.89501953,-0.37060547,-5.9814453,0.0,3.0517578,0.0,0.0,0.0,-110.83008,16.04004,-73.83362
1768032469948,-0.28076172,-0.89501953,-0.37060547,-5.9814453,0.0,3.0517578,0.0,0.0,0.0,-111.46179,16.133423,-74.13574
1768032470032,-0.28466797,-0.88720703,-0.3725586,-4.0893555,0.9765625,2.2583008,0.0,0.0,0.0,-111.46179,16.133423,-74.13574
1768032470044,-0.28466797,-0.88720703,-0.3725586,-4.0893555,0.9765625,2.2583008,0.0,0.0,0.0,-111.94519,16.314697,-74.28955
1768032470133,-0.2890625,-0.8745117,-0.36816406,-2.6245117,2.0751953,0.8544922,0.0,0.0,0.0,-111.94519,16.314697,-74.28955
1768032470144,-0.2890625,-0.8745117,-0.36816406,-2.6245117,2.0751953,0.8544922,0.0,0.0,0.0,-112.32422,16.397095,-74.50928
1768032470232,-0.28808594,-0.8803711,-0.38085938,-4.272461,-0.5493164,2.0751953,0.0,0.0,0.0,-112.32422,16.397095,-74.50928
1768032470243,-0.28808594,-0.8803711,-0.38085938,-4.272461,-0.5493164,2.0751953,0.0,0.0,0.0,-112.70874,16.52893,-74.608154
1768032470332,-0.29101562,-0.8701172,-0.3828125,-4.5166016,-1.0375977,2.380371,0.0,0.0,0.0,-112.70874,16.52893,-74.608154
1768032470343,-0.29101562,-0.8701172,-0.3828125,-4.5166016,-1.0375977,2.380371,0.0,0.0,0.0,-113.12622,16.765137,-74.62463
1768032470431,-0.29736328,-0.87158203,-0.39160156,-2.2583008,1.5258789,1.2817383,0.0,0.0,0.0,-113.12622,16.765137,-74.62463
1768032470443,-0.29736328,-0.87158203,-0.39160156,-2.2583008,1.5258789,1.2817383,0.0,0.0,0.0,-113.56018,16.935425,-74.729004
1768032470531,-0.2944336,-0.86621094,-0.4033203,-1.953125,0.0,-1.0986328,0.0,0.0,0.0,-113.56018,16.935425,-74.729004
1768032470543,-0.2944336,-0.86621094,-0.4033203,-1.953125,0.0,-1.0986328,0.0,0.0,0.0,-113.7854,16.85852,-74.800415
1768032470631,-0.2939453,-0.8725586,-0.39648438,1.0986328,1.2207031,-2.5024414,0.0,0.0,0.0,-113.7854,16.85852,-74.800415
1768032470642,-0.2939453,-0.8725586,-0.39648438,1.0986328,1.2207031,-2.5024414,0.0,0.0,0.0,-113.80737,16.66626,-74.79492
1768032470730,-0.28759766,-0.8823242,-0.4038086,0.9765625,2.0141602,-3.0517578,0.0,0.0,0.0,-113.80737,16.66626,-74.79492
1768032470742,-0.28759766,-0.8823242,-0.4038086,0.9765625,2.0141602,-3.0517578,0.0,0.0,0.0,-113.64807,16.358643,-74.82239
1768032470830,-0.2841797,-0.88427734,-0.39746094,0.91552734,1.159668,-1.5258789,0.0,0.0,0.0,-113.64807,16.358643,-74.82239
1768032470842,-0.2841797,-0.88427734,-0.39746094,0.91552734,1.159668,-1.5258789,0.0,0.0,0.0,-113.53821,16.133423,-74.83887
1768032470930,-0.2841797,-0.8847656,-0.41064453,-1.7089844,-0.18310547,-0.7324219,0.0,0.0,0.0,-113.53821,16.133423,-74.83887
1768032470942,-0.2841797,-0.8847656,-0.41064453,-1.7089844,-0.18310547,-0.7324219,0.0,0.0,0.0,-113.69202,16.138916,-74.79492
1768032471030,-0.2783203,-0.8774414,-0.4111328,-3.2348633,-1.6479492,2.6245117,0.0,0.0,0.0,-113.69202,16.138916,-74.79492
1768032471041,-0.2783203,-0.8774414,-0.4111328,-3.2348633,-1.6479492,2.6245117,0.0,0.0,0.0,-113.933716,16.210327,-74.77844
1768032471129,-0.28710938,-0.86279297,-0.40673828,-0.18310547,-2.9296875,1.7700195,0.0,0.0,0.0,-113.933716,16.210327,-74.77844
1768032471142,-0.28710938,-0.86279297,-0.40673828,-0.18310547,-2.9296875,1.7700195,0.0,0.0,0.0,-113.98865,16.446533,-74.70703
1768032471229,-0.2861328,-0.8691406,-0.39501953,1.8310547,-2.2583008,0.4272461,0.0,0.0,0.0,-113.98865,16.446533,-74.70703
1768032471241,-0.2861328,-0.8691406,-0.39501953,1.8310547,-2.2583008,0.4272461,0.0,0.0,0.0,-113.81836,16.589355,-74.591675
1768032471329,-0.29785156,-0.8671875,-0.39208984,-3.4179688,-4.0893555,0.36621094,0.0,0.0,0.0,-113.81836,16.589355,-74.591675
1768032471340,-0.29785156,-0.8671875,-0.39208984,-3.4179688,-4.0893555,0.36621094,0.0,0.0,0.0,-113.73596,16.726685,-74.37195
1768032471428,-0.29052734,-0.88671875,-0.38916016,1.2207031,1.0375977,-0.36621094,0.0,0.0,0.0,-113.73596,16.726685,-74.37195
1768032471440,-0.29052734,-0.88671875,-0.38916016,1.2207031,1.0375977,-0.36621094,0.0,0.0,0.0,-113.653564,16.68274,-74.278564
1768032471528,-0.30126953,-0.86572266,-0.38964844,-4.638672,-2.1362305,-0.24414062,0.0,0.0,0.0,-113.653564,16.68274,-74.278564
1768032471540,-0.30126953,-0.86572266,-0.38964844,-4.638672,-2.1362305,-0.24414062,0.0,0.0,0.0,-113.81836,16.638794,-74.36096
1768032471628,-0.2783203,-0.8725586,-0.3881836,1.8920898,1.4648438,-2.4414062,0.0,0.0,0.0,-113.81836,16.638794,-74.36096
1768032471639,-0.2783203,-0.8725586,-0.3881836,1.8920898,1.4648438,-2.4414062,0.0,0.0,0.0,-113.74695,16.364136,-74.20166
1768032471728,-0.27197266,-0.87646484,-0.38964844,3.6621094,0.48828125,-2.6855469,0.0,0.0,0.0,-113.74695,16.364136,-74.20166
1768032471739,-0.27197266,-0.87646484,-0.38964844,3.6621094,0.48828125,-2.6855469,0.0,0.0,0.0,-113.47229,16.072998,-74.23462
1768032471827,-0.27685547,-0.88427734,-0.3857422,2.5634766,-2.1972656,-1.5258789,0.0,0.0,0.0,-113.47229,16.072998,-74.23462
1768032471839,-0.27685547,-0.88427734,-0.3857422,2.5634766,-2.1972656,-1.5258789,0.0,0.0,0.0,-113.131714,15.913696,-74.02588
1768032471927,-0.2680664,-0.88427734,-0.3852539,6.225586,-0.91552734,0.0,0.0,0.0,0.0,-113.131714,15.913696,-74.02588
1768032471939,-0.2680664,-0.88427734,-0.3852539,6.225586,-0.91552734,0.0,0.0,0.0,0.0,-112.664795,15.930176,-73.80615
1768032472027,-0.27539062,-0.89160156,-0.3623047,5.065918,-1.6479492,2.1362305,0.0,0.0,0.0,-112.664795,15.930176,-73.80615
1768032472038,-0.27539062,-0.89160156,-0.3623047,5.065918,-1.6479492,2.1362305,0.0,0.0,0.0,-112.14844,16.067505,-73.76221
1768032472127,-0.28173828,-0.89208984,-0.36523438,2.9907227,-4.3945312,1.4648438,0.0,0.0,0.0,-112.14844,16.067505,-73.76221
1768032472138,-0.28173828,-0.89208984,-0.36523438,2.9907227,-4.3945312,1.4648438,0.0,0.0,0.0,-111.68152,16.347656,-73.54248
1768032472226,-0.29101562,-0.8930664,-0.34228516,4.9438477,-5.432129,1.0986328,0.0,0.0,0.0,-111.68152,16.347656,-73.54248
1768032472238,-0.29101562,-0.8930664,-0.34228516,4.9438477,-5.432129,1.0986328,0.0,0.0,0.0,-111.09924,16.594849,-73.17444
1768032472326,-0.30273438,-0.89208984,-0.3251953,5.2490234,-4.0893555,0.79345703,0.0,0.0,0.0,-111.09924,16.594849,-73.17444
1768032472338,-0.30273438,-0.89208984,-0.3251953,5.2490234,-4.0893555,0.79345703,0.0,0.0,0.0,-110.61035,16.875,-72.751465
1768032472426,-0.30566406,-0.8857422,-0.3388672,4.699707,-2.746582,2.0141602,0.0,0.0,0.0,-110.61035,16.875,-72.751465
1768032472437,-0.30566406,-0.8857422,-0.3388672,4.699707,-2.746582,2.0141602,0.0,0.0,0.0,-110.028076,17.06726,-72.41638
1768032472526,-0.30517578,-0.90527344,-0.31933594,4.638672,-0.61035156,1.159668,0.0,0.0,0.0,-110.028076,17.06726,-72.41638
1768032472537,-0.30517578,-0.90527344,-0.31933594,4.638672,-0.61035156,1.159668,0.0,0.0,0.0,-109.660034,17.265015,-72.43286
1768032472625,-0.30566406,-0.90185547,-0.3149414,4.333496,-5.432129,0.61035156,0.0,0.0,0.0,-109.660034,17.265015,-72.43286
1768032472637,-0.30566406,-0.90185547,-0.3149414,4.333496,-5.432129,0.61035156,0.0,0.0,0.0,-109.14368,17.385864,-72.14172
1768032472725,-0.31103516,-0.91552734,-0.29882812,5.004883,-3.7231445,7.3242188,0.0,0.0,0.0,-109.14368,17.385864,-72.14172
1768032472737,-0.31103516,-0.91552734,-0.29882812,5.004883,-3.7231445,7.3242188,0.0,0.0,0.0,-108.55591,17.907715,-71.795654
1768032472825,-0.32861328,-0.9033203,-0.28515625,6.5307617,-1.7700195,3.8452148,0.0,0.0,0.0,-108.55591,17.907715,-71.795654
1768032472836,-0.32861328,-0.9033203,-0.28515625,6.5307617,-1.7700195,3.8452148,0.0,0.0,0.0,-107.96265,18.484497,-71.762695
1768032472924,-0.3305664,-0.90966797,-0.28955078,11.779785,-3.2348633,-1.0375977,0.0,0.0,0.0,-107.96265,18.484497,-71.762695
1768032472936,-0.3305664,-0.90966797,-0.28955078,11.779785,-3.2348633,-1.0375977,0.0,0.0,0.0,-106.96289,18.638306,-71.49902
1768032473024,-0.33496094,-0.92041016,-0.25585938,18.127441,-2.6855469,-4.5776367,0.0,0.0,0.0,-106.96289,18.638306,-71.49902
1768032473036,-0.33496094,-0.92041016,-0.25585938,18.127441,-2.6855469,-4.5776367,0.0,0.0,0.0,-105.34241,18.446045,-71.05408
1768032473124,-0.31054688,-0.91748047,-0.22753906,18.127441,-9.521484,-6.713867,0.0,0.0,0.0,-105.34241,18.446045,-71.05408
1768032473135,-0.31054688,-0.91748047,-0.22753906,18.127441,-9.521484,-6.713867,0.0,0.0,0.0,-103.342896,17.891235,-70.29602
1768032473224,-0.29785156,-0.93847656,-0.19580078,16.967773,-8.605957,1.2207031,0.0,0.0,0.0,-103.342896,17.891235,-70.29602
1768032473235,-0.29785156,-0.93847656,-0.19580078,16.967773,-8.605957,1.2207031,0.0,0.0,0.0,-101.21155,17.962646,-69.14795
1768032473323,-0.31298828,-0.94433594,-0.14404297,11.71875,-8.056641,4.9438477,0.0,0.0,0.0,-101.21155,17.962646,-69.14795
1768032473335,-0.31298828,-0.94433594,-0.14404297,11.71875,-8.056641,4.9438477,0.0,0.0,0.0,-99.60205,18.336182,-68.428345
1768032473423,-0.3383789,-0.9394531,-0.13476562,8.972168,-8.422852,6.591797,0.0,0.0,0.0,-99.60205,18.336182,-68.428345
1768032473435,-0.3383789,-0.9394531,-0.13476562,8.972168,-8.422852,6.591797,0.0,0.0,0.0,-98.40454,19.083252,-67.52197
1768032473523,-0.34228516,-0.9379883,-0.11328125,10.803223,-4.1503906,3.9672852,0.0,0.0,0.0,-98.40454,19.083252,-67.52197
1768032473535,-0.34228516,-0.9379883,-0.11328125,10.803223,-4.1503906,3.9672852,0.0,0.0,0.0,-97.20703,19.649048,-67.0166
1768032473623,-0.32763672,-0.9682617,-0.07714844,9.033203,-17.150879,8.666992,0.0,0.0,0.0,-97.20703,19.649048,-67.0166
1768032473634,-0.32763672,-0.9682617,-0.07714844,9.033203,-17.150879,8.666992,0.0,0.0,0.0,-95.877686,20.374146,-66.07727
1768032473722,-0.4194336,-0.95458984,-0.09082031,-32.043457,-33.63037,32.043457,0.0,0.0,0.0,-95.877686,20.374146,-66.07727
1768032473734,-0.4194336,-0.95458984,-0.09082031,-32.043457,-33.63037,32.043457,0.0,0.0,0.0,-95.97107,22.81311,-63.35266
1768032473822,-0.4506836,-1.03125,-0.12695312,-44.98291,-20.385742,22.033691,0.0,0.0,0.0,-95.97107,22.81311,-63.35266
1768032473833,-0.4506836,-1.03125,-0.12695312,-44.98291,-20.385742,22.033691,0.0,0.0,0.0,-97.88269,26.015625,-60.95764
1768032473922,-0.41064453,-0.8154297,-0.22070312,-24.780273,-19.042969,22.827148,0.0,0.0,0.0,-97.88269,26.015625,-60.95764
1768032473933,-0.41064453,-0.8154297,-0.22070312,-24.780273,-19.042969,22.827148,0.0,0.0,0.0,-98.464966,27.806396,-59.2218
1768032474021,-0.5214844,-0.8569336,-0.08544922,-33.203125,-6.4086914,22.338867,0.0,0.0,0.0,-98.464966,27.806396,-59.2218
1768032474033,-0.5214844,-0.8569336,-0.08544922,-33.203125,-6.4086914,22.338867,0.0,0.0,0.0,-100.31616,29.87732,-58.743896
1768032474121,-0.51123047,-0.8149414,-0.15136719,-23.4375,14.221191,6.713867,0.0,0.0,0.0,-100.31616,29.87732,-58.743896
1768032474133,-0.51123047,-0.8149414,-0.15136719,-23.4375,14.221191,6.713867,0.0,0.0,0.0,-104.1449,31.706543,-59.743652
1768032474221,-0.5595703,-0.7890625,-0.24316406,-16.967773,18.554688,12.512207,0.0,0.0,0.0,-104.1449,31.706543,-59.743652
1768032474232,-0.5595703,-0.7890625,-0.24316406,-16.967773,18.554688,12.512207,0.0,0.0,0.0,-107.04529,32.195435,-61.704712
1768032474321,-0.5288086,-0.7451172,-0.2788086,-10.498047,12.390137,7.9956055,0.0,0.0,0.0,-107.04529,32.195435,-61.704712
1768032474332,-0.5288086,-0.7451172,-0.2788086,-10.498047,12.390137,7.9956055,0.0,0.0,0.0,-109.40735,32.60742,-63.797607
1768032474420,-0.53222656,-0.7709961,-0.3154297,-11.108398,5.3710938,4.5776367,0.0,0.0,0.0,-109.40735,32.60742,-63.797607
1768032474432,-0.53222656,-0.7709961,-0.3154297,-11.108398,5.3710938,4.5776367,0.0,0.0,0.0,-111.121216,32.860107,-64.956665
1768032474520,-0.5649414,-0.76464844,-0.34277344,-7.6904297,5.92041,7.751465,0.0,0.0,0.0,-111.121216,32.860107,-64.956665
1768032474532,-0.5649414,-0.76464844,-0.34277344,-7.6904297,5.92041,7.751465,0.0,0.0,0.0,-112.43408,33.2666,-65.67627
1768032474620,-0.5605469,-0.7739258,-0.34326172,-6.286621,4.699707,9.338379,0.0,0.0,0.0,-112.43408,33.2666,-65.67627
1768032474631,-0.5605469,-0.7739258,-0.34326172,-6.286621,4.699707,9.338379,0.0,0.0,0.0,-113.76343,33.78296,-66.85181
1768032474719,-0.5776367,-0.7421875,-0.3515625,-5.432129,3.9672852,12.634277,0.0,0.0,0.0,-113.76343,33.78296,-66.85181
1768032474731,-0.5776367,-0.7421875,-0.3515625,-5.432129,3.9672852,12.634277,0.0,0.0,0.0,-114.9115,34.595947,-67.95044
1768032474819,-0.5883789,-0.73095703,-0.35595703,-5.6762695,2.319336,14.404297,0.0,0.0,0.0,-114.9115,34.595947,-67.95044
1768032474831,-0.5883789,-0.73095703,-0.35595703,-5.6762695,2.319336,14.404297,0.0,0.0,0.0,-115.927734,35.628662,-69.02161
1768032474919,-0.6357422,-0.6850586,-0.36767578,-5.6762695,5.004883,23.742676,0.0,0.0,0.0,-115.927734,35.628662,-69.02161
1768032474930,-0.6357422,-0.6850586,-0.36767578,-5.6762695,5.004883,23.742676,0.0,0.0,0.0,-117.25159,37.15027,-70.48828
1768032475019,-0.6191406,-0.6982422,-0.3701172,-11.047363,3.90625,38.085938,0.0,0.0,0.0,-117.25159,37.15027,-70.48828
1768032475030,-0.6191406,-0.6982422,-0.3701172,-11.047363,3.90625,38.085938,0.0,0.0,0.0,-119.68506,39.506836,-73.256836
1768032475118,-0.6699219,-0.61865234,-0.4267578,-11.474609,0.9765625,41.56494,0.0,0.0,0.0,-119.68506,39.506836,-73.256836
1768032475130,-0.6699219,-0.61865234,-0.4267578,-11.474609,0.9765625,41.56494,0.0,0.0,0.0,-122.61841,42.593994,-76.32202
1768032475218,-0.73291016,-0.5473633,-0.40283203,-3.2348633,2.746582,36.254883,0.0,0.0,0.0,-122.61841,42.593994,-76.32202
1768032475229,-0.73291016,-0.5473633,-0.40283203,-3.2348633,2.746582,36.254883,0.0,0.0,0.0,-125.38147,45.43396,-79.53552
1768032475318,-0.7163086,-0.5317383,-0.43847656,-4.4555664,16.967773,29.846191,0.0,0.0,0.0,-125.38147,45.43396,-79.53552
1768032475329,-0.7163086,-0.5317383,-0.43847656,-4.4555664,16.967773,29.846191,0.0,0.0,0.0,-128.35876,47.27417,-83.573
1768032475418,-0.7739258,-0.46484375,-0.40283203,0.8544922,19.65332,32.104492,0.0,0.0,0.0,-128.35876,47.27417,-83.573
1768032475429,-0.7739258,-0.46484375,-0.40283203,0.8544922,19.65332,32.104492,0.0,0.0,0.0,-132.34131,48.658447,-88.5553
1768032475517,-0.75927734,-0.42871094,-0.46728516,6.225586,16.845703,17.089844,0.0,0.0,0.0,-132.34131,48.658447,-88.5553
1768032475529,-0.75927734,-0.42871094,-0.46728516,6.225586,16.845703,17.089844,0.0,0.0,0.0,-135.14282,49.262695,-92.85095
1768032475617,-0.76171875,-0.5029297,-0.47314453,-6.958008,17.76123,15.930176,0.0,0.0,0.0,-135.14282,49.262695,-92.85095
1768032475628,-0.76171875,-0.5029297,-0.47314453,-6.958008,17.76123,15.930176,0.0,0.0,0.0,-137.94434,49.784546,-96.778564
1768032475717,-0.8378906,-0.28564453,-0.49267578,-20.874023,-5.1879883,23.55957,0.0,0.0,0.0,-137.94434,49.784546,-96.778564
1768032475728,-0.8378906,-0.28564453,-0.49267578,-20.874023,-5.1879883,23.55957,0.0,0.0,0.0,-142.43774,50.960083,-99.27246
1768032475816,-0.80078125,-0.29345703,-0.5332031,-20.385742,-24.719238,43.762207,0.0,0.0,0.0,-142.43774,50.960083,-99.27246
1768032475829,-0.80078125,-0.29345703,-0.5332031,-20.385742,-24.719238,43.762207,0.0,0.0,0.0,-147.39807,53.38257,-102.83203
1768032475916,-0.9091797,-0.29003906,-0.49169922,-13.73291,-28.869629,43.395996,0.0,0.0,0.0,-147.39807,53.38257,-102.83203
1768032475928,-0.9091797,-0.29003906,-0.49169922,-13.73291,-28.869629,43.395996,0.0,0.0,0.0,-151.37512,57.1344,-106.693726
1768032476016,-0.95410156,0.009277344,-0.17675781,-64.453125,-117.492676,87.524414,0.0,0.0,0.0,-151.37512,57.1344,-106.693726
1768032476028,-0.95410156,0.009277344,-0.17675781,-64.453125,-117.492676,87.524414,0.0,0.0,0.0,-159.8291,65.52246,-113.24158
1768032476116,-1.3969727,0.24560547,-0.09472656,-56.762695,-215.14893,109.313965,0.0,0.0,0.0,-159.8291,65.52246,-113.24158
1768032476128,-1.3969727,0.24560547,-0.09472656,-56.762695,-215.14893,109.313965,0.0,0.0,0.0,150.62805,83.38074,-157.92847
1768032476215,-0.9536133,0.26904297,0.31298828,-47.180176,-207.58057,58.59375,0.0,0.0,0.0,150.62805,83.38074,-157.92847
1768032476227,-0.9536133,0.26904297,0.31298828,-47.180176,-207.58057,58.59375,0.0,0.0,0.0,42.945557,70.51575,96.240234
1768032476315,-0.45410156,0.12207031,0.32714844,37.29248,-151.48926,-19.042969,0.0,0.0,0.0,42.945557,70.51575,96.240234
1768032476327,-0.45410156,0.12207031,0.32714844,37.29248,-151.48926,-19.042969,0.0,0.0,0.0,27.49878,54.558105,75.997925
1768032476415,-0.5263672,-0.072753906,0.33007812,0.061035156,-116.51611,-96.74072,0.0,0.0,0.0,27.49878,54.558105,75.997925
1768032476426,-0.5263672,-0.072753906,0.33007812,0.061035156,-116.51611,-96.74072,0.0,0.0,0.0,18.962402,45.69763,56.63452
1768032476514,-0.7421875,0.25390625,0.75878906,-53.894043,-82.76367,-31.311035,0.0,0.0,0.0,18.962402,45.69763,56.63452
1768032476526,-0.7421875,0.25390625,0.75878906,-53.894043,-82.76367,-31.311035,0.0,0.0,0.0,3.1640625,37.062378,41.07788
1768032476614,-0.5605469,-0.23632812,1.3837891,7.9345703,-23.620605,-31.982422,0.0,0.0,0.0,3.1640625,37.062378,41.07788
1768032476626,-0.5605469,-0.23632812,1.3837891,7.9345703,-23.620605,-31.982422,0.0,0.0,0.0,-2.576294,30.822144,33.48633
1768032476714,-0.57177734,-0.29882812,0.73095703,26.733398,14.465332,-13.427734,0.0,0.0,0.0,-2.576294,30.822144,33.48633
1768032476725,-0.57177734,-0.29882812,0.73095703,26.733398,14.465332,-13.427734,0.0,0.0,0.0,-1.071167,31.365967,26.691284
1768032476814,-0.47216797,0.07470703,0.87890625,6.225586,-21.78955,3.7841797,0.0,0.0,0.0,-1.071167,31.365967,26.691284
1768032476825,-0.47216797,0.07470703,0.87890625,6.225586,-21.78955,3.7841797,0.0,0.0,0.0,-0.77453613,29.893799,23.17566
1768032476913,-0.3720703,0.033691406,0.9501953,0.61035156,-24.902344,7.6293945,0.0,0.0,0.0,-0.77453613,29.893799,23.17566
1768032476925,-0.3720703,0.033691406,0.9501953,0.61035156,-24.902344,7.6293945,0.0,0.0,0.0,0.115356445,27.4823,21.461792
1768032477013,-0.3461914,-0.03515625,0.8779297,-5.859375,-23.742676,4.760742,0.0,0.0,0.0,0.115356445,27.4823,21.461792
1768032477024,-0.3461914,-0.03515625,0.8779297,-5.859375,-23.742676,4.760742,0.0,0.0,0.0,0.17028809,25.131226,19.198608
1768032477113,-0.32617188,-0.024414062,0.9819336,-1.5258789,-24.353027,4.3945312,0.0,0.0,0.0,0.17028809,25.131226,19.198608
1768032477124,-0.32617188,-0.024414062,0.9819336,-1.5258789,-24.353027,4.3945312,0.0,0.0,0.0,-0.1538086,22.571411,17.072754
1768032477213,-0.33789062,-0.0063476562,0.92041016,4.3945312,-15.258789,2.5024414,0.0,0.0,0.0,-0.1538086,22.571411,17.072754
1768032477224,-0.33789062,-0.0063476562,0.92041016,4.3945312,-15.258789,2.5024414,0.0,0.0,0.0,0.43945312,20.412598,14.831543
1768032477312,-0.20507812,0.109375,0.94433594,-18.066406,-19.16504,3.4179688,0.0,0.0,0.0,0.43945312,20.412598,14.831543
1768032477324,-0.20507812,0.109375,0.94433594,-18.066406,-19.16504,3.4179688,0.0,0.0,0.0,0.010986328,18.544922,13.952637
1768032477412,-0.21923828,-0.09082031,0.9394531,0.61035156,4.1503906,20.568848,0.0,0.0,0.0,0.010986328,18.544922,13.952637
1768032477423,-0.21923828,-0.09082031,0.9394531,0.61035156,4.1503906,20.568848,0.0,0.0,0.0,0.8074951,18.396606,13.502197
1768032477512,-0.22070312,-0.022460938,0.9790039,-0.48828125,-1.5258789,3.112793,0.0,0.0,0.0,0.8074951,18.396606,13.502197
1768032477523,-0.22070312,-0.022460938,0.9790039,-0.48828125,-1.5258789,3.112793,0.0,0.0,0.0,0.49438477,17.74292,12.524414
1768032477611,-0.1928711,-0.0234375,0.93603516,2.5634766,-4.333496,14.465332,0.0,0.0,0.0,0.49438477,17.74292,12.524414
1768032477623,-0.1928711,-0.0234375,0.93603516,2.5634766,-4.333496,14.465332,0.0,0.0,0.0,0.9338379,17.352905,11.469727
1768032477711,-0.2553711,0.019042969,0.9975586,8.117676,-22.155762,4.8217773,0.0,0.0,0.0,0.9338379,17.352905,11.469727
1768032477723,-0.2553711,0.019042969,0.9975586,8.117676,-22.155762,4.8217773,0.0,0.0,0.0,1.5216064,15.606079,10.750122
1768032477811,-0.265625,0.09814453,0.98583984,7.019043,-4.8828125,2.0141602,0.0,0.0,0.0,1.5216064,15.606079,10.750122
1768032477823,-0.265625,0.09814453,0.98583984,7.019043,-4.8828125,2.0141602,0.0,0.0,0.0,2.2357178,14.221802,9.365845
1768032477911,-0.2211914,0.08105469,0.92285156,-0.5493164,3.7841797,8.850098,0.0,0.0,0.0,2.2357178,14.221802,9.365845
1768032477922,-0.2211914,0.08105469,0.92285156,-0.5493164,3.7841797,8.850098,0.0,0.0,0.0,3.114624,14.458008,8.382568
1768032478010,-0.22509766,0.044921875,0.99609375,-5.1879883,5.92041,-0.91552734,0.0,0.0,0.0,3.114624,14.458008,8.382568
1768032478022,-0.22509766,0.044921875,0.99609375,-5.1879883,5.92041,-0.91552734,0.0,0.0,0.0,2.6861572,14.837036,7.0477295
1768032478110,-0.2241211,0.008300781,0.9765625,-4.5776367,-2.6855469,6.164551,0.0,0.0,0.0,2.6861572,14.837036,7.0477295
1768032478122,-0.2241211,0.008300781,0.9765625,-4.5776367,-2.6855469,6.164551,0.0,0.0,0.0,2.1972656,14.842529,5.9106445
1768032478210,-0.20166016,0.057617188,0.9550781,3.6010742,9.033203,0.0,0.0,0.0,0.0,2.1972656,14.842529,5.9106445
1768032478221,-0.20166016,0.057617188,0.9550781,3.6010742,9.033203,0.0,0.0,0.0,0.0,2.1862793,14.979858,4.7351074
1768032478310,-0.21484375,0.0087890625,0.9819336,-1.953125,13.549805,1.2207031,0.0,0.0,0.0,2.1862793,14.979858,4.7351074
1768032478322,-0.21484375,0.0087890625,0.9819336,-1.953125,13.549805,1.2207031,0.0,0.0,0.0,2.2247314,15.968628,3.4332275
1768032478409,-0.25048828,0.010253906,0.95458984,-2.8076172,13.183594,-0.6713867,0.0,0.0,0.0,2.2247314,15.968628,3.4332275
1768032478422,-0.25048828,0.010253906,0.95458984,-2.8076172,13.183594,-0.6713867,0.0,0.0,0.0,1.9226074,16.951904,2.2906494
1768032478509,-0.3154297,0.025390625,0.96777344,1.8310547,17.51709,0.12207031,0.0,0.0,0.0,1.9226074,16.951904,2.2906494
1768032478522,-0.3154297,0.025390625,0.96777344,1.8310547,17.51709,0.12207031,0.0,0.0,0.0,1.8511963,18.242798,1.1480713
1768032478609,-0.32128906,0.021484375,0.9399414,3.4179688,8.850098,-2.4414062,0.0,0.0,0.0,1.8511963,18.242798,1.1480713
1768032478621,-0.32128906,0.021484375,0.9399414,3.4179688,8.850098,-2.4414062,0.0,0.0,0.0,2.1258545,19.533691,-0.1373291
1768032478708,-0.30859375,0.032714844,0.9501953,0.8544922,-0.48828125,0.91552734,0.0,0.0,0.0,2.1258545,19.533691,-0.1373291
1768032478720,-0.30859375,0.032714844,0.9501953,0.8544922,-0.48828125,0.91552734,0.0,0.0,0.0,2.241211,19.863281,-1.2908936
1768032478808,-0.34228516,0.028808594,0.9511719,1.0986328,-3.1738281,-2.1362305,0.0,0.0,0.0,2.241211,19.863281,-1.2908936
1768032478820,-0.34228516,0.028808594,0.9511719,1.0986328,-3.1738281,-2.1362305,0.0,0.0,0.0,2.279663,19.544678,-2.4169922
1768032478908,-0.28857422,0.01953125,0.9458008,-0.061035156,-9.887695,2.2583008,0.0,0.0,0.0,2.279663,19.544678,-2.4169922
1768032478919,-0.28857422,0.01953125,0.9458008,-0.061035156,-9.887695,2.2583008,0.0,0.0,0.0,2.307129,18.81958,-3.3068848
1768032479008,-0.28515625,0.03125,0.9633789,3.7841797,-3.9672852,2.6855469,0.0,0.0,0.0,2.307129,18.81958,-3.3068848
1768032479019,-0.28515625,0.03125,0.9633789,3.7841797,-3.9672852,2.6855469,0.0,0.0,0.0,2.5653076,18.116455,-3.9111328
1768032479107,-0.2841797,0.052246094,0.94384766,1.0375977,-4.9438477,1.8310547,0.0,0.0,0.0,2.5653076,18.116455,-3.9111328
1768032479119,-0.2841797,0.052246094,0.94384766,1.0375977,-4.9438477,1.8310547,0.0,0.0,0.0,2.8234863,17.462769,-4.460449
1768032479207,-0.28808594,0.047851562,0.95703125,1.5258789,-1.953125,-4.0283203,0.0,0.0,0.0,2.8234863,17.462769,-4.460449
1768032479219,-0.28808594,0.047851562,0.95703125,1.5258789,-1.953125,-4.0283203,0.0,0.0,0.0,2.91687,17.160645,-5.388794
1768032479307,-0.265625,0.029296875,0.9633789,1.2207031,-4.4555664,-1.5258789,0.0,0.0,0.0,2.91687,17.160645,-5.388794
1768032479318,-0.265625,0.029296875,0.9633789,1.2207031,-4.4555664,-1.5258789,0.0,0.0,0.0,2.982788,16.781616,-6.432495
1768032479407,-0.26123047,0.044433594,0.9580078,1.6479492,-4.9438477,-0.7324219,0.0,0.0,0.0,2.982788,16.781616,-6.432495
1768032479418,-0.26123047,0.044433594,0.9580078,1.6479492,-4.9438477,-0.7324219,0.0,0.0,0.0,2.9992676,16.254272,-7.2784424
1768032479506,-0.25439453,0.055664062,0.95996094,2.0141602,-0.91552734,-0.6713867,0.0,0.0,0.0,2.9992676,16.254272,-7.2784424
1768032479518,-0.25439453,0.055664062,0.95996094,2.0141602,-0.91552734,-0.6713867,0.0,0.0,0.0,3.1365967,15.831299,-8.02002
1768032479606,-0.2446289,0.04248047,0.9560547,0.5493164,-0.30517578,1.7089844,0.0,0.0,0.0,3.1365967,15.831299,-8.02002
1768032479618,-0.2446289,0.04248047,0.9560547,0.5493164,-0.30517578,1.7089844,0.0,0.0,0.0,3.2244873,15.57312,-8.547363
1768032479706,-0.25341797,0.060058594,0.9633789,0.36621094,3.1738281,-2.5024414,0.0,0.0,0.0,3.2244873,15.57312,-8.547363
1768032479717,-0.25341797,0.060058594,0.9633789,0.36621094,3.1738281,-2.5024414,0.0,0.0,0.0,3.3618164,15.79834,-9.173584
1768032479806,-0.26708984,0.060546875,0.95410156,-0.91552734,0.0,-3.7841797,0.0,0.0,0.0,3.3618164,15.79834,-9.173584
1768032479817,-0.26708984,0.060546875,0.95410156,-0.91552734,0.0,-3.7841797,0.0,0.0,0.0,3.2519531,15.847778,-10.085449
1768032479905,-0.27490234,0.038085938,0.96240234,-4.638672,-7.385254,2.5024414,0.0,0.0,0.0,3.2519531,15.847778,-10.085449
1768032479917,-0.27490234,0.038085938,0.96240234,-4.638672,-7.385254,2.5024414,0.0,0.0,0.0,2.9223633,15.287476,-10.799561
1768032480005,-0.22607422,0.03125,0.9746094,-0.7324219,-2.5634766,5.004883,0.0,0.0,0.0,2.9223633,15.287476,-10.799561
1768032480017,-0.22607422,0.03125,0.9746094,-0.7324219,-2.5634766,5.004883,0.0,0.0,0.0,2.680664,14.7052,-10.81604
1768032480105,-0.23144531,0.043945312,0.9633789,1.2207031,-4.5166016,3.6621094,0.0,0.0,0.0,2.680664,14.7052,-10.81604
1768032480116,-0.23144531,0.043945312,0.9633789,1.2207031,-4.5166016,3.6621094,0.0,0.0,0.0,2.8399658,14.3811035,-10.805054
1768032480204,-0.22998047,0.08203125,0.9692383,-0.6713867,-1.8310547,-1.4038086,0.0,0.0,0.0,2.8399658,14.3811035,-10.805054
1768032480216,-0.22998047,0.08203125,0.9692383,-0.6713867,-1.8310547,-1.4038086,0.0,0.0,0.0,2.845459,13.903198,-11.019287
1768032480304,-0.23876953,0.041992188,0.95214844,-0.18310547,3.540039,0.36621094,0.0,0.0,0.0,2.845459,13.903198,-11.019287
1768032480316,-0.23876953,0.041992188,0.95214844,-0.18310547,3.540039,0.36621094,0.0,0.0,0.0,2.9333496,14.100952,-11.722412
1768032480404,-0.2265625,0.013671875,0.9785156,-4.9438477,-2.5024414,4.211426,0.0,0.0,0.0,2.9333496,14.100952,-11.722412
1768032480415,-0.2265625,0.013671875,0.9785156,-4.9438477,-2.5024414,4.211426,0.0,0.0,0.0,2.8015137,14.348145,-11.755371
1768032480504,-0.23144531,0.048828125,0.96191406,-1.3427734,-5.065918,-0.061035156,0.0,0.0,0.0,2.8015137,14.348145,-11.755371
1768032480515,-0.23144531,0.048828125,0.96191406,-1.3427734,-5.065918,-0.061035156,0.0,0.0,0.0,2.411499,13.62854,-12.008057
1768032480603,-0.21826172,0.025878906,0.98339844,-3.6621094,-3.7841797,5.859375,0.0,0.0,0.0,2.411499,13.62854,-12.008057
1768032480615,-0.21826172,0.025878906,0.98339844,-3.6621094,-3.7841797,5.859375,0.0,0.0,0.0,2.345581,13.359375,-12.041016
1768032480703,-0.21923828,0.060546875,0.97509766,-14.587402,-15.014648,-6.5307617,0.0,0.0,0.0,2.345581,13.359375,-12.041016
1768032480715,-0.21923828,0.060546875,0.97509766,-14.587402,-15.014648,-6.5307617,0.0,0.0,0.0,1.7248535,12.579346,-12.32666
1768032480803,-0.20410156,0.012207031,0.9628906,-28.442383,-3.6010742,2.0141602,0.0,0.0,0.0,1.7248535,12.579346,-12.32666
1768032480814,-0.20410156,0.012207031,0.9628906,-28.442383,-3.6010742,2.0141602,0.0,0.0,0.0,-0.14831543,11.337891,-13.271484
1768032480903,-0.14746094,-0.04638672,1.034668,-29.663086,21.240234,-30.395508,0.0,0.0,0.0,-0.14831543,11.337891,-13.271484
1768032480914,-0.14746094,-0.04638672,1.034668,-29.663086,21.240234,-30.395508,0.0,0.0,0.0,-3.4881592,12.628784,-14.0789795
1768032481002,-0.119628906,-0.18261719,0.81347656,-22.399902,-34.118652,-33.02002,0.0,0.0,0.0,-3.4881592,12.628784,-14.0789795
1768032481014,-0.119628906,-0.18261719,0.81347656,-22.399902,-34.118652,-33.02002,0.0,0.0,0.0,-6.4160156,11.332397,-17.907715
1768032481102,-0.22314453,-0.15332031,1.0527344,3.0517578,39.367676,10.131836,0.0,0.0,0.0,-6.4160156,11.332397,-17.907715
1768032481113,-0.22314453,-0.15332031,1.0527344,3.0517578,39.367676,10.131836,0.0,0.0,0.0,-7.89917,12.771606,-19.06128
1768032481202,-0.21582031,-0.15820312,0.89208984,-4.8217773,13.183594,14.587402,0.0,0.0,0.0,-7.89917,12.771606,-19.06128
1768032481213,-0.21582031,-0.15820312,0.89208984,-4.8217773,13.183594,14.587402,0.0,0.0,0.0,-7.6464844,14.452515,-18.8031
1768032481302,-0.27197266,-0.11035156,0.9272461,-0.61035156,-2.319336,10.192871,0.0,0.0,0.0,-7.6464844,14.452515,-18.8031
1768032481313,-0.27197266,-0.11035156,0.9272461,-0.61035156,-2.319336,10.192871,0.0,0.0,0.0,-7.8552246,15.644531,-17.748413
1768032481401,-0.28222656,-0.099121094,1.0092773,4.4555664,-11.779785,9.277344,0.0,0.0,0.0,-7.8552246,15.644531,-17.748413
1768032481413,-0.28222656,-0.099121094,1.0092773,4.4555664,-11.779785,9.277344,0.0,0.0,0.0,-7.3168945,14.935913,-17.402344
1768032481501,-0.22998047,-0.104003906,0.9482422,0.9765625,-13.427734,5.79834,0.0,0.0,0.0,-7.3168945,14.935913,-17.402344
1768032481512,-0.22998047,-0.104003906,0.9482422,0.9765625,-13.427734,5.79834,0.0,0.0,0.0,-6.366577,13.996582,-16.463013
1768032481601,-0.23291016,-0.11035156,0.9663086,-2.0751953,-29.35791,7.1411133,0.0,0.0,0.0,-6.366577,13.996582,-16.463013
1768032481612,-0.23291016,-0.11035156,0.9663086,-2.0751953,-29.35791,7.1411133,0.0,0.0,0.0,-6.498413,11.887207,-15.831299
1768032481700,-0.15722656,-0.12841797,0.9941406,3.6010742,-10.559082,6.225586,0.0,0.0,0.0,-6.498413,11.887207,-15.831299
1768032481712,-0.15722656,-0.12841797,0.9941406,3.6010742,-10.559082,6.225586,0.0,0.0,0.0,-6.157837,10.096436,-15.270996
1768032481800,-0.17041016,-0.1171875,0.9394531,-5.6762695,-5.1879883,0.0,0.0,0.0,0.0,-6.157837,10.096436,-15.270996
1768032481811,-0.17041016,-0.1171875,0.9394531,-5.6762695,-5.1879883,0.0,0.0,0.0,0.0,-6.432495,9.404297,-15.216064
1768032481900,-0.14355469,-0.13720703,1.0068359,-16.296387,-4.9438477,-6.3476562,0.0,0.0,0.0,-6.432495,9.404297,-15.216064
1768032481911,-0.14355469,-0.13720703,1.0068359,-16.296387,-4.9438477,-6.3476562,0.0,0.0,0.0,-7.5860596,9.025269,-15.606079
1768032481999,-0.1850586,-0.17138672,0.9819336,-8.483887,10.437012,-8.544922,0.0,0.0,0.0,-7.5860596,9.025269,-15.606079
1768032482011,-0.1850586,-0.17138672,0.9819336,-8.483887,10.437012,-8.544922,0.0,0.0,0.0,-9.0802,9.217529,-16.594849
1768032482099,-0.16064453,-0.15478516,0.94873047,5.6152344,21.728516,3.2348633,0.0,0.0,0.0,-9.0802,9.217529,-16.594849
1768032482111,-0.16064453,-0.15478516,0.94873047,5.6152344,21.728516,3.2348633,0.0,0.0,0.0,-9.354858,10.92041,-17.248535
1768032482199,-0.14013672,-0.2529297,1.0019531,-5.2490234,-13.549805,-3.6010742,0.0,0.0,0.0,-9.354858,10.92041,-17.248535
1768032482210,-0.14013672,-0.2529297,1.0019531,-5.2490234,-13.549805,-3.6010742,0.0,0.0,0.0,-9.190063,10.728149,-17.363892
1768032482299,-0.16992188,-0.17041016,0.96728516,4.760742,-10.070801,2.746582,0.0,0.0,0.0,-9.190063,10.728149,-17.363892
1768032482310,-0.16992188,-0.17041016,0.96728516,4.760742,-10.070801,2.746582,0.0,0.0,0.0,-9.42627,9.063721,-17.149658
1768032482398,-0.10058594,-0.084472656,0.92041016,3.1738281,-9.70459,11.108398,0.0,0.0,0.0,-9.42627,9.063721,-17.149658
1768032482410,-0.10058594,-0.084472656,0.92041016,3.1738281,-9.70459,11.108398,0.0,0.0,0.0,-8.838501,8.261719,-16.45752
1768032482498,-0.09765625,-0.16796875,0.9873047,-9.094238,-11.413574,5.432129,0.0,0.0,0.0,-8.838501,8.261719,-16.45752
1768032482510,-0.09765625,-0.16796875,0.9873047,-9.094238,-11.413574,5.432129,0.0,0.0,0.0,-9.1571045,7.3498535,-15.556641
1768032482598,-0.14746094,-0.14941406,0.97509766,-0.91552734,-3.90625,18.981934,0.0,0.0,0.0,-9.1571045,7.3498535,-15.556641
1768032482609,-0.14746094,-0.14941406,0.97509766,-0.91552734,-3.90625,18.981934,0.0,0.0,0.0,-9.63501,6.5478516,-14.39209
1768032482698,-0.0703125,-0.25732422,0.9350586,-0.24414062,-20.629883,13.916016,0.0,0.0,0.0,-9.63501,6.5478516,-14.39209
1768032482709,-0.0703125,-0.25732422,0.9350586,-0.24414062,-20.629883,13.916016,0.0,0.0,0.0,-9.431763,5.5426025,-12.34314
1768032482797,-0.055664062,-0.16503906,1.0058594,6.4086914,-1.953125,-3.6621094,0.0,0.0,0.0,-9.431763,5.5426025,-12.34314
1768032482809,-0.055664062,-0.16503906,1.0058594,6.4086914,-1.953125,-3.6621094,0.0,0.0,0.0,-9.074707,5.0427246,-12.211304
1768032482897,-0.109375,-0.107421875,0.9711914,4.9438477,-2.0141602,0.8544922,0.0,0.0,0.0,-9.074707,5.0427246,-12.211304
1768032482909,-0.109375,-0.107421875,0.9711914,4.9438477,-2.0141602,0.8544922,0.0,0.0,0.0,-8.530884,4.7406006,-12.529907
1768032482997,-0.061035156,-0.17675781,1.0043945,-1.8310547,-6.5307617,3.7841797,0.0,0.0,0.0,-8.530884,4.7406006,-12.529907
1768032483009,-0.061035156,-0.17675781,1.0043945,-1.8310547,-6.5307617,3.7841797,0.0,0.0,0.0,-8.388062,4.279175,-12.073975
1768032483097,-0.052734375,-0.15039062,0.9794922,-1.3427734,-5.065918,3.6010742,0.0,0.0,0.0,-8.388062,4.279175,-12.073975
1768032483109,-0.052734375,-0.15039062,0.9794922,-1.3427734,-5.065918,3.6010742,0.0,0.0,0.0,-8.536377,3.7353516,-11.755371
1768032483196,-0.048828125,-0.16601562,0.9790039,-1.7089844,-5.004883,5.065918,0.0,0.0,0.0,-8.536377,3.7353516,-11.755371
1768032483208,-0.048828125,-0.16601562,0.9790039,-1.7089844,-5.004883,5.065918,0.0,0.0,0.0,-8.635254,3.312378,-11.299438
1768032483296,-0.048828125,-0.16503906,0.9790039,-5.6762695,-6.713867,3.9672852,0.0,0.0,0.0,-8.635254,3.312378,-11.299438
1768032483308,-0.048828125,-0.16503906,0.9790039,-5.6762695,-6.713867,3.9672852,0.0,0.0,0.0,-9.09668,2.7685547,-10.8654785
1768032483396,-0.05078125,-0.17041016,0.97314453,-2.9907227,-7.385254,7.1411133,0.0,0.0,0.0,-9.09668,2.7685547,-10.8654785
1768032483407,-0.05078125,-0.17041016,0.97314453,-2.9907227,-7.385254,7.1411133,0.0,0.0,0.0,-9.580078,2.0928955,-10.272217
1768032483495,-0.012207031,-0.19921875,0.97314453,-2.4414062,-6.225586,6.5307617,0.0,0.0,0.0,-9.580078,2.0928955,-10.272217
1768032483507,-0.012207031,-0.19921875,0.97314453,-2.4414062,-6.225586,6.5307617,0.0,0.0,0.0,-9.761353,1.642456,-9.404297
1768032483595,0.011230469,-0.21044922,0.9868164,-1.2817383,-5.79834,2.2583008,0.0,0.0,0.0,-9.761353,1.642456,-9.404297
1768032483607,0.011230469,-0.21044922,0.9868164,-1.2817383,-5.79834,2.2583008,0.0,0.0,0.0,-9.887695,1.2524414,-8.882446
1768032483695,-0.001953125,-0.17529297,0.98291016,2.0751953,-3.1738281,-2.0751953,0.0,0.0,0.0,-9.887695,1.2524414,-8.882446
1768032483706,-0.001953125,-0.17529297,0.98291016,2.0751953,-3.1738281,-2.0751953,0.0,0.0,0.0,-9.838257,0.74157715,-8.931885
1768032483795,-0.005859375,-0.17041016,0.9838867,-0.18310547,-3.1738281,0.12207031,0.0,0.0,0.0,-9.838257,0.74157715,-8.931885
1768032483806,-0.005859375,-0.17041016,0.9838867,-0.18310547,-3.1738281,0.12207031,0.0,0.0,0.0,-9.766846,0.3955078,-9.014282
1768032483894,0.0107421875,-0.1821289,0.97753906,-2.6855469,-0.9765625,2.5024414,0.0,0.0,0.0,-9.766846,0.3955078,-9.014282
1768032483906,0.0107421875,-0.1821289,0.97753906,-2.6855469,-0.9765625,2.5024414,0.0,0.0,0.0,-9.915161,0.21972656,-8.898926
1768032483994,0.01171875,-0.19921875,0.9765625,-2.0751953,0.61035156,0.0,0.0,0.0,0.0,-9.915161,0.21972656,-8.898926
1768032484005,0.01171875,-0.19921875,0.9765625,-2.0751953,0.61035156,0.0,0.0,0.0,0.0,-10.184326,0.20324707,-8.75061
1768032484094,-0.0063476562,-0.19042969,0.9819336,-1.159668,-2.1362305,0.18310547,0.0,0.0,0.0,-10.184326,0.20324707,-8.75061
1768032484108,-0.0063476562,-0.19042969,0.9819336,-1.159668,-2.1362305,0.18310547,0.0,0.0,0.0,-10.415039,0.08239746,-8.811035
1768032484194,0.0034179688,-0.1928711,0.9819336,-0.4272461,-2.380371,3.0517578,0.0,0.0,0.0,-10.415039,0.08239746,-8.811035
1768032484205,0.0034179688,-0.1928711,0.9819336,-0.4272461,-2.380371,3.0517578,0.0,0.0,0.0,-10.546875,-0.10986328,-8.602295
1768032484293,-0.0014648438,-0.19824219,0.98876953,5.92041,-4.211426,0.18310547,0.0,0.0,0.0,-10.546875,-0.10986328,-8.602295
1768032484305,-0.0014648438,-0.19824219,0.98876953,5.92041,-4.211426,0.18310547,0.0,0.0,0.0,-10.442505,-0.39001465,-8.399048
1768032484393,-0.0029296875,-0.17089844,0.98535156,6.4697266,-7.751465,5.126953,0.0,0.0,0.0,-10.442505,-0.39001465,-8.399048
1768032484404,-0.0029296875,-0.17089844,0.98535156,6.4697266,-7.751465,5.126953,0.0,0.0,0.0,-9.849243,-0.8843994,-8.12439
1768032484493,0.033691406,-0.16015625,0.99072266,-0.91552734,-11.413574,9.643555,0.0,0.0,0.0,-9.849243,-0.8843994,-8.12439
1768032484504,0.033691406,-0.16015625,0.99072266,-0.91552734,-11.413574,9.643555,0.0,0.0,0.0,-9.51416,-1.6094971,-7.2509766
1768032484592,0.030761719,-0.13916016,0.98779297,0.0,-8.7890625,13.244629,0.0,0.0,0.0,-9.51416,-1.6094971,-7.2509766
1768032484604,0.030761719,-0.13916016,0.98779297,0.0,-8.7890625,13.244629,0.0,0.0,0.0,-9.508667,-2.37854,-6.020508
1768032484692,0.040039062,-0.1743164,0.9667969,5.1879883,-3.3569336,20.324707,0.0,0.0,0.0,-9.508667,-2.37854,-6.020508
1768032484704,0.040039062,-0.1743164,0.9667969,5.1879883,-3.3569336,20.324707,0.0,0.0,0.0,-9.239502,-2.675171,-4.158325
1768032484792,0.047851562,-0.1665039,0.9628906,1.6479492,-5.493164,25.45166,0.0,0.0,0.0,-9.239502,-2.675171,-4.158325
1768032484804,0.047851562,-0.1665039,0.9628906,1.6479492,-5.493164,25.45166,0.0,0.0,0.0,-8.948364,-2.5048828,-1.8676758
1768032484892,0.078125,-0.17773438,0.9614258,-6.652832,-10.559082,29.785156,0.0,0.0,0.0,-8.948364,-2.5048828,-1.8676758
1768032484903,0.078125,-0.17773438,0.9614258,-6.652832,-10.559082,29.785156,0.0,0.0,0.0,-9.30542,-2.8289795,0.91186523
1768032484991,0.106933594,-0.23925781,0.9482422,-14.6484375,-8.056641,19.042969,0.0,0.0,0.0,-9.30542,-2.8289795,0.91186523
1768032485003,0.106933594,-0.23925781,0.9482422,-14.6484375,-8.056641,19.042969,0.0,0.0,0.0,-10.387573,-3.2629395,3.7957764
1768032485091,0.1015625,-0.265625,0.93603516,-11.71875,6.652832,-1.3427734,0.0,0.0,0.0,-10.387573,-3.2629395,3.7957764
1768032485103,0.1015625,-0.265625,0.93603516,-11.71875,6.652832,-1.3427734,0.0,0.0,0.0,-11.826782,-3.3288574,4.6966553
1768032485191,0.040039062,-0.22753906,1.0141602,-2.1362305,7.9956055,-3.90625,0.0,0.0,0.0,-11.826782,-3.3288574,4.6966553
1768032485202,0.040039062,-0.22753906,1.0141602,-2.1362305,7.9956055,-3.90625,0.0,0.0,0.0,-12.700195,-2.647705,4.092407
1768032485291,0.0146484375,-0.21533203,0.97021484,0.0,0.24414062,-1.4648438,0.0,0.0,0.0,-12.700195,-2.647705,4.092407
1768032485302,0.0146484375,-0.21533203,0.97021484,0.0,0.24414062,-1.4648438,0.0,0.0,0.0,-12.738647,-2.3675537,3.6639404
1768032485390,0.047851562,-0.23632812,0.9765625,0.24414062,0.30517578,-1.0986328,0.0,0.0,0.0,-12.738647,-2.3675537,3.6639404
1768032485402,0.047851562,-0.23632812,0.9765625,0.24414062,0.30517578,-1.0986328,0.0,0.0,0.0,-12.689209,-2.37854,3.5980225
1768032485490,0.05029297,-0.23242188,0.96435547,1.159668,0.6713867,-1.4648438,0.0,0.0,0.0,-12.689209,-2.37854,3.5980225
1768032485502,0.05029297,-0.23242188,0.96435547,1.159668,0.6713867,-1.4648438,0.0,0.0,0.0,-12.6397705,-2.4005127,3.449707
1768032485590,0.05126953,-0.23779297,0.9628906,-0.061035156,0.6713867,-2.6855469,0.0,0.0,0.0,-12.6397705,-2.4005127,3.449707
1768032485602,0.05126953,-0.23779297,0.9628906,-0.061035156,0.6713867,-2.6855469,0.0,0.0,0.0,-12.584839,-2.4334717,3.2519531
1768032485689,0.03515625,-0.21728516,0.96875,-2.1972656,2.319336,-2.9296875,0.0,0.0,0.0,-12.584839,-2.4334717,3.2519531
1768032485701,0.03515625,-0.21728516,0.96875,-2.1972656,2.319336,-2.9296875,0.0,0.0,0.0,-12.782593,-2.4060059,2.845459
1768032485789,0.038085938,-0.23535156,0.97021484,-1.3427734,2.6245117,-4.5166016,0.0,0.0,0.0,-12.782593,-2.4060059,2.845459
1768032485801,0.038085938,-0.23535156,0.97021484,-1.3427734,2.6245117,-4.5166016,0.0,0.0,0.0,-12.897949,-2.2521973,2.4389648
1768032485889,0.030761719,-0.22558594,0.97509766,0.12207031,1.953125,-1.8920898,0.0,0.0,0.0,-12.897949,-2.2521973,2.4389648
1768032485900,0.030761719,-0.22558594,0.97509766,0.12207031,1.953125,-1.8920898,0.0,0.0,0.0,-12.919922,-2.1148682,2.076416
1768032485989,0.032226562,-0.22265625,0.97216797,0.6713867,0.5493164,-1.6479492,0.0,0.0,0.0,-12.919922,-2.1148682,2.076416
1768032486000,0.032226562,-0.22265625,0.97216797,0.6713867,0.5493164,-1.6479492,0.0,0.0,0.0,-12.848511,-2.0544434,1.8621826
1768032486088,0.03466797,-0.22460938,0.9707031,1.0986328,0.8544922,-1.8310547,0.0,0.0,0.0,-12.848511,-2.0544434,1.8621826
1768032486100,0.03466797,-0.22460938,0.9707031,1.0986328,0.8544922,-1.8310547,0.0,0.0,0.0,-12.744141,-2.0269775,1.6699219
1768032486188,0.03515625,-0.22802734,0.96972656,1.0986328,1.3427734,-0.79345703,0.0,0.0,0.0,-12.744141,-2.0269775,1.6699219
1768032486200,0.03515625,-0.22802734,0.96972656,1.0986328,1.3427734,-0.79345703,0.0,0.0,0.0,-12.6727295,-1.9555664,1.4831543
1768032486288,0.028320312,-0.21875,0.9707031,1.4038086,1.4038086,0.0,0.0,0.0,0.0,-12.6727295,-1.9555664,1.4831543
1768032486299,0.028320312,-0.21875,0.9707031,1.4038086,1.4038086,0.0,0.0,0.0,0.0,-12.529907,-1.8347168,1.4117432
1768032486387,0.027832031,-0.22949219,0.9692383,0.5493164,0.30517578,-0.79345703,0.0,0.0,0.0,-12.529907,-1.8347168,1.4117432
1768032486399,0.027832031,-0.22949219,0.9692383,0.5493164,0.30517578,-0.79345703,0.0,0.0,0.0,-12.469482,-1.7687988,1.3513184
1768032486487,0.027832031,-0.21923828,0.97509766,0.061035156,-1.2817383,-0.8544922,0.0,0.0,0.0,-12.469482,-1.7687988,1.3513184
1768032486499,0.027832031,-0.21923828,0.97509766,0.061035156,-1.2817383,-0.8544922,0.0,0.0,0.0,-12.502441,-1.8347168,1.2194824
1768032486587,0.040527344,-0.2290039,0.97265625,0.30517578,0.0,0.36621094,0.0,0.0,0.0,-12.502441,-1.8347168,1.2194824
1768032486598,0.040527344,-0.2290039,0.97265625,0.30517578,0.0,0.36621094,0.0,0.0,0.0,-12.463989,-1.9171143,1.2854004
1768032486687,0.037109375,-0.22460938,0.9711914,1.0375977,-0.30517578,-0.061035156,0.0,0.0,0.0,-12.463989,-1.9171143,1.2854004
1768032486698,0.037109375,-0.22460938,0.9711914,1.0375977,-0.30517578,-0.061035156,0.0,0.0,0.0,-12.354126,-1.9500732,1.307373
1768032486787,0.027832031,-0.21972656,0.9794922,-0.061035156,-0.18310547,0.0,0.0,0.0,0.0,-12.354126,-1.9500732,1.307373
1768032486798,0.027832031,-0.21972656,0.9794922,-0.061035156,-0.18310547,0.0,0.0,0.0,0.0,-12.299194,-1.9610596,1.2908936
1768032486886,0.043945312,-0.22021484,0.9741211,1.4038086,-0.8544922,-0.12207031,0.0,0.0,0.0,-12.299194,-1.9610596,1.2908936
1768032486898,0.043945312,-0.22021484,0.9741211,1.4038086,-0.8544922,-0.12207031,0.0,0.0,0.0,-12.244263,-2.0599365,1.3128662
1768032486986,0.03125,-0.21484375,0.96728516,2.1362305,1.0375977,-1.0375977,0.0,0.0,0.0,-12.244263,-2.0599365,1.3128662
1768032486997,0.03125,-0.21484375,0.96728516,2.1362305,1.0375977,-1.0375977,0.0,0.0,0.0,-12.079468,-2.043457,1.170044
1768032487086,0.036132812,-0.21484375,0.9760742,2.319336,0.0,-1.5258789,0.0,0.0,0.0,-12.079468,-2.043457,1.170044
1768032487097,0.036132812,-0.21484375,0.9760742,2.319336,0.0,-1.5258789,0.0,0.0,0.0,-11.876221,-2.0489502,1.0656738
1768032487185,0.030761719,-0.20214844,0.96777344,1.8920898,0.4272461,-1.8920898,0.0,0.0,0.0,-11.876221,-2.0489502,1.0656738
1768032487197,0.030761719,-0.20214844,0.96777344,1.8920898,0.4272461,-1.8920898,0.0,0.0,0.0,-11.678467,-2.0928955,0.8569336
1768032487285,0.033203125,-0.20800781,0.97314453,0.7324219,-1.159668,-1.2817383,0.0,0.0,0.0,-11.678467,-2.0928955,0.8569336
1768032487297,0.033203125,-0.20800781,0.97314453,0.7324219,-1.159668,-1.2817383,0.0,0.0,0.0,-11.6015625,-2.1643066,0.72509766
1768032487385,0.041992188,-0.203125,0.97265625,0.12207031,-0.48828125,-0.5493164,0.0,0.0,0.0,-11.6015625,-2.1643066,0.72509766
1768032487396,0.041992188,-0.203125,0.97265625,0.12207031,-0.48828125,-0.5493164,0.0,0.0,0.0,-11.5686035,-2.2576904,0.63720703
1768032487485,0.03515625,-0.20507812,0.9760742,-0.8544922,-0.061035156,0.61035156,0.0,0.0,0.0,-11.5686035,-2.2576904,0.63720703
1768032487496,0.03515625,-0.20507812,0.9760742,-0.8544922,-0.061035156,0.61035156,0.0,0.0,0.0,-11.585083,-2.2906494,0.6427002
1768032487584,0.041992188,-0.20458984,0.97216797,-0.91552734,1.5258789,0.0,0.0,0.0,0.0,-11.585083,-2.2906494,0.6427002
1768032487596,0.041992188,-0.20458984,0.97216797,-0.91552734,1.5258789,0.0,0.0,0.0,0.0,-11.629028,-2.2302246,0.64819336
1768032487684,0.02734375,-0.2055664,0.97558594,-2.9296875,3.479004,0.6713867,0.0,0.0,0.0,-11.629028,-2.2302246,0.64819336
1768032487696,0.02734375,-0.2055664,0.97558594,-2.9296875,3.479004,0.6713867,0.0,0.0,0.0,-11.793823,-1.9445801,0.60424805
1768032487784,0.016113281,-0.20605469,0.97265625,-3.6621094,3.9672852,2.2583008,0.0,0.0,0.0,-11.793823,-1.9445801,0.60424805
1768032487795,0.016113281,-0.20605469,0.97265625,-3.6621094,3.9672852,2.2583008,0.0,0.0,0.0,-12.062988,-1.5710449,0.6427002
1768032487884,0.024414062,-0.23486328,0.96191406,-5.859375,7.751465,2.8686523,0.0,0.0,0.0,-12.062988,-1.5710449,0.6427002
1768032487895,0.024414062,-0.23486328,0.96191406,-5.859375,7.751465,2.8686523,0.0,0.0,0.0,-12.518921,-1.0272217,0.7800293
1768032487983,-0.028320312,-0.16601562,0.9814453,-8.7890625,12.207031,9.216309,0.0,0.0,0.0,-12.518921,-1.0272217,0.7800293
1768032487995,-0.028320312,-0.16601562,0.9814453,-8.7890625,12.207031,9.216309,0.0,0.0,0.0,-13.919678,0.07141113,0.9942627
1768032488083,-0.030761719,-0.24560547,0.9375,-8.911133,37.04834,4.638672,0.0,0.0,0.0,-13.919678,0.07141113,0.9942627
1768032488095,-0.030761719,-0.24560547,0.9375,-8.911133,37.04834,4.638672,0.0,0.0,0.0,-14.7491455,2.7740479,0.70861816
1768032488183,-0.14111328,-0.25976562,0.96240234,-9.58252,38.146973,1.4038086,0.0,0.0,0.0,-14.7491455,2.7740479,0.70861816
1768032488194,-0.14111328,-0.25976562,0.96240234,-9.58252,38.146973,1.4038086,0.0,0.0,0.0,-15.726929,6.3116455,-0.1538086
1768032488282,-0.18310547,-0.27001953,0.93603516,-6.3476562,31.311035,0.9765625,0.0,0.0,0.0,-15.726929,6.3116455,-0.1538086
1768032488294,-0.18310547,-0.27001953,0.93603516,-6.3476562,31.311035,0.9765625,0.0,0.0,0.0,-16.501465,9.360352,-0.9338379
1768032488383,-0.18359375,-0.36669922,1.0209961,-2.9907227,7.080078,-7.751465,0.0,0.0,0.0,-16.501465,9.360352,-0.9338379
1768032488394,-0.18359375,-0.36669922,1.0209961,-2.9907227,7.080078,-7.751465,0.0,0.0,0.0,-17.319946,11.387329,-1.7028809
1768032488482,-0.25341797,-0.38232422,0.94140625,-13.305664,-22.033691,-18.310547,0.0,0.0,0.0,-17.319946,11.387329,-1.7028809
1768032488493,-0.25341797,-0.38232422,0.94140625,-13.305664,-22.033691,-18.310547,0.0,0.0,0.0,-17.797852,9.640503,-2.7630615
1768032488583,-0.19677734,-0.34570312,0.91552734,-1.7089844,-9.58252,-9.033203,0.0,0.0,0.0,-17.797852,9.640503,-2.7630615
1768032488593,-0.19677734,-0.34570312,0.91552734,-1.7089844,-9.58252,-9.033203,0.0,0.0,0.0,-18.457031,8.179321,-3.5101318
1768032488681,-0.12548828,-0.35742188,0.9716797,-3.0517578,-13.061523,-10.925293,0.0,0.0,0.0,-18.457031,8.179321,-3.5101318
1768032488693,-0.12548828,-0.35742188,0.9716797,-3.0517578,-13.061523,-10.925293,0.0,0.0,0.0,-18.775635,6.8170166,-3.9331055
1768032488781,-0.08544922,-0.31884766,0.9711914,-1.2207031,-2.6855469,-17.8833,0.0,0.0,0.0,-18.775635,6.8170166,-3.9331055
1768032488792,-0.08544922,-0.31884766,0.9711914,-1.2207031,-2.6855469,-17.8833,0.0,0.0,0.0,-19.138184,6.124878,-5.053711
1768032488881,-0.103027344,-0.32617188,0.9477539,-0.36621094,9.887695,-13.000488,0.0,0.0,0.0,-19.138184,6.124878,-5.053711
1768032488892,-0.103027344,-0.32617188,0.9477539,-0.36621094,9.887695,-13.000488,0.0,0.0,0.0,-19.204102,5.756836,-6.6796875
1768032488980,-0.15478516,-0.32958984,0.8779297,1.0986328,9.521484,9.460449,0.0,0.0,0.0,-19.204102,5.756836,-6.6796875
1768032488992,-0.15478516,-0.32958984,0.8779297,1.0986328,9.521484,9.460449,0.0,0.0,0.0,-19.34143,6.465454,-7.2454834
1768032489080,-0.12841797,-0.33544922,0.9404297,-1.159668,5.1879883,5.004883,0.0,0.0,0.0,-19.34143,6.465454,-7.2454834
1768032489092,-0.12841797,-0.33544922,0.9404297,-1.159668,5.1879883,5.004883,0.0,0.0,0.0,-19.769897,7.943115,-6.866455
1768032489180,-0.15283203,-0.31835938,0.89501953,-2.1362305,-1.8920898,8.300781,0.0,0.0,0.0,-19.769897,7.943115,-6.866455
1768032489191,-0.15283203,-0.31835938,0.89501953,-2.1362305,-1.8920898,8.300781,0.0,0.0,0.0,-19.857788,8.21228,-6.3446045
1768032489280,-0.16601562,-0.4140625,0.91015625,-3.7231445,-19.104004,12.634277,0.0,0.0,0.0,-19.857788,8.21228,-6.3446045
1768032489291,-0.16601562,-0.4140625,0.91015625,-3.7231445,-19.104004,12.634277,0.0,0.0,0.0,-19.6875,7.0806885,-4.960327
1768032489379,-0.17382812,-0.3046875,0.94433594,0.30517578,-30.029297,19.28711,0.0,0.0,0.0,-19.6875,7.0806885,-4.960327
1768032489391,-0.17382812,-0.3046875,0.94433594,0.30517578,-30.029297,19.28711,0.0,0.0,0.0,-20.022583,6.3116455,-3.1365967
1768032489479,0.0146484375,-0.39404297,0.9379883,-4.4555664,-30.395508,13.000488,0.0,0.0,0.0,-20.022583,6.3116455,-3.1365967
1768032489491,0.0146484375,-0.39404297,0.9379883,-4.4555664,-30.395508,13.000488,0.0,0.0,0.0,-19.82483,4.0649414,0.14831543
1768032489579,-0.009277344,-0.34472656,0.8964844,-6.0424805,-11.352539,0.7324219,0.0,0.0,0.0,-19.82483,4.0649414,0.14831543
1768032489590,-0.009277344,-0.34472656,0.8964844,-6.0424805,-11.352539,0.7324219,0.0,0.0,0.0,-20.13794,2.3895264,1.6534424
1768032489678,-0.043945312,-0.3720703,0.9472656,-3.9672852,-0.4272461,-7.2021484,0.0,0.0,0.0,-20.13794,2.3895264,1.6534424
1768032489690,-0.043945312,-0.3720703,0.9472656,-3.9672852,-0.4272461,-7.2021484,0.0,0.0,0.0,-20.64331,1.5765381,1.4556885
1768032489778,-0.012207031,-0.36865234,0.9296875,-4.333496,-0.061035156,0.4272461,0.0,0.0,0.0,-20.64331,1.5765381,1.4556885
1768032489790,-0.012207031,-0.36865234,0.9296875,-4.333496,-0.061035156,0.4272461,0.0,0.0,0.0,-20.95642,1.4337158,1.2634277
1768032489878,-0.014160156,-0.33740234,0.9042969,-18.859863,11.291504,-6.225586,0.0,0.0,0.0,-20.95642,1.4337158,1.2634277
1768032489890,-0.014160156,-0.33740234,0.9042969,-18.859863,11.291504,-6.225586,0.0,0.0,0.0,-21.950684,1.6918945,1.170044
1768032489978,-0.07910156,-0.35791016,0.90625,-6.4086914,20.019531,-21.484375,0.0,0.0,0.0,-21.950684,1.6918945,1.170044
1768032489989,-0.07910156,-0.35791016,0.90625,-6.4086914,20.019531,-21.484375,0.0,0.0,0.0,-23.389893,2.9937744,-0.81848145
1768032490077,-0.072753906,-0.46972656,0.90625,-15.563965,2.1972656,-5.2490234,0.0,0.0,0.0,-23.389893,2.9937744,-0.81848145
1768032490089,-0.072753906,-0.46972656,0.90625,-15.563965,2.1972656,-5.2490234,0.0,0.0,0.0,-24.378662,3.279419,-2.279663
1768032490177,-0.040527344,-0.43603516,0.89746094,-3.90625,11.84082,-6.958008,0.0,0.0,0.0,-24.378662,3.279419,-2.279663
1768032490189,-0.040527344,-0.43603516,0.89746094,-3.90625,11.84082,-6.958008,0.0,0.0,0.0,-25.60913,3.5211182,-2.8564453
1768032490277,-0.034179688,-0.49072266,0.8696289,-6.3476562,8.422852,0.6713867,0.0,0.0,0.0,-25.60913,3.5211182,-2.8564453
1768032490288,-0.034179688,-0.49072266,0.8696289,-6.3476562,8.422852,0.6713867,0.0,0.0,0.0,-26.130981,4.1308594,-3.482666
1768032490376,-0.076171875,-0.48486328,0.87353516,-0.6713867,6.7749023,-0.24414062,0.0,0.0,0.0,-26.130981,4.1308594,-3.482666
1768032490388,-0.076171875,-0.48486328,0.87353516,-0.6713867,6.7749023,-0.24414062,0.0,0.0,0.0,-26.553955,4.7680664,-3.9440918
1768032490476,-0.08886719,-0.47705078,0.88671875,3.6621094,4.3945312,0.0,0.0,0.0,0.0,-26.553955,4.7680664,-3.9440918
1768032490488,-0.08886719,-0.47705078,0.88671875,3.6621094,4.3945312,0.0,0.0,0.0,0.0,-26.482544,5.1800537,-4.1638184
1768032490576,-0.10498047,-0.43701172,0.87939453,5.2490234,-2.5634766,1.4648438,0.0,0.0,0.0,-26.482544,5.1800537,-4.1638184
1768032490587,-0.10498047,-0.43701172,0.87939453,5.2490234,-2.5634766,1.4648438,0.0,0.0,0.0,-26.1969,5.185547,-4.257202
1768032490676,-0.084472656,-0.4711914,0.8989258,5.859375,-10.986328,4.3945312,0.0,0.0,0.0,-26.1969,5.185547,-4.257202
1768032490687,-0.084472656,-0.4711914,0.8989258,5.859375,-10.986328,4.3945312,0.0,0.0,0.0,-25.647583,4.5318604,-3.548584
1768032490775,-0.064453125,-0.40283203,0.8769531,3.4179688,-24.291992,4.0893555,0.0,0.0,0.0,-25.647583,4.5318604,-3.548584
1768032490787,-0.064453125,-0.40283203,0.8769531,3.4179688,-24.291992,4.0893555,0.0,0.0,0.0,-25.213623,3.2354736,-2.312622
1768032490875,-0.05078125,-0.4189453,0.9145508,8.483887,-18.127441,-0.61035156,0.0,0.0,0.0,-25.213623,3.2354736,-2.312622
1768032490887,-0.05078125,-0.4189453,0.9145508,8.483887,-18.127441,-0.61035156,0.0,0.0,0.0,-24.312744,1.4282227,-1.170044
1768032490975,-0.016113281,-0.4165039,0.8847656,5.493164,-9.338379,5.92041,0.0,0.0,0.0,-24.312744,1.4282227,-1.170044
1768032490986,-0.016113281,-0.4165039,0.8847656,5.493164,-9.338379,5.92041,0.0,0.0,0.0,-23.60962,0.63720703,-0.20874023
1768032491074,0.0234375,-0.38378906,0.9296875,3.6621094,-3.2958984,5.3100586,0.0,0.0,0.0,-23.60962,0.63720703,-0.20874023
1768032491086,0.0234375,-0.38378906,0.9296875,3.6621094,-3.2958984,5.3100586,0.0,0.0,0.0,-23.291016,0.42297363,0.4119873
1768032491174,0.0126953125,-0.39257812,0.8925781,7.385254,-0.12207031,0.30517578,0.0,0.0,0.0,-23.291016,0.42297363,0.4119873
1768032491186,0.0126953125,-0.39257812,0.8925781,7.385254,-0.12207031,0.30517578,0.0,0.0,0.0,-22.983398,0.40100098,0.8074951
1768032491274,-0.0048828125,-0.39160156,0.94091797,6.591797,0.91552734,0.12207031,0.0,0.0,0.0,-22.983398,0.40100098,0.8074951
1768032491285,-0.0048828125,-0.39160156,0.94091797,6.591797,0.91552734,0.12207031,0.0,0.0,0.0,-22.39563,0.49438477,0.75805664
1768032491374,-0.009277344,-0.3725586,0.9067383,3.1738281,-0.12207031,0.12207031,0.0,0.0,0.0,-22.39563,0.49438477,0.75805664
1768032491385,-0.009277344,-0.3725586,0.9067383,3.1738281,-0.12207031,0.12207031,0.0,0.0,0.0,-21.994629,0.46691895,0.7525635
1768032491474,-0.013183594,-0.3647461,0.9301758,-0.79345703,1.8920898,-0.24414062,0.0,0.0,0.0,-21.994629,0.46691895,0.7525635
1768032491485,-0.013183594,-0.3647461,0.9301758,-0.79345703,1.8920898,-0.24414062,0.0,0.0,0.0,-21.901245,0.5548096,0.68115234
1768032491573,-0.018066406,-0.3876953,0.91064453,-0.91552734,0.30517578,0.30517578,0.0,0.0,0.0,-21.901245,0.5548096,0.68115234
1768032491585,-0.018066406,-0.3876953,0.91064453,-0.91552734,0.30517578,0.30517578,0.0,0.0,0.0,-22.071533,0.63171387,0.670166
1768032491673,-0.0014648438,-0.40820312,0.9160156,2.1362305,1.0986328,-4.4555664,0.0,0.0,0.0,-22.071533,0.63171387,0.670166
1768032491685,-0.0014648438,-0.40820312,0.9160156,2.1362305,1.0986328,-4.4555664,0.0,0.0,0.0,-21.956177,0.5822754,0.52734375
1768032491773,-0.025390625,-0.35546875,0.9194336,0.30517578,6.958008,-16.296387,0.0,0.0,0.0,-21.956177,0.5822754,0.52734375
1768032491785,-0.025390625,-0.35546875,0.9194336,0.30517578,6.958008,-16.296387,0.0,0.0,0.0,-22.088013,0.5053711,-0.8569336
1768032491872,-0.033203125,-0.34814453,0.9272461,0.4272461,5.004883,-8.728027,0.0,0.0,0.0,-22.088013,0.5053711,-0.8569336
1768032491884,-0.033203125,-0.34814453,0.9272461,0.4272461,5.004883,-8.728027,0.0,0.0,0.0,-22.109985,0.62072754,-2.3730469
1768032491972,-0.024414062,-0.3774414,0.9301758,-1.8310547,-2.746582,-7.019043,0.0,0.0,0.0,-22.109985,0.62072754,-2.3730469
1768032491984,-0.024414062,-0.3774414,0.9301758,-1.8310547,-2.746582,-7.019043,0.0,0.0,0.0,-22.236328,0.4449463,-3.048706
1768032492072,0.0034179688,-0.38085938,0.9038086,-2.0141602,-3.540039,0.6713867,0.0,0.0,0.0,-22.236328,0.4449463,-3.048706
1768032492083,0.0034179688,-0.38085938,0.9038086,-2.0141602,-3.540039,0.6713867,0.0,0.0,0.0,-22.439575,0.021972656,-3.048706
1768032492171,0.015625,-0.4008789,0.91503906,-1.7700195,0.61035156,0.24414062,0.0,0.0,0.0,-22.439575,0.021972656,-3.048706
1768032492183,0.015625,-0.4008789,0.91503906,-1.7700195,0.61035156,0.24414062,0.0,0.0,0.0,-22.582397,-0.010986328,-2.982788
1768032492271,-0.0068359375,-0.40234375,0.9111328,0.7324219,-0.7324219,0.24414062,0.0,0.0,0.0,-22.582397,-0.010986328,-2.982788
1768032492283,-0.0068359375,-0.40234375,0.9111328,0.7324219,-0.7324219,0.24414062,0.0,0.0,0.0,-22.681274,-0.010986328,-2.977295
1768032492371,0.00390625,-0.3959961,0.92626953,-4.211426,-0.061035156,-4.211426,0.0,0.0,0.0,-22.681274,-0.010986328,-2.977295
1768032492382,0.00390625,-0.3959961,0.92626953,-4.211426,-0.061035156,-4.211426,0.0,0.0,0.0,-22.961426,-0.1538086,-3.3673096
1768032492471,-0.0043945312,-0.37841797,0.8901367,-4.9438477,0.0,-2.319336,0.0,0.0,0.0,-22.961426,-0.1538086,-3.3673096
1768032492482,-0.0043945312,-0.37841797,0.8901367,-4.9438477,0.0,-2.319336,0.0,0.0,0.0,-23.417358,-0.40100098,-3.7628174
1768032492570,0.0063476562,-0.43310547,0.92041016,-2.1972656,2.6245117,0.61035156,0.0,0.0,0.0,-23.417358,-0.40100098,-3.7628174
1768032492582,0.0063476562,-0.43310547,0.92041016,-2.1972656,2.6245117,0.61035156,0.0,0.0,0.0,-23.730469,-0.17028809,-3.746338
1768032492670,-0.008300781,-0.4189453,0.9121094,1.4648438,0.24414062,-1.159668,0.0,0.0,0.0,-23.730469,-0.17028809,-3.746338
1768032492682,-0.008300781,-0.4189453,0.9121094,1.4648438,0.24414062,-1.159668,0.0,0.0,0.0,-23.81836,-0.0769043,-3.8342285
1768032492770,-0.03125,-0.4116211,0.93847656,5.1879883,-5.432129,2.5634766,0.0,0.0,0.0,-23.81836,-0.0769043,-3.8342285
1768032492783,-0.03125,-0.4116211,0.93847656,5.1879883,-5.432129,2.5634766,0.0,0.0,0.0,-23.620605,-0.24169922,-3.713379
1768032492870,0.0024414062,-0.390625,0.9160156,0.061035156,-7.019043,7.507324,0.0,0.0,0.0,-23.620605,-0.24169922,-3.713379
1768032492881,0.0024414062,-0.390625,0.9160156,0.061035156,-7.019043,7.507324,0.0,0.0,0.0,-23.329468,-0.51086426,-3.0377197
1768032492969,-0.0063476562,-0.39990234,0.9267578,4.0893555,25.817871,25.6958,0.0,0.0,0.0,-23.329468,-0.51086426,-3.0377197
1768032492981,-0.0063476562,-0.39990234,0.9267578,4.0893555,25.817871,25.6958,0.0,0.0,0.0,-23.197632,0.78552246,-1.8017578
1768032493069,-0.072265625,-0.34765625,0.93408203,4.760742,13.793945,48.095703,0.0,0.0,0.0,-23.197632,0.78552246,-1.8017578
1768032493081,-0.072265625,-0.34765625,0.93408203,4.760742,13.793945,48.095703,0.0,0.0,0.0,-22.988892,3.916626,0.4449463
1768032493169,-0.21044922,-0.3544922,0.90478516,9.399414,-16.296387,67.993164,0.0,0.0,0.0,-22.988892,3.916626,0.4449463
1768032493180,-0.21044922,-0.3544922,0.90478516,9.399414,-16.296387,67.993164,0.0,0.0,0.0,-21.40686,5.6469727,6.201782
1768032493268,-0.1015625,-0.3540039,0.83984375,-20.507812,-16.235352,81.48193,0.0,0.0,0.0,-21.40686,5.6469727,6.201782
1768032493280,-0.1015625,-0.3540039,0.83984375,-20.507812,-16.235352,81.48193,0.0,0.0,0.0,-21.033325,6.762085,14.013062
1768032493368,0.01953125,-0.5908203,0.67285156,-64.39209,-25.146484,26.672363,0.0,0.0,0.0,-21.033325,6.762085,14.013062
1768032493380,0.01953125,-0.5908203,0.67285156,-64.39209,-25.146484,26.672363,0.0,0.0,0.0,-23.950195,7.1411133,20.670776
1768032493468,-0.14892578,-0.5073242,1.1147461,-16.601562,17.822266,-24.658203,0.0,0.0,0.0,-23.950195,7.1411133,20.670776
1768032493479,-0.14892578,-0.5073242,1.1147461,-16.601562,17.822266,-24.658203,0.0,0.0,0.0,-28.756714,6.8170166,19.802856
1768032493568,-0.16113281,-0.49951172,0.7651367,-16.113281,-2.5024414,-17.51709,0.0,0.0,0.0,-28.756714,6.8170166,19.802856
1768032493579,-0.16113281,-0.49951172,0.7651367,-16.113281,-2.5024414,-17.51709,0.0,0.0,0.0,-30.657349,5.8062744,17.380371
1768032493667,-0.0546875,-0.53125,0.82910156,-7.507324,-10.070801,1.953125,0.0,0.0,0.0,-30.657349,5.8062744,17.380371
1768032493679,-0.0546875,-0.53125,0.82910156,-7.507324,-10.070801,1.953125,0.0,0.0,0.0,-32.0636,5.048218,16.567383
1768032493767,-0.088378906,-0.56103516,0.84521484,-8.239746,-3.6621094,-4.8217773,0.0,0.0,0.0,-32.0636,5.048218,16.567383
1768032493779,-0.088378906,-0.56103516,0.84521484,-8.239746,-3.6621094,-4.8217773,0.0,0.0,0.0,-32.88208,4.592285,16.85852
1768032493867,-0.06738281,-0.56396484,0.81396484,-3.7841797,-3.540039,1.4648438,0.0,0.0,0.0,-32.88208,4.592285,16.85852
1768032493878,-0.06738281,-0.56396484,0.81396484,-3.7841797,-3.540039,1.4648438,0.0,0.0,0.0,-33.458862,4.0594482,16.913452
1768032493967,-0.06982422,-0.5751953,0.8144531,2.1362305,-2.380371,-0.7324219,0.0,0.0,0.0,-33.458862,4.0594482,16.913452
1768032493978,-0.06982422,-0.5751953,0.8144531,2.1362305,-2.380371,-0.7324219,0.0,0.0,0.0,-33.568726,3.817749,17.243042
1768032494066,-0.061035156,-0.5625,0.82421875,6.4697266,-2.0141602,-1.953125,0.0,0.0,0.0,-33.568726,3.817749,17.243042
1768032494078,-0.061035156,-0.5625,0.82421875,6.4697266,-2.0141602,-1.953125,0.0,0.0,0.0,-33.21167,3.6639404,17.226562
1768032494166,-0.068359375,-0.5390625,0.8378906,3.6010742,-3.1738281,-0.12207031,0.0,0.0,0.0,-33.21167,3.6639404,17.226562
1768032494178,-0.068359375,-0.5390625,0.8378906,3.6010742,-3.1738281,-0.12207031,0.0,0.0,0.0,-32.711792,3.3892822,17.177124
1768032494266,-0.052246094,-0.54003906,0.8330078,-0.7324219,0.61035156,1.0375977,0.0,0.0,0.0,-32.711792,3.3892822,17.177124
1768032494277,-0.052246094,-0.54003906,0.8330078,-0.7324219,0.61035156,1.0375977,0.0,0.0,0.0,-32.49756,3.1695557,17.435303
1768032494366,-0.05126953,-0.5541992,0.8383789,-3.479004,1.0375977,-1.8310547,0.0,0.0,0.0,-32.49756,3.1695557,17.435303
1768032494377,-0.05126953,-0.5541992,0.8383789,-3.479004,1.0375977,-1.8310547,0.0,0.0,0.0,-32.739258,3.1860352,17.336426
1768032494465,-0.059570312,-0.55029297,0.81689453,-4.4555664,4.5776367,-5.554199,0.0,0.0,0.0,-32.739258,3.1860352,17.336426
1768032494477,-0.059570312,-0.55029297,0.81689453,-4.4555664,4.5776367,-5.554199,0.0,0.0,0.0,-33.200684,3.2189941,16.940918
1768032494565,-0.063964844,-0.56640625,0.82910156,-2.746582,2.380371,0.24414062,0.0,0.0,0.0,-33.200684,3.2189941,16.940918
1768032494577,-0.063964844,-0.56640625,0.82910156,-2.746582,2.380371,0.24414062,0.0,0.0,0.0,-33.5907,3.3673096,16.616821
1768032494665,-0.06738281,-0.5605469,0.82128906,-0.36621094,1.3427734,-0.4272461,0.0,0.0,0.0,-33.5907,3.3673096,16.616821
1768032494676,-0.06738281,-0.5605469,0.82128906,-0.36621094,1.3427734,-0.4272461,0.0,0.0,0.0,-33.706055,3.4606934,16.539917
1768032494764,-0.0546875,-0.56640625,0.8173828,-0.5493164,-0.30517578,0.6713867,0.0,0.0,0.0,-33.706055,3.4606934,16.539917
1768032494776,-0.0546875,-0.56640625,0.8173828,-0.5493164,-0.30517578,0.6713867,0.0,0.0,0.0,-33.815918,3.4661865,16.556396
1768032494864,-0.057617188,-0.5644531,0.82958984,1.5258789,0.061035156,-0.36621094,0.0,0.0,0.0,-33.815918,3.4661865,16.556396
1768032494876,-0.057617188,-0.5644531,0.82958984,1.5258789,0.061035156,-0.36621094,0.0,0.0,0.0,-33.70056,3.4552002,16.44104
1768032494964,-0.06201172,-0.5605469,0.82177734,2.8076172,-0.61035156,-0.7324219,0.0,0.0,0.0,-33.70056,3.4552002,16.44104
1768032494975,-0.06201172,-0.5605469,0.82177734,2.8076172,-0.61035156,-0.7324219,0.0,0.0,0.0,-33.47534,3.3673096,16.446533
1768032495064,-0.05810547,-0.55078125,0.83447266,1.953125,-0.48828125,-1.2817383,0.0,0.0,0.0,-33.47534,3.3673096,16.446533
1768032495075,-0.05810547,-0.55078125,0.83447266,1.953125,-0.48828125,-1.2817383,0.0,0.0,0.0,-33.222656,3.2739258,16.331177
1768032495164,-0.06738281,-0.54296875,0.84033203,-4.1503906,-1.6479492,2.1972656,0.0,0.0,0.0,-33.222656,3.2739258,16.331177
1768032495175,-0.06738281,-0.54296875,0.84033203,-4.1503906,-1.6479492,2.1972656,0.0,0.0,0.0,-33.305054,3.1970215,16.452026
1768032495263,-0.12597656,-0.52490234,0.8383789,-30.029297,1.4038086,9.399414,0.0,0.0,0.0,-33.305054,3.1970215,16.452026
1768032495274,-0.12597656,-0.52490234,0.8383789,-30.029297,1.4038086,9.399414,0.0,0.0,0.0,-35.18921,3.416748,16.776123
1768032495363,-0.05126953,-0.6357422,0.7817383,-26.062012,4.333496,14.892578,0.0,0.0,0.0,-35.18921,3.416748,16.776123
1768032495374,-0.05126953,-0.6357422,0.7817383,-26.062012,4.333496,14.892578,0.0,0.0,0.0,-37.419434,4.9108887,18.215332
1768032495463,-0.067871094,-0.69677734,0.703125,7.385254,22.155762,1.159668,0.0,0.0,0.0,-37.419434,4.9108887,18.215332
1768032495474,-0.067871094,-0.69677734,0.703125,7.385254,22.155762,1.159668,0.0,0.0,0.0,-38.292847,6.536865,17.98462
1768032495562,-0.16894531,-0.6142578,0.8442383,9.094238,2.4414062,-5.3100586,0.0,0.0,0.0,-38.292847,6.536865,17.98462
1768032495574,-0.16894531,-0.6142578,0.8442383,9.094238,2.4414062,-5.3100586,0.0,0.0,0.0,-37.331543,7.157593,16.831055
1768032495662,-0.111328125,-0.55322266,0.7807617,8.422852,-11.71875,1.5869141,0.0,0.0,0.0,-37.331543,7.157593,16.831055
1768032495673,-0.111328125,-0.55322266,0.7807617,8.422852,-11.71875,1.5869141,0.0,0.0,0.0,-36.243896,7.069702,16.715698
1768032495762,-0.14746094,-0.5439453,0.7817383,-16.906738,11.779785,17.822266,0.0,0.0,0.0,-36.243896,7.069702,16.715698
1768032495774,-0.14746094,-0.5439453,0.7817383,-16.906738,11.779785,17.822266,0.0,0.0,0.0,-36.765747,8.514404,17.237549
1768032495861,-0.2133789,-0.62402344,0.77441406,-11.657715,18.737793,13.000488,0.0,0.0,0.0,-36.765747,8.514404,17.237549
1768032495874,-0.2133789,-0.62402344,0.77441406,-11.657715,18.737793,13.000488,0.0,0.0,0.0,-37.996216,10.387573,17.74292
1768032495961,-0.30322266,-0.6176758,0.75634766,-11.108398,38.57422,11.901855,0.0,0.0,0.0,-37.996216,10.387573,17.74292
1768032495973,-0.30322266,-0.6176758,0.75634766,-11.108398,38.57422,11.901855,0.0,0.0,0.0,-39.226685,13.21106,16.831055
1768032496061,-0.35205078,-0.5488281,0.7055664,-14.709473,36.499023,24.536133,0.0,0.0,0.0,-39.226685,13.21106,16.831055
1768032496072,-0.35205078,-0.5488281,0.7055664,-14.709473,36.499023,24.536133,0.0,0.0,0.0,-40.968018,17.479248,15.353394
1768032496161,-0.41552734,-0.78515625,0.6225586,-26.794434,51.696777,34.362793,0.0,0.0,0.0,-40.968018,17.479248,15.353394
1768032496172,-0.41552734,-0.78515625,0.6225586,-26.794434,51.696777,34.362793,0.0,0.0,0.0,-42.352295,23.236084,15.540161
1768032496260,-0.47509766,-0.61035156,0.671875,-20.080566,33.325195,38.57422,0.0,0.0,0.0,-42.352295,23.236084,15.540161
1768032496272,-0.47509766,-0.61035156,0.671875,-20.080566,33.325195,38.57422,0.0,0.0,0.0,-45.604248,28.899536,15.320435
1768032496360,-0.55078125,-0.6040039,0.55078125,-5.554199,17.51709,41.44287,0.0,0.0,0.0,-45.604248,28.899536,15.320435
1768032496372,-0.55078125,-0.6040039,0.55078125,-5.554199,17.51709,41.44287,0.0,0.0,0.0,-45.45044,33.623657,16.655273
1768032496460,-0.6171875,-0.5864258,0.49560547,-11.71875,43.33496,36.56006,0.0,0.0,0.0,-45.45044,33.623657,16.655273
1768032496471,-0.6171875,-0.5864258,0.49560547,-11.71875,43.33496,36.56006,0.0,0.0,0.0,-47.04895,38.655396,17.50122
1768032496560,-0.6855469,-0.5253906,0.50390625,-5.004883,38.81836,23.376465,0.0,0.0,0.0,-47.04895,38.655396,17.50122
1768032496571,-0.6855469,-0.5253906,0.50390625,-5.004883,38.81836,23.376465,0.0,0.0,0.0,-47.054443,42.720337,17.440796
1768032496660,-0.7441406,-0.48339844,0.5410156,-0.24414062,-5.554199,3.8452148,0.0,0.0,0.0,-47.054443,42.720337,17.440796
1768032496671,-0.7441406,-0.48339844,0.5410156,-0.24414062,-5.554199,3.8452148,0.0,0.0,0.0,-45.961304,43.483887,19.033813
1768032496759,-0.73583984,-0.4482422,0.45117188,14.6484375,40.222168,10.314941,0.0,0.0,0.0,-45.961304,43.483887,19.033813
1768032496771,-0.73583984,-0.4482422,0.45117188,14.6484375,40.222168,10.314941,0.0,0.0,0.0,-46.137085,45.093384,17.572632
1768032496859,-0.7006836,-0.49365234,0.42871094,-10.437012,18.310547,-3.6010742,0.0,0.0,0.0,-46.137085,45.093384,17.572632
1768032496871,-0.7006836,-0.49365234,0.42871094,-10.437012,18.310547,-3.6010742,0.0,0.0,0.0,-48.36731,48.07068,13.535156
1768032496959,-0.7524414,-0.49853516,0.4296875,-20.141602,-25.6958,-17.822266,0.0,0.0,0.0,-48.36731,48.07068,13.535156
1768032496970,-0.7524414,-0.49853516,0.4296875,-20.141602,-25.6958,-17.822266,0.0,0.0,0.0,-49.883423,46.257935,13.996582
1768032497058,-0.72509766,-0.5834961,0.40722656,-26.000977,-37.719727,-12.512207,0.0,0.0,0.0,-49.883423,46.257935,13.996582
1768032497070,-0.72509766,-0.5834961,0.40722656,-26.000977,-37.719727,-12.512207,0.0,0.0,0.0,-50.88867,43.3136,15.325928
1768032497158,-0.64990234,-0.6015625,0.4555664,-5.432129,-18.554688,-27.526855,0.0,0.0,0.0,-50.88867,43.3136,15.325928
1768032497170,-0.64990234,-0.6015625,0.4555664,-5.432129,-18.554688,-27.526855,0.0,0.0,0.0,-51.6687,40.51758,17.523193
1768032497258,-0.5649414,-0.6430664,0.49902344,13.000488,-32.226562,-22.644043,0.0,0.0,0.0,-51.6687,40.51758,17.523193
1768032497270,-0.5649414,-0.6430664,0.49902344,13.000488,-32.226562,-22.644043,0.0,0.0,0.0,-51.366577,37.078857,17.347412
1768032497357,-0.36767578,-0.61376953,0.60839844,49.316406,-30.212402,24.230957,0.0,0.0,0.0,-51.366577,37.078857,17.347412
1768032497370,-0.36767578,-0.61376953,0.60839844,49.316406,-30.212402,24.230957,0.0,0.0,0.0,-45.549316,36.5625,19.79187
1768032497457,-0.49853516,-0.5229492,0.63623047,39.30664,-25.512695,29.23584,0.0,0.0,0.0,-45.549316,36.5625,19.79187
1768032497469,-0.49853516,-0.5229492,0.63623047,39.30664,-25.512695,29.23584,0.0,0.0,0.0,-37.419434,36.567993,25.268555
1768032497557,-0.5727539,-0.4921875,0.6533203,-0.79345703,-35.095215,6.8359375,0.0,0.0,0.0,-37.419434,36.567993,25.268555
1768032497569,-0.5727539,-0.4921875,0.6533203,-0.79345703,-35.095215,6.8359375,0.0,0.0,0.0,-33.70056,34.519043,29.124756
1768032497657,-0.41015625,-0.4897461,0.6875,-13.85498,-29.11377,-19.77539,0.0,0.0,0.0,-33.70056,34.519043,29.124756
1768032497668,-0.41015625,-0.4897461,0.6875,-13.85498,-29.11377,-19.77539,0.0,0.0,0.0,-33.755493,31.827393,30.81665
1768032497756,-0.55126953,-0.49414062,0.85302734,-14.038086,-51.26953,-38.33008,0.0,0.0,0.0,-33.755493,31.827393,30.81665
1768032497768,-0.55126953,-0.49414062,0.85302734,-14.038086,-51.26953,-38.33008,0.0,0.0,0.0,-35.10681,26.63086,29.976196
1768032497856,-0.35888672,-0.5185547,0.69384766,-8.544922,27.404785,-28.076172,0.0,0.0,0.0,-35.10681,26.63086,29.976196
1768032497868,-0.35888672,-0.5185547,0.69384766,-8.544922,27.404785,-28.076172,0.0,0.0,0.0,-36.436157,23.016357,28.504028
1768032497956,-0.30419922,-0.5830078,0.765625,-5.79834,-64.39209,-25.08545,0.0,0.0,0.0,-36.436157,23.016357,28.504028
1768032497967,-0.30419922,-0.5830078,0.765625,-5.79834,-64.39209,-25.08545,0.0,0.0,0.0,-38.204956,21.84082,25.50476
1768032498056,-0.13964844,-0.58496094,0.66064453,10.070801,-78.430176,-4.5776367,0.0,0.0,0.0,-38.204956,21.84082,25.50476
1768032498067,-0.13964844,-0.58496094,0.66064453,10.070801,-78.430176,-4.5776367,0.0,0.0,0.0,-35.4364,11.35437,31.217651
1768032498155,-0.07714844,-0.58251953,0.80908203,7.019043,-20.324707,-7.1411133,0.0,0.0,0.0,-35.4364,11.35437,31.217651
1768032498167,-0.07714844,-0.58251953,0.80908203,7.019043,-20.324707,-7.1411133,0.0,0.0,0.0,-34.519043,8.179321,32.68982
1768032498255,-0.06933594,-0.546875,0.8095703,13.793945,-6.225586,-5.493164,0.0,0.0,0.0,-34.519043,8.179321,32.68982
1768032498267,-0.06933594,-0.546875,0.8095703,13.793945,-6.225586,-5.493164,0.0,0.0,0.0,-33.618164,6.602783,33.112793
1768032498355,-0.1015625,-0.5209961,0.8496094,6.8359375,-0.6713867,0.0,0.0,0.0,0.0,-33.618164,6.602783,33.112793
1768032498366,-0.1015625,-0.5209961,0.8496094,6.8359375,-0.6713867,0.0,0.0,0.0,0.0,-32.58545,6.2512207,32.964478
1768032498454,-0.09423828,-0.5209961,0.84033203,1.4038086,-2.8686523,3.90625,0.0,0.0,0.0,-32.58545,6.2512207,32.964478
1768032498466,-0.09423828,-0.5209961,0.84033203,1.4038086,-2.8686523,3.90625,0.0,0.0,0.0,-32.140503,6.1523438,33.305054
1768032498554,-0.1381836,-0.5292969,0.85498047,-7.2021484,-0.8544922,13.73291,0.0,0.0,0.0,-32.140503,6.1523438,33.305054
1768032498566,-0.1381836,-0.5292969,0.85498047,-7.2021484,-0.8544922,13.73291,0.0,0.0,0.0,-32.217407,6.427002,34.00818
1768032498654,-0.1484375,-0.55810547,0.89404297,-30.029297,15.74707,36.68213,0.0,0.0,0.0,-32.217407,6.427002,34.00818
1768032498665,-0.1484375,-0.55810547,0.89404297,-30.029297,15.74707,36.68213,0.0,0.0,0.0,-33.579712,7.9486084,35.529785
1768032498754,-0.15820312,-0.60253906,1.0932617,57.617188,-95.27588,108.03223,0.0,0.0,0.0,-33.579712,7.9486084,35.529785
1768032498765,-0.15820312,-0.60253906,1.0932617,57.617188,-95.27588,108.03223,0.0,0.0,0.0,-33.52478,8.953857,42.13257
1768032498854,0.0043945312,-0.2055664,0.8154297,-25.32959,-76.171875,100.28076,0.0,0.0,0.0,-33.52478,8.953857,42.13257
1768032498865,0.0043945312,-0.2055664,0.8154297,-25.32959,-76.171875,100.28076,0.0,0.0,0.0,-25.999146,5.454712,56.870728
1768032498953,0.2709961,-0.6816406,0.64941406,-33.02002,-184.99756,-20.385742,0.0,0.0,0.0,-25.999146,5.454712,56.870728
1768032498965,0.2709961,-0.6816406,0.64941406,-33.02002,-184.99756,-20.385742,0.0,0.0,0.0,-31.558228,-5.7073975,70.510254
1768032499053,0.25146484,-0.39404297,0.6533203,-19.470215,-132.38525,-80.50537,0.0,0.0,0.0,-31.558228,-5.7073975,70.510254
1768032499064,0.25146484,-0.39404297,0.6533203,-19.470215,-132.38525,-80.50537,0.0,0.0,0.0,-33.826904,-20.01709,73.899536
1768032499153,0.3305664,-0.3623047,0.52001953,3.112793,-133.36182,-88.50098,0.0,0.0,0.0,-33.826904,-20.01709,73.899536
1768032499164,0.3305664,-0.3623047,0.52001953,3.112793,-133.36182,-88.50098,0.0,0.0,0.0,-35.41992,-34.88159,73.34473
1768032499252,0.27246094,-0.49072266,0.30615234,-7.3242188,173.27881,84.16748,0.0,0.0,0.0,-35.41992,-34.88159,73.34473
1768032499264,0.27246094,-0.49072266,0.30615234,-7.3242188,173.27881,84.16748,0.0,0.0,0.0,-35.79895,-26.669312,72.04834
1768032499352,-0.060546875,-1.21875,1.9736328,208.06885,244.68994,61.645508,0.0,0.0,0.0,-35.79895,-26.669312,72.04834
1768032499364,-0.060546875,-1.21875,1.9736328,208.06885,244.68994,61.645508,0.0,0.0,0.0,-33.79944,1.3787842,66.68701
1768032499452,0.171875,-0.2602539,0.53808594,45.776367,7.080078,99.12109,0.0,0.0,0.0,-33.79944,1.3787842,66.68701
1768032499464,0.171875,-0.2602539,0.53808594,45.776367,7.080078,99.12109,0.0,0.0,0.0,-23.90625,-2.1807861,61.75415
1768032499551,-0.08105469,-0.8100586,0.56689453,-118.896484,59.692383,-39.733887,0.0,0.0,0.0,-23.90625,-2.1807861,61.75415
1768032499563,-0.08105469,-0.8100586,0.56689453,-118.896484,59.692383,-39.733887,0.0,0.0,0.0,-33.233643,2.9223633,62.841797
1768032499651,-0.26171875,-0.6513672,1.0253906,-68.42041,12.023926,-22.766113,0.0,0.0,0.0,-33.233643,2.9223633,62.841797
1768032499663,-0.26171875,-0.6513672,1.0253906,-68.42041,12.023926,-22.766113,0.0,0.0,0.0,-41.87439,4.1967773,56.348877
1768032499751,0.10107422,-0.8964844,0.46533203,-69.64111,37.841797,22.888184,0.0,0.0,0.0,-41.87439,4.1967773,56.348877
1768032499762,0.10107422,-0.8964844,0.46533203,-69.64111,37.841797,22.888184,0.0,0.0,0.0,-49.0979,5.2349854,57.474976
1768032499851,-0.33203125,-0.4506836,1.0273438,42.3584,120.910645,34.91211,0.0,0.0,0.0,-49.0979,5.2349854,57.474976
1768032499862,-0.33203125,-0.4506836,1.0273438,42.3584,120.910645,34.91211,0.0,0.0,0.0,-48.548584,12.293701,47.807007
1768032499950,-0.4189453,-0.7836914,0.5625,84.04541,98.87695,105.83496,0.0,0.0,0.0,-48.548584,12.293701,47.807007
1768032499962,-0.4189453,-0.7836914,0.5625,84.04541,98.87695,105.83496,0.0,0.0,0.0,-45.983276,24.158936,39.94629
1768032500050,-0.67333984,-0.90283203,0.34228516,8.544922,134.76562,55.96924,0.0,0.0,0.0,-45.983276,24.158936,39.94629
1768032500062,-0.67333984,-0.90283203,0.34228516,8.544922,134.76562,55.96924,0.0,0.0,0.0,-44.423218,35.930786,35.787964
1768032500150,-0.3203125,-0.2524414,0.015136719,7.507324,50.231934,-128.2959,0.0,0.0,0.0,-44.423218,35.930786,35.787964
1768032500161,-0.3203125,-0.2524414,0.015136719,7.507324,50.231934,-128.2959,0.0,0.0,0.0,-47.889404,39.331055,23.274536
1768032500250,-1.1469727,-0.27001953,0.4140625,-50.41504,14.160156,-46.081543,0.0,0.0,0.0,-47.889404,39.331055,23.274536
1768032500261,-1.1469727,-0.27001953,0.4140625,-50.41504,14.160156,-46.081543,0.0,0.0,0.0,-55.942383,40.045166,6.9158936
1768032500349,-0.70214844,-0.26757812,0.6035156,-24.414062,-13.48877,77.697754,0.0,0.0,0.0,-55.942383,40.045166,6.9158936
1768032500361,-0.70214844,-0.26757812,0.6035156,-24.414062,-13.48877,77.697754,0.0,0.0,0.0,-61.24878,40.896606,5.8831787
1768032500449,-0.6635742,-0.63134766,0.39111328,22.216797,-64.27002,25.634766,0.0,0.0,0.0,-61.24878,40.896606,5.8831787
1768032500461,-0.6635742,-0.63134766,0.39111328,22.216797,-64.27002,25.634766,0.0,0.0,0.0,-55.18982,43.720093,14.348145
1768032500549,-1.0522461,-0.68359375,0.13330078,-90.026855,23.31543,10.986328,0.0,0.0,0.0,-55.18982,43.720093,14.348145
1768032500560,-1.0522461,-0.68359375,0.13330078,-90.026855,23.31543,10.986328,0.0,0.0,0.0,-56.211548,42.072144,18.737183
1768032500649,-0.8408203,-0.61279297,0.21044922,203.55225,47.180176,-5.3100586,0.0,0.0,0.0,-56.211548,42.072144,18.737183
1768032500660,-0.8408203,-0.61279297,0.21044922,203.55225,47.180176,-5.3100586,0.0,0.0,0.0,-53.563843,44.41223,13.3758545
1768032500748,-0.58935547,-0.33251953,0.359375,66.04004,90.88135,11.352539,0.0,0.0,0.0,-53.563843,44.41223,13.3758545
1768032500760,-0.58935547,-0.33251953,0.359375,66.04004,90.88135,11.352539,0.0,0.0,0.0,-50.08667,50.751343,6.026001
1768032500848,-0.71435547,-0.23242188,0.5908203,72.44873,88.68408,23.19336,0.0,0.0,0.0,-50.08667,50.751343,6.026001
1768032500860,-0.71435547,-0.23242188,0.5908203,72.44873,88.68408,23.19336,0.0,0.0,0.0,-52.338867,57.771606,-4.65271
1768032500948,-0.88720703,-0.2211914,0.57128906,131.28662,-6.713867,66.52832,0.0,0.0,0.0,-52.338867,57.771606,-4.65271
1768032500959,-0.88720703,-0.2211914,0.57128906,131.28662,-6.713867,66.52832,0.0,0.0,0.0,-39.572754,62.70996,-4.224243
1768032501047,-1.0029297,-0.4711914,0.21240234,36.8042,91.97998,102.11182,0.0,0.0,0.0,-39.572754,62.70996,-4.224243
1768032501059,-1.0029297,-0.4711914,0.21240234,36.8042,91.97998,102.11182,0.0,0.0,0.0,-33.030396,71.50452,3.5266113
1768032501147,-1.234375,-0.08251953,-0.0053710938,40.34424,58.044434,-14.6484375,0.0,0.0,0.0,-33.030396,71.50452,3.5266113
1768032501159,-1.234375,-0.08251953,-0.0053710938,40.34424,58.044434,-14.6484375,0.0,0.0,0.0,-26.867065,79.661865,9.129639
1768032501247,-1.0551758,0.07080078,-0.005859375,26.184082,6.164551,-21.54541,0.0,0.0,0.0,-26.867065,79.661865,9.129639
1768032501258,-1.0551758,0.07080078,-0.005859375,26.184082,6.164551,-21.54541,0.0,0.0,0.0,-36.870117,78.480835,-9.206543
1768032501347,-0.9589844,0.04296875,-0.23388672,-0.91552734,48.88916,-64.94141,0.0,0.0,0.0,-36.870117,78.480835,-9.206543
1768032501358,-0.9589844,0.04296875,-0.23388672,-0.91552734,48.88916,-64.94141,0.0,0.0,0.0,-64.81384,77.20093,-39.067383
1768032501446,-1.1430664,-0.63378906,-0.016113281,59.2041,78.063965,-161.6211,0.0,0.0,0.0,-64.81384,77.20093,-39.067383
1768032501458,-1.1430664,-0.63378906,-0.016113281,59.2041,78.063965,-161.6211,0.0,0.0,0.0,-92.69165,70.718994,-65.95093
1768032501546,-0.47314453,-0.5053711,0.1665039,-111.38916,16.967773,-286.19385,0.0,0.0,0.0,-92.69165,70.718994,-65.95093
1768032501558,-0.47314453,-0.5053711,0.1665039,-111.38916,16.967773,-286.19385,0.0,0.0,0.0,-97.90466,46.296387,-74.48181
1768032501646,-0.36523438,-0.40283203,0.0703125,39.733887,-6.591797,-192.81006,0.0,0.0,0.0,-97.90466,46.296387,-74.48181
1768032501658,-0.36523438,-0.40283203,0.0703125,39.733887,-6.591797,-192.81006,0.0,0.0,0.0,-94.09241,24.23584,-74.13025
1768032501746,-0.3540039,-0.84277344,-0.22998047,51.208496,12.634277,135.55908,0.0,0.0,0.0,-94.09241,24.23584,-74.13025
1768032501757,-0.3540039,-0.84277344,-0.22998047,51.208496,12.634277,135.55908,0.0,0.0,0.0,-86.07788,26.51001,-74.608154
1768032501845,-0.90966797,-1.059082,-0.39746094,-60.791016,136.41357,-39.245605,0.0,0.0,0.0,-86.07788,26.51001,-74.608154
1768032501857,-0.90966797,-1.059082,-0.39746094,-60.791016,136.41357,-39.245605,0.0,0.0,0.0,-95.84473,35.10132,-88.69812
1768032501945,-0.4423828,-0.4423828,0.15283203,25.024414,54.138184,14.526367,0.0,0.0,0.0,-95.84473,35.10132,-88.69812
1768032501957,-0.4423828,-0.4423828,0.15283203,25.024414,54.138184,14.526367,0.0,0.0,0.0,-102.00806,32.173462,-105.46875
1768032502045,-0.64990234,-1.1459961,-0.5307617,1.5869141,5.859375,-57.617188,0.0,0.0,0.0,-102.00806,32.173462,-105.46875
1768032502056,-0.64990234,-1.1459961,-0.5307617,1.5869141,5.859375,-57.617188,0.0,0.0,0.0,-98.618774,30.778198,-110.59387
1768032502145,-0.33935547,-0.8076172,-0.16357422,41.07666,18.981934,-54.016113,0.0,0.0,0.0,-98.618774,30.778198,-110.59387
1768032502156,-0.33935547,-0.8076172,-0.16357422,41.07666,18.981934,-54.016113,0.0,0.0,0.0,-95.81726,25.85083,-116.553955
1768032502244,-0.27978516,-0.75439453,-0.171875,30.334473,-18.005371,-26.062012,0.0,0.0,0.0,-95.81726,25.85083,-116.553955
1768032502256,-0.27978516,-0.75439453,-0.171875,30.334473,-18.005371,-26.062012,0.0,0.0,0.0,-90.57678,19.522705,-118.59192
1768032502344,-0.21289062,-0.9121094,-0.03125,39.855957,-10.620117,-31.25,0.0,0.0,0.0,-90.57678,19.522705,-118.59192
1768032502355,-0.21289062,-0.9121094,-0.03125,39.855957,-10.620117,-31.25,0.0,0.0,0.0,-87.3468,16.677246,-121.53076
1768032502444,-0.20703125,-1.0004883,-0.07861328,25.939941,-4.333496,-27.648926,0.0,0.0,0.0,-87.3468,16.677246,-121.53076
1768032502455,-0.20703125,-1.0004883,-0.07861328,25.939941,-4.333496,-27.648926,0.0,0.0,0.0,-84.27612,13.991089,-124.2334
1768032502543,-0.16894531,-0.984375,0.12792969,36.68213,-1.4038086,-25.756836,0.0,0.0,0.0,-84.27612,13.991089,-124.2334
1768032502555,-0.16894531,-0.984375,0.12792969,36.68213,-1.4038086,-25.756836,0.0,0.0,0.0,-81.22742,11.464233,-127.45239
1768032502643,0.0063476562,-1.0131836,0.33203125,111.26709,-5.126953,-30.273438,0.0,0.0,0.0,-81.22742,11.464233,-127.45239
1768032502655,0.0063476562,-1.0131836,0.33203125,111.26709,-5.126953,-30.273438,0.0,0.0,0.0,-73.80615,8.876953,-130.3363
1768032502743,-0.013183594,-0.9536133,0.3618164,-27.648926,-49.560547,22.766113,0.0,0.0,0.0,-73.80615,8.876953,-130.3363
1768032502754,-0.013183594,-0.9536133,0.3618164,-27.648926,-49.560547,22.766113,0.0,0.0,0.0,-71.81213,7.492676,-131.98975
1768032502843,-0.3149414,-0.9375,0.08496094,-21.54541,-51.086426,31.188965,0.0,0.0,0.0,-71.81213,7.492676,-131.98975
1768032502854,-0.3149414,-0.9375,0.08496094,-21.54541,-51.086426,31.188965,0.0,0.0,0.0,-74.30054,8.442993,-127.6886
1768032502942,-0.14746094,-0.94384766,0.14990234,-25.939941,-13.48877,14.709473,0.0,0.0,0.0,-74.30054,8.442993,-127.6886
1768032502954,-0.14746094,-0.94384766,0.14990234,-25.939941,-13.48877,14.709473,0.0,0.0,0.0,-76.986694,10.404053,-126.31531
1768032503042,-0.14160156,-0.9145508,0.18457031,-6.4697266,3.7231445,-14.221191,0.0,0.0,0.0,-76.986694,10.404053,-126.31531
1768032503053,-0.14160156,-0.9145508,0.18457031,-6.4697266,3.7231445,-14.221191,0.0,0.0,0.0,-78.50281,10.491943,-127.9303
1768032503142,-0.08496094,-0.94970703,0.111328125,-19.714355,15.319824,-7.446289,0.0,0.0,0.0,-78.50281,10.491943,-127.9303
1768032503153,-0.08496094,-0.94970703,0.111328125,-19.714355,15.319824,-7.446289,0.0,0.0,0.0,-79.45862,9.168091,-131.40198
1768032503241,-0.08105469,-1.0131836,0.11328125,-29.052734,28.747559,0.4272461,0.0,0.0,0.0,-79.45862,9.168091,-131.40198
1768032503254,-0.08105469,-1.0131836,0.11328125,-29.052734,28.747559,0.4272461,0.0,0.0,0.0,-82.8479,9.591064,-134.61548
1768032503341,-0.10839844,-0.97314453,0.048339844,-50.65918,17.39502,11.413574,0.0,0.0,0.0,-82.8479,9.591064,-134.61548
1768032503353,-0.10839844,-0.97314453,0.048339844,-50.65918,17.39502,11.413574,0.0,0.0,0.0,-87.231445,9.926147,-138.87817
1768032503441,-0.125,-0.9765625,-0.083496094,-57.373047,19.348145,17.211914,0.0,0.0,0.0,-87.231445,9.926147,-138.87817
1768032503452,-0.125,-0.9765625,-0.083496094,-57.373047,19.348145,17.211914,0.0,0.0,0.0,-92.614746,11.14563,-142.61902
1768032503541,-0.25976562,-0.9736328,-0.20263672,-47.668457,24.230957,13.793945,0.0,0.0,0.0,-92.614746,11.14563,-142.61902
1768032503552,-0.25976562,-0.9736328,-0.20263672,-47.668457,24.230957,13.793945,0.0,0.0,0.0,-98.393555,12.211304,-147.07947
1768032503640,-0.21777344,-0.9345703,-0.24951172,-32.836914,3.3569336,22.338867,0.0,0.0,0.0,-98.393555,12.211304,-147.07947
1768032503652,-0.21777344,-0.9345703,-0.24951172,-32.836914,3.3569336,22.338867,0.0,0.0,0.0,-102.56836,13.606567,-150.36987
1768032503740,-0.21533203,-0.8955078,-0.30810547,-39.55078,-5.2490234,38.024902,0.0,0.0,0.0,-102.56836,13.606567,-150.36987
1768032503752,-0.21533203,-0.8955078,-0.30810547,-39.55078,-5.2490234,38.024902,0.0,0.0,0.0,-106.06201,16.237793,-152.7649
1768032503840,-0.32373047,-0.86865234,-0.41503906,-42.72461,-2.9907227,25.32959,0.0,0.0,0.0,-106.06201,16.237793,-152.7649
1768032503851,-0.32373047,-0.86865234,-0.41503906,-42.72461,-2.9907227,25.32959,0.0,0.0,0.0,-111.395874,19.561157,-154.5282
1768032503940,-0.24121094,-0.89697266,-0.47070312,-10.070801,4.760742,8.850098,0.0,0.0,0.0,-111.395874,19.561157,-154.5282
1768032503951,-0.24121094,-0.89697266,-0.47070312,-10.070801,4.760742,8.850098,0.0,0.0,0.0,-113.07129,19.77539,-157.18689
1768032504039,-0.33251953,-0.8408203,-0.42285156,-3.9672852,-5.7373047,10.070801,0.0,0.0,0.0,-113.07129,19.77539,-157.18689
1768032504051,-0.33251953,-0.8408203,-0.42285156,-3.9672852,-5.7373047,10.070801,0.0,0.0,0.0,-113.75244,20.429077,-158.63708
1768032504139,-0.38378906,-0.85058594,-0.3935547,-2.4414062,0.36621094,0.0,0.0,0.0,0.0,-113.75244,20.429077,-158.63708
1768032504151,-0.38378906,-0.85058594,-0.3935547,-2.4414062,0.36621094,0.0,0.0,0.0,0.0,-114.16992,20.950928,-159.88403
1768032504239,-0.31347656,-0.84765625,-0.4189453,3.3569336,2.319336,-1.7089844,0.0,0.0,0.0,-114.16992,20.950928,-159.88403
1768032504250,-0.31347656,-0.84765625,-0.4189453,3.3569336,2.319336,-1.7089844,0.0,0.0,0.0,-114.01062,20.456543,-161.34521
1768032504339,-0.3491211,-0.8496094,-0.4169922,-0.4272461,-3.9672852,-1.0375977,0.0,0.0,0.0,-114.01062,20.456543,-161.34521
1768032504350,-0.3491211,-0.8496094,-0.4169922,-0.4272461,-3.9672852,-1.0375977,0.0,0.0,0.0,-113.80188,20.456543,-162.13623
1768032504438,-0.33935547,-0.8417969,-0.42089844,-4.5166016,0.9765625,2.4414062,0.0,0.0,0.0,-113.80188,20.456543,-162.13623
1768032504450,-0.33935547,-0.8417969,-0.42089844,-4.5166016,0.9765625,2.4414062,0.0,0.0,0.0,-114.25232,20.440063,-163.22937
1768032504538,-0.32910156,-0.84716797,-0.41210938,2.0751953,-4.0283203,-0.30517578,0.0,0.0,0.0,-114.25232,20.440063,-163.22937
1768032504550,-0.32910156,-0.84716797,-0.41210938,2.0751953,-4.0283203,-0.30517578,0.0,0.0,0.0,-114.32373,20.632324,-164.0863
1768032504638,-0.35058594,-0.84716797,-0.41210938,2.6855469,-1.5869141,0.48828125,0.0,0.0,0.0,-114.32373,20.632324,-164.0863
1768032504649,-0.35058594,-0.84716797,-0.41210938,2.6855469,-1.5869141,0.48828125,0.0,0.0,0.0,-113.90625,20.533447,-164.64111
1768032504737,-0.3569336,-0.8540039,-0.41796875,-2.6855469,0.061035156,0.61035156,0.0,0.0,0.0,-113.90625,20.533447,-164.64111
1768032504749,-0.3569336,-0.8540039,-0.41796875,-2.6855469,0.061035156,0.61035156,0.0,0.0,0.0,-114.02161,20.714722,-165.43762
1768032504837,-0.3491211,-0.8457031,-0.4189453,-4.0283203,1.8920898,-0.61035156,0.0,0.0,0.0,-114.02161,20.714722,-165.43762
1768032504849,-0.3491211,-0.8457031,-0.4189453,-4.0283203,1.8920898,-0.61035156,0.0,0.0,0.0,-114.537964,20.670776,-166.40991
1768032504937,-0.3383789,-0.84521484,-0.4165039,-1.953125,1.5258789,-0.8544922,0.0,0.0,0.0,-114.537964,20.670776,-166.40991
1768032504948,-0.3383789,-0.84521484,-0.4165039,-1.953125,1.5258789,-0.8544922,0.0,0.0,0.0,-114.81262,20.385132,-167.27234
1768032505037,-0.34228516,-0.83984375,-0.4267578,-2.9296875,2.4414062,-0.7324219,0.0,0.0,0.0,-114.81262,20.385132,-167.27234
1768032505048,-0.34228516,-0.83984375,-0.4267578,-2.9296875,2.4414062,-0.7324219,0.0,0.0,0.0,-115.24658,20.231323,-168.15125
1768032505136,-0.33447266,-0.8413086,-0.4248047,-1.159668,3.2348633,-2.1972656,0.0,0.0,0.0,-115.24658,20.231323,-168.15125
1768032505148,-0.33447266,-0.8413086,-0.4248047,-1.159668,3.2348633,-2.1972656,0.0,0.0,0.0,-115.581665,19.967651,-169.01367
1768032505236,-0.32373047,-0.83203125,-0.4321289,-1.8310547,1.7700195,-0.18310547,0.0,0.0,0.0,-115.581665,19.967651,-169.01367
1768032505248,-0.32373047,-0.83203125,-0.4321289,-1.8310547,1.7700195,-0.18310547,0.0,0.0,0.0,-115.8728,19.731445,-169.82666
1768032505336,-0.3310547,-0.8417969,-0.43701172,-1.4038086,-0.12207031,0.9765625,0.0,0.0,0.0,-115.8728,19.731445,-169.82666
1768032505347,-0.3310547,-0.8417969,-0.43701172,-1.4038086,-0.12207031,0.9765625,0.0,0.0,0.0,-116.103516,19.720459,-170.50781
1768032505436,-0.3330078,-0.83496094,-0.44091797,-1.5869141,-0.12207031,0.061035156,0.0,0.0,0.0,-116.103516,19.720459,-170.50781
1768032505447,-0.3330078,-0.83496094,-0.44091797,-1.5869141,-0.12207031,0.061035156,0.0,0.0,0.0,-116.378174,19.709473,-171.13403
1768032505535,-0.31884766,-0.8364258,-0.43847656,-1.8310547,0.48828125,-0.91552734,0.0,0.0,0.0,-116.378174,19.709473,-171.13403
1768032505547,-0.31884766,-0.8364258,-0.43847656,-1.8310547,0.48828125,-0.91552734,0.0,0.0,0.0,-116.60339,19.56665,-171.7218
1768032505635,-0.3330078,-0.8334961,-0.4428711,-0.36621094,-0.61035156,-1.4038086,0.0,0.0,0.0,-116.60339,19.56665,-171.7218
1768032505646,-0.3330078,-0.8334961,-0.4428711,-0.36621094,-0.61035156,-1.4038086,0.0,0.0,0.0,-116.7572,19.423828,-172.15027
1768032505735,-0.33007812,-0.8334961,-0.44726562,1.2207031,-0.61035156,-0.7324219,0.0,0.0,0.0,-116.7572,19.423828,-172.15027
1768032505746,-0.33007812,-0.8334961,-0.44726562,1.2207031,-0.61035156,-0.7324219,0.0,0.0,0.0,-116.71326,19.324951,-172.51282
1768032505835,-0.31933594,-0.83984375,-0.44384766,2.6855469,-0.4272461,-2.8686523,0.0,0.0,0.0,-116.71326,19.324951,-172.51282
1768032505846,-0.31933594,-0.83984375,-0.44384766,2.6855469,-0.4272461,-2.8686523,0.0,0.0,0.0,-116.58142,19.154663,-172.89185
1768032505934,-0.3251953,-0.84277344,-0.44140625,2.0141602,0.12207031,-0.91552734,0.0,0.0,0.0,-116.58142,19.154663,-172.89185
1768032505946,-0.3251953,-0.84277344,-0.44140625,2.0141602,0.12207031,-0.91552734,0.0,0.0,0.0,-116.345215,18.962402,-173.29834
1768032506034,-0.3154297,-0.8466797,-0.43701172,2.6855469,-0.4272461,-2.1972656,0.0,0.0,0.0,-116.345215,18.962402,-173.29834
1768032506046,-0.3154297,-0.8466797,-0.43701172,2.6855469,-0.4272461,-2.1972656,0.0,0.0,0.0,-116.18591,18.81958,-173.61145
1768032506134,-0.3149414,-0.8540039,-0.4296875,2.8076172,0.0,-2.0141602,0.0,0.0,0.0,-116.18591,18.81958,-173.61145
1768032506145,-0.3149414,-0.8540039,-0.4296875,2.8076172,0.0,-2.0141602,0.0,0.0,0.0,-115.927734,18.621826,-173.86414
1768032506233,-0.31103516,-0.8510742,-0.42773438,2.746582,0.18310547,-0.8544922,0.0,0.0,0.0,-115.927734,18.621826,-173.86414
1768032506245,-0.31103516,-0.8510742,-0.42773438,2.746582,0.18310547,-0.8544922,0.0,0.0,0.0,-115.718994,18.468018,-174.1333
1768032506333,-0.30322266,-0.8515625,-0.41455078,3.0517578,0.12207031,-1.0375977,0.0,0.0,0.0,-115.718994,18.468018,-174.1333
1768032506345,-0.30322266,-0.8515625,-0.41455078,3.0517578,0.12207031,-1.0375977,0.0,0.0,0.0,-115.49927,18.347168,-174.44641
1768032506433,-0.31982422,-0.8623047,-0.43408203,2.746582,0.18310547,-2.8686523,0.0,0.0,0.0,-115.49927,18.347168,-174.44641
1768032506445,-0.31982422,-0.8623047,-0.43408203,2.746582,0.18310547,-2.8686523,0.0,0.0,0.0,-115.24658,18.308716,-174.68262
1768032506533,-0.3076172,-0.859375,-0.40527344,3.6621094,-0.24414062,-4.0283203,0.0,0.0,0.0,-115.24658,18.308716,-174.68262
1768032506544,-0.3076172,-0.859375,-0.40527344,3.6621094,-0.24414062,-4.0283203,0.0,0.0,0.0,-114.85657,17.929688,-174.7815
1768032506632,-0.30029297,-0.8666992,-0.40283203,2.5024414,0.61035156,-3.7231445,0.0,0.0,0.0,-114.85657,17.929688,-174.7815
1768032506644,-0.30029297,-0.8666992,-0.40283203,2.5024414,0.61035156,-3.7231445,0.0,0.0,0.0,-114.54346,17.5177,-174.88586
1768032506732,-0.28955078,-0.8671875,-0.4033203,2.1972656,0.61035156,-2.8686523,0.0,0.0,0.0,-114.54346,17.5177,-174.88586
1768032506744,-0.28955078,-0.8671875,-0.4033203,2.1972656,0.61035156,-2.8686523,0.0,0.0,0.0,-114.37866,17.210083,-175.07263
1768032506832,-0.28808594,-0.8666992,-0.40625,1.0375977,0.7324219,-2.746582,0.0,0.0,0.0,-114.37866,17.210083,-175.07263
1768032506843,-0.28808594,-0.8666992,-0.40625,1.0375977,0.7324219,-2.746582,0.0,0.0,0.0,-114.23584,16.896973,-175.23743
1768032506932,-0.2783203,-0.8676758,-0.3955078,-2.0141602,0.061035156,-0.36621094,0.0,0.0,0.0,-114.23584,16.896973,-175.23743
1768032506943,-0.2783203,-0.8676758,-0.3955078,-2.0141602,0.061035156,-0.36621094,0.0,0.0,0.0,-114.21387,16.693726,-175.44067
1768032507031,-0.2890625,-0.8671875,-0.40722656,-1.953125,-0.061035156,0.24414062,0.0,0.0,0.0,-114.21387,16.693726,-175.44067
1768032507043,-0.2890625,-0.8671875,-0.40722656,-1.953125,-0.061035156,0.24414062,0.0,0.0,0.0,-114.37317,16.660767,-175.64941
1768032507131,-0.2836914,-0.8691406,-0.40673828,-1.0986328,0.0,0.8544922,0.0,0.0,0.0,-114.37317,16.660767,-175.64941
1768032507143,-0.2836914,-0.8691406,-0.40673828,-1.0986328,0.0,0.8544922,0.0,0.0,0.0,-114.53247,16.660767,-175.89111
1768032507231,-0.28564453,-0.8696289,-0.40673828,-2.4414062,-0.6713867,2.1362305,0.0,0.0,0.0,-114.53247,16.660767,-175.89111
1768032507242,-0.28564453,-0.8696289,-0.40673828,-2.4414062,-0.6713867,2.1362305,0.0,0.0,0.0,-114.65332,16.75415,-176.13281
1768032507330,-0.29785156,-0.8701172,-0.4194336,-3.2348633,0.48828125,0.61035156,0.0,0.0,0.0,-114.65332,16.75415,-176.13281
1768032507342,-0.29785156,-0.8701172,-0.4194336,-3.2348633,0.48828125,0.61035156,0.0,0.0,0.0,-115.010376,16.935425,-176.35803
1768032507430,-0.28759766,-0.8647461,-0.41357422,-2.1362305,1.159668,-0.12207031,0.0,0.0,0.0,-115.010376,16.935425,-176.35803
1768032507442,-0.28759766,-0.8647461,-0.41357422,-2.1362305,1.159668,-0.12207031,0.0,0.0,0.0,-115.20264,16.825562,-176.63269
1768032507530,-0.2890625,-0.86816406,-0.42285156,-3.6621094,1.0375977,0.5493164,0.0,0.0,0.0,-115.20264,16.825562,-176.63269
1768032507541,-0.2890625,-0.86816406,-0.42285156,-3.6621094,1.0375977,0.5493164,0.0,0.0,0.0,-115.4718,16.748657,-176.92383
1768032507630,-0.2919922,-0.8725586,-0.42529297,-4.0283203,2.6855469,-0.8544922,0.0,0.0,0.0,-115.4718,16.748657,-176.92383
1768032507641,-0.2919922,-0.8725586,-0.42529297,-4.0283203,2.6855469,-0.8544922,0.0,0.0,0.0,-115.90027,16.616821,-177.21497
1768032507729,-0.28222656,-0.85009766,-0.43652344,-5.92041,2.380371,-1.7089844,0.0,0.0,0.0,-115.90027,16.616821,-177.21497
1768032507741,-0.28222656,-0.85009766,-0.43652344,-5.92041,2.380371,-1.7089844,0.0,0.0,0.0,-116.40564,16.325684,-177.48413
1768032507829,-0.2705078,-0.8466797,-0.44091797,-3.4179688,1.5258789,-1.6479492,0.0,0.0,0.0,-116.40564,16.325684,-177.48413
1768032507841,-0.2705078,-0.8466797,-0.44091797,-3.4179688,1.5258789,-1.6479492,0.0,0.0,0.0,-116.7572,16.001587,-177.69836
1768032507929,-0.2685547,-0.8496094,-0.4506836,-0.8544922,1.4648438,-1.159668,0.0,0.0,0.0,-116.7572,16.001587,-177.69836
1768032507941,-0.2685547,-0.8496094,-0.4506836,-0.8544922,1.4648438,-1.159668,0.0,0.0,0.0,-117.004395,15.814819,-177.90161
1768032508029,-0.2685547,-0.85791016,-0.44091797,-1.0375977,1.6479492,-0.36621094,0.0,0.0,0.0,-117.004395,15.814819,-177.90161
1768032508040,-0.2685547,-0.85791016,-0.44091797,-1.0375977,1.6479492,-0.36621094,0.0,0.0,0.0,-117.0813,15.704956,-178.13782
1768032508128,-0.26953125,-0.859375,-0.45654297,0.79345703,-0.79345703,0.0,0.0,0.0,0.0,-117.0813,15.704956,-178.13782
1768032508140,-0.26953125,-0.859375,-0.45654297,0.79345703,-0.79345703,0.0,0.0,0.0,0.0,-117.092285,15.710449,-178.21472
1768032508228,-0.2734375,-0.85839844,-0.4501953,1.4648438,-0.36621094,-0.79345703,0.0,0.0,0.0,-117.092285,15.710449,-178.21472
1768032508240,-0.2734375,-0.85839844,-0.4501953,1.4648438,-0.36621094,-0.79345703,0.0,0.0,0.0,-116.93298,15.682983,-178.19275
1768032508328,-0.27490234,-0.85839844,-0.4423828,2.8076172,-1.2817383,-1.3427734,0.0,0.0,0.0,-116.93298,15.682983,-178.19275
1768032508339,-0.27490234,-0.85839844,-0.4423828,2.8076172,-1.2817383,-1.3427734,0.0,0.0,0.0,-116.691284,15.617065,-178.14331
1768032508427,-0.25439453,-0.86865234,-0.4296875,3.3569336,-2.0141602,0.30517578,0.0,0.0,0.0,-116.691284,15.617065,-178.14331
1768032508439,-0.25439453,-0.86865234,-0.4296875,3.3569336,-2.0141602,0.30517578,0.0,0.0,0.0,-116.328735,15.556641,-178.0774
1768032508527,-0.2836914,-0.8671875,-0.44189453,-0.61035156,-1.953125,1.0986328,0.0,0.0,0.0,-116.328735,15.556641,-178.0774
1768032508539,-0.2836914,-0.8671875,-0.44189453,-0.61035156,-1.953125,1.0986328,0.0,0.0,0.0,-116.25183,15.792847,-177.91809
1768032508627,-0.27441406,-0.859375,-0.4345703,0.0,1.4648438,0.5493164,0.0,0.0,0.0,-116.25183,15.792847,-177.91809
1768032508638,-0.27441406,-0.859375,-0.4345703,0.0,1.4648438,0.5493164,0.0,0.0,0.0,-116.312256,15.792847,-178.04993
1768032508727,-0.26757812,-0.85839844,-0.43945312,-0.4272461,0.0,0.36621094,0.0,0.0,0.0,-116.312256,15.792847,-178.04993
1768032508738,-0.26757812,-0.85839844,-0.43945312,-0.4272461,0.0,0.36621094,0.0,0.0,0.0,-116.361694,15.803833,-178.20374
1768032508826,-0.27929688,-0.8569336,-0.43359375,0.61035156,-0.24414062,-0.4272461,0.0,0.0,0.0,-116.361694,15.803833,-178.20374
1768032508838,-0.27929688,-0.8569336,-0.43359375,0.61035156,-0.24414062,-0.4272461,0.0,0.0,0.0,-116.37268,15.842285,-178.24768
1768032508926,-0.27490234,-0.8588867,-0.43359375,-0.12207031,0.48828125,-0.48828125,0.0,0.0,0.0,-116.37268,15.842285,-178.24768
1768032508938,-0.27490234,-0.8588867,-0.43359375,-0.12207031,0.48828125,-0.48828125,0.0,0.0,0.0,-116.28479,15.770874,-178.3136
1768032509026,-0.26904297,-0.8564453,-0.43359375,0.4272461,-0.4272461,0.18310547,0.0,0.0,0.0,-116.28479,15.770874,-178.3136
1768032509037,-0.26904297,-0.8564453,-0.43359375,0.4272461,-0.4272461,0.18310547,0.0,0.0,0.0,-116.29028,15.748901,-178.396
1768032509125,-0.2758789,-0.85546875,-0.43554688,1.2817383,0.0,0.0,0.0,0.0,0.0,-116.29028,15.748901,-178.396
1768032509137,-0.2758789,-0.85546875,-0.43554688,1.2817383,0.0,0.0,0.0,0.0,0.0,-116.22986,15.765381,-178.43445
1768032509225,-0.27294922,-0.86376953,-0.4169922,-0.36621094,-0.24414062,0.8544922,0.0,0.0,0.0,-116.22986,15.765381,-178.43445
1768032509237,-0.27294922,-0.86376953,-0.4169922,-0.36621094,-0.24414062,0.8544922,0.0,0.0,0.0,-116.09802,15.79834,-178.52783
1768032509325,-0.2783203,-0.8623047,-0.43115234,-2.0141602,-1.2207031,1.2817383,0.0,0.0,0.0,-116.09802,15.79834,-178.52783
1768032509337,-0.2783203,-0.8623047,-0.43115234,-2.0141602,-1.2207031,1.2817383,0.0,0.0,0.0,-116.15845,15.913696,-178.56628
1768032509425,-0.2783203,-0.85498047,-0.43115234,-0.5493164,0.36621094,0.061035156,0.0,0.0,0.0,-116.15845,15.913696,-178.56628
1768032509437,-0.2783203,-0.85498047,-0.43115234,-0.5493164,0.36621094,0.061035156,0.0,0.0,0.0,-116.26282,15.935669,-178.64868
1768032509524,-0.27441406,-0.86083984,-0.4321289,-0.30517578,-0.061035156,-0.30517578,0.0,0.0,0.0,-116.26282,15.935669,-178.64868
1768032509536,-0.27441406,-0.86083984,-0.4321289,-0.30517578,-0.061035156,-0.30517578,0.0,0.0,0.0,-116.28479,15.90271,-178.72559
1768032509624,-0.28222656,-0.86376953,-0.43066406,-2.380371,-0.4272461,0.8544922,0.0,0.0,0.0,-116.28479,15.90271,-178.72559
1768032509636,-0.28222656,-0.86376953,-0.43066406,-2.380371,-0.4272461,0.8544922,0.0,0.0,0.0,-116.40015,15.941162,-178.75305
1768032509724,-0.2763672,-0.85498047,-0.43603516,-1.4038086,0.30517578,-0.061035156,0.0,0.0,0.0,-116.40015,15.941162,-178.75305
1768032509735,-0.2763672,-0.85498047,-0.43603516,-1.4038086,0.30517578,-0.061035156,0.0,0.0,0.0,-116.537476,15.913696,-178.83545
1768032509824,-0.27539062,-0.8564453,-0.43798828,-1.7089844,0.0,0.91552734,0.0,0.0,0.0,-116.537476,15.913696,-178.83545
1768032509835,-0.27539062,-0.8564453,-0.43798828,-1.7089844,0.0,0.91552734,0.0,0.0,0.0,-116.64734,15.913696,-178.90686
1768032509923,-0.28222656,-0.8520508,-0.44091797,-1.7700195,-0.61035156,1.4038086,0.0,0.0,0.0,-116.64734,15.913696,-178.90686
1768032509935,-0.28222656,-0.8520508,-0.44091797,-1.7700195,-0.61035156,1.4038086,0.0,0.0,0.0,-116.79016,16.034546,-178.97278
1768032510023,-0.28320312,-0.86083984,-0.44677734,-1.4648438,0.5493164,1.159668,0.0,0.0,0.0,-116.79016,16.034546,-178.97278
1768032510034,-0.28320312,-0.86083984,-0.44677734,-1.4648438,0.5493164,1.159668,0.0,0.0,0.0,-116.92749,16.138916,-179.07166
1768032510123,-0.27734375,-0.85058594,-0.43798828,-0.30517578,0.061035156,-0.79345703,0.0,0.0,0.0,-116.92749,16.138916,-179.07166
1768032510134,-0.27734375,-0.85058594,-0.43798828,-0.30517578,0.061035156,-0.79345703,0.0,0.0,0.0,-116.99341,16.116943,-179.14307
1768032510222,-0.2841797,-0.85302734,-0.44628906,-1.2207031,0.30517578,0.61035156,0.0,0.0,0.0,-116.99341,16.116943,-179.14307
1768032510234,-0.2841797,-0.85302734,-0.44628906,-1.2207031,0.30517578,0.61035156,0.0,0.0,0.0,-117.04834,16.116943,-179.17603
1768032510322,-0.2866211,-0.8574219,-0.44482422,-2.6245117,0.12207031,1.3427734,0.0,0.0,0.0,-117.04834,16.116943,-179.17603
1768032510334,-0.2866211,-0.8574219,-0.44482422,-2.6245117,0.12207031,1.3427734,0.0,0.0,0.0,-117.22412,16.160889,-179.26392
1768032510422,-0.27734375,-0.8466797,-0.44482422,-9.94873,-1.8920898,6.0424805,0.0,0.0,0.0,-117.22412,16.160889,-179.26392
1768032510434,-0.27734375,-0.8466797,-0.44482422,-9.94873,-1.8920898,6.0424805,0.0,0.0,0.0,-117.74597,16.452026,-179.38477
1768032510522,-0.30859375,-0.8339844,-0.4819336,-3.479004,-1.4038086,2.1972656,0.0,0.0,0.0,-117.74597,16.452026,-179.38477
1768032510533,-0.30859375,-0.8339844,-0.4819336,-3.479004,-1.4038086,2.1972656,0.0,0.0,0.0,-118.49304,16.940918,-179.46167
1768032510621,-0.2944336,-0.83740234,-0.46142578,1.5869141,0.9765625,0.0,0.0,0.0,0.0,-118.49304,16.940918,-179.46167
1768032510633,-0.2944336,-0.83740234,-0.46142578,1.5869141,0.9765625,0.0,0.0,0.0,0.0,-118.47107,16.902466,-179.53308
1768032510721,-0.2915039,-0.84277344,-0.4633789,0.30517578,-1.0986328,1.0375977,0.0,0.0,0.0,-118.47107,16.902466,-179.53308
1768032510733,-0.2915039,-0.84277344,-0.4633789,0.30517578,-1.0986328,1.0375977,0.0,0.0,0.0,-118.427124,16.940918,-179.599
1768032510821,-0.30859375,-0.84472656,-0.46777344,2.1362305,-1.8920898,0.24414062,0.0,0.0,0.0,-118.427124,16.940918,-179.599
1768032510832,-0.30859375,-0.84472656,-0.46777344,2.1362305,-1.8920898,0.24414062,0.0,0.0,0.0,-118.256836,17.08374,-179.50012
1768032510921,-0.29785156,-0.84472656,-0.45410156,1.6479492,-0.24414062,-0.79345703,0.0,0.0,0.0,-118.256836,17.08374,-179.50012
1768032510932,-0.29785156,-0.84472656,-0.45410156,1.6479492,-0.24414062,-0.79345703,0.0,0.0,0.0,-118.0426,17.089233,-179.4342
1768032511020,-0.2939453,-0.84228516,-0.4555664,-0.30517578,-0.30517578,0.8544922,0.0,0.0,0.0,-118.0426,17.089233,-179.4342
1768032511032,-0.2939453,-0.84228516,-0.4555664,-0.30517578,-0.30517578,0.8544922,0.0,0.0,0.0,-117.960205,17.045288,-179.42871
1768032511120,-0.29638672,-0.84033203,-0.45166016,-1.0375977,-0.48828125,1.2817383,0.0,0.0,0.0,-117.960205,17.045288,-179.42871
1768032511131,-0.29638672,-0.84033203,-0.45166016,-1.0375977,-0.48828125,1.2817383,0.0,0.0,0.0,-118.00964,17.160645,-179.44519
1768032511220,-0.29882812,-0.8457031,-0.45898438,0.0,0.18310547,0.36621094,0.0,0.0,0.0,-118.00964,17.160645,-179.44519
1768032511232,-0.29882812,-0.8457031,-0.45898438,0.0,0.18310547,0.36621094,0.0,0.0,0.0,-118.07007,17.22107,-179.47266
1768032511319,-0.2993164,-0.83984375,-0.45703125,-0.4272461,0.61035156,0.0,0.0,0.0,0.0,-118.07007,17.22107,-179.47266
1768032511331,-0.2993164,-0.83984375,-0.45703125,-0.4272461,0.61035156,0.0,0.0,0.0,0.0,-118.13599,17.210083,-179.5166
1768032511419,-0.29638672,-0.83691406,-0.4580078,0.5493164,-0.061035156,-0.12207031,0.0,0.0,0.0,-118.13599,17.210083,-179.5166
1768032511431,-0.29638672,-0.83691406,-0.4580078,0.5493164,-0.061035156,-0.12207031,0.0,0.0,0.0,-118.097534,17.182617,-179.53857
1768032511519,-0.30078125,-0.8413086,-0.45458984,0.12207031,0.5493164,0.0,0.0,0.0,0.0,-118.097534,17.182617,-179.53857
1768032511530,-0.30078125,-0.8413086,-0.45458984,0.12207031,0.5493164,0.0,0.0,0.0,0.0,-118.05359,17.177124,-179.53308
1768032511619,-0.29589844,-0.84033203,-0.45458984,0.48828125,0.79345703,0.24414062,0.0,0.0,0.0,-118.05359,17.177124,-179.53308
1768032511630,-0.29589844,-0.84033203,-0.45458984,0.48828125,0.79345703,0.24414062,0.0,0.0,0.0,-118.05908,17.193604,-179.56604
1768032511718,-0.2998047,-0.84277344,-0.46191406,0.30517578,-0.6713867,0.24414062,0.0,0.0,0.0,-118.05908,17.193604,-179.56604
1768032511731,-0.2998047,-0.84277344,-0.46191406,0.30517578,-0.6713867,0.24414062,0.0,0.0,0.0,-118.05908,17.232056,-179.57153
1768032511818,-0.3100586,-0.84521484,-0.4555664,0.12207031,-1.8310547,1.953125,0.0,0.0,0.0,-118.05908,17.232056,-179.57153
1768032511829,-0.3100586,-0.84521484,-0.4555664,0.12207031,-1.8310547,1.953125,0.0,0.0,0.0,-117.98218,17.352905,-179.5221
1768032511918,-0.30322266,-0.84521484,-0.4506836,-2.6855469,0.8544922,1.8920898,0.0,0.0,0.0,-117.98218,17.352905,-179.5221
1768032511929,-0.30322266,-0.84521484,-0.4506836,-2.6855469,0.8544922,1.8920898,0.0,0.0,0.0,-118.13599,17.5177,-179.57703
1768032512017,-0.30859375,-0.859375,-0.46289062,-0.36621094,-1.7700195,1.5258789,0.0,0.0,0.0,-118.13599,17.5177,-179.57703
1768032512029,-0.30859375,-0.859375,-0.46289062,-0.36621094,-1.7700195,1.5258789,0.0,0.0,0.0,-118.21838,17.682495,-179.57153
1768032512117,-0.32421875,-0.85253906,-0.4404297,5.1879883,-8.728027,0.7324219,0.0,0.0,0.0,-118.21838,17.682495,-179.57153
1768032512129,-0.32421875,-0.85253906,-0.4404297,5.1879883,-8.728027,0.7324219,0.0,0.0,0.0,-117.81738,18.078003,-178.99475
1768032512217,-0.3486328,-0.8984375,-0.4428711,12.817383,-18.249512,-4.0283203,0.0,0.0,0.0,-117.81738,18.078003,-178.99475
