timestamp,accX,accY,accZ,gyroX,gyroY,gyroZ,magX,magY,magZ,roll,pitch,yaw
1766497137630,-0.9145508,-0.36865234,0.19335938,-0.18310547,-0.61035156,0.9765625,0.0,0.0,0.0,-61.35315,65.13245,-35.925293
1766497137719,-0.9067383,-0.36914062,0.20117188,0.61035156,1.0375977,0.0,0.0,0.0,0.0,-61.35315,65.13245,-35.925293
1766497137734,-0.9067383,-0.36914062,0.20117188,0.61035156,1.0375977,0.0,0.0,0.0,0.0,-61.468506,65.20935,-36.084595
1766497137818,-0.9042969,-0.36572266,0.20605469,0.18310547,3.540039,-0.36621094,0.0,0.0,0.0,-61.468506,65.20935,-36.084595
1766497137829,-0.9042969,-0.36572266,0.20605469,0.18310547,3.540039,-0.36621094,0.0,0.0,0.0,-61.89148,65.269775,-36.573486
1766497137918,-0.9013672,-0.36083984,0.1928711,1.2207031,2.0751953,0.91552734,0.0,0.0,0.0,-61.89148,65.269775,-36.573486
1766497137929,-0.9013672,-0.36083984,0.1928711,1.2207031,2.0751953,0.91552734,0.0,0.0,0.0,-62.111206,65.36316,-36.914062
1766497138017,-0.92041016,-0.3720703,0.19677734,0.91552734,-0.91552734,0.79345703,0.0,0.0,0.0,-62.111206,65.36316,-36.914062
1766497138029,-0.92041016,-0.3720703,0.19677734,0.91552734,-0.91552734,0.79345703,0.0,0.0,0.0,-62.127686,65.48401,-37.095337
1766497138117,-0.90283203,-0.36572266,0.19824219,-1.3427734,2.380371,1.5869141,0.0,0.0,0.0,-62.127686,65.48401,-37.095337
1766497138132,-0.90283203,-0.36572266,0.19824219,-1.3427734,2.380371,1.5869141,0.0,0.0,0.0,-62.089233,65.59387,-36.985474
1766497138217,-0.9135742,-0.36132812,0.18652344,0.79345703,0.91552734,0.0,0.0,0.0,0.0,-62.089233,65.59387,-36.985474
1766497138229,-0.9135742,-0.36132812,0.18652344,0.79345703,0.91552734,0.0,0.0,0.0,0.0,-62.144165,65.67627,-36.985474
1766497138317,-0.91015625,-0.36279297,0.19384766,-0.7324219,-0.5493164,0.91552734,0.0,0.0,0.0,-62.144165,65.67627,-36.985474
1766497138328,-0.91015625,-0.36279297,0.19384766,-0.7324219,-0.5493164,0.91552734,0.0,0.0,0.0,-62.144165,65.70923,-36.968994
1766497138416,-0.91748047,-0.36083984,0.1850586,-0.24414062,0.8544922,0.61035156,0.0,0.0,0.0,-62.144165,65.70923,-36.968994
1766497138435,-0.91748047,-0.36083984,0.1850586,-0.24414062,0.8544922,0.61035156,0.0,0.0,0.0,-62.08374,65.77515,-36.83716
1766497138516,-0.9121094,-0.36083984,0.1899414,-0.24414062,0.30517578,0.12207031,0.0,0.0,0.0,-62.08374,65.77515,-36.83716
1766497138528,-0.9121094,-0.36083984,0.1899414,-0.24414062,0.30517578,0.12207031,0.0,0.0,0.0,-62.20459,65.83008,-36.92505
1766497138616,-0.91259766,-0.36132812,0.19140625,0.30517578,0.18310547,-0.061035156,0.0,0.0,0.0,-62.20459,65.83008,-36.92505
1766497138627,-0.91259766,-0.36132812,0.19140625,0.30517578,0.18310547,-0.061035156,0.0,0.0,0.0,-62.193604,65.83008,-36.89209
1766497138715,-0.9121094,-0.36279297,0.1899414,0.4272461,0.4272461,-0.12207031,0.0,0.0,0.0,-62.193604,65.83008,-36.89209
1766497138727,-0.9121094,-0.36279297,0.1899414,0.4272461,0.4272461,-0.12207031,0.0,0.0,0.0,-62.226562,65.8136,-36.94702
1766497138815,-0.9086914,-0.36083984,0.19042969,0.4272461,0.5493164,-0.061035156,0.0,0.0,0.0,-62.226562,65.8136,-36.94702
1766497138828,-0.9086914,-0.36083984,0.19042969,0.4272461,0.5493164,-0.061035156,0.0,0.0,0.0,-62.286987,65.83008,-37.007446
1766497138915,-0.9189453,-0.36767578,0.18847656,0.0,-0.79345703,0.6713867,0.0,0.0,0.0,-62.286987,65.83008,-37.007446
1766497138927,-0.9189453,-0.36767578,0.18847656,0.0,-0.79345703,0.6713867,0.0,0.0,0.0,-62.243042,65.81909,-37.007446
1766497139015,-0.9033203,-0.35839844,0.19726562,-1.5869141,0.061035156,1.5258789,0.0,0.0,0.0,-62.243042,65.81909,-37.007446
1766497139026,-0.9033203,-0.35839844,0.19726562,-1.5869141,0.061035156,1.5258789,0.0,0.0,0.0,-62.25403,65.895996,-36.85913
1766497139114,-0.9140625,-0.3564453,0.19091797,-2.1362305,0.6713867,2.2583008,0.0,0.0,0.0,-62.25403,65.895996,-36.85913
1766497139126,-0.9140625,-0.3564453,0.19091797,-2.1362305,0.6713867,2.2583008,0.0,0.0,0.0,-62.34192,66.07178,-36.743774
1766497139214,-0.91845703,-0.3569336,0.18261719,-1.159668,0.24414062,1.5869141,0.0,0.0,0.0,-62.34192,66.07178,-36.743774
1766497139226,-0.91845703,-0.3569336,0.18261719,-1.159668,0.24414062,1.5869141,0.0,0.0,0.0,-62.276,66.24756,-36.485596
1766497139314,-0.91503906,-0.3544922,0.18115234,-2.0751953,0.6713867,0.9765625,0.0,0.0,0.0,-62.276,66.24756,-36.485596
1766497139325,-0.91503906,-0.3544922,0.18115234,-2.0751953,0.6713867,0.9765625,0.0,0.0,0.0,-62.352905,66.32446,-36.414185
1766497139413,-0.9038086,-0.34423828,0.18554688,-5.6152344,-0.9765625,2.0141602,0.0,0.0,0.0,-62.352905,66.32446,-36.414185
1766497139425,-0.9038086,-0.34423828,0.18554688,-5.6152344,-0.9765625,2.0141602,0.0,0.0,0.0,-62.63855,66.450806,-36.1615
1766497139513,-0.9296875,-0.36083984,0.16796875,-0.91552734,0.30517578,1.0375977,0.0,0.0,0.0,-62.63855,66.450806,-36.1615
1766497139525,-0.9296875,-0.36083984,0.16796875,-0.91552734,0.30517578,1.0375977,0.0,0.0,0.0,-62.42981,66.65405,-35.897827
1766497139613,-0.91552734,-0.34570312,0.18457031,-5.3100586,-1.5258789,2.0141602,0.0,0.0,0.0,-62.42981,66.65405,-35.897827
1766497139625,-0.91552734,-0.34570312,0.18457031,-5.3100586,-1.5258789,2.0141602,0.0,0.0,0.0,-62.748413,66.81885,-35.859375
1766497139713,-0.9291992,-0.34960938,0.16601562,-1.5258789,0.48828125,1.2207031,0.0,0.0,0.0,-62.748413,66.81885,-35.859375
1766497139724,-0.9291992,-0.34960938,0.16601562,-1.5258789,0.48828125,1.2207031,0.0,0.0,0.0,-62.770386,66.901245,-35.584717
1766497139812,-0.9448242,-0.35839844,0.19189453,-5.1879883,-1.3427734,-0.7324219,0.0,0.0,0.0,-62.770386,66.901245,-35.584717
1766497139824,-0.9448242,-0.35839844,0.19189453,-5.1879883,-1.3427734,-0.7324219,0.0,0.0,0.0,-62.748413,66.96167,-35.33203
1766497139912,-0.89501953,-0.33447266,0.16503906,-1.2817383,-0.4272461,-4.5776367,0.0,0.0,0.0,-62.748413,66.96167,-35.33203
1766497139923,-0.89501953,-0.33447266,0.16503906,-1.2817383,-0.4272461,-4.5776367,0.0,0.0,0.0,-63.528442,66.67053,-35.551758
1766497140012,-0.9165039,-0.3540039,0.16796875,8.117676,2.5634766,-3.7231445,0.0,0.0,0.0,-63.528442,66.67053,-35.551758
1766497140023,-0.9165039,-0.3540039,0.16796875,8.117676,2.5634766,-3.7231445,0.0,0.0,0.0,-63.424072,66.40686,-35.771484
1766497140112,-0.91308594,-0.37451172,0.18164062,12.207031,2.8686523,3.2958984,0.0,0.0,0.0,-63.424072,66.40686,-35.771484
1766497140123,-0.91308594,-0.37451172,0.18164062,12.207031,2.8686523,3.2958984,0.0,0.0,0.0,-62.84729,66.44531,-36.14502
1766497140211,-0.90966797,-0.359375,0.17236328,1.0375977,-1.6479492,0.4272461,0.0,0.0,0.0,-62.84729,66.44531,-36.14502
1766497140223,-0.90966797,-0.359375,0.17236328,1.0375977,-1.6479492,0.4272461,0.0,0.0,0.0,-62.737427,66.5332,-36.502075
1766497140311,-0.9111328,-0.359375,0.1850586,0.79345703,1.0375977,0.24414062,0.0,0.0,0.0,-62.737427,66.5332,-36.502075
1766497140322,-0.9111328,-0.359375,0.1850586,0.79345703,1.0375977,0.24414062,0.0,0.0,0.0,-62.46277,66.555176,-36.28235
1766497140411,-0.9243164,-0.3515625,0.18408203,0.30517578,0.5493164,-0.5493164,0.0,0.0,0.0,-62.46277,66.555176,-36.28235
1766497140422,-0.9243164,-0.3515625,0.18408203,0.30517578,0.5493164,-0.5493164,0.0,0.0,0.0,-62.177124,66.54419,-36.018677
1766497140510,-0.94628906,-0.36767578,0.18896484,-5.6762695,0.91552734,-1.159668,0.0,0.0,0.0,-62.177124,66.54419,-36.018677
1766497140522,-0.94628906,-0.36767578,0.18896484,-5.6762695,0.91552734,-1.159668,0.0,0.0,0.0,-62.374878,66.51123,-36.260376
1766497140610,-0.91552734,-0.34033203,0.18457031,0.8544922,-1.2207031,1.0986328,0.0,0.0,0.0,-62.374878,66.51123,-36.260376
1766497140621,-0.91552734,-0.34033203,0.18457031,0.8544922,-1.2207031,1.0986328,0.0,0.0,0.0,-62.74292,66.51672,-36.40869
1766497140710,-0.9189453,-0.35839844,0.18115234,-1.2817383,0.9765625,1.3427734,0.0,0.0,0.0,-62.74292,66.51672,-36.40869
1766497140722,-0.9189453,-0.35839844,0.18115234,-1.2817383,0.9765625,1.3427734,0.0,0.0,0.0,-62.764893,66.59912,-36.518555
1766497140809,-0.9248047,-0.35498047,0.17285156,0.7324219,1.0986328,-0.61035156,0.0,0.0,0.0,-62.764893,66.59912,-36.518555
1766497140821,-0.9248047,-0.35498047,0.17285156,0.7324219,1.0986328,-0.61035156,0.0,0.0,0.0,-62.96814,66.65405,-36.732788
1766497140909,-0.8979492,-0.34472656,0.17919922,-1.0375977,-0.48828125,0.48828125,0.0,0.0,0.0,-62.96814,66.65405,-36.732788
1766497140921,-0.8979492,-0.34472656,0.17919922,-1.0375977,-0.48828125,0.48828125,0.0,0.0,0.0,-63.198853,66.68152,-36.9635
1766497141009,-0.9189453,-0.34570312,0.16894531,1.2207031,0.30517578,-1.8920898,0.0,0.0,0.0,-63.198853,66.68152,-36.9635
1766497141020,-0.9189453,-0.34570312,0.16894531,1.2207031,0.30517578,-1.8920898,0.0,0.0,0.0,-63.20984,66.676025,-36.914062
1766497141109,-0.9145508,-0.35546875,0.1821289,-2.9296875,-1.0375977,-2.2583008,0.0,0.0,0.0,-63.20984,66.676025,-36.914062
1766497141120,-0.9145508,-0.35546875,0.1821289,-2.9296875,-1.0375977,-2.2583008,0.0,0.0,0.0,-63.74817,66.50574,-37.232666
1766497141208,-0.89941406,-0.35253906,0.171875,1.5258789,2.319336,-0.6713867,0.0,0.0,0.0,-63.74817,66.50574,-37.232666
1766497141220,-0.89941406,-0.35253906,0.171875,1.5258789,2.319336,-0.6713867,0.0,0.0,0.0,-63.825073,66.3739,-37.194214
1766497141308,-0.92626953,-0.37109375,0.1665039,2.5634766,-0.24414062,-0.12207031,0.0,0.0,0.0,-63.825073,66.3739,-37.194214
1766497141320,-0.92626953,-0.37109375,0.1665039,2.5634766,-0.24414062,-0.12207031,0.0,0.0,0.0,-63.451538,66.56616,-37.39746
1766497141408,-0.9082031,-0.3491211,0.18310547,1.159668,-1.2207031,-0.4272461,0.0,0.0,0.0,-63.451538,66.56616,-37.39746
1766497141420,-0.9082031,-0.3491211,0.18310547,1.159668,-1.2207031,-0.4272461,0.0,0.0,0.0,-63.5614,66.5332,-37.53479
1766497141507,-0.9189453,-0.36621094,0.18896484,0.4272461,0.91552734,0.91552734,0.0,0.0,0.0,-63.5614,66.5332,-37.53479
1766497141519,-0.9189453,-0.36621094,0.18896484,0.4272461,0.91552734,0.91552734,0.0,0.0,0.0,-63.242798,66.52222,-37.26013
1766497141607,-0.9272461,-0.34375,0.17480469,0.4272461,-0.5493164,0.8544922,0.0,0.0,0.0,-63.242798,66.52222,-37.26013
1766497141619,-0.9272461,-0.34375,0.17480469,0.4272461,-0.5493164,0.8544922,0.0,0.0,0.0,-62.819824,66.64856,-36.82068
1766497141711,-0.9248047,-0.3623047,0.19335938,-5.065918,-1.4648438,-0.30517578,0.0,0.0,0.0,-62.819824,66.64856,-36.82068
1766497141719,-0.9248047,-0.3623047,0.19335938,-5.065918,-1.4648438,-0.30517578,0.0,0.0,0.0,-62.86377,66.67053,-36.78772
1766497141807,-0.91845703,-0.33984375,0.1796875,-2.9296875,-0.5493164,0.5493164,0.0,0.0,0.0,-62.86377,66.67053,-36.78772
1766497141818,-0.91845703,-0.33984375,0.1796875,-2.9296875,-0.5493164,0.5493164,0.0,0.0,0.0,-62.95166,66.604614,-36.436157
1766497141906,-0.90771484,-0.3544922,0.17382812,2.5024414,0.061035156,1.2207031,0.0,0.0,0.0,-62.95166,66.604614,-36.436157
1766497141918,-0.90771484,-0.3544922,0.17382812,2.5024414,0.061035156,1.2207031,0.0,0.0,0.0,-62.913208,66.67053,-36.540527
1766497142006,-0.9169922,-0.34521484,0.18261719,1.2817383,0.79345703,0.4272461,0.0,0.0,0.0,-62.913208,66.67053,-36.540527
1766497142017,-0.9169922,-0.34521484,0.18261719,1.2817383,0.79345703,0.4272461,0.0,0.0,0.0,-62.748413,66.78589,-36.61194
1766497142107,-0.91503906,-0.35546875,0.18164062,0.12207031,0.9765625,-0.24414062,0.0,0.0,0.0,-62.748413,66.78589,-36.61194
1766497142118,-0.91503906,-0.35546875,0.18164062,0.12207031,0.9765625,-0.24414062,0.0,0.0,0.0,-62.731934,66.780396,-36.66687
1766497142206,-0.9272461,-0.34521484,0.17041016,0.5493164,-0.7324219,1.2817383,0.0,0.0,0.0,-62.731934,66.780396,-36.66687
1766497142217,-0.9272461,-0.34521484,0.17041016,0.5493164,-0.7324219,1.2817383,0.0,0.0,0.0,-62.50122,66.82434,-36.364746
1766497142305,-0.9145508,-0.35058594,0.19628906,0.48828125,1.953125,-0.30517578,0.0,0.0,0.0,-62.50122,66.82434,-36.364746
1766497142317,-0.9145508,-0.35058594,0.19628906,0.48828125,1.953125,-0.30517578,0.0,0.0,0.0,-62.666016,66.89575,-36.66687
1766497142405,-0.9165039,-0.34179688,0.1743164,-1.5258789,0.18310547,0.91552734,0.0,0.0,0.0,-62.666016,66.89575,-36.66687
1766497142416,-0.9165039,-0.34179688,0.1743164,-1.5258789,0.18310547,0.91552734,0.0,0.0,0.0,-62.385864,66.90674,-36.29883
1766497142505,-0.9321289,-0.34960938,0.1743164,0.30517578,-0.48828125,0.24414062,0.0,0.0,0.0,-62.385864,66.90674,-36.29883
1766497142516,-0.9321289,-0.34960938,0.1743164,0.30517578,-0.48828125,0.24414062,0.0,0.0,0.0,-62.29248,66.94519,-36.221924
1766497142605,-0.91259766,-0.34423828,0.18701172,-0.36621094,0.0,0.48828125,0.0,0.0,0.0,-62.29248,66.94519,-36.221924
1766497142616,-0.91259766,-0.34423828,0.18701172,-0.36621094,0.0,0.48828125,0.0,0.0,0.0,-62.352905,66.96716,-36.28784
1766497142704,-0.9213867,-0.34472656,0.17626953,0.91552734,1.0375977,0.24414062,0.0,0.0,0.0,-62.352905,66.96716,-36.28784
1766497142715,-0.9213867,-0.34472656,0.17626953,0.91552734,1.0375977,0.24414062,0.0,0.0,0.0,-62.22107,67.00012,-36.156006
1766497142804,-0.9194336,-0.35107422,0.1796875,-0.18310547,0.0,0.30517578,0.0,0.0,0.0,-62.22107,67.00012,-36.156006
1766497142815,-0.9194336,-0.35107422,0.1796875,-0.18310547,0.0,0.30517578,0.0,0.0,0.0,-62.270508,67.02759,-36.23291
1766497142903,-0.9267578,-0.33984375,0.18164062,0.91552734,0.061035156,0.0,0.0,0.0,0.0,-62.270508,67.02759,-36.23291
1766497142916,-0.9267578,-0.33984375,0.18164062,0.91552734,0.061035156,0.0,0.0,0.0,0.0,-62.122192,67.02759,-36.09558
1766497143003,-0.92333984,-0.34570312,0.18457031,0.36621094,-0.12207031,0.18310547,0.0,0.0,0.0,-62.122192,67.02759,-36.09558
1766497143015,-0.92333984,-0.34570312,0.18457031,0.36621094,-0.12207031,0.18310547,0.0,0.0,0.0,-62.056274,67.04956,-36.12854
1766497143103,-0.9165039,-0.34814453,0.1899414,-4.5776367,1.159668,-2.380371,0.0,0.0,0.0,-62.056274,67.04956,-36.12854
1766497143115,-0.9165039,-0.34814453,0.1899414,-4.5776367,1.159668,-2.380371,0.0,0.0,0.0,-62.506714,67.005615,-36.359253
1766497143203,-0.91748047,-0.3564453,0.17382812,0.9765625,1.3427734,-1.4648438,0.0,0.0,0.0,-62.506714,67.005615,-36.359253
1766497143214,-0.91748047,-0.3564453,0.17382812,0.9765625,1.3427734,-1.4648438,0.0,0.0,0.0,-62.753906,66.884766,-36.54602
1766497143302,-0.9008789,-0.3359375,0.1772461,5.432129,1.159668,0.48828125,0.0,0.0,0.0,-62.753906,66.884766,-36.54602
1766497143314,-0.9008789,-0.3359375,0.1772461,5.432129,1.159668,0.48828125,0.0,0.0,0.0,-62.737427,66.91223,-36.61194
1766497143402,-0.91748047,-0.34960938,0.1796875,0.61035156,1.3427734,-0.24414062,0.0,0.0,0.0,-62.737427,66.91223,-36.61194
1766497143414,-0.91748047,-0.34960938,0.1796875,0.61035156,1.3427734,-0.24414062,0.0,0.0,0.0,-62.720947,66.96716,-36.87561
1766497143502,-0.93115234,-0.34375,0.17138672,1.4038086,-0.91552734,0.5493164,0.0,0.0,0.0,-62.720947,66.96716,-36.87561
1766497143513,-0.93115234,-0.34375,0.17138672,1.4038086,-0.91552734,0.5493164,0.0,0.0,0.0,-62.457275,66.96167,-36.639404
1766497143601,-0.92041016,-0.3564453,0.18554688,0.9765625,1.6479492,-0.48828125,0.0,0.0,0.0,-62.457275,66.96167,-36.639404
1766497143613,-0.92041016,-0.3564453,0.18554688,0.9765625,1.6479492,-0.48828125,0.0,0.0,0.0,-62.594604,66.917725,-37.018433
1766497143701,-0.9160156,-0.34375,0.1772461,-0.24414062,0.48828125,-0.18310547,0.0,0.0,0.0,-62.594604,66.917725,-37.018433
1766497143713,-0.9160156,-0.34375,0.1772461,-0.24414062,0.48828125,-0.18310547,0.0,0.0,0.0,-62.704468,66.85181,-37.062378
1766497143801,-0.9194336,-0.35009766,0.17236328,2.0141602,1.3427734,-0.36621094,0.0,0.0,0.0,-62.704468,66.85181,-37.062378
1766497143813,-0.9194336,-0.35009766,0.17236328,2.0141602,1.3427734,-0.36621094,0.0,0.0,0.0,-62.70996,66.85181,-37.11731
1766497143901,-0.92529297,-0.34375,0.17089844,1.7089844,-0.061035156,0.18310547,0.0,0.0,0.0,-62.70996,66.85181,-37.11731
1766497143912,-0.92529297,-0.34375,0.17089844,1.7089844,-0.061035156,0.18310547,0.0,0.0,0.0,-62.627563,66.86279,-37.111816
1766497144000,-0.9169922,-0.34423828,0.17236328,2.9296875,-0.5493164,-0.48828125,0.0,0.0,0.0,-62.627563,66.86279,-37.111816
1766497144012,-0.9169922,-0.34423828,0.17236328,2.9296875,-0.5493164,-0.48828125,0.0,0.0,0.0,-62.418823,66.868286,-37.078857
1766497144100,-0.9213867,-0.35595703,0.18310547,2.4414062,1.4038086,-0.61035156,0.0,0.0,0.0,-62.418823,66.868286,-37.078857
1766497144111,-0.9213867,-0.35595703,0.18310547,2.4414062,1.4038086,-0.61035156,0.0,0.0,0.0,-62.297974,66.78589,-37.243652
1766497144200,-0.91796875,-0.34716797,0.17871094,-0.12207031,-0.91552734,0.61035156,0.0,0.0,0.0,-62.297974,66.78589,-37.243652
1766497144213,-0.91796875,-0.34716797,0.17871094,-0.12207031,-0.91552734,0.61035156,0.0,0.0,0.0,-62.281494,66.75842,-37.26013
1766497144300,-0.92089844,-0.34375,0.18310547,0.8544922,1.5869141,0.36621094,0.0,0.0,0.0,-62.281494,66.75842,-37.26013
1766497144313,-0.92089844,-0.34375,0.18310547,0.8544922,1.5869141,0.36621094,0.0,0.0,0.0,-62.281494,66.84631,-37.2052
1766497144399,-0.9223633,-0.35107422,0.17285156,-0.6713867,-0.061035156,-0.12207031,0.0,0.0,0.0,-62.281494,66.84631,-37.2052
1766497144411,-0.9223633,-0.35107422,0.17285156,-0.6713867,-0.061035156,-0.12207031,0.0,0.0,0.0,-62.435303,66.87927,-37.34253
1766497144500,-0.9135742,-0.34716797,0.18066406,-0.12207031,0.48828125,0.0,0.0,0.0,0.0,-62.435303,66.87927,-37.34253
1766497144515,-0.9135742,-0.34716797,0.18066406,-0.12207031,0.48828125,0.0,0.0,0.0,0.0,-62.578125,66.89026,-37.441406
1766497144599,-0.92041016,-0.34228516,0.18066406,-0.18310547,0.30517578,0.0,0.0,0.0,0.0,-62.578125,66.89026,-37.441406
1766497144614,-0.92041016,-0.34228516,0.18066406,-0.18310547,0.30517578,0.0,0.0,0.0,0.0,-62.561646,66.89026,-37.337036
1766497144698,-0.9238281,-0.34716797,0.18261719,-2.2583008,0.61035156,1.2207031,0.0,0.0,0.0,-62.561646,66.89026,-37.337036
1766497144710,-0.9238281,-0.34716797,0.18261719,-2.2583008,0.61035156,1.2207031,0.0,0.0,0.0,-62.660522,66.96167,-37.298584
1766497144798,-0.9350586,-0.3466797,0.18017578,-4.211426,3.6621094,0.7324219,0.0,0.0,0.0,-62.660522,66.96167,-37.298584
1766497144809,-0.9350586,-0.3466797,0.18017578,-4.211426,3.6621094,0.7324219,0.0,0.0,0.0,-63.198853,67.159424,-37.58423
1766497144898,-0.93066406,-0.34033203,0.17382812,-8.972168,1.6479492,-1.4648438,0.0,0.0,0.0,-63.198853,67.159424,-37.58423
1766497144909,-0.93066406,-0.34033203,0.17382812,-8.972168,1.6479492,-1.4648438,0.0,0.0,0.0,-64.49524,67.23633,-38.34778
1766497144998,-0.93115234,-0.37158203,0.17138672,-10.986328,1.4648438,-3.6010742,0.0,0.0,0.0,-64.49524,67.23633,-38.34778
1766497145009,-0.93115234,-0.37158203,0.17138672,-10.986328,1.4648438,-3.6010742,0.0,0.0,0.0,-65.95093,67.022095,-39.127808
1766497145097,-0.9296875,-0.38476562,0.17529297,-16.479492,-0.8544922,-5.859375,0.0,0.0,0.0,-65.95093,67.022095,-39.127808
1766497145109,-0.9296875,-0.38476562,0.17529297,-16.479492,-0.8544922,-5.859375,0.0,0.0,0.0,-67.318726,66.56067,-39.413452
1766497145198,-0.9082031,-0.35351562,0.14648438,-18.493652,-0.6713867,-6.0424805,0.0,0.0,0.0,-67.318726,66.56067,-39.413452
1766497145208,-0.9082031,-0.35351562,0.14648438,-18.493652,-0.6713867,-6.0424805,0.0,0.0,0.0,-69.21387,65.841064,-39.990234
1766497145297,-0.91552734,-0.44433594,0.11767578,-22.705078,8.544922,2.6855469,0.0,0.0,0.0,-69.21387,65.841064,-39.990234
1766497145308,-0.91552734,-0.44433594,0.11767578,-22.705078,8.544922,2.6855469,0.0,0.0,0.0,-71.65283,65.83557,-40.583496
1766497145396,-0.91259766,-0.30566406,0.10058594,-6.713867,2.8076172,-2.319336,0.0,0.0,0.0,-71.65283,65.83557,-40.583496
1766497145408,-0.91259766,-0.30566406,0.10058594,-6.713867,2.8076172,-2.319336,0.0,0.0,0.0,-73.23486,65.53345,-40.98999
1766497145496,-0.91748047,-0.4453125,0.06982422,-2.746582,8.7890625,2.6855469,0.0,0.0,0.0,-73.23486,65.53345,-40.98999
1766497145508,-0.91748047,-0.4453125,0.06982422,-2.746582,8.7890625,2.6855469,0.0,0.0,0.0,-75.17944,65.93994,-43.220215
1766497145596,-0.89697266,-0.34716797,0.091796875,-3.479004,1.3427734,3.90625,0.0,0.0,0.0,-75.17944,65.93994,-43.220215
1766497145607,-0.89697266,-0.34716797,0.091796875,-3.479004,1.3427734,3.90625,0.0,0.0,0.0,-76.32202,66.35193,-43.9563
1766497145696,-0.9272461,-0.39404297,0.072753906,6.5307617,7.3242188,1.3427734,0.0,0.0,0.0,-76.32202,66.35193,-43.9563
1766497145707,-0.9272461,-0.39404297,0.072753906,6.5307617,7.3242188,1.3427734,0.0,0.0,0.0,-77.36572,66.75293,-45.373535
1766497145795,-0.9213867,-0.3647461,0.076660156,0.061035156,1.2207031,2.6855469,0.0,0.0,0.0,-77.36572,66.75293,-45.373535
1766497145807,-0.9213867,-0.3647461,0.076660156,0.061035156,1.2207031,2.6855469,0.0,0.0,0.0,-77.96997,66.87927,-46.43921
1766497145895,-0.89208984,-0.3515625,0.052246094,5.065918,5.493164,1.0986328,0.0,0.0,0.0,-77.96997,66.87927,-46.43921
1766497145907,-0.89208984,-0.3515625,0.052246094,5.065918,5.493164,1.0986328,0.0,0.0,0.0,-78.288574,67.10449,-46.829224
1766497145995,-0.92041016,-0.3984375,0.08251953,10.009766,7.2021484,-0.061035156,0.0,0.0,0.0,-78.288574,67.10449,-46.829224
1766497146006,-0.92041016,-0.3984375,0.08251953,10.009766,7.2021484,-0.061035156,0.0,0.0,0.0,-78.898315,67.44507,-47.922363
1766497146094,-0.9291992,-0.33789062,0.061035156,8.544922,1.953125,13.916016,0.0,0.0,0.0,-78.898315,67.44507,-47.922363
1766497146106,-0.9291992,-0.33789062,0.061035156,8.544922,1.953125,13.916016,0.0,0.0,0.0,-78.61267,68.07129,-48.48816
1766497146194,-0.96533203,-0.3491211,0.060546875,22.949219,2.6855469,2.4414062,0.0,0.0,0.0,-78.61267,68.07129,-48.48816
1766497146206,-0.96533203,-0.3491211,0.060546875,22.949219,2.6855469,2.4414062,0.0,0.0,0.0,-77.645874,68.93921,-48.927612
1766497146294,-0.93652344,-0.33984375,0.0859375,15.563965,6.7749023,3.2348633,0.0,0.0,0.0,-77.645874,68.93921,-48.927612
1766497146305,-0.93652344,-0.33984375,0.0859375,15.563965,6.7749023,3.2348633,0.0,0.0,0.0,-76.47034,68.97766,-50.03723
1766497146394,-0.9453125,-0.3701172,0.099121094,6.652832,-4.8217773,5.9814453,0.0,0.0,0.0,-76.47034,68.97766,-50.03723
1766497146405,-0.9453125,-0.3701172,0.099121094,6.652832,-4.8217773,5.9814453,0.0,0.0,0.0,-75.3772,69.576416,-49.87793
1766497146493,-0.9399414,-0.37841797,0.119140625,0.79345703,-6.958008,2.5634766,0.0,0.0,0.0,-75.3772,69.576416,-49.87793
1766497146505,-0.9399414,-0.37841797,0.119140625,0.79345703,-6.958008,2.5634766,0.0,0.0,0.0,-73.322754,69.86755,-47.889404
1766497146593,-0.94628906,-0.31152344,0.10498047,-0.48828125,-3.2348633,-0.30517578,0.0,0.0,0.0,-73.322754,69.86755,-47.889404
1766497146605,-0.94628906,-0.31152344,0.10498047,-0.48828125,-3.2348633,-0.30517578,0.0,0.0,0.0,-72.26807,69.81262,-46.224976
1766497146693,-0.9321289,-0.32373047,0.103515625,10.314941,1.2207031,-1.5869141,0.0,0.0,0.0,-72.26807,69.81262,-46.224976
1766497146704,-0.9321289,-0.32373047,0.103515625,10.314941,1.2207031,-1.5869141,0.0,0.0,0.0,-72.180176,69.63135,-46.708374
1766497146792,-0.9555664,-0.29589844,0.10449219,10.7421875,-0.48828125,0.91552734,0.0,0.0,0.0,-72.180176,69.63135,-46.708374
1766497146804,-0.9555664,-0.29589844,0.10449219,10.7421875,-0.48828125,0.91552734,0.0,0.0,0.0,-70.356445,69.697266,-45.395508
1766497146892,-0.9663086,-0.38085938,0.095214844,10.375977,-4.9438477,-9.033203,0.0,0.0,0.0,-70.356445,69.697266,-45.395508
1766497146903,-0.9663086,-0.38085938,0.095214844,10.375977,-4.9438477,-9.033203,0.0,0.0,0.0,-69.30176,69.01611,-45.516357
1766497146992,-0.9350586,-0.32128906,0.16894531,6.652832,-6.7749023,-4.9438477,0.0,0.0,0.0,-69.30176,69.01611,-45.516357
1766497147003,-0.9350586,-0.32128906,0.16894531,6.652832,-6.7749023,-4.9438477,0.0,0.0,0.0,-68.6261,68.565674,-44.961548
1766497147091,-0.9326172,-0.33154297,0.12597656,5.2490234,-1.2207031,-4.0893555,0.0,0.0,0.0,-68.6261,68.565674,-44.961548
1766497147103,-0.9326172,-0.33154297,0.12597656,5.2490234,-1.2207031,-4.0893555,0.0,0.0,0.0,-67.631836,67.977905,-44.664917
1766497147192,-0.93066406,-0.32421875,0.16601562,10.253906,1.2207031,0.30517578,0.0,0.0,0.0,-67.631836,67.977905,-44.664917
1766497147203,-0.93066406,-0.32421875,0.16601562,10.253906,1.2207031,0.30517578,0.0,0.0,0.0,-66.80237,67.97241,-44.159546
1766497147291,-0.8984375,-0.36767578,0.1459961,11.291504,-2.9907227,-3.90625,0.0,0.0,0.0,-66.80237,67.97241,-44.159546
1766497147302,-0.8984375,-0.36767578,0.1459961,11.291504,-2.9907227,-3.90625,0.0,0.0,0.0,-65.92346,67.71423,-44.274902
1766497147391,-0.9477539,-0.33691406,0.15820312,6.591797,-3.6010742,-1.7700195,0.0,0.0,0.0,-65.92346,67.71423,-44.274902
1766497147403,-0.9477539,-0.33691406,0.15820312,6.591797,-3.6010742,-1.7700195,0.0,0.0,0.0,-64.21509,67.28027,-42.84668
1766497147490,-0.88964844,-0.37646484,0.1899414,10.253906,-0.61035156,-6.713867,0.0,0.0,0.0,-64.21509,67.28027,-42.84668
1766497147502,-0.88964844,-0.37646484,0.1899414,10.253906,-0.61035156,-6.713867,0.0,0.0,0.0,-64.088745,66.95068,-43.286133
1766497147590,-0.9326172,-0.34716797,0.17529297,3.6010742,-1.7089844,-5.065918,0.0,0.0,0.0,-64.088745,66.95068,-43.286133
1766497147602,-0.9326172,-0.34716797,0.17529297,3.6010742,-1.7089844,-5.065918,0.0,0.0,0.0,-63.495483,66.22009,-42.929077
1766497147690,-0.90234375,-0.3774414,0.17919922,6.4697266,-0.12207031,-4.8828125,0.0,0.0,0.0,-63.495483,66.22009,-42.929077
1766497147701,-0.90234375,-0.3774414,0.17919922,6.4697266,-0.12207031,-4.8828125,0.0,0.0,0.0,-63.45703,65.75867,-43.242188
1766497147789,-0.91748047,-0.3540039,0.22216797,3.9672852,-2.1972656,3.112793,0.0,0.0,0.0,-63.45703,65.75867,-43.242188
1766497147801,-0.91748047,-0.3540039,0.22216797,3.9672852,-2.1972656,3.112793,0.0,0.0,0.0,-62.29248,65.63782,-42.13806
1766497147889,-0.9321289,-0.4169922,0.15478516,-0.79345703,0.6713867,-3.4179688,0.0,0.0,0.0,-62.29248,65.63782,-42.13806
1766497147901,-0.9321289,-0.4169922,0.15478516,-0.79345703,0.6713867,-3.4179688,0.0,0.0,0.0,-62.523193,65.53894,-42.95105
1766497147989,-0.8774414,-0.36279297,0.19335938,-8.178711,-0.5493164,-4.211426,0.0,0.0,0.0,-62.523193,65.53894,-42.95105
1766497148001,-0.8774414,-0.36279297,0.19335938,-8.178711,-0.5493164,-4.211426,0.0,0.0,0.0,-63.050537,64.95117,-42.626953
1766497148089,-0.89697266,-0.33398438,0.19140625,-0.61035156,-1.953125,1.0375977,0.0,0.0,0.0,-63.050537,64.95117,-42.626953
1766497148101,-0.89697266,-0.33398438,0.19140625,-0.61035156,-1.953125,1.0375977,0.0,0.0,0.0,-63.270264,64.65454,-42.37976
1766497148188,-0.921875,-0.38330078,0.19433594,1.2817383,-1.5258789,3.2348633,0.0,0.0,0.0,-63.270264,64.65454,-42.37976
1766497148200,-0.921875,-0.38330078,0.19433594,1.2817383,-1.5258789,3.2348633,0.0,0.0,0.0,-62.08374,64.8468,-40.94055
1766497148288,-0.91552734,-0.3803711,0.16552734,-2.319336,-1.6479492,2.319336,0.0,0.0,0.0,-62.08374,64.8468,-40.94055
1766497148299,-0.91552734,-0.3803711,0.16552734,-2.319336,-1.6479492,2.319336,0.0,0.0,0.0,-61.77063,65.02258,-40.43518
1766497148388,-0.9008789,-0.38378906,0.21484375,-1.8310547,1.2817383,-0.48828125,0.0,0.0,0.0,-61.77063,65.02258,-40.43518
1766497148399,-0.9008789,-0.38378906,0.21484375,-1.8310547,1.2817383,-0.48828125,0.0,0.0,0.0,-62.34192,65.093994,-40.792236
1766497148487,-0.8989258,-0.38330078,0.20751953,-2.4414062,-5.2490234,-4.4555664,0.0,0.0,0.0,-62.34192,65.093994,-40.792236
1766497148499,-0.8989258,-0.38330078,0.20751953,-2.4414062,-5.2490234,-4.4555664,0.0,0.0,0.0,-62.144165,64.72046,-40.061646
1766497148587,-0.89990234,-0.32958984,0.18652344,2.319336,-5.7373047,0.36621094,0.0,0.0,0.0,-62.144165,64.72046,-40.061646
1766497148599,-0.89990234,-0.32958984,0.18652344,2.319336,-5.7373047,0.36621094,0.0,0.0,0.0,-61.237793,64.16565,-38.858643
1766497148687,-0.89746094,-0.35742188,0.2163086,-1.5869141,2.2583008,7.2631836,0.0,0.0,0.0,-61.237793,64.16565,-38.858643
1766497148698,-0.89746094,-0.35742188,0.2163086,-1.5869141,2.2583008,7.2631836,0.0,0.0,0.0,-60.95764,64.5282,-38.59497
1766497148787,-0.9111328,-0.38427734,0.21826172,-2.6245117,-1.3427734,4.5166016,0.0,0.0,0.0,-60.95764,64.5282,-38.59497
1766497148798,-0.9111328,-0.38427734,0.21826172,-2.6245117,-1.3427734,4.5166016,0.0,0.0,0.0,-60.24353,65.11047,-37.43042
1766497148886,-0.9111328,-0.36279297,0.1953125,0.79345703,0.30517578,-0.6713867,0.0,0.0,0.0,-60.24353,65.11047,-37.43042
1766497148898,-0.9111328,-0.36279297,0.1953125,0.79345703,0.30517578,-0.6713867,0.0,0.0,0.0,-60.01831,65.165405,-36.952515
1766497148986,-0.8935547,-0.38720703,0.22607422,-1.8920898,-1.0986328,-0.12207031,0.0,0.0,0.0,-60.01831,65.165405,-36.952515
1766497148998,-0.8935547,-0.38720703,0.22607422,-1.8920898,-1.0986328,-0.12207031,0.0,0.0,0.0,-60.3479,65.093994,-37.304077
1766497149086,-0.8925781,-0.35253906,0.20898438,-1.4038086,-1.2207031,-0.18310547,0.0,0.0,0.0,-60.3479,65.093994,-37.304077
1766497149097,-0.8925781,-0.35253906,0.20898438,-1.4038086,-1.2207031,-0.18310547,0.0,0.0,0.0,-59.699707,64.6875,-36.342773
1766497149185,-0.9121094,-0.3564453,0.22607422,-1.2817383,-4.8217773,4.9438477,0.0,0.0,0.0,-59.699707,64.6875,-36.342773
1766497149197,-0.9121094,-0.3564453,0.22607422,-1.2817383,-4.8217773,4.9438477,0.0,0.0,0.0,-59.067993,64.78088,-35.705566
1766497149285,-0.9189453,-0.35888672,0.23925781,-6.7749023,-2.9907227,8.972168,0.0,0.0,0.0,-59.067993,64.78088,-35.705566
1766497149297,-0.9189453,-0.35888672,0.23925781,-6.7749023,-2.9907227,8.972168,0.0,0.0,0.0,-57.980347,65.26428,-34.041138
1766497149385,-0.91259766,-0.35058594,0.22998047,-5.859375,2.5634766,5.9814453,0.0,0.0,0.0,-57.980347,65.26428,-34.041138
1766497149397,-0.91259766,-0.35058594,0.22998047,-5.859375,2.5634766,5.9814453,0.0,0.0,0.0,-57.425537,65.824585,-32.76123
1766497149484,-0.9042969,-0.35791016,0.19580078,-6.7749023,2.0751953,1.953125,0.0,0.0,0.0,-57.425537,65.824585,-32.76123
1766497149496,-0.9042969,-0.35791016,0.19580078,-6.7749023,2.0751953,1.953125,0.0,0.0,0.0,-57.963867,66.12671,-32.926025
1766497149584,-0.91308594,-0.32470703,0.21386719,-5.004883,-1.8920898,2.1972656,0.0,0.0,0.0,-57.963867,66.12671,-32.926025
1766497149596,-0.91308594,-0.32470703,0.21386719,-5.004883,-1.8920898,2.1972656,0.0,0.0,0.0,-58.35388,66.31348,-32.56897
1766497149684,-0.92041016,-0.33544922,0.19970703,-3.90625,-0.8544922,2.2583008,0.0,0.0,0.0,-58.35388,66.31348,-32.56897
1766497149696,-0.92041016,-0.33544922,0.19970703,-3.90625,-0.8544922,2.2583008,0.0,0.0,0.0,-58.397827,66.40686,-32.29431
1766497149784,-0.92041016,-0.32470703,0.2006836,-8.7890625,-0.30517578,3.7231445,0.0,0.0,0.0,-58.397827,66.40686,-32.29431
1766497149795,-0.92041016,-0.32470703,0.2006836,-8.7890625,-0.30517578,3.7231445,0.0,0.0,0.0,-58.76587,66.571655,-32.10205
1766497149883,-0.91552734,-0.35009766,0.20458984,-6.591797,3.4179688,1.8920898,0.0,0.0,0.0,-58.76587,66.571655,-32.10205
1766497149895,-0.91552734,-0.35009766,0.20458984,-6.591797,3.4179688,1.8920898,0.0,0.0,0.0,-59.3042,66.87927,-31.799927
1766497149983,-0.9243164,-0.32421875,0.17822266,-3.3569336,-4.3945312,1.8920898,0.0,0.0,0.0,-59.3042,66.87927,-31.799927
1766497149994,-0.9243164,-0.32421875,0.17822266,-3.3569336,-4.3945312,1.8920898,0.0,0.0,0.0,-59.72168,66.813354,-31.876831
1766497150083,-0.92333984,-0.34521484,0.20361328,1.0986328,-1.0375977,0.5493164,0.0,0.0,0.0,-59.72168,66.813354,-31.876831
1766497150094,-0.92333984,-0.34521484,0.20361328,1.0986328,-1.0375977,0.5493164,0.0,0.0,0.0,-59.666748,66.86279,-31.80542
1766497150182,-0.9238281,-0.33203125,0.1977539,0.0,1.5258789,0.8544922,0.0,0.0,0.0,-59.666748,66.86279,-31.80542
1766497150194,-0.9238281,-0.33203125,0.1977539,0.0,1.5258789,0.8544922,0.0,0.0,0.0,-59.23828,66.84631,-31.541748
1766497150282,-0.9135742,-0.33398438,0.20654297,-3.90625,-2.0141602,2.380371,0.0,0.0,0.0,-59.23828,66.84631,-31.541748
1766497150294,-0.9135742,-0.33398438,0.20654297,-3.90625,-2.0141602,2.380371,0.0,0.0,0.0,-59.232788,67.038574,-31.322021
1766497150382,-0.9135742,-0.35888672,0.20947266,4.5166016,1.2207031,-4.1503906,0.0,0.0,0.0,-59.232788,67.038574,-31.322021
1766497150394,-0.9135742,-0.35888672,0.20947266,4.5166016,1.2207031,-4.1503906,0.0,0.0,0.0,-59.00757,67.0166,-31.135254
1766497150482,-0.9267578,-0.3491211,0.20410156,-1.4038086,-2.1362305,-2.319336,0.0,0.0,0.0,-59.00757,67.0166,-31.135254
1766497150493,-0.9267578,-0.3491211,0.20410156,-1.4038086,-2.1362305,-2.319336,0.0,0.0,0.0,-59.01306,66.6156,-31.448364
1766497150581,-0.9111328,-0.33203125,0.20214844,-2.5024414,1.2207031,-2.6245117,0.0,0.0,0.0,-59.01306,66.6156,-31.448364
1766497150593,-0.9111328,-0.33203125,0.20214844,-2.5024414,1.2207031,-2.6245117,0.0,0.0,0.0,-59.61731,66.36841,-32.052612
1766497150681,-0.91503906,-0.3466797,0.18408203,0.4272461,1.8920898,-6.1035156,0.0,0.0,0.0,-59.61731,66.36841,-32.052612
1766497150693,-0.91503906,-0.3466797,0.18408203,0.4272461,1.8920898,-6.1035156,0.0,0.0,0.0,-60.62805,66.12671,-33.167725
1766497150781,-0.9326172,-0.33935547,0.19921875,-4.0893555,2.380371,-2.4414062,0.0,0.0,0.0,-60.62805,66.12671,-33.167725
1766497150793,-0.9326172,-0.33935547,0.19921875,-4.0893555,2.380371,-2.4414062,0.0,0.0,0.0,-61.776123,65.945435,-34.348755
1766497150880,-0.9213867,-0.35302734,0.1850586,-3.540039,7.6904297,-1.3427734,0.0,0.0,0.0,-61.776123,65.945435,-34.348755
1766497150893,-0.9213867,-0.35302734,0.1850586,-3.540039,7.6904297,-1.3427734,0.0,0.0,0.0,-63.270264,66.11572,-35.60669
1766497150980,-0.9038086,-0.36523438,0.17236328,-6.4697266,2.746582,-1.7089844,0.0,0.0,0.0,-63.270264,66.11572,-35.60669
1766497150992,-0.9038086,-0.36523438,0.17236328,-6.4697266,2.746582,-1.7089844,0.0,0.0,0.0,-64.96216,66.22009,-36.90857
1766497151080,-0.9121094,-0.35742188,0.1538086,-0.18310547,2.9907227,-2.4414062,0.0,0.0,0.0,-64.96216,66.22009,-36.90857
1766497151091,-0.9121094,-0.35742188,0.1538086,-0.18310547,2.9907227,-2.4414062,0.0,0.0,0.0,-65.87952,66.11572,-37.556763
1766497151180,-0.91259766,-0.42138672,0.14501953,-2.0141602,4.0893555,-5.7373047,0.0,0.0,0.0,-65.87952,66.11572,-37.556763
1766497151191,-0.91259766,-0.42138672,0.14501953,-2.0141602,4.0893555,-5.7373047,0.0,0.0,0.0,-67.23633,65.90698,-38.913574
1766497151280,-0.89697266,-0.38427734,0.14550781,-5.3100586,-0.24414062,-9.887695,0.0,0.0,0.0,-67.23633,65.90698,-38.913574
1766497151291,-0.89697266,-0.38427734,0.14550781,-5.3100586,-0.24414062,-9.887695,0.0,0.0,0.0,-68.58215,65.03357,-39.902344
1766497151379,-0.9086914,-0.37451172,0.14892578,-3.7841797,2.9296875,-4.638672,0.0,0.0,0.0,-68.58215,65.03357,-39.902344
1766497151390,-0.9086914,-0.37451172,0.14892578,-3.7841797,2.9296875,-4.638672,0.0,0.0,0.0,-69.69177,64.48425,-40.69336
1766497151479,-0.9296875,-0.4296875,0.12939453,-3.4179688,1.2207031,-9.82666,0.0,0.0,0.0,-69.69177,64.48425,-40.69336
1766497151490,-0.9296875,-0.4296875,0.12939453,-3.4179688,1.2207031,-9.82666,0.0,0.0,0.0,-71.07605,63.967896,-41.956787
1766497151578,-0.8613281,-0.41796875,0.12402344,-6.591797,5.1879883,-0.9765625,0.0,0.0,0.0,-71.07605,63.967896,-41.956787
1766497151590,-0.8613281,-0.41796875,0.12402344,-6.591797,5.1879883,-0.9765625,0.0,0.0,0.0,-72.57019,63.479004,-43.033447
1766497151678,-0.8979492,-0.43701172,0.123535156,-4.638672,5.126953,3.112793,0.0,0.0,0.0,-72.57019,63.479004,-43.033447
1766497151690,-0.8979492,-0.43701172,0.123535156,-4.638672,5.126953,3.112793,0.0,0.0,0.0,-74.18518,63.89099,-44.121094
1766497151778,-0.88671875,-0.4638672,0.09472656,-5.3100586,2.5024414,-0.36621094,0.0,0.0,0.0,-74.18518,63.89099,-44.121094
1766497151790,-0.88671875,-0.4638672,0.09472656,-5.3100586,2.5024414,-0.36621094,0.0,0.0,0.0,-75.71228,64.072266,-45.368042
1766497151878,-0.8911133,-0.40527344,0.079589844,-2.380371,-2.6855469,0.7324219,0.0,0.0,0.0,-75.71228,64.072266,-45.368042
1766497151890,-0.8911133,-0.40527344,0.079589844,-2.380371,-2.6855469,0.7324219,0.0,0.0,0.0,-75.789185,63.912964,-44.989014
1766497151977,-0.90966797,-0.4267578,0.09082031,-2.6855469,-4.0893555,6.286621,0.0,0.0,0.0,-75.789185,63.912964,-44.989014
1766497151989,-0.90966797,-0.4267578,0.09082031,-2.6855469,-4.0893555,6.286621,0.0,0.0,0.0,-75.49255,64.25354,-44.571533
1766497152077,-0.88720703,-0.41064453,0.111328125,-3.2958984,-3.479004,7.019043,0.0,0.0,0.0,-75.49255,64.25354,-44.571533
1766497152088,-0.88720703,-0.41064453,0.111328125,-3.2958984,-3.479004,7.019043,0.0,0.0,0.0,-74.729004,64.8468,-43.28064
1766497152177,-0.90625,-0.35107422,0.12988281,9.887695,-6.1035156,8.422852,0.0,0.0,0.0,-74.729004,64.8468,-43.28064
1766497152188,-0.90625,-0.35107422,0.12988281,9.887695,-6.1035156,8.422852,0.0,0.0,0.0,-72.83386,65.53345,-41.59424
1766497152276,-0.9370117,-0.4013672,0.15039062,12.6953125,-2.1972656,8.300781,0.0,0.0,0.0,-72.83386,65.53345,-41.59424
1766497152288,-0.9370117,-0.4013672,0.15039062,12.6953125,-2.1972656,8.300781,0.0,0.0,0.0,-70.180664,66.17615,-40.325317
1766497152376,-0.90771484,-0.42285156,0.15039062,1.7089844,-1.2817383,-2.5634766,0.0,0.0,0.0,-70.180664,66.17615,-40.325317
1766497152388,-0.90771484,-0.42285156,0.15039062,1.7089844,-1.2817383,-2.5634766,0.0,0.0,0.0,-69.4281,66.46179,-40.05066
1766497152476,-0.9272461,-0.38427734,0.119140625,1.953125,3.90625,-2.0751953,0.0,0.0,0.0,-69.4281,66.46179,-40.05066
1766497152487,-0.9272461,-0.38427734,0.119140625,1.953125,3.90625,-2.0751953,0.0,0.0,0.0,-69.43359,66.1322,-40.127563
1766497152575,-0.8881836,-0.359375,0.13623047,0.7324219,-7.2021484,-1.0986328,0.0,0.0,0.0,-69.43359,66.1322,-40.127563
1766497152587,-0.8881836,-0.359375,0.13623047,0.7324219,-7.2021484,-1.0986328,0.0,0.0,0.0,-69.34021,65.83008,-40.237427
1766497152675,-0.8911133,-0.38085938,0.16552734,0.0,-6.958008,4.8828125,0.0,0.0,0.0,-69.34021,65.83008,-40.237427
1766497152687,-0.8911133,-0.38085938,0.16552734,0.0,-6.958008,4.8828125,0.0,0.0,0.0,-67.736206,65.81909,-38.59497
1766497152775,-0.94091797,-0.4140625,0.15527344,-4.4555664,-0.7324219,-1.2817383,0.0,0.0,0.0,-67.736206,65.81909,-38.59497
1766497152787,-0.94091797,-0.4140625,0.15527344,-4.4555664,-0.7324219,-1.2817383,0.0,0.0,0.0,-66.38489,65.84656,-37.089844
1766497152875,-0.9370117,-0.28857422,0.16455078,-6.164551,2.746582,3.479004,0.0,0.0,0.0,-66.38489,65.84656,-37.089844
1766497152886,-0.9370117,-0.28857422,0.16455078,-6.164551,2.746582,3.479004,0.0,0.0,0.0,-67.34619,65.928955,-37.781982
1766497152974,-0.8979492,-0.3466797,0.1640625,-2.4414062,2.9907227,-1.4648438,0.0,0.0,0.0,-67.34619,65.928955,-37.781982
1766497152986,-0.8979492,-0.3466797,0.1640625,-2.4414062,2.9907227,-1.4648438,0.0,0.0,0.0,-68.774414,66.01135,-39.561768
1766497153074,-0.9394531,-0.38476562,0.122558594,4.8217773,8.483887,-3.0517578,0.0,0.0,0.0,-68.774414,66.01135,-39.561768
1766497153086,-0.9394531,-0.38476562,0.122558594,4.8217773,8.483887,-3.0517578,0.0,0.0,0.0,-68.87329,66.18164,-39.578247
1766497153174,-0.89208984,-0.39208984,0.13964844,-5.432129,1.3427734,1.0986328,0.0,0.0,0.0,-68.87329,66.18164,-39.578247
1766497153185,-0.89208984,-0.39208984,0.13964844,-5.432129,1.3427734,1.0986328,0.0,0.0,0.0,-70.85632,66.450806,-41.643677
1766497153274,-0.91845703,-0.3798828,0.114746094,-1.5258789,-0.48828125,-0.24414062,0.0,0.0,0.0,-70.85632,66.450806,-41.643677
1766497153285,-0.91845703,-0.3798828,0.114746094,-1.5258789,-0.48828125,-0.24414062,0.0,0.0,0.0,-70.944214,66.395874,-41.396484
1766497153373,-0.9116211,-0.40185547,0.11376953,2.5024414,3.8452148,-2.380371,0.0,0.0,0.0,-70.944214,66.395874,-41.396484
1766497153385,-0.9116211,-0.40185547,0.11376953,2.5024414,3.8452148,-2.380371,0.0,0.0,0.0,-71.570435,66.35742,-42.165527
1766497153473,-0.9067383,-0.3803711,0.08886719,-3.4179688,-3.2958984,2.1972656,0.0,0.0,0.0,-71.570435,66.35742,-42.165527
1766497153484,-0.9067383,-0.3803711,0.08886719,-3.4179688,-3.2958984,2.1972656,0.0,0.0,0.0,-71.70227,66.242065,-42.176514
1766497153573,-0.93359375,-0.4321289,0.118652344,-1.2207031,-1.2207031,-6.7749023,0.0,0.0,0.0,-71.70227,66.242065,-42.176514
1766497153584,-0.93359375,-0.4321289,0.118652344,-1.2207031,-1.2207031,-6.7749023,0.0,0.0,0.0,-71.55945,66.11572,-41.775513
1766497153672,-0.91503906,-0.328125,0.15478516,-4.333496,-2.380371,-1.7700195,0.0,0.0,0.0,-71.55945,66.11572,-41.775513
1766497153684,-0.91503906,-0.328125,0.15478516,-4.333496,-2.380371,-1.7700195,0.0,0.0,0.0,-72.1637,65.319214,-42.269897
1766497153772,-0.93359375,-0.40673828,0.10888672,2.9907227,10.864258,-5.004883,0.0,0.0,0.0,-72.1637,65.319214,-42.269897
1766497153783,-0.93359375,-0.40673828,0.10888672,2.9907227,10.864258,-5.004883,0.0,0.0,0.0,-73.24036,65.11047,-43.725586
1766497153872,-0.9135742,-0.4008789,0.08642578,-4.638672,6.7749023,-1.5869141,0.0,0.0,0.0,-73.24036,65.11047,-43.725586
1766497153883,-0.9135742,-0.4008789,0.08642578,-4.638672,6.7749023,-1.5869141,0.0,0.0,0.0,-75.15747,65.11047,-45.67566
1766497153972,-0.91259766,-0.40820312,0.088378906,-6.0424805,9.887695,1.4038086,0.0,0.0,0.0,-75.15747,65.11047,-45.67566
1766497153983,-0.91259766,-0.40820312,0.088378906,-6.0424805,9.887695,1.4038086,0.0,0.0,0.0,-77.3822,65.29724,-47.614746
1766497154071,-0.9003906,-0.41259766,0.091796875,-4.4555664,8.178711,-0.18310547,0.0,0.0,0.0,-77.3822,65.29724,-47.614746
1766497154083,-0.9003906,-0.41259766,0.091796875,-4.4555664,8.178711,-0.18310547,0.0,0.0,0.0,-79.72778,65.54443,-49.614258
1766497154171,-0.9033203,-0.4038086,0.052246094,-2.6245117,6.3476562,-1.0375977,0.0,0.0,0.0,-79.72778,65.54443,-49.614258
1766497154182,-0.9033203,-0.4038086,0.052246094,-2.6245117,6.3476562,-1.0375977,0.0,0.0,0.0,-81.45264,65.527954,-51.1084
1766497154271,-0.89453125,-0.39697266,0.063964844,2.319336,2.8686523,1.0375977,0.0,0.0,0.0,-81.45264,65.527954,-51.1084
1766497154283,-0.89453125,-0.39697266,0.063964844,2.319336,2.8686523,1.0375977,0.0,0.0,0.0,-82.51831,65.5719,-52.20703
1766497154370,-0.9091797,-0.42089844,0.057617188,3.2958984,-1.4038086,1.2207031,0.0,0.0,0.0,-82.51831,65.5719,-52.20703
1766497154382,-0.9091797,-0.42089844,0.057617188,3.2958984,-1.4038086,1.2207031,0.0,0.0,0.0,-82.040405,65.64331,-52.08069
1766497154470,-0.91503906,-0.40576172,0.05126953,1.4648438,-0.61035156,2.746582,0.0,0.0,0.0,-82.040405,65.64331,-52.08069
1766497154482,-0.91503906,-0.40576172,0.05126953,1.4648438,-0.61035156,2.746582,0.0,0.0,0.0,-81.45813,65.791626,-51.635742
1766497154570,-0.9301758,-0.40771484,0.05126953,-1.0375977,1.0375977,4.3945312,0.0,0.0,0.0,-81.45813,65.791626,-51.635742
1766497154581,-0.9301758,-0.40771484,0.05126953,-1.0375977,1.0375977,4.3945312,0.0,0.0,0.0,-81.40869,66.14868,-51.52588
1766497154669,-0.9160156,-0.3930664,0.060058594,-1.6479492,1.8920898,2.0141602,0.0,0.0,0.0,-81.40869,66.14868,-51.52588
1766497154681,-0.9160156,-0.3930664,0.060058594,-1.6479492,1.8920898,2.0141602,0.0,0.0,0.0,-81.98547,66.47278,-51.844482
1766497154769,-0.9165039,-0.3852539,0.04638672,0.7324219,2.5024414,2.0751953,0.0,0.0,0.0,-81.98547,66.47278,-51.844482
1766497154782,-0.9165039,-0.3852539,0.04638672,0.7324219,2.5024414,2.0751953,0.0,0.0,0.0,-82.34253,66.63208,-52.1521
1766497154869,-0.9267578,-0.37402344,0.052734375,1.2207031,1.3427734,1.5258789,0.0,0.0,0.0,-82.34253,66.63208,-52.1521
1766497154881,-0.9267578,-0.37402344,0.052734375,1.2207031,1.3427734,1.5258789,0.0,0.0,0.0,-82.60071,66.80786,-52.388306
1766497154969,-0.94140625,-0.37304688,0.029296875,2.5634766,1.6479492,2.1362305,0.0,0.0,0.0,-82.60071,66.80786,-52.388306
1766497154980,-0.94140625,-0.37304688,0.029296875,2.5634766,1.6479492,2.1362305,0.0,0.0,0.0,-82.79297,67.0166,-52.81128
1766497155068,-0.9145508,-0.37548828,0.04736328,6.958008,4.8217773,-0.30517578,0.0,0.0,0.0,-82.79297,67.0166,-52.81128
1766497155080,-0.9145508,-0.37548828,0.04736328,6.958008,4.8217773,-0.30517578,0.0,0.0,0.0,-83.23242,67.20337,-53.761597
1766497155168,-0.8779297,-0.40283203,0.027832031,0.79345703,2.6855469,1.0375977,0.0,0.0,0.0,-83.23242,67.20337,-53.761597
1766497155180,-0.8779297,-0.40283203,0.027832031,0.79345703,2.6855469,1.0375977,0.0,0.0,0.0,-83.567505,67.368164,-54.470215
1766497155268,-0.9213867,-0.3779297,0.04736328,-8.422852,-8.850098,-4.3945312,0.0,0.0,0.0,-83.567505,67.368164,-54.470215
1766497155279,-0.9213867,-0.3779297,0.04736328,-8.422852,-8.850098,-4.3945312,0.0,0.0,0.0,-83.2489,67.099,-53.239746
1766497155368,-0.94189453,-0.36376953,0.049316406,5.554199,-0.4272461,-6.4697266,0.0,0.0,0.0,-83.2489,67.099,-53.239746
1766497155379,-0.94189453,-0.36376953,0.049316406,5.554199,-0.4272461,-6.4697266,0.0,0.0,0.0,-82.507324,66.395874,-52.349854
1766497155467,-0.9296875,-0.40576172,0.049804688,2.380371,1.4648438,-4.0283203,0.0,0.0,0.0,-82.507324,66.395874,-52.349854
1766497155479,-0.9296875,-0.40576172,0.049804688,2.380371,1.4648438,-4.0283203,0.0,0.0,0.0,-82.34802,66.02234,-52.48169
1766497155567,-0.8984375,-0.41259766,0.052734375,0.4272461,-0.7324219,-1.7089844,0.0,0.0,0.0,-82.34802,66.02234,-52.48169
1766497155578,-0.8984375,-0.41259766,0.052734375,0.4272461,-0.7324219,-1.7089844,0.0,0.0,0.0,-82.18872,65.8136,-52.322388
1766497155667,-0.90625,-0.4091797,0.06298828,0.0,0.18310547,-1.2817383,0.0,0.0,0.0,-82.18872,65.8136,-52.322388
1766497155678,-0.90625,-0.4091797,0.06298828,0.0,0.18310547,-1.2817383,0.0,0.0,0.0,-82.282104,65.687256,-52.371826
1766497155766,-0.9116211,-0.42138672,0.04248047,0.12207031,4.0893555,-2.380371,0.0,0.0,0.0,-82.282104,65.687256,-52.371826
1766497155778,-0.9116211,-0.42138672,0.04248047,0.12207031,4.0893555,-2.380371,0.0,0.0,0.0,-82.6062,65.478516,-52.76184
1766497155866,-0.91552734,-0.41455078,0.03515625,-1.2817383,4.8217773,-0.79345703,0.0,0.0,0.0,-82.6062,65.478516,-52.76184
1766497155878,-0.91552734,-0.41455078,0.03515625,-1.2817383,4.8217773,-0.79345703,0.0,0.0,0.0,-83.8147,65.34668,-53.87146
1766497155966,-0.91308594,-0.41357422,0.029296875,-1.5258789,5.065918,0.0,0.0,0.0,0.0,-83.8147,65.34668,-53.87146
1766497155977,-0.91308594,-0.41357422,0.029296875,-1.5258789,5.065918,0.0,0.0,0.0,0.0,-85.1001,65.319214,-55.096436
1766497156065,-0.90283203,-0.40966797,0.037597656,-0.9765625,2.9907227,-0.30517578,0.0,0.0,0.0,-85.1001,65.319214,-55.096436
1766497156077,-0.90283203,-0.40966797,0.037597656,-0.9765625,2.9907227,-0.30517578,0.0,0.0,0.0,-86.09436,65.30823,-55.958862
1766497156165,-0.90771484,-0.4140625,0.024414062,0.91552734,-0.36621094,-0.12207031,0.0,0.0,0.0,-86.09436,65.30823,-55.958862
1766497156177,-0.90771484,-0.4140625,0.024414062,0.91552734,-0.36621094,-0.12207031,0.0,0.0,0.0,-86.20422,65.30823,-55.99182
1766497156265,-0.9086914,-0.41259766,0.028808594,2.0141602,-1.8920898,-0.061035156,0.0,0.0,0.0,-86.20422,65.30823,-55.99182
1766497156276,-0.9086914,-0.41259766,0.028808594,2.0141602,-1.8920898,-0.061035156,0.0,0.0,0.0,-85.78125,65.29724,-55.585327
1766497156364,-0.9135742,-0.4194336,0.0234375,1.0375977,-2.746582,0.0,0.0,0.0,0.0,-85.78125,65.29724,-55.585327
1766497156376,-0.9135742,-0.4194336,0.0234375,1.0375977,-2.746582,0.0,0.0,0.0,0.0,-85.14404,65.25879,-55.008545
1766497156464,-0.9121094,-0.41552734,0.03125,0.7324219,-1.4038086,0.0,0.0,0.0,0.0,-85.14404,65.25879,-55.008545
1766497156476,-0.9121094,-0.41552734,0.03125,0.7324219,-1.4038086,0.0,0.0,0.0,0.0,-84.77051,65.22034,-54.5636
1766497156564,-0.90771484,-0.41845703,0.03173828,0.91552734,0.24414062,-0.061035156,0.0,0.0,0.0,-84.77051,65.22034,-54.5636
1766497156575,-0.90771484,-0.41845703,0.03173828,0.91552734,0.24414062,-0.061035156,0.0,0.0,0.0,-84.58374,65.22034,-54.343872
1766497156664,-0.91259766,-0.4194336,0.027832031,-0.36621094,-1.7700195,0.5493164,0.0,0.0,0.0,-84.58374,65.22034,-54.343872
1766497156675,-0.91259766,-0.4194336,0.027832031,-0.36621094,-1.7700195,0.5493164,0.0,0.0,0.0,-84.39697,65.20386,-54.0802
1766497156763,-0.91064453,-0.4165039,0.036132812,0.061035156,0.0,0.24414062,0.0,0.0,0.0,-84.39697,65.20386,-54.0802
1766497156775,-0.91064453,-0.4165039,0.036132812,0.061035156,0.0,0.24414062,0.0,0.0,0.0,-84.39148,65.22583,-53.970337
1766497156863,-0.9082031,-0.41259766,0.037597656,-0.36621094,-0.18310547,0.061035156,0.0,0.0,0.0,-84.39148,65.22583,-53.970337
1766497156875,-0.9082031,-0.41259766,0.037597656,-0.36621094,-0.18310547,0.061035156,0.0,0.0,0.0,-84.36951,65.23132,-53.860474
1766497156963,-0.91015625,-0.4140625,0.03857422,0.24414062,-0.36621094,0.18310547,0.0,0.0,0.0,-84.36951,65.23132,-53.860474
1766497156975,-0.91015625,-0.4140625,0.03857422,0.24414062,-0.36621094,0.18310547,0.0,0.0,0.0,-84.314575,65.24231,-53.71216
1766497157062,-0.90966797,-0.41601562,0.0390625,-0.18310547,0.18310547,0.0,0.0,0.0,0.0,-84.314575,65.24231,-53.71216
1766497157074,-0.90966797,-0.41601562,0.0390625,-0.18310547,0.18310547,0.0,0.0,0.0,0.0,-84.30359,65.23682,-53.657227
1766497157162,-0.9121094,-0.41455078,0.04248047,0.6713867,-0.24414062,0.0,0.0,0.0,0.0,-84.30359,65.23682,-53.657227
1766497157174,-0.9121094,-0.41455078,0.04248047,0.6713867,-0.24414062,0.0,0.0,0.0,0.0,-84.28162,65.23682,-53.602295
1766497157262,-0.9140625,-0.41796875,0.03857422,0.12207031,-0.36621094,0.18310547,0.0,0.0,0.0,-84.28162,65.23682,-53.602295
1766497157274,-0.9140625,-0.41796875,0.03857422,0.12207031,-0.36621094,0.18310547,0.0,0.0,0.0,-84.03992,65.24231,-53.31665
1766497157362,-0.91259766,-0.41455078,0.04345703,0.061035156,0.7324219,-0.24414062,0.0,0.0,0.0,-84.03992,65.24231,-53.31665
1766497157373,-0.91259766,-0.41455078,0.04345703,0.061035156,0.7324219,-0.24414062,0.0,0.0,0.0,-84.122314,65.22583,-53.399048
1766497157461,-0.9116211,-0.41552734,0.04638672,0.0,-0.24414062,-0.36621094,0.0,0.0,0.0,-84.122314,65.22583,-53.399048
1766497157473,-0.9116211,-0.41552734,0.04638672,0.0,-0.24414062,-0.36621094,0.0,0.0,0.0,-84.27063,65.1709,-53.580322
1766497157561,-0.9042969,-0.40820312,0.048828125,-0.18310547,1.5258789,0.0,0.0,0.0,0.0,-84.27063,65.1709,-53.580322
1766497157573,-0.9042969,-0.40820312,0.048828125,-0.18310547,1.5258789,0.0,0.0,0.0,0.0,-84.30359,65.165405,-53.547363
1766497157661,-0.91552734,-0.4169922,0.047851562,1.0375977,3.2958984,-0.36621094,0.0,0.0,0.0,-84.30359,65.165405,-53.547363
1766497157672,-0.91552734,-0.4169922,0.047851562,1.0375977,3.2958984,-0.36621094,0.0,0.0,0.0,-84.56726,65.17639,-53.833008
1766497157760,-0.90625,-0.41796875,0.023925781,-0.18310547,1.8310547,-0.7324219,0.0,0.0,0.0,-84.56726,65.17639,-53.833008
1766497157773,-0.90625,-0.41796875,0.023925781,-0.18310547,1.8310547,-0.7324219,0.0,0.0,0.0,-85.006714,65.12146,-54.387817
1766497157860,-0.9033203,-0.4165039,0.03564453,-1.4038086,-1.4648438,0.6713867,0.0,0.0,0.0,-85.006714,65.12146,-54.387817
1766497157872,-0.9033203,-0.4165039,0.03564453,-1.4038086,-1.4648438,0.6713867,0.0,0.0,0.0,-85.177,65.11597,-54.44275
1766497157960,-0.9013672,-0.41259766,0.041992188,-0.6713867,-1.7700195,0.4272461,0.0,0.0,0.0,-85.177,65.11597,-54.44275
1766497157971,-0.9013672,-0.41259766,0.041992188,-0.6713867,-1.7700195,0.4272461,0.0,0.0,0.0,-84.84741,65.13794,-53.90442
1766497158059,-0.9091797,-0.41259766,0.044921875,-0.36621094,-0.4272461,0.0,0.0,0.0,0.0,-84.84741,65.13794,-53.90442
1766497158071,-0.9091797,-0.41259766,0.044921875,-0.36621094,-0.4272461,0.0,0.0,0.0,0.0,-84.54529,65.14343,-53.48694
1766497158159,-0.9091797,-0.41552734,0.041015625,-0.91552734,0.24414062,0.24414062,0.0,0.0,0.0,-84.54529,65.14343,-53.48694
1766497158171,-0.9091797,-0.41552734,0.041015625,-0.91552734,0.24414062,0.24414062,0.0,0.0,0.0,-84.50134,65.13794,-53.393555
1766497158259,-0.90966797,-0.41552734,0.04296875,-1.0375977,-0.6713867,0.30517578,0.0,0.0,0.0,-84.50134,65.13794,-53.393555
1766497158270,-0.90966797,-0.41552734,0.04296875,-1.0375977,-0.6713867,0.30517578,0.0,0.0,0.0,-84.47937,65.181885,-53.256226
1766497158359,-0.90722656,-0.40966797,0.05078125,0.8544922,0.4272461,-0.12207031,0.0,0.0,0.0,-84.47937,65.181885,-53.256226
1766497158370,-0.90722656,-0.40966797,0.05078125,0.8544922,0.4272461,-0.12207031,0.0,0.0,0.0,-84.40796,65.17639,-53.151855
1766497158458,-0.9121094,-0.41845703,0.040527344,1.7089844,0.12207031,-0.48828125,0.0,0.0,0.0,-84.40796,65.17639,-53.151855
1766497158470,-0.9121094,-0.41845703,0.040527344,1.7089844,0.12207031,-0.48828125,0.0,0.0,0.0,-84.177246,65.15991,-53.041992
1766497158558,-0.90722656,-0.41455078,0.041015625,0.0,0.8544922,-0.061035156,0.0,0.0,0.0,-84.177246,65.15991,-53.041992
1766497158569,-0.90722656,-0.41455078,0.041015625,0.0,0.8544922,-0.061035156,0.0,0.0,0.0,-84.14978,65.12695,-53.069458
1766497158658,-0.9135742,-0.41015625,0.03857422,-0.48828125,0.91552734,0.48828125,0.0,0.0,0.0,-84.14978,65.12695,-53.069458
1766497158670,-0.9135742,-0.41015625,0.03857422,-0.48828125,0.91552734,0.48828125,0.0,0.0,0.0,-84.23767,65.165405,-53.069458
1766497158757,-0.90625,-0.41503906,0.04248047,0.6713867,0.0,-0.061035156,0.0,0.0,0.0,-84.23767,65.165405,-53.069458
1766497158769,-0.90625,-0.41503906,0.04248047,0.6713867,0.0,-0.061035156,0.0,0.0,0.0,-84.39697,65.181885,-53.26172
1766497158857,-0.91259766,-0.41455078,0.040039062,0.24414062,0.0,0.0,0.0,0.0,0.0,-84.39697,65.181885,-53.26172
1766497158869,-0.91259766,-0.41455078,0.040039062,0.24414062,0.0,0.0,0.0,0.0,0.0,-84.25415,65.181885,-53.096924
1766497158957,-0.91064453,-0.41503906,0.036621094,-0.12207031,-0.48828125,0.30517578,0.0,0.0,0.0,-84.25415,65.181885,-53.096924
1766497158968,-0.91064453,-0.41503906,0.036621094,-0.12207031,-0.48828125,0.30517578,0.0,0.0,0.0,-84.177246,65.1709,-53.014526
1766497159057,-0.9067383,-0.41308594,0.046875,0.18310547,1.159668,-0.18310547,0.0,0.0,0.0,-84.177246,65.1709,-53.014526
1766497159068,-0.9067383,-0.41308594,0.046875,0.18310547,1.159668,-0.18310547,0.0,0.0,0.0,-84.23767,65.17639,-53.0365
1766497159156,-0.91308594,-0.41796875,0.030273438,-1.2207031,-1.159668,0.6713867,0.0,0.0,0.0,-84.23767,65.17639,-53.0365
1766497159168,-0.91308594,-0.41796875,0.030273438,-1.2207031,-1.159668,0.6713867,0.0,0.0,0.0,-84.16626,65.181885,-52.910156
1766497159256,-0.9091797,-0.41259766,0.038085938,-0.48828125,0.061035156,0.36621094,0.0,0.0,0.0,-84.16626,65.181885,-52.910156
1766497159268,-0.9091797,-0.41259766,0.038085938,-0.48828125,0.061035156,0.36621094,0.0,0.0,0.0,-84.331055,65.20935,-52.992554
1766497159356,-0.90722656,-0.41357422,0.0390625,-0.24414062,0.18310547,0.30517578,0.0,0.0,0.0,-84.331055,65.20935,-52.992554
1766497159368,-0.90722656,-0.41357422,0.0390625,-0.24414062,0.18310547,0.30517578,0.0,0.0,0.0,-84.418945,65.23682,-53.041992
1766497159455,-0.9135742,-0.41552734,0.03564453,-0.30517578,0.0,0.4272461,0.0,0.0,0.0,-84.418945,65.23682,-53.041992
1766497159467,-0.9135742,-0.41552734,0.03564453,-0.30517578,0.0,0.4272461,0.0,0.0,0.0,-84.44092,65.27527,-52.97058
1766497159555,-0.90966797,-0.41210938,0.040527344,0.24414062,0.8544922,-0.30517578,0.0,0.0,0.0,-84.44092,65.27527,-52.97058
1766497159567,-0.90966797,-0.41210938,0.040527344,0.24414062,0.8544922,-0.30517578,0.0,0.0,0.0,-84.58923,65.27527,-53.12439
1766497159655,-0.91064453,-0.41259766,0.037109375,-0.18310547,-0.18310547,0.061035156,0.0,0.0,0.0,-84.58923,65.27527,-53.12439
1766497159667,-0.91064453,-0.41259766,0.037109375,-0.18310547,-0.18310547,0.061035156,0.0,0.0,0.0,-84.63867,65.26428,-53.168335
1766497159755,-0.9116211,-0.41259766,0.037597656,0.18310547,0.6713867,0.0,0.0,0.0,0.0,-84.63867,65.26428,-53.168335
1766497159766,-0.9116211,-0.41259766,0.037597656,0.18310547,0.6713867,0.0,0.0,0.0,0.0,-84.6936,65.269775,-53.1958
1766497159854,-0.91064453,-0.41357422,0.03466797,0.7324219,0.4272461,-0.24414062,0.0,0.0,0.0,-84.6936,65.269775,-53.1958
1766497159866,-0.91064453,-0.41357422,0.03466797,0.7324219,0.4272461,-0.24414062,0.0,0.0,0.0,-84.75952,65.27527,-53.26172
1766497159954,-0.91503906,-0.41601562,0.036132812,0.6713867,-0.24414062,-0.12207031,0.0,0.0,0.0,-84.75952,65.27527,-53.26172
1766497159966,-0.91503906,-0.41601562,0.036132812,0.6713867,-0.24414062,-0.12207031,0.0,0.0,0.0,-84.87488,65.23682,-53.432007
1766497160054,-0.91015625,-0.41064453,0.03955078,0.12207031,0.61035156,-0.061035156,0.0,0.0,0.0,-84.87488,65.23682,-53.432007
1766497160065,-0.91015625,-0.41064453,0.03955078,0.12207031,0.61035156,-0.061035156,0.0,0.0,0.0,-84.89685,65.253296,-53.399048
1766497160153,-0.9116211,-0.41503906,0.034179688,-0.18310547,-0.061035156,0.0,0.0,0.0,0.0,-84.89685,65.253296,-53.399048
1766497160165,-0.9116211,-0.41503906,0.034179688,-0.18310547,-0.061035156,0.0,0.0,0.0,0.0,-84.95178,65.24231,-53.47046
1766497160253,-0.91015625,-0.4116211,0.036132812,0.30517578,-0.6713867,0.24414062,0.0,0.0,0.0,-84.95178,65.24231,-53.47046
1766497160265,-0.91015625,-0.4116211,0.036132812,0.30517578,-0.6713867,0.24414062,0.0,0.0,0.0,-84.88037,65.2478,-53.355103
1766497160353,-0.90966797,-0.41552734,0.03515625,-0.12207031,0.12207031,-0.12207031,0.0,0.0,0.0,-84.88037,65.2478,-53.355103
1766497160364,-0.90966797,-0.41552734,0.03515625,-0.12207031,0.12207031,-0.12207031,0.0,0.0,0.0,-84.836426,65.24231,-53.33313
1766497160453,-0.9116211,-0.40966797,0.037109375,0.12207031,0.0,0.061035156,0.0,0.0,0.0,-84.836426,65.24231,-53.33313
1766497160464,-0.9116211,-0.40966797,0.037109375,0.12207031,0.0,0.061035156,0.0,0.0,0.0,-84.852905,65.24231,-53.30017
1766497160552,-0.91064453,-0.41503906,0.03955078,0.061035156,0.0,-0.12207031,0.0,0.0,0.0,-84.852905,65.24231,-53.30017
1766497160564,-0.91064453,-0.41503906,0.03955078,0.061035156,0.0,-0.12207031,0.0,0.0,0.0,-84.81445,65.23132,-53.2782
1766497160652,-0.91308594,-0.41210938,0.044433594,-0.18310547,0.36621094,0.0,0.0,0.0,0.0,-84.81445,65.23132,-53.2782
1766497160663,-0.91308594,-0.41210938,0.044433594,-0.18310547,0.36621094,0.0,0.0,0.0,0.0,-84.78699,65.22583,-53.22876
1766497160752,-0.91259766,-0.41357422,0.044433594,0.5493164,-0.36621094,-0.48828125,0.0,0.0,0.0,-84.78699,65.22583,-53.22876
1766497160763,-0.91259766,-0.41357422,0.044433594,0.5493164,-0.36621094,-0.48828125,0.0,0.0,0.0,-84.660645,65.21484,-53.17383
1766497160851,-0.9082031,-0.41064453,0.04248047,-0.12207031,1.3427734,-0.30517578,0.0,0.0,0.0,-84.660645,65.21484,-53.17383
1766497160863,-0.9082031,-0.41064453,0.04248047,-0.12207031,1.3427734,-0.30517578,0.0,0.0,0.0,-84.611206,65.20935,-53.113403
1766497160951,-0.9140625,-0.41552734,0.036621094,0.9765625,0.061035156,-0.24414062,0.0,0.0,0.0,-84.611206,65.20935,-53.113403
1766497160963,-0.9140625,-0.41552734,0.036621094,0.9765625,0.061035156,-0.24414062,0.0,0.0,0.0,-84.644165,65.19287,-53.190308
1766497161051,-0.90771484,-0.41503906,0.041015625,-0.24414062,-0.24414062,0.18310547,0.0,0.0,0.0,-84.644165,65.19287,-53.190308
1766497161063,-0.90771484,-0.41503906,0.041015625,-0.24414062,-0.24414062,0.18310547,0.0,0.0,0.0,-84.56726,65.19287,-53.09143
1766497161151,-0.9145508,-0.4140625,0.036132812,0.6713867,0.9765625,-0.48828125,0.0,0.0,0.0,-84.56726,65.19287,-53.09143
1766497161162,-0.9145508,-0.4140625,0.036132812,0.6713867,0.9765625,-0.48828125,0.0,0.0,0.0,-84.56726,65.18738,-53.080444
1766497161250,-0.9086914,-0.41503906,0.036132812,0.061035156,0.61035156,0.0,0.0,0.0,0.0,-84.56726,65.18738,-53.080444
1766497161262,-0.9086914,-0.41503906,0.036132812,0.061035156,0.61035156,0.0,0.0,0.0,0.0,-84.73755,65.1709,-53.28369
1766497161350,-0.91064453,-0.41455078,0.037597656,0.0,0.18310547,-0.061035156,0.0,0.0,0.0,-84.73755,65.1709,-53.28369
1766497161362,-0.91064453,-0.41455078,0.037597656,0.0,0.18310547,-0.061035156,0.0,0.0,0.0,-84.748535,65.15991,-53.28369
1766497161450,-0.9121094,-0.41552734,0.038085938,-0.061035156,0.36621094,0.061035156,0.0,0.0,0.0,-84.748535,65.15991,-53.28369
1766497161461,-0.9121094,-0.41552734,0.038085938,-0.061035156,0.36621094,0.061035156,0.0,0.0,0.0,-84.79248,65.15991,-53.311157
1766497161549,-0.91064453,-0.41503906,0.041992188,0.0,-0.48828125,-0.12207031,0.0,0.0,0.0,-84.79248,65.15991,-53.311157
1766497161561,-0.91064453,-0.41503906,0.041992188,0.0,-0.48828125,-0.12207031,0.0,0.0,0.0,-84.80896,65.148926,-53.38257
1766497161649,-0.9042969,-0.4140625,0.03515625,-0.18310547,1.0986328,0.061035156,0.0,0.0,0.0,-84.80896,65.148926,-53.38257
1766497161661,-0.9042969,-0.4140625,0.03515625,-0.18310547,1.0986328,0.061035156,0.0,0.0,0.0,-84.78699,65.148926,-53.30017
1766497161749,-0.9140625,-0.4165039,0.033691406,-0.12207031,0.18310547,0.18310547,0.0,0.0,0.0,-84.78699,65.148926,-53.30017
1766497161761,-0.9140625,-0.4165039,0.033691406,-0.12207031,0.18310547,0.18310547,0.0,0.0,0.0,-84.8584,65.165405,-53.338623
1766497161849,-0.90478516,-0.41357422,0.040527344,0.0,0.0,0.061035156,0.0,0.0,0.0,-84.8584,65.165405,-53.338623
1766497161860,-0.90478516,-0.41357422,0.040527344,0.0,0.0,0.061035156,0.0,0.0,0.0,-84.8584,65.17639,-53.30017
1766497161948,-0.91015625,-0.41357422,0.037597656,0.48828125,0.48828125,-0.24414062,0.0,0.0,0.0,-84.8584,65.17639,-53.30017
1766497161960,-0.91015625,-0.41357422,0.037597656,0.48828125,0.48828125,-0.24414062,0.0,0.0,0.0,-84.81445,65.181885,-53.217773
1766497162048,-0.9082031,-0.4140625,0.037597656,0.30517578,0.0,0.18310547,0.0,0.0,0.0,-84.81445,65.181885,-53.217773
1766497162059,-0.9082031,-0.4140625,0.037597656,0.30517578,0.0,0.18310547,0.0,0.0,0.0,-84.776,65.181885,-53.190308
1766497162148,-0.90966797,-0.41455078,0.03955078,0.0,-0.18310547,0.18310547,0.0,0.0,0.0,-84.776,65.181885,-53.190308
1766497162159,-0.90966797,-0.41455078,0.03955078,0.0,-0.18310547,0.18310547,0.0,0.0,0.0,-84.70459,65.19287,-53.12439
1766497162248,-0.9091797,-0.41357422,0.036132812,-0.18310547,-0.7324219,0.30517578,0.0,0.0,0.0,-84.70459,65.19287,-53.12439
1766497162259,-0.9091797,-0.41357422,0.036132812,-0.18310547,-0.7324219,0.30517578,0.0,0.0,0.0,-84.60571,65.198364,-53.00354
1766497162347,-0.9082031,-0.41259766,0.04248047,0.6713867,-0.12207031,-0.18310547,0.0,0.0,0.0,-84.60571,65.198364,-53.00354
1766497162359,-0.9082031,-0.41259766,0.04248047,0.6713867,-0.12207031,-0.18310547,0.0,0.0,0.0,-84.47388,65.20386,-52.88269
1766497162447,-0.91015625,-0.41308594,0.036132812,0.0,-0.5493164,0.24414062,0.0,0.0,0.0,-84.47388,65.20386,-52.88269
1766497162458,-0.91015625,-0.41308594,0.036132812,0.0,-0.5493164,0.24414062,0.0,0.0,0.0,-84.122314,65.18738,-52.525635
1766497162547,-0.91308594,-0.41601562,0.03955078,-0.061035156,-0.12207031,0.30517578,0.0,0.0,0.0,-84.122314,65.18738,-52.525635
1766497162558,-0.91308594,-0.41601562,0.03955078,-0.061035156,-0.12207031,0.30517578,0.0,0.0,0.0,-84.10034,65.20935,-52.492676
1766497162646,-0.90722656,-0.41308594,0.044921875,0.6713867,0.0,0.061035156,0.0,0.0,0.0,-84.10034,65.20935,-52.492676
1766497162658,-0.90722656,-0.41308594,0.044921875,0.6713867,0.0,0.061035156,0.0,0.0,0.0,-84.0564,65.23132,-52.426758
1766497162746,-0.9145508,-0.41503906,0.040039062,0.5493164,0.061035156,-0.061035156,0.0,0.0,0.0,-84.0564,65.23132,-52.426758
1766497162757,-0.9145508,-0.41503906,0.040039062,0.5493164,0.061035156,-0.061035156,0.0,0.0,0.0,-83.88611,65.23682,-52.245483
1766497162846,-0.9091797,-0.41455078,0.04296875,0.18310547,0.0,0.0,0.0,0.0,0.0,-83.88611,65.23682,-52.245483
1766497162857,-0.9091797,-0.41455078,0.04296875,0.18310547,0.0,0.0,0.0,0.0,0.0,-83.88611,65.22583,-52.278442
1766497162945,-0.91064453,-0.4116211,0.044433594,0.24414062,0.0,0.0,0.0,0.0,0.0,-83.88611,65.22583,-52.278442
1766497162957,-0.91064453,-0.4116211,0.044433594,0.24414062,0.0,0.0,0.0,0.0,0.0,-83.83118,65.22034,-52.218018
1766497163045,-0.91259766,-0.41503906,0.040039062,0.061035156,-0.36621094,0.061035156,0.0,0.0,0.0,-83.83118,65.22034,-52.218018
1766497163057,-0.91259766,-0.41503906,0.040039062,0.061035156,-0.36621094,0.061035156,0.0,0.0,0.0,-83.78723,65.23132,-52.18506
1766497163145,-0.9067383,-0.41552734,0.037109375,0.79345703,0.4272461,-0.30517578,0.0,0.0,0.0,-83.78723,65.23132,-52.18506
1766497163156,-0.9067383,-0.41552734,0.037109375,0.79345703,0.4272461,-0.30517578,0.0,0.0,0.0,-83.776245,65.23682,-52.179565
1766497163245,-0.91503906,-0.4165039,0.033691406,-0.7324219,-1.4038086,0.5493164,0.0,0.0,0.0,-83.776245,65.23682,-52.179565
1766497163256,-0.91503906,-0.4165039,0.033691406,-0.7324219,-1.4038086,0.5493164,0.0,0.0,0.0,-83.704834,65.20935,-52.146606
1766497163344,-0.91064453,-0.41308594,0.04345703,-0.12207031,0.0,0.061035156,0.0,0.0,0.0,-83.704834,65.20935,-52.146606
1766497163356,-0.91064453,-0.41308594,0.04345703,-0.12207031,0.0,0.061035156,0.0,0.0,0.0,-83.77075,65.22034,-52.18506
1766497163444,-0.91064453,-0.41357422,0.041992188,-0.061035156,0.12207031,-0.12207031,0.0,0.0,0.0,-83.77075,65.22034,-52.18506
1766497163456,-0.91064453,-0.41357422,0.041992188,-0.061035156,0.12207031,-0.12207031,0.0,0.0,0.0,-83.792725,65.21484,-52.20703
1766497163544,-0.91503906,-0.41259766,0.044433594,-0.36621094,-0.6713867,0.48828125,0.0,0.0,0.0,-83.792725,65.21484,-52.20703
1766497163555,-0.91503906,-0.41259766,0.044433594,-0.36621094,-0.6713867,0.48828125,0.0,0.0,0.0,-83.74878,65.23132,-52.113647
1766497163643,-0.91064453,-0.4140625,0.04345703,0.12207031,0.30517578,-0.12207031,0.0,0.0,0.0,-83.74878,65.23132,-52.113647
1766497163655,-0.91064453,-0.4140625,0.04345703,0.12207031,0.30517578,-0.12207031,0.0,0.0,0.0,-83.78174,65.23132,-52.179565
1766497163743,-0.91064453,-0.41357422,0.043945312,-0.18310547,-0.061035156,0.12207031,0.0,0.0,0.0,-83.78174,65.23132,-52.179565
1766497163755,-0.91064453,-0.41357422,0.043945312,-0.18310547,-0.061035156,0.12207031,0.0,0.0,0.0,-83.78723,65.23132,-52.174072
1766497163843,-0.9111328,-0.41259766,0.044921875,0.0,0.48828125,-0.061035156,0.0,0.0,0.0,-83.78723,65.23132,-52.174072
1766497163854,-0.9111328,-0.41259766,0.044921875,0.0,0.48828125,-0.061035156,0.0,0.0,0.0,-83.792725,65.23132,-52.16858
1766497163943,-0.90722656,-0.41064453,0.052734375,-0.061035156,0.4272461,0.061035156,0.0,0.0,0.0,-83.792725,65.23132,-52.16858
1766497163954,-0.90722656,-0.41064453,0.052734375,-0.061035156,0.4272461,0.061035156,0.0,0.0,0.0,-83.87512,65.23132,-52.278442
1766497164042,-0.91552734,-0.4116211,0.048828125,0.061035156,1.4038086,-0.5493164,0.0,0.0,0.0,-83.87512,65.23132,-52.278442
1766497164054,-0.91552734,-0.4116211,0.048828125,0.061035156,1.4038086,-0.5493164,0.0,0.0,0.0,-83.95203,65.20386,-52.371826
1766497164142,-0.90478516,-0.40576172,0.05126953,-1.159668,0.30517578,0.6713867,0.0,0.0,0.0,-83.95203,65.20386,-52.371826
1766497164154,-0.90478516,-0.40576172,0.05126953,-1.159668,0.30517578,0.6713867,0.0,0.0,0.0,-83.92456,65.253296,-52.283936
1766497164242,-0.9160156,-0.3959961,0.045898438,-1.3427734,-5.004883,0.48828125,0.0,0.0,0.0,-83.92456,65.253296,-52.283936
1766497164253,-0.9160156,-0.3959961,0.045898438,-1.3427734,-5.004883,0.48828125,0.0,0.0,0.0,-83.567505,65.269775,-51.833496
1766497164341,-0.9042969,-0.40771484,0.017089844,-2.380371,-5.3100586,1.5869141,0.0,0.0,0.0,-83.567505,65.269775,-51.833496
1766497164353,-0.9042969,-0.40771484,0.017089844,-2.380371,-5.3100586,1.5869141,0.0,0.0,0.0,-82.666626,65.44556,-50.526123
1766497164441,-0.921875,-0.40185547,0.06591797,4.4555664,0.5493164,0.6713867,0.0,0.0,0.0,-82.666626,65.44556,-50.526123
1766497164453,-0.921875,-0.40185547,0.06591797,4.4555664,0.5493164,0.6713867,0.0,0.0,0.0,-82.40845,65.75867,-50.410767
1766497164541,-0.92089844,-0.43066406,0.07763672,2.5634766,-5.3710938,-0.48828125,0.0,0.0,0.0,-82.40845,65.75867,-50.410767
1766497164552,-0.92089844,-0.43066406,0.07763672,2.5634766,-5.3710938,-0.48828125,0.0,0.0,0.0,-81.03516,65.74768,-49.39453
1766497164641,-0.90771484,-0.3959961,0.07910156,-3.1738281,-4.0283203,1.4038086,0.0,0.0,0.0,-81.03516,65.74768,-49.39453
1766497164652,-0.90771484,-0.3959961,0.07910156,-3.1738281,-4.0283203,1.4038086,0.0,0.0,0.0,-80.1178,65.62134,-48.26294
1766497164740,-0.9277344,-0.40820312,0.061523438,-2.9907227,-2.8686523,-2.0141602,0.0,0.0,0.0,-80.1178,65.62134,-48.26294
1766497164752,-0.9277344,-0.40820312,0.061523438,-2.9907227,-2.8686523,-2.0141602,0.0,0.0,0.0,-79.49707,65.5719,-47.268677
1766497164840,-0.9111328,-0.37451172,0.06542969,6.225586,-0.9765625,0.061035156,0.0,0.0,0.0,-79.49707,65.5719,-47.268677
1766497164851,-0.9111328,-0.37451172,0.06542969,6.225586,-0.9765625,0.061035156,0.0,0.0,0.0,-78.95874,65.45105,-47.026978
1766497164940,-0.90527344,-0.43017578,0.10595703,5.6152344,-0.79345703,-4.5166016,0.0,0.0,0.0,-78.95874,65.45105,-47.026978
1766497164951,-0.90527344,-0.43017578,0.10595703,5.6152344,-0.79345703,-4.5166016,0.0,0.0,0.0,-78.601685,65.31372,-47.460938
1766497165039,-0.9135742,-0.39648438,0.092285156,6.4697266,0.7324219,-1.5258789,0.0,0.0,0.0,-78.601685,65.31372,-47.460938
1766497165051,-0.9135742,-0.39648438,0.092285156,6.4697266,0.7324219,-1.5258789,0.0,0.0,0.0,-77.84912,65.14343,-47.246704
1766497165139,-0.9067383,-0.42822266,0.087890625,2.8076172,1.7089844,-1.2207031,0.0,0.0,0.0,-77.84912,65.14343,-47.246704
1766497165151,-0.9067383,-0.42822266,0.087890625,2.8076172,1.7089844,-1.2207031,0.0,0.0,0.0,-77.700806,64.885254,-47.86743
1766497165239,-0.8989258,-0.42138672,0.08935547,3.1738281,0.0,-1.5258789,0.0,0.0,0.0,-77.700806,64.885254,-47.86743
1766497165250,-0.8989258,-0.42138672,0.08935547,3.1738281,0.0,-1.5258789,0.0,0.0,0.0,-77.64038,64.75891,-48.147583
1766497165339,-0.91015625,-0.39697266,0.10253906,1.2817383,-1.2817383,-0.24414062,0.0,0.0,0.0,-77.64038,64.75891,-48.147583
1766497165350,-0.91015625,-0.39697266,0.10253906,1.2817383,-1.2817383,-0.24414062,0.0,0.0,0.0,-77.39319,64.67651,-47.98828
1766497165438,-0.90966797,-0.40625,0.09423828,2.6245117,0.8544922,0.79345703,0.0,0.0,0.0,-77.39319,64.67651,-47.98828
1766497165450,-0.90966797,-0.40625,0.09423828,2.6245117,0.8544922,0.79345703,0.0,0.0,0.0,-77.145996,64.69299,-47.94983
1766497165538,-0.9057617,-0.4140625,0.09765625,-0.6713867,-0.18310547,2.6855469,0.0,0.0,0.0,-77.145996,64.69299,-47.94983
1766497165549,-0.9057617,-0.4140625,0.09765625,-0.6713867,-0.18310547,2.6855469,0.0,0.0,0.0,-77.01416,64.90723,-47.872925
1766497165638,-0.90771484,-0.40478516,0.100097656,-1.4648438,0.30517578,1.0986328,0.0,0.0,0.0,-77.01416,64.90723,-47.872925
1766497165649,-0.90771484,-0.40478516,0.100097656,-1.4648438,0.30517578,1.0986328,0.0,0.0,0.0,-77.11853,65.07202,-47.82898
1766497165737,-0.90478516,-0.40478516,0.09375,1.3427734,0.8544922,-0.7324219,0.0,0.0,0.0,-77.11853,65.07202,-47.82898
1766497165749,-0.90478516,-0.40478516,0.09375,1.3427734,0.8544922,-0.7324219,0.0,0.0,0.0,-77.16797,65.08301,-47.905884
1766497165837,-0.9033203,-0.4140625,0.087402344,-0.36621094,0.18310547,-0.12207031,0.0,0.0,0.0,-77.16797,65.08301,-47.905884
1766497165849,-0.9033203,-0.4140625,0.087402344,-0.36621094,0.18310547,-0.12207031,0.0,0.0,0.0,-77.12402,65.028076,-47.905884
1766497165937,-0.91064453,-0.40625,0.09082031,0.6713867,0.91552734,-0.36621094,0.0,0.0,0.0,-77.12402,65.028076,-47.905884
1766497165948,-0.91064453,-0.40625,0.09082031,0.6713867,0.91552734,-0.36621094,0.0,0.0,0.0,-77.16797,65.0116,-47.927856
1766497166037,-0.9038086,-0.4091797,0.09423828,0.48828125,-0.12207031,0.61035156,0.0,0.0,0.0,-77.16797,65.0116,-47.927856
1766497166048,-0.9038086,-0.4091797,0.09423828,0.48828125,-0.12207031,0.61035156,0.0,0.0,0.0,-77.12402,65.044556,-47.878418
1766497166136,-0.9086914,-0.4111328,0.08935547,0.18310547,-0.30517578,0.61035156,0.0,0.0,0.0,-77.12402,65.044556,-47.878418
1766497166148,-0.9086914,-0.4111328,0.08935547,0.18310547,-0.30517578,0.61035156,0.0,0.0,0.0,-76.92627,65.09949,-47.58728
1766497166236,-0.9111328,-0.40722656,0.09326172,0.91552734,0.30517578,-0.36621094,0.0,0.0,0.0,-76.92627,65.09949,-47.58728
1766497166248,-0.9111328,-0.40722656,0.09326172,0.91552734,0.30517578,-0.36621094,0.0,0.0,0.0,-76.85486,65.11597,-47.49939
1766497166336,-0.9033203,-0.40771484,0.09863281,-0.48828125,-0.18310547,0.12207031,0.0,0.0,0.0,-76.85486,65.11597,-47.49939
1766497166347,-0.9033203,-0.40771484,0.09863281,-0.48828125,-0.18310547,0.12207031,0.0,0.0,0.0,-76.832886,65.08301,-47.46643
1766497166435,-0.91259766,-0.4038086,0.096191406,0.12207031,0.0,0.30517578,0.0,0.0,0.0,-76.832886,65.08301,-47.46643
1766497166447,-0.91259766,-0.4038086,0.096191406,0.12207031,0.0,0.30517578,0.0,0.0,0.0,-76.75598,65.11597,-47.301636
1766497166535,-0.9086914,-0.40820312,0.092285156,0.6713867,0.79345703,0.6713867,0.0,0.0,0.0,-76.75598,65.11597,-47.301636
1766497166547,-0.9086914,-0.40820312,0.092285156,0.6713867,0.79345703,0.6713867,0.0,0.0,0.0,-76.712036,65.20386,-47.24121
1766497166635,-0.90966797,-0.4086914,0.09472656,0.4272461,0.5493164,0.0,0.0,0.0,0.0,-76.712036,65.20386,-47.24121
1766497166647,-0.90966797,-0.4086914,0.09472656,0.4272461,0.5493164,0.0,0.0,0.0,0.0,-76.7395,65.21484,-47.29065
1766497166734,-0.9067383,-0.4033203,0.09716797,1.7700195,1.0986328,-0.6713867,0.0,0.0,0.0,-76.7395,65.21484,-47.29065
1766497166747,-0.9067383,-0.4033203,0.09716797,1.7700195,1.0986328,-0.6713867,0.0,0.0,0.0,-76.81641,65.20935,-47.39502
1766497166834,-0.9091797,-0.40625,0.09472656,0.30517578,0.30517578,-0.48828125,0.0,0.0,0.0,-76.81641,65.20935,-47.39502
1766497166846,-0.9091797,-0.40625,0.09472656,0.30517578,0.30517578,-0.48828125,0.0,0.0,0.0,-76.79993,65.1709,-47.444458
1766497166934,-0.9116211,-0.40185547,0.09326172,-0.61035156,-0.6713867,0.7324219,0.0,0.0,0.0,-76.79993,65.1709,-47.444458
1766497166946,-0.9116211,-0.40185547,0.09326172,-0.61035156,-0.6713867,0.7324219,0.0,0.0,0.0,-76.78894,65.1709,-47.384033
1766497167034,-0.90771484,-0.40429688,0.09326172,-0.4272461,0.18310547,0.61035156,0.0,0.0,0.0,-76.78894,65.1709,-47.384033
1766497167045,-0.90771484,-0.40429688,0.09326172,-0.4272461,0.18310547,0.61035156,0.0,0.0,0.0,-76.761475,65.21484,-47.356567
1766497167133,-0.91308594,-0.40673828,0.09423828,0.0,-0.12207031,0.0,0.0,0.0,0.0,-76.761475,65.21484,-47.356567
1766497167145,-0.91308594,-0.40673828,0.09423828,0.0,-0.12207031,0.0,0.0,0.0,0.0,-76.78894,65.25879,-47.351074
1766497167233,-0.90722656,-0.40673828,0.09667969,-0.36621094,0.12207031,0.24414062,0.0,0.0,0.0,-76.78894,65.25879,-47.351074
1766497167244,-0.90722656,-0.40673828,0.09667969,-0.36621094,0.12207031,0.24414062,0.0,0.0,0.0,-76.761475,65.26428,-47.30713
1766497167333,-0.9116211,-0.40039062,0.091796875,-0.12207031,0.12207031,0.061035156,0.0,0.0,0.0,-76.761475,65.26428,-47.30713
1766497167344,-0.9116211,-0.40039062,0.091796875,-0.12207031,0.12207031,0.061035156,0.0,0.0,0.0,-76.78345,65.27527,-47.252197
1766497167432,-0.90722656,-0.40429688,0.087890625,0.5493164,0.6713867,-0.24414062,0.0,0.0,0.0,-76.78345,65.27527,-47.252197
1766497167444,-0.90722656,-0.40429688,0.087890625,0.5493164,0.6713867,-0.24414062,0.0,0.0,0.0,-76.82739,65.27527,-47.312622
1766497167532,-0.90966797,-0.4033203,0.09326172,-1.159668,-0.36621094,0.7324219,0.0,0.0,0.0,-76.82739,65.27527,-47.312622
1766497167544,-0.90966797,-0.4033203,0.09326172,-1.159668,-0.36621094,0.7324219,0.0,0.0,0.0,-76.849365,65.29724,-47.279663
1766497167632,-0.9116211,-0.40283203,0.087402344,0.4272461,0.4272461,0.0,0.0,0.0,0.0,-76.849365,65.29724,-47.279663
1766497167644,-0.9116211,-0.40283203,0.087402344,0.4272461,0.4272461,0.0,0.0,0.0,0.0,-76.832886,65.319214,-47.230225
1766497167731,-0.9086914,-0.40478516,0.095214844,0.0,-0.48828125,0.0,0.0,0.0,0.0,-76.832886,65.319214,-47.230225
1766497167743,-0.9086914,-0.40478516,0.095214844,0.0,-0.48828125,0.0,0.0,0.0,0.0,-76.91528,65.3302,-47.334595
1766497167831,-0.9121094,-0.40185547,0.095214844,-0.24414062,0.5493164,-0.12207031,0.0,0.0,0.0,-76.91528,65.3302,-47.334595
1766497167843,-0.9121094,-0.40185547,0.095214844,-0.24414062,0.5493164,-0.12207031,0.0,0.0,0.0,-76.92078,65.3302,-47.285156
1766497167931,-0.91064453,-0.40478516,0.09033203,0.4272461,0.0,-0.24414062,0.0,0.0,0.0,-76.92078,65.3302,-47.285156
1766497167943,-0.91064453,-0.40478516,0.09033203,0.4272461,0.0,-0.24414062,0.0,0.0,0.0,-76.970215,65.30823,-47.351074
1766497168031,-0.9091797,-0.4091797,0.09375,-0.061035156,-0.24414062,-0.12207031,0.0,0.0,0.0,-76.970215,65.30823,-47.351074
1766497168042,-0.9091797,-0.4091797,0.09375,-0.061035156,-0.24414062,-0.12207031,0.0,0.0,0.0,-76.93176,65.28076,-47.318115
1766497168130,-0.9121094,-0.40527344,0.09082031,0.18310547,0.061035156,0.0,0.0,0.0,0.0,-76.93176,65.28076,-47.318115
1766497168142,-0.9121094,-0.40527344,0.09082031,0.18310547,0.061035156,0.0,0.0,0.0,0.0,-76.91528,65.27527,-47.279663
1766497168230,-0.91064453,-0.40527344,0.087402344,-0.36621094,0.61035156,-0.18310547,0.0,0.0,0.0,-76.91528,65.27527,-47.279663
1766497168242,-0.91064453,-0.40527344,0.087402344,-0.36621094,0.61035156,-0.18310547,0.0,0.0,0.0,-77.03613,65.25879,-47.389526
1766497168330,-0.90625,-0.40478516,0.08642578,0.4272461,1.4648438,-0.48828125,0.0,0.0,0.0,-77.03613,65.25879,-47.389526
1766497168342,-0.90625,-0.40478516,0.08642578,0.4272461,1.4648438,-0.48828125,0.0,0.0,0.0,-77.27783,65.25879,-47.62024
1766497168430,-0.9091797,-0.40576172,0.08496094,-0.61035156,0.36621094,0.4272461,0.0,0.0,0.0,-77.27783,65.25879,-47.62024
1766497168441,-0.9091797,-0.40576172,0.08496094,-0.61035156,0.36621094,0.4272461,0.0,0.0,0.0,-77.40967,65.26428,-47.719116
1766497168529,-0.90966797,-0.4086914,0.087402344,0.36621094,0.6713867,0.0,0.0,0.0,0.0,-77.40967,65.26428,-47.719116
1766497168541,-0.90966797,-0.4086914,0.087402344,0.36621094,0.6713867,0.0,0.0,0.0,0.0,-77.525024,65.29724,-47.8125
1766497168629,-0.90722656,-0.40527344,0.088378906,-0.5493164,0.18310547,0.18310547,0.0,0.0,0.0,-77.525024,65.29724,-47.8125
1766497168641,-0.90722656,-0.40527344,0.088378906,-0.5493164,0.18310547,0.18310547,0.0,0.0,0.0,-77.65137,65.30823,-47.894897
1766497168729,-0.91015625,-0.40429688,0.08642578,-0.12207031,0.61035156,0.0,0.0,0.0,0.0,-77.65137,65.30823,-47.894897
1766497168740,-0.91015625,-0.40429688,0.08642578,-0.12207031,0.61035156,0.0,0.0,0.0,0.0,-77.67334,65.319214,-47.850952
1766497168828,-0.91064453,-0.40576172,0.08544922,-0.30517578,0.4272461,-0.30517578,0.0,0.0,0.0,-77.67334,65.319214,-47.850952
1766497168841,-0.91064453,-0.40576172,0.08544922,-0.30517578,0.4272461,-0.30517578,0.0,0.0,0.0,-77.81616,65.319214,-47.960815
1766497168928,-0.90722656,-0.40185547,0.088378906,0.12207031,0.48828125,-0.30517578,0.0,0.0,0.0,-77.81616,65.319214,-47.960815
1766497168940,-0.90722656,-0.40185547,0.088378906,0.12207031,0.48828125,-0.30517578,0.0,0.0,0.0,-77.958984,65.31372,-48.059692
1766497169028,-0.90478516,-0.4038086,0.08691406,-0.48828125,-0.061035156,0.0,0.0,0.0,0.0,-77.958984,65.31372,-48.059692
1766497169040,-0.90478516,-0.4038086,0.08691406,-0.48828125,-0.061035156,0.0,0.0,0.0,0.0,-77.95349,65.30823,-48.032227
1766497169127,-0.9091797,-0.40234375,0.08642578,0.7324219,-0.061035156,0.061035156,0.0,0.0,0.0,-77.95349,65.30823,-48.032227
1766497169139,-0.9091797,-0.40234375,0.08642578,0.7324219,-0.061035156,0.061035156,0.0,0.0,0.0,-77.89856,65.31372,-47.977295
1766497169227,-0.9082031,-0.4033203,0.09423828,-0.18310547,-0.61035156,0.36621094,0.0,0.0,0.0,-77.89856,65.31372,-47.977295
1766497169239,-0.9082031,-0.4033203,0.09423828,-0.18310547,-0.61035156,0.36621094,0.0,0.0,0.0,-77.76123,65.319214,-47.88391
1766497169327,-0.9082031,-0.4033203,0.088378906,0.061035156,0.30517578,0.061035156,0.0,0.0,0.0,-77.76123,65.319214,-47.88391
1766497169339,-0.9082031,-0.4033203,0.088378906,0.061035156,0.30517578,0.061035156,0.0,0.0,0.0,-77.596436,65.34119,-47.70813
1766497169427,-0.9140625,-0.40820312,0.08496094,-0.18310547,0.36621094,0.12207031,0.0,0.0,0.0,-77.596436,65.34119,-47.70813
1766497169438,-0.9140625,-0.40820312,0.08496094,-0.18310547,0.36621094,0.12207031,0.0,0.0,0.0,-77.61841,65.36316,-47.72461
1766497169526,-0.90966797,-0.4033203,0.087402344,0.0,-0.12207031,0.12207031,0.0,0.0,0.0,-77.61841,65.36316,-47.72461
1766497169538,-0.90966797,-0.4033203,0.087402344,0.0,-0.12207031,0.12207031,0.0,0.0,0.0,-77.596436,65.35217,-47.642212
1766497169626,-0.9140625,-0.40722656,0.08496094,0.4272461,0.0,0.061035156,0.0,0.0,0.0,-77.596436,65.35217,-47.642212
1766497169638,-0.9140625,-0.40722656,0.08496094,0.4272461,0.0,0.061035156,0.0,0.0,0.0,-77.4646,65.36865,-47.488403
1766497169726,-0.91064453,-0.4033203,0.087890625,0.0,0.0,0.0,0.0,0.0,0.0,-77.4646,65.36865,-47.488403
1766497169737,-0.91064453,-0.4033203,0.087890625,0.0,0.0,0.0,0.0,0.0,0.0,-77.43164,65.36316,-47.422485
1766497169825,-0.9111328,-0.40429688,0.09033203,0.5493164,0.061035156,-0.061035156,0.0,0.0,0.0,-77.43164,65.36316,-47.422485
1766497169838,-0.9111328,-0.40429688,0.09033203,0.5493164,0.061035156,-0.061035156,0.0,0.0,0.0,-77.39868,65.35217,-47.4115
1766497169925,-0.91503906,-0.40722656,0.092285156,0.48828125,0.36621094,-0.061035156,0.0,0.0,0.0,-77.39868,65.35217,-47.4115
1766497169937,-0.91503906,-0.40722656,0.092285156,0.48828125,0.36621094,-0.061035156,0.0,0.0,0.0,-77.36023,65.35217,-47.422485
1766497170025,-0.9121094,-0.40527344,0.092285156,0.36621094,1.3427734,-0.24414062,0.0,0.0,0.0,-77.36023,65.35217,-47.422485
1766497170036,-0.9121094,-0.40527344,0.092285156,0.36621094,1.3427734,-0.24414062,0.0,0.0,0.0,-77.37671,65.34668,-47.504883
1766497170125,-0.9135742,-0.40771484,0.09326172,-0.5493164,-0.12207031,-0.061035156,0.0,0.0,0.0,-77.37671,65.34668,-47.504883
1766497170136,-0.9135742,-0.40771484,0.09326172,-0.5493164,-0.12207031,-0.061035156,0.0,0.0,0.0,-77.508545,65.32471,-47.664185
1766497170224,-0.9082031,-0.39941406,0.09667969,-0.18310547,0.61035156,0.061035156,0.0,0.0,0.0,-77.508545,65.32471,-47.664185
1766497170236,-0.9082031,-0.39941406,0.09667969,-0.18310547,0.61035156,0.061035156,0.0,0.0,0.0,-77.50305,65.33569,-47.581787
1766497170324,-0.9165039,-0.40478516,0.08691406,-0.30517578,0.61035156,0.061035156,0.0,0.0,0.0,-77.50305,65.33569,-47.581787
1766497170336,-0.9165039,-0.40478516,0.08691406,-0.30517578,0.61035156,0.061035156,0.0,0.0,0.0,-77.56348,65.34668,-47.614746
1766497170424,-0.9038086,-0.40771484,0.087890625,0.7324219,0.18310547,-0.12207031,0.0,0.0,0.0,-77.56348,65.34668,-47.614746
1766497170435,-0.9038086,-0.40771484,0.087890625,0.7324219,0.18310547,-0.12207031,0.0,0.0,0.0,-77.60193,65.35217,-47.697144
1766497170523,-0.91015625,-0.4111328,0.08496094,0.12207031,1.159668,-0.24414062,0.0,0.0,0.0,-77.60193,65.35217,-47.697144
1766497170535,-0.91015625,-0.4111328,0.08496094,0.12207031,1.159668,-0.24414062,0.0,0.0,0.0,-77.58545,65.3302,-47.702637
1766497170623,-0.90722656,-0.4038086,0.09033203,-0.9765625,0.79345703,0.5493164,0.0,0.0,0.0,-77.58545,65.3302,-47.702637
1766497170635,-0.90722656,-0.4038086,0.09033203,-0.9765625,0.79345703,0.5493164,0.0,0.0,0.0,-77.838135,65.34119,-47.88391
1766497170723,-0.91503906,-0.40234375,0.08251953,0.91552734,1.5258789,-0.9765625,0.0,0.0,0.0,-77.838135,65.34119,-47.88391
1766497170735,-0.91503906,-0.40234375,0.08251953,0.91552734,1.5258789,-0.9765625,0.0,0.0,0.0,-78.05786,65.36316,-48.07068
1766497170823,-0.9145508,-0.40722656,0.08642578,0.30517578,0.4272461,-0.79345703,0.0,0.0,0.0,-78.05786,65.36316,-48.07068
1766497170834,-0.9145508,-0.40722656,0.08642578,0.30517578,0.4272461,-0.79345703,0.0,0.0,0.0,-78.134766,65.28076,-48.235474
1766497170922,-0.9116211,-0.40673828,0.08984375,0.8544922,0.6713867,-1.2817383,0.0,0.0,0.0,-78.134766,65.28076,-48.235474
1766497170934,-0.9116211,-0.40673828,0.08984375,0.8544922,0.6713867,-1.2817383,0.0,0.0,0.0,-78.19519,65.181885,-48.38379
1766497171022,-0.90625,-0.40576172,0.08984375,1.7700195,0.18310547,-1.5869141,0.0,0.0,0.0,-78.19519,65.181885,-48.38379
1766497171033,-0.90625,-0.40576172,0.08984375,1.7700195,0.18310547,-1.5869141,0.0,0.0,0.0,-78.272095,65.05005,-48.636475
1766497171122,-0.9145508,-0.3984375,0.08251953,3.2958984,2.5634766,-2.8686523,0.0,0.0,0.0,-78.272095,65.05005,-48.636475
1766497171134,-0.9145508,-0.3984375,0.08251953,3.2958984,2.5634766,-2.8686523,0.0,0.0,0.0,-78.151245,64.83032,-48.702393
1766497171221,-0.9033203,-0.43847656,0.084472656,0.0,1.8920898,3.6010742,0.0,0.0,0.0,-78.151245,64.83032,-48.702393
1766497171233,-0.9033203,-0.43847656,0.084472656,0.0,1.8920898,3.6010742,0.0,0.0,0.0,-78.62915,64.90173,-49.49341
1766497171321,-0.90185547,-0.41210938,0.088378906,-3.4179688,-0.9765625,1.7700195,0.0,0.0,0.0,-78.62915,64.90173,-49.49341
1766497171333,-0.90185547,-0.41210938,0.088378906,-3.4179688,-0.9765625,1.7700195,0.0,0.0,0.0,-78.826904,65.18738,-49.361572
1766497171421,-0.91259766,-0.40478516,0.07128906,0.24414062,-0.61035156,0.5493164,0.0,0.0,0.0,-78.826904,65.18738,-49.361572
1766497171432,-0.91259766,-0.40478516,0.07128906,0.24414062,-0.61035156,0.5493164,0.0,0.0,0.0,-78.74451,65.24231,-49.048462
1766497171520,-0.9082031,-0.41259766,0.07763672,0.24414062,-0.12207031,0.061035156,0.0,0.0,0.0,-78.74451,65.24231,-49.048462
1766497171532,-0.9082031,-0.41259766,0.07763672,0.24414062,-0.12207031,0.061035156,0.0,0.0,0.0,-78.66211,65.23132,-48.96057
1766497171620,-0.91503906,-0.39892578,0.078125,0.5493164,1.5869141,0.18310547,0.0,0.0,0.0,-78.66211,65.23132,-48.96057
1766497171632,-0.91503906,-0.39892578,0.078125,0.5493164,1.5869141,0.18310547,0.0,0.0,0.0,-78.74451,65.24231,-48.96057
1766497171720,-0.90625,-0.41064453,0.08203125,1.2817383,1.4648438,-0.36621094,0.0,0.0,0.0,-78.74451,65.24231,-48.96057
1766497171731,-0.90625,-0.41064453,0.08203125,1.2817383,1.4648438,-0.36621094,0.0,0.0,0.0,-79.01367,65.302734,-49.284668
1766497171820,-0.9111328,-0.40283203,0.078125,-1.0375977,0.8544922,0.4272461,0.0,0.0,0.0,-79.01367,65.302734,-49.284668
1766497171831,-0.9111328,-0.40283203,0.078125,-1.0375977,0.8544922,0.4272461,0.0,0.0,0.0,-79.16748,65.3302,-49.3396
1766497171919,-0.9135742,-0.4111328,0.07763672,0.0,-0.061035156,0.24414062,0.0,0.0,0.0,-79.16748,65.3302,-49.3396
1766497171931,-0.9135742,-0.4111328,0.07763672,0.0,-0.061035156,0.24414062,0.0,0.0,0.0,-79.30481,65.31372,-49.421997
1766497172019,-0.90966797,-0.40527344,0.078125,0.91552734,1.7089844,0.061035156,0.0,0.0,0.0,-79.30481,65.31372,-49.421997
1766497172031,-0.90966797,-0.40527344,0.078125,0.91552734,1.7089844,0.061035156,0.0,0.0,0.0,-79.54651,65.36316,-49.625244
1766497172119,-0.9091797,-0.41601562,0.06591797,0.12207031,1.0986328,-0.18310547,0.0,0.0,0.0,-79.54651,65.36316,-49.625244
1766497172130,-0.9091797,-0.41601562,0.06591797,0.12207031,1.0986328,-0.18310547,0.0,0.0,0.0,-79.72229,65.36865,-49.784546
1766497172218,-0.90283203,-0.4013672,0.08154297,-0.4272461,-0.61035156,0.48828125,0.0,0.0,0.0,-79.72229,65.36865,-49.784546
1766497172230,-0.90283203,-0.4013672,0.08154297,-0.4272461,-0.61035156,0.48828125,0.0,0.0,0.0,-79.86511,65.390625,-49.82849
1766497172318,-0.91259766,-0.40673828,0.07519531,-0.8544922,0.0,0.061035156,0.0,0.0,0.0,-79.86511,65.390625,-49.82849
1766497172330,-0.91259766,-0.40673828,0.07519531,-0.8544922,0.0,0.061035156,0.0,0.0,0.0,-79.7168,65.39612,-49.575806
1766497172418,-0.9160156,-0.40283203,0.06591797,-2.380371,-1.4648438,0.9765625,0.0,0.0,0.0,-79.7168,65.39612,-49.575806
1766497172429,-0.9160156,-0.40283203,0.06591797,-2.380371,-1.4648438,0.9765625,0.0,0.0,0.0,-79.557495,65.423584,-49.119873
1766497172518,-0.9116211,-0.39941406,0.08642578,0.24414062,0.4272461,2.4414062,0.0,0.0,0.0,-79.557495,65.423584,-49.119873
1766497172529,-0.9116211,-0.39941406,0.08642578,0.24414062,0.4272461,2.4414062,0.0,0.0,0.0,-79.57947,65.64331,-49.01001
1766497172617,-0.9189453,-0.4165039,0.053222656,0.36621094,0.18310547,-0.30517578,0.0,0.0,0.0,-79.57947,65.64331,-49.01001
1766497172629,-0.9189453,-0.4165039,0.053222656,0.36621094,0.18310547,-0.30517578,0.0,0.0,0.0,-79.39819,65.703735,-48.812256
1766497172717,-0.9082031,-0.38916016,0.07763672,-0.18310547,0.12207031,0.0,0.0,0.0,0.0,-79.39819,65.703735,-48.812256
1766497172729,-0.9082031,-0.38916016,0.07763672,-0.18310547,0.12207031,0.0,0.0,0.0,0.0,-79.82666,65.62134,-49.240723
1766497172817,-0.91064453,-0.40039062,0.076660156,2.1362305,-0.5493164,-0.7324219,0.0,0.0,0.0,-79.82666,65.62134,-49.240723
1766497172828,-0.91064453,-0.40039062,0.076660156,2.1362305,-0.5493164,-0.7324219,0.0,0.0,0.0,-79.63989,65.59387,-49.14734
1766497172916,-0.9165039,-0.40966797,0.07910156,0.4272461,-1.7089844,-0.4272461,0.0,0.0,0.0,-79.63989,65.59387,-49.14734
1766497172928,-0.9165039,-0.40966797,0.07910156,0.4272461,-1.7089844,-0.4272461,0.0,0.0,0.0,-79.19495,65.54993,-48.757324
1766497173016,-0.9082031,-0.40527344,0.067871094,0.61035156,-1.2817383,-0.79345703,0.0,0.0,0.0,-79.19495,65.54993,-48.757324
1766497173028,-0.9082031,-0.40527344,0.067871094,0.61035156,-1.2817383,-0.79345703,0.0,0.0,0.0,-78.914795,65.462036,-48.51013
1766497173116,-0.89501953,-0.40771484,0.071777344,-0.6713867,-3.9672852,1.0375977,0.0,0.0,0.0,-78.914795,65.462036,-48.51013
1766497173128,-0.89501953,-0.40771484,0.071777344,-0.6713867,-3.9672852,1.0375977,0.0,0.0,0.0,-78.392944,65.511475,-47.93335
1766497173216,-0.90625,-0.4038086,0.096191406,1.6479492,2.4414062,-0.7324219,0.0,0.0,0.0,-78.392944,65.511475,-47.93335
1766497173227,-0.90625,-0.4038086,0.096191406,1.6479492,2.4414062,-0.7324219,0.0,0.0,0.0,-78.464355,65.44006,-48.14209
1766497173315,-0.9121094,-0.4111328,0.079589844,0.8544922,1.0986328,-1.6479492,0.0,0.0,0.0,-78.464355,65.44006,-48.14209
1766497173327,-0.9121094,-0.4111328,0.079589844,0.8544922,1.0986328,-1.6479492,0.0,0.0,0.0,-78.41492,65.31372,-48.164062
1766497173415,-0.90722656,-0.38867188,0.07324219,-0.30517578,-3.479004,1.2207031,0.0,0.0,0.0,-78.41492,65.31372,-48.164062
1766497173426,-0.90722656,-0.38867188,0.07324219,-0.30517578,-3.479004,1.2207031,0.0,0.0,0.0,-77.93701,65.302734,-47.592773
1766497173515,-0.9267578,-0.38720703,0.092285156,-2.319336,-0.5493164,3.2958984,0.0,0.0,0.0,-77.93701,65.302734,-47.592773
1766497173526,-0.9267578,-0.38720703,0.092285156,-2.319336,-0.5493164,3.2958984,0.0,0.0,0.0,-77.72827,65.511475,-47.18628
1766497173614,-0.9091797,-0.41210938,0.103027344,2.380371,1.8310547,-1.2817383,0.0,0.0,0.0,-77.72827,65.511475,-47.18628
1766497173626,-0.9091797,-0.41210938,0.103027344,2.380371,1.8310547,-1.2817383,0.0,0.0,0.0,-77.98645,65.615845,-47.598267
1766497173714,-0.90625,-0.40820312,0.087402344,-0.4272461,-0.8544922,-0.6713867,0.0,0.0,0.0,-77.98645,65.615845,-47.598267
1766497173726,-0.90625,-0.40820312,0.087402344,-0.4272461,-0.8544922,-0.6713867,0.0,0.0,0.0,-77.7887,65.43457,-47.471924
1766497173814,-0.91015625,-0.40039062,0.07324219,2.380371,0.24414062,-2.1972656,0.0,0.0,0.0,-77.7887,65.43457,-47.471924
1766497173825,-0.91015625,-0.40039062,0.07324219,2.380371,0.24414062,-2.1972656,0.0,0.0,0.0,-77.53601,65.23682,-47.27417
1766497173914,-0.9140625,-0.40820312,0.096191406,-1.5258789,1.0375977,0.24414062,0.0,0.0,0.0,-77.53601,65.23682,-47.27417
1766497173925,-0.9140625,-0.40820312,0.096191406,-1.5258789,1.0375977,0.24414062,0.0,0.0,0.0,-77.77771,65.198364,-47.53235
1766497174013,-0.9042969,-0.3959961,0.087890625,-1.2207031,-0.18310547,2.319336,0.0,0.0,0.0,-77.77771,65.198364,-47.53235
1766497174025,-0.9042969,-0.3959961,0.087890625,-1.2207031,-0.18310547,2.319336,0.0,0.0,0.0,-77.68982,65.357666,-47.268677
1766497174113,-0.90771484,-0.41455078,0.076171875,0.0,0.0,0.61035156,0.0,0.0,0.0,-77.68982,65.357666,-47.268677
1766497174124,-0.90771484,-0.41455078,0.076171875,0.0,0.0,0.61035156,0.0,0.0,0.0,-77.6239,65.52246,-47.1698
1766497174213,-0.9111328,-0.3852539,0.100097656,-1.4038086,2.1972656,1.2817383,0.0,0.0,0.0,-77.6239,65.52246,-47.1698
1766497174224,-0.9111328,-0.3852539,0.100097656,-1.4038086,2.1972656,1.2817383,0.0,0.0,0.0,-77.909546,65.582886,-47.340088
1766497174312,-0.90966797,-0.40771484,0.08300781,1.953125,1.5258789,-0.48828125,0.0,0.0,0.0,-77.909546,65.582886,-47.340088
1766497174324,-0.90966797,-0.40771484,0.08300781,1.953125,1.5258789,-0.48828125,0.0,0.0,0.0,-78.20068,65.6488,-47.631226
1766497174412,-0.90771484,-0.40283203,0.06933594,2.2583008,1.5258789,-1.7089844,0.0,0.0,0.0,-78.20068,65.6488,-47.631226
1766497174424,-0.90771484,-0.40283203,0.06933594,2.2583008,1.5258789,-1.7089844,0.0,0.0,0.0,-78.17871,65.63782,-47.76306
1766497174512,-0.9199219,-0.39404297,0.076171875,-1.0986328,0.9765625,0.8544922,0.0,0.0,0.0,-78.17871,65.63782,-47.76306
1766497174523,-0.9199219,-0.39404297,0.076171875,-1.0986328,0.9765625,0.8544922,0.0,0.0,0.0,-78.54126,65.64331,-48.098145
1766497174611,-0.9038086,-0.4086914,0.08935547,-0.12207031,1.3427734,1.8310547,0.0,0.0,0.0,-78.54126,65.64331,-48.098145
1766497174623,-0.9038086,-0.4086914,0.08935547,-0.12207031,1.3427734,1.8310547,0.0,0.0,0.0,-78.77197,65.824585,-48.224487
1766497174711,-0.91015625,-0.39794922,0.072753906,-0.79345703,-0.6713867,0.48828125,0.0,0.0,0.0,-78.77197,65.824585,-48.224487
1766497174723,-0.91015625,-0.39794922,0.072753906,-0.79345703,-0.6713867,0.48828125,0.0,0.0,0.0,-78.67859,65.8905,-48.03772
1766497174811,-0.921875,-0.4008789,0.07763672,-1.6479492,0.79345703,1.0375977,0.0,0.0,0.0,-78.67859,65.8905,-48.03772
1766497174823,-0.921875,-0.4008789,0.07763672,-1.6479492,0.79345703,1.0375977,0.0,0.0,0.0,-78.85986,66.00586,-48.0542
1766497174911,-0.9116211,-0.40966797,0.08154297,-1.159668,-0.061035156,0.18310547,0.0,0.0,0.0,-78.85986,66.00586,-48.0542
1766497174922,-0.9116211,-0.40966797,0.08154297,-1.159668,-0.061035156,0.18310547,0.0,0.0,0.0,-78.92029,65.96741,-48.065186
1766497175011,-0.93115234,-0.38134766,0.079589844,-0.48828125,-1.159668,-0.30517578,0.0,0.0,0.0,-78.92029,65.96741,-48.065186
1766497175022,-0.93115234,-0.38134766,0.079589844,-0.48828125,-1.159668,-0.30517578,0.0,0.0,0.0,-78.82141,65.92346,-47.817993
1766497175110,-0.9160156,-0.39648438,0.07421875,1.0375977,0.0,-1.2817383,0.0,0.0,0.0,-78.82141,65.92346,-47.817993
1766497175122,-0.9160156,-0.39648438,0.07421875,1.0375977,0.0,-1.2817383,0.0,0.0,0.0,-78.81592,65.86853,-47.960815
1766497175210,-0.9277344,-0.39941406,0.0703125,-2.1972656,-0.36621094,0.61035156,0.0,0.0,0.0,-78.81592,65.86853,-47.960815
1766497175221,-0.9277344,-0.39941406,0.0703125,-2.1972656,-0.36621094,0.61035156,0.0,0.0,0.0,-78.85986,65.86853,-47.927856
1766497175310,-0.9091797,-0.3876953,0.08642578,1.2207031,-0.24414062,-0.9765625,0.0,0.0,0.0,-78.85986,65.86853,-47.927856
1766497175321,-0.9091797,-0.3876953,0.08642578,1.2207031,-0.24414062,-0.9765625,0.0,0.0,0.0,-78.87634,65.87402,-47.905884
1766497175409,-0.92333984,-0.41552734,0.08154297,4.5166016,-0.18310547,-3.2348633,0.0,0.0,0.0,-78.87634,65.87402,-47.905884
1766497175421,-0.92333984,-0.41552734,0.08154297,4.5166016,-0.18310547,-3.2348633,0.0,0.0,0.0,-78.65112,65.67078,-47.977295
1766497175509,-0.9169922,-0.39453125,0.067871094,-0.12207031,2.8076172,0.24414062,0.0,0.0,0.0,-78.65112,65.67078,-47.977295
1766497175521,-0.9169922,-0.39453125,0.067871094,-0.12207031,2.8076172,0.24414062,0.0,0.0,0.0,-78.826904,65.50049,-48.323364
1766497175609,-0.9033203,-0.41503906,0.07910156,-3.0517578,1.953125,2.4414062,0.0,0.0,0.0,-78.826904,65.50049,-48.323364
1766497175620,-0.9033203,-0.41503906,0.07910156,-3.0517578,1.953125,2.4414062,0.0,0.0,0.0,-79.6344,65.7312,-49.020996
1766497175708,-0.90625,-0.39404297,0.076660156,-1.8310547,-1.953125,1.8310547,0.0,0.0,0.0,-79.6344,65.7312,-49.020996
1766497175720,-0.90625,-0.39404297,0.076660156,-1.8310547,-1.953125,1.8310547,0.0,0.0,0.0,-79.557495,65.86304,-48.603516
1766497175808,-0.91845703,-0.39013672,0.068359375,-1.0375977,-1.4038086,0.7324219,0.0,0.0,0.0,-79.557495,65.86304,-48.603516
1766497175819,-0.91845703,-0.39013672,0.068359375,-1.0375977,-1.4038086,0.7324219,0.0,0.0,0.0,-79.57947,65.96741,-48.460693
1766497175908,-0.9121094,-0.40234375,0.07519531,0.0,0.7324219,-0.30517578,0.0,0.0,0.0,-79.57947,65.96741,-48.460693
1766497175919,-0.9121094,-0.40234375,0.07519531,0.0,0.7324219,-0.30517578,0.0,0.0,0.0,-79.6344,66.00037,-48.537598
1766497176007,-0.9194336,-0.3828125,0.063964844,0.4272461,0.6713867,0.061035156,0.0,0.0,0.0,-79.6344,66.00037,-48.537598
1766497176019,-0.9194336,-0.3828125,0.063964844,0.4272461,0.6713867,0.061035156,0.0,0.0,0.0,-79.524536,65.97839,-48.356323
1766497176107,-0.9165039,-0.38964844,0.06982422,3.2958984,0.8544922,0.12207031,0.0,0.0,0.0,-79.524536,65.97839,-48.356323
1766497176119,-0.9165039,-0.38964844,0.06982422,3.2958984,0.8544922,0.12207031,0.0,0.0,0.0,-79.54651,66.033325,-48.493652
1766497176207,-0.90478516,-0.39941406,0.07373047,-0.061035156,-0.48828125,1.4038086,0.0,0.0,0.0,-79.54651,66.033325,-48.493652
1766497176219,-0.90478516,-0.39941406,0.07373047,-0.061035156,-0.48828125,1.4038086,0.0,0.0,0.0,-79.436646,66.11023,-48.598022
1766497176307,-0.91796875,-0.39794922,0.06982422,2.5634766,0.4272461,-1.159668,0.0,0.0,0.0,-79.436646,66.11023,-48.598022
1766497176319,-0.91796875,-0.39794922,0.06982422,2.5634766,0.4272461,-1.159668,0.0,0.0,0.0,-79.156494,66.121216,-48.389282
1766497176406,-0.9140625,-0.3930664,0.07519531,1.2817383,-0.36621094,-1.0986328,0.0,0.0,0.0,-79.156494,66.121216,-48.389282
1766497176418,-0.9140625,-0.3930664,0.07519531,1.2817383,-0.36621094,-1.0986328,0.0,0.0,0.0,-79.00818,66.00037,-48.42224
1766497176506,-0.9165039,-0.39160156,0.080566406,0.12207031,0.0,-0.79345703,0.0,0.0,0.0,-79.00818,66.00037,-48.42224
1766497176518,-0.9165039,-0.39160156,0.080566406,0.12207031,0.0,-0.79345703,0.0,0.0,0.0,-78.96973,65.92346,-48.449707
1766497176606,-0.9121094,-0.39453125,0.068847656,2.1362305,1.0986328,-1.0375977,0.0,0.0,0.0,-78.96973,65.92346,-48.449707
1766497176617,-0.9121094,-0.39453125,0.068847656,2.1362305,1.0986328,-1.0375977,0.0,0.0,0.0,-78.95874,65.83008,-48.581543
1766497176705,-0.91552734,-0.41210938,0.07763672,-0.61035156,0.6713867,0.6713867,0.0,0.0,0.0,-78.95874,65.83008,-48.581543
1766497176717,-0.91552734,-0.41210938,0.07763672,-0.61035156,0.6713867,0.6713867,0.0,0.0,0.0,-79.18945,65.857544,-48.88916
1766497176805,-0.9140625,-0.40429688,0.07714844,-1.159668,0.24414062,0.61035156,0.0,0.0,0.0,-79.18945,65.857544,-48.88916
1766497176817,-0.9140625,-0.40429688,0.07714844,-1.159668,0.24414062,0.61035156,0.0,0.0,0.0,-79.332275,65.91797,-48.894653
1766497176905,-0.9121094,-0.39892578,0.076660156,0.18310547,0.8544922,-0.4272461,0.0,0.0,0.0,-79.332275,65.91797,-48.894653
1766497176917,-0.9121094,-0.39892578,0.076660156,0.18310547,0.8544922,-0.4272461,0.0,0.0,0.0,-79.469604,65.90149,-48.999023
1766497177005,-0.921875,-0.39746094,0.0703125,-0.48828125,0.0,0.6713867,0.0,0.0,0.0,-79.469604,65.90149,-48.999023
1766497177016,-0.921875,-0.39746094,0.0703125,-0.48828125,0.0,0.6713867,0.0,0.0,0.0,-79.50256,65.912476,-49.01001
1766497177104,-0.9135742,-0.39160156,0.076660156,0.4272461,1.5869141,-0.5493164,0.0,0.0,0.0,-79.50256,65.912476,-49.01001
1766497177116,-0.9135742,-0.39160156,0.076660156,0.4272461,1.5869141,-0.5493164,0.0,0.0,0.0,-79.73328,65.92346,-49.240723
1766497177204,-0.91308594,-0.39453125,0.07080078,-0.6713867,0.0,0.91552734,0.0,0.0,0.0,-79.73328,65.92346,-49.240723
1766497177216,-0.91308594,-0.39453125,0.07080078,-0.6713867,0.0,0.91552734,0.0,0.0,0.0,-79.65637,65.97839,-49.086914
1766497177304,-0.9145508,-0.39697266,0.068847656,0.79345703,0.79345703,0.061035156,0.0,0.0,0.0,-79.65637,65.97839,-49.086914
1766497177315,-0.9145508,-0.39697266,0.068847656,0.79345703,0.79345703,0.061035156,0.0,0.0,0.0,-79.70581,66.03882,-49.13086
1766497177403,-0.91552734,-0.3955078,0.0703125,-0.36621094,0.0,-0.061035156,0.0,0.0,0.0,-79.70581,66.03882,-49.13086
1766497177416,-0.91552734,-0.3955078,0.0703125,-0.36621094,0.0,-0.061035156,0.0,0.0,0.0,-79.72778,66.033325,-49.11438
1766497177504,-0.91552734,-0.39648438,0.06640625,0.7324219,0.61035156,-0.36621094,0.0,0.0,0.0,-79.72778,66.033325,-49.11438
1766497177515,-0.91552734,-0.39648438,0.06640625,0.7324219,0.61035156,-0.36621094,0.0,0.0,0.0,-79.749756,66.02234,-49.13086
1766497177603,-0.91845703,-0.39648438,0.068359375,-0.12207031,0.0,0.061035156,0.0,0.0,0.0,-79.749756,66.02234,-49.13086
1766497177614,-0.91845703,-0.39648438,0.068359375,-0.12207031,0.0,0.061035156,0.0,0.0,0.0,-79.82117,66.00586,-49.196777
1766497177703,-0.91308594,-0.39794922,0.0703125,0.0,0.4272461,0.36621094,0.0,0.0,0.0,-79.82117,66.00586,-49.196777
1766497177715,-0.91308594,-0.39794922,0.0703125,0.0,0.4272461,0.36621094,0.0,0.0,0.0,-79.84314,66.02234,-49.191284
1766497177802,-0.9160156,-0.39648438,0.071777344,-0.9765625,0.48828125,0.24414062,0.0,0.0,0.0,-79.84314,66.02234,-49.191284
1766497177814,-0.9160156,-0.39648438,0.071777344,-0.9765625,0.48828125,0.24414062,0.0,0.0,0.0,-79.920044,66.0553,-49.174805
1766497177902,-0.9194336,-0.39013672,0.072265625,-0.30517578,1.0375977,0.12207031,0.0,0.0,0.0,-79.920044,66.0553,-49.174805
1766497177913,-0.9194336,-0.39013672,0.072265625,-0.30517578,1.0375977,0.12207031,0.0,0.0,0.0,-80.08484,66.07178,-49.257202
1766497178002,-0.92626953,-0.3984375,0.07080078,0.61035156,1.159668,-0.8544922,0.0,0.0,0.0,-80.08484,66.07178,-49.257202
1766497178013,-0.92626953,-0.3984375,0.07080078,0.61035156,1.159668,-0.8544922,0.0,0.0,0.0,-80.34851,66.03882,-49.5813
1766497178101,-0.9067383,-0.39257812,0.07519531,0.0,1.4648438,-0.24414062,0.0,0.0,0.0,-80.34851,66.03882,-49.5813
1766497178113,-0.9067383,-0.39257812,0.07519531,0.0,1.4648438,-0.24414062,0.0,0.0,0.0,-80.48035,66.02783,-49.691162
1766497178201,-0.9199219,-0.3984375,0.0625,-0.48828125,0.12207031,0.12207031,0.0,0.0,0.0,-80.48035,66.02783,-49.691162
1766497178213,-0.9199219,-0.3984375,0.0625,-0.48828125,0.12207031,0.12207031,0.0,0.0,0.0,-80.52429,66.066284,-49.68567
1766497178301,-0.91552734,-0.39453125,0.06591797,-0.9765625,0.36621094,-0.12207031,0.0,0.0,0.0,-80.52429,66.066284,-49.68567
1766497178312,-0.91552734,-0.39453125,0.06591797,-0.9765625,0.36621094,-0.12207031,0.0,0.0,0.0,-80.667114,66.049805,-49.7406
1766497178400,-0.91845703,-0.39941406,0.06201172,-1.4038086,-0.9765625,0.91552734,0.0,0.0,0.0,-80.667114,66.049805,-49.7406
1766497178412,-0.91845703,-0.39941406,0.06201172,-1.4038086,-0.9765625,0.91552734,0.0,0.0,0.0,-80.62317,66.07178,-49.60327
1766497178500,-0.93359375,-0.41064453,0.057128906,-5.126953,0.61035156,2.746582,0.0,0.0,0.0,-80.62317,66.07178,-49.60327
1766497178515,-0.93359375,-0.41064453,0.057128906,-5.126953,0.61035156,2.746582,0.0,0.0,0.0,-80.88684,66.20911,-49.56482
1766497178600,-0.91552734,-0.42333984,0.072753906,-9.216309,-6.1035156,-6.164551,0.0,0.0,0.0,-80.88684,66.20911,-49.56482
1766497178612,-0.91552734,-0.42333984,0.072753906,-9.216309,-6.1035156,-6.164551,0.0,0.0,0.0,-81.34827,66.154175,-48.99353
1766497178699,-0.9013672,-0.33496094,0.057128906,-2.8686523,-1.7089844,-3.112793,0.0,0.0,0.0,-81.34827,66.154175,-48.99353
1766497178711,-0.9013672,-0.33496094,0.057128906,-2.8686523,-1.7089844,-3.112793,0.0,0.0,0.0,-80.85388,65.390625,-48.02124
1766497178799,-0.9267578,-0.42626953,0.075683594,0.91552734,-1.0375977,-3.2958984,0.0,0.0,0.0,-80.85388,65.390625,-48.02124
1766497178811,-0.9267578,-0.42626953,0.075683594,0.91552734,-1.0375977,-3.2958984,0.0,0.0,0.0,-81.07361,65.23682,-48.460693
1766497178899,-0.9067383,-0.4111328,0.06982422,0.91552734,1.5869141,0.12207031,0.0,0.0,0.0,-81.07361,65.23682,-48.460693
1766497178911,-0.9067383,-0.4111328,0.06982422,0.91552734,1.5869141,0.12207031,0.0,0.0,0.0,-80.63965,65.02258,-48.202515
1766497178999,-0.90234375,-0.43066406,0.06201172,-1.5869141,1.4648438,1.7700195,0.0,0.0,0.0,-80.63965,65.02258,-48.202515
1766497179010,-0.90234375,-0.43066406,0.06201172,-1.5869141,1.4648438,1.7700195,0.0,0.0,0.0,-80.947266,65.12695,-48.537598
1766497179099,-0.89501953,-0.3930664,0.061523438,1.7089844,0.36621094,3.2958984,0.0,0.0,0.0,-80.947266,65.12695,-48.537598
1766497179110,-0.89501953,-0.3930664,0.061523438,1.7089844,0.36621094,3.2958984,0.0,0.0,0.0,-80.963745,65.37964,-48.43872
1766497179198,-0.9165039,-0.43408203,0.07080078,-5.126953,-2.9907227,7.3242188,0.0,0.0,0.0,-80.963745,65.37964,-48.43872
1766497179210,-0.9165039,-0.43408203,0.07080078,-5.126953,-2.9907227,7.3242188,0.0,0.0,0.0,-80.53528,65.86853,-48.032227
1766497179298,-0.9038086,-0.36816406,0.07128906,-4.699707,-1.5258789,-1.6479492,0.0,0.0,0.0,-80.53528,65.86853,-48.032227
1766497179310,-0.9038086,-0.36816406,0.07128906,-4.699707,-1.5258789,-1.6479492,0.0,0.0,0.0,-80.91431,66.18164,-47.669678
1766497179397,-0.92822266,-0.40234375,0.05810547,-1.2817383,2.1362305,1.953125,0.0,0.0,0.0,-80.91431,66.18164,-47.669678
1766497179409,-0.92822266,-0.40234375,0.05810547,-1.2817383,2.1362305,1.953125,0.0,0.0,0.0,-81.02966,66.19812,-47.70813
1766497179497,-0.9111328,-0.36376953,0.063964844,2.8076172,0.4272461,0.48828125,0.0,0.0,0.0,-81.02966,66.19812,-47.70813
1766497179509,-0.9111328,-0.36376953,0.063964844,2.8076172,0.4272461,0.48828125,0.0,0.0,0.0,-80.80444,66.32446,-47.44995
1766497179597,-0.92626953,-0.4165039,0.06591797,-2.1972656,0.0,1.7089844,0.0,0.0,0.0,-80.80444,66.32446,-47.44995
1766497179609,-0.92626953,-0.4165039,0.06591797,-2.1972656,0.0,1.7089844,0.0,0.0,0.0,-80.71106,66.43982,-47.625732
1766497179697,-0.90771484,-0.38476562,0.063964844,-2.5024414,-1.953125,-1.7089844,0.0,0.0,0.0,-80.71106,66.43982,-47.625732
1766497179709,-0.90771484,-0.38476562,0.063964844,-2.5024414,-1.953125,-1.7089844,0.0,0.0,0.0,-80.6012,66.42334,-47.263184
1766497179797,-0.9189453,-0.3828125,0.057128906,-2.746582,-2.6855469,0.61035156,0.0,0.0,0.0,-80.6012,66.42334,-47.263184
1766497179808,-0.9189453,-0.3828125,0.057128906,-2.746582,-2.6855469,0.61035156,0.0,0.0,0.0,-80.37598,66.258545,-46.87317
1766497179896,-0.91308594,-0.390625,0.057617188,2.9296875,0.7324219,1.0986328,0.0,0.0,0.0,-80.37598,66.258545,-46.87317
1766497179907,-0.91308594,-0.390625,0.057617188,2.9296875,0.7324219,1.0986328,0.0,0.0,0.0,-80.27161,66.362915,-46.922607
1766497179996,-0.9248047,-0.36816406,0.06689453,8.056641,0.12207031,1.0375977,0.0,0.0,0.0,-80.27161,66.362915,-46.922607
1766497180007,-0.9248047,-0.36816406,0.06689453,8.056641,0.12207031,1.0375977,0.0,0.0,0.0,-79.85962,66.44531,-47.010498
1766497180096,-0.9165039,-0.4140625,0.080078125,3.0517578,2.1972656,0.24414062,0.0,0.0,0.0,-79.85962,66.44531,-47.010498
1766497180107,-0.9165039,-0.4140625,0.080078125,3.0517578,2.1972656,0.24414062,0.0,0.0,0.0,-79.573975,66.52771,-47.609253
1766497180195,-0.9003906,-0.38476562,0.075683594,-10.925293,-6.286621,5.7373047,0.0,0.0,0.0,-79.573975,66.52771,-47.609253
1766497180207,-0.9003906,-0.38476562,0.075683594,-10.925293,-6.286621,5.7373047,0.0,0.0,0.0,-80.095825,66.7749,-47.63672
1766497180295,-0.93066406,-0.3852539,0.07080078,0.0,2.2583008,2.5634766,0.0,0.0,0.0,-80.095825,66.7749,-47.63672
1766497180306,-0.93066406,-0.3852539,0.07080078,0.0,2.2583008,2.5634766,0.0,0.0,0.0,-79.6344,67.13745,-46.675415
1766497180395,-0.9316406,-0.37695312,0.064941406,-1.159668,1.0986328,0.36621094,0.0,0.0,0.0,-79.6344,67.13745,-46.675415
1766497180406,-0.9316406,-0.37695312,0.064941406,-1.159668,1.0986328,0.36621094,0.0,0.0,0.0,-79.81018,67.27478,-46.801758
1766497180494,-0.9267578,-0.36767578,0.06591797,-0.6713867,2.5024414,0.12207031,0.0,0.0,0.0,-79.81018,67.27478,-46.801758
1766497180506,-0.9267578,-0.36767578,0.06591797,-0.6713867,2.5024414,0.12207031,0.0,0.0,0.0,-80.08484,67.263794,-47.087402
1766497180594,-0.9321289,-0.35839844,0.080078125,0.12207031,-0.61035156,0.8544922,0.0,0.0,0.0,-80.08484,67.263794,-47.087402
1766497180606,-0.9321289,-0.35839844,0.080078125,0.12207031,-0.61035156,0.8544922,0.0,0.0,0.0,-80.1947,67.37915,-47.197266
1766497180694,-0.9238281,-0.375,0.06933594,-0.61035156,-0.48828125,1.2207031,0.0,0.0,0.0,-80.1947,67.37915,-47.197266
1766497180706,-0.9238281,-0.375,0.06933594,-0.61035156,-0.48828125,1.2207031,0.0,0.0,0.0,-79.7168,67.5,-46.80725
1766497180793,-0.9355469,-0.37695312,0.063964844,-0.18310547,-0.6713867,0.24414062,0.0,0.0,0.0,-79.7168,67.5,-46.80725
1766497180805,-0.9355469,-0.37695312,0.063964844,-0.18310547,-0.6713867,0.24414062,0.0,0.0,0.0,-79.57947,67.56592,-46.6864
1766497180893,-0.9189453,-0.3779297,0.06933594,0.0,0.48828125,-1.0986328,0.0,0.0,0.0,-79.57947,67.56592,-46.6864
1766497180905,-0.9189453,-0.3779297,0.06933594,0.0,0.48828125,-1.0986328,0.0,0.0,0.0,-79.694824,67.49451,-46.917114
1766497180993,-0.9267578,-0.3720703,0.0625,0.48828125,0.18310547,-1.4648438,0.0,0.0,0.0,-79.694824,67.49451,-46.917114
1766497181004,-0.9267578,-0.3720703,0.0625,0.48828125,0.18310547,-1.4648438,0.0,0.0,0.0,-79.68933,67.36267,-46.99951
1766497181093,-0.92626953,-0.375,0.0703125,0.48828125,0.12207031,-0.48828125,0.0,0.0,0.0,-79.68933,67.36267,-46.99951
1766497181104,-0.92626953,-0.375,0.0703125,0.48828125,0.12207031,-0.48828125,0.0,0.0,0.0,-79.81018,67.29126,-47.29065
1766497181192,-0.9248047,-0.375,0.06738281,1.4648438,1.4038086,-0.61035156,0.0,0.0,0.0,-79.81018,67.29126,-47.29065
1766497181204,-0.9248047,-0.375,0.06738281,1.4648438,1.4038086,-0.61035156,0.0,0.0,0.0,-79.89807,67.25281,-47.559814
1766497181292,-0.9267578,-0.3828125,0.072265625,1.159668,1.159668,-0.24414062,0.0,0.0,0.0,-79.89807,67.25281,-47.559814
1766497181304,-0.9267578,-0.3828125,0.072265625,1.159668,1.159668,-0.24414062,0.0,0.0,0.0,-79.94751,67.22534,-47.768555
1766497181392,-0.94091797,-0.37353516,0.060058594,3.4179688,3.3569336,1.4038086,0.0,0.0,0.0,-79.94751,67.22534,-47.768555
1766497181403,-0.94091797,-0.37353516,0.060058594,3.4179688,3.3569336,1.4038086,0.0,0.0,0.0,-79.96948,67.318726,-48.103638
1766497181491,-0.93310547,-0.3671875,0.061035156,1.5869141,5.554199,2.746582,0.0,0.0,0.0,-79.96948,67.318726,-48.103638
1766497181503,-0.93310547,-0.3671875,0.061035156,1.5869141,5.554199,2.746582,0.0,0.0,0.0,-80.84839,67.59888,-49.41101
1766497181591,-0.91308594,-0.3935547,0.063964844,-1.4038086,1.2817383,1.5258789,0.0,0.0,0.0,-80.84839,67.59888,-49.41101
1766497181603,-0.91308594,-0.3935547,0.063964844,-1.4038086,1.2817383,1.5258789,0.0,0.0,0.0,-80.842896,67.857056,-49.20227
1766497181691,-0.9370117,-0.38720703,0.055664062,-4.1503906,-1.2817383,2.1972656,0.0,0.0,0.0,-80.842896,67.857056,-49.20227
1766497181702,-0.9370117,-0.38720703,0.055664062,-4.1503906,-1.2817383,2.1972656,0.0,0.0,0.0,-81.22742,67.99988,-49.301147
1766497181791,-0.9169922,-0.3466797,0.063964844,1.0375977,2.8076172,0.48828125,0.0,0.0,0.0,-81.22742,67.99988,-49.301147
1766497181803,-0.9169922,-0.3466797,0.063964844,1.0375977,2.8076172,0.48828125,0.0,0.0,0.0,-81.45264,68.115234,-49.37805
1766497181890,-0.9375,-0.36572266,0.05029297,3.2348633,3.0517578,-0.8544922,0.0,0.0,0.0,-81.45264,68.115234,-49.37805
1766497181903,-0.9375,-0.36572266,0.05029297,3.2348633,3.0517578,-0.8544922,0.0,0.0,0.0,-81.57898,68.131714,-49.82849
1766497181990,-0.9321289,-0.36132812,0.044921875,-1.5869141,-0.24414062,1.5258789,0.0,0.0,0.0,-81.57898,68.131714,-49.82849
1766497182001,-0.9321289,-0.36132812,0.044921875,-1.5869141,-0.24414062,1.5258789,0.0,0.0,0.0,-81.75476,68.219604,-50.03174
1766497182090,-0.9316406,-0.34960938,0.05126953,1.0986328,2.1972656,0.30517578,0.0,0.0,0.0,-81.75476,68.219604,-50.03174
1766497182102,-0.9316406,-0.34960938,0.05126953,1.0986328,2.1972656,0.30517578,0.0,0.0,0.0,-81.968994,68.35144,-50.169067
1766497182189,-0.9321289,-0.37646484,0.03857422,-3.1738281,-0.9765625,0.79345703,0.0,0.0,0.0,-81.968994,68.35144,-50.169067
1766497182201,-0.9321289,-0.37646484,0.03857422,-3.1738281,-0.9765625,0.79345703,0.0,0.0,0.0,-82.08435,68.38989,-50.196533
1766497182289,-0.91796875,-0.34814453,0.05419922,3.6621094,0.7324219,-2.5024414,0.0,0.0,0.0,-82.08435,68.38989,-50.196533
1766497182301,-0.91796875,-0.34814453,0.05419922,3.6621094,0.7324219,-2.5024414,0.0,0.0,0.0,-82.01843,68.40088,-50.004272
1766497182389,-0.9370117,-0.3720703,0.046875,0.5493164,0.0,-1.8920898,0.0,0.0,0.0,-82.01843,68.40088,-50.004272
1766497182400,-0.9370117,-0.3720703,0.046875,0.5493164,0.0,-1.8920898,0.0,0.0,0.0,-81.94153,68.15369,-50.125122
1766497182488,-0.9238281,-0.35888672,0.052246094,-0.8544922,0.4272461,1.0986328,0.0,0.0,0.0,-81.94153,68.15369,-50.125122
1766497182500,-0.9238281,-0.35888672,0.052246094,-0.8544922,0.4272461,1.0986328,0.0,0.0,0.0,-82.2052,68.14819,-50.31189
1766497182588,-0.93115234,-0.3569336,0.041015625,-1.2207031,-0.18310547,1.7700195,0.0,0.0,0.0,-82.2052,68.14819,-50.31189
1766497182600,-0.93115234,-0.3569336,0.041015625,-1.2207031,-0.18310547,1.7700195,0.0,0.0,0.0,-82.282104,68.323975,-50.273438
1766497182688,-0.9379883,-0.3618164,0.045898438,0.24414062,-2.319336,0.5493164,0.0,0.0,0.0,-82.282104,68.323975,-50.273438
1766497182699,-0.9379883,-0.3618164,0.045898438,0.24414062,-2.319336,0.5493164,0.0,0.0,0.0,-81.97998,68.43933,-49.921875
1766497182788,-0.921875,-0.3623047,0.061035156,2.5634766,0.5493164,-0.5493164,0.0,0.0,0.0,-81.97998,68.43933,-49.921875
1766497182799,-0.921875,-0.3623047,0.061035156,2.5634766,0.5493164,-0.5493164,0.0,0.0,0.0,-81.9635,68.411865,-50.108643
1766497182887,-0.9238281,-0.37402344,0.048828125,-0.24414062,-1.2817383,0.061035156,0.0,0.0,0.0,-81.9635,68.411865,-50.108643
1766497182899,-0.9238281,-0.37402344,0.048828125,-0.24414062,-1.2817383,0.061035156,0.0,0.0,0.0,-81.710815,68.3844,-50.020752
1766497182987,-0.93896484,-0.3564453,0.059570312,-1.7089844,-1.4648438,-0.061035156,0.0,0.0,0.0,-81.710815,68.3844,-50.020752
1766497182998,-0.93896484,-0.3564453,0.059570312,-1.7089844,-1.4648438,-0.061035156,0.0,0.0,0.0,-81.42517,68.32947,-49.51538
1766497183087,-0.9370117,-0.359375,0.05517578,0.0,-0.8544922,-1.7700195,0.0,0.0,0.0,-81.42517,68.32947,-49.51538
1766497183098,-0.9370117,-0.359375,0.05517578,0.0,-0.8544922,-1.7700195,0.0,0.0,0.0,-81.07361,68.219604,-49.18579
1766497183187,-0.92871094,-0.36523438,0.05859375,1.4038086,-1.5258789,-3.8452148,0.0,0.0,0.0,-81.07361,68.219604,-49.18579
1766497183198,-0.92871094,-0.36523438,0.05859375,1.4038086,-1.5258789,-3.8452148,0.0,0.0,0.0,-80.88135,67.901,-49.224243
1766497183286,-0.9248047,-0.3701172,0.06347656,-0.7324219,-0.4272461,-1.8920898,0.0,0.0,0.0,-80.88135,67.901,-49.224243
1766497183298,-0.9248047,-0.3701172,0.06347656,-0.7324219,-0.4272461,-1.8920898,0.0,0.0,0.0,-80.6012,67.62634,-48.900146
1766497183386,-0.9243164,-0.3720703,0.056152344,1.4038086,-0.48828125,-2.6855469,0.0,0.0,0.0,-80.6012,67.62634,-48.900146
1766497183398,-0.9243164,-0.3720703,0.056152344,1.4038086,-0.48828125,-2.6855469,0.0,0.0,0.0,-80.47485,67.456055,-48.773804
1766497183485,-0.91748047,-0.38671875,0.068847656,1.8920898,-0.7324219,-3.2958984,0.0,0.0,0.0,-80.47485,67.456055,-48.773804
1766497183497,-0.91748047,-0.38671875,0.068847656,1.8920898,-0.7324219,-3.2958984,0.0,0.0,0.0,-80.26062,67.142944,-48.78479
1766497183585,-0.9213867,-0.38964844,0.06542969,-1.7700195,-1.4648438,-0.91552734,0.0,0.0,0.0,-80.26062,67.142944,-48.78479
1766497183597,-0.9213867,-0.38964844,0.06542969,-1.7700195,-1.4648438,-0.91552734,0.0,0.0,0.0,-79.89258,66.934204,-48.345337
1766497183685,-0.91796875,-0.3857422,0.07324219,-2.0141602,-0.91552734,-0.36621094,0.0,0.0,0.0,-79.89258,66.934204,-48.345337
1766497183697,-0.91796875,-0.3857422,0.07324219,-2.0141602,-0.91552734,-0.36621094,0.0,0.0,0.0,-79.6344,66.86279,-47.680664
1766497183785,-0.9194336,-0.3857422,0.07861328,0.61035156,0.7324219,-0.4272461,0.0,0.0,0.0,-79.6344,66.86279,-47.680664
1766497183796,-0.9194336,-0.3857422,0.07861328,0.61035156,0.7324219,-0.4272461,0.0,0.0,0.0,-79.62891,66.79138,-47.72461
1766497183884,-0.9223633,-0.38427734,0.06982422,-0.8544922,-0.48828125,-0.61035156,0.0,0.0,0.0,-79.62891,66.79138,-47.72461
1766497183896,-0.9223633,-0.38427734,0.06982422,-0.8544922,-0.48828125,-0.61035156,0.0,0.0,0.0,-79.590454,66.76941,-47.65869
1766497183984,-0.9189453,-0.37695312,0.06689453,-0.36621094,-0.4272461,0.061035156,0.0,0.0,0.0,-79.590454,66.76941,-47.65869
1766497183996,-0.9189453,-0.37695312,0.06689453,-0.36621094,-0.4272461,0.061035156,0.0,0.0,0.0,-79.678345,66.71997,-47.746582
1766497184084,-0.9301758,-0.37646484,0.079589844,3.7841797,0.4272461,-0.91552734,0.0,0.0,0.0,-79.678345,66.71997,-47.746582
1766497184095,-0.9301758,-0.37646484,0.079589844,3.7841797,0.4272461,-0.91552734,0.0,0.0,0.0,-79.552,66.74744,-47.72461
1766497184183,-0.9057617,-0.41015625,0.067871094,0.4272461,1.5258789,-4.272461,0.0,0.0,0.0,-79.552,66.74744,-47.72461
1766497184195,-0.9057617,-0.41015625,0.067871094,0.4272461,1.5258789,-4.272461,0.0,0.0,0.0,-79.67285,66.52222,-48.15857
1766497184283,-0.8979492,-0.3701172,0.061523438,-5.7373047,-7.019043,-2.5634766,0.0,0.0,0.0,-79.67285,66.52222,-48.15857
1766497184295,-0.8979492,-0.3701172,0.061523438,-5.7373047,-7.019043,-2.5634766,0.0,0.0,0.0,-79.78821,66.170654,-47.62024
1766497184383,-0.9165039,-0.3857422,0.07910156,6.7749023,3.8452148,-2.0141602,0.0,0.0,0.0,-79.78821,66.170654,-47.62024
1766497184395,-0.9165039,-0.3857422,0.07910156,6.7749023,3.8452148,-2.0141602,0.0,0.0,0.0,-79.39819,65.93994,-47.32361
1766497184483,-0.9033203,-0.41064453,0.05419922,-1.4038086,-1.5258789,0.18310547,0.0,0.0,0.0,-79.39819,65.93994,-47.32361
1766497184494,-0.9033203,-0.41064453,0.05419922,-1.4038086,-1.5258789,0.18310547,0.0,0.0,0.0,-79.22241,65.88501,-47.455444
1766497184582,-0.9213867,-0.39746094,0.080078125,-1.953125,-1.0986328,1.2817383,0.0,0.0,0.0,-79.22241,65.88501,-47.455444
1766497184594,-0.9213867,-0.39746094,0.080078125,-1.953125,-1.0986328,1.2817383,0.0,0.0,0.0,-79.090576,65.95093,-47.10388
1766497184682,-0.9135742,-0.3930664,0.068847656,2.5634766,0.6713867,-0.7324219,0.0,0.0,0.0,-79.090576,65.95093,-47.10388
1766497184693,-0.9135742,-0.3930664,0.068847656,2.5634766,0.6713867,-0.7324219,0.0,0.0,0.0,-78.82141,65.961914,-46.900635
1766497184782,-0.9091797,-0.40625,0.072265625,2.6855469,1.3427734,-2.8686523,0.0,0.0,0.0,-78.82141,65.961914,-46.900635
1766497184793,-0.9091797,-0.40625,0.072265625,2.6855469,1.3427734,-2.8686523,0.0,0.0,0.0,-79.04114,65.81909,-47.44995
1766497184881,-0.9165039,-0.36767578,0.072753906,4.638672,2.5634766,0.4272461,0.0,0.0,0.0,-79.04114,65.81909,-47.44995
1766497184893,-0.9165039,-0.36767578,0.072753906,4.638672,2.5634766,0.4272461,0.0,0.0,0.0,-79.04114,65.70923,-47.680664
1766497184981,-0.9057617,-0.42236328,0.080566406,1.5258789,-2.0751953,0.36621094,0.0,0.0,0.0,-79.04114,65.70923,-47.680664
1766497184993,-0.9057617,-0.42236328,0.080566406,1.5258789,-2.0751953,0.36621094,0.0,0.0,0.0,-79.02466,65.77515,-48.147583
1766497185081,-0.92041016,-0.38378906,0.091796875,1.5869141,0.30517578,1.4038086,0.0,0.0,0.0,-79.02466,65.77515,-48.147583
1766497185093,-0.92041016,-0.38378906,0.091796875,1.5869141,0.30517578,1.4038086,0.0,0.0,0.0,-78.568726,65.85205,-47.664185
1766497185181,-0.9189453,-0.40722656,0.084472656,3.2348633,2.9907227,-0.61035156,0.0,0.0,0.0,-78.568726,65.85205,-47.664185
1766497185192,-0.9189453,-0.40722656,0.084472656,3.2348633,2.9907227,-0.61035156,0.0,0.0,0.0,-78.49182,65.86304,-47.927856
1766497185280,-0.9091797,-0.40039062,0.08203125,1.5869141,0.48828125,-1.0986328,0.0,0.0,0.0,-78.49182,65.86304,-47.927856
1766497185292,-0.9091797,-0.40039062,0.08203125,1.5869141,0.48828125,-1.0986328,0.0,0.0,0.0,-78.568726,65.78064,-48.186035
1766497185380,-0.9160156,-0.4008789,0.079589844,0.48828125,0.5493164,0.0,0.0,0.0,0.0,-78.568726,65.78064,-48.186035
1766497185391,-0.9160156,-0.4008789,0.079589844,0.48828125,0.5493164,0.0,0.0,0.0,0.0,-78.64563,65.7312,-48.345337
1766497185480,-0.9121094,-0.3959961,0.079589844,0.5493164,0.9765625,-0.061035156,0.0,0.0,0.0,-78.64563,65.7312,-48.345337
1766497185491,-0.9121094,-0.3959961,0.079589844,0.5493164,0.9765625,-0.061035156,0.0,0.0,0.0,-78.73901,65.75867,-48.477173
1766497185579,-0.9116211,-0.4013672,0.079589844,0.18310547,-0.061035156,-0.48828125,0.0,0.0,0.0,-78.73901,65.75867,-48.477173
1766497185591,-0.9116211,-0.4013672,0.079589844,0.18310547,-0.061035156,-0.48828125,0.0,0.0,0.0,-78.777466,65.720215,-48.565063
1766497185679,-0.91503906,-0.39892578,0.08203125,-0.18310547,-0.48828125,-0.18310547,0.0,0.0,0.0,-78.777466,65.720215,-48.565063
1766497185691,-0.91503906,-0.39892578,0.08203125,-0.18310547,-0.48828125,-0.18310547,0.0,0.0,0.0,-78.722534,65.66528,-48.460693
1766497185779,-0.90722656,-0.40576172,0.080566406,0.061035156,-0.24414062,-0.24414062,0.0,0.0,0.0,-78.722534,65.66528,-48.460693
1766497185791,-0.90722656,-0.40576172,0.080566406,0.061035156,-0.24414062,-0.24414062,0.0,0.0,0.0,-78.6676,65.6488,-48.36731
1766497185878,-0.9160156,-0.40429688,0.078125,-0.18310547,-0.91552734,0.12207031,0.0,0.0,0.0,-78.6676,65.6488,-48.36731
1766497185890,-0.9160156,-0.40429688,0.078125,-0.18310547,-0.91552734,0.12207031,0.0,0.0,0.0,-78.53577,65.63782,-48.14209
1766497185978,-0.91015625,-0.39990234,0.087890625,-0.4272461,0.061035156,0.48828125,0.0,0.0,0.0,-78.53577,65.63782,-48.14209
1766497185990,-0.91015625,-0.39990234,0.087890625,-0.4272461,0.061035156,0.48828125,0.0,0.0,0.0,-78.618164,65.64331,-48.17505
1766497186078,-0.9067383,-0.4013672,0.076660156,-1.159668,0.0,0.36621094,0.0,0.0,0.0,-78.618164,65.64331,-48.17505
1766497186090,-0.9067383,-0.4013672,0.076660156,-1.159668,0.0,0.36621094,0.0,0.0,0.0,-78.67859,65.66528,-48.103638
1766497186178,-0.9160156,-0.39941406,0.07470703,-0.5493164,-0.91552734,-0.12207031,0.0,0.0,0.0,-78.67859,65.66528,-48.103638
1766497186189,-0.9160156,-0.39941406,0.07470703,-0.5493164,-0.91552734,-0.12207031,0.0,0.0,0.0,-78.62915,65.6543,-47.938843
1766497186277,-0.9135742,-0.3955078,0.080566406,-1.2817383,0.0,0.061035156,0.0,0.0,0.0,-78.62915,65.6543,-47.938843
1766497186289,-0.9135742,-0.3955078,0.080566406,-1.2817383,0.0,0.061035156,0.0,0.0,0.0,-78.78296,65.687256,-47.938843
1766497186377,-0.9082031,-0.40283203,0.080566406,0.30517578,0.91552734,0.48828125,0.0,0.0,0.0,-78.78296,65.687256,-47.938843
1766497186389,-0.9082031,-0.40283203,0.080566406,0.30517578,0.91552734,0.48828125,0.0,0.0,0.0,-78.85986,65.70923,-48.03772
1766497186477,-0.91308594,-0.40283203,0.07714844,-0.79345703,0.061035156,0.18310547,0.0,0.0,0.0,-78.85986,65.70923,-48.03772
1766497186488,-0.91308594,-0.40283203,0.07714844,-0.79345703,0.061035156,0.18310547,0.0,0.0,0.0,-78.80493,65.753174,-47.922363
1766497186576,-0.9140625,-0.39990234,0.07421875,-0.061035156,-0.12207031,0.12207031,0.0,0.0,0.0,-78.80493,65.753174,-47.922363
1766497186596,-0.9140625,-0.39990234,0.07421875,-0.061035156,-0.12207031,0.12207031,0.0,0.0,0.0,-78.881836,65.75867,-47.977295
1766497186676,-0.90234375,-0.3930664,0.07128906,1.6479492,-0.30517578,0.4272461,0.0,0.0,0.0,-78.881836,65.75867,-47.977295
1766497186688,-0.90234375,-0.3930664,0.07128906,1.6479492,-0.30517578,0.4272461,0.0,0.0,0.0,-78.75549,65.8136,-47.905884
1766497186776,-0.91748047,-0.42236328,0.0625,-1.2207031,-0.91552734,-0.48828125,0.0,0.0,0.0,-78.75549,65.8136,-47.905884
1766497186787,-0.91748047,-0.42236328,0.0625,-1.2207031,-0.91552734,-0.48828125,0.0,0.0,0.0,-78.618164,65.83557,-47.86743
