timestamp,accX,accY,accZ,gyroX,gyroY,gyroZ,magX,magY,magZ,roll,pitch,yaw
1766498218390,-0.8745117,-0.36132812,0.28710938,3.1738281,0.36621094,-1.8310547,0.0,0.0,0.0,-53.26172,61.188354,-27.751465
1766498218405,-0.8745117,-0.36132812,0.28710938,3.1738281,0.36621094,-1.8310547,0.0,0.0,0.0,-53.250732,61.14441,-27.806396
1766498218489,-0.8779297,-0.39697266,0.27978516,-0.4272461,1.0986328,0.91552734,0.0,0.0,0.0,-53.250732,61.14441,-27.806396
1766498218501,-0.8779297,-0.39697266,0.27978516,-0.4272461,1.0986328,0.91552734,0.0,0.0,0.0,-53.239746,61.155396,-27.976685
1766498218590,-0.8798828,-0.36523438,0.2788086,0.36621094,-0.5493164,-0.8544922,0.0,0.0,0.0,-53.239746,61.155396,-27.976685
1766498218601,-0.8798828,-0.36523438,0.2788086,0.36621094,-0.5493164,-0.8544922,0.0,0.0,0.0,-53.311157,61.221313,-27.79541
1766498218689,-0.8642578,-0.40283203,0.29101562,0.4272461,1.2817383,-0.30517578,0.0,0.0,0.0,-53.311157,61.221313,-27.79541
1766498218700,-0.8642578,-0.40283203,0.29101562,0.4272461,1.2817383,-0.30517578,0.0,0.0,0.0,-53.42102,61.12793,-28.218384
1766498218789,-0.8823242,-0.38476562,0.2763672,0.8544922,-0.18310547,-0.30517578,0.0,0.0,0.0,-53.42102,61.12793,-28.218384
1766498218804,-0.8823242,-0.38476562,0.2763672,0.8544922,-0.18310547,-0.30517578,0.0,0.0,0.0,-53.09143,61.045532,-27.844849
1766498218888,-0.87402344,-0.38671875,0.29296875,-1.4648438,-1.0375977,1.159668,0.0,0.0,0.0,-53.09143,61.045532,-27.844849
1766498218900,-0.87402344,-0.38671875,0.29296875,-1.4648438,-1.0375977,1.159668,0.0,0.0,0.0,-53.080444,61.14441,-27.734985
1766498218988,-0.8833008,-0.3774414,0.2861328,-0.79345703,-0.24414062,-0.79345703,0.0,0.0,0.0,-53.080444,61.14441,-27.734985
1766498219000,-0.8833008,-0.3774414,0.2861328,-0.79345703,-0.24414062,-0.79345703,0.0,0.0,0.0,-53.250732,61.149902,-27.817383
1766498219088,-0.87060547,-0.38183594,0.28759766,1.7089844,-0.48828125,-0.5493164,0.0,0.0,0.0,-53.250732,61.149902,-27.817383
1766498219099,-0.87060547,-0.38183594,0.28759766,1.7089844,-0.48828125,-0.5493164,0.0,0.0,0.0,-53.09143,61.001587,-27.949219
1766498219188,-0.87841797,-0.38720703,0.2919922,-1.8310547,0.36621094,0.6713867,0.0,0.0,0.0,-53.09143,61.001587,-27.949219
1766498219199,-0.87841797,-0.38720703,0.2919922,-1.8310547,0.36621094,0.6713867,0.0,0.0,0.0,-53.009033,61.051025,-27.789917
1766498219287,-0.88671875,-0.39160156,0.27734375,0.4272461,0.6713867,-0.061035156,0.0,0.0,0.0,-53.009033,61.051025,-27.789917
1766498219299,-0.88671875,-0.39160156,0.27734375,0.4272461,0.6713867,-0.061035156,0.0,0.0,0.0,-52.959595,61.09497,-27.685547
1766498219387,-0.8828125,-0.38623047,0.29003906,0.36621094,-2.380371,-0.18310547,0.0,0.0,0.0,-52.959595,61.09497,-27.685547
1766498219399,-0.8828125,-0.38623047,0.29003906,0.36621094,-2.380371,-0.18310547,0.0,0.0,0.0,-52.98706,61.06201,-27.663574
1766498219487,-0.87158203,-0.36035156,0.29248047,0.7324219,-0.30517578,-0.061035156,0.0,0.0,0.0,-52.98706,61.06201,-27.663574
1766498219499,-0.87158203,-0.36035156,0.29248047,0.7324219,-0.30517578,-0.061035156,0.0,0.0,0.0,-52.800293,61.02356,-27.531738
1766498219587,-0.87109375,-0.39160156,0.2944336,-1.8920898,0.6713867,1.4648438,0.0,0.0,0.0,-52.800293,61.02356,-27.531738
1766498219598,-0.87109375,-0.39160156,0.2944336,-1.8920898,0.6713867,1.4648438,0.0,0.0,0.0,-52.888184,61.089478,-27.652588
1766498219686,-0.8798828,-0.38671875,0.27197266,0.18310547,0.79345703,-0.79345703,0.0,0.0,0.0,-52.888184,61.089478,-27.652588
1766498219698,-0.8798828,-0.38671875,0.27197266,0.18310547,0.79345703,-0.79345703,0.0,0.0,0.0,-52.662964,61.105957,-27.295532
1766498219786,-0.8833008,-0.37890625,0.28173828,1.0986328,-1.4038086,-0.61035156,0.0,0.0,0.0,-52.662964,61.105957,-27.295532
1766498219798,-0.8833008,-0.37890625,0.28173828,1.0986328,-1.4038086,-0.61035156,0.0,0.0,0.0,-52.855225,61.072998,-27.454834
1766498219886,-0.8754883,-0.38378906,0.29003906,2.5024414,1.0986328,-2.1362305,0.0,0.0,0.0,-52.855225,61.072998,-27.454834
1766498219897,-0.8754883,-0.38378906,0.29003906,2.5024414,1.0986328,-2.1362305,0.0,0.0,0.0,-52.89917,61.001587,-27.69104
1766498219985,-0.8828125,-0.39208984,0.2861328,-3.2958984,-1.8920898,2.6855469,0.0,0.0,0.0,-52.89917,61.001587,-27.69104
1766498219997,-0.8828125,-0.39208984,0.2861328,-3.2958984,-1.8920898,2.6855469,0.0,0.0,0.0,-52.70691,61.00708,-27.421875
1766498220085,-0.87109375,-0.37597656,0.29003906,1.5869141,0.4272461,-0.9765625,0.0,0.0,0.0,-52.70691,61.00708,-27.421875
1766498220097,-0.87109375,-0.37597656,0.29003906,1.5869141,0.4272461,-0.9765625,0.0,0.0,0.0,-52.91565,61.07849,-27.55371
1766498220185,-0.8823242,-0.39208984,0.2890625,1.0375977,-1.0375977,-1.159668,0.0,0.0,0.0,-52.91565,61.07849,-27.55371
1766498220197,-0.8823242,-0.39208984,0.2890625,1.0375977,-1.0375977,-1.159668,0.0,0.0,0.0,-52.998047,61.02356,-27.713013
1766498220285,-0.8798828,-0.3857422,0.28515625,1.4038086,-0.24414062,-0.79345703,0.0,0.0,0.0,-52.998047,61.02356,-27.713013
1766498220296,-0.8798828,-0.3857422,0.28515625,1.4038086,-0.24414062,-0.79345703,0.0,0.0,0.0,-52.860718,60.908203,-27.663574
1766498220385,-0.86865234,-0.37695312,0.3017578,-1.5869141,-0.4272461,1.2817383,0.0,0.0,0.0,-52.860718,60.908203,-27.663574
1766498220396,-0.86865234,-0.37695312,0.3017578,-1.5869141,-0.4272461,1.2817383,0.0,0.0,0.0,-53.07495,60.9906,-27.822876
1766498220484,-0.8852539,-0.4086914,0.26464844,0.30517578,1.5869141,0.5493164,0.0,0.0,0.0,-53.07495,60.9906,-27.822876
1766498220496,-0.8852539,-0.4086914,0.26464844,0.30517578,1.5869141,0.5493164,0.0,0.0,0.0,-52.756348,61.02356,-27.60315
1766498220584,-0.8730469,-0.37158203,0.30126953,-1.159668,-1.4648438,0.0,0.0,0.0,0.0,-52.756348,61.02356,-27.60315
1766498220595,-0.8730469,-0.37158203,0.30126953,-1.159668,-1.4648438,0.0,0.0,0.0,0.0,-52.871704,60.963135,-27.597656
1766498220684,-0.8798828,-0.37597656,0.28515625,1.2207031,-1.0986328,-0.7324219,0.0,0.0,0.0,-52.871704,60.963135,-27.597656
1766498220695,-0.8798828,-0.37597656,0.28515625,1.2207031,-1.0986328,-0.7324219,0.0,0.0,0.0,-52.88269,60.968628,-27.669067
1766498220784,-0.87597656,-0.3857422,0.29492188,-2.0141602,-1.5258789,1.2207031,0.0,0.0,0.0,-52.88269,60.968628,-27.669067
1766498220795,-0.87597656,-0.3857422,0.29492188,-2.0141602,-1.5258789,1.2207031,0.0,0.0,0.0,-52.789307,60.946655,-27.58667
1766498220883,-0.88378906,-0.3803711,0.2866211,-0.4272461,1.4038086,0.0,0.0,0.0,0.0,-52.789307,60.946655,-27.58667
1766498220895,-0.88378906,-0.3803711,0.2866211,-0.4272461,1.4038086,0.0,0.0,0.0,0.0,-52.789307,61.018066,-27.454834
1766498220983,-0.8725586,-0.3857422,0.28271484,-0.12207031,-1.7089844,-0.8544922,0.0,0.0,0.0,-52.789307,61.018066,-27.454834
1766498220994,-0.8725586,-0.3857422,0.28271484,-0.12207031,-1.7089844,-0.8544922,0.0,0.0,0.0,-52.860718,60.996094,-27.58667
1766498221083,-0.8828125,-0.3779297,0.28076172,2.0141602,-0.5493164,-0.61035156,0.0,0.0,0.0,-52.860718,60.996094,-27.58667
1766498221094,-0.8828125,-0.3779297,0.28076172,2.0141602,-0.5493164,-0.61035156,0.0,0.0,0.0,-52.70691,60.88623,-27.49878
1766498221182,-0.8745117,-0.4008789,0.28759766,-1.4038086,-0.061035156,0.48828125,0.0,0.0,0.0,-52.70691,60.88623,-27.49878
1766498221194,-0.8745117,-0.4008789,0.28759766,-1.4038086,-0.061035156,0.48828125,0.0,0.0,0.0,-52.646484,60.93567,-27.520752
1766498221282,-0.8798828,-0.37353516,0.2919922,0.6713867,0.36621094,-1.4648438,0.0,0.0,0.0,-52.646484,60.93567,-27.520752
1766498221294,-0.8798828,-0.37353516,0.2919922,0.6713867,0.36621094,-1.4648438,0.0,0.0,0.0,-52.81128,60.930176,-27.559204
1766498221382,-0.87060547,-0.3881836,0.29541016,0.36621094,-0.91552734,-0.6713867,0.0,0.0,0.0,-52.81128,60.930176,-27.559204
1766498221393,-0.87060547,-0.3881836,0.29541016,0.36621094,-0.91552734,-0.6713867,0.0,0.0,0.0,-52.888184,60.842285,-27.806396
1766498221481,-0.8652344,-0.3876953,0.2836914,0.36621094,2.1362305,0.6713867,0.0,0.0,0.0,-52.888184,60.842285,-27.806396
1766498221493,-0.8652344,-0.3876953,0.2836914,0.36621094,2.1362305,0.6713867,0.0,0.0,0.0,-52.635498,60.79834,-27.597656
1766498221581,-0.875,-0.38671875,0.28076172,0.0,0.61035156,1.4648438,0.0,0.0,0.0,-52.635498,60.79834,-27.597656
1766498221593,-0.875,-0.38671875,0.28076172,0.0,0.61035156,1.4648438,0.0,0.0,0.0,-52.49817,60.941162,-27.46582
1766498221681,-0.87646484,-0.36816406,0.28515625,2.0141602,0.36621094,-1.5258789,0.0,0.0,0.0,-52.49817,60.941162,-27.46582
1766498221692,-0.87646484,-0.36816406,0.28515625,2.0141602,0.36621094,-1.5258789,0.0,0.0,0.0,-52.56958,60.963135,-27.317505
1766498221781,-0.8881836,-0.3881836,0.28955078,0.79345703,-0.5493164,-0.12207031,0.0,0.0,0.0,-52.56958,60.963135,-27.317505
1766498221792,-0.8881836,-0.3881836,0.28955078,0.79345703,-0.5493164,-0.12207031,0.0,0.0,0.0,-52.635498,60.95764,-27.405396
1766498221880,-0.87646484,-0.38476562,0.30273438,-0.8544922,-0.7324219,1.2817383,0.0,0.0,0.0,-52.635498,60.95764,-27.405396
1766498221892,-0.87646484,-0.38476562,0.30273438,-0.8544922,-0.7324219,1.2817383,0.0,0.0,0.0,-52.525635,60.95215,-27.333984
1766498221980,-0.8769531,-0.3779297,0.28808594,0.30517578,0.0,0.79345703,0.0,0.0,0.0,-52.525635,60.95215,-27.333984
1766498221992,-0.8769531,-0.3779297,0.28808594,0.30517578,0.0,0.79345703,0.0,0.0,0.0,-52.41028,60.996094,-27.180176
1766498222080,-0.88623047,-0.37695312,0.28564453,-0.061035156,-0.12207031,-1.2817383,0.0,0.0,0.0,-52.41028,60.996094,-27.180176
1766498222091,-0.88623047,-0.37695312,0.28564453,-0.061035156,-0.12207031,-1.2817383,0.0,0.0,0.0,-52.48169,61.083984,-27.174683
1766498222180,-0.875,-0.37695312,0.29882812,-1.2207031,-1.3427734,0.24414062,0.0,0.0,0.0,-52.48169,61.083984,-27.174683
1766498222191,-0.875,-0.37695312,0.29882812,-1.2207031,-1.3427734,0.24414062,0.0,0.0,0.0,-52.58606,61.012573,-27.306519
1766498222279,-0.8666992,-0.38720703,0.28759766,0.12207031,0.79345703,0.4272461,0.0,0.0,0.0,-52.58606,61.012573,-27.306519
1766498222291,-0.8666992,-0.38720703,0.28759766,0.12207031,0.79345703,0.4272461,0.0,0.0,0.0,-52.41028,60.946655,-27.196655
1766498222379,-0.8798828,-0.3798828,0.28222656,-0.91552734,0.48828125,0.18310547,0.0,0.0,0.0,-52.41028,60.946655,-27.196655
1766498222391,-0.8798828,-0.3798828,0.28222656,-0.91552734,0.48828125,0.18310547,0.0,0.0,0.0,-52.32788,61.083984,-26.998901
1766498222479,-0.8779297,-0.3779297,0.27441406,0.8544922,0.30517578,-1.4648438,0.0,0.0,0.0,-52.32788,61.083984,-26.998901
1766498222491,-0.8779297,-0.3779297,0.27441406,0.8544922,0.30517578,-1.4648438,0.0,0.0,0.0,-52.44873,61.029053,-27.130737
1766498222579,-0.87402344,-0.3857422,0.28222656,0.30517578,-0.18310547,0.061035156,0.0,0.0,0.0,-52.44873,61.029053,-27.130737
1766498222591,-0.87402344,-0.3857422,0.28222656,0.30517578,-0.18310547,0.061035156,0.0,0.0,0.0,-52.36084,60.97412,-27.103271
1766498222679,-0.8774414,-0.3828125,0.29492188,-1.8920898,0.0,0.5493164,0.0,0.0,0.0,-52.36084,60.97412,-27.103271
1766498222690,-0.8774414,-0.3828125,0.29492188,-1.8920898,0.0,0.5493164,0.0,0.0,0.0,-52.3114,61.018066,-26.965942
1766498222778,-0.8779297,-0.38085938,0.28808594,0.30517578,-0.36621094,-0.36621094,0.0,0.0,0.0,-52.3114,61.018066,-26.965942
1766498222789,-0.8779297,-0.38085938,0.28808594,0.30517578,-0.36621094,-0.36621094,0.0,0.0,0.0,-52.3938,61.04004,-26.94397
1766498222878,-0.87890625,-0.38378906,0.29541016,1.7089844,-0.12207031,-0.79345703,0.0,0.0,0.0,-52.3938,61.04004,-26.94397
1766498222889,-0.87890625,-0.38378906,0.29541016,1.7089844,-0.12207031,-0.79345703,0.0,0.0,0.0,-52.382812,60.996094,-27.03186
1766498222977,-0.87841797,-0.3803711,0.2919922,0.061035156,0.0,0.61035156,0.0,0.0,0.0,-52.382812,60.996094,-27.03186
1766498222989,-0.87841797,-0.3803711,0.2919922,0.061035156,0.0,0.61035156,0.0,0.0,0.0,-52.229004,60.9906,-26.85608
1766498223077,-0.8754883,-0.390625,0.29003906,-1.5258789,0.30517578,1.0986328,0.0,0.0,0.0,-52.229004,60.9906,-26.85608
1766498223088,-0.8754883,-0.390625,0.29003906,-1.5258789,0.30517578,1.0986328,0.0,0.0,0.0,-52.146606,61.034546,-26.746216
1766498223177,-0.87646484,-0.3725586,0.29589844,1.0986328,0.30517578,-1.2207031,0.0,0.0,0.0,-52.146606,61.034546,-26.746216
1766498223188,-0.87646484,-0.3725586,0.29589844,1.0986328,0.30517578,-1.2207031,0.0,0.0,0.0,-52.250977,61.034546,-26.746216
1766498223276,-0.88134766,-0.38378906,0.29296875,0.48828125,-2.6855469,-0.7324219,0.0,0.0,0.0,-52.250977,61.034546,-26.746216
1766498223288,-0.88134766,-0.38378906,0.29296875,0.48828125,-2.6855469,-0.7324219,0.0,0.0,0.0,-52.28943,60.979614,-26.883545
1766498223376,-0.87060547,-0.38085938,0.29541016,0.18310547,1.3427734,-0.061035156,0.0,0.0,0.0,-52.28943,60.979614,-26.883545
1766498223388,-0.87060547,-0.38085938,0.29541016,0.18310547,1.3427734,-0.061035156,0.0,0.0,0.0,-52.22351,60.968628,-26.861572
1766498223476,-0.8725586,-0.38183594,0.27978516,1.2207031,1.159668,0.36621094,0.0,0.0,0.0,-52.22351,60.968628,-26.861572
1766498223487,-0.8725586,-0.38183594,0.27978516,1.2207031,1.159668,0.36621094,0.0,0.0,0.0,-52.1521,61.012573,-26.845093
1766498223576,-0.8769531,-0.37158203,0.29541016,1.159668,-1.2207031,-0.8544922,0.0,0.0,0.0,-52.1521,61.012573,-26.845093
1766498223587,-0.8769531,-0.37158203,0.29541016,1.159668,-1.2207031,-0.8544922,0.0,0.0,0.0,-52.20703,60.97412,-26.784668
1766498223675,-0.8857422,-0.3857422,0.29541016,0.9765625,0.24414062,-1.2817383,0.0,0.0,0.0,-52.20703,60.97412,-26.784668
1766498223687,-0.8857422,-0.3857422,0.29541016,0.9765625,0.24414062,-1.2817383,0.0,0.0,0.0,-52.322388,60.963135,-26.938477
1766498223775,-0.8769531,-0.39501953,0.2919922,-1.4038086,0.0,0.6713867,0.0,0.0,0.0,-52.322388,60.963135,-26.938477
1766498223787,-0.8769531,-0.39501953,0.2919922,-1.4038086,0.0,0.6713867,0.0,0.0,0.0,-52.278442,60.946655,-26.976929
1766498223875,-0.87646484,-0.38916016,0.2944336,-1.8310547,0.36621094,0.18310547,0.0,0.0,0.0,-52.278442,60.946655,-26.976929
1766498223886,-0.87646484,-0.38916016,0.2944336,-1.8310547,0.36621094,0.18310547,0.0,0.0,0.0,-52.245483,60.985107,-26.828613
1766498223974,-0.8779297,-0.37695312,0.28222656,0.0,0.061035156,-0.4272461,0.0,0.0,0.0,-52.245483,60.985107,-26.828613
1766498223986,-0.8779297,-0.37695312,0.28222656,0.0,0.061035156,-0.4272461,0.0,0.0,0.0,-52.421265,61.012573,-26.976929
1766498224074,-0.87841797,-0.37060547,0.29296875,1.8310547,-0.61035156,-1.8310547,0.0,0.0,0.0,-52.421265,61.012573,-26.976929
1766498224086,-0.87841797,-0.37060547,0.29296875,1.8310547,-0.61035156,-1.8310547,0.0,0.0,0.0,-52.48169,60.963135,-27.125244
1766498224174,-0.87597656,-0.37353516,0.28808594,0.18310547,1.8310547,0.61035156,0.0,0.0,0.0,-52.48169,60.963135,-27.125244
1766498224185,-0.87597656,-0.37353516,0.28808594,0.18310547,1.8310547,0.61035156,0.0,0.0,0.0,-52.3938,60.97412,-27.01538
1766498224274,-0.8769531,-0.38427734,0.28955078,-0.12207031,1.7700195,-0.61035156,0.0,0.0,0.0,-52.3938,60.97412,-27.01538
1766498224285,-0.8769531,-0.38427734,0.28955078,-0.12207031,1.7700195,-0.61035156,0.0,0.0,0.0,-52.426758,61.029053,-27.081299
1766498224373,-0.8798828,-0.37158203,0.28466797,0.48828125,-0.4272461,-0.5493164,0.0,0.0,0.0,-52.426758,61.029053,-27.081299
1766498224385,-0.8798828,-0.37158203,0.28466797,0.48828125,-0.4272461,-0.5493164,0.0,0.0,0.0,-52.443237,60.996094,-27.042847
1766498224473,-0.87841797,-0.38623047,0.28125,1.4648438,-0.6713867,-0.24414062,0.0,0.0,0.0,-52.443237,60.996094,-27.042847
1766498224485,-0.87841797,-0.38623047,0.28125,1.4648438,-0.6713867,-0.24414062,0.0,0.0,0.0,-52.29492,60.930176,-27.070312
1766498224573,-0.8769531,-0.3779297,0.29541016,-1.4038086,-0.5493164,0.8544922,0.0,0.0,0.0,-52.29492,60.930176,-27.070312
1766498224585,-0.8769531,-0.3779297,0.29541016,-1.4038086,-0.5493164,0.8544922,0.0,0.0,0.0,-52.333374,61.00708,-26.954956
1766498224673,-0.8828125,-0.375,0.2861328,1.7089844,0.5493164,-1.2817383,0.0,0.0,0.0,-52.333374,61.00708,-26.954956
1766498224684,-0.8828125,-0.375,0.2861328,1.7089844,0.5493164,-1.2817383,0.0,0.0,0.0,-52.366333,61.04004,-26.96045
1766498224772,-0.87402344,-0.37597656,0.29101562,0.4272461,-0.61035156,-0.79345703,0.0,0.0,0.0,-52.366333,61.04004,-26.96045
1766498224784,-0.87402344,-0.37597656,0.29101562,0.4272461,-0.61035156,-0.79345703,0.0,0.0,0.0,-52.37732,60.913696,-27.037354
1766498224872,-0.8691406,-0.3959961,0.2836914,-1.7700195,1.8920898,0.4272461,0.0,0.0,0.0,-52.37732,60.913696,-27.037354
1766498224884,-0.8691406,-0.3959961,0.2836914,-1.7700195,1.8920898,0.4272461,0.0,0.0,0.0,-52.366333,60.924683,-26.976929
1766498224973,-0.88378906,-0.36523438,0.27539062,-0.061035156,-1.3427734,-0.61035156,0.0,0.0,0.0,-52.366333,60.924683,-26.976929
1766498224984,-0.88378906,-0.36523438,0.27539062,-0.061035156,-1.3427734,-0.61035156,0.0,0.0,0.0,-52.399292,60.85327,-26.713257
1766498225071,-0.8647461,-0.40283203,0.30566406,-1.4648438,-0.061035156,0.12207031,0.0,0.0,0.0,-52.399292,60.85327,-26.713257
1766498225083,-0.8647461,-0.40283203,0.30566406,-1.4648438,-0.061035156,0.12207031,0.0,0.0,0.0,-52.67395,60.88623,-27.16919
1766498225171,-0.88134766,-0.37304688,0.28466797,-1.0986328,-1.159668,-2.1972656,0.0,0.0,0.0,-52.67395,60.88623,-27.16919
1766498225184,-0.88134766,-0.37304688,0.28466797,-1.0986328,-1.159668,-2.1972656,0.0,0.0,0.0,-52.65747,60.704956,-26.889038
1766498225271,-0.8730469,-0.39501953,0.28320312,0.6713867,0.5493164,0.36621094,0.0,0.0,0.0,-52.65747,60.704956,-26.889038
1766498225282,-0.8730469,-0.39501953,0.28320312,0.6713867,0.5493164,0.36621094,0.0,0.0,0.0,-52.756348,60.67749,-27.04834
1766498225371,-0.87890625,-0.40039062,0.29833984,-3.6621094,-0.18310547,-0.48828125,0.0,0.0,0.0,-52.756348,60.67749,-27.04834
1766498225382,-0.87890625,-0.40039062,0.29833984,-3.6621094,-0.18310547,-0.48828125,0.0,0.0,0.0,-52.943115,60.704956,-27.059326
1766498225470,-0.8725586,-0.36816406,0.28759766,0.6713867,1.8920898,-3.2958984,0.0,0.0,0.0,-52.943115,60.704956,-27.059326
1766498225482,-0.8725586,-0.36816406,0.28759766,0.6713867,1.8920898,-3.2958984,0.0,0.0,0.0,-53.393555,60.507202,-27.46582
1766498225570,-0.8803711,-0.39013672,0.2758789,0.12207031,0.4272461,-0.48828125,0.0,0.0,0.0,-53.393555,60.507202,-27.46582
1766498225581,-0.8803711,-0.39013672,0.2758789,0.12207031,0.4272461,-0.48828125,0.0,0.0,0.0,-53.8385,60.51819,-28.10852
1766498225670,-0.86572266,-0.40722656,0.27783203,-0.30517578,3.4179688,0.4272461,0.0,0.0,0.0,-53.8385,60.51819,-28.10852
1766498225681,-0.86572266,-0.40722656,0.27783203,-0.30517578,3.4179688,0.4272461,0.0,0.0,0.0,-53.97583,60.650024,-28.234863
1766498225769,-0.8725586,-0.3857422,0.2734375,0.061035156,1.2207031,-1.5258789,0.0,0.0,0.0,-53.97583,60.650024,-28.234863
1766498225781,-0.8725586,-0.3857422,0.2734375,0.061035156,1.2207031,-1.5258789,0.0,0.0,0.0,-54.299927,60.639038,-28.465576
1766498225869,-0.87158203,-0.38916016,0.27392578,2.4414062,-0.18310547,-1.0986328,0.0,0.0,0.0,-54.299927,60.639038,-28.465576
1766498225881,-0.87158203,-0.38916016,0.27392578,2.4414062,-0.18310547,-1.0986328,0.0,0.0,0.0,-54.613037,60.633545,-28.99292
1766498225969,-0.8720703,-0.40722656,0.28271484,-0.5493164,1.6479492,0.79345703,0.0,0.0,0.0,-54.613037,60.633545,-28.99292
1766498225980,-0.8720703,-0.40722656,0.28271484,-0.5493164,1.6479492,0.79345703,0.0,0.0,0.0,-54.607544,60.721436,-29.152222
1766498226069,-0.8666992,-0.390625,0.26513672,-2.6855469,-2.319336,2.8686523,0.0,0.0,0.0,-54.607544,60.721436,-29.152222
1766498226080,-0.8666992,-0.390625,0.26513672,-2.6855469,-2.319336,2.8686523,0.0,0.0,0.0,-54.486694,60.787354,-28.839111
1766498226168,-0.8979492,-0.40039062,0.28271484,3.0517578,0.5493164,-0.12207031,0.0,0.0,0.0,-54.486694,60.787354,-28.839111
1766498226180,-0.8979492,-0.40039062,0.28271484,3.0517578,0.5493164,-0.12207031,0.0,0.0,0.0,-54.316406,60.930176,-28.619385
1766498226268,-0.8618164,-0.39404297,0.26367188,-0.5493164,1.5869141,1.953125,0.0,0.0,0.0,-54.316406,60.930176,-28.619385
1766498226280,-0.8618164,-0.39404297,0.26367188,-0.5493164,1.5869141,1.953125,0.0,0.0,0.0,-54.299927,60.996094,-28.729248
1766498226368,-0.8935547,-0.3852539,0.26660156,0.61035156,-0.24414062,-0.7324219,0.0,0.0,0.0,-54.299927,60.996094,-28.729248
1766498226379,-0.8935547,-0.3852539,0.26660156,0.61035156,-0.24414062,-0.7324219,0.0,0.0,0.0,-54.299927,61.105957,-28.531494
1766498226468,-0.86816406,-0.38720703,0.28027344,1.5258789,1.8920898,0.4272461,0.0,0.0,0.0,-54.299927,61.105957,-28.531494
1766498226479,-0.86816406,-0.38720703,0.28027344,1.5258789,1.8920898,0.4272461,0.0,0.0,0.0,-54.37683,61.14441,-28.723755
1766498226567,-0.88964844,-0.39453125,0.26220703,-0.061035156,-0.24414062,0.24414062,0.0,0.0,0.0,-54.37683,61.14441,-28.723755
1766498226579,-0.88964844,-0.39453125,0.26220703,-0.061035156,-0.24414062,0.24414062,0.0,0.0,0.0,-54.18457,61.16638,-28.597412
1766498226667,-0.88183594,-0.38378906,0.26904297,0.9765625,0.30517578,-0.4272461,0.0,0.0,0.0,-54.18457,61.16638,-28.597412
1766498226679,-0.88183594,-0.38378906,0.26904297,0.9765625,0.30517578,-0.4272461,0.0,0.0,0.0,-54.33838,61.243286,-28.712769
1766498226767,-0.8808594,-0.3881836,0.2709961,-0.30517578,-0.7324219,0.061035156,0.0,0.0,0.0,-54.33838,61.243286,-28.712769
1766498226779,-0.8808594,-0.3881836,0.2709961,-0.30517578,-0.7324219,0.061035156,0.0,0.0,0.0,-54.37683,61.237793,-28.806152
1766498226866,-0.8828125,-0.38916016,0.26708984,0.36621094,0.0,0.0,0.0,0.0,0.0,-54.37683,61.237793,-28.806152
1766498226878,-0.8828125,-0.38916016,0.26708984,0.36621094,0.0,0.0,0.0,0.0,0.0,-54.299927,61.237793,-28.668823
1766498226966,-0.87890625,-0.38427734,0.2705078,0.12207031,0.24414062,-0.24414062,0.0,0.0,0.0,-54.299927,61.237793,-28.668823
1766498226978,-0.87890625,-0.38427734,0.2705078,0.12207031,0.24414062,-0.24414062,0.0,0.0,0.0,-54.39331,61.24878,-28.723755
1766498227066,-0.8803711,-0.38427734,0.27246094,-0.061035156,-0.48828125,0.12207031,0.0,0.0,0.0,-54.39331,61.24878,-28.723755
1766498227078,-0.8803711,-0.38427734,0.27246094,-0.061035156,-0.48828125,0.12207031,0.0,0.0,0.0,-54.37683,61.259766,-28.668823
1766498227166,-0.8886719,-0.39160156,0.26660156,0.061035156,-0.5493164,0.061035156,0.0,0.0,0.0,-54.37683,61.259766,-28.668823
1766498227177,-0.8886719,-0.39160156,0.26660156,0.061035156,-0.5493164,0.061035156,0.0,0.0,0.0,-54.266968,61.259766,-28.520508
1766498227265,-0.87060547,-0.38378906,0.2734375,1.2817383,0.0,-0.61035156,0.0,0.0,0.0,-54.266968,61.259766,-28.520508
1766498227277,-0.87060547,-0.38378906,0.2734375,1.2817383,0.0,-0.61035156,0.0,0.0,0.0,-54.239502,61.259766,-28.460083
1766498227365,-0.8852539,-0.3857422,0.26171875,0.18310547,-0.12207031,-0.9765625,0.0,0.0,0.0,-54.239502,61.259766,-28.460083
1766498227377,-0.8852539,-0.3857422,0.26171875,0.18310547,-0.12207031,-0.9765625,0.0,0.0,0.0,-54.277954,61.188354,-28.515015
1766498227465,-0.8754883,-0.3881836,0.2680664,0.0,-0.36621094,0.4272461,0.0,0.0,0.0,-54.277954,61.188354,-28.515015
1766498227476,-0.8754883,-0.3881836,0.2680664,0.0,-0.36621094,0.4272461,0.0,0.0,0.0,-54.343872,61.2323,-28.57544
1766498227564,-0.87890625,-0.38378906,0.27148438,-0.36621094,0.0,-0.061035156,0.0,0.0,0.0,-54.343872,61.2323,-28.57544
1766498227576,-0.87890625,-0.38378906,0.27148438,-0.36621094,0.0,-0.061035156,0.0,0.0,0.0,-54.371338,61.243286,-28.493042
1766498227664,-0.88378906,-0.39111328,0.2631836,0.061035156,-0.36621094,-0.24414062,0.0,0.0,0.0,-54.371338,61.243286,-28.493042
1766498227676,-0.88378906,-0.39111328,0.2631836,0.061035156,-0.36621094,-0.24414062,0.0,0.0,0.0,-54.30542,61.226807,-28.388672
1766498227764,-0.8803711,-0.38427734,0.27197266,0.0,-0.61035156,-0.061035156,0.0,0.0,0.0,-54.30542,61.226807,-28.388672
1766498227775,-0.8803711,-0.38427734,0.27197266,0.0,-0.61035156,-0.061035156,0.0,0.0,0.0,-54.382324,61.226807,-28.45459
1766498227864,-0.87939453,-0.3852539,0.27197266,0.0,-0.18310547,-0.12207031,0.0,0.0,0.0,-54.382324,61.226807,-28.45459
1766498227875,-0.87939453,-0.3852539,0.27197266,0.0,-0.18310547,-0.12207031,0.0,0.0,0.0,-54.39331,61.237793,-28.43811
1766498227963,-0.88183594,-0.3881836,0.26708984,-0.36621094,0.18310547,0.18310547,0.0,0.0,0.0,-54.39331,61.237793,-28.43811
1766498227975,-0.88183594,-0.3881836,0.26708984,-0.36621094,0.18310547,0.18310547,0.0,0.0,0.0,-54.382324,61.254272,-28.383179
1766498228063,-0.8828125,-0.38476562,0.2734375,-0.061035156,0.24414062,-0.6713867,0.0,0.0,0.0,-54.382324,61.254272,-28.383179
1766498228075,-0.8828125,-0.38476562,0.2734375,-0.061035156,0.24414062,-0.6713867,0.0,0.0,0.0,-54.4812,61.28723,-28.449097
1766498228163,-0.8803711,-0.38232422,0.27001953,-0.30517578,1.2207031,-0.48828125,0.0,0.0,0.0,-54.4812,61.28723,-28.449097
1766498228174,-0.8803711,-0.38232422,0.27001953,-0.30517578,1.2207031,-0.48828125,0.0,0.0,0.0,-54.552612,61.270752,-28.476562
1766498228263,-0.88623047,-0.39501953,0.25878906,0.36621094,0.7324219,-0.12207031,0.0,0.0,0.0,-54.552612,61.270752,-28.476562
1766498228274,-0.88623047,-0.39501953,0.25878906,0.36621094,0.7324219,-0.12207031,0.0,0.0,0.0,-54.58008,61.292725,-28.54248
1766498228362,-0.8779297,-0.38671875,0.27294922,0.4272461,0.061035156,-0.36621094,0.0,0.0,0.0,-54.58008,61.292725,-28.54248
1766498228374,-0.8779297,-0.38671875,0.27294922,0.4272461,0.061035156,-0.36621094,0.0,0.0,0.0,-54.596558,61.292725,-28.498535
1766498228462,-0.88183594,-0.38720703,0.265625,0.6713867,0.7324219,-0.61035156,0.0,0.0,0.0,-54.596558,61.292725,-28.498535
1766498228473,-0.88183594,-0.38720703,0.265625,0.6713867,0.7324219,-0.61035156,0.0,0.0,0.0,-54.63501,61.30371,-28.536987
1766498228562,-0.87841797,-0.38671875,0.265625,-0.18310547,-0.18310547,0.12207031,0.0,0.0,0.0,-54.63501,61.30371,-28.536987
1766498228573,-0.87841797,-0.38671875,0.265625,-0.18310547,-0.18310547,0.12207031,0.0,0.0,0.0,-54.728394,61.325684,-28.624878
1766498228661,-0.8828125,-0.38720703,0.26708984,0.0,0.0,0.18310547,0.0,0.0,0.0,-54.728394,61.325684,-28.624878
1766498228673,-0.8828125,-0.38720703,0.26708984,0.0,0.0,0.18310547,0.0,0.0,0.0,-54.73938,61.364136,-28.553467
1766498228761,-0.87890625,-0.3881836,0.26660156,-0.18310547,0.24414062,0.0,0.0,0.0,0.0,-54.73938,61.364136,-28.553467
1766498228773,-0.87890625,-0.3881836,0.26660156,-0.18310547,0.24414062,0.0,0.0,0.0,0.0,-54.777832,61.402588,-28.515015
1766498228861,-0.8847656,-0.38964844,0.26416016,-0.18310547,-1.3427734,0.36621094,0.0,0.0,0.0,-54.777832,61.402588,-28.515015
1766498228873,-0.8847656,-0.38964844,0.26416016,-0.18310547,-1.3427734,0.36621094,0.0,0.0,0.0,-54.79431,61.413574,-28.520508
1766498228961,-0.8798828,-0.38085938,0.2734375,0.4272461,0.12207031,-0.061035156,0.0,0.0,0.0,-54.79431,61.413574,-28.520508
1766498228972,-0.8798828,-0.38085938,0.2734375,0.4272461,0.12207031,-0.061035156,0.0,0.0,0.0,-54.816284,61.446533,-28.476562
1766498229060,-0.8833008,-0.3852539,0.26171875,-0.30517578,-0.61035156,-0.18310547,0.0,0.0,0.0,-54.816284,61.446533,-28.476562
1766498229072,-0.8833008,-0.3852539,0.26171875,-0.30517578,-0.61035156,-0.18310547,0.0,0.0,0.0,-54.82727,61.446533,-28.504028
1766498229160,-0.88134766,-0.38720703,0.26660156,0.4272461,-0.4272461,0.0,0.0,0.0,0.0,-54.82727,61.446533,-28.504028
1766498229172,-0.88134766,-0.38720703,0.26660156,0.4272461,-0.4272461,0.0,0.0,0.0,0.0,-54.766846,61.44104,-28.42163
1766498229260,-0.8798828,-0.3876953,0.26367188,0.30517578,-0.061035156,-0.30517578,0.0,0.0,0.0,-54.766846,61.44104,-28.42163
1766498229271,-0.8798828,-0.3876953,0.26367188,0.30517578,-0.061035156,-0.30517578,0.0,0.0,0.0,-54.766846,61.435547,-28.42163
1766498229360,-0.8828125,-0.38623047,0.26611328,-0.061035156,-0.48828125,0.4272461,0.0,0.0,0.0,-54.766846,61.435547,-28.42163
1766498229371,-0.8828125,-0.38623047,0.26611328,-0.061035156,-0.48828125,0.4272461,0.0,0.0,0.0,-54.717407,61.45752,-28.339233
1766498229459,-0.88671875,-0.38232422,0.26464844,1.7089844,-0.36621094,-0.91552734,0.0,0.0,0.0,-54.717407,61.45752,-28.339233
1766498229471,-0.88671875,-0.38232422,0.26464844,1.7089844,-0.36621094,-0.91552734,0.0,0.0,0.0,-54.624023,61.452026,-28.278809
1766498229559,-0.8774414,-0.38916016,0.25976562,0.5493164,-0.30517578,0.36621094,0.0,0.0,0.0,-54.624023,61.452026,-28.278809
1766498229571,-0.8774414,-0.38916016,0.25976562,0.5493164,-0.30517578,0.36621094,0.0,0.0,0.0,-54.536133,61.40808,-28.339233
1766498229659,-0.88378906,-0.38085938,0.2705078,1.159668,1.2817383,-0.12207031,0.0,0.0,0.0,-54.536133,61.40808,-28.339233
1766498229670,-0.88378906,-0.38085938,0.2705078,1.159668,1.2817383,-0.12207031,0.0,0.0,0.0,-54.365845,61.430054,-28.053589
1766498229759,-0.88134766,-0.39013672,0.26757812,1.4648438,-1.4038086,-1.159668,0.0,0.0,0.0,-54.365845,61.430054,-28.053589
1766498229771,-0.88134766,-0.39013672,0.26757812,1.4648438,-1.4038086,-1.159668,0.0,0.0,0.0,-54.27246,61.36963,-28.146973
1766498229858,-0.8808594,-0.38330078,0.27294922,-0.5493164,-1.2207031,0.36621094,0.0,0.0,0.0,-54.27246,61.36963,-28.146973
1766498229870,-0.8808594,-0.38330078,0.27294922,-0.5493164,-1.2207031,0.36621094,0.0,0.0,0.0,-54.157104,61.309204,-28.02063
1766498229958,-0.88623047,-0.38671875,0.26953125,1.2207031,0.6713867,-0.91552734,0.0,0.0,0.0,-54.157104,61.309204,-28.02063
1766498229969,-0.88623047,-0.38671875,0.26953125,1.2207031,0.6713867,-0.91552734,0.0,0.0,0.0,-54.06372,61.28723,-27.921753
1766498230058,-0.87890625,-0.38427734,0.27148438,0.0,0.5493164,-0.24414062,0.0,0.0,0.0,-54.06372,61.28723,-27.921753
1766498230069,-0.87890625,-0.38427734,0.27148438,0.0,0.5493164,-0.24414062,0.0,0.0,0.0,-54.228516,61.298218,-28.14148
1766498230157,-0.87890625,-0.3857422,0.2709961,-0.5493164,-0.061035156,0.061035156,0.0,0.0,0.0,-54.228516,61.298218,-28.14148
1766498230169,-0.87890625,-0.3857422,0.2709961,-0.5493164,-0.061035156,0.061035156,0.0,0.0,0.0,-54.266968,61.32019,-28.146973
1766498230257,-0.8823242,-0.38720703,0.26757812,-0.36621094,-0.4272461,0.0,0.0,0.0,0.0,-54.266968,61.32019,-28.146973
1766498230269,-0.8823242,-0.38720703,0.26757812,-0.36621094,-0.4272461,0.0,0.0,0.0,0.0,-54.23401,61.314697,-28.070068
1766498230357,-0.8823242,-0.38183594,0.27490234,-1.7700195,-1.6479492,0.6713867,0.0,0.0,0.0,-54.23401,61.314697,-28.070068
1766498230374,-0.8823242,-0.38183594,0.27490234,-1.7700195,-1.6479492,0.6713867,0.0,0.0,0.0,-54.27246,61.32019,-28.048096
1766498230457,-0.8720703,-0.37841797,0.2705078,-0.061035156,1.0986328,0.12207031,0.0,0.0,0.0,-54.27246,61.32019,-28.048096
1766498230468,-0.8720703,-0.37841797,0.2705078,-0.061035156,1.0986328,0.12207031,0.0,0.0,0.0,-54.195557,61.325684,-27.81189
1766498230556,-0.8847656,-0.38427734,0.2709961,-0.18310547,0.36621094,0.061035156,0.0,0.0,0.0,-54.195557,61.325684,-27.81189
1766498230568,-0.8847656,-0.38427734,0.2709961,-0.18310547,0.36621094,0.061035156,0.0,0.0,0.0,-54.118652,61.347656,-27.680054
1766498230656,-0.87890625,-0.3774414,0.27441406,0.12207031,-0.7324219,0.0,0.0,0.0,0.0,-54.118652,61.347656,-27.680054
1766498230667,-0.87890625,-0.3774414,0.27441406,0.12207031,-0.7324219,0.0,0.0,0.0,0.0,-54.085693,61.347656,-27.619629
1766498230756,-0.8828125,-0.38623047,0.26904297,-0.36621094,-0.6713867,-0.061035156,0.0,0.0,0.0,-54.085693,61.347656,-27.619629
1766498230767,-0.8828125,-0.38623047,0.26904297,-0.36621094,-0.6713867,-0.061035156,0.0,0.0,0.0,-54.00879,61.347656,-27.581177
1766498230855,-0.88183594,-0.3852539,0.2705078,0.0,-0.5493164,-0.12207031,0.0,0.0,0.0,-54.00879,61.347656,-27.581177
1766498230867,-0.88183594,-0.3852539,0.2705078,0.0,-0.5493164,-0.12207031,0.0,0.0,0.0,-54.00879,61.33667,-27.58667
1766498230955,-0.87841797,-0.38427734,0.27685547,-0.24414062,-0.24414062,-0.12207031,0.0,0.0,0.0,-54.00879,61.33667,-27.58667
1766498230967,-0.87841797,-0.38427734,0.27685547,-0.24414062,-0.24414062,-0.12207031,0.0,0.0,0.0,-53.94287,61.314697,-27.487793
1766498231055,-0.88378906,-0.38330078,0.2758789,-0.61035156,0.18310547,0.30517578,0.0,0.0,0.0,-53.94287,61.314697,-27.487793
1766498231067,-0.88378906,-0.38330078,0.2758789,-0.61035156,0.18310547,0.30517578,0.0,0.0,0.0,-53.898926,61.309204,-27.421875
1766498231155,-0.88427734,-0.38330078,0.2788086,0.18310547,-0.30517578,-0.30517578,0.0,0.0,0.0,-53.898926,61.309204,-27.421875
1766498231166,-0.88427734,-0.38330078,0.2788086,0.18310547,-0.30517578,-0.30517578,0.0,0.0,0.0,-53.94287,61.347656,-27.509766
1766498231254,-0.87890625,-0.37890625,0.27539062,0.0,1.2817383,-0.36621094,0.0,0.0,0.0,-53.94287,61.347656,-27.509766
1766498231266,-0.87890625,-0.37890625,0.27539062,0.0,1.2817383,-0.36621094,0.0,0.0,0.0,-53.937378,61.342163,-27.509766
1766498231354,-0.88427734,-0.3876953,0.26513672,0.4272461,0.91552734,-0.61035156,0.0,0.0,0.0,-53.937378,61.342163,-27.509766
1766498231366,-0.88427734,-0.3876953,0.26513672,0.4272461,0.91552734,-0.61035156,0.0,0.0,0.0,-54.04724,61.36963,-27.734985
1766498231454,-0.8774414,-0.38183594,0.27441406,-0.4272461,-0.24414062,-0.061035156,0.0,0.0,0.0,-54.04724,61.36963,-27.734985
1766498231466,-0.8774414,-0.38183594,0.27441406,-0.4272461,-0.24414062,-0.061035156,0.0,0.0,0.0,-54.13513,61.380615,-27.822876
1766498231554,-0.8833008,-0.3857422,0.26611328,0.61035156,0.6713867,-0.30517578,0.0,0.0,0.0,-54.13513,61.380615,-27.822876
1766498231565,-0.8833008,-0.3857422,0.26611328,0.61035156,0.6713867,-0.30517578,0.0,0.0,0.0,-54.11316,61.38611,-27.833862
1766498231653,-0.8833008,-0.38623047,0.27001953,0.24414062,0.61035156,-0.36621094,0.0,0.0,0.0,-54.11316,61.38611,-27.833862
1766498231665,-0.8833008,-0.38623047,0.27001953,0.24414062,0.61035156,-0.36621094,0.0,0.0,0.0,-54.244995,61.402588,-28.026123
1766498231753,-0.87939453,-0.38330078,0.27001953,0.0,0.12207031,-0.061035156,0.0,0.0,0.0,-54.244995,61.402588,-28.026123
1766498231765,-0.87939453,-0.38330078,0.27001953,0.0,0.12207031,-0.061035156,0.0,0.0,0.0,-54.299927,61.42456,-28.075562
1766498231853,-0.8852539,-0.38623047,0.265625,0.30517578,0.36621094,0.061035156,0.0,0.0,0.0,-54.299927,61.42456,-28.075562
1766498231864,-0.8852539,-0.38623047,0.265625,0.30517578,0.36621094,0.061035156,0.0,0.0,0.0,-54.30542,61.446533,-28.081055
1766498231953,-0.8769531,-0.38476562,0.26367188,0.6713867,0.91552734,-0.48828125,0.0,0.0,0.0,-54.30542,61.446533,-28.081055
1766498231964,-0.8769531,-0.38476562,0.26367188,0.6713867,0.91552734,-0.48828125,0.0,0.0,0.0,-54.42627,61.49048,-28.207397
1766498232052,-0.8852539,-0.3828125,0.25976562,-0.61035156,-0.30517578,0.061035156,0.0,0.0,0.0,-54.42627,61.49048,-28.207397
1766498232064,-0.8852539,-0.3828125,0.25976562,-0.61035156,-0.30517578,0.061035156,0.0,0.0,0.0,-54.453735,61.479492,-28.196411
1766498232152,-0.8823242,-0.3857422,0.2626953,0.5493164,0.12207031,-0.30517578,0.0,0.0,0.0,-54.453735,61.479492,-28.196411
1766498232163,-0.8823242,-0.3857422,0.2626953,0.5493164,0.12207031,-0.30517578,0.0,0.0,0.0,-54.54712,61.51245,-28.300781
1766498232252,-0.88134766,-0.3828125,0.2680664,-0.6713867,-0.6713867,0.24414062,0.0,0.0,0.0,-54.54712,61.51245,-28.300781
1766498232263,-0.88134766,-0.3828125,0.2680664,-0.6713867,-0.6713867,0.24414062,0.0,0.0,0.0,-54.558105,61.517944,-28.273315
1766498232351,-0.88427734,-0.38623047,0.26513672,0.6713867,0.61035156,-0.18310547,0.0,0.0,0.0,-54.558105,61.517944,-28.273315
1766498232363,-0.88427734,-0.38623047,0.26513672,0.6713867,0.61035156,-0.18310547,0.0,0.0,0.0,-54.525146,61.539917,-28.223877
1766498232451,-0.8833008,-0.38427734,0.26513672,0.5493164,0.36621094,-0.30517578,0.0,0.0,0.0,-54.525146,61.539917,-28.223877
1766498232462,-0.8833008,-0.38427734,0.26513672,0.5493164,0.36621094,-0.30517578,0.0,0.0,0.0,-54.58557,61.556396,-28.311768
1766498232551,-0.8833008,-0.38427734,0.26757812,-0.5493164,-0.61035156,0.48828125,0.0,0.0,0.0,-54.58557,61.556396,-28.311768
1766498232562,-0.8833008,-0.38427734,0.26757812,-0.5493164,-0.61035156,0.48828125,0.0,0.0,0.0,-54.591064,61.583862,-28.26233
1766498232651,-0.8847656,-0.38427734,0.26708984,0.48828125,-0.4272461,-0.12207031,0.0,0.0,0.0,-54.591064,61.583862,-28.26233
1766498232662,-0.8847656,-0.38427734,0.26708984,0.48828125,-0.4272461,-0.12207031,0.0,0.0,0.0,-54.541626,61.583862,-28.179932
1766498232750,-0.88134766,-0.38183594,0.2685547,0.9765625,-0.30517578,-0.4272461,0.0,0.0,0.0,-54.541626,61.583862,-28.179932
1766498232762,-0.88134766,-0.38183594,0.2685547,0.9765625,-0.30517578,-0.4272461,0.0,0.0,0.0,-54.448242,61.56189,-28.103027
1766498232850,-0.88671875,-0.38720703,0.26513672,1.0375977,-1.6479492,0.0,0.0,0.0,0.0,-54.448242,61.56189,-28.103027
1766498232861,-0.88671875,-0.38720703,0.26513672,1.0375977,-1.6479492,0.0,0.0,0.0,0.0,-54.25049,61.523438,-27.98767
1766498232950,-0.8779297,-0.3774414,0.27783203,1.0375977,-0.30517578,-0.24414062,0.0,0.0,0.0,-54.25049,61.523438,-27.98767
1766498232961,-0.8779297,-0.3774414,0.27783203,1.0375977,-0.30517578,-0.24414062,0.0,0.0,0.0,-54.195557,61.51245,-27.971191
1766498233050,-0.8833008,-0.38427734,0.26757812,-0.061035156,-0.5493164,0.24414062,0.0,0.0,0.0,-54.195557,61.51245,-27.971191
1766498233061,-0.8833008,-0.38427734,0.26757812,-0.061035156,-0.5493164,0.24414062,0.0,0.0,0.0,-54.091187,61.49048,-27.976685
1766498233149,-0.8852539,-0.38330078,0.2734375,0.48828125,-1.5258789,0.30517578,0.0,0.0,0.0,-54.091187,61.49048,-27.976685
1766498233161,-0.8852539,-0.38330078,0.2734375,0.48828125,-1.5258789,0.30517578,0.0,0.0,0.0,-53.893433,61.479492,-27.751465
1766498233249,-0.8808594,-0.3803711,0.27246094,0.5493164,-0.24414062,-0.12207031,0.0,0.0,0.0,-53.893433,61.479492,-27.751465
1766498233260,-0.8808594,-0.3803711,0.27246094,0.5493164,-0.24414062,-0.12207031,0.0,0.0,0.0,-53.778076,61.468506,-27.70752
1766498233349,-0.8798828,-0.38085938,0.27441406,-0.61035156,-0.9765625,0.24414062,0.0,0.0,0.0,-53.778076,61.468506,-27.70752
1766498233360,-0.8798828,-0.38085938,0.27441406,-0.61035156,-0.9765625,0.24414062,0.0,0.0,0.0,-53.728638,61.463013,-27.658081
1766498233448,-0.88427734,-0.37841797,0.2788086,-0.30517578,-0.5493164,0.5493164,0.0,0.0,0.0,-53.728638,61.463013,-27.658081
1766498233460,-0.88427734,-0.37841797,0.2788086,-0.30517578,-0.5493164,0.5493164,0.0,0.0,0.0,-53.585815,61.45752,-27.383423
1766498233548,-0.88134766,-0.37890625,0.27441406,0.12207031,0.061035156,0.0,0.0,0.0,0.0,-53.585815,61.45752,-27.383423
1766498233560,-0.88134766,-0.37890625,0.27441406,0.12207031,0.061035156,0.0,0.0,0.0,0.0,-53.448486,61.468506,-27.196655
1766498233648,-0.890625,-0.38378906,0.27734375,-1.2207031,-0.8544922,0.18310547,0.0,0.0,0.0,-53.448486,61.468506,-27.196655
1766498233660,-0.890625,-0.38378906,0.27734375,-1.2207031,-0.8544922,0.18310547,0.0,0.0,0.0,-53.48694,61.479492,-27.213135
1766498233748,-0.8745117,-0.37304688,0.27978516,-0.24414062,0.6713867,-0.24414062,0.0,0.0,0.0,-53.48694,61.479492,-27.213135
1766498233763,-0.8745117,-0.37304688,0.27978516,-0.24414062,0.6713867,-0.24414062,0.0,0.0,0.0,-53.690186,61.534424,-27.37793
1766498233847,-0.8803711,-0.38134766,0.27197266,-0.48828125,0.24414062,0.18310547,0.0,0.0,0.0,-53.690186,61.534424,-27.37793
1766498233859,-0.8803711,-0.38134766,0.27197266,-0.48828125,0.24414062,0.18310547,0.0,0.0,0.0,-53.70117,61.556396,-27.372437
1766498233947,-0.8808594,-0.37841797,0.27441406,0.18310547,-0.12207031,-0.18310547,0.0,0.0,0.0,-53.70117,61.556396,-27.372437
1766498233959,-0.8808594,-0.37841797,0.27441406,0.18310547,-0.12207031,-0.18310547,0.0,0.0,0.0,-53.651733,61.539917,-27.251587
1766498234047,-0.88183594,-0.3779297,0.27539062,-0.18310547,-0.36621094,-0.12207031,0.0,0.0,0.0,-53.651733,61.539917,-27.251587
1766498234058,-0.88183594,-0.3779297,0.27539062,-0.18310547,-0.36621094,-0.12207031,0.0,0.0,0.0,-53.62976,61.523438,-27.2406
1766498234147,-0.88183594,-0.3774414,0.2758789,-0.30517578,-1.5258789,0.30517578,0.0,0.0,0.0,-53.62976,61.523438,-27.2406
1766498234158,-0.88183594,-0.3774414,0.2758789,-0.30517578,-1.5258789,0.30517578,0.0,0.0,0.0,-53.514404,61.506958,-27.092285
1766498234247,-0.88378906,-0.37841797,0.27978516,0.12207031,-0.6713867,0.0,0.0,0.0,0.0,-53.514404,61.506958,-27.092285
1766498234258,-0.88378906,-0.37841797,0.27978516,0.12207031,-0.6713867,0.0,0.0,0.0,0.0,-53.327637,61.474,-26.867065
1766498234346,-0.88378906,-0.3779297,0.27392578,0.48828125,0.48828125,-0.30517578,0.0,0.0,0.0,-53.327637,61.474,-26.867065
1766498234358,-0.88378906,-0.3779297,0.27392578,0.48828125,0.48828125,-0.30517578,0.0,0.0,0.0,-53.267212,61.468506,-26.817627
1766498234446,-0.8857422,-0.38378906,0.2788086,0.24414062,-1.5869141,0.0,0.0,0.0,0.0,-53.267212,61.468506,-26.817627
1766498234458,-0.8857422,-0.38378906,0.2788086,0.24414062,-1.5869141,0.0,0.0,0.0,0.0,-53.294678,61.463013,-26.92749
1766498234545,-0.87841797,-0.37353516,0.28271484,0.36621094,0.48828125,-0.24414062,0.0,0.0,0.0,-53.294678,61.463013,-26.92749
1766498234557,-0.87841797,-0.37353516,0.28271484,0.36621094,0.48828125,-0.24414062,0.0,0.0,0.0,-53.22876,61.446533,-26.812134
1766498234645,-0.8847656,-0.38183594,0.27197266,-0.061035156,-0.24414062,-0.12207031,0.0,0.0,0.0,-53.22876,61.446533,-26.812134
1766498234657,-0.8847656,-0.38183594,0.27197266,-0.061035156,-0.24414062,-0.12207031,0.0,0.0,0.0,-53.217773,61.446533,-26.85608
1766498234745,-0.88183594,-0.37646484,0.27978516,0.0,-0.6713867,0.061035156,0.0,0.0,0.0,-53.217773,61.446533,-26.85608
1766498234756,-0.88183594,-0.37646484,0.27978516,0.0,-0.6713867,0.061035156,0.0,0.0,0.0,-53.223267,61.452026,-26.828613
1766498234845,-0.8823242,-0.37890625,0.27734375,0.18310547,0.24414062,-0.36621094,0.0,0.0,0.0,-53.223267,61.452026,-26.828613
1766498234856,-0.8823242,-0.37890625,0.27734375,0.18310547,0.24414062,-0.36621094,0.0,0.0,0.0,-53.190308,61.452026,-26.82312
1766498234944,-0.8823242,-0.3774414,0.27734375,0.12207031,0.0,-0.12207031,0.0,0.0,0.0,-53.190308,61.452026,-26.82312
1766498234956,-0.8823242,-0.3774414,0.27734375,0.12207031,0.0,-0.12207031,0.0,0.0,0.0,-53.21228,61.452026,-26.878052
1766498235044,-0.8808594,-0.3779297,0.27978516,0.061035156,0.12207031,-0.061035156,0.0,0.0,0.0,-53.21228,61.452026,-26.878052
1766498235056,-0.8808594,-0.3779297,0.27978516,0.061035156,0.12207031,-0.061035156,0.0,0.0,0.0,-53.201294,61.45752,-26.878052
1766498235144,-0.8833008,-0.3774414,0.2783203,0.48828125,1.0986328,-0.36621094,0.0,0.0,0.0,-53.201294,61.45752,-26.878052
1766498235155,-0.8833008,-0.3774414,0.2783203,0.48828125,1.0986328,-0.36621094,0.0,0.0,0.0,-53.234253,61.479492,-26.92749
1766498235244,-0.88623047,-0.38134766,0.27978516,0.36621094,-0.36621094,-0.30517578,0.0,0.0,0.0,-53.234253,61.479492,-26.92749
1766498235255,-0.88623047,-0.38134766,0.27978516,0.36621094,-0.36621094,-0.30517578,0.0,0.0,0.0,-53.448486,61.51245,-27.25708
1766498235343,-0.8798828,-0.37646484,0.28076172,0.36621094,1.3427734,-0.36621094,0.0,0.0,0.0,-53.448486,61.51245,-27.25708
1766498235355,-0.8798828,-0.37646484,0.28076172,0.36621094,1.3427734,-0.36621094,0.0,0.0,0.0,-53.4375,61.51245,-27.16919
1766498235443,-0.8876953,-0.38476562,0.26953125,0.0,0.0,-0.4272461,0.0,0.0,0.0,-53.4375,61.51245,-27.16919
1766498235455,-0.8876953,-0.38476562,0.26953125,0.0,0.0,-0.4272461,0.0,0.0,0.0,-53.49243,61.51245,-27.29004
1766498235543,-0.8808594,-0.37695312,0.2783203,0.0,-0.48828125,0.061035156,0.0,0.0,0.0,-53.49243,61.51245,-27.29004
1766498235554,-0.8808594,-0.37695312,0.2783203,0.0,-0.48828125,0.061035156,0.0,0.0,0.0,-53.530884,61.517944,-27.306519
1766498235643,-0.8833008,-0.38232422,0.27197266,0.24414062,0.4272461,-0.24414062,0.0,0.0,0.0,-53.530884,61.517944,-27.306519
1766498235654,-0.8833008,-0.38232422,0.27197266,0.24414062,0.4272461,-0.24414062,0.0,0.0,0.0,-53.514404,61.52893,-27.317505
1766498235742,-0.88378906,-0.37841797,0.27294922,0.24414062,0.18310547,-0.12207031,0.0,0.0,0.0,-53.514404,61.52893,-27.317505
1766498235754,-0.88378906,-0.37841797,0.27294922,0.24414062,0.18310547,-0.12207031,0.0,0.0,0.0,-53.585815,61.539917,-27.37793
1766498235842,-0.8808594,-0.37890625,0.27490234,-0.12207031,0.0,-0.061035156,0.0,0.0,0.0,-53.585815,61.539917,-27.37793
1766498235853,-0.8808594,-0.37890625,0.27490234,-0.12207031,0.0,-0.061035156,0.0,0.0,0.0,-53.602295,61.550903,-27.388916
1766498235942,-0.88623047,-0.3803711,0.26904297,0.0,0.0,0.0,0.0,0.0,0.0,-53.602295,61.550903,-27.388916
1766498235953,-0.88623047,-0.3803711,0.26904297,0.0,0.0,0.0,0.0,0.0,0.0,-53.607788,61.56189,-27.37793
1766498236041,-0.8774414,-0.37890625,0.27148438,0.91552734,1.2207031,-0.7324219,0.0,0.0,0.0,-53.607788,61.56189,-27.37793
1766498236053,-0.8774414,-0.37890625,0.27148438,0.91552734,1.2207031,-0.7324219,0.0,0.0,0.0,-53.69568,61.589355,-27.504272
1766498236141,-0.88427734,-0.3779297,0.265625,-0.79345703,-0.36621094,0.24414062,0.0,0.0,0.0,-53.69568,61.589355,-27.504272
1766498236153,-0.88427734,-0.3779297,0.265625,-0.79345703,-0.36621094,0.24414062,0.0,0.0,0.0,-53.673706,61.572876,-27.438354
1766498236241,-0.8828125,-0.3828125,0.26757812,0.48828125,-0.24414062,-0.18310547,0.0,0.0,0.0,-53.673706,61.572876,-27.438354
1766498236252,-0.8828125,-0.3828125,0.26757812,0.48828125,-0.24414062,-0.18310547,0.0,0.0,0.0,-53.70117,61.589355,-27.49878
1766498236341,-0.87939453,-0.37695312,0.2758789,-0.18310547,-0.30517578,0.0,0.0,0.0,0.0,-53.70117,61.589355,-27.49878
1766498236352,-0.87939453,-0.37695312,0.2758789,-0.18310547,-0.30517578,0.0,0.0,0.0,0.0,-53.728638,61.589355,-27.49878
1766498236440,-0.88623047,-0.38232422,0.2685547,0.4272461,0.24414062,-0.18310547,0.0,0.0,0.0,-53.728638,61.589355,-27.49878
1766498236452,-0.88623047,-0.38232422,0.2685547,0.4272461,0.24414062,-0.18310547,0.0,0.0,0.0,-53.657227,61.589355,-27.427368
1766498236540,-0.8823242,-0.37890625,0.27246094,0.12207031,0.0,-0.24414062,0.0,0.0,0.0,-53.657227,61.589355,-27.427368
1766498236552,-0.8823242,-0.37890625,0.27246094,0.12207031,0.0,-0.24414062,0.0,0.0,0.0,-53.71216,61.59485,-27.471313
1766498236640,-0.8833008,-0.3798828,0.27392578,0.5493164,-0.61035156,0.0,0.0,0.0,0.0,-53.71216,61.59485,-27.471313
1766498236651,-0.8833008,-0.3798828,0.27392578,0.5493164,-0.61035156,0.0,0.0,0.0,0.0,-53.64624,61.589355,-27.410889
1766498236739,-0.8852539,-0.3798828,0.27294922,0.8544922,-0.4272461,-0.24414062,0.0,0.0,0.0,-53.64624,61.589355,-27.410889
1766498236751,-0.8852539,-0.3798828,0.27294922,0.8544922,-0.4272461,-0.24414062,0.0,0.0,0.0,-53.514404,61.567383,-27.317505
1766498236839,-0.8823242,-0.37841797,0.27392578,0.7324219,-0.12207031,-0.5493164,0.0,0.0,0.0,-53.514404,61.567383,-27.317505
1766498236851,-0.8823242,-0.37841797,0.27392578,0.7324219,-0.12207031,-0.5493164,0.0,0.0,0.0,-53.50891,61.54541,-27.36145
1766498236939,-0.88671875,-0.3852539,0.27490234,0.0,-1.3427734,0.18310547,0.0,0.0,0.0,-53.50891,61.54541,-27.36145
1766498236950,-0.88671875,-0.3852539,0.27490234,0.0,-1.3427734,0.18310547,0.0,0.0,0.0,-53.448486,61.51245,-27.36145
1766498237039,-0.8774414,-0.37304688,0.28320312,0.6713867,0.30517578,-0.18310547,0.0,0.0,0.0,-53.448486,61.51245,-27.36145
1766498237050,-0.8774414,-0.37304688,0.28320312,0.6713867,0.30517578,-0.18310547,0.0,0.0,0.0,-53.464966,61.52893,-27.328491
1766498237138,-0.88427734,-0.3803711,0.2705078,-0.18310547,0.18310547,0.0,0.0,0.0,0.0,-53.464966,61.52893,-27.328491
1766498237150,-0.88427734,-0.3803711,0.2705078,-0.18310547,0.18310547,0.0,0.0,0.0,0.0,-53.40454,61.517944,-27.284546
1766498237238,-0.88378906,-0.3798828,0.27490234,0.4272461,-0.61035156,0.0,0.0,0.0,0.0,-53.40454,61.517944,-27.284546
1766498237250,-0.88378906,-0.3798828,0.27490234,0.4272461,-0.61035156,0.0,0.0,0.0,0.0,-53.33313,61.501465,-27.163696
1766498237338,-0.88183594,-0.37939453,0.27783203,-0.36621094,-0.18310547,-0.24414062,0.0,0.0,0.0,-53.33313,61.501465,-27.163696
1766498237349,-0.88183594,-0.37939453,0.27783203,-0.36621094,-0.18310547,-0.24414062,0.0,0.0,0.0,-53.36609,61.506958,-27.207642
1766498237437,-0.8828125,-0.3779297,0.27685547,-0.12207031,-0.30517578,-0.061035156,0.0,0.0,0.0,-53.36609,61.506958,-27.207642
1766498237449,-0.8828125,-0.3779297,0.27685547,-0.12207031,-0.30517578,-0.061035156,0.0,0.0,0.0,-53.377075,61.501465,-27.196655
1766498237537,-0.8803711,-0.37890625,0.27783203,-0.30517578,-0.24414062,0.0,0.0,0.0,0.0,-53.377075,61.501465,-27.196655
1766498237549,-0.8803711,-0.37890625,0.27783203,-0.30517578,-0.24414062,0.0,0.0,0.0,0.0,-53.327637,61.49048,-27.114258
1766498237637,-0.88427734,-0.37646484,0.2763672,-0.24414062,0.12207031,-0.12207031,0.0,0.0,0.0,-53.327637,61.49048,-27.114258
1766498237648,-0.88427734,-0.37646484,0.2763672,-0.24414062,0.12207031,-0.12207031,0.0,0.0,0.0,-53.294678,61.49048,-27.053833
1766498237737,-0.88671875,-0.3803711,0.28271484,-1.2817383,-1.2207031,0.24414062,0.0,0.0,0.0,-53.294678,61.49048,-27.053833
1766498237748,-0.88671875,-0.3803711,0.28271484,-1.2817383,-1.2207031,0.24414062,0.0,0.0,0.0,-53.30017,61.484985,-27.070312
1766498237836,-0.87597656,-0.37304688,0.28027344,-0.18310547,0.12207031,-0.24414062,0.0,0.0,0.0,-53.30017,61.484985,-27.070312
1766498237848,-0.87597656,-0.37304688,0.28027344,-0.18310547,0.12207031,-0.24414062,0.0,0.0,0.0,-53.355103,61.49048,-27.092285
1766498237936,-0.8852539,-0.38183594,0.2709961,-0.061035156,0.24414062,-0.18310547,0.0,0.0,0.0,-53.355103,61.49048,-27.092285
1766498237948,-0.8852539,-0.38183594,0.2709961,-0.061035156,0.24414062,-0.18310547,0.0,0.0,0.0,-53.338623,61.484985,-27.092285
1766498238036,-0.88134766,-0.37695312,0.2783203,0.48828125,-1.0375977,0.0,0.0,0.0,0.0,-53.338623,61.484985,-27.092285
1766498238048,-0.88134766,-0.37695312,0.2783203,0.48828125,-1.0375977,0.0,0.0,0.0,0.0,-53.28369,61.474,-27.026367
1766498238136,-0.88134766,-0.37890625,0.27978516,0.0,-0.24414062,-0.18310547,0.0,0.0,0.0,-53.28369,61.474,-27.026367
1766498238147,-0.88134766,-0.37890625,0.27978516,0.0,-0.24414062,-0.18310547,0.0,0.0,0.0,-53.190308,61.446533,-26.932983
1766498238235,-0.8808594,-0.37841797,0.2763672,0.0,-0.36621094,0.0,0.0,0.0,0.0,-53.190308,61.446533,-26.932983
1766498238247,-0.8808594,-0.37841797,0.2763672,0.0,-0.36621094,0.0,0.0,0.0,0.0,-53.16284,61.44104,-26.91101
1766498238335,-0.88134766,-0.37890625,0.2783203,0.0,-0.4272461,0.0,0.0,0.0,0.0,-53.16284,61.44104,-26.91101
1766498238347,-0.88134766,-0.37890625,0.2783203,0.0,-0.4272461,0.0,0.0,0.0,0.0,-53.085938,61.435547,-26.834106
1766498238435,-0.8847656,-0.3779297,0.27490234,0.0,-0.36621094,0.0,0.0,0.0,0.0,-53.085938,61.435547,-26.834106
1766498238447,-0.8847656,-0.3779297,0.27490234,0.0,-0.36621094,0.0,0.0,0.0,0.0,-53.031006,61.419067,-26.768188
1766498238534,-0.87646484,-0.37695312,0.27929688,0.61035156,0.5493164,-0.36621094,0.0,0.0,0.0,-53.031006,61.419067,-26.768188
1766498238546,-0.87646484,-0.37695312,0.27929688,0.61035156,0.5493164,-0.36621094,0.0,0.0,0.0,-53.069458,61.44104,-26.85608
1766498238634,-0.88427734,-0.3774414,0.27001953,-0.61035156,-0.4272461,0.061035156,0.0,0.0,0.0,-53.069458,61.44104,-26.85608
1766498238646,-0.88427734,-0.3774414,0.27001953,-0.61035156,-0.4272461,0.061035156,0.0,0.0,0.0,-52.94861,61.402588,-26.696777
1766498238734,-0.8833008,-0.37939453,0.2788086,0.7324219,-0.18310547,-0.36621094,0.0,0.0,0.0,-52.94861,61.402588,-26.696777
1766498238746,-0.8833008,-0.37939453,0.2788086,0.7324219,-0.18310547,-0.36621094,0.0,0.0,0.0,-53.014526,61.42456,-26.817627
1766498238834,-0.8779297,-0.37451172,0.28125,-0.18310547,-0.18310547,-0.061035156,0.0,0.0,0.0,-53.014526,61.42456,-26.817627
1766498238846,-0.8779297,-0.37451172,0.28125,-0.18310547,-0.18310547,-0.061035156,0.0,0.0,0.0,-53.031006,61.42456,-26.850586
1766498238933,-0.8852539,-0.38232422,0.27294922,0.12207031,-0.061035156,-0.12207031,0.0,0.0,0.0,-53.031006,61.42456,-26.850586
1766498238945,-0.8852539,-0.38232422,0.27294922,0.12207031,-0.061035156,-0.12207031,0.0,0.0,0.0,-52.959595,61.40808,-26.779175
1766498239033,-0.8774414,-0.37841797,0.27929688,0.36621094,0.30517578,-0.061035156,0.0,0.0,0.0,-52.959595,61.40808,-26.779175
1766498239045,-0.8774414,-0.37841797,0.27929688,0.36621094,0.30517578,-0.061035156,0.0,0.0,0.0,-53.05847,61.435547,-26.900024
1766498239133,-0.8828125,-0.3779297,0.2758789,-0.7324219,-1.6479492,0.7324219,0.0,0.0,0.0,-53.05847,61.435547,-26.900024
1766498239144,-0.8828125,-0.3779297,0.2758789,-0.7324219,-1.6479492,0.7324219,0.0,0.0,0.0,-52.91565,61.419067,-26.707764
1766498239233,-0.8828125,-0.3779297,0.2861328,0.79345703,0.5493164,0.18310547,0.0,0.0,0.0,-52.91565,61.419067,-26.707764
1766498239244,-0.8828125,-0.3779297,0.2861328,0.79345703,0.5493164,0.18310547,0.0,0.0,0.0,-52.81128,61.430054,-26.5979
1766498239332,-0.8803711,-0.375,0.28320312,0.24414062,1.953125,0.24414062,0.0,0.0,0.0,-52.81128,61.430054,-26.5979
1766498239344,-0.8803711,-0.375,0.28320312,0.24414062,1.953125,0.24414062,0.0,0.0,0.0,-52.88269,61.52893,-26.762695
1766498239432,-0.8803711,-0.37597656,0.2758789,0.61035156,1.4038086,-0.9765625,0.0,0.0,0.0,-52.88269,61.52893,-26.762695
1766498239443,-0.8803711,-0.37597656,0.2758789,0.61035156,1.4038086,-0.9765625,0.0,0.0,0.0,-53.09143,61.61682,-27.070312
1766498239532,-0.88671875,-0.3725586,0.27197266,-1.5258789,0.61035156,-0.18310547,0.0,0.0,0.0,-53.09143,61.61682,-27.070312
1766498239543,-0.88671875,-0.3725586,0.27197266,-1.5258789,0.61035156,-0.18310547,0.0,0.0,0.0,-53.24524,61.622314,-27.103271
1766498239631,-0.88916016,-0.38085938,0.27001953,-0.79345703,0.48828125,0.0,0.0,0.0,0.0,-53.24524,61.622314,-27.103271
1766498239643,-0.88916016,-0.38085938,0.27001953,-0.79345703,0.48828125,0.0,0.0,0.0,0.0,-53.459473,61.671753,-27.279053
1766498239731,-0.8833008,-0.3779297,0.27246094,-1.0986328,-0.91552734,0.24414062,0.0,0.0,0.0,-53.459473,61.671753,-27.279053
1766498239743,-0.8833008,-0.3779297,0.27246094,-1.0986328,-0.91552734,0.24414062,0.0,0.0,0.0,-53.607788,61.732178,-27.388916
1766498239831,-0.8881836,-0.375,0.26953125,0.7324219,0.91552734,-0.79345703,0.0,0.0,0.0,-53.607788,61.732178,-27.388916
1766498239842,-0.8881836,-0.375,0.26953125,0.7324219,0.91552734,-0.79345703,0.0,0.0,0.0,-53.618774,61.748657,-27.339478
1766498239931,-0.8847656,-0.37841797,0.26904297,0.7324219,0.61035156,-0.8544922,0.0,0.0,0.0,-53.618774,61.748657,-27.339478
1766498239942,-0.8847656,-0.37841797,0.26904297,0.7324219,0.61035156,-0.8544922,0.0,0.0,0.0,-53.761597,61.732178,-27.57019
1766498240030,-0.8833008,-0.37841797,0.2685547,0.0,-0.30517578,-0.12207031,0.0,0.0,0.0,-53.761597,61.732178,-27.57019
1766498240042,-0.8833008,-0.37841797,0.2685547,0.0,-0.30517578,-0.12207031,0.0,0.0,0.0,-53.80005,61.72119,-27.625122
1766498240130,-0.8857422,-0.38085938,0.26953125,0.24414062,-0.12207031,-0.18310547,0.0,0.0,0.0,-53.80005,61.72119,-27.625122
1766498240142,-0.8857422,-0.38085938,0.26953125,0.24414062,-0.12207031,-0.18310547,0.0,0.0,0.0,-53.794556,61.72119,-27.58667
1766498240230,-0.88427734,-0.3774414,0.27490234,0.30517578,0.4272461,-0.4272461,0.0,0.0,0.0,-53.794556,61.72119,-27.58667
1766498240241,-0.88427734,-0.3774414,0.27490234,0.30517578,0.4272461,-0.4272461,0.0,0.0,0.0,-53.865967,61.726685,-27.647095
1766498240330,-0.8876953,-0.38183594,0.2734375,0.12207031,-0.48828125,-0.24414062,0.0,0.0,0.0,-53.865967,61.726685,-27.647095
1766498240341,-0.8876953,-0.38183594,0.2734375,0.12207031,-0.48828125,-0.24414062,0.0,0.0,0.0,-53.909912,61.704712,-27.723999
1766498240429,-0.8833008,-0.37597656,0.27685547,0.48828125,0.5493164,-0.30517578,0.0,0.0,0.0,-53.909912,61.704712,-27.723999
1766498240441,-0.8833008,-0.37597656,0.27685547,0.48828125,0.5493164,-0.30517578,0.0,0.0,0.0,-53.88794,61.704712,-27.641602
1766498240529,-0.8881836,-0.3828125,0.26708984,0.24414062,-0.61035156,-0.061035156,0.0,0.0,0.0,-53.88794,61.704712,-27.641602
1766498240541,-0.8881836,-0.3828125,0.26708984,0.24414062,-0.61035156,-0.061035156,0.0,0.0,0.0,-53.761597,61.68274,-27.564697
1766498240629,-0.8833008,-0.37841797,0.27392578,1.0986328,-0.91552734,-0.12207031,0.0,0.0,0.0,-53.761597,61.68274,-27.564697
1766498240641,-0.8833008,-0.37841797,0.27392578,1.0986328,-0.91552734,-0.12207031,0.0,0.0,0.0,-53.618774,61.64978,-27.471313
1766498240729,-0.8857422,-0.37890625,0.27001953,1.0986328,0.36621094,-0.61035156,0.0,0.0,0.0,-53.618774,61.64978,-27.471313
1766498240740,-0.8857422,-0.37890625,0.27001953,1.0986328,0.36621094,-0.61035156,0.0,0.0,0.0,-53.50891,61.61133,-27.432861
1766498240828,-0.88427734,-0.3774414,0.27197266,0.30517578,-0.4272461,0.0,0.0,0.0,0.0,-53.50891,61.61133,-27.432861
1766498240840,-0.88427734,-0.3774414,0.27197266,0.30517578,-0.4272461,0.0,0.0,0.0,0.0,-53.464966,61.59485,-27.399902
1766498240928,-0.88183594,-0.37695312,0.27539062,0.12207031,-0.36621094,0.24414062,0.0,0.0,0.0,-53.464966,61.59485,-27.399902
1766498240940,-0.88183594,-0.37695312,0.27539062,0.12207031,-0.36621094,0.24414062,0.0,0.0,0.0,-53.38257,61.605835,-27.29004
1766498241028,-0.8857422,-0.3779297,0.27441406,0.061035156,0.061035156,0.0,0.0,0.0,0.0,-53.38257,61.605835,-27.29004
1766498241039,-0.8857422,-0.3779297,0.27441406,0.061035156,0.061035156,0.0,0.0,0.0,0.0,-53.371582,61.61682,-27.268066
1766498241127,-0.87646484,-0.37939453,0.27441406,0.48828125,0.061035156,-0.36621094,0.0,0.0,0.0,-53.371582,61.61682,-27.268066
1766498241139,-0.87646484,-0.37939453,0.27441406,0.48828125,0.061035156,-0.36621094,0.0,0.0,0.0,-53.40454,61.622314,-27.301025
1766498241227,-0.8901367,-0.38183594,0.27246094,-0.24414062,-0.6713867,0.30517578,0.0,0.0,0.0,-53.40454,61.622314,-27.301025
1766498241239,-0.8901367,-0.38183594,0.27246094,-0.24414062,-0.6713867,0.30517578,0.0,0.0,0.0,-53.344116,61.61682,-27.218628
1766498241327,-0.8808594,-0.37402344,0.28027344,0.36621094,0.061035156,-0.24414062,0.0,0.0,0.0,-53.344116,61.61682,-27.218628
1766498241338,-0.8808594,-0.37402344,0.28027344,0.36621094,0.061035156,-0.24414062,0.0,0.0,0.0,-53.399048,61.627808,-27.295532
1766498241427,-0.88134766,-0.37597656,0.27392578,-0.36621094,-0.8544922,-0.061035156,0.0,0.0,0.0,-53.399048,61.627808,-27.295532
1766498241438,-0.88134766,-0.37597656,0.27392578,-0.36621094,-0.8544922,-0.061035156,0.0,0.0,0.0,-53.410034,61.6333,-27.34497
1766498241526,-0.88427734,-0.37939453,0.27197266,0.30517578,-0.30517578,0.0,0.0,0.0,0.0,-53.410034,61.6333,-27.34497
1766498241538,-0.88427734,-0.37939453,0.27197266,0.30517578,-0.30517578,0.0,0.0,0.0,0.0,-53.289185,61.605835,-27.229614
1766498241626,-0.88134766,-0.375,0.2788086,0.061035156,0.12207031,-0.24414062,0.0,0.0,0.0,-53.289185,61.605835,-27.229614
1766498241638,-0.88134766,-0.375,0.2788086,0.061035156,0.12207031,-0.24414062,0.0,0.0,0.0,-53.327637,61.61133,-27.25708
1766498241726,-0.8808594,-0.37597656,0.2783203,-0.061035156,-0.30517578,0.0,0.0,0.0,0.0,-53.327637,61.61133,-27.25708
1766498241737,-0.8808594,-0.37597656,0.2783203,-0.061035156,-0.30517578,0.0,0.0,0.0,0.0,-53.322144,61.61133,-27.268066
1766498241825,-0.8833008,-0.37597656,0.27734375,-0.61035156,-0.30517578,0.0,0.0,0.0,0.0,-53.322144,61.61133,-27.268066
1766498241837,-0.8833008,-0.37597656,0.27734375,-0.61035156,-0.30517578,0.0,0.0,0.0,0.0,-53.2782,61.605835,-27.185669
1766498241925,-0.8847656,-0.37646484,0.2763672,-0.12207031,0.18310547,0.0,0.0,0.0,0.0,-53.2782,61.605835,-27.185669
1766498241937,-0.8847656,-0.37646484,0.2763672,-0.12207031,0.18310547,0.0,0.0,0.0,0.0,-53.250732,61.61133,-27.13623
1766498242025,-0.88720703,-0.3774414,0.27978516,-0.61035156,-1.6479492,0.061035156,0.0,0.0,0.0,-53.250732,61.61133,-27.13623
1766498242036,-0.88720703,-0.3774414,0.27978516,-0.61035156,-1.6479492,0.061035156,0.0,0.0,0.0,-53.17932,61.583862,-27.075806
1766498242125,-0.87939453,-0.37304688,0.2783203,0.0,0.18310547,-0.30517578,0.0,0.0,0.0,-53.17932,61.583862,-27.075806
1766498242136,-0.87939453,-0.37304688,0.2783203,0.0,0.18310547,-0.30517578,0.0,0.0,0.0,-53.12439,61.56189,-26.987915
1766498242224,-0.8876953,-0.38134766,0.2709961,0.12207031,-0.061035156,-0.30517578,0.0,0.0,0.0,-53.12439,61.56189,-26.987915
1766498242236,-0.8876953,-0.38134766,0.2709961,0.12207031,-0.061035156,-0.30517578,0.0,0.0,0.0,-53.085938,61.550903,-27.004395
1766498242324,-0.87939453,-0.37597656,0.28173828,0.36621094,-0.4272461,-0.12207031,0.0,0.0,0.0,-53.085938,61.550903,-27.004395
1766498242336,-0.87939453,-0.37597656,0.28173828,0.36621094,-0.4272461,-0.12207031,0.0,0.0,0.0,-53.05847,61.54541,-26.965942
1766498242424,-0.88427734,-0.37695312,0.27490234,0.0,0.12207031,-0.18310547,0.0,0.0,0.0,-53.05847,61.54541,-26.965942
1766498242435,-0.88427734,-0.37695312,0.27490234,0.0,0.12207031,-0.18310547,0.0,0.0,0.0,-52.976074,61.523438,-26.883545
1766498242523,-0.88134766,-0.3774414,0.2763672,0.24414062,0.0,-0.18310547,0.0,0.0,0.0,-52.976074,61.523438,-26.883545
1766498242535,-0.88134766,-0.3774414,0.2763672,0.24414062,0.0,-0.18310547,0.0,0.0,0.0,-53.00354,61.517944,-26.921997
1766498242623,-0.88183594,-0.37597656,0.27978516,0.061035156,-0.24414062,0.0,0.0,0.0,0.0,-53.00354,61.517944,-26.921997
1766498242635,-0.88183594,-0.37597656,0.27978516,0.061035156,-0.24414062,0.0,0.0,0.0,0.0,-52.992554,61.523438,-26.91101
1766498242723,-0.88427734,-0.3774414,0.2763672,0.24414062,0.0,0.0,0.0,0.0,0.0,-52.992554,61.523438,-26.91101
1766498242735,-0.88427734,-0.3774414,0.2763672,0.24414062,0.0,0.0,0.0,0.0,0.0,-52.965088,61.523438,-26.883545
1766498242823,-0.8774414,-0.37890625,0.27734375,0.6713867,0.6713867,-0.4272461,0.0,0.0,0.0,-52.965088,61.523438,-26.883545
1766498242834,-0.8774414,-0.37890625,0.27734375,0.6713867,0.6713867,-0.4272461,0.0,0.0,0.0,-53.00354,61.550903,-26.921997
1766498242922,-0.88720703,-0.37890625,0.27001953,-0.48828125,-1.4038086,0.30517578,0.0,0.0,0.0,-53.00354,61.550903,-26.921997
1766498242934,-0.88720703,-0.37890625,0.27001953,-0.48828125,-1.4038086,0.30517578,0.0,0.0,0.0,-52.959595,61.534424,-26.878052
1766498243022,-0.88134766,-0.37304688,0.28173828,0.61035156,0.0,-0.18310547,0.0,0.0,0.0,-52.959595,61.534424,-26.878052
1766498243034,-0.88134766,-0.37304688,0.28173828,0.61035156,0.0,-0.18310547,0.0,0.0,0.0,-52.992554,61.550903,-26.883545
1766498243122,-0.88134766,-0.375,0.2763672,-0.061035156,0.12207031,-0.12207031,0.0,0.0,0.0,-52.992554,61.550903,-26.883545
1766498243133,-0.88134766,-0.375,0.2763672,-0.061035156,0.12207031,-0.12207031,0.0,0.0,0.0,-52.992554,61.550903,-26.921997
1766498243221,-0.88623047,-0.3779297,0.2758789,0.30517578,-0.6713867,0.0,0.0,0.0,0.0,-52.992554,61.550903,-26.921997
1766498243233,-0.88623047,-0.3779297,0.2758789,0.30517578,-0.6713867,0.0,0.0,0.0,0.0,-52.9541,61.539917,-26.883545
1766498243321,-0.88183594,-0.37646484,0.2783203,0.0,0.18310547,-0.36621094,0.0,0.0,0.0,-52.9541,61.539917,-26.883545
1766498243333,-0.88183594,-0.37646484,0.2783203,0.0,0.18310547,-0.36621094,0.0,0.0,0.0,-52.981567,61.539917,-26.938477
1766498243421,-0.88183594,-0.37695312,0.27734375,0.12207031,0.0,-0.12207031,0.0,0.0,0.0,-52.981567,61.539917,-26.938477
1766498243432,-0.88183594,-0.37695312,0.27734375,0.12207031,0.0,-0.12207031,0.0,0.0,0.0,-53.025513,61.550903,-27.004395
1766498243521,-0.8823242,-0.37695312,0.27783203,-0.18310547,-0.18310547,-0.061035156,0.0,0.0,0.0,-53.025513,61.550903,-27.004395
1766498243532,-0.8823242,-0.37695312,0.27783203,-0.18310547,-0.18310547,-0.061035156,0.0,0.0,0.0,-53.02002,61.556396,-26.987915
1766498243620,-0.88427734,-0.37548828,0.27441406,0.0,0.4272461,-0.12207031,0.0,0.0,0.0,-53.02002,61.556396,-26.987915
1766498243632,-0.88427734,-0.37548828,0.27441406,0.0,0.4272461,-0.12207031,0.0,0.0,0.0,-53.025513,61.56189,-26.993408
1766498243720,-0.88134766,-0.3779297,0.27685547,0.061035156,0.18310547,-0.6713867,0.0,0.0,0.0,-53.025513,61.56189,-26.993408
1766498243732,-0.88134766,-0.3779297,0.27685547,0.061035156,0.18310547,-0.6713867,0.0,0.0,0.0,-53.096924,61.567383,-27.114258
1766498243820,-0.8828125,-0.37304688,0.27734375,-0.061035156,0.5493164,-0.18310547,0.0,0.0,0.0,-53.096924,61.567383,-27.114258
1766498243831,-0.8828125,-0.37304688,0.27734375,-0.061035156,0.5493164,-0.18310547,0.0,0.0,0.0,-53.063965,61.550903,-27.026367
1766498243920,-0.88427734,-0.38232422,0.27197266,0.36621094,0.0,-0.30517578,0.0,0.0,0.0,-53.063965,61.550903,-27.026367
1766498243931,-0.88427734,-0.38232422,0.27197266,0.36621094,0.0,-0.30517578,0.0,0.0,0.0,-53.096924,61.56189,-27.125244
1766498244019,-0.87939453,-0.37597656,0.28076172,0.061035156,-0.12207031,-0.12207031,0.0,0.0,0.0,-53.096924,61.56189,-27.125244
1766498244031,-0.87939453,-0.37597656,0.28076172,0.061035156,-0.12207031,-0.12207031,0.0,0.0,0.0,-53.096924,61.550903,-27.092285
1766498244119,-0.8857422,-0.38134766,0.27197266,0.24414062,0.30517578,-0.24414062,0.0,0.0,0.0,-53.096924,61.550903,-27.092285
1766498244131,-0.8857422,-0.38134766,0.27197266,0.24414062,0.30517578,-0.24414062,0.0,0.0,0.0,-53.031006,61.539917,-27.026367
1766498244219,-0.88183594,-0.37597656,0.27783203,0.18310547,0.0,-0.12207031,0.0,0.0,0.0,-53.031006,61.539917,-27.026367
1766498244230,-0.88183594,-0.37597656,0.27783203,0.18310547,0.0,-0.12207031,0.0,0.0,0.0,-53.102417,61.550903,-27.097778
1766498244318,-0.88134766,-0.37695312,0.27929688,0.0,-0.30517578,0.061035156,0.0,0.0,0.0,-53.102417,61.550903,-27.097778
1766498244330,-0.88134766,-0.37695312,0.27929688,0.0,-0.30517578,0.061035156,0.0,0.0,0.0,-53.096924,61.56189,-27.086792
1766498244418,-0.8847656,-0.3774414,0.2788086,0.0,0.0,-0.12207031,0.0,0.0,0.0,-53.096924,61.56189,-27.086792
1766498244430,-0.8847656,-0.3774414,0.2788086,0.0,0.0,-0.12207031,0.0,0.0,0.0,-53.080444,61.56189,-27.04834
1766498244518,-0.8828125,-0.37451172,0.2783203,-0.18310547,0.5493164,-0.12207031,0.0,0.0,0.0,-53.080444,61.56189,-27.04834
1766498244529,-0.8828125,-0.37451172,0.2783203,-0.18310547,0.5493164,-0.12207031,0.0,0.0,0.0,-53.135376,61.583862,-27.119751
1766498244618,-0.88427734,-0.37841797,0.28027344,-0.18310547,-0.4272461,-0.36621094,0.0,0.0,0.0,-53.135376,61.583862,-27.119751
1766498244629,-0.88427734,-0.37841797,0.28027344,-0.18310547,-0.4272461,-0.36621094,0.0,0.0,0.0,-53.16284,61.572876,-27.185669
1766498244717,-0.88134766,-0.37451172,0.2788086,0.12207031,0.18310547,-0.24414062,0.0,0.0,0.0,-53.16284,61.572876,-27.185669
1766498244729,-0.88134766,-0.37451172,0.2788086,0.12207031,0.18310547,-0.24414062,0.0,0.0,0.0,-53.12439,61.567383,-27.114258
1766498244817,-0.88623047,-0.38232422,0.27246094,0.30517578,-0.24414062,-0.12207031,0.0,0.0,0.0,-53.12439,61.567383,-27.114258
1766498244828,-0.88623047,-0.38232422,0.27246094,0.30517578,-0.24414062,-0.12207031,0.0,0.0,0.0,-53.069458,61.56189,-27.13623
1766498244917,-0.8803711,-0.3774414,0.27929688,0.6713867,-0.24414062,-0.24414062,0.0,0.0,0.0,-53.069458,61.56189,-27.13623
1766498244928,-0.8803711,-0.3774414,0.27929688,0.6713867,-0.24414062,-0.24414062,0.0,0.0,0.0,-53.02002,61.54541,-27.103271
1766498245016,-0.88378906,-0.3779297,0.27441406,0.79345703,0.48828125,-0.36621094,0.0,0.0,0.0,-53.02002,61.54541,-27.103271
1766498245028,-0.88378906,-0.3779297,0.27441406,0.79345703,0.48828125,-0.36621094,0.0,0.0,0.0,-52.9541,61.534424,-27.070312
1766498245116,-0.8823242,-0.37646484,0.2788086,0.30517578,0.24414062,-0.061035156,0.0,0.0,0.0,-52.9541,61.534424,-27.070312
1766498245128,-0.8823242,-0.37646484,0.2788086,0.30517578,0.24414062,-0.061035156,0.0,0.0,0.0,-52.998047,61.54541,-27.114258
1766498245216,-0.8823242,-0.37597656,0.2788086,0.18310547,0.061035156,-0.061035156,0.0,0.0,0.0,-52.998047,61.54541,-27.114258
1766498245227,-0.8823242,-0.37597656,0.2788086,0.18310547,0.061035156,-0.061035156,0.0,0.0,0.0,-53.031006,61.567383,-27.147217
1766498245316,-0.8847656,-0.37646484,0.27783203,-0.18310547,0.12207031,-0.12207031,0.0,0.0,0.0,-53.031006,61.567383,-27.147217
1766498245327,-0.8847656,-0.37646484,0.27783203,-0.18310547,0.12207031,-0.12207031,0.0,0.0,0.0,-53.063965,61.57837,-27.147217
1766498245415,-0.8828125,-0.37548828,0.2788086,0.30517578,0.61035156,-0.4272461,0.0,0.0,0.0,-53.063965,61.57837,-27.147217
1766498245427,-0.8828125,-0.37548828,0.2788086,0.30517578,0.61035156,-0.4272461,0.0,0.0,0.0,-53.16284,61.61133,-27.235107
1766498245515,-0.8886719,-0.38183594,0.27978516,-1.159668,-1.2207031,0.36621094,0.0,0.0,0.0,-53.16284,61.61133,-27.235107
1766498245527,-0.8886719,-0.38183594,0.27978516,-1.159668,-1.2207031,0.36621094,0.0,0.0,0.0,-53.151855,61.60034,-27.196655
1766498245615,-0.87841797,-0.3720703,0.28222656,0.12207031,0.36621094,-0.24414062,0.0,0.0,0.0,-53.151855,61.60034,-27.196655
1766498245627,-0.87841797,-0.3720703,0.28222656,0.12207031,0.36621094,-0.24414062,0.0,0.0,0.0,-53.2782,61.6333,-27.301025
1766498245715,-0.8852539,-0.37890625,0.2709961,-0.12207031,0.4272461,-0.12207031,0.0,0.0,0.0,-53.2782,61.6333,-27.301025
1766498245727,-0.8852539,-0.37890625,0.2709961,-0.12207031,0.4272461,-0.12207031,0.0,0.0,0.0,-53.33313,61.64978,-27.372437
1766498245814,-0.88378906,-0.3779297,0.27392578,0.12207031,-0.5493164,0.0,0.0,0.0,0.0,-53.33313,61.64978,-27.372437
1766498245826,-0.88378906,-0.3779297,0.27392578,0.12207031,-0.5493164,0.0,0.0,0.0,0.0,-53.305664,61.64978,-27.317505
1766498245914,-0.88134766,-0.37451172,0.2788086,-0.12207031,0.0,-0.24414062,0.0,0.0,0.0,-53.305664,61.64978,-27.317505
1766498245925,-0.88134766,-0.37451172,0.2788086,-0.12207031,0.0,-0.24414062,0.0,0.0,0.0,-53.33313,61.644287,-27.317505
1766498246014,-0.8828125,-0.37646484,0.27783203,0.0,-0.24414062,-0.12207031,0.0,0.0,0.0,-53.33313,61.644287,-27.317505
1766498246026,-0.8828125,-0.37646484,0.27783203,0.0,-0.24414062,-0.12207031,0.0,0.0,0.0,-53.344116,61.644287,-27.317505
1766498246113,-0.8833008,-0.3774414,0.27490234,-0.061035156,-0.4272461,0.0,0.0,0.0,0.0,-53.344116,61.644287,-27.317505
1766498246125,-0.8833008,-0.3774414,0.27490234,-0.061035156,-0.4272461,0.0,0.0,0.0,0.0,-53.294678,61.638794,-27.2406
1766498246213,-0.8852539,-0.37597656,0.27148438,0.24414062,-0.12207031,-0.18310547,0.0,0.0,0.0,-53.294678,61.638794,-27.2406
1766498246225,-0.8852539,-0.37597656,0.27148438,0.24414062,-0.12207031,-0.18310547,0.0,0.0,0.0,-53.26172,61.6333,-27.191162
1766498246313,-0.8808594,-0.37451172,0.27392578,0.24414062,-0.12207031,-0.061035156,0.0,0.0,0.0,-53.26172,61.6333,-27.191162
1766498246324,-0.8808594,-0.37451172,0.27392578,0.24414062,-0.12207031,-0.061035156,0.0,0.0,0.0,-53.256226,61.6333,-27.213135
1766498246413,-0.8828125,-0.37451172,0.26660156,0.0,0.18310547,-0.061035156,0.0,0.0,0.0,-53.256226,61.6333,-27.213135
1766498246424,-0.8828125,-0.37451172,0.26660156,0.0,0.18310547,-0.061035156,0.0,0.0,0.0,-53.129883,61.61133,-27.03186
1766498246512,-0.8847656,-0.37890625,0.27392578,0.6713867,0.0,-0.12207031,0.0,0.0,0.0,-53.129883,61.61133,-27.03186
1766498246524,-0.8847656,-0.37890625,0.27392578,0.6713867,0.0,-0.12207031,0.0,0.0,0.0,-53.118896,61.6333,-27.042847
1766498246612,-0.8779297,-0.37109375,0.28125,-0.061035156,-0.24414062,0.0,0.0,0.0,0.0,-53.118896,61.6333,-27.042847
1766498246624,-0.8779297,-0.37109375,0.28125,-0.061035156,-0.24414062,0.0,0.0,0.0,0.0,-53.14087,61.638794,-27.037354
1766498246712,-0.8886719,-0.38085938,0.2680664,-0.36621094,0.4272461,-0.12207031,0.0,0.0,0.0,-53.14087,61.638794,-27.037354
1766498246723,-0.8886719,-0.38085938,0.2680664,-0.36621094,0.4272461,-0.12207031,0.0,0.0,0.0,-53.12439,61.64978,-27.020874
1766498246811,-0.8828125,-0.37402344,0.27539062,0.0,1.2817383,-0.5493164,0.0,0.0,0.0,-53.12439,61.64978,-27.020874
1766498246823,-0.8828125,-0.37402344,0.27539062,0.0,1.2817383,-0.5493164,0.0,0.0,0.0,-53.38806,61.704712,-27.284546
1766498246911,-0.8828125,-0.3779297,0.2734375,-0.30517578,-0.24414062,0.12207031,0.0,0.0,0.0,-53.38806,61.704712,-27.284546
1766498246923,-0.8828125,-0.3779297,0.2734375,-0.30517578,-0.24414062,0.12207031,0.0,0.0,0.0,-53.52539,61.748657,-27.427368
1766498247011,-0.88671875,-0.37646484,0.27294922,0.061035156,0.0,-0.30517578,0.0,0.0,0.0,-53.52539,61.748657,-27.427368
1766498247023,-0.88671875,-0.37646484,0.27294922,0.061035156,0.0,-0.30517578,0.0,0.0,0.0,-53.49243,61.743164,-27.355957
1766498247111,-0.88671875,-0.37597656,0.2734375,-0.36621094,0.61035156,-0.18310547,0.0,0.0,0.0,-53.49243,61.743164,-27.355957
1766498247122,-0.88671875,-0.37597656,0.2734375,-0.36621094,0.61035156,-0.18310547,0.0,0.0,0.0,-53.54187,61.743164,-27.427368
1766498247211,-0.8857422,-0.37646484,0.2758789,0.12207031,0.48828125,-0.6713867,0.0,0.0,0.0,-53.54187,61.743164,-27.427368
1766498247222,-0.8857422,-0.37646484,0.2758789,0.12207031,0.48828125,-0.6713867,0.0,0.0,0.0,-53.69568,61.765137,-27.630615
1766498247310,-0.88427734,-0.37451172,0.27197266,-0.36621094,0.48828125,-0.061035156,0.0,0.0,0.0,-53.69568,61.765137,-27.630615
1766498247322,-0.88427734,-0.37451172,0.27197266,-0.36621094,0.48828125,-0.061035156,0.0,0.0,0.0,-53.635254,61.748657,-27.493286
1766498247410,-0.8886719,-0.38085938,0.26660156,0.24414062,-0.061035156,-0.36621094,0.0,0.0,0.0,-53.635254,61.748657,-27.493286
1766498247421,-0.8886719,-0.38085938,0.26660156,0.24414062,-0.061035156,-0.36621094,0.0,0.0,0.0,-53.684692,61.765137,-27.581177
1766498247510,-0.88183594,-0.375,0.27490234,-0.18310547,-0.48828125,0.0,0.0,0.0,0.0,-53.684692,61.765137,-27.581177
1766498247521,-0.88183594,-0.375,0.27490234,-0.18310547,-0.48828125,0.0,0.0,0.0,0.0,-53.690186,61.765137,-27.55371
1766498247609,-0.88671875,-0.3798828,0.2685547,0.24414062,0.36621094,-0.24414062,0.0,0.0,0.0,-53.690186,61.765137,-27.55371
1766498247621,-0.88671875,-0.3798828,0.2685547,0.24414062,0.36621094,-0.24414062,0.0,0.0,0.0,-53.635254,61.765137,-27.493286
1766498247709,-0.88378906,-0.37646484,0.27246094,0.4272461,0.24414062,-0.30517578,0.0,0.0,0.0,-53.635254,61.765137,-27.493286
1766498247721,-0.88378906,-0.37646484,0.27246094,0.4272461,0.24414062,-0.30517578,0.0,0.0,0.0,-53.70117,61.77063,-27.548218
1766498247809,-0.8823242,-0.37695312,0.27294922,0.12207031,0.0,0.0,0.0,0.0,0.0,-53.70117,61.77063,-27.548218
1766498247820,-0.8823242,-0.37695312,0.27294922,0.12207031,0.0,0.0,0.0,0.0,0.0,-53.70117,61.77063,-27.548218
1766498247908,-0.8852539,-0.37695312,0.27197266,-0.18310547,-0.061035156,-0.12207031,0.0,0.0,0.0,-53.70117,61.77063,-27.548218
1766498247920,-0.8852539,-0.37695312,0.27197266,-0.18310547,-0.061035156,-0.12207031,0.0,0.0,0.0,-53.690186,61.776123,-27.509766
1766498248008,-0.8833008,-0.37548828,0.2763672,0.36621094,0.4272461,-0.18310547,0.0,0.0,0.0,-53.690186,61.776123,-27.509766
1766498248020,-0.8833008,-0.37548828,0.2763672,0.36621094,0.4272461,-0.18310547,0.0,0.0,0.0,-53.73413,61.792603,-27.548218
1766498248108,-0.88964844,-0.37939453,0.27539062,-0.18310547,-0.4272461,-0.12207031,0.0,0.0,0.0,-53.73413,61.792603,-27.548218
1766498248120,-0.88964844,-0.37939453,0.27539062,-0.18310547,-0.4272461,-0.12207031,0.0,0.0,0.0,-53.789062,61.792603,-27.636108
1766498248208,-0.88183594,-0.37451172,0.2758789,0.36621094,0.79345703,-0.4272461,0.0,0.0,0.0,-53.789062,61.792603,-27.636108
1766498248220,-0.88183594,-0.37451172,0.2758789,0.36621094,0.79345703,-0.4272461,0.0,0.0,0.0,-53.778076,61.792603,-27.55371
1766498248308,-0.8881836,-0.37939453,0.2680664,-0.30517578,0.0,-0.18310547,0.0,0.0,0.0,-53.778076,61.792603,-27.55371
1766498248319,-0.8881836,-0.37939453,0.2680664,-0.30517578,0.0,-0.18310547,0.0,0.0,0.0,-53.794556,61.80359,-27.608643
1766498248407,-0.88623047,-0.37548828,0.27148438,0.061035156,-0.5493164,0.12207031,0.0,0.0,0.0,-53.794556,61.80359,-27.608643
1766498248419,-0.88623047,-0.37548828,0.27148438,0.061035156,-0.5493164,0.12207031,0.0,0.0,0.0,-53.789062,61.809082,-27.564697
1766498248507,-0.88671875,-0.37841797,0.2680664,0.12207031,0.061035156,-0.24414062,0.0,0.0,0.0,-53.789062,61.809082,-27.564697
1766498248518,-0.88671875,-0.37841797,0.2680664,0.12207031,0.061035156,-0.24414062,0.0,0.0,0.0,-53.73413,61.80359,-27.520752
1766498248607,-0.88720703,-0.3774414,0.27001953,0.5493164,-0.48828125,-0.12207031,0.0,0.0,0.0,-53.73413,61.80359,-27.520752
1766498248618,-0.88720703,-0.3774414,0.27001953,0.5493164,-0.48828125,-0.12207031,0.0,0.0,0.0,-53.71765,61.792603,-27.487793
1766498248706,-0.88623047,-0.37646484,0.27197266,0.61035156,-0.7324219,0.0,0.0,0.0,0.0,-53.71765,61.792603,-27.487793
1766498248718,-0.88623047,-0.37646484,0.27197266,0.61035156,-0.7324219,0.0,0.0,0.0,0.0,-53.580322,61.77063,-27.388916
1766498248806,-0.8857422,-0.37597656,0.27539062,0.61035156,0.12207031,-0.4272461,0.0,0.0,0.0,-53.580322,61.77063,-27.388916
1766498248817,-0.8857422,-0.37597656,0.27539062,0.61035156,0.12207031,-0.4272461,0.0,0.0,0.0,-53.536377,61.75415,-27.37793
1766498248906,-0.88427734,-0.37695312,0.27001953,0.18310547,0.48828125,-0.24414062,0.0,0.0,0.0,-53.536377,61.75415,-27.37793
1766498248917,-0.88427734,-0.37695312,0.27001953,0.18310547,0.48828125,-0.24414062,0.0,0.0,0.0,-53.536377,61.75415,-27.405396
1766498249005,-0.8886719,-0.37695312,0.27783203,-0.18310547,-0.9765625,-0.061035156,0.0,0.0,0.0,-53.536377,61.75415,-27.405396
1766498249017,-0.8886719,-0.37695312,0.27783203,-0.18310547,-0.9765625,-0.061035156,0.0,0.0,0.0,-53.547363,61.743164,-27.44934
1766498249105,-0.8798828,-0.37158203,0.27441406,0.061035156,0.79345703,-0.30517578,0.0,0.0,0.0,-53.547363,61.743164,-27.44934
1766498249117,-0.8798828,-0.37158203,0.27441406,0.061035156,0.79345703,-0.30517578,0.0,0.0,0.0,-53.55835,61.759644,-27.399902
1766498249205,-0.88964844,-0.3798828,0.26757812,0.12207031,0.48828125,-0.24414062,0.0,0.0,0.0,-53.55835,61.759644,-27.399902
1766498249216,-0.88964844,-0.3798828,0.26757812,0.12207031,0.48828125,-0.24414062,0.0,0.0,0.0,-53.563843,61.765137,-27.438354
1766498249305,-0.8828125,-0.37353516,0.27685547,-0.061035156,-0.48828125,0.12207031,0.0,0.0,0.0,-53.563843,61.765137,-27.438354
1766498249316,-0.8828125,-0.37353516,0.27685547,-0.061035156,-0.48828125,0.12207031,0.0,0.0,0.0,-53.552856,61.77063,-27.372437
1766498249404,-0.8857422,-0.3774414,0.2709961,-0.12207031,0.30517578,-0.24414062,0.0,0.0,0.0,-53.552856,61.77063,-27.372437
1766498249416,-0.8857422,-0.3774414,0.2709961,-0.12207031,0.30517578,-0.24414062,0.0,0.0,0.0,-53.55835,61.776123,-27.37793
1766498249504,-0.8852539,-0.37597656,0.27246094,0.36621094,0.18310547,-0.30517578,0.0,0.0,0.0,-53.55835,61.776123,-27.37793
1766498249516,-0.8852539,-0.37597656,0.27246094,0.36621094,0.18310547,-0.30517578,0.0,0.0,0.0,-53.61328,61.781616,-27.421875
1766498249604,-0.88427734,-0.37597656,0.27246094,-0.061035156,-0.36621094,0.12207031,0.0,0.0,0.0,-53.61328,61.781616,-27.421875
1766498249615,-0.88427734,-0.37597656,0.27246094,-0.061035156,-0.36621094,0.12207031,0.0,0.0,0.0,-53.55835,61.776123,-27.328491
1766498249704,-0.8847656,-0.37597656,0.2709961,0.061035156,-0.12207031,0.061035156,0.0,0.0,0.0,-53.55835,61.776123,-27.328491
1766498249715,-0.8847656,-0.37597656,0.2709961,0.061035156,-0.12207031,0.061035156,0.0,0.0,0.0,-53.52539,61.781616,-27.246094
1766498249803,-0.875,-0.37548828,0.27392578,1.159668,0.30517578,-0.24414062,0.0,0.0,0.0,-53.52539,61.781616,-27.246094
1766498249815,-0.875,-0.37548828,0.27392578,1.159668,0.30517578,-0.24414062,0.0,0.0,0.0,-53.536377,61.792603,-27.268066
1766498249903,-0.8881836,-0.37695312,0.26660156,0.12207031,0.36621094,0.0,0.0,0.0,0.0,-53.536377,61.792603,-27.268066
1766498249915,-0.8881836,-0.37695312,0.26660156,0.12207031,0.36621094,0.0,0.0,0.0,0.0,-53.4375,61.776123,-27.092285
1766498250003,-0.8857422,-0.37451172,0.2758789,0.36621094,-0.48828125,-0.061035156,0.0,0.0,0.0,-53.4375,61.776123,-27.092285
1766498250014,-0.8857422,-0.37451172,0.2758789,0.36621094,-0.48828125,-0.061035156,0.0,0.0,0.0,-53.45398,61.78711,-27.086792
1766498250102,-0.8823242,-0.37109375,0.27392578,-0.24414062,-0.8544922,-0.12207031,0.0,0.0,0.0,-53.45398,61.78711,-27.086792
1766498250114,-0.8823242,-0.37109375,0.27392578,-0.24414062,-0.8544922,-0.12207031,0.0,0.0,0.0,-53.45398,61.78711,-27.081299
1766498250202,-0.8886719,-0.38085938,0.26660156,0.061035156,-0.5493164,-0.12207031,0.0,0.0,0.0,-53.45398,61.78711,-27.081299
1766498250214,-0.8886719,-0.38085938,0.26660156,0.061035156,-0.5493164,-0.12207031,0.0,0.0,0.0,-53.371582,61.765137,-27.009888
1766498250302,-0.8833008,-0.37353516,0.27539062,0.30517578,0.0,-0.24414062,0.0,0.0,0.0,-53.371582,61.765137,-27.009888
1766498250313,-0.8833008,-0.37353516,0.27539062,0.30517578,0.0,-0.24414062,0.0,0.0,0.0,-53.38257,61.75415,-27.026367
1766498250402,-0.8828125,-0.37597656,0.27685547,0.061035156,-0.4272461,-0.061035156,0.0,0.0,0.0,-53.38257,61.75415,-27.026367
1766498250413,-0.8828125,-0.37597656,0.27685547,0.061035156,-0.4272461,-0.061035156,0.0,0.0,0.0,-53.344116,61.743164,-26.998901
1766498250501,-0.88427734,-0.375,0.27490234,-0.18310547,-0.48828125,0.0,0.0,0.0,0.0,-53.344116,61.743164,-26.998901
1766498250513,-0.88427734,-0.375,0.27490234,-0.18310547,-0.48828125,0.0,0.0,0.0,0.0,-53.267212,61.726685,-26.894531
1766498250601,-0.8852539,-0.37451172,0.27392578,-0.18310547,-0.12207031,0.0,0.0,0.0,0.0,-53.267212,61.726685,-26.894531
1766498250613,-0.8852539,-0.37451172,0.27392578,-0.18310547,-0.12207031,0.0,0.0,0.0,0.0,-53.250732,61.732178,-26.894531
1766498250701,-0.8847656,-0.37451172,0.27978516,0.0,-0.12207031,-0.36621094,0.0,0.0,0.0,-53.250732,61.732178,-26.894531
1766498250712,-0.8847656,-0.37451172,0.27978516,0.0,-0.12207031,-0.36621094,0.0,0.0,0.0,-53.26172,61.73767,-26.938477
1766498250800,-0.8833008,-0.3725586,0.2734375,-0.5493164,0.30517578,-0.061035156,0.0,0.0,0.0,-53.26172,61.73767,-26.938477
1766498250812,-0.8833008,-0.3725586,0.2734375,-0.5493164,0.30517578,-0.061035156,0.0,0.0,0.0,-53.184814,61.7157,-26.80664
1766498250900,-0.8886719,-0.37939453,0.27001953,0.7324219,0.0,-0.48828125,0.0,0.0,0.0,-53.184814,61.7157,-26.80664
1766498250912,-0.8886719,-0.37939453,0.27001953,0.7324219,0.0,-0.48828125,0.0,0.0,0.0,-53.1958,61.7157,-26.900024
1766498251000,-0.8803711,-0.3720703,0.28076172,-0.12207031,-0.30517578,0.0,0.0,0.0,0.0,-53.1958,61.7157,-26.900024
1766498251011,-0.8803711,-0.3720703,0.28076172,-0.12207031,-0.30517578,0.0,0.0,0.0,0.0,-53.17932,61.710205,-26.872559
1766498251100,-0.8881836,-0.3774414,0.2709961,0.30517578,0.24414062,-0.18310547,0.0,0.0,0.0,-53.17932,61.710205,-26.872559
1766498251111,-0.8881836,-0.3774414,0.2709961,0.30517578,0.24414062,-0.18310547,0.0,0.0,0.0,-53.10791,61.704712,-26.812134
1766498251199,-0.88378906,-0.37548828,0.2758789,0.30517578,0.24414062,-0.30517578,0.0,0.0,0.0,-53.10791,61.704712,-26.812134
1766498251211,-0.88378906,-0.37548828,0.2758789,0.30517578,0.24414062,-0.30517578,0.0,0.0,0.0,-53.190308,61.710205,-26.921997
1766498251299,-0.8823242,-0.375,0.27685547,0.12207031,0.0,-0.18310547,0.0,0.0,0.0,-53.190308,61.710205,-26.921997
1766498251311,-0.8823242,-0.375,0.27685547,0.12207031,0.0,-0.18310547,0.0,0.0,0.0,-53.1958,61.710205,-26.94397
1766498251399,-0.88623047,-0.375,0.2758789,0.18310547,-0.12207031,-0.18310547,0.0,0.0,0.0,-53.1958,61.710205,-26.94397
1766498251411,-0.88623047,-0.375,0.2758789,0.18310547,-0.12207031,-0.18310547,0.0,0.0,0.0,-53.190308,61.710205,-26.949463
1766498251499,-0.88378906,-0.37353516,0.2788086,0.48828125,0.24414062,-0.18310547,0.0,0.0,0.0,-53.190308,61.710205,-26.949463
1766498251510,-0.88378906,-0.37353516,0.2788086,0.48828125,0.24414062,-0.18310547,0.0,0.0,0.0,-53.22876,61.726685,-26.998901
1766498251598,-0.88671875,-0.37841797,0.2788086,0.0,-0.7324219,0.0,0.0,0.0,0.0,-53.22876,61.726685,-26.998901
1766498251610,-0.88671875,-0.37841797,0.2788086,0.0,-0.7324219,0.0,0.0,0.0,0.0,-53.2782,61.72119,-27.081299
1766498251698,-0.8798828,-0.37304688,0.28173828,0.6713867,0.7324219,-0.48828125,0.0,0.0,0.0,-53.2782,61.72119,-27.081299
1766498251709,-0.8798828,-0.37304688,0.28173828,0.6713867,0.7324219,-0.48828125,0.0,0.0,0.0,-53.2782,61.732178,-27.059326
1766498251798,-0.88623047,-0.37695312,0.27197266,-0.24414062,0.12207031,-0.18310547,0.0,0.0,0.0,-53.2782,61.732178,-27.059326
1766498251809,-0.88623047,-0.37695312,0.27197266,-0.24414062,0.12207031,-0.18310547,0.0,0.0,0.0,-53.30017,61.73767,-27.147217
1766498251897,-0.88671875,-0.37402344,0.2763672,0.30517578,-0.48828125,0.061035156,0.0,0.0,0.0,-53.30017,61.73767,-27.147217
1766498251909,-0.88671875,-0.37402344,0.2763672,0.30517578,-0.48828125,0.061035156,0.0,0.0,0.0,-53.289185,61.743164,-27.13623
1766498251997,-0.8847656,-0.37695312,0.2734375,0.12207031,0.36621094,-0.36621094,0.0,0.0,0.0,-53.289185,61.743164,-27.13623
1766498252009,-0.8847656,-0.37695312,0.2734375,0.12207031,0.36621094,-0.36621094,0.0,0.0,0.0,-53.305664,61.743164,-27.207642
1766498252097,-0.8847656,-0.37451172,0.2734375,0.24414062,0.18310547,-0.18310547,0.0,0.0,0.0,-53.305664,61.743164,-27.207642
1766498252109,-0.8847656,-0.37451172,0.2734375,0.24414062,0.18310547,-0.18310547,0.0,0.0,0.0,-53.344116,61.748657,-27.229614
1766498252197,-0.8833008,-0.37597656,0.27246094,-0.12207031,-0.18310547,0.0,0.0,0.0,0.0,-53.344116,61.748657,-27.229614
1766498252208,-0.8833008,-0.37597656,0.27246094,-0.12207031,-0.18310547,0.0,0.0,0.0,0.0,-53.344116,61.759644,-27.2406
1766498252296,-0.8881836,-0.37597656,0.2709961,0.4272461,0.12207031,-0.12207031,0.0,0.0,0.0,-53.344116,61.759644,-27.2406
1766498252308,-0.8881836,-0.37597656,0.2709961,0.4272461,0.12207031,-0.12207031,0.0,0.0,0.0,-53.36609,61.77063,-27.235107
1766498252396,-0.87890625,-0.37939453,0.27392578,0.8544922,0.61035156,-0.61035156,0.0,0.0,0.0,-53.36609,61.77063,-27.235107
1766498252408,-0.87890625,-0.37939453,0.27392578,0.8544922,0.61035156,-0.61035156,0.0,0.0,0.0,-53.410034,61.78711,-27.295532
1766498252496,-0.88720703,-0.37548828,0.2705078,0.0,-0.79345703,0.061035156,0.0,0.0,0.0,-53.410034,61.78711,-27.295532
1766498252507,-0.88720703,-0.37548828,0.2705078,0.0,-0.79345703,0.061035156,0.0,0.0,0.0,-53.426514,61.77063,-27.295532
1766498252595,-0.8828125,-0.37597656,0.27539062,1.4648438,-0.12207031,-0.30517578,0.0,0.0,0.0,-53.426514,61.77063,-27.295532
1766498252607,-0.8828125,-0.37597656,0.27539062,1.4648438,-0.12207031,-0.30517578,0.0,0.0,0.0,-53.399048,61.77063,-27.27356
1766498252695,-0.88378906,-0.37304688,0.27294922,0.061035156,-0.61035156,0.061035156,0.0,0.0,0.0,-53.399048,61.77063,-27.27356
1766498252707,-0.88378906,-0.37304688,0.27294922,0.061035156,-0.61035156,0.061035156,0.0,0.0,0.0,-53.311157,61.748657,-27.207642
1766498252795,-0.88720703,-0.3779297,0.2734375,0.61035156,-0.6713867,-0.12207031,0.0,0.0,0.0,-53.311157,61.748657,-27.207642
1766498252806,-0.88720703,-0.3779297,0.2734375,0.61035156,-0.6713867,-0.12207031,0.0,0.0,0.0,-53.217773,61.726685,-27.13623
1766498252895,-0.88183594,-0.37402344,0.2763672,0.0,-0.061035156,-0.30517578,0.0,0.0,0.0,-53.217773,61.726685,-27.13623
1766498252906,-0.88183594,-0.37402344,0.2763672,0.0,-0.061035156,-0.30517578,0.0,0.0,0.0,-53.21228,61.726685,-27.158203
1766498252994,-0.88427734,-0.37597656,0.2734375,0.0,-0.12207031,0.12207031,0.0,0.0,0.0,-53.21228,61.726685,-27.158203
1766498253006,-0.88427734,-0.37597656,0.2734375,0.0,-0.12207031,0.12207031,0.0,0.0,0.0,-53.223267,61.732178,-27.185669
1766498253094,-0.88427734,-0.37548828,0.27490234,-0.061035156,0.0,0.061035156,0.0,0.0,0.0,-53.223267,61.732178,-27.185669
1766498253106,-0.88427734,-0.37548828,0.27490234,-0.061035156,0.0,0.061035156,0.0,0.0,0.0,-53.190308,61.743164,-27.119751
1766498253194,-0.88671875,-0.37451172,0.27246094,0.0,0.0,0.0,0.0,0.0,0.0,-53.190308,61.743164,-27.119751
1766498253205,-0.88671875,-0.37451172,0.27246094,0.0,0.0,0.0,0.0,0.0,0.0,-53.21228,61.759644,-27.103271
1766498253293,-0.87646484,-0.37548828,0.27392578,0.9765625,0.6713867,-0.30517578,0.0,0.0,0.0,-53.21228,61.759644,-27.103271
1766498253305,-0.87646484,-0.37548828,0.27392578,0.9765625,0.6713867,-0.30517578,0.0,0.0,0.0,-53.294678,61.792603,-27.213135
1766498253393,-0.8901367,-0.37353516,0.265625,0.12207031,0.8544922,0.0,0.0,0.0,0.0,-53.294678,61.792603,-27.213135
1766498253405,-0.8901367,-0.37353516,0.265625,0.12207031,0.8544922,0.0,0.0,0.0,0.0,-53.250732,61.792603,-27.075806
1766498253493,-0.8857422,-0.37597656,0.27441406,0.36621094,-0.12207031,-0.24414062,0.0,0.0,0.0,-53.250732,61.792603,-27.075806
1766498253504,-0.8857422,-0.37597656,0.27441406,0.36621094,-0.12207031,-0.24414062,0.0,0.0,0.0,-53.36609,61.82007,-27.213135
1766498253593,-0.8823242,-0.37060547,0.27685547,-0.6713867,-0.8544922,0.061035156,0.0,0.0,0.0,-53.36609,61.82007,-27.213135
1766498253604,-0.8823242,-0.37060547,0.27685547,-0.6713867,-0.8544922,0.061035156,0.0,0.0,0.0,-53.426514,61.836548,-27.251587
1766498253692,-0.8876953,-0.37939453,0.26757812,0.6713867,0.30517578,-0.48828125,0.0,0.0,0.0,-53.426514,61.836548,-27.251587
1766498253704,-0.8876953,-0.37939453,0.26757812,0.6713867,0.30517578,-0.48828125,0.0,0.0,0.0,-53.38257,61.82556,-27.2406
1766498253792,-0.8833008,-0.37353516,0.2758789,0.61035156,0.30517578,-0.36621094,0.0,0.0,0.0,-53.38257,61.82556,-27.2406
1766498253803,-0.8833008,-0.37353516,0.2758789,0.61035156,0.30517578,-0.36621094,0.0,0.0,0.0,-53.426514,61.814575,-27.29004
1766498253892,-0.8828125,-0.3720703,0.27539062,-0.5493164,-0.61035156,0.12207031,0.0,0.0,0.0,-53.426514,61.814575,-27.29004
1766498253903,-0.8828125,-0.3720703,0.27539062,-0.5493164,-0.61035156,0.12207031,0.0,0.0,0.0,-53.38806,61.809082,-27.180176
1766498253991,-0.88671875,-0.375,0.27392578,-0.12207031,-0.5493164,-0.061035156,0.0,0.0,0.0,-53.38806,61.809082,-27.180176
1766498254003,-0.88671875,-0.375,0.27392578,-0.12207031,-0.5493164,-0.061035156,0.0,0.0,0.0,-53.360596,61.809082,-27.130737
1766498254091,-0.8852539,-0.37304688,0.27783203,0.48828125,0.0,-0.24414062,0.0,0.0,0.0,-53.360596,61.809082,-27.130737
1766498254103,-0.8852539,-0.37304688,0.27783203,0.48828125,0.0,-0.24414062,0.0,0.0,0.0,-53.355103,61.814575,-27.141724
1766498254191,-0.8886719,-0.37890625,0.27929688,-0.61035156,-1.4038086,0.18310547,0.0,0.0,0.0,-53.355103,61.814575,-27.141724
1766498254203,-0.8886719,-0.37890625,0.27929688,-0.61035156,-1.4038086,0.18310547,0.0,0.0,0.0,-53.256226,61.781616,-27.026367
1766498254291,-0.8803711,-0.37109375,0.28027344,0.061035156,-0.061035156,-0.18310547,0.0,0.0,0.0,-53.256226,61.781616,-27.026367
1766498254303,-0.8803711,-0.37109375,0.28027344,0.061035156,-0.061035156,-0.18310547,0.0,0.0,0.0,-53.24524,61.776123,-26.993408
1766498254390,-0.8881836,-0.37890625,0.26953125,0.0,0.061035156,-0.18310547,0.0,0.0,0.0,-53.24524,61.776123,-26.993408
1766498254402,-0.8881836,-0.37890625,0.26953125,0.0,0.061035156,-0.18310547,0.0,0.0,0.0,-53.190308,61.77063,-26.96045
1766498254490,-0.8847656,-0.37304688,0.27783203,0.48828125,-0.24414062,-0.061035156,0.0,0.0,0.0,-53.190308,61.77063,-26.96045
1766498254502,-0.8847656,-0.37304688,0.27783203,0.48828125,-0.24414062,-0.061035156,0.0,0.0,0.0,-53.168335,61.765137,-26.916504
1766498254590,-0.8857422,-0.37353516,0.2763672,0.061035156,0.30517578,-0.30517578,0.0,0.0,0.0,-53.168335,61.765137,-26.916504
1766498254601,-0.8857422,-0.37353516,0.2763672,0.061035156,0.30517578,-0.30517578,0.0,0.0,0.0,-53.146362,61.765137,-26.889038
1766498254690,-0.8847656,-0.375,0.27441406,0.061035156,-0.18310547,-0.18310547,0.0,0.0,0.0,-53.146362,61.765137,-26.889038
1766498254701,-0.8847656,-0.375,0.27441406,0.061035156,-0.18310547,-0.18310547,0.0,0.0,0.0,-53.168335,61.765137,-26.921997
1766498254789,-0.8847656,-0.37451172,0.27490234,0.24414062,-0.061035156,-0.12207031,0.0,0.0,0.0,-53.168335,61.765137,-26.921997
1766498254801,-0.8847656,-0.37451172,0.27490234,0.24414062,-0.061035156,-0.12207031,0.0,0.0,0.0,-53.151855,61.765137,-26.900024
1766498254889,-0.88720703,-0.37402344,0.27246094,0.24414062,0.061035156,-0.12207031,0.0,0.0,0.0,-53.151855,61.765137,-26.900024
1766498254901,-0.88720703,-0.37402344,0.27246094,0.24414062,0.061035156,-0.12207031,0.0,0.0,0.0,-53.14087,61.765137,-26.878052
1766498254989,-0.8798828,-0.3779297,0.27392578,0.6713867,0.6713867,-0.48828125,0.0,0.0,0.0,-53.14087,61.765137,-26.878052
1766498255000,-0.8798828,-0.3779297,0.27392578,0.6713867,0.6713867,-0.48828125,0.0,0.0,0.0,-53.1958,61.781616,-26.938477
1766498255088,-0.88916016,-0.37548828,0.26757812,-0.4272461,-1.159668,0.24414062,0.0,0.0,0.0,-53.1958,61.781616,-26.938477
1766498255100,-0.88916016,-0.37548828,0.26757812,-0.4272461,-1.159668,0.24414062,0.0,0.0,0.0,-53.184814,61.765137,-26.932983
1766498255188,-0.8823242,-0.3725586,0.2763672,0.79345703,0.18310547,-0.36621094,0.0,0.0,0.0,-53.184814,61.765137,-26.932983
1766498255200,-0.8823242,-0.3725586,0.2763672,0.79345703,0.18310547,-0.36621094,0.0,0.0,0.0,-53.256226,61.781616,-27.020874
1766498255288,-0.8833008,-0.3720703,0.27392578,-0.12207031,0.0,0.0,0.0,0.0,0.0,-53.256226,61.781616,-27.020874
1766498255299,-0.8833008,-0.3720703,0.27392578,-0.12207031,0.0,0.0,0.0,0.0,0.0,-53.28369,61.792603,-27.04834
1766498255388,-0.8876953,-0.3774414,0.27197266,0.36621094,-0.36621094,-0.061035156,0.0,0.0,0.0,-53.28369,61.792603,-27.04834
1766498255399,-0.8876953,-0.3774414,0.27197266,0.36621094,-0.36621094,-0.061035156,0.0,0.0,0.0,-53.217773,61.781616,-26.971436
1766498255488,-0.8833008,-0.37353516,0.27685547,0.061035156,0.12207031,-0.30517578,0.0,0.0,0.0,-53.217773,61.781616,-26.971436
1766498255499,-0.8833008,-0.37353516,0.27685547,0.061035156,0.12207031,-0.30517578,0.0,0.0,0.0,-53.256226,61.78711,-27.009888
1766498255587,-0.8847656,-0.37597656,0.27539062,-0.061035156,-0.18310547,-0.061035156,0.0,0.0,0.0,-53.256226,61.78711,-27.009888
1766498255598,-0.8847656,-0.37597656,0.27539062,-0.061035156,-0.18310547,-0.061035156,0.0,0.0,0.0,-53.2782,61.78711,-27.042847
1766498255687,-0.8857422,-0.37451172,0.27392578,-0.12207031,-0.36621094,0.0,0.0,0.0,0.0,-53.2782,61.78711,-27.042847
1766498255698,-0.8857422,-0.37451172,0.27392578,-0.12207031,-0.36621094,0.0,0.0,0.0,0.0,-53.239746,61.78711,-26.982422
1766498255786,-0.88427734,-0.37353516,0.27197266,0.18310547,0.36621094,-0.18310547,0.0,0.0,0.0,-53.239746,61.78711,-26.982422
1766498255798,-0.88427734,-0.37353516,0.27197266,0.18310547,0.36621094,-0.18310547,0.0,0.0,0.0,-53.250732,61.798096,-27.01538
1766498255886,-0.8828125,-0.37451172,0.27148438,0.0,0.48828125,-0.4272461,0.0,0.0,0.0,-53.250732,61.798096,-27.01538
1766498255898,-0.8828125,-0.37451172,0.27148438,0.0,0.48828125,-0.4272461,0.0,0.0,0.0,-53.30017,61.809082,-27.086792
1766498255986,-0.8857422,-0.37158203,0.2705078,-0.36621094,0.30517578,-0.061035156,0.0,0.0,0.0,-53.30017,61.809082,-27.086792
1766498255998,-0.8857422,-0.37158203,0.2705078,-0.36621094,0.30517578,-0.061035156,0.0,0.0,0.0,-53.2782,61.809082,-27.01538
1766498256086,-0.8857422,-0.3774414,0.2680664,0.4272461,0.061035156,-0.36621094,0.0,0.0,0.0,-53.2782,61.809082,-27.01538
1766498256097,-0.8857422,-0.3774414,0.2680664,0.4272461,0.061035156,-0.36621094,0.0,0.0,0.0,-53.322144,61.814575,-27.119751
1766498256185,-0.88378906,-0.3725586,0.2763672,0.12207031,-0.7324219,0.12207031,0.0,0.0,0.0,-53.322144,61.814575,-27.119751
1766498256197,-0.88378906,-0.3725586,0.2763672,0.12207031,-0.7324219,0.12207031,0.0,0.0,0.0,-53.28369,61.809082,-27.042847
1766498256285,-0.8881836,-0.37890625,0.2709961,0.8544922,0.0,-0.36621094,0.0,0.0,0.0,-53.28369,61.809082,-27.042847
1766498256296,-0.8881836,-0.37890625,0.2709961,0.8544922,0.0,-0.36621094,0.0,0.0,0.0,-53.14087,61.781616,-26.91101
1766498256385,-0.8852539,-0.37353516,0.2758789,0.4272461,-0.24414062,-0.30517578,0.0,0.0,0.0,-53.14087,61.781616,-26.91101
1766498256396,-0.8852539,-0.37353516,0.2758789,0.4272461,-0.24414062,-0.30517578,0.0,0.0,0.0,-53.129883,61.77063,-26.954956
1766498256484,-0.8828125,-0.37402344,0.2758789,0.12207031,-0.4272461,0.0,0.0,0.0,0.0,-53.129883,61.77063,-26.954956
1766498256496,-0.8828125,-0.37402344,0.2758789,0.12207031,-0.4272461,0.0,0.0,0.0,0.0,-53.080444,61.765137,-26.96045
1766498256584,-0.88623047,-0.37402344,0.2763672,-0.24414062,0.061035156,-0.061035156,0.0,0.0,0.0,-53.080444,61.765137,-26.96045
1766498256596,-0.88623047,-0.37402344,0.2763672,-0.24414062,0.061035156,-0.061035156,0.0,0.0,0.0,-53.063965,61.77063,-26.932983
1766498256684,-0.88378906,-0.3725586,0.2783203,-0.061035156,0.79345703,-0.12207031,0.0,0.0,0.0,-53.063965,61.77063,-26.932983
1766498256695,-0.88378906,-0.3725586,0.2783203,-0.061035156,0.79345703,-0.12207031,0.0,0.0,0.0,-53.135376,61.792603,-26.993408
1766498256784,-0.8876953,-0.3725586,0.27929688,-0.24414062,-0.48828125,-0.18310547,0.0,0.0,0.0,-53.135376,61.792603,-26.993408
1766498256795,-0.8876953,-0.3725586,0.27929688,-0.24414062,-0.48828125,-0.18310547,0.0,0.0,0.0,-53.190308,61.814575,-27.086792
1766498256883,-0.88134766,-0.36816406,0.27539062,-0.24414062,0.79345703,-0.30517578,0.0,0.0,0.0,-53.190308,61.814575,-27.086792
1766498256895,-0.88134766,-0.36816406,0.27539062,-0.24414062,0.79345703,-0.30517578,0.0,0.0,0.0,-53.206787,61.814575,-27.059326
1766498256983,-0.8901367,-0.37890625,0.26757812,0.18310547,0.7324219,-0.24414062,0.0,0.0,0.0,-53.206787,61.814575,-27.059326
1766498256995,-0.8901367,-0.37890625,0.26757812,0.18310547,0.7324219,-0.24414062,0.0,0.0,0.0,-53.24524,61.831055,-27.125244
1766498257083,-0.88183594,-0.37158203,0.2788086,0.18310547,-0.061035156,0.0,0.0,0.0,0.0,-53.24524,61.831055,-27.125244
1766498257094,-0.88183594,-0.37158203,0.2788086,0.18310547,-0.061035156,0.0,0.0,0.0,0.0,-53.272705,61.847534,-27.119751
1766498257182,-0.88671875,-0.37402344,0.27148438,0.061035156,0.36621094,-0.36621094,0.0,0.0,0.0,-53.272705,61.847534,-27.119751
1766498257194,-0.88671875,-0.37402344,0.27148438,0.061035156,0.36621094,-0.36621094,0.0,0.0,0.0,-53.256226,61.847534,-27.103271
1766498257282,-0.8847656,-0.37402344,0.2709961,-0.061035156,0.061035156,-0.12207031,0.0,0.0,0.0,-53.256226,61.847534,-27.103271
1766498257294,-0.8847656,-0.37402344,0.2709961,-0.061035156,0.061035156,-0.12207031,0.0,0.0,0.0,-53.31665,61.853027,-27.158203
1766498257382,-0.88378906,-0.37304688,0.27392578,0.0,-0.24414062,0.0,0.0,0.0,0.0,-53.31665,61.853027,-27.158203
1766498257394,-0.88378906,-0.37304688,0.27392578,0.0,-0.24414062,0.0,0.0,0.0,0.0,-53.305664,61.85852,-27.13623
1766498257482,-0.8857422,-0.37304688,0.27392578,0.0,-0.061035156,0.0,0.0,0.0,0.0,-53.305664,61.85852,-27.13623
1766498257493,-0.8857422,-0.37304688,0.27392578,0.0,-0.061035156,0.0,0.0,0.0,0.0,-53.30017,61.864014,-27.081299
1766498257581,-0.8798828,-0.37548828,0.27539062,0.61035156,0.0,-0.30517578,0.0,0.0,0.0,-53.30017,61.864014,-27.081299
1766498257593,-0.8798828,-0.37548828,0.27539062,0.61035156,0.0,-0.30517578,0.0,0.0,0.0,-53.289185,61.869507,-27.081299
1766498257681,-0.8886719,-0.3774414,0.27441406,-0.36621094,-0.91552734,0.18310547,0.0,0.0,0.0,-53.289185,61.869507,-27.081299
1766498257693,-0.8886719,-0.3774414,0.27441406,-0.36621094,-0.91552734,0.18310547,0.0,0.0,0.0,-53.17932,61.84204,-26.932983
1766498257781,-0.88183594,-0.36914062,0.28076172,0.30517578,-0.48828125,0.0,0.0,0.0,0.0,-53.17932,61.84204,-26.932983
1766498257792,-0.88183594,-0.36914062,0.28076172,0.30517578,-0.48828125,0.0,0.0,0.0,0.0,-53.17932,61.847534,-26.932983
1766498257880,-0.8847656,-0.37158203,0.27148438,-0.36621094,-0.5493164,0.0,0.0,0.0,0.0,-53.17932,61.847534,-26.932983
1766498257892,-0.8847656,-0.37158203,0.27148438,-0.36621094,-0.5493164,0.0,0.0,0.0,0.0,-53.16284,61.84204,-26.921997
1766498257980,-0.8876953,-0.37402344,0.27246094,0.48828125,-0.7324219,-0.061035156,0.0,0.0,0.0,-53.16284,61.84204,-26.921997
1766498257992,-0.8876953,-0.37402344,0.27246094,0.48828125,-0.7324219,-0.061035156,0.0,0.0,0.0,-53.05298,61.82007,-26.80664
1766498258080,-0.8828125,-0.3720703,0.27783203,0.12207031,0.0,-0.36621094,0.0,0.0,0.0,-53.05298,61.82007,-26.80664
1766498258092,-0.8828125,-0.3720703,0.27783203,0.12207031,0.0,-0.36621094,0.0,0.0,0.0,-53.09143,61.814575,-26.861572
1766498258180,-0.8852539,-0.37353516,0.2758789,0.12207031,-0.48828125,-0.061035156,0.0,0.0,0.0,-53.09143,61.814575,-26.861572
1766498258191,-0.8852539,-0.37353516,0.2758789,0.12207031,-0.48828125,-0.061035156,0.0,0.0,0.0,-53.07495,61.809082,-26.867065
1766498258279,-0.8847656,-0.37304688,0.27685547,-0.24414062,-0.4272461,0.0,0.0,0.0,0.0,-53.07495,61.809082,-26.867065
1766498258291,-0.8847656,-0.37304688,0.27685547,-0.24414062,-0.4272461,0.0,0.0,0.0,0.0,-53.02002,61.798096,-26.779175
1766498258379,-0.8857422,-0.3725586,0.27197266,0.24414062,0.0,-0.30517578,0.0,0.0,0.0,-53.02002,61.798096,-26.779175
1766498258391,-0.8857422,-0.3725586,0.27197266,0.24414062,0.0,-0.30517578,0.0,0.0,0.0,-53.014526,61.792603,-26.768188
1766498258479,-0.8823242,-0.37158203,0.2763672,0.4272461,0.61035156,-0.4272461,0.0,0.0,0.0,-53.014526,61.792603,-26.768188
1766498258491,-0.8823242,-0.37158203,0.2763672,0.4272461,0.61035156,-0.4272461,0.0,0.0,0.0,-53.07495,61.80359,-26.845093
1766498258579,-0.88720703,-0.37304688,0.26904297,-0.4272461,0.0,-0.061035156,0.0,0.0,0.0,-53.07495,61.80359,-26.845093
1766498258590,-0.88720703,-0.37304688,0.26904297,-0.4272461,0.0,-0.061035156,0.0,0.0,0.0,-52.998047,61.781616,-26.71875
1766498258678,-0.8857422,-0.37548828,0.27197266,0.61035156,0.0,-0.30517578,0.0,0.0,0.0,-52.998047,61.781616,-26.71875
1766498258690,-0.8857422,-0.37548828,0.27197266,0.61035156,0.0,-0.30517578,0.0,0.0,0.0,-53.0365,61.792603,-26.795654
1766498258778,-0.88134766,-0.3701172,0.27783203,-0.061035156,-0.36621094,0.0,0.0,0.0,0.0,-53.0365,61.792603,-26.795654
1766498258790,-0.88134766,-0.3701172,0.27783203,-0.061035156,-0.36621094,0.0,0.0,0.0,0.0,-53.05298,61.792603,-26.801147
1766498258878,-0.8876953,-0.37597656,0.2709961,0.30517578,-0.061035156,-0.18310547,0.0,0.0,0.0,-53.05298,61.792603,-26.801147
1766498258890,-0.8876953,-0.37597656,0.2709961,0.30517578,-0.061035156,-0.18310547,0.0,0.0,0.0,-52.98706,61.78711,-26.740723
1766498258978,-0.8833008,-0.3725586,0.2783203,0.18310547,0.18310547,-0.24414062,0.0,0.0,0.0,-52.98706,61.78711,-26.740723
1766498258989,-0.8833008,-0.3725586,0.2783203,0.18310547,0.18310547,-0.24414062,0.0,0.0,0.0,-53.05298,61.792603,-26.812134
1766498259077,-0.8833008,-0.37304688,0.27734375,0.0,-0.12207031,-0.12207031,0.0,0.0,0.0,-53.05298,61.792603,-26.812134
1766498259089,-0.8833008,-0.37304688,0.27734375,0.0,-0.12207031,-0.12207031,0.0,0.0,0.0,-53.05847,61.798096,-26.817627
1766498259177,-0.8847656,-0.37402344,0.2763672,-0.24414062,-0.061035156,-0.12207031,0.0,0.0,0.0,-53.05847,61.798096,-26.817627
1766498259189,-0.8847656,-0.37402344,0.2763672,-0.24414062,-0.061035156,-0.12207031,0.0,0.0,0.0,-53.05847,61.798096,-26.82312
1766498259277,-0.8847656,-0.3720703,0.27734375,-0.4272461,0.5493164,-0.061035156,0.0,0.0,0.0,-53.05847,61.798096,-26.82312
1766498259288,-0.8847656,-0.3720703,0.27734375,-0.4272461,0.5493164,-0.061035156,0.0,0.0,0.0,-53.096924,61.82007,-26.867065
1766498259376,-0.8876953,-0.37451172,0.27783203,-0.30517578,-0.18310547,-0.24414062,0.0,0.0,0.0,-53.096924,61.82007,-26.867065
1766498259388,-0.8876953,-0.37451172,0.27783203,-0.30517578,-0.18310547,-0.24414062,0.0,0.0,0.0,-53.146362,61.82556,-26.954956
1766498259476,-0.8823242,-0.3701172,0.2788086,0.061035156,0.79345703,-0.30517578,0.0,0.0,0.0,-53.146362,61.82556,-26.954956
1766498259488,-0.8823242,-0.3701172,0.2788086,0.061035156,0.79345703,-0.30517578,0.0,0.0,0.0,-53.16284,61.831055,-26.938477
1766498259576,-0.8881836,-0.37695312,0.26953125,0.18310547,0.24414062,-0.30517578,0.0,0.0,0.0,-53.16284,61.831055,-26.938477
1766498259588,-0.8881836,-0.37695312,0.26953125,0.18310547,0.24414062,-0.30517578,0.0,0.0,0.0,-53.17932,61.84204,-27.01538
1766498259676,-0.88378906,-0.3725586,0.27783203,0.061035156,-0.30517578,0.0,0.0,0.0,0.0,-53.17932,61.84204,-27.01538
1766498259687,-0.88378906,-0.3725586,0.27783203,0.061035156,-0.30517578,0.0,0.0,0.0,0.0,-53.168335,61.84204,-26.987915
1766498259775,-0.8876953,-0.37548828,0.2705078,0.18310547,0.24414062,-0.36621094,0.0,0.0,0.0,-53.168335,61.84204,-26.987915
1766498259787,-0.8876953,-0.37548828,0.2705078,0.18310547,0.24414062,-0.36621094,0.0,0.0,0.0,-53.135376,61.84204,-26.976929
1766498259875,-0.8857422,-0.37451172,0.27392578,0.24414062,-0.061035156,-0.12207031,0.0,0.0,0.0,-53.135376,61.84204,-26.976929
1766498259886,-0.8857422,-0.37451172,0.27392578,0.24414062,-0.061035156,-0.12207031,0.0,0.0,0.0,-53.17383,61.836548,-27.020874
1766498259975,-0.8852539,-0.37304688,0.2758789,0.30517578,-0.5493164,0.061035156,0.0,0.0,0.0,-53.17383,61.836548,-27.020874
1766498259986,-0.8852539,-0.37304688,0.2758789,0.30517578,-0.5493164,0.061035156,0.0,0.0,0.0,-53.085938,61.82007,-26.916504
1766498260075,-0.88671875,-0.37304688,0.27685547,0.36621094,0.0,-0.18310547,0.0,0.0,0.0,-53.085938,61.82007,-26.916504
1766498260086,-0.88671875,-0.37304688,0.27685547,0.36621094,0.0,-0.18310547,0.0,0.0,0.0,-53.041992,61.82007,-26.878052
1766498260174,-0.88427734,-0.37060547,0.27978516,0.61035156,0.30517578,-0.30517578,0.0,0.0,0.0,-53.041992,61.82007,-26.878052
1766498260186,-0.88427734,-0.37060547,0.27978516,0.61035156,0.30517578,-0.30517578,0.0,0.0,0.0,-53.07495,61.831055,-26.94397
1766498260274,-0.88964844,-0.37548828,0.27734375,-0.30517578,-0.6713867,0.0,0.0,0.0,0.0,-53.07495,61.831055,-26.94397
1766498260285,-0.88964844,-0.37548828,0.27734375,-0.30517578,-0.6713867,0.0,0.0,0.0,0.0,-53.113403,61.831055,-27.026367
1766498260374,-0.8798828,-0.36767578,0.28173828,0.48828125,0.8544922,-0.48828125,0.0,0.0,0.0,-53.113403,61.831055,-27.026367
1766498260385,-0.8798828,-0.36767578,0.28173828,0.48828125,0.8544922,-0.48828125,0.0,0.0,0.0,-53.1958,61.85852,-27.070312
1766498260473,-0.8886719,-0.3779297,0.27148438,-0.061035156,0.7324219,-0.36621094,0.0,0.0,0.0,-53.1958,61.85852,-27.070312
1766498260485,-0.8886719,-0.3779297,0.27148438,-0.061035156,0.7324219,-0.36621094,0.0,0.0,0.0,-53.256226,61.864014,-27.196655
1766498260573,-0.8876953,-0.3720703,0.27685547,0.30517578,-0.30517578,0.0,0.0,0.0,0.0,-53.256226,61.864014,-27.196655
1766498260585,-0.8876953,-0.3720703,0.27685547,0.30517578,-0.30517578,0.0,0.0,0.0,0.0,-53.267212,61.869507,-27.163696
1766498260673,-0.88427734,-0.37451172,0.2734375,-0.061035156,0.5493164,-0.30517578,0.0,0.0,0.0,-53.267212,61.869507,-27.163696
1766498260685,-0.88427734,-0.37451172,0.2734375,-0.061035156,0.5493164,-0.30517578,0.0,0.0,0.0,-53.311157,61.885986,-27.235107
1766498260773,-0.88671875,-0.37304688,0.27197266,0.18310547,0.24414062,-0.12207031,0.0,0.0,0.0,-53.311157,61.885986,-27.235107
1766498260784,-0.88671875,-0.37304688,0.27197266,0.18310547,0.24414062,-0.12207031,0.0,0.0,0.0,-53.38257,61.902466,-27.279053
1766498260872,-0.88671875,-0.3725586,0.27197266,0.0,-0.24414062,0.0,0.0,0.0,0.0,-53.38257,61.902466,-27.279053
1766498260884,-0.88671875,-0.3725586,0.27197266,0.0,-0.24414062,0.0,0.0,0.0,0.0,-53.360596,61.902466,-27.218628
1766498260972,-0.8876953,-0.3725586,0.27001953,0.24414062,0.061035156,-0.12207031,0.0,0.0,0.0,-53.360596,61.902466,-27.218628
1766498260984,-0.8876953,-0.3725586,0.27001953,0.24414062,0.061035156,-0.12207031,0.0,0.0,0.0,-53.360596,61.913452,-27.191162
1766498261072,-0.87646484,-0.37353516,0.27294922,1.2207031,0.36621094,-0.4272461,0.0,0.0,0.0,-53.360596,61.913452,-27.191162
1766498261083,-0.87646484,-0.37353516,0.27294922,1.2207031,0.36621094,-0.4272461,0.0,0.0,0.0,-53.40454,61.92444,-27.251587
1766498261171,-0.8881836,-0.37402344,0.26904297,0.4272461,0.48828125,-0.24414062,0.0,0.0,0.0,-53.40454,61.92444,-27.251587
1766498261183,-0.8881836,-0.37402344,0.26904297,0.4272461,0.48828125,-0.24414062,0.0,0.0,0.0,-53.338623,61.902466,-27.15271
1766498261271,-0.88427734,-0.37353516,0.27490234,0.61035156,-0.24414062,-0.24414062,0.0,0.0,0.0,-53.338623,61.902466,-27.15271
1766498261283,-0.88427734,-0.37353516,0.27490234,0.61035156,-0.24414062,-0.24414062,0.0,0.0,0.0,-53.36609,61.90796,-27.207642
1766498261371,-0.88183594,-0.3696289,0.27490234,-0.5493164,-1.159668,0.0,0.0,0.0,0.0,-53.36609,61.90796,-27.207642
1766498261383,-0.88183594,-0.3696289,0.27490234,-0.5493164,-1.159668,0.0,0.0,0.0,0.0,-53.355103,61.902466,-27.16919
1766498261471,-0.88964844,-0.3779297,0.26904297,0.0,-0.61035156,0.0,0.0,0.0,0.0,-53.355103,61.902466,-27.16919
1766498261482,-0.88964844,-0.3779297,0.26904297,0.0,-0.61035156,0.0,0.0,0.0,0.0,-53.22876,61.875,-27.009888
1766498261570,-0.8833008,-0.37158203,0.27539062,0.18310547,-0.12207031,-0.30517578,0.0,0.0,0.0,-53.22876,61.875,-27.009888
1766498261582,-0.8833008,-0.37158203,0.27539062,0.18310547,-0.12207031,-0.30517578,0.0,0.0,0.0,-53.22876,61.864014,-27.009888
1766498261670,-0.8847656,-0.37304688,0.2758789,0.12207031,-0.4272461,0.0,0.0,0.0,0.0,-53.22876,61.864014,-27.009888
1766498261682,-0.8847656,-0.37304688,0.2758789,0.12207031,-0.4272461,0.0,0.0,0.0,0.0,-53.1958,61.85852,-26.987915
1766498261770,-0.8852539,-0.3725586,0.27490234,0.0,-0.36621094,-0.12207031,0.0,0.0,0.0,-53.1958,61.85852,-26.987915
1766498261782,-0.8852539,-0.3725586,0.27490234,0.0,-0.36621094,-0.12207031,0.0,0.0,0.0,-53.129883,61.847534,-26.91101
1766498261870,-0.8881836,-0.37353516,0.27294922,0.36621094,0.0,-0.24414062,0.0,0.0,0.0,-53.129883,61.847534,-26.91101
1766498261881,-0.8881836,-0.37353516,0.27294922,0.36621094,0.0,-0.24414062,0.0,0.0,0.0,-53.10791,61.836548,-26.905518
1766498261969,-0.8798828,-0.37646484,0.27392578,0.7324219,0.18310547,-0.4272461,0.0,0.0,0.0,-53.10791,61.836548,-26.905518
1766498261981,-0.8798828,-0.37646484,0.27392578,0.7324219,0.18310547,-0.4272461,0.0,0.0,0.0,-53.12439,61.836548,-26.954956
1766498262069,-0.88964844,-0.375,0.26757812,-0.30517578,-1.159668,0.18310547,0.0,0.0,0.0,-53.12439,61.836548,-26.954956
1766498262080,-0.88964844,-0.375,0.26757812,-0.30517578,-1.159668,0.18310547,0.0,0.0,0.0,-53.041992,61.80359,-26.85608
1766498262169,-0.8828125,-0.37109375,0.27978516,0.79345703,0.12207031,-0.24414062,0.0,0.0,0.0,-53.041992,61.80359,-26.85608
1766498262180,-0.8828125,-0.37109375,0.27978516,0.79345703,0.12207031,-0.24414062,0.0,0.0,0.0,-53.069458,61.82007,-26.889038
1766498262268,-0.8828125,-0.3701172,0.2758789,-0.30517578,-0.24414062,-0.061035156,0.0,0.0,0.0,-53.069458,61.82007,-26.889038
1766498262280,-0.8828125,-0.3701172,0.2758789,-0.30517578,-0.24414062,-0.061035156,0.0,0.0,0.0,-53.07495,61.814575,-26.883545
1766498262368,-0.8881836,-0.37548828,0.2734375,0.24414062,-0.48828125,-0.061035156,0.0,0.0,0.0,-53.07495,61.814575,-26.883545
1766498262380,-0.8881836,-0.37548828,0.2734375,0.24414062,-0.48828125,-0.061035156,0.0,0.0,0.0,-53.014526,61.80359,-26.817627
1766498262468,-0.8833008,-0.37304688,0.27685547,0.24414062,0.30517578,-0.4272461,0.0,0.0,0.0,-53.014526,61.80359,-26.817627
1766498262479,-0.8833008,-0.37304688,0.27685547,0.24414062,0.30517578,-0.4272461,0.0,0.0,0.0,-53.069458,61.80359,-26.905518
1766498262568,-0.8852539,-0.37304688,0.2763672,-0.061035156,0.0,-0.12207031,0.0,0.0,0.0,-53.069458,61.80359,-26.905518
1766498262579,-0.8852539,-0.37304688,0.2763672,-0.061035156,0.0,-0.12207031,0.0,0.0,0.0,-53.096924,61.809082,-26.949463
1766498262668,-0.88378906,-0.37451172,0.27490234,0.0,0.061035156,-0.12207031,0.0,0.0,0.0,-53.096924,61.809082,-26.949463
1766498262679,-0.88378906,-0.37451172,0.27490234,0.0,0.061035156,-0.12207031,0.0,0.0,0.0,-53.10791,61.814575,-26.971436
1766498262767,-0.8886719,-0.37304688,0.27246094,0.30517578,0.30517578,-0.24414062,0.0,0.0,0.0,-53.10791,61.814575,-26.971436
1766498262778,-0.8886719,-0.37304688,0.27246094,0.30517578,0.30517578,-0.24414062,0.0,0.0,0.0,-53.151855,61.82556,-26.993408
1766498262867,-0.8803711,-0.3779297,0.27197266,0.79345703,0.61035156,-0.4272461,0.0,0.0,0.0,-53.151855,61.82556,-26.993408
1766498262878,-0.8803711,-0.3779297,0.27197266,0.79345703,0.61035156,-0.4272461,0.0,0.0,0.0,-53.239746,61.85852,-27.114258
1766498262966,-0.8881836,-0.37304688,0.26708984,-0.30517578,-0.61035156,0.18310547,0.0,0.0,0.0,-53.239746,61.85852,-27.114258
1766498262979,-0.8881836,-0.37304688,0.26708984,-0.30517578,-0.61035156,0.18310547,0.0,0.0,0.0,-53.234253,61.847534,-27.097778
1766498263066,-0.8833008,-0.37304688,0.27294922,0.7324219,0.061035156,-0.30517578,0.0,0.0,0.0,-53.234253,61.847534,-27.097778
1766498263078,-0.8833008,-0.37304688,0.27294922,0.7324219,0.061035156,-0.30517578,0.0,0.0,0.0,-53.289185,61.864014,-27.174683
1766498263166,-0.8823242,-0.36914062,0.27392578,-0.061035156,-0.24414062,-0.061035156,0.0,0.0,0.0,-53.289185,61.864014,-27.174683
1766498263177,-0.8823242,-0.36914062,0.27392578,-0.061035156,-0.24414062,-0.061035156,0.0,0.0,0.0,-53.31665,61.869507,-27.191162
1766498263266,-0.88916016,-0.3779297,0.27001953,0.0,-0.48828125,0.061035156,0.0,0.0,0.0,-53.31665,61.869507,-27.191162
1766498263277,-0.88916016,-0.3779297,0.27001953,0.0,-0.48828125,0.061035156,0.0,0.0,0.0,-53.26172,61.85852,-27.141724
1766498263365,-0.8828125,-0.37304688,0.27490234,0.0,0.0,-0.18310547,0.0,0.0,0.0,-53.26172,61.85852,-27.141724
1766498263377,-0.8828125,-0.37304688,0.27490234,0.0,0.0,-0.18310547,0.0,0.0,0.0,-53.31665,61.864014,-27.202148
1766498263465,-0.88427734,-0.37402344,0.27539062,0.0,-0.12207031,-0.061035156,0.0,0.0,0.0,-53.31665,61.864014,-27.202148
1766498263477,-0.88427734,-0.37402344,0.27539062,0.0,-0.12207031,-0.061035156,0.0,0.0,0.0,-53.338623,61.875,-27.218628
1766498263565,-0.8881836,-0.37402344,0.27294922,0.061035156,-0.30517578,0.0,0.0,0.0,0.0,-53.338623,61.875,-27.218628
1766498263577,-0.8881836,-0.37402344,0.27294922,0.061035156,-0.30517578,0.0,0.0,0.0,0.0,-53.30017,61.875,-27.163696
1766498263665,-0.8876953,-0.375,0.26953125,0.4272461,-0.061035156,-0.12207031,0.0,0.0,0.0,-53.30017,61.875,-27.163696
1766498263676,-0.8876953,-0.375,0.26953125,0.4272461,-0.061035156,-0.12207031,0.0,0.0,0.0,-53.24524,61.869507,-27.125244
1766498263764,-0.8803711,-0.37646484,0.2705078,1.4648438,0.24414062,-0.48828125,0.0,0.0,0.0,-53.24524,61.869507,-27.125244
1766498263776,-0.8803711,-0.37646484,0.2705078,1.4648438,0.24414062,-0.48828125,0.0,0.0,0.0,-53.21228,61.875,-27.15271
1766498263864,-0.88964844,-0.375,0.26611328,-0.24414062,-0.36621094,0.061035156,0.0,0.0,0.0,-53.21228,61.875,-27.15271
1766498263875,-0.88964844,-0.375,0.26611328,-0.24414062,-0.36621094,0.061035156,0.0,0.0,0.0,-53.12439,61.84204,-27.059326
1766498263964,-0.88427734,-0.37353516,0.27490234,0.8544922,0.0,-0.30517578,0.0,0.0,0.0,-53.12439,61.84204,-27.059326
1766498263975,-0.88427734,-0.37353516,0.27490234,0.8544922,0.0,-0.30517578,0.0,0.0,0.0,-53.201294,61.85852,-27.15271
1766498264063,-0.88134766,-0.3696289,0.2763672,-0.18310547,-0.12207031,0.0,0.0,0.0,0.0,-53.201294,61.85852,-27.15271
1766498264075,-0.88134766,-0.3696289,0.2763672,-0.18310547,-0.12207031,0.0,0.0,0.0,0.0,-53.22876,61.875,-27.163696
1766498264163,-0.8901367,-0.37695312,0.26953125,0.24414062,0.0,-0.18310547,0.0,0.0,0.0,-53.22876,61.875,-27.163696
1766498264175,-0.8901367,-0.37695312,0.26953125,0.24414062,0.0,-0.18310547,0.0,0.0,0.0,-53.223267,61.880493,-27.16919
1766498264263,-0.8847656,-0.37158203,0.27685547,0.0,0.24414062,-0.24414062,0.0,0.0,0.0,-53.223267,61.880493,-27.16919
1766498264275,-0.8847656,-0.37158203,0.27685547,0.0,0.24414062,-0.24414062,0.0,0.0,0.0,-53.327637,61.896973,-27.284546
1766498264363,-0.8847656,-0.37353516,0.27441406,-0.12207031,0.0,-0.061035156,0.0,0.0,0.0,-53.327637,61.896973,-27.284546
1766498264374,-0.8847656,-0.37353516,0.27441406,-0.12207031,0.0,-0.061035156,0.0,0.0,0.0,-53.371582,61.913452,-27.322998
1766498264462,-0.88623047,-0.37304688,0.2734375,-0.4272461,-0.12207031,0.0,0.0,0.0,0.0,-53.371582,61.913452,-27.322998
1766498264474,-0.88623047,-0.37304688,0.2734375,-0.4272461,-0.12207031,0.0,0.0,0.0,0.0,-53.36609,61.918945,-27.284546
1766498264562,-0.8876953,-0.3720703,0.27148438,-0.12207031,0.24414062,-0.24414062,0.0,0.0,0.0,-53.36609,61.918945,-27.284546
1766498264574,-0.8876953,-0.3720703,0.27148438,-0.12207031,0.24414062,-0.24414062,0.0,0.0,0.0,-53.393555,61.935425,-27.306519
1766498264662,-0.88964844,-0.37304688,0.27392578,-0.7324219,-1.2207031,0.0,0.0,0.0,0.0,-53.393555,61.935425,-27.306519
1766498264673,-0.88964844,-0.37304688,0.27392578,-0.7324219,-1.2207031,0.0,0.0,0.0,0.0,-53.399048,61.92993,-27.333984
1766498264762,-0.8798828,-0.36816406,0.27197266,-0.061035156,0.7324219,-0.36621094,0.0,0.0,0.0,-53.399048,61.92993,-27.333984
1766498264773,-0.8798828,-0.36816406,0.27197266,-0.061035156,0.7324219,-0.36621094,0.0,0.0,0.0,-53.426514,61.940918,-27.312012
1766498264861,-0.88964844,-0.37548828,0.26757812,0.12207031,0.79345703,-0.36621094,0.0,0.0,0.0,-53.426514,61.940918,-27.312012
1766498264873,-0.88964844,-0.37548828,0.26757812,0.12207031,0.79345703,-0.36621094,0.0,0.0,0.0,-53.4375,61.940918,-27.322998
1766498264961,-0.8833008,-0.37109375,0.27441406,0.48828125,-0.5493164,-0.061035156,0.0,0.0,0.0,-53.4375,61.940918,-27.322998
1766498264972,-0.8833008,-0.37109375,0.27441406,0.48828125,-0.5493164,-0.061035156,0.0,0.0,0.0,-53.410034,61.92993,-27.284546
1766498265061,-0.8881836,-0.37353516,0.27197266,0.061035156,0.0,-0.36621094,0.0,0.0,0.0,-53.410034,61.92993,-27.284546
1766498265072,-0.8881836,-0.37353516,0.27197266,0.061035156,0.0,-0.36621094,0.0,0.0,0.0,-53.344116,61.913452,-27.196655
1766498265160,-0.88623047,-0.3725586,0.27148438,0.18310547,-0.12207031,-0.12207031,0.0,0.0,0.0,-53.344116,61.913452,-27.196655
1766498265172,-0.88623047,-0.3725586,0.27148438,0.18310547,-0.12207031,-0.12207031,0.0,0.0,0.0,-53.360596,61.913452,-27.213135
1766498265260,-0.88427734,-0.3725586,0.2734375,0.061035156,-0.5493164,0.061035156,0.0,0.0,0.0,-53.360596,61.913452,-27.213135
1766498265272,-0.88427734,-0.3725586,0.2734375,0.061035156,-0.5493164,0.061035156,0.0,0.0,0.0,-53.289185,61.902466,-27.125244
1766498265360,-0.8886719,-0.37304688,0.27294922,0.48828125,-0.12207031,-0.12207031,0.0,0.0,0.0,-53.289185,61.902466,-27.125244
1766498265371,-0.8886719,-0.37304688,0.27294922,0.48828125,-0.12207031,-0.12207031,0.0,0.0,0.0,-53.206787,61.880493,-27.009888
1766498265460,-0.87939453,-0.37451172,0.27490234,0.7324219,0.4272461,-0.48828125,0.0,0.0,0.0,-53.206787,61.880493,-27.009888
1766498265471,-0.87939453,-0.37451172,0.27490234,0.7324219,0.4272461,-0.48828125,0.0,0.0,0.0,-53.223267,61.885986,-27.042847
1766498265559,-0.8911133,-0.37548828,0.27001953,-0.12207031,-1.4648438,0.18310547,0.0,0.0,0.0,-53.223267,61.885986,-27.042847
1766498265571,-0.8911133,-0.37548828,0.27001953,-0.12207031,-1.4648438,0.18310547,0.0,0.0,0.0,-53.151855,61.864014,-26.976929
1766498265659,-0.88134766,-0.3696289,0.28125,0.7324219,-0.12207031,-0.30517578,0.0,0.0,0.0,-53.151855,61.864014,-26.976929
1766498265671,-0.88134766,-0.3696289,0.28125,0.7324219,-0.12207031,-0.30517578,0.0,0.0,0.0,-53.14087,61.85852,-26.954956
1766498265759,-0.8847656,-0.37060547,0.2734375,-0.24414062,-0.18310547,-0.061035156,0.0,0.0,0.0,-53.14087,61.85852,-26.954956
1766498265770,-0.8847656,-0.37060547,0.2734375,-0.24414062,-0.18310547,-0.061035156,0.0,0.0,0.0,-53.102417,61.847534,-26.949463
1766498265858,-0.8876953,-0.37451172,0.2734375,0.30517578,-0.7324219,0.0,0.0,0.0,0.0,-53.102417,61.847534,-26.949463
1766498265870,-0.8876953,-0.37451172,0.2734375,0.30517578,-0.7324219,0.0,0.0,0.0,0.0,-53.031006,61.836548,-26.878052
1766498265958,-0.88378906,-0.37158203,0.27783203,0.12207031,0.12207031,-0.36621094,0.0,0.0,0.0,-53.031006,61.836548,-26.878052
1766498265970,-0.88378906,-0.37158203,0.27783203,0.12207031,0.12207031,-0.36621094,0.0,0.0,0.0,-53.031006,61.836548,-26.889038
1766498266058,-0.8857422,-0.3725586,0.2763672,-0.061035156,-0.061035156,0.0,0.0,0.0,0.0,-53.031006,61.836548,-26.889038
1766498266069,-0.8857422,-0.3725586,0.2763672,-0.061035156,-0.061035156,0.0,0.0,0.0,0.0,-53.041992,61.836548,-26.91101
1766498266158,-0.88427734,-0.3725586,0.27441406,0.0,-0.18310547,0.0,0.0,0.0,0.0,-53.041992,61.836548,-26.91101
1766498266169,-0.88427734,-0.3725586,0.27441406,0.0,-0.18310547,0.0,0.0,0.0,0.0,-53.00354,61.84204,-26.861572
1766498266257,-0.8876953,-0.3725586,0.27294922,0.36621094,0.0,-0.18310547,0.0,0.0,0.0,-53.00354,61.84204,-26.861572
1766498266269,-0.8876953,-0.3725586,0.27294922,0.36621094,0.0,-0.18310547,0.0,0.0,0.0,-52.998047,61.836548,-26.845093
1766498266357,-0.8798828,-0.37597656,0.27441406,0.7324219,0.4272461,-0.4272461,0.0,0.0,0.0,-52.998047,61.836548,-26.845093
1766498266369,-0.8798828,-0.37597656,0.27441406,0.7324219,0.4272461,-0.4272461,0.0,0.0,0.0,-53.0365,61.853027,-26.91101
1766498266457,-0.88916016,-0.37304688,0.26904297,-0.30517578,-0.79345703,0.24414062,0.0,0.0,0.0,-53.0365,61.853027,-26.91101
1766498266468,-0.88916016,-0.37304688,0.26904297,-0.30517578,-0.79345703,0.24414062,0.0,0.0,0.0,-52.976074,61.831055,-26.828613
1766498266557,-0.8833008,-0.3720703,0.27685547,0.91552734,0.0,-0.30517578,0.0,0.0,0.0,-52.976074,61.831055,-26.828613
1766498266568,-0.8833008,-0.3720703,0.27685547,0.91552734,0.0,-0.30517578,0.0,0.0,0.0,-53.025513,61.847534,-26.900024
1766498266656,-0.88183594,-0.36914062,0.2758789,-0.24414062,-0.24414062,0.12207031,0.0,0.0,0.0,-53.025513,61.847534,-26.900024
1766498266668,-0.88183594,-0.36914062,0.2758789,-0.24414062,-0.24414062,0.12207031,0.0,0.0,0.0,-53.014526,61.847534,-26.867065
1766498266756,-0.88623047,-0.37597656,0.27246094,0.30517578,-0.36621094,-0.061035156,0.0,0.0,0.0,-53.014526,61.847534,-26.867065
1766498266768,-0.88623047,-0.37597656,0.27246094,0.30517578,-0.36621094,-0.061035156,0.0,0.0,0.0,-52.943115,61.847534,-26.795654
1766498266856,-0.8828125,-0.3696289,0.27783203,-0.12207031,0.061035156,-0.18310547,0.0,0.0,0.0,-52.943115,61.847534,-26.795654
1766498266867,-0.8828125,-0.3696289,0.27783203,-0.12207031,0.061035156,-0.18310547,0.0,0.0,0.0,-52.992554,61.847534,-26.82312
1766498266955,-0.88378906,-0.37353516,0.2758789,0.0,-0.24414062,0.0,0.0,0.0,0.0,-52.992554,61.847534,-26.82312
1766498266967,-0.88378906,-0.37353516,0.2758789,0.0,-0.24414062,0.0,0.0,0.0,0.0,-52.998047,61.864014,-26.850586
1766498267055,-0.88671875,-0.3725586,0.27539062,-0.18310547,-0.30517578,0.0,0.0,0.0,0.0,-52.998047,61.864014,-26.850586
1766498267067,-0.88671875,-0.3725586,0.27539062,-0.18310547,-0.30517578,0.0,0.0,0.0,0.0,-52.976074,61.85852,-26.82312
1766498267155,-0.88623047,-0.37158203,0.2709961,0.30517578,0.4272461,-0.24414062,0.0,0.0,0.0,-52.976074,61.85852,-26.82312
1766498267166,-0.88623047,-0.37158203,0.2709961,0.30517578,0.4272461,-0.24414062,0.0,0.0,0.0,-52.992554,61.875,-26.872559
1766498267255,-0.8852539,-0.37158203,0.27490234,-0.061035156,0.0,-0.36621094,0.0,0.0,0.0,-52.992554,61.875,-26.872559
