timestamp,accX,accY,accZ,gyroX,gyroY,gyroZ,magX,magY,magZ,roll,pitch,yaw
1768998730576,-0.9975586,0.03466797,0.040527344,1.0375977,0.18310547,-1.0375977,0.0,0.0,0.0,32.036133,85.81421,59.370117
1768998730664,-0.99316406,0.041015625,0.05810547,1.8310547,1.3427734,-0.5493164,0.0,0.0,0.0,32.036133,85.81421,59.370117
1768998730676,-0.99316406,0.041015625,0.05810547,1.8310547,1.3427734,-0.5493164,0.0,0.0,0.0,32.28882,85.95703,59.49646
1768998730764,-0.9824219,0.04248047,0.043945312,-0.6713867,0.5493164,0.12207031,0.0,0.0,0.0,32.28882,85.95703,59.49646
1768998730779,-0.9824219,0.04248047,0.043945312,-0.6713867,0.5493164,0.12207031,0.0,0.0,0.0,33.19519,85.99548,60.64453
1768998730864,-1.0029297,0.05419922,0.053222656,-0.12207031,-1.159668,0.7324219,0.0,0.0,0.0,33.19519,85.99548,60.64453
1768998730875,-1.0029297,0.05419922,0.053222656,-0.12207031,-1.159668,0.7324219,0.0,0.0,0.0,34.161987,85.88013,61.732178
1768998730964,-0.96777344,0.05126953,0.06298828,-1.5258789,-0.30517578,0.8544922,0.0,0.0,0.0,34.161987,85.88013,61.732178
1768998730975,-0.96777344,0.05126953,0.06298828,-1.5258789,-0.30517578,0.8544922,0.0,0.0,0.0,34.44763,85.79773,62.094727
1768998731064,-1.0644531,0.032226562,0.03564453,-1.0986328,1.3427734,-0.4272461,0.0,0.0,0.0,34.44763,85.79773,62.094727
1768998731075,-1.0644531,0.032226562,0.03564453,-1.0986328,1.3427734,-0.4272461,0.0,0.0,0.0,35.57373,85.77576,63.28125
1768998731163,-0.97509766,0.052734375,0.033691406,0.7324219,0.61035156,0.061035156,0.0,0.0,0.0,35.57373,85.77576,63.28125
1768998731174,-0.97509766,0.052734375,0.033691406,0.7324219,0.61035156,0.061035156,0.0,0.0,0.0,35.683594,85.97351,63.33618
1768998731263,-0.9902344,0.032226562,0.08203125,-5.1879883,4.9438477,-1.8310547,0.0,0.0,0.0,35.683594,85.97351,63.33618
1768998731274,-0.9902344,0.032226562,0.08203125,-5.1879883,4.9438477,-1.8310547,0.0,0.0,0.0,37.001953,86.20972,64.83032
1768998731362,-1.0288086,0.056152344,0.0068359375,3.90625,0.79345703,0.6713867,0.0,0.0,0.0,37.001953,86.20972,64.83032
1768998731374,-1.0288086,0.056152344,0.0068359375,3.90625,0.79345703,0.6713867,0.0,0.0,0.0,37.89734,86.3031,65.93445
1768998731462,-1.0043945,0.0034179688,0.040039062,-1.8310547,3.2958984,-0.36621094,0.0,0.0,0.0,37.89734,86.3031,65.93445
1768998731473,-1.0043945,0.0034179688,0.040039062,-1.8310547,3.2958984,-0.36621094,0.0,0.0,0.0,40.462646,86.3855,68.12073
1768998731562,-1.0112305,0.045898438,0.02734375,1.7700195,1.7700195,-1.4038086,0.0,0.0,0.0,40.462646,86.3855,68.12073
1768998731573,-1.0112305,0.045898438,0.02734375,1.7700195,1.7700195,-1.4038086,0.0,0.0,0.0,41.7865,86.484375,69.818115
1768998731661,-0.9902344,0.04736328,0.033691406,0.061035156,1.0375977,-0.61035156,0.0,0.0,0.0,41.7865,86.484375,69.818115
1768998731673,-0.9902344,0.04736328,0.033691406,0.061035156,1.0375977,-0.61035156,0.0,0.0,0.0,42.478638,86.59973,70.48279
1768998731761,-1.0048828,0.040527344,0.024414062,0.79345703,0.30517578,-1.2817383,0.0,0.0,0.0,42.478638,86.59973,70.48279
1768998731773,-1.0048828,0.040527344,0.024414062,0.79345703,0.30517578,-1.2817383,0.0,0.0,0.0,42.01172,86.71509,69.96094
1768998731861,-0.9941406,0.036132812,0.03466797,0.36621094,0.8544922,-0.18310547,0.0,0.0,0.0,42.01172,86.71509,69.96094
1768998731873,-0.9941406,0.036132812,0.03466797,0.36621094,0.8544922,-0.18310547,0.0,0.0,0.0,43.566284,86.797485,71.51001
1768998731960,-1.0073242,0.036132812,0.020996094,-2.9296875,-1.2207031,0.0,0.0,0.0,0.0,43.566284,86.797485,71.51001
1768998731972,-1.0073242,0.036132812,0.020996094,-2.9296875,-1.2207031,0.0,0.0,0.0,0.0,43.11035,86.726074,71.240845
1768998732060,-1.0131836,0.049316406,0.03515625,-0.24414062,-1.5869141,0.4272461,0.0,0.0,0.0,43.11035,86.726074,71.240845
1768998732072,-1.0131836,0.049316406,0.03515625,-0.24414062,-1.5869141,0.4272461,0.0,0.0,0.0,41.418457,86.6272,69.57092
1768998732160,-0.97265625,0.045898438,0.02734375,3.479004,-2.380371,-0.8544922,0.0,0.0,0.0,41.418457,86.6272,69.57092
1768998732171,-0.97265625,0.045898438,0.02734375,3.479004,-2.380371,-0.8544922,0.0,0.0,0.0,40.166016,86.55029,68.24158
1768998732260,-1.0019531,0.044433594,0.051757812,-2.5634766,0.24414062,1.4038086,0.0,0.0,0.0,40.166016,86.55029,68.24158
1768998732271,-1.0019531,0.044433594,0.051757812,-2.5634766,0.24414062,1.4038086,0.0,0.0,0.0,41.0614,86.467896,69.01611
1768998732359,-0.99316406,0.05810547,0.053710938,3.2348633,-2.6855469,-0.8544922,0.0,0.0,0.0,41.0614,86.467896,69.01611
1768998732371,-0.99316406,0.05810547,0.053710938,3.2348633,-2.6855469,-0.8544922,0.0,0.0,0.0,41.099854,86.3031,69.29077
1768998732459,-1.0063477,0.026855469,0.041503906,0.8544922,0.061035156,0.0,0.0,0.0,0.0,41.099854,86.3031,69.29077
1768998732470,-1.0063477,0.026855469,0.041503906,0.8544922,0.061035156,0.0,0.0,0.0,0.0,39.484863,86.11633,67.38464
1768998732559,-1.0073242,0.049316406,0.036132812,0.5493164,0.0,-0.9765625,0.0,0.0,0.0,39.484863,86.11633,67.38464
1768998732570,-1.0073242,0.049316406,0.036132812,0.5493164,0.0,-0.9765625,0.0,0.0,0.0,38.67737,86.138306,66.6156
1768998732658,-0.9638672,0.033691406,0.06591797,-1.8310547,3.90625,0.0,0.0,0.0,0.0,38.67737,86.138306,66.6156
1768998732670,-0.9638672,0.033691406,0.06591797,-1.8310547,3.90625,0.0,0.0,0.0,0.0,40.111084,86.19324,68.1427
1768998732758,-1.0356445,0.014160156,0.020507812,1.2817383,0.12207031,0.9765625,0.0,0.0,0.0,40.111084,86.19324,68.1427
1768998732770,-1.0356445,0.014160156,0.020507812,1.2817383,0.12207031,0.9765625,0.0,0.0,0.0,40.473633,86.04492,69.0271
1768998732858,-0.96728516,0.08544922,0.03173828,-2.5634766,2.8686523,1.2207031,0.0,0.0,0.0,40.473633,86.04492,69.0271
1768998732869,-0.96728516,0.08544922,0.03173828,-2.5634766,2.8686523,1.2207031,0.0,0.0,0.0,39.781494,86.26465,68.45581
1768998732958,-0.94433594,0.05810547,0.020996094,3.7231445,1.5258789,0.12207031,0.0,0.0,0.0,39.781494,86.26465,68.45581
1768998732969,-0.94433594,0.05810547,0.020996094,3.7231445,1.5258789,0.12207031,0.0,0.0,0.0,43.9563,86.171265,72.559204
1768998733057,-1.0678711,0.014160156,0.03125,-1.0986328,-1.0375977,4.1503906,0.0,0.0,0.0,43.9563,86.171265,72.559204
1768998733069,-1.0678711,0.014160156,0.03125,-1.0986328,-1.0375977,4.1503906,0.0,0.0,0.0,47.785034,86.01196,76.190186
1768998733157,-0.97509766,0.05126953,0.047851562,-1.4038086,-3.540039,-2.380371,0.0,0.0,0.0,47.785034,86.01196,76.190186
1768998733168,-0.97509766,0.05126953,0.047851562,-1.4038086,-3.540039,-2.380371,0.0,0.0,0.0,46.812744,85.632935,75.48706
1768998733257,-1.0068359,0.08544922,0.034179688,0.061035156,-2.746582,0.6713867,0.0,0.0,0.0,46.812744,85.632935,75.48706
1768998733268,-1.0068359,0.08544922,0.034179688,0.061035156,-2.746582,0.6713867,0.0,0.0,0.0,42.3468,85.36377,70.982666
1768998733356,-1.03125,0.029785156,0.04638672,5.493164,-6.5307617,4.272461,0.0,0.0,0.0,42.3468,85.36377,70.982666
1768998733368,-1.03125,0.029785156,0.04638672,5.493164,-6.5307617,4.272461,0.0,0.0,0.0,44.08264,85.0177,72.10327
1768998733456,-1.0146484,0.067871094,0.06347656,2.6245117,-7.446289,3.9672852,0.0,0.0,0.0,44.08264,85.0177,72.10327
1768998733468,-1.0146484,0.067871094,0.06347656,2.6245117,-7.446289,3.9672852,0.0,0.0,0.0,42.37976,84.2157,69.96094
1768998733556,-0.97802734,0.060546875,0.107421875,-4.1503906,-10.803223,1.159668,0.0,0.0,0.0,42.37976,84.2157,69.96094
1768998733567,-0.97802734,0.060546875,0.107421875,-4.1503906,-10.803223,1.159668,0.0,0.0,0.0,38.35327,83.64441,65.78613
1768998733656,-1.0136719,0.09423828,0.1303711,2.8076172,-5.065918,-1.0986328,0.0,0.0,0.0,38.35327,83.64441,65.78613
1768998733667,-1.0136719,0.09423828,0.1303711,2.8076172,-5.065918,-1.0986328,0.0,0.0,0.0,33.90381,82.836914,61.61133
1768998733755,-0.9663086,0.15332031,0.10253906,9.277344,-4.699707,-4.638672,0.0,0.0,0.0,33.90381,82.836914,61.61133
1768998733767,-0.9663086,0.15332031,0.10253906,9.277344,-4.699707,-4.638672,0.0,0.0,0.0,29.503784,82.770996,56.57959
1768998733855,-0.98535156,0.107421875,0.1171875,11.535645,1.2817383,-9.155273,0.0,0.0,0.0,29.503784,82.770996,56.57959
1768998733867,-0.98535156,0.107421875,0.1171875,11.535645,1.2817383,-9.155273,0.0,0.0,0.0,25.53772,82.69409,51.83899
1768998733955,-1.0024414,0.05859375,0.10986328,11.474609,7.385254,-13.671875,0.0,0.0,0.0,25.53772,82.69409,51.83899
1768998733966,-1.0024414,0.05859375,0.10986328,11.474609,7.385254,-13.671875,0.0,0.0,0.0,21.357422,83.44116,46.47766
1768998734054,-1.0229492,0.009277344,0.07714844,8.117676,6.8359375,-8.666992,0.0,0.0,0.0,21.357422,83.44116,46.47766
1768998734066,-1.0229492,0.009277344,0.07714844,8.117676,6.8359375,-8.666992,0.0,0.0,0.0,14.985352,84.298096,38.984985
1768998734154,-0.98339844,-0.05517578,0.107910156,1.5869141,6.1035156,-6.713867,0.0,0.0,0.0,14.985352,84.298096,38.984985
1768998734165,-0.98339844,-0.05517578,0.107910156,1.5869141,6.1035156,-6.713867,0.0,0.0,0.0,9.168091,85.12207,32.77771
1768998734254,-0.9863281,-0.022949219,0.0625,-0.36621094,7.5683594,-3.6621094,0.0,0.0,0.0,9.168091,85.12207,32.77771
1768998734265,-0.9863281,-0.022949219,0.0625,-0.36621094,7.5683594,-3.6621094,0.0,0.0,0.0,2.5708008,85.80322,26.73523
1768998734360,-0.9824219,-0.0146484375,0.083984375,-5.7373047,6.8359375,-1.2817383,0.0,0.0,0.0,2.5708008,85.80322,26.73523
1768998734365,-0.9824219,-0.0146484375,0.083984375,-5.7373047,6.8359375,-1.2817383,0.0,0.0,0.0,-2.340088,86.28662,22.593384
1768998734453,-0.97753906,-0.025390625,0.0126953125,-23.254395,8.972168,9.70459,0.0,0.0,0.0,-2.340088,86.28662,22.593384
1768998734465,-0.97753906,-0.025390625,0.0126953125,-23.254395,8.972168,9.70459,0.0,0.0,0.0,5.718384,86.797485,32.964478
1768998734555,-1.0219727,-0.0107421875,-0.0126953125,-16.845703,-3.8452148,4.760742,0.0,0.0,0.0,5.718384,86.797485,32.964478
1768998734564,-1.0219727,-0.0107421875,-0.0126953125,-16.845703,-3.8452148,4.760742,0.0,0.0,0.0,15.413818,86.7865,44.555054
1768998734653,-1.0253906,0.07324219,0.04248047,-5.554199,-7.385254,3.1738281,0.0,0.0,0.0,15.413818,86.7865,44.555054
1768998734664,-1.0253906,0.07324219,0.04248047,-5.554199,-7.385254,3.1738281,0.0,0.0,0.0,15.699463,86.41846,45.115356
1768998734752,-1.0043945,0.047851562,0.030761719,-6.8359375,-9.155273,2.0141602,0.0,0.0,0.0,15.699463,86.41846,45.115356
1768998734764,-1.0043945,0.047851562,0.030761719,-6.8359375,-9.155273,2.0141602,0.0,0.0,0.0,20.181885,85.95703,49.713135
1768998734852,-0.9189453,0.017578125,0.09326172,0.18310547,-3.540039,4.8828125,0.0,0.0,0.0,20.181885,85.95703,49.713135
1768998734863,-0.9189453,0.017578125,0.09326172,0.18310547,-3.540039,4.8828125,0.0,0.0,0.0,21.923218,85.40222,50.844727
1768998734952,-1.0986328,0.05859375,0.049316406,-8.7890625,-12.512207,12.512207,0.0,0.0,0.0,21.923218,85.40222,50.844727
1768998734964,-1.0986328,0.05859375,0.049316406,-8.7890625,-12.512207,12.512207,0.0,0.0,0.0,26.603394,84.33655,55.964355
1768998735051,-1.0556641,0.06201172,0.106933594,3.1738281,-16.967773,4.8217773,0.0,0.0,0.0,26.603394,84.33655,55.964355
1768998735063,-1.0556641,0.06201172,0.106933594,3.1738281,-16.967773,4.8217773,0.0,0.0,0.0,29.597168,82.84241,58.095703
1768998735151,-0.97216797,0.08300781,0.1586914,10.375977,-7.2021484,6.4697266,0.0,0.0,0.0,29.597168,82.84241,58.095703
1768998735163,-0.97216797,0.08300781,0.1586914,10.375977,-7.2021484,6.4697266,0.0,0.0,0.0,33.43689,81.55701,60.177612
1768998735251,-1.015625,0.068847656,0.20996094,2.4414062,0.5493164,1.0986328,0.0,0.0,0.0,33.43689,81.55701,60.177612
1768998735262,-1.015625,0.068847656,0.20996094,2.4414062,0.5493164,1.0986328,0.0,0.0,0.0,33.79944,81.172485,59.77661
1768998735350,-1.0805664,0.118652344,0.16503906,-4.5166016,5.493164,-1.4038086,0.0,0.0,0.0,33.79944,81.172485,59.77661
1768998735362,-1.0805664,0.118652344,0.16503906,-4.5166016,5.493164,-1.4038086,0.0,0.0,0.0,34.749756,81.14502,60.996094
1768998735450,-0.96191406,0.140625,0.075683594,10.620117,8.422852,-8.361816,0.0,0.0,0.0,34.749756,81.14502,60.996094
1768998735462,-0.96191406,0.140625,0.075683594,10.620117,8.422852,-8.361816,0.0,0.0,0.0,30.580444,82.353516,56.7334
1768998735550,-0.95458984,0.061523438,0.109375,5.493164,9.94873,-4.760742,0.0,0.0,0.0,30.580444,82.353516,56.7334
1768998735561,-0.95458984,0.061523438,0.109375,5.493164,9.94873,-4.760742,0.0,0.0,0.0,30.541992,83.430176,55.717163
1768998735650,-1.015625,0.064941406,0.0859375,4.333496,14.038086,-3.4179688,0.0,0.0,0.0,30.541992,83.430176,55.717163
1768998735661,-1.015625,0.064941406,0.0859375,4.333496,14.038086,-3.4179688,0.0,0.0,0.0,33.69507,84.52881,58.568115
1768998735749,-1.0092773,0.009277344,0.04736328,2.0141602,14.099121,-8.605957,0.0,0.0,0.0,33.69507,84.52881,58.568115
1768998735761,-1.0092773,0.009277344,0.04736328,2.0141602,14.099121,-8.605957,0.0,0.0,0.0,39.484863,85.90759,64.64905
1768998735849,-0.9589844,0.032226562,0.02734375,-1.8920898,12.390137,-6.225586,0.0,0.0,0.0,39.484863,85.90759,64.64905
1768998735860,-0.9589844,0.032226562,0.02734375,-1.8920898,12.390137,-6.225586,0.0,0.0,0.0,42.209473,87.30286,67.890015
1768998735949,-1.0058594,0.0048828125,-0.015136719,1.3427734,12.145996,-5.126953,0.0,0.0,0.0,42.209473,87.30286,67.890015
1768998735960,-1.0058594,0.0048828125,-0.015136719,1.3427734,12.145996,-5.126953,0.0,0.0,0.0,60.08972,88.45642,86.13281
1768998736048,-1.012207,0.01171875,-0.041015625,-5.3100586,8.422852,-2.8686523,0.0,0.0,0.0,60.08972,88.45642,86.13281
1768998736060,-1.012207,0.01171875,-0.041015625,-5.3100586,8.422852,-2.8686523,0.0,0.0,0.0,117.13623,88.91235,144.03076
1768998736148,-0.9975586,0.001953125,-0.048828125,-6.286621,2.1972656,-3.2958984,0.0,0.0,0.0,117.13623,88.91235,144.03076
1768998736160,-0.9975586,0.001953125,-0.048828125,-6.286621,2.1972656,-3.2958984,0.0,0.0,0.0,156.76941,88.75305,-175.52856
1768998736248,-0.9951172,0.0068359375,-0.03955078,-2.8686523,0.061035156,-6.164551,0.0,0.0,0.0,156.76941,88.75305,-175.52856
1768998736259,-0.9951172,0.0068359375,-0.03955078,-2.8686523,0.061035156,-6.164551,0.0,0.0,0.0,-175.12756,88.64868,-146.8158
1768998736349,-0.98779297,0.0043945312,-0.030273438,-2.319336,1.6479492,-0.79345703,0.0,0.0,0.0,-175.12756,88.64868,-146.8158
1768998736359,-0.98779297,0.0043945312,-0.030273438,-2.319336,1.6479492,-0.79345703,0.0,0.0,0.0,-163.3667,88.45642,-134.53308
1768998736448,-1.0224609,-0.011230469,-0.04248047,-0.24414062,-1.3427734,-0.8544922,0.0,0.0,0.0,-163.3667,88.45642,-134.53308
1768998736459,-1.0224609,-0.011230469,-0.04248047,-0.24414062,-1.3427734,-0.8544922,0.0,0.0,0.0,-160.75745,88.42346,-131.60522
1768998736547,-1.003418,-0.0073242188,-0.026367188,-1.5258789,0.0,-0.4272461,0.0,0.0,0.0,-160.75745,88.42346,-131.60522
1768998736558,-1.003418,-0.0073242188,-0.026367188,-1.5258789,0.0,-0.4272461,0.0,0.0,0.0,-158.72498,88.395996,-129.2981
1768998736647,-1.0083008,-0.013183594,-0.045898438,-5.6152344,-2.9296875,-0.18310547,0.0,0.0,0.0,-158.72498,88.395996,-129.2981
1768998736658,-1.0083008,-0.013183594,-0.045898438,-5.6152344,-2.9296875,-0.18310547,0.0,0.0,0.0,-155.91797,88.42346,-126.11755
1768998736746,-0.9897461,0.0,-0.020996094,-1.4648438,-3.540039,-3.6010742,0.0,0.0,0.0,-155.91797,88.42346,-126.11755
1768998736758,-0.9897461,0.0,-0.020996094,-1.4648438,-3.540039,-3.6010742,0.0,0.0,0.0,-145.55237,88.35205,-115.51575
1768998736846,-1.0112305,0.00390625,-0.0087890625,0.30517578,-0.36621094,-2.6245117,0.0,0.0,0.0,-145.55237,88.35205,-115.51575
1768998736857,-1.0112305,0.00390625,-0.0087890625,0.30517578,-0.36621094,-2.6245117,0.0,0.0,0.0,-136.09314,88.412476,-105.92468
1768998736946,-0.98828125,0.0,-0.014160156,-2.319336,0.30517578,0.061035156,0.0,0.0,0.0,-136.09314,88.412476,-105.92468
1768998736957,-0.98828125,0.0,-0.014160156,-2.319336,0.30517578,0.061035156,0.0,0.0,0.0,-133.35205,88.33557,-103.07922
1768998737046,-1.0087891,-0.011230469,-0.021972656,1.8310547,1.5869141,-0.6713867,0.0,0.0,0.0,-133.35205,88.33557,-103.07922
1768998737060,-1.0087891,-0.011230469,-0.021972656,1.8310547,1.5869141,-0.6713867,0.0,0.0,0.0,-136.81274,88.20923,-106.6333
1768998737146,-0.9951172,-0.026855469,-0.016601562,1.953125,2.2583008,-0.8544922,0.0,0.0,0.0,-136.81274,88.20923,-106.6333
1768998737161,-0.9951172,-0.026855469,-0.016601562,1.953125,2.2583008,-0.8544922,0.0,0.0,0.0,-140.98206,87.97302,-111.049805
1768998737246,-1.0112305,-0.014160156,-0.041992188,-2.380371,2.4414062,0.9765625,0.0,0.0,0.0,-140.98206,87.97302,-111.049805
1768998737257,-1.0112305,-0.014160156,-0.041992188,-2.380371,2.4414062,0.9765625,0.0,0.0,0.0,-145.16785,87.96753,-114.91699
1768998737345,-0.99853516,-0.03173828,-0.056640625,-3.3569336,-0.6713867,3.2958984,0.0,0.0,0.0,-145.16785,87.96753,-114.91699
1768998737357,-0.99853516,-0.03173828,-0.056640625,-3.3569336,-0.6713867,3.2958984,0.0,0.0,0.0,-154.07776,87.9126,-123.56323
1768998737446,-1.0219727,-0.02734375,-0.020996094,-1.7089844,1.7089844,4.9438477,0.0,0.0,0.0,-154.07776,87.9126,-123.56323
1768998737458,-1.0219727,-0.02734375,-0.020996094,-1.7089844,1.7089844,4.9438477,0.0,0.0,0.0,-165.56946,88.15979,-134.90662
1768998737546,-1.0195312,0.03466797,-0.060058594,2.1362305,0.79345703,-2.0751953,0.0,0.0,0.0,-165.56946,88.15979,-134.90662
1768998737556,-1.0195312,0.03466797,-0.060058594,2.1362305,0.79345703,-2.0751953,0.0,0.0,0.0,-171.67236,87.96753,-140.47668
1768998737644,-0.98339844,0.0146484375,-0.018554688,-2.6855469,1.2207031,-0.30517578,0.0,0.0,0.0,-171.67236,87.96753,-140.47668
1768998737655,-0.98339844,0.0146484375,-0.018554688,-2.6855469,1.2207031,-0.30517578,0.0,0.0,0.0,-169.85962,87.84668,-138.88916
1768998737743,-0.97509766,-0.0014648438,-0.05517578,4.9438477,-0.061035156,-0.18310547,0.0,0.0,0.0,-169.85962,87.84668,-138.88916
1768998737755,-0.97509766,-0.0014648438,-0.05517578,4.9438477,-0.061035156,-0.18310547,0.0,0.0,0.0,-170.83191,87.77527,-139.75159
1768998737843,-1.0175781,-0.009277344,-0.037109375,-2.4414062,-1.953125,2.6855469,0.0,0.0,0.0,-170.83191,87.77527,-139.75159
1768998737854,-1.0175781,-0.009277344,-0.037109375,-2.4414062,-1.953125,2.6855469,0.0,0.0,0.0,-175.84717,87.753296,-145.1239
1768998737943,-0.99658203,0.013671875,-0.044433594,0.061035156,-2.6245117,1.0375977,0.0,0.0,0.0,-175.84717,87.753296,-145.1239
1768998737954,-0.99658203,0.013671875,-0.044433594,0.061035156,-2.6245117,1.0375977,0.0,0.0,0.0,-178.17078,87.802734,-147.1344
1768998738042,-0.98828125,0.009765625,-0.04736328,3.90625,-4.638672,0.8544922,0.0,0.0,0.0,-178.17078,87.802734,-147.1344
1768998738054,-0.98828125,0.009765625,-0.04736328,3.90625,-4.638672,0.8544922,0.0,0.0,0.0,174.14978,88.12134,-154.67102
1768998738142,-1.0166016,-0.014160156,-0.018066406,0.7324219,0.91552734,1.4648438,0.0,0.0,0.0,174.14978,88.12134,-154.67102
1768998738154,-1.0166016,-0.014160156,-0.018066406,0.7324219,0.91552734,1.4648438,0.0,0.0,0.0,172.65564,88.18176,-156.55518
1768998738242,-1.0126953,-9.765625E-4,-0.046875,-3.112793,0.24414062,-4.699707,0.0,0.0,0.0,172.65564,88.18176,-156.55518
1768998738253,-1.0126953,-9.765625E-4,-0.046875,-3.112793,0.24414062,-4.699707,0.0,0.0,0.0,175.20996,88.011475,-153.75366
1768998738342,-0.9794922,0.045410156,-0.0390625,-3.479004,0.5493164,-1.3427734,0.0,0.0,0.0,175.20996,88.011475,-153.75366
1768998738353,-0.9794922,0.045410156,-0.0390625,-3.479004,0.5493164,-1.3427734,0.0,0.0,0.0,-173.26538,87.994995,-141.9928
1768998738441,-0.9980469,0.011230469,-0.020507812,2.8076172,-1.159668,-4.0283203,0.0,0.0,0.0,-173.26538,87.994995,-141.9928
1768998738453,-0.9980469,0.011230469,-0.020507812,2.8076172,-1.159668,-4.0283203,0.0,0.0,0.0,-167.7063,87.94556,-136.63696
1768998738541,-1.0366211,-0.030761719,-0.053710938,12.756348,-4.638672,-6.8359375,0.0,0.0,0.0,-167.7063,87.94556,-136.63696
1768998738552,-1.0366211,-0.030761719,-0.053710938,12.756348,-4.638672,-6.8359375,0.0,0.0,0.0,-151.30371,88.17078,-120.981445
1768998738641,-0.98535156,0.0,-0.024414062,-3.112793,-1.4038086,1.5258789,0.0,0.0,0.0,-151.30371,88.17078,-120.981445
1768998738652,-0.98535156,0.0,-0.024414062,-3.112793,-1.4038086,1.5258789,0.0,0.0,0.0,-144.73389,88.21472,-114.279785
1768998738740,-0.97216797,-0.028320312,-0.022949219,1.0375977,-5.126953,2.6245117,0.0,0.0,0.0,-144.73389,88.21472,-114.279785
1768998738752,-0.97216797,-0.028320312,-0.022949219,1.0375977,-5.126953,2.6245117,0.0,0.0,0.0,-139.54285,88.50037,-109.08325
1768998738840,-1.0219727,-0.016601562,-0.024414062,-2.4414062,-4.0283203,7.6904297,0.0,0.0,0.0,-139.54285,88.50037,-109.08325
1768998738852,-1.0219727,-0.016601562,-0.024414062,-2.4414062,-4.0283203,7.6904297,0.0,0.0,0.0,-165.39917,89.04419,-134.58252
1768998738940,-1.015625,0.0087890625,-0.013671875,1.2817383,-7.6904297,5.1879883,0.0,0.0,0.0,-165.39917,89.04419,-134.58252
1768998738951,-1.015625,0.0087890625,-0.013671875,1.2817383,-7.6904297,5.1879883,0.0,0.0,0.0,107.62207,89.384766,138.52112
1768998739040,-0.99121094,0.045898438,-0.0048828125,-6.164551,-8.972168,6.4697266,0.0,0.0,0.0,107.62207,89.384766,138.52112
1768998739051,-0.99121094,0.045898438,-0.0048828125,-6.164551,-8.972168,6.4697266,0.0,0.0,0.0,61.012573,88.73108,92.142334
1768998739139,-1.0244141,0.027832031,0.07324219,-12.084961,-0.91552734,0.12207031,0.0,0.0,0.0,61.012573,88.73108,92.142334
1768998739151,-1.0244141,0.027832031,0.07324219,-12.084961,-0.91552734,0.12207031,0.0,0.0,0.0,56.810303,88.24768,88.7146
1768998739239,-1.0380859,0.021484375,0.07324219,-13.305664,4.760742,-3.9672852,0.0,0.0,0.0,56.810303,88.24768,88.7146
1768998739250,-1.0380859,0.021484375,0.07324219,-13.305664,4.760742,-3.9672852,0.0,0.0,0.0,56.392822,88.24768,89.6814
1768998739339,-1.0268555,0.046875,-0.02734375,-18.188477,0.48828125,-8.117676,0.0,0.0,0.0,56.392822,88.24768,89.6814
1768998739350,-1.0268555,0.046875,-0.02734375,-18.188477,0.48828125,-8.117676,0.0,0.0,0.0,26.444092,88.566284,61.688232
1768998739438,-0.95410156,-0.011230469,0.0029296875,-26.367188,-2.1972656,-12.084961,0.0,0.0,0.0,26.444092,88.566284,61.688232
1768998739450,-0.95410156,-0.011230469,0.0029296875,-26.367188,-2.1972656,-12.084961,0.0,0.0,0.0,-13.639526,88.19275,23.373413
1768998739538,-0.9638672,0.020507812,-0.018554688,-17.39502,0.61035156,0.12207031,0.0,0.0,0.0,-13.639526,88.19275,23.373413
1768998739550,-0.9638672,0.020507812,-0.018554688,-17.39502,0.61035156,0.12207031,0.0,0.0,0.0,-35.71106,88.33008,2.5048828
1768998739638,-0.98339844,-0.005859375,-0.0034179688,-1.2817383,4.4555664,-2.9296875,0.0,0.0,0.0,-35.71106,88.33008,2.5048828
1768998739650,-0.98339844,-0.005859375,-0.0034179688,-1.2817383,4.4555664,-2.9296875,0.0,0.0,0.0,-51.591797,88.566284,-13.721924
1768998739738,-0.97558594,-0.01953125,-9.765625E-4,4.0283203,7.6293945,-2.5024414,0.0,0.0,0.0,-51.591797,88.566284,-13.721924
1768998739749,-0.97558594,-0.01953125,-9.765625E-4,4.0283203,7.6293945,-2.5024414,0.0,0.0,0.0,-83.897095,88.637695,-46.99951
1768998739837,-1.0112305,-0.03125,-0.0034179688,-1.7089844,8.483887,-3.2348633,0.0,0.0,0.0,-83.897095,88.637695,-46.99951
1768998739849,-1.0112305,-0.03125,-0.0034179688,-1.7089844,8.483887,-3.2348633,0.0,0.0,0.0,-106.49597,88.43445,-70.14221
1768998739937,-0.98339844,-0.0063476562,-0.029296875,2.380371,-0.79345703,-1.159668,0.0,0.0,0.0,-106.49597,88.43445,-70.14221
1768998739948,-0.98339844,-0.0063476562,-0.029296875,2.380371,-0.79345703,-1.159668,0.0,0.0,0.0,-114.472046,88.21472,-78.513794
1768998740037,-0.9433594,0.029296875,-0.03173828,17.27295,-7.5683594,6.652832,0.0,0.0,0.0,-114.472046,88.21472,-78.513794
1768998740048,-0.9433594,0.029296875,-0.03173828,17.27295,-7.5683594,6.652832,0.0,0.0,0.0,-100.1239,88.4729,-65.582886
1768998740136,-0.9863281,0.01171875,0.0029296875,28.869629,-14.221191,12.512207,0.0,0.0,0.0,-100.1239,88.4729,-65.582886
1768998740148,-0.9863281,0.01171875,0.0029296875,28.869629,-14.221191,12.512207,0.0,0.0,0.0,13.265991,88.90137,44.86267
1768998740236,-0.99853516,0.030761719,-0.0063476562,41.137695,-8.300781,11.779785,0.0,0.0,0.0,13.265991,88.90137,44.86267
1768998740248,-0.99853516,0.030761719,-0.0063476562,41.137695,-8.300781,11.779785,0.0,0.0,0.0,32.0636,87.28638,59.798584
1768998740336,-1.0913086,0.010253906,0.11035156,24.841309,-8.361816,3.540039,0.0,0.0,0.0,32.0636,87.28638,59.798584
1768998740347,-1.0913086,0.010253906,0.11035156,24.841309,-8.361816,3.540039,0.0,0.0,0.0,42.25891,85.69885,66.901245
1768998740436,-0.9921875,0.05419922,0.06201172,7.2021484,-6.4697266,-2.1972656,0.0,0.0,0.0,42.25891,85.69885,66.901245
1768998740447,-0.9921875,0.05419922,0.06201172,7.2021484,-6.4697266,-2.1972656,0.0,0.0,0.0,31.195679,85.08911,55.1239
1768998740535,-0.984375,0.056640625,0.078125,4.699707,-8.422852,3.2348633,0.0,0.0,0.0,31.195679,85.08911,55.1239
1768998740547,-0.984375,0.056640625,0.078125,4.699707,-8.422852,3.2348633,0.0,0.0,0.0,28.817139,84.46838,52.53662
1768998740635,-1.0126953,0.04345703,0.12646484,6.1035156,-5.3710938,3.7231445,0.0,0.0,0.0,28.817139,84.46838,52.53662
1768998740647,-1.0126953,0.04345703,0.12646484,6.1035156,-5.3710938,3.7231445,0.0,0.0,0.0,30.064087,84.00696,53.272705
1768998740735,-1.0004883,0.044921875,0.106933594,-1.159668,-0.6713867,3.0517578,0.0,0.0,0.0,30.064087,84.00696,53.272705
1768998740747,-1.0004883,0.044921875,0.106933594,-1.159668,-0.6713867,3.0517578,0.0,0.0,0.0,31.35498,83.54004,54.75586
1768998740834,-0.9848633,0.0859375,0.123535156,-6.1035156,-2.6245117,1.4648438,0.0,0.0,0.0,31.35498,83.54004,54.75586
1768998740847,-0.9848633,0.0859375,0.123535156,-6.1035156,-2.6245117,1.4648438,0.0,0.0,0.0,32.145996,83.33679,56.50818
1768998740934,-1.0180664,0.13964844,0.06591797,-11.108398,-19.348145,7.8125,0.0,0.0,0.0,32.145996,83.33679,56.50818
1768998740946,-1.0180664,0.13964844,0.06591797,-11.108398,-19.348145,7.8125,0.0,0.0,0.0,30.377197,82.402954,55.513916
1768998741034,-0.9838867,0.06982422,0.12841797,7.2021484,7.1411133,0.0,0.0,0.0,0.0,30.377197,82.402954,55.513916
1768998741045,-0.9838867,0.06982422,0.12841797,7.2021484,7.1411133,0.0,0.0,0.0,0.0,32.83264,82.13928,57.83203
1768998741133,-0.9711914,0.05908203,0.125,-2.380371,4.0893555,-0.9765625,0.0,0.0,0.0,32.83264,82.13928,57.83203
1768998741145,-0.9711914,0.05908203,0.125,-2.380371,4.0893555,-0.9765625,0.0,0.0,0.0,34.13452,82.457886,59.578857
1768998741233,-1.0,0.08984375,0.07128906,1.2817383,4.1503906,-0.48828125,0.0,0.0,0.0,34.13452,82.457886,59.578857
1768998741245,-1.0,0.08984375,0.07128906,1.2817383,4.1503906,-0.48828125,0.0,0.0,0.0,34.370728,82.67761,60.391846
1768998741333,-0.9897461,0.091308594,0.07861328,5.004883,0.30517578,-1.8310547,0.0,0.0,0.0,34.370728,82.67761,60.391846
1768998741344,-0.9897461,0.091308594,0.07861328,5.004883,0.30517578,-1.8310547,0.0,0.0,0.0,35.837402,83.04016,61.44104
1768998741433,-0.9760742,0.083496094,0.103515625,4.333496,-4.1503906,0.0,0.0,0.0,0.0,35.837402,83.04016,61.44104
1768998741444,-0.9760742,0.083496094,0.103515625,4.333496,-4.1503906,0.0,0.0,0.0,0.0,35.57373,82.89734,61.018066
1768998741532,-1.003418,0.0703125,0.08935547,1.8920898,-3.7231445,0.5493164,0.0,0.0,0.0,35.57373,82.89734,61.018066
1768998741544,-1.003418,0.0703125,0.08935547,1.8920898,-3.7231445,0.5493164,0.0,0.0,0.0,34.194946,82.3645,59.864502
1768998741632,-0.98828125,0.071777344,0.11816406,1.159668,-1.0986328,0.91552734,0.0,0.0,0.0,34.194946,82.3645,59.864502
1768998741644,-0.98828125,0.071777344,0.11816406,1.159668,-1.0986328,0.91552734,0.0,0.0,0.0,33.046875,81.89758,58.897705
1768998741732,-0.97558594,0.08105469,0.119140625,0.6713867,-3.9672852,0.7324219,0.0,0.0,0.0,33.046875,81.89758,58.897705
1768998741743,-0.97558594,0.08105469,0.119140625,0.6713867,-3.9672852,0.7324219,0.0,0.0,0.0,32.947998,81.65588,58.8208
1768998741832,-0.9975586,0.088378906,0.122558594,-4.0893555,-5.2490234,1.5869141,0.0,0.0,0.0,32.947998,81.65588,58.8208
1768998741843,-0.9975586,0.088378906,0.122558594,-4.0893555,-5.2490234,1.5869141,0.0,0.0,0.0,31.838379,81.0791,57.9364
1768998741931,-1.0053711,0.08886719,0.13183594,-2.8686523,-0.9765625,0.4272461,0.0,0.0,0.0,31.838379,81.0791,57.9364
1768998741944,-1.0053711,0.08886719,0.13183594,-2.8686523,-0.9765625,0.4272461,0.0,0.0,0.0,32.025146,80.96924,58.408813
1768998742031,-0.97021484,0.08544922,0.14941406,-0.8544922,2.9296875,1.4648438,0.0,0.0,0.0,32.025146,80.96924,58.408813
1768998742042,-0.97021484,0.08544922,0.14941406,-0.8544922,2.9296875,1.4648438,0.0,0.0,0.0,32.717285,80.859375,59.562378
1768998742131,-0.9746094,0.08642578,0.13671875,1.8310547,0.4272461,0.5493164,0.0,0.0,0.0,32.717285,80.859375,59.562378
1768998742142,-0.9746094,0.08642578,0.13671875,1.8310547,0.4272461,0.5493164,0.0,0.0,0.0,34.244385,81.084595,61.254272
1768998742230,-0.9951172,0.11425781,0.09716797,2.6245117,5.554199,-1.159668,0.0,0.0,0.0,34.244385,81.084595,61.254272
1768998742242,-0.9951172,0.11425781,0.09716797,2.6245117,5.554199,-1.159668,0.0,0.0,0.0,35.00244,81.1615,62.160645
1768998742330,-1.0078125,0.11816406,0.10839844,5.065918,-3.540039,-0.061035156,0.0,0.0,0.0,35.00244,81.1615,62.160645
1768998742342,-1.0078125,0.11816406,0.10839844,5.065918,-3.540039,-0.061035156,0.0,0.0,0.0,35.771484,81.35376,62.495728
1768998742430,-1.0302734,0.123046875,0.09033203,8.911133,-4.5166016,0.4272461,0.0,0.0,0.0,35.771484,81.35376,62.495728
1768998742441,-1.0302734,0.123046875,0.09033203,8.911133,-4.5166016,0.4272461,0.0,0.0,0.0,36.958008,81.12854,62.600098
1768998742529,-0.9667969,0.083984375,0.13867188,16.113281,5.6152344,1.0986328,0.0,0.0,0.0,36.958008,81.12854,62.600098
1768998742541,-0.9667969,0.083984375,0.13867188,16.113281,5.6152344,1.0986328,0.0,0.0,0.0,40.841675,81.1615,65.35217
1768998742629,-0.9868164,0.072265625,0.119628906,6.591797,-5.554199,2.0751953,0.0,0.0,0.0,40.841675,81.1615,65.35217
1768998742641,-0.9868164,0.072265625,0.119628906,6.591797,-5.554199,2.0751953,0.0,0.0,0.0,39.51233,80.98572,63.89099
1768998742729,-0.98779297,0.110839844,0.13476562,5.065918,-7.385254,-4.0283203,0.0,0.0,0.0,39.51233,80.98572,63.89099
1768998742740,-0.98779297,0.110839844,0.13476562,5.065918,-7.385254,-4.0283203,0.0,0.0,0.0,36.524048,80.6781,60.754395
1768998742829,-1.0009766,0.106933594,0.119628906,-2.8076172,2.2583008,-6.3476562,0.0,0.0,0.0,36.524048,80.6781,60.754395
1768998742841,-1.0009766,0.106933594,0.119628906,-2.8076172,2.2583008,-6.3476562,0.0,0.0,0.0,34.326782,80.92529,58.69995
1768998742928,-1.0078125,0.06591797,0.14550781,-8.056641,0.24414062,4.760742,0.0,0.0,0.0,34.326782,80.92529,58.69995
1768998742940,-1.0078125,0.06591797,0.14550781,-8.056641,0.24414062,4.760742,0.0,0.0,0.0,36.29883,81.172485,61.539917
1768998743028,-0.9926758,0.079589844,0.12109375,1.5869141,-1.2207031,-1.953125,0.0,0.0,0.0,36.29883,81.172485,61.539917
1768998743039,-0.9926758,0.079589844,0.12109375,1.5869141,-1.2207031,-1.953125,0.0,0.0,0.0,37.17224,81.11206,63.36914
1768998743128,-0.97509766,0.11425781,0.12402344,3.0517578,0.7324219,0.6713867,0.0,0.0,0.0,37.17224,81.11206,63.36914
1768998743139,-0.97509766,0.11425781,0.12402344,3.0517578,0.7324219,0.6713867,0.0,0.0,0.0,37.166748,80.90881,63.495483
1768998743228,-0.98828125,0.095214844,0.13085938,-0.12207031,4.638672,-0.7324219,0.0,0.0,0.0,37.166748,80.90881,63.495483
1768998743240,-0.98828125,0.095214844,0.13085938,-0.12207031,4.638672,-0.7324219,0.0,0.0,0.0,37.545776,81.19446,64.176636
1768998743327,-0.9863281,0.11279297,0.1015625,-3.2348633,2.9296875,-2.746582,0.0,0.0,0.0,37.545776,81.19446,64.176636
1768998743338,-0.9863281,0.11279297,0.1015625,-3.2348633,2.9296875,-2.746582,0.0,0.0,0.0,38.062134,81.535034,65.2478
1768998743427,-0.9692383,0.11035156,0.10253906,1.5869141,3.2348633,-0.79345703,0.0,0.0,0.0,38.062134,81.535034,65.2478
1768998743438,-0.9692383,0.11035156,0.10253906,1.5869141,3.2348633,-0.79345703,0.0,0.0,0.0,38.430176,81.94702,65.912476
1768998743527,-0.99902344,0.053710938,0.10595703,-9.94873,1.6479492,1.4038086,0.0,0.0,0.0,38.430176,81.94702,65.912476
1768998743538,-0.99902344,0.053710938,0.10595703,-9.94873,1.6479492,1.4038086,0.0,0.0,0.0,40.039673,81.92505,68.12622
1768998743626,-0.98876953,0.1015625,0.10205078,-0.8544922,0.12207031,-1.8310547,0.0,0.0,0.0,40.039673,81.92505,68.12622
1768998743638,-0.98876953,0.1015625,0.10205078,-0.8544922,0.12207031,-1.8310547,0.0,0.0,0.0,40.078125,82.08435,68.76343
1768998743726,-0.984375,0.1015625,0.099121094,-0.9765625,2.6245117,-0.79345703,0.0,0.0,0.0,40.078125,82.08435,68.76343
1768998743737,-0.984375,0.1015625,0.099121094,-0.9765625,2.6245117,-0.79345703,0.0,0.0,0.0,40.446167,82.32056,69.367676
1768998743825,-0.9716797,0.09814453,0.09765625,-0.48828125,0.8544922,-0.061035156,0.0,0.0,0.0,40.446167,82.32056,69.367676
1768998743837,-0.9716797,0.09814453,0.09765625,-0.48828125,0.8544922,-0.061035156,0.0,0.0,0.0,41.462402,82.40845,70.7135
1768998743925,-0.99902344,0.09326172,0.087402344,2.8076172,0.9765625,-0.5493164,0.0,0.0,0.0,41.462402,82.40845,70.7135
1768998743937,-0.99902344,0.09326172,0.087402344,2.8076172,0.9765625,-0.5493164,0.0,0.0,0.0,41.764526,82.41943,71.23535
1768998744025,-0.99853516,0.08886719,0.09033203,0.061035156,0.5493164,-0.48828125,0.0,0.0,0.0,41.764526,82.41943,71.23535
1768998744036,-0.99853516,0.08886719,0.09033203,0.061035156,0.5493164,-0.48828125,0.0,0.0,0.0,41.555786,82.38098,71.21887
1768998744125,-0.98779297,0.09375,0.09814453,1.2817383,-1.4038086,-0.18310547,0.0,0.0,0.0,41.555786,82.38098,71.21887
1768998744137,-0.98779297,0.09375,0.09814453,1.2817383,-1.4038086,-0.18310547,0.0,0.0,0.0,41.37451,82.32056,71.087036
1768998744224,-0.99658203,0.09033203,0.099121094,-0.36621094,-1.3427734,0.061035156,0.0,0.0,0.0,41.37451,82.32056,71.087036
1768998744236,-0.99658203,0.09033203,0.099121094,-0.36621094,-1.3427734,0.061035156,0.0,0.0,0.0,40.742798,82.18872,70.548706
1768998744324,-0.99902344,0.088378906,0.09033203,-1.0986328,-1.3427734,0.0,0.0,0.0,0.0,40.742798,82.18872,70.548706
1768998744336,-0.99902344,0.088378906,0.09033203,-1.0986328,-1.3427734,0.0,0.0,0.0,0.0,40.045166,82.06787,70.010376
1768998744424,-0.98583984,0.08886719,0.09716797,0.4272461,0.30517578,-0.91552734,0.0,0.0,0.0,40.045166,82.06787,70.010376
1768998744435,-0.98583984,0.08886719,0.09716797,0.4272461,0.30517578,-0.91552734,0.0,0.0,0.0,39.924316,82.08984,69.86206
1768998744523,-1.0078125,0.096191406,0.103515625,-0.91552734,-2.319336,0.48828125,0.0,0.0,0.0,39.924316,82.08984,69.86206
1768998744535,-1.0078125,0.096191406,0.103515625,-0.91552734,-2.319336,0.48828125,0.0,0.0,0.0,39.605713,82.07886,69.46655
1768998744623,-0.9863281,0.096191406,0.10107422,0.30517578,-0.61035156,-0.24414062,0.0,0.0,0.0,39.605713,82.07886,69.46655
1768998744635,-0.9863281,0.096191406,0.10107422,0.30517578,-0.61035156,-0.24414062,0.0,0.0,0.0,39.314575,81.95801,69.19739
1768998744723,-0.98583984,0.08886719,0.09863281,0.7324219,0.0,-0.7324219,0.0,0.0,0.0,39.314575,81.95801,69.19739
1768998744735,-0.98583984,0.08886719,0.09863281,0.7324219,0.0,-0.7324219,0.0,0.0,0.0,39.056396,81.919556,68.81287
1768998744823,-0.99072266,0.095214844,0.10253906,1.3427734,0.9765625,-0.36621094,0.0,0.0,0.0,39.056396,81.919556,68.81287
1768998744834,-0.99072266,0.095214844,0.10253906,1.3427734,0.9765625,-0.36621094,0.0,0.0,0.0,39.259644,81.936035,68.87329
1768998744922,-1.0019531,0.087402344,0.09765625,-2.9907227,-1.6479492,0.30517578,0.0,0.0,0.0,39.259644,81.936035,68.87329
1768998744934,-1.0019531,0.087402344,0.09765625,-2.9907227,-1.6479492,0.30517578,0.0,0.0,0.0,38.95752,81.8811,68.64258
1768998745022,-0.9892578,0.092285156,0.09814453,-0.48828125,-0.61035156,0.18310547,0.0,0.0,0.0,38.95752,81.8811,68.64258
1768998745033,-0.9892578,0.092285156,0.09814453,-0.48828125,-0.61035156,0.18310547,0.0,0.0,0.0,38.754272,81.798706,68.499756
1768998745122,-0.98583984,0.09326172,0.10595703,0.36621094,-0.36621094,-0.36621094,0.0,0.0,0.0,38.754272,81.798706,68.499756
1768998745133,-0.98583984,0.09326172,0.10595703,0.36621094,-0.36621094,-0.36621094,0.0,0.0,0.0,38.4906,81.73279,68.19214
1768998745221,-0.9868164,0.091308594,0.103515625,0.79345703,-0.061035156,-0.30517578,0.0,0.0,0.0,38.4906,81.73279,68.19214
1768998745233,-0.9868164,0.091308594,0.103515625,0.79345703,-0.061035156,-0.30517578,0.0,0.0,0.0,38.468628,81.7218,68.04932
1768998745321,-0.9892578,0.09082031,0.100097656,1.2207031,0.8544922,-0.9765625,0.0,0.0,0.0,38.468628,81.7218,68.04932
1768998745333,-0.9892578,0.09082031,0.100097656,1.2207031,0.8544922,-0.9765625,0.0,0.0,0.0,38.814697,81.79321,68.23059
1768998745421,-0.99658203,0.092285156,0.11279297,1.3427734,-0.48828125,-0.8544922,0.0,0.0,0.0,38.814697,81.79321,68.23059
1768998745433,-0.99658203,0.092285156,0.11279297,1.3427734,-0.48828125,-0.8544922,0.0,0.0,0.0,38.809204,81.8866,68.05481
1768998745521,-0.98876953,0.09326172,0.111328125,-0.48828125,-2.2583008,0.0,0.0,0.0,0.0,38.809204,81.8866,68.05481
1768998745532,-0.98876953,0.09326172,0.111328125,-0.48828125,-2.2583008,0.0,0.0,0.0,0.0,38.07312,81.70532,67.43408
1768998745620,-0.99365234,0.09033203,0.110839844,0.48828125,-0.30517578,-0.18310547,0.0,0.0,0.0,38.07312,81.70532,67.43408
1768998745632,-0.99365234,0.09033203,0.110839844,0.48828125,-0.30517578,-0.18310547,0.0,0.0,0.0,37.55127,81.57898,66.91223
1768998745720,-0.98583984,0.099121094,0.115234375,1.159668,0.4272461,-0.91552734,0.0,0.0,0.0,37.55127,81.57898,66.91223
1768998745731,-0.98583984,0.099121094,0.115234375,1.159668,0.4272461,-0.91552734,0.0,0.0,0.0,37.578735,81.57898,66.92322
1768998745820,-0.9941406,0.092285156,0.107421875,-1.0986328,0.12207031,0.061035156,0.0,0.0,0.0,37.578735,81.57898,66.92322
1768998745831,-0.9941406,0.092285156,0.107421875,-1.0986328,0.12207031,0.061035156,0.0,0.0,0.0,37.55127,81.5625,66.868286
1768998745919,-0.99316406,0.09082031,0.11279297,0.8544922,0.36621094,-0.48828125,0.0,0.0,0.0,37.55127,81.5625,66.868286
1768998745931,-0.99316406,0.09082031,0.11279297,0.8544922,0.36621094,-0.48828125,0.0,0.0,0.0,37.62268,81.589966,66.91223
1768998746019,-0.9897461,0.09667969,0.10986328,1.159668,1.8310547,-1.5258789,0.0,0.0,0.0,37.62268,81.589966,66.91223
1768998746030,-0.9897461,0.09667969,0.10986328,1.159668,1.8310547,-1.5258789,0.0,0.0,0.0,37.930298,81.69983,67.13745
1768998746119,-0.9980469,0.09765625,0.12939453,-2.0751953,1.6479492,-0.5493164,0.0,0.0,0.0,37.930298,81.69983,67.13745
1768998746130,-0.9980469,0.09765625,0.12939453,-2.0751953,1.6479492,-0.5493164,0.0,0.0,0.0,38.12805,81.82068,67.302246
1768998746219,-0.9790039,0.100097656,0.11425781,-0.4272461,-0.4272461,-1.0375977,0.0,0.0,0.0,38.12805,81.82068,67.302246
1768998746230,-0.9790039,0.100097656,0.11425781,-0.4272461,-0.4272461,-1.0375977,0.0,0.0,0.0,37.957764,81.968994,67.368164
1768998746318,-0.9970703,0.08984375,0.104003906,-0.18310547,0.0,0.36621094,0.0,0.0,0.0,37.957764,81.968994,67.368164
1768998746330,-0.9970703,0.08984375,0.104003906,-0.18310547,0.0,0.36621094,0.0,0.0,0.0,37.979736,81.94702,67.43408
1768998746418,-0.9921875,0.09326172,0.107910156,1.0375977,0.36621094,-0.6713867,0.0,0.0,0.0,37.979736,81.94702,67.43408
1768998746429,-0.9921875,0.09326172,0.107910156,1.0375977,0.36621094,-0.6713867,0.0,0.0,0.0,38.034668,81.94153,67.439575
1768998746517,-0.9873047,0.091308594,0.103027344,0.36621094,-1.159668,-0.061035156,0.0,0.0,0.0,38.034668,81.94153,67.439575
1768998746529,-0.9873047,0.091308594,0.103027344,0.36621094,-1.159668,-0.061035156,0.0,0.0,0.0,38.062134,81.919556,67.41211
1768998746617,-0.98828125,0.087402344,0.100097656,0.91552734,-0.9765625,-0.36621094,0.0,0.0,0.0,38.062134,81.919556,67.41211
1768998746629,-0.98828125,0.087402344,0.100097656,0.91552734,-0.9765625,-0.36621094,0.0,0.0,0.0,37.74353,81.87561,66.94519
1768998746717,-0.9951172,0.084472656,0.10644531,0.36621094,0.0,-0.5493164,0.0,0.0,0.0,37.74353,81.87561,66.94519
1768998746729,-0.9951172,0.084472656,0.10644531,0.36621094,0.0,-0.5493164,0.0,0.0,0.0,37.80945,81.8866,66.901245
1768998746817,-0.9921875,0.091308594,0.106933594,0.91552734,0.0,-0.48828125,0.0,0.0,0.0,37.80945,81.8866,66.901245
1768998746828,-0.9921875,0.091308594,0.106933594,0.91552734,0.0,-0.48828125,0.0,0.0,0.0,37.633667,81.864624,66.698
1768998746916,-1.0004883,0.08935547,0.115722656,1.2207031,2.5024414,-1.4038086,0.0,0.0,0.0,37.633667,81.864624,66.698
1768998746928,-1.0004883,0.08935547,0.115722656,1.2207031,2.5024414,-1.4038086,0.0,0.0,0.0,37.81494,81.936035,66.80237
1768998747016,-0.99902344,0.08300781,0.09472656,-0.12207031,0.6713867,-0.36621094,0.0,0.0,0.0,37.81494,81.936035,66.80237
1768998747028,-0.99902344,0.08300781,0.09472656,-0.12207031,0.6713867,-0.36621094,0.0,0.0,0.0,38.237915,82.1228,67.109985
1768998747116,-0.9970703,0.084472656,0.091796875,0.48828125,2.6245117,-1.7089844,0.0,0.0,0.0,38.237915,82.1228,67.109985
1768998747128,-0.9970703,0.084472656,0.091796875,0.48828125,2.6245117,-1.7089844,0.0,0.0,0.0,38.496094,82.30957,67.40112
1768998747215,-0.9970703,0.083984375,0.09423828,-1.7700195,0.7324219,-0.6713867,0.0,0.0,0.0,38.496094,82.30957,67.40112
1768998747227,-0.9970703,0.083984375,0.09423828,-1.7700195,0.7324219,-0.6713867,0.0,0.0,0.0,38.858643,82.48535,67.91199
1768998747315,-0.98828125,0.08642578,0.099121094,-0.36621094,0.48828125,-0.7324219,0.0,0.0,0.0,38.858643,82.48535,67.91199
1768998747327,-0.98828125,0.08642578,0.099121094,-0.36621094,0.48828125,-0.7324219,0.0,0.0,0.0,38.754272,82.55127,67.9834
1768998747415,-0.98583984,0.084472656,0.09863281,-0.79345703,0.30517578,-0.061035156,0.0,0.0,0.0,38.754272,82.55127,67.9834
1768998747427,-0.98583984,0.084472656,0.09863281,-0.79345703,0.30517578,-0.061035156,0.0,0.0,0.0,38.759766,82.595215,68.03284
1768998747515,-0.98535156,0.09033203,0.1015625,-0.18310547,0.18310547,0.4272461,0.0,0.0,0.0,38.759766,82.595215,68.03284
1768998747527,-0.98535156,0.09033203,0.1015625,-0.18310547,0.18310547,0.4272461,0.0,0.0,0.0,38.62793,82.562256,68.03284
1768998747614,-0.9975586,0.087890625,0.092285156,-2.5024414,-2.9907227,0.4272461,0.0,0.0,0.0,38.62793,82.562256,68.03284
1768998747626,-0.9975586,0.087890625,0.092285156,-2.5024414,-2.9907227,0.4272461,0.0,0.0,0.0,38.007202,82.353516,67.5824
1768998747714,-0.9892578,0.08544922,0.109375,0.24414062,-0.30517578,-0.36621094,0.0,0.0,0.0,38.007202,82.353516,67.5824
1768998747725,-0.9892578,0.08544922,0.109375,0.24414062,-0.30517578,-0.36621094,0.0,0.0,0.0,37.72705,82.30957,67.27478
1768998747814,-0.98828125,0.08935547,0.099609375,2.0141602,0.24414062,0.0,0.0,0.0,0.0,37.72705,82.30957,67.27478
1768998747825,-0.98828125,0.08935547,0.099609375,2.0141602,0.24414062,0.0,0.0,0.0,0.0,37.677612,82.232666,67.230835
1768998747913,-0.99072266,0.08251953,0.095703125,0.0,-0.48828125,0.0,0.0,0.0,0.0,37.677612,82.232666,67.230835
1768998747925,-0.99072266,0.08251953,0.095703125,0.0,-0.48828125,0.0,0.0,0.0,0.0,37.869873,82.232666,67.32422
1768998748013,-0.99609375,0.087890625,0.09472656,0.0,-0.30517578,-0.5493164,0.0,0.0,0.0,37.869873,82.232666,67.32422
1768998748025,-0.99609375,0.087890625,0.09472656,0.0,-0.30517578,-0.5493164,0.0,0.0,0.0,37.683105,82.21619,67.04956
1768998748113,-0.9916992,0.083496094,0.10449219,-0.8544922,0.18310547,-0.12207031,0.0,0.0,0.0,37.683105,82.21619,67.04956
1768998748124,-0.9916992,0.083496094,0.10449219,-0.8544922,0.18310547,-0.12207031,0.0,0.0,0.0,37.70508,82.232666,67.099
1768998748212,-0.99902344,0.08203125,0.099121094,-0.91552734,-0.8544922,0.0,0.0,0.0,0.0,37.70508,82.232666,67.099
1768998748224,-0.99902344,0.08203125,0.099121094,-0.91552734,-0.8544922,0.0,0.0,0.0,0.0,37.47986,82.161255,66.98364
1768998748312,-0.9926758,0.08935547,0.09033203,-0.91552734,0.12207031,-0.061035156,0.0,0.0,0.0,37.47986,82.161255,66.98364
1768998748324,-0.9926758,0.08935547,0.09033203,-0.91552734,0.12207031,-0.061035156,0.0,0.0,0.0,37.51831,82.11182,67.06604
1768998748412,-0.9941406,0.087402344,0.09863281,-1.0986328,-0.8544922,0.0,0.0,0.0,0.0,37.51831,82.11182,67.06604
1768998748424,-0.9941406,0.087402344,0.09863281,-1.0986328,-0.8544922,0.0,0.0,0.0,0.0,37.468872,82.144775,66.95618
1768998748512,-0.9995117,0.087402344,0.10058594,0.061035156,-0.79345703,-0.061035156,0.0,0.0,0.0,37.468872,82.144775,66.95618
1768998748524,-0.9995117,0.087402344,0.10058594,0.061035156,-0.79345703,-0.061035156,0.0,0.0,0.0,37.452393,82.144775,66.85181
1768998748611,-0.9819336,0.09033203,0.11376953,0.9765625,-0.12207031,-0.061035156,0.0,0.0,0.0,37.452393,82.144775,66.85181
1768998748623,-0.9819336,0.09033203,0.11376953,0.9765625,-0.12207031,-0.061035156,0.0,0.0,0.0,37.37549,82.07886,66.82434
1768998748711,-0.98876953,0.088378906,0.09716797,0.6713867,0.0,-0.7324219,0.0,0.0,0.0,37.37549,82.07886,66.82434
1768998748723,-0.98876953,0.088378906,0.09716797,0.6713867,0.0,-0.7324219,0.0,0.0,0.0,37.62268,82.08435,66.99463
1768998748811,-1.0009766,0.08251953,0.09716797,-2.0141602,-0.30517578,0.36621094,0.0,0.0,0.0,37.62268,82.08435,66.99463
1768998748822,-1.0009766,0.08251953,0.09716797,-2.0141602,-0.30517578,0.36621094,0.0,0.0,0.0,37.721558,82.1228,66.96167
1768998748910,-0.9838867,0.09033203,0.09765625,-0.48828125,-0.12207031,-0.30517578,0.0,0.0,0.0,37.721558,82.1228,66.96167
1768998748922,-0.9838867,0.09033203,0.09765625,-0.48828125,-0.12207031,-0.30517578,0.0,0.0,0.0,37.787476,82.1228,67.142944
1768998749010,-1.0009766,0.083984375,0.1015625,0.4272461,0.18310547,-0.6713867,0.0,0.0,0.0,37.787476,82.1228,67.142944
1768998749022,-1.0009766,0.083984375,0.1015625,0.4272461,0.18310547,-0.6713867,0.0,0.0,0.0,37.628174,82.128296,66.884766
1768998749110,-0.9995117,0.08251953,0.09716797,-0.36621094,0.0,-0.061035156,0.0,0.0,0.0,37.628174,82.128296,66.884766
1768998749121,-0.9995117,0.08251953,0.09716797,-0.36621094,0.0,-0.061035156,0.0,0.0,0.0,37.677612,82.19971,66.89026
1768998749209,-0.98535156,0.08544922,0.10253906,1.0375977,-0.24414062,-0.61035156,0.0,0.0,0.0,37.677612,82.19971,66.89026
1768998749221,-0.98535156,0.08544922,0.10253906,1.0375977,-0.24414062,-0.61035156,0.0,0.0,0.0,37.924805,82.249146,67.099
1768998749309,-0.99072266,0.08691406,0.10107422,0.36621094,-0.24414062,-0.12207031,0.0,0.0,0.0,37.924805,82.249146,67.099
1768998749321,-0.99072266,0.08691406,0.10107422,0.36621094,-0.24414062,-0.12207031,0.0,0.0,0.0,38.00171,82.23816,67.197876
1768998749409,-0.99560547,0.083984375,0.09667969,-0.24414062,-0.79345703,0.061035156,0.0,0.0,0.0,38.00171,82.23816,67.197876
1768998749420,-0.99560547,0.083984375,0.09667969,-0.24414062,-0.79345703,0.061035156,0.0,0.0,0.0,37.89734,82.177734,67.109985
1768998749509,-0.9921875,0.091796875,0.10546875,-0.18310547,-0.61035156,0.0,0.0,0.0,0.0,37.89734,82.177734,67.109985
1768998749520,-0.9921875,0.091796875,0.10546875,-0.18310547,-0.61035156,0.0,0.0,0.0,0.0,37.836914,82.13379,67.06055
1768998749608,-1.003418,0.088378906,0.096191406,-2.0141602,-2.319336,0.18310547,0.0,0.0,0.0,37.836914,82.13379,67.06055
1768998749620,-1.003418,0.088378906,0.096191406,-2.0141602,-2.319336,0.18310547,0.0,0.0,0.0,37.348022,82.00195,66.65405
1768998749708,-0.9848633,0.09033203,0.107421875,-1.4648438,-0.9765625,0.0,0.0,0.0,0.0,37.348022,82.00195,66.65405
1768998749719,-0.9848633,0.09033203,0.107421875,-1.4648438,-0.9765625,0.0,0.0,0.0,0.0,37.001953,81.9635,66.32446
1768998749808,-0.9873047,0.08203125,0.10644531,1.159668,0.8544922,-0.4272461,0.0,0.0,0.0,37.001953,81.9635,66.32446
1768998749819,-0.9873047,0.08203125,0.10644531,1.159668,0.8544922,-0.4272461,0.0,0.0,0.0,37.194214,81.97998,66.450806
1768998749907,-1.0087891,0.091308594,0.09326172,-0.9765625,0.9765625,-0.4272461,0.0,0.0,0.0,37.194214,81.97998,66.450806
1768998749919,-1.0087891,0.091308594,0.09326172,-0.9765625,0.9765625,-0.4272461,0.0,0.0,0.0,37.749023,82.1228,67.0166
1768998750007,-0.98095703,0.083984375,0.09814453,-0.6713867,-1.0986328,0.36621094,0.0,0.0,0.0,37.749023,82.1228,67.0166
1768998750019,-0.98095703,0.083984375,0.09814453,-0.6713867,-1.0986328,0.36621094,0.0,0.0,0.0,37.72705,82.15027,66.989136
1768998750107,-0.99853516,0.092285156,0.10595703,-0.79345703,-0.7324219,-0.24414062,0.0,0.0,0.0,37.72705,82.15027,66.989136
1768998750118,-0.99853516,0.092285156,0.10595703,-0.79345703,-0.7324219,-0.24414062,0.0,0.0,0.0,37.62268,82.10632,67.02759
1768998750207,-0.96777344,0.09277344,0.10546875,0.30517578,0.30517578,0.18310547,0.0,0.0,0.0,37.62268,82.10632,67.02759
1768998750218,-0.96777344,0.09277344,0.10546875,0.30517578,0.30517578,0.18310547,0.0,0.0,0.0,37.53479,81.97998,67.04407
1768998750306,-0.9980469,0.088378906,0.109375,1.8310547,2.9296875,-1.2207031,0.0,0.0,0.0,37.53479,81.97998,67.04407
1768998750318,-0.9980469,0.088378906,0.109375,1.8310547,2.9296875,-1.2207031,0.0,0.0,0.0,37.738037,82.1228,67.126465
1768998750406,-0.98291016,0.079589844,0.1015625,2.5024414,-0.30517578,0.18310547,0.0,0.0,0.0,37.738037,82.1228,67.126465
1768998750417,-0.98291016,0.079589844,0.1015625,2.5024414,-0.30517578,0.18310547,0.0,0.0,0.0,38.424683,82.29309,67.736206
1768998750506,-0.99365234,0.09082031,0.104003906,1.0986328,0.7324219,-1.2207031,0.0,0.0,0.0,38.424683,82.29309,67.736206
1768998750517,-0.99365234,0.09082031,0.104003906,1.0986328,0.7324219,-1.2207031,0.0,0.0,0.0,38.41919,82.249146,67.88452
1768998750605,-0.97509766,0.096191406,0.09765625,0.6713867,-1.3427734,-0.48828125,0.0,0.0,0.0,38.41919,82.249146,67.88452
1768998750617,-0.97509766,0.096191406,0.09765625,0.6713867,-1.3427734,-0.48828125,0.0,0.0,0.0,37.91382,82.177734,67.47803
1768998750705,-1.0019531,0.080078125,0.114746094,0.91552734,0.4272461,0.12207031,0.0,0.0,0.0,37.91382,82.177734,67.47803
1768998750716,-1.0019531,0.080078125,0.114746094,0.91552734,0.4272461,0.12207031,0.0,0.0,0.0,37.79297,82.1228,67.23633
1768998750805,-0.99316406,0.09082031,0.109375,0.0,-0.24414062,-0.5493164,0.0,0.0,0.0,37.79297,82.1228,67.23633
1768998750816,-0.99316406,0.09082031,0.109375,0.0,-0.24414062,-0.5493164,0.0,0.0,0.0,37.91931,82.144775,67.50549
1768998750905,-0.98535156,0.0859375,0.103515625,0.79345703,1.7089844,-0.24414062,0.0,0.0,0.0,37.91931,82.144775,67.50549
1768998750916,-0.98535156,0.0859375,0.103515625,0.79345703,1.7089844,-0.24414062,0.0,0.0,0.0,38.0896,82.21619,67.697754
1768998751004,-0.9921875,0.091796875,0.10205078,-0.91552734,0.30517578,0.12207031,0.0,0.0,0.0,38.0896,82.21619,67.697754
1768998751016,-0.9921875,0.091796875,0.10205078,-0.91552734,0.30517578,0.12207031,0.0,0.0,0.0,38.55652,82.22717,68.203125
1768998751104,-0.99365234,0.091308594,0.096191406,1.8310547,1.8310547,-0.9765625,0.0,0.0,0.0,38.55652,82.22717,68.203125
1768998751115,-0.99365234,0.091308594,0.096191406,1.8310547,1.8310547,-0.9765625,0.0,0.0,0.0,39.04541,82.37549,68.565674
1768998751203,-0.9921875,0.08300781,0.10058594,-0.48828125,-0.4272461,0.0,0.0,0.0,0.0,39.04541,82.37549,68.565674
1768998751215,-0.9921875,0.08300781,0.10058594,-0.48828125,-0.4272461,0.0,0.0,0.0,0.0,39.039917,82.386475,68.49426
1768998751303,-0.9995117,0.08105469,0.08496094,-0.91552734,-0.36621094,-0.61035156,0.0,0.0,0.0,39.039917,82.386475,68.49426
1768998751315,-0.9995117,0.08105469,0.08496094,-0.91552734,-0.36621094,-0.61035156,0.0,0.0,0.0,39.210205,82.43591,68.80737
1768998751403,-0.98779297,0.09082031,0.099121094,-0.6713867,-0.79345703,0.12207031,0.0,0.0,0.0,39.210205,82.43591,68.80737
1768998751415,-0.98779297,0.09082031,0.099121094,-0.6713867,-0.79345703,0.12207031,0.0,0.0,0.0,38.963013,82.39746,68.57117
1768998751503,-0.9921875,0.0859375,0.09326172,0.61035156,-1.0375977,-0.36621094,0.0,0.0,0.0,38.963013,82.39746,68.57117
1768998751514,-0.9921875,0.0859375,0.09326172,0.61035156,-1.0375977,-0.36621094,0.0,0.0,0.0,38.946533,82.34802,68.532715
1768998751602,-1.0083008,0.08691406,0.10058594,0.30517578,2.8686523,-0.91552734,0.0,0.0,0.0,38.946533,82.34802,68.532715
1768998751614,-1.0083008,0.08691406,0.10058594,0.30517578,2.8686523,-0.91552734,0.0,0.0,0.0,39.083862,82.38098,68.604126
1768998751702,-0.99072266,0.07714844,0.09423828,-0.12207031,1.4648438,-1.159668,0.0,0.0,0.0,39.083862,82.38098,68.604126
1768998751713,-0.99072266,0.07714844,0.09423828,-0.12207031,1.4648438,-1.159668,0.0,0.0,0.0,40.341797,82.81494,69.70825
1768998751802,-1.0029297,0.084472656,0.06689453,-1.4648438,1.159668,-0.36621094,0.0,0.0,0.0,40.341797,82.81494,69.70825
1768998751813,-1.0029297,0.084472656,0.06689453,-1.4648438,1.159668,-0.36621094,0.0,0.0,0.0,40.31433,82.87537,69.834595
1768998751901,-0.99609375,0.08203125,0.08496094,-2.746582,-0.12207031,0.48828125,0.0,0.0,0.0,40.31433,82.87537,69.834595
1768998751914,-0.99609375,0.08203125,0.08496094,-2.746582,-0.12207031,0.48828125,0.0,0.0,0.0,40.567017,82.88635,70.21912
1768998752001,-0.9902344,0.08154297,0.052246094,-0.12207031,0.4272461,0.0,0.0,0.0,0.0,40.567017,82.88635,70.21912
1768998752013,-0.9902344,0.08154297,0.052246094,-0.12207031,0.4272461,0.0,0.0,0.0,0.0,40.792236,82.91382,70.477295
1768998752101,-0.99560547,0.092285156,0.099609375,-2.1362305,-4.211426,-0.24414062,0.0,0.0,0.0,40.792236,82.91382,70.477295
1768998752112,-0.99560547,0.092285156,0.099609375,-2.1362305,-4.211426,-0.24414062,0.0,0.0,0.0,38.86963,82.611694,68.83484
1768998752200,-0.9951172,0.080566406,0.091308594,0.061035156,1.7089844,-0.5493164,0.0,0.0,0.0,38.86963,82.611694,68.83484
1768998752212,-0.9951172,0.080566406,0.091308594,0.061035156,1.7089844,-0.5493164,0.0,0.0,0.0,38.413696,82.611694,68.41736
1768998752300,-0.9848633,0.08496094,0.13330078,-1.2207031,-3.7841797,-0.7324219,0.0,0.0,0.0,38.413696,82.611694,68.41736
1768998752312,-0.9848633,0.08496094,0.13330078,-1.2207031,-3.7841797,-0.7324219,0.0,0.0,0.0,36.809692,82.38098,66.813354
1768998752400,-0.9824219,0.071777344,0.08105469,-1.6479492,-1.5869141,0.91552734,0.0,0.0,0.0,36.809692,82.38098,66.813354
1768998752411,-0.9824219,0.071777344,0.08105469,-1.6479492,-1.5869141,0.91552734,0.0,0.0,0.0,36.600952,82.41394,66.659546
1768998752499,-0.98339844,0.091796875,0.09814453,-2.8076172,-4.760742,2.2583008,0.0,0.0,0.0,36.600952,82.41394,66.659546
1768998752511,-0.98339844,0.091796875,0.09814453,-2.8076172,-4.760742,2.2583008,0.0,0.0,0.0,34.733276,81.89758,65.05005
1768998752599,-0.9638672,0.10449219,0.13378906,0.0,-0.12207031,1.0375977,0.0,0.0,0.0,34.733276,81.89758,65.05005
1768998752611,-0.9638672,0.10449219,0.13378906,0.0,-0.12207031,1.0375977,0.0,0.0,0.0,35.359497,81.54602,65.808105
1768998752699,-1.0053711,0.076660156,0.10595703,1.6479492,4.638672,-0.48828125,0.0,0.0,0.0,35.359497,81.54602,65.808105
1768998752711,-1.0053711,0.076660156,0.10595703,1.6479492,4.638672,-0.48828125,0.0,0.0,0.0,35.837402,81.54053,66.19263
1768998752799,-0.98876953,0.09765625,0.106933594,0.6713867,2.1362305,0.061035156,0.0,0.0,0.0,35.837402,81.54053,66.19263
1768998752810,-0.98876953,0.09765625,0.106933594,0.6713867,2.1362305,0.061035156,0.0,0.0,0.0,38.067627,82.11182,68.170166
1768998752898,-0.9926758,0.091308594,0.09765625,0.8544922,-1.0375977,-0.12207031,0.0,0.0,0.0,38.067627,82.11182,68.170166
1768998752910,-0.9926758,0.091308594,0.09765625,0.8544922,-1.0375977,-0.12207031,0.0,0.0,0.0,38.66089,82.10632,68.71399
1768998752998,-1.0004883,0.095214844,0.10595703,0.5493164,-1.0986328,-0.7324219,0.0,0.0,0.0,38.66089,82.10632,68.71399
1768998753009,-1.0004883,0.095214844,0.10595703,0.5493164,-1.0986328,-0.7324219,0.0,0.0,0.0,38.380737,82.08435,68.274536
1768998753098,-0.9873047,0.08935547,0.103027344,1.4038086,-2.0141602,0.18310547,0.0,0.0,0.0,38.380737,82.08435,68.274536
1768998753109,-0.9873047,0.08935547,0.103027344,1.4038086,-2.0141602,0.18310547,0.0,0.0,0.0,37.600708,81.93054,67.351685
1768998753197,-0.9995117,0.091308594,0.10839844,-1.2207031,-0.79345703,-0.24414062,0.0,0.0,0.0,37.600708,81.93054,67.351685
1768998753209,-0.9995117,0.091308594,0.10839844,-1.2207031,-0.79345703,-0.24414062,0.0,0.0,0.0,37.683105,81.87561,67.23633
1768998753297,-0.9921875,0.087402344,0.107910156,-0.61035156,0.0,0.48828125,0.0,0.0,0.0,37.683105,81.87561,67.23633
1768998753308,-0.9921875,0.087402344,0.107910156,-0.61035156,0.0,0.48828125,0.0,0.0,0.0,37.83142,81.8811,67.27478
1768998753397,-0.9897461,0.09472656,0.12451172,-0.61035156,1.0375977,-0.8544922,0.0,0.0,0.0,37.83142,81.8811,67.27478
1768998753408,-0.9897461,0.09472656,0.12451172,-0.61035156,1.0375977,-0.8544922,0.0,0.0,0.0,38.084106,81.95801,67.50549
1768998753496,-0.9975586,0.09277344,0.10546875,-2.6855469,0.61035156,0.79345703,0.0,0.0,0.0,38.084106,81.95801,67.50549
1768998753508,-0.9975586,0.09277344,0.10546875,-2.6855469,0.61035156,0.79345703,0.0,0.0,0.0,38.22693,81.968994,67.85156
1768998753596,-0.99072266,0.083496094,0.09765625,1.0986328,1.6479492,0.5493164,0.0,0.0,0.0,38.22693,81.968994,67.85156
1768998753608,-0.99072266,0.083496094,0.09765625,1.0986328,1.6479492,0.5493164,0.0,0.0,0.0,39.6167,82.056885,69.246826
1768998753696,-0.9838867,0.10595703,0.09472656,2.0751953,-1.2207031,-1.0375977,0.0,0.0,0.0,39.6167,82.056885,69.246826
1768998753707,-0.9838867,0.10595703,0.09472656,2.0751953,-1.2207031,-1.0375977,0.0,0.0,0.0,39.836426,82.040405,69.28528
1768998753796,-1.0083008,0.092285156,0.09472656,1.3427734,0.7324219,-0.5493164,0.0,0.0,0.0,39.836426,82.040405,69.28528
1768998753808,-1.0083008,0.092285156,0.09472656,1.3427734,0.7324219,-0.5493164,0.0,0.0,0.0,39.539795,82.22168,68.42285
1768998753895,-0.9868164,0.08105469,0.09667969,0.12207031,-0.79345703,-0.5493164,0.0,0.0,0.0,39.539795,82.22168,68.42285
1768998753907,-0.9868164,0.08105469,0.09667969,0.12207031,-0.79345703,-0.5493164,0.0,0.0,0.0,39.776,82.27661,68.4668
1768998753995,-0.9868164,0.083984375,0.107421875,2.2583008,-2.1972656,-0.5493164,0.0,0.0,0.0,39.776,82.27661,68.4668
1768998754007,-0.9868164,0.083984375,0.107421875,2.2583008,-2.1972656,-0.5493164,0.0,0.0,0.0,39.561768,82.24365,68.10425
1768998754095,-0.9921875,0.091308594,0.1015625,2.2583008,-0.9765625,-1.6479492,0.0,0.0,0.0,39.561768,82.24365,68.10425
1768998754106,-0.9921875,0.091308594,0.1015625,2.2583008,-0.9765625,-1.6479492,0.0,0.0,0.0,38.583984,82.15576,66.99463
1768998754194,-1.0053711,0.088378906,0.09472656,-1.3427734,0.12207031,0.24414062,0.0,0.0,0.0,38.583984,82.15576,66.99463
1768998754206,-1.0053711,0.088378906,0.09472656,-1.3427734,0.12207031,0.24414062,0.0,0.0,0.0,38.413696,82.25464,66.62109
1768998754294,-1.0029297,0.09033203,0.095703125,-1.8310547,0.7324219,-0.7324219,0.0,0.0,0.0,38.413696,82.25464,66.62109
1768998754306,-1.0029297,0.09033203,0.095703125,-1.8310547,0.7324219,-0.7324219,0.0,0.0,0.0,38.23242,82.24365,66.395874
1768998754394,-0.98876953,0.09277344,0.10644531,-1.8920898,0.061035156,-0.12207031,0.0,0.0,0.0,38.23242,82.24365,66.395874
1768998754405,-0.98876953,0.09277344,0.10644531,-1.8920898,0.061035156,-0.12207031,0.0,0.0,0.0,37.96875,82.2876,66.18713
1768998754493,-0.98828125,0.07519531,0.091308594,-1.7700195,2.6855469,0.061035156,0.0,0.0,0.0,37.96875,82.2876,66.18713
1768998754505,-0.98828125,0.07519531,0.091308594,-1.7700195,2.6855469,0.061035156,0.0,0.0,0.0,38.710327,82.34802,67.05505
1768998754593,-0.9946289,0.083984375,0.076171875,-0.91552734,1.6479492,-0.30517578,0.0,0.0,0.0,38.710327,82.34802,67.05505
1768998754604,-0.9946289,0.083984375,0.076171875,-0.91552734,1.6479492,-0.30517578,0.0,0.0,0.0,39.52881,82.49634,68.02185
1768998754693,-1.0327148,0.07470703,0.08886719,-6.4697266,-0.30517578,-0.8544922,0.0,0.0,0.0,39.52881,82.49634,68.02185
1768998754704,-1.0327148,0.07470703,0.08886719,-6.4697266,-0.30517578,-0.8544922,0.0,0.0,0.0,39.660645,82.51831,68.38989
1768998754792,-0.9682617,0.100097656,0.109375,-0.7324219,0.6713867,-0.18310547,0.0,0.0,0.0,39.660645,82.51831,68.38989
1768998754804,-0.9682617,0.100097656,0.109375,-0.7324219,0.6713867,-0.18310547,0.0,0.0,0.0,39.660645,82.65564,68.57117
1768998754892,-0.97509766,0.095214844,0.09765625,0.9765625,-1.953125,0.0,0.0,0.0,0.0,39.660645,82.65564,68.57117
1768998754903,-0.97509766,0.095214844,0.09765625,0.9765625,-1.953125,0.0,0.0,0.0,0.0,39.814453,82.53479,68.69202
1768998754992,-1.0039062,0.08984375,0.09667969,5.7373047,1.5258789,-1.3427734,0.0,0.0,0.0,39.814453,82.53479,68.69202
1768998755003,-1.0039062,0.08984375,0.09667969,5.7373047,1.5258789,-1.3427734,0.0,0.0,0.0,39.885864,82.666626,68.23059
1768998755091,-0.99072266,0.08984375,0.071777344,3.3569336,-2.5634766,-1.8920898,0.0,0.0,0.0,39.885864,82.666626,68.23059
1768998755103,-0.99072266,0.08984375,0.071777344,3.3569336,-2.5634766,-1.8920898,0.0,0.0,0.0,39.188232,82.611694,67.1814
1768998755191,-0.99072266,0.07861328,0.09326172,2.8076172,0.18310547,-2.0141602,0.0,0.0,0.0,39.188232,82.611694,67.1814
1768998755203,-0.99072266,0.07861328,0.09326172,2.8076172,0.18310547,-2.0141602,0.0,0.0,0.0,37.930298,82.666626,65.56641
1768998755291,-1.0009766,0.07080078,0.09423828,-2.6245117,-2.0141602,0.0,0.0,0.0,0.0,37.930298,82.666626,65.56641
1768998755302,-1.0009766,0.07080078,0.09423828,-2.6245117,-2.0141602,0.0,0.0,0.0,0.0,36.35376,82.55676,64.055786
1768998755391,-0.9892578,0.07470703,0.10986328,-0.61035156,-2.0141602,0.8544922,0.0,0.0,0.0,36.35376,82.55676,64.055786
1768998755402,-0.9892578,0.07470703,0.10986328,-0.61035156,-2.0141602,0.8544922,0.0,0.0,0.0,36.139526,82.41943,63.92395
1768998755490,-0.9995117,0.109375,0.09667969,4.3945312,-1.4648438,-0.6713867,0.0,0.0,0.0,36.139526,82.41943,63.92395
1768998755502,-0.9995117,0.109375,0.09667969,4.3945312,-1.4648438,-0.6713867,0.0,0.0,0.0,35.43091,82.232666,63.23181
1768998755590,-1.0009766,0.06982422,0.107421875,4.333496,3.8452148,-2.0141602,0.0,0.0,0.0,35.43091,82.232666,63.23181
1768998755602,-1.0009766,0.06982422,0.107421875,4.333496,3.8452148,-2.0141602,0.0,0.0,0.0,36.00769,82.46887,63.204346
1768998755690,-0.9916992,0.07910156,0.087890625,-2.9296875,5.126953,0.8544922,0.0,0.0,0.0,36.00769,82.46887,63.204346
1768998755701,-0.9916992,0.07910156,0.087890625,-2.9296875,5.126953,0.8544922,0.0,0.0,0.0,38.424683,82.91931,65.92346
1768998755789,-0.98828125,0.07421875,0.08203125,8.422852,3.4179688,1.159668,0.0,0.0,0.0,38.424683,82.91931,65.92346
1768998755801,-0.98828125,0.07421875,0.08203125,8.422852,3.4179688,1.159668,0.0,0.0,0.0,41.89087,82.98523,69.29077
1768998755889,-0.9794922,0.083984375,0.08154297,7.2631836,0.91552734,-2.319336,0.0,0.0,0.0,41.89087,82.98523,69.29077
1768998755901,-0.9794922,0.083984375,0.08154297,7.2631836,0.91552734,-2.319336,0.0,0.0,0.0,42.39624,83.012695,69.45557
1768998755989,-0.9824219,0.07128906,0.072753906,-3.2958984,0.48828125,-0.7324219,0.0,0.0,0.0,42.39624,83.012695,69.45557
1768998756000,-0.9824219,0.07128906,0.072753906,-3.2958984,0.48828125,-0.7324219,0.0,0.0,0.0,42.53357,83.13904,69.906006
1768998756089,-0.99853516,0.072753906,0.076660156,-0.36621094,-0.61035156,0.061035156,0.0,0.0,0.0,42.53357,83.13904,69.906006
1768998756100,-0.99853516,0.072753906,0.076660156,-0.36621094,-0.61035156,0.061035156,0.0,0.0,0.0,41.846924,83.02368,69.66431
1768998756188,-1.0053711,0.08300781,0.0625,0.0,0.7324219,1.4648438,0.0,0.0,0.0,41.846924,83.02368,69.66431
1768998756200,-1.0053711,0.08300781,0.0625,0.0,0.7324219,1.4648438,0.0,0.0,0.0,41.61621,82.891846,69.65881
1768998756288,-0.9785156,0.10839844,0.095214844,-1.7089844,-2.1362305,-0.9765625,0.0,0.0,0.0,41.61621,82.891846,69.65881
1768998756300,-0.9785156,0.10839844,0.095214844,-1.7089844,-2.1362305,-0.9765625,0.0,0.0,0.0,41.18225,82.79846,69.54346
1768998756388,-0.98339844,0.078125,0.100097656,0.24414062,-2.0141602,1.953125,0.0,0.0,0.0,41.18225,82.79846,69.54346
1768998756399,-0.98339844,0.078125,0.100097656,0.24414062,-2.0141602,1.953125,0.0,0.0,0.0,41.07788,82.595215,69.609375
1768998756487,-1.0097656,0.08935547,0.09472656,0.6713867,0.61035156,0.18310547,0.0,0.0,0.0,41.07788,82.595215,69.609375
1768998756499,-1.0097656,0.08935547,0.09472656,0.6713867,0.61035156,0.18310547,0.0,0.0,0.0,40.825195,82.39746,69.746704
1768998756587,-0.99902344,0.10107422,0.10253906,5.92041,0.8544922,-1.5869141,0.0,0.0,0.0,40.825195,82.39746,69.746704
1768998756598,-0.99902344,0.10107422,0.10253906,5.92041,0.8544922,-1.5869141,0.0,0.0,0.0,41.846924,82.595215,70.42236
1768998756687,-0.9770508,0.08935547,0.09326172,-5.004883,0.5493164,1.8310547,0.0,0.0,0.0,41.846924,82.595215,70.42236
1768998756698,-0.9770508,0.08935547,0.09326172,-5.004883,0.5493164,1.8310547,0.0,0.0,0.0,42.791748,82.66113,71.64734
1768998756787,-1.0039062,0.08154297,0.091796875,-0.30517578,-1.4038086,-0.4272461,0.0,0.0,0.0,42.791748,82.66113,71.64734
1768998756798,-1.0039062,0.08154297,0.091796875,-0.30517578,-1.4038086,-0.4272461,0.0,0.0,0.0,42.544556,82.53479,71.900024
1768998756886,-1.0136719,0.10058594,0.08496094,-3.90625,-0.24414062,1.4648438,0.0,0.0,0.0,42.544556,82.53479,71.900024
1768998756898,-1.0136719,0.10058594,0.08496094,-3.90625,-0.24414062,1.4648438,0.0,0.0,0.0,42.48413,82.507324,72.08679
1768998756986,-0.9863281,0.095703125,0.103027344,-3.540039,0.48828125,1.0375977,0.0,0.0,0.0,42.48413,82.507324,72.08679
1768998756997,-0.9863281,0.095703125,0.103027344,-3.540039,0.48828125,1.0375977,0.0,0.0,0.0,43.03894,82.48535,73.05359
1768998757085,-0.9667969,0.103515625,0.109375,-0.36621094,-3.540039,-0.24414062,0.0,0.0,0.0,43.03894,82.48535,73.05359
1768998757097,-0.9667969,0.103515625,0.109375,-0.36621094,-3.540039,-0.24414062,0.0,0.0,0.0,42.32483,82.30957,72.68555
1768998757185,-1.0048828,0.09863281,0.095214844,0.18310547,1.4648438,-1.0986328,0.0,0.0,0.0,42.32483,82.30957,72.68555
1768998757197,-1.0048828,0.09863281,0.095214844,0.18310547,1.4648438,-1.0986328,0.0,0.0,0.0,41.759033,82.35901,72.075806
1768998757285,-0.98779297,0.091796875,0.07324219,-0.18310547,2.8686523,-0.48828125,0.0,0.0,0.0,41.759033,82.35901,72.075806
1768998757296,-0.98779297,0.091796875,0.07324219,-0.18310547,2.8686523,-0.48828125,0.0,0.0,0.0,43.54431,82.62268,73.8501
1768998757385,-0.9794922,0.08935547,0.088378906,-0.8544922,-1.0375977,0.30517578,0.0,0.0,0.0,43.54431,82.62268,73.8501
1768998757396,-0.9794922,0.08935547,0.088378906,-0.8544922,-1.0375977,0.30517578,0.0,0.0,0.0,43.758545,82.65564,74.09729
1768998757484,-0.9951172,0.09033203,0.1015625,1.4038086,1.2207031,-1.953125,0.0,0.0,0.0,43.758545,82.65564,74.09729
1768998757496,-0.9951172,0.09033203,0.1015625,1.4038086,1.2207031,-1.953125,0.0,0.0,0.0,43.341064,82.683105,73.690796
1768998757584,-0.99853516,0.09277344,0.076660156,-2.5024414,0.4272461,0.30517578,0.0,0.0,0.0,43.341064,82.683105,73.690796
1768998757595,-0.99853516,0.09277344,0.076660156,-2.5024414,0.4272461,0.30517578,0.0,0.0,0.0,43.687134,82.78198,74.31152
1768998757684,-0.9838867,0.08984375,0.09814453,-1.7089844,-0.24414062,0.0,0.0,0.0,0.0,43.687134,82.78198,74.31152
1768998757695,-0.9838867,0.08984375,0.09814453,-1.7089844,-0.24414062,0.0,0.0,0.0,0.0,43.92334,82.787476,74.663086
1768998757783,-1.0029297,0.09472656,0.091308594,-1.0986328,-0.8544922,-0.061035156,0.0,0.0,0.0,43.92334,82.787476,74.663086
1768998757795,-1.0029297,0.09472656,0.091308594,-1.0986328,-0.8544922,-0.061035156,0.0,0.0,0.0,43.90686,82.77649,74.82788
1768998757883,-0.99072266,0.08935547,0.09375,0.7324219,1.0375977,-1.2817383,0.0,0.0,0.0,43.90686,82.77649,74.82788
1768998757895,-0.99072266,0.08935547,0.09375,0.7324219,1.0375977,-1.2817383,0.0,0.0,0.0,43.676147,82.7655,74.608154
1768998757983,-0.9995117,0.08251953,0.067871094,0.79345703,1.7089844,-1.4038086,0.0,0.0,0.0,43.676147,82.7655,74.608154
1768998757994,-0.9995117,0.08251953,0.067871094,0.79345703,1.7089844,-1.4038086,0.0,0.0,0.0,44.829712,83.045654,75.75073
1768998758082,-0.9814453,0.08642578,0.06347656,-0.7324219,-0.30517578,0.48828125,0.0,0.0,0.0,44.829712,83.045654,75.75073
1768998758094,-0.9814453,0.08642578,0.06347656,-0.7324219,-0.30517578,0.48828125,0.0,0.0,0.0,44.802246,83.012695,75.79468
1768998758182,-1.0209961,0.092285156,0.07470703,-0.5493164,0.36621094,0.5493164,0.0,0.0,0.0,44.802246,83.012695,75.79468
1768998758194,-1.0209961,0.092285156,0.07470703,-0.5493164,0.36621094,0.5493164,0.0,0.0,0.0,45.351562,83.02368,76.36597
1768998758282,-0.97265625,0.091796875,0.08105469,-0.061035156,-0.48828125,0.30517578,0.0,0.0,0.0,45.351562,83.02368,76.36597
1768998758293,-0.97265625,0.091796875,0.08105469,-0.061035156,-0.48828125,0.30517578,0.0,0.0,0.0,45.736084,83.029175,76.71753
1768998758382,-0.9873047,0.09472656,0.0859375,1.8310547,-1.6479492,-0.48828125,0.0,0.0,0.0,45.736084,83.029175,76.71753
1768998758393,-0.9873047,0.09472656,0.0859375,1.8310547,-1.6479492,-0.48828125,0.0,0.0,0.0,45.510864,82.86987,76.448364
1768998758481,-1.0078125,0.103515625,0.09277344,1.8310547,-0.18310547,-0.24414062,0.0,0.0,0.0,45.510864,82.86987,76.448364
1768998758493,-1.0078125,0.103515625,0.09277344,1.8310547,-0.18310547,-0.24414062,0.0,0.0,0.0,44.796753,82.836914,75.49805
1768998758581,-0.9838867,0.095214844,0.08691406,0.5493164,-1.0375977,-0.6713867,0.0,0.0,0.0,44.796753,82.836914,75.49805
1768998758592,-0.9838867,0.095214844,0.08691406,0.5493164,-1.0375977,-0.6713867,0.0,0.0,0.0,44.368286,82.803955,75.009155
1768998758681,-0.98876953,0.08886719,0.084472656,-1.4038086,-0.24414062,0.24414062,0.0,0.0,0.0,44.368286,82.803955,75.009155
1768998758692,-0.98876953,0.08886719,0.084472656,-1.4038086,-0.24414062,0.24414062,0.0,0.0,0.0,44.313354,82.79846,74.83887
1768998758780,-0.9980469,0.09082031,0.07861328,1.2207031,0.12207031,-1.2207031,0.0,0.0,0.0,44.313354,82.79846,74.83887
1768998758792,-0.9980469,0.09082031,0.07861328,1.2207031,0.12207031,-1.2207031,0.0,0.0,0.0,44.005737,82.80945,74.49829
1768998758880,-1.0009766,0.078125,0.07373047,-1.2817383,-0.8544922,-0.61035156,0.0,0.0,0.0,44.005737,82.80945,74.49829
1768998758892,-1.0009766,0.078125,0.07373047,-1.2817383,-0.8544922,-0.61035156,0.0,0.0,0.0,43.829956,82.820435,74.31702
1768998758980,-0.9819336,0.095214844,0.08691406,2.0751953,-1.5258789,-0.7324219,0.0,0.0,0.0,43.829956,82.820435,74.31702
1768998758991,-0.9819336,0.095214844,0.08691406,2.0751953,-1.5258789,-0.7324219,0.0,0.0,0.0,43.15979,82.80945,73.50952
1768998759079,-0.9995117,0.084472656,0.08886719,3.6010742,-0.79345703,-0.9765625,0.0,0.0,0.0,43.15979,82.80945,73.50952
1768998759091,-0.9995117,0.084472656,0.08886719,3.6010742,-0.79345703,-0.9765625,0.0,0.0,0.0,42.610474,82.73804,72.647095
1768998759179,-1.0053711,0.08691406,0.08642578,2.0751953,1.0375977,-1.2817383,0.0,0.0,0.0,42.610474,82.73804,72.647095
1768998759191,-1.0053711,0.08691406,0.08642578,2.0751953,1.0375977,-1.2817383,0.0,0.0,0.0,41.973267,82.81494,71.746216
1768998759279,-1.0009766,0.09765625,0.078125,-0.4272461,2.1362305,0.0,0.0,0.0,0.0,41.973267,82.81494,71.746216
1768998759290,-1.0009766,0.09765625,0.078125,-0.4272461,2.1362305,0.0,0.0,0.0,0.0,42.32483,82.91382,72.020874
1768998759378,-0.9785156,0.07910156,0.11816406,5.004883,2.2583008,-0.48828125,0.0,0.0,0.0,42.32483,82.91382,72.020874
1768998759390,-0.9785156,0.07910156,0.11816406,5.004883,2.2583008,-0.48828125,0.0,0.0,0.0,44.62097,83.204956,73.98743
1768998759478,-0.97998047,0.07373047,0.068847656,0.5493164,-0.9765625,-1.4648438,0.0,0.0,0.0,44.62097,83.204956,73.98743
1768998759490,-0.97998047,0.07373047,0.068847656,0.5493164,-0.9765625,-1.4648438,0.0,0.0,0.0,44.197998,83.237915,73.78967
1768998759578,-1.0112305,0.09375,0.06933594,0.8544922,1.2817383,-0.79345703,0.0,0.0,0.0,44.197998,83.237915,73.78967
1768998759589,-1.0112305,0.09375,0.06933594,0.8544922,1.2817383,-0.79345703,0.0,0.0,0.0,44.49463,83.342285,74.20715
1768998759677,-0.9785156,0.083496094,0.08642578,-0.36621094,-1.2817383,-0.36621094,0.0,0.0,0.0,44.49463,83.342285,74.20715
1768998759689,-0.9785156,0.083496094,0.08642578,-0.36621094,-1.2817383,-0.36621094,0.0,0.0,0.0,43.4729,83.309326,73.23486
1768998759777,-1.0063477,0.0859375,0.071777344,-2.6855469,-0.8544922,0.061035156,0.0,0.0,0.0,43.4729,83.309326,73.23486
1768998759789,-1.0063477,0.0859375,0.071777344,-2.6855469,-0.8544922,0.061035156,0.0,0.0,0.0,43.24768,83.204956,73.289795
1768998759877,-0.98339844,0.091796875,0.087890625,1.2207031,-1.3427734,0.9765625,0.0,0.0,0.0,43.24768,83.204956,73.289795
1768998759889,-0.98339844,0.091796875,0.087890625,1.2207031,-1.3427734,0.9765625,0.0,0.0,0.0,43.895874,83.25989,73.828125
1768998759977,-0.98291016,0.0859375,0.07421875,-1.159668,-2.1972656,0.6713867,0.0,0.0,0.0,43.895874,83.25989,73.828125
1768998759988,-0.98291016,0.0859375,0.07421875,-1.159668,-2.1972656,0.6713867,0.0,0.0,0.0,43.148804,83.00171,73.23486
1768998760076,-0.9941406,0.091796875,0.109375,0.061035156,-1.7089844,-1.4038086,0.0,0.0,0.0,43.148804,83.00171,73.23486
1768998760088,-0.9941406,0.091796875,0.109375,0.061035156,-1.7089844,-1.4038086,0.0,0.0,0.0,41.715088,82.836914,71.73523
1768998760176,-0.9892578,0.08496094,0.10205078,0.9765625,0.0,-1.4648438,0.0,0.0,0.0,41.715088,82.836914,71.73523
1768998760187,-0.9892578,0.08496094,0.10205078,0.9765625,0.0,-1.4648438,0.0,0.0,0.0,40.792236,82.88635,70.76843
1768998760276,-0.984375,0.07861328,0.09472656,-0.30517578,1.4038086,-0.24414062,0.0,0.0,0.0,40.792236,82.88635,70.76843
1768998760287,-0.984375,0.07861328,0.09472656,-0.30517578,1.4038086,-0.24414062,0.0,0.0,0.0,40.841675,82.97424,70.927734
1768998760376,-0.9838867,0.07763672,0.08642578,-2.1362305,1.4648438,0.91552734,0.0,0.0,0.0,40.841675,82.97424,70.927734
1768998760387,-0.9838867,0.07763672,0.08642578,-2.1362305,1.4648438,0.91552734,0.0,0.0,0.0,41.47339,83.07312,71.795654
1768998760475,-0.9794922,0.088378906,0.055664062,-1.8920898,5.432129,-0.12207031,0.0,0.0,0.0,41.47339,83.07312,71.795654
1768998760486,-0.9794922,0.088378906,0.055664062,-1.8920898,5.432129,-0.12207031,0.0,0.0,0.0,44.604492,83.38074,75.50354
1768998760575,-0.9975586,0.07080078,0.061523438,-6.8969727,4.1503906,5.2490234,0.0,0.0,0.0,44.604492,83.38074,75.50354
1768998760586,-0.9975586,0.07080078,0.061523438,-6.8969727,4.1503906,5.2490234,0.0,0.0,0.0,48.17505,83.25989,79.38721
1768998760674,-0.9995117,0.05517578,0.08300781,-11.291504,6.4086914,10.009766,0.0,0.0,0.0,48.17505,83.25989,79.38721
1768998760686,-0.9995117,0.05517578,0.08300781,-11.291504,6.4086914,10.009766,0.0,0.0,0.0,56.068726,83.221436,87.994995
1768998760774,-1.0234375,0.11621094,0.037597656,-2.6245117,2.4414062,6.4697266,0.0,0.0,0.0,56.068726,83.221436,87.994995
1768998760786,-1.0234375,0.11621094,0.037597656,-2.6245117,2.4414062,6.4697266,0.0,0.0,0.0,62.627563,82.86438,95.40527
1768998760874,-1.0170898,0.12597656,0.011230469,-7.751465,0.6713867,14.221191,0.0,0.0,0.0,62.627563,82.86438,95.40527
1768998760885,-1.0170898,0.12597656,0.011230469,-7.751465,0.6713867,14.221191,0.0,0.0,0.0,64.42383,82.177734,97.78931
1768998760974,-0.9746094,0.103515625,0.020019531,1.953125,-11.84082,8.605957,0.0,0.0,0.0,64.42383,82.177734,97.78931
1768998760985,-0.9746094,0.103515625,0.020019531,1.953125,-11.84082,8.605957,0.0,0.0,0.0,65.24231,81.04065,98.66272
1768998761073,-0.97558594,0.14990234,0.0703125,-8.056641,-14.404297,8.056641,0.0,0.0,0.0,65.24231,81.04065,98.66272
1768998761085,-0.97558594,0.14990234,0.0703125,-8.056641,-14.404297,8.056641,0.0,0.0,0.0,59.886475,79.7168,93.273926
1768998761173,-0.9838867,0.25732422,0.06640625,-6.591797,-21.66748,24.658203,0.0,0.0,0.0,59.886475,79.7168,93.273926
1768998761184,-0.9838867,0.25732422,0.06640625,-6.591797,-21.66748,24.658203,0.0,0.0,0.0,56.398315,77.66785,89.74182
1768998761273,-0.9433594,0.22607422,0.19433594,-1.0986328,-11.71875,7.385254,0.0,0.0,0.0,56.398315,77.66785,89.74182
1768998761284,-0.9433594,0.22607422,0.19433594,-1.0986328,-11.71875,7.385254,0.0,0.0,0.0,54.437256,75.28381,87.19299
1768998761372,-0.92822266,0.2529297,0.1875,-15.380859,-4.0893555,13.977051,0.0,0.0,0.0,54.437256,75.28381,87.19299
1768998761384,-0.92822266,0.2529297,0.1875,-15.380859,-4.0893555,13.977051,0.0,0.0,0.0,53.55835,74.16321,86.73157
1768998761472,-0.9604492,0.26171875,0.22070312,-3.1738281,-3.7841797,2.6245117,0.0,0.0,0.0,53.55835,74.16321,86.73157
1768998761483,-0.9604492,0.26171875,0.22070312,-3.1738281,-3.7841797,2.6245117,0.0,0.0,0.0,52.459717,72.74048,86.40198
1768998761572,-0.9609375,0.27001953,0.19335938,-3.4179688,-4.8828125,0.4272461,0.0,0.0,0.0,52.459717,72.74048,86.40198
1768998761584,-0.9609375,0.27001953,0.19335938,-3.4179688,-4.8828125,0.4272461,0.0,0.0,0.0,51.21277,72.509766,84.56726
1768998761671,-0.96191406,0.2421875,0.17773438,1.4648438,-3.90625,-1.0375977,0.0,0.0,0.0,51.21277,72.509766,84.56726
1768998761683,-0.96191406,0.2421875,0.17773438,1.4648438,-3.90625,-1.0375977,0.0,0.0,0.0,49.86145,72.09778,82.54028
1768998761771,-0.9399414,0.24853516,0.2211914,-1.4648438,-1.5869141,2.6245117,0.0,0.0,0.0,49.86145,72.09778,82.54028
1768998761783,-0.9399414,0.24853516,0.2211914,-1.4648438,-1.5869141,2.6245117,0.0,0.0,0.0,49.108887,71.850586,81.18347
1768998761871,-0.9379883,0.22509766,0.19238281,1.953125,-2.746582,-0.91552734,0.0,0.0,0.0,49.108887,71.850586,81.18347
1768998761883,-0.9379883,0.22509766,0.19238281,1.953125,-2.746582,-0.91552734,0.0,0.0,0.0,49.075928,71.58142,80.16724
1768998761971,-0.9511719,0.25976562,0.2055664,-3.479004,-3.7841797,5.493164,0.0,0.0,0.0,49.075928,71.58142,80.16724
1768998761982,-0.9511719,0.25976562,0.2055664,-3.479004,-3.7841797,5.493164,0.0,0.0,0.0,49.0979,71.3562,79.41467
1768998762070,-0.9165039,0.29296875,0.22363281,10.375977,2.8076172,-2.1362305,0.0,0.0,0.0,49.0979,71.3562,79.41467
1768998762082,-0.9165039,0.29296875,0.22363281,10.375977,2.8076172,-2.1362305,0.0,0.0,0.0,49.61975,70.77942,78.53577
1768998762170,-0.93603516,0.25976562,0.21777344,5.6762695,4.760742,1.4648438,0.0,0.0,0.0,49.61975,70.77942,78.53577
1768998762182,-0.93603516,0.25976562,0.21777344,5.6762695,4.760742,1.4648438,0.0,0.0,0.0,50.98755,71.16943,78.359985
1768998762270,-0.9453125,0.2578125,0.17822266,5.92041,0.061035156,-5.065918,0.0,0.0,0.0,50.98755,71.16943,78.359985
1768998762281,-0.9453125,0.2578125,0.17822266,5.92041,0.061035156,-5.065918,0.0,0.0,0.0,51.04248,70.982666,78.50281
1768998762369,-0.9633789,0.2421875,0.19921875,4.0893555,3.8452148,-5.004883,0.0,0.0,0.0,51.04248,70.982666,78.50281
1768998762381,-0.9633789,0.2421875,0.19921875,4.0893555,3.8452148,-5.004883,0.0,0.0,0.0,50.982056,71.72974,77.08557
1768998762469,-0.9824219,0.24169922,0.17773438,2.0751953,0.18310547,-5.79834,0.0,0.0,0.0,50.982056,71.72974,77.08557
1768998762481,-0.9824219,0.24169922,0.17773438,2.0751953,0.18310547,-5.79834,0.0,0.0,0.0,50.57556,72.02637,76.40991
1768998762569,-0.9248047,0.24023438,0.21289062,4.8217773,0.30517578,-4.0893555,0.0,0.0,0.0,50.57556,72.02637,76.40991
1768998762580,-0.9248047,0.24023438,0.21289062,4.8217773,0.30517578,-4.0893555,0.0,0.0,0.0,50.339355,72.66907,75.10254
1768998762668,-0.9555664,0.21923828,0.15283203,5.065918,-0.4272461,-7.1411133,0.0,0.0,0.0,50.339355,72.66907,75.10254
1768998762680,-0.9555664,0.21923828,0.15283203,5.065918,-0.4272461,-7.1411133,0.0,0.0,0.0,49.48242,72.943726,74.0094
1768998762768,-0.984375,0.21679688,0.18652344,-5.79834,1.2817383,-3.479004,0.0,0.0,0.0,49.48242,72.943726,74.0094
1768998762780,-0.984375,0.21679688,0.18652344,-5.79834,1.2817383,-3.479004,0.0,0.0,0.0,48.482666,73.22388,72.76245
1768998762868,-0.9560547,0.22460938,0.19677734,1.159668,2.319336,-6.713867,0.0,0.0,0.0,48.482666,73.22388,72.76245
1768998762880,-0.9560547,0.22460938,0.19677734,1.159668,2.319336,-6.713867,0.0,0.0,0.0,47.927856,73.78418,71.94397
1768998762968,-0.9628906,0.19970703,0.18457031,-3.90625,6.8359375,-6.164551,0.0,0.0,0.0,47.927856,73.78418,71.94397
1768998762979,-0.9628906,0.19970703,0.18457031,-3.90625,6.8359375,-6.164551,0.0,0.0,0.0,47.576294,74.33899,71.7572
1768998763067,-0.97753906,0.22167969,0.16699219,2.746582,4.9438477,-10.070801,0.0,0.0,0.0,47.576294,74.33899,71.7572
1768998763079,-0.97753906,0.22167969,0.16699219,2.746582,4.9438477,-10.070801,0.0,0.0,0.0,46.862183,75.36072,70.76294
1768998763167,-0.9736328,0.17626953,0.18017578,-0.12207031,7.5683594,-10.925293,0.0,0.0,0.0,46.862183,75.36072,70.76294
1768998763178,-0.9736328,0.17626953,0.18017578,-0.12207031,7.5683594,-10.925293,0.0,0.0,0.0,46.395264,76.42639,70.09827
1768998763267,-1.0029297,0.14697266,0.123046875,9.216309,9.521484,-18.249512,0.0,0.0,0.0,46.395264,76.42639,70.09827
1768998763279,-1.0029297,0.14697266,0.123046875,9.216309,9.521484,-18.249512,0.0,0.0,0.0,44.71985,78.12927,67.82959
1768998763366,-0.9975586,0.11035156,0.14404297,2.1362305,8.7890625,-15.319824,0.0,0.0,0.0,44.71985,78.12927,67.82959
1768998763378,-0.9975586,0.11035156,0.14404297,2.1362305,8.7890625,-15.319824,0.0,0.0,0.0,41.813965,80.007935,64.87427
1768998763466,-1.0024414,0.12060547,0.09667969,-0.6713867,7.9956055,-19.89746,0.0,0.0,0.0,41.813965,80.007935,64.87427
1768998763478,-1.0024414,0.12060547,0.09667969,-0.6713867,7.9956055,-19.89746,0.0,0.0,0.0,37.10083,81.87561,60.446777
1768998763566,-0.96240234,0.08496094,0.07373047,5.9814453,9.94873,-13.48877,0.0,0.0,0.0,37.10083,81.87561,60.446777
1768998763577,-0.96240234,0.08496094,0.07373047,5.9814453,9.94873,-13.48877,0.0,0.0,0.0,31.898804,83.62244,54.970093
1768998763665,-0.98828125,0.032714844,0.07421875,14.404297,8.483887,-18.371582,0.0,0.0,0.0,31.898804,83.62244,54.970093
1768998763677,-0.98828125,0.032714844,0.07421875,14.404297,8.483887,-18.371582,0.0,0.0,0.0,24.060059,84.97925,46.192017
1768998763765,-0.97509766,-0.017089844,0.043945312,5.3710938,-0.24414062,-5.859375,0.0,0.0,0.0,24.060059,84.97925,46.192017
1768998763777,-0.97509766,-0.017089844,0.043945312,5.3710938,-0.24414062,-5.859375,0.0,0.0,0.0,10.48645,85.92407,32.41516
1768998763865,-1.0058594,-0.05859375,0.052246094,-8.850098,7.446289,-5.3100586,0.0,0.0,0.0,10.48645,85.92407,32.41516
1768998763877,-1.0058594,-0.05859375,0.052246094,-8.850098,7.446289,-5.3100586,0.0,0.0,0.0,5.0811768,86.48987,27.614136
1768998763965,-1.0004883,-0.0024414062,0.017089844,-2.1972656,2.8076172,1.4038086,0.0,0.0,0.0,5.0811768,86.48987,27.614136
1768998763976,-1.0004883,-0.0024414062,0.017089844,-2.1972656,2.8076172,1.4038086,0.0,0.0,0.0,-0.005493164,86.87439,23.69751
1768998764064,-0.97509766,0.022460938,0.044433594,-1.5869141,5.004883,0.79345703,0.0,0.0,0.0,-0.005493164,86.87439,23.69751
1768998764076,-0.97509766,0.022460938,0.044433594,-1.5869141,5.004883,0.79345703,0.0,0.0,0.0,3.8671875,87.07214,28.3667
1768998764164,-0.98876953,-0.005859375,-0.016601562,-1.5258789,-0.6713867,6.1035156,0.0,0.0,0.0,3.8671875,87.07214,28.3667
1768998764175,-0.98876953,-0.005859375,-0.016601562,-1.5258789,-0.6713867,6.1035156,0.0,0.0,0.0,13.535156,86.98425,38.534546
1768998764264,-1.0361328,9.765625E-4,0.027832031,0.6713867,-5.6762695,3.90625,0.0,0.0,0.0,13.535156,86.98425,38.534546
1768998764275,-1.0361328,9.765625E-4,0.027832031,0.6713867,-5.6762695,3.90625,0.0,0.0,0.0,24.164429,86.83594,49.21875
1768998764363,-1.0175781,0.036621094,0.009765625,2.746582,-7.019043,-1.4038086,0.0,0.0,0.0,24.164429,86.83594,49.21875
1768998764375,-1.0175781,0.036621094,0.009765625,2.746582,-7.019043,-1.4038086,0.0,0.0,0.0,21.044312,86.40747,46.010742
1768998764463,-1.0180664,0.032714844,0.05029297,7.873535,-12.023926,-3.7231445,0.0,0.0,0.0,21.044312,86.40747,46.010742
1768998764475,-1.0180664,0.032714844,0.05029297,7.873535,-12.023926,-3.7231445,0.0,0.0,0.0,13.73291,85.55603,38.04016
1768998764563,-0.9873047,0.03466797,0.106933594,0.061035156,-5.1879883,-1.8920898,0.0,0.0,0.0,13.73291,85.55603,38.04016
1768998764575,-0.9873047,0.03466797,0.106933594,0.061035156,-5.1879883,-1.8920898,0.0,0.0,0.0,10.123901,84.98474,34.151
1768998764663,-0.98046875,0.033203125,0.119628906,-1.159668,-17.456055,0.36621094,0.0,0.0,0.0,10.123901,84.98474,34.151
1768998764674,-0.98046875,0.033203125,0.119628906,-1.159668,-17.456055,0.36621094,0.0,0.0,0.0,8.393555,84.072876,32.72827
1768998764762,-1.0112305,-0.001953125,0.11425781,-0.7324219,-7.873535,-0.30517578,0.0,0.0,0.0,8.393555,84.072876,32.72827
1768998764774,-1.0112305,-0.001953125,0.11425781,-0.7324219,-7.873535,-0.30517578,0.0,0.0,0.0,7.2180176,82.55127,31.860352
1768998764862,-0.9873047,0.009765625,0.123046875,1.7089844,-1.7089844,-0.79345703,0.0,0.0,0.0,7.2180176,82.55127,31.860352
1768998764874,-0.9873047,0.009765625,0.123046875,1.7089844,-1.7089844,-0.79345703,0.0,0.0,0.0,6.333618,82.2052,30.92102
1768998764962,-0.9970703,0.023925781,0.111328125,-1.159668,0.48828125,0.0,0.0,0.0,0.0,6.333618,82.2052,30.92102
1768998764974,-0.9970703,0.023925781,0.111328125,-1.159668,0.48828125,0.0,0.0,0.0,0.0,6.3500977,82.4469,31.019897
1768998765061,-1.0019531,0.026855469,0.11816406,1.3427734,0.4272461,-0.4272461,0.0,0.0,0.0,6.3500977,82.4469,31.019897
1768998765073,-1.0019531,0.026855469,0.11816406,1.3427734,0.4272461,-0.4272461,0.0,0.0,0.0,6.5093994,82.716064,30.942993
1768998765161,-0.9995117,4.8828125E-4,0.115234375,-0.4272461,5.493164,1.7700195,0.0,0.0,0.0,6.5093994,82.716064,30.942993
1768998765172,-0.9995117,4.8828125E-4,0.115234375,-0.4272461,5.493164,1.7700195,0.0,0.0,0.0,8.10791,83.029175,32.43164
1768998765261,-0.99365234,0.008300781,0.103027344,-2.746582,2.4414062,0.6713867,0.0,0.0,0.0,8.10791,83.029175,32.43164
1768998765272,-0.99365234,0.008300781,0.103027344,-2.746582,2.4414062,0.6713867,0.0,0.0,0.0,8.470459,83.36975,33.14026
1768998765360,-0.99072266,0.037597656,0.109375,-2.5634766,2.6245117,1.0986328,0.0,0.0,0.0,8.470459,83.36975,33.14026
1768998765372,-0.99072266,0.037597656,0.109375,-2.5634766,2.6245117,1.0986328,0.0,0.0,0.0,9.234009,83.534546,34.34326
1768998765460,-1.0,0.025878906,0.08496094,2.9296875,2.6855469,-0.30517578,0.0,0.0,0.0,9.234009,83.534546,34.34326
1768998765472,-1.0,0.025878906,0.08496094,2.9296875,2.6855469,-0.30517578,0.0,0.0,0.0,9.420776,83.84216,34.370728
1768998765560,-0.99121094,0.029785156,0.09667969,1.159668,3.9672852,2.6855469,0.0,0.0,0.0,9.420776,83.84216,34.370728
1768998765571,-0.99121094,0.029785156,0.09667969,1.159668,3.9672852,2.6855469,0.0,0.0,0.0,10.69519,84.30359,35.601196
1768998765660,-0.99658203,-0.005859375,0.11230469,-2.746582,8.483887,-0.4272461,0.0,0.0,0.0,10.69519,84.30359,35.601196
1768998765671,-0.99658203,-0.005859375,0.11230469,-2.746582,8.483887,-0.4272461,0.0,0.0,0.0,15.0842285,84.869385,40.270386
1768998765759,-0.98583984,0.019042969,0.07128906,3.6621094,12.023926,-2.8686523,0.0,0.0,0.0,15.0842285,84.869385,40.270386
1768998765771,-0.98583984,0.019042969,0.07128906,3.6621094,12.023926,-2.8686523,0.0,0.0,0.0,17.896729,85.578,43.813477
1768998765859,-1.03125,0.037597656,0.0068359375,-6.164551,4.1503906,2.8686523,0.0,0.0,0.0,17.896729,85.578,43.813477
1768998765870,-1.03125,0.037597656,0.0068359375,-6.164551,4.1503906,2.8686523,0.0,0.0,0.0,19.324951,86.42944,45.966797
1768998765959,-1.0053711,0.010253906,0.03955078,-2.5024414,3.7231445,-1.5869141,0.0,0.0,0.0,19.324951,86.42944,45.966797
1768998765970,-1.0053711,0.010253906,0.03955078,-2.5024414,3.7231445,-1.5869141,0.0,0.0,0.0,29.349976,86.89636,56.53015
1768998766058,-0.99316406,0.033691406,0.016113281,-3.1738281,0.7324219,-3.540039,0.0,0.0,0.0,29.349976,86.89636,56.53015
1768998766070,-0.99316406,0.033691406,0.016113281,-3.1738281,0.7324219,-3.540039,0.0,0.0,0.0,25.422363,87.08862,53.146362
1768998766158,-0.9926758,0.013183594,0.021484375,9.155273,-1.8310547,-5.065918,0.0,0.0,0.0,25.422363,87.08862,53.146362
1768998766170,-0.9926758,0.013183594,0.021484375,9.155273,-1.8310547,-5.065918,0.0,0.0,0.0,16.75415,87.19849,44.121094
1768998766258,-1.0205078,0.041503906,0.009277344,-0.24414062,-1.7700195,4.638672,0.0,0.0,0.0,16.75415,87.19849,44.121094
1768998766269,-1.0205078,0.041503906,0.009277344,-0.24414062,-1.7700195,4.638672,0.0,0.0,0.0,15.726929,86.95679,42.659912
1768998766358,-0.97216797,0.041503906,0.033691406,-1.4038086,-0.61035156,0.36621094,0.0,0.0,0.0,15.726929,86.95679,42.659912
1768998766369,-0.97216797,0.041503906,0.033691406,-1.4038086,-0.61035156,0.36621094,0.0,0.0,0.0,22.758179,87.231445,49.784546
1768998766457,-1.0986328,-0.016113281,0.046875,3.9672852,-7.1411133,2.1972656,0.0,0.0,0.0,22.758179,87.231445,49.784546
1768998766469,-1.0986328,-0.016113281,0.046875,3.9672852,-7.1411133,2.1972656,0.0,0.0,0.0,24.34021,86.693115,51.09192
1768998766557,-0.9580078,0.024414062,0.079589844,0.4272461,-4.0893555,0.91552734,0.0,0.0,0.0,24.34021,86.693115,51.09192
1768998766568,-0.9580078,0.024414062,0.079589844,0.4272461,-4.0893555,0.91552734,0.0,0.0,0.0,24.104004,86.31409,50.92163
1768998766657,-1.0458984,0.034179688,0.018554688,-17.028809,-6.4697266,3.6010742,0.0,0.0,0.0,24.104004,86.31409,50.92163
1768998766668,-1.0458984,0.034179688,0.018554688,-17.028809,-6.4697266,3.6010742,0.0,0.0,0.0,23.131714,85.440674,50.83374
1768998766756,-1.0102539,0.05859375,0.10498047,-12.145996,-5.004883,2.6855469,0.0,0.0,0.0,23.131714,85.440674,50.83374
1768998766768,-1.0102539,0.05859375,0.10498047,-12.145996,-5.004883,2.6855469,0.0,0.0,0.0,23.977661,85.06714,52.52014
1768998766856,-0.98535156,0.043945312,0.08886719,-6.1035156,-5.3710938,0.061035156,0.0,0.0,0.0,23.977661,85.06714,52.52014
1768998766868,-0.98535156,0.043945312,0.08886719,-6.1035156,-5.3710938,0.061035156,0.0,0.0,0.0,22.478027,84.58923,51.954346
1768998766956,-1.0151367,0.023925781,0.12109375,-3.3569336,-2.8686523,-0.12207031,0.0,0.0,0.0,22.478027,84.58923,51.954346
1768998766967,-1.0151367,0.023925781,0.12109375,-3.3569336,-2.8686523,-0.12207031,0.0,0.0,0.0,21.412354,84.35303,51.031494
1768998767056,-1.0004883,0.0625,0.087402344,-4.5166016,-4.699707,-1.0986328,0.0,0.0,0.0,21.412354,84.35303,51.031494
1768998767067,-1.0004883,0.0625,0.087402344,-4.5166016,-4.699707,-1.0986328,0.0,0.0,0.0,19.500732,84.00696,49.48242
1768998767155,-0.9897461,0.08935547,0.0703125,0.0,-2.5024414,-1.6479492,0.0,0.0,0.0,19.500732,84.00696,49.48242
1768998767168,-0.9897461,0.08935547,0.0703125,0.0,-2.5024414,-1.6479492,0.0,0.0,0.0,16.259766,83.82568,46.16455
1768998767255,-0.97265625,0.022949219,0.13623047,2.380371,-0.30517578,-2.6855469,0.0,0.0,0.0,16.259766,83.82568,46.16455
1768998767267,-0.97265625,0.022949219,0.13623047,2.380371,-0.30517578,-2.6855469,0.0,0.0,0.0,15.13916,83.743286,44.088135
1768998767355,-0.96777344,0.045410156,0.096191406,1.7700195,-1.8310547,-0.7324219,0.0,0.0,0.0,15.13916,83.743286,44.088135
1768998767366,-0.96777344,0.045410156,0.096191406,1.7700195,-1.8310547,-0.7324219,0.0,0.0,0.0,14.727173,83.74878,43.31909
1768998767454,-0.9897461,0.056640625,0.11669922,10.131836,5.432129,2.1362305,0.0,0.0,0.0,14.727173,83.74878,43.31909
1768998767466,-0.9897461,0.056640625,0.11669922,10.131836,5.432129,2.1362305,0.0,0.0,0.0,16.759644,83.79822,44.884644
1768998767554,-0.9946289,0.0034179688,0.12939453,3.8452148,10.009766,-2.6855469,0.0,0.0,0.0,16.759644,83.79822,44.884644
1768998767565,-0.9946289,0.0034179688,0.12939453,3.8452148,10.009766,-2.6855469,0.0,0.0,0.0,19.87976,84.25964,47.296143
1768998767654,-1.0175781,0.0078125,0.04296875,-3.90625,4.760742,-2.0751953,0.0,0.0,0.0,19.87976,84.25964,47.296143
1768998767665,-1.0175781,0.0078125,0.04296875,-3.90625,4.760742,-2.0751953,0.0,0.0,0.0,20.291748,84.97925,47.84546
1768998767753,-0.9316406,0.001953125,0.040039062,-1.8920898,4.1503906,-4.5166016,0.0,0.0,0.0,20.291748,84.97925,47.84546
1768998767765,-0.9316406,0.001953125,0.040039062,-1.8920898,4.1503906,-4.5166016,0.0,0.0,0.0,18.825073,85.583496,46.428223
1768998767853,-1.0322266,0.044921875,0.0234375,-5.92041,0.79345703,0.061035156,0.0,0.0,0.0,18.825073,85.583496,46.428223
1768998767865,-1.0322266,0.044921875,0.0234375,-5.92041,0.79345703,0.061035156,0.0,0.0,0.0,17.10022,85.528564,45.4834
1768998767953,-1.0175781,0.014160156,0.0625,-1.4038086,-4.1503906,-6.4086914,0.0,0.0,0.0,17.10022,85.528564,45.4834
1768998767964,-1.0175781,0.014160156,0.0625,-1.4038086,-4.1503906,-6.4086914,0.0,0.0,0.0,11.821289,85.424194,39.73755
1768998768052,-0.8388672,0.0068359375,0.030761719,2.746582,-5.859375,-0.4272461,0.0,0.0,0.0,11.821289,85.424194,39.73755
1768998768064,-0.8388672,0.0068359375,0.030761719,2.746582,-5.859375,-0.4272461,0.0,0.0,0.0,10.063477,85.30884,37.749023
1768998768152,-1.0488281,0.055664062,0.076171875,6.8359375,0.6713867,2.5024414,0.0,0.0,0.0,10.063477,85.30884,37.749023
1768998768164,-1.0488281,0.055664062,0.076171875,6.8359375,0.6713867,2.5024414,0.0,0.0,0.0,11.260986,84.627686,39.083862
1768998768252,-1.0209961,-0.009765625,0.091308594,-5.7373047,-14.587402,2.380371,0.0,0.0,0.0,11.260986,84.627686,39.083862
1768998768263,-1.0209961,-0.009765625,0.091308594,-5.7373047,-14.587402,2.380371,0.0,0.0,0.0,12.683716,83.638916,40.15503
1768998768351,-0.9511719,0.017089844,0.099609375,-2.9296875,-14.526367,3.8452148,0.0,0.0,0.0,12.683716,83.638916,40.15503
1768998768363,-0.9511719,0.017089844,0.099609375,-2.9296875,-14.526367,3.8452148,0.0,0.0,0.0,13.249512,82.21619,40.62195
1768998768451,-1.0405273,-0.0146484375,0.23730469,-4.5776367,4.760742,-4.8828125,0.0,0.0,0.0,13.249512,82.21619,40.62195
1768998768463,-1.0405273,-0.0146484375,0.23730469,-4.5776367,4.760742,-4.8828125,0.0,0.0,0.0,11.942139,81.55701,39.63867
1768998768551,-1.1025391,0.060546875,0.060058594,-31.37207,-18.615723,-5.6152344,0.0,0.0,0.0,11.942139,81.55701,39.63867
1768998768562,-1.1025391,0.060546875,0.060058594,-31.37207,-18.615723,-5.6152344,0.0,0.0,0.0,2.6202393,80.29907,31.942749
1768998768651,-0.88916016,0.10253906,0.20507812,14.282227,5.6152344,-10.559082,0.0,0.0,0.0,2.6202393,80.29907,31.942749
1768998768662,-0.88916016,0.10253906,0.20507812,14.282227,5.6152344,-10.559082,0.0,0.0,0.0,1.340332,80.37048,29.245605
1768998768750,-1.0063477,-4.8828125E-4,0.18896484,8.728027,3.1738281,-4.8217773,0.0,0.0,0.0,1.340332,80.37048,29.245605
1768998768762,-1.0063477,-4.8828125E-4,0.18896484,8.728027,3.1738281,-4.8217773,0.0,0.0,0.0,-3.4771729,80.72754,22.527466
1768998768850,-1.0,-0.018554688,0.12451172,2.5634766,1.0375977,-4.272461,0.0,0.0,0.0,-3.4771729,80.72754,22.527466
1768998768862,-1.0,-0.018554688,0.12451172,2.5634766,1.0375977,-4.272461,0.0,0.0,0.0,-4.9438477,81.0791,19.802856
1768998768950,-0.96972656,0.0,0.13769531,16.174316,3.7231445,2.6855469,0.0,0.0,0.0,-4.9438477,81.0791,19.802856
1768998768961,-0.96972656,0.0,0.13769531,16.174316,3.7231445,2.6855469,0.0,0.0,0.0,-4.0594482,81.21094,18.797607
1768998769049,-0.9560547,-0.08251953,0.14404297,7.6293945,-0.61035156,-2.5024414,0.0,0.0,0.0,-4.0594482,81.21094,18.797607
1768998769061,-0.9560547,-0.08251953,0.14404297,7.6293945,-0.61035156,-2.5024414,0.0,0.0,0.0,-3.9440918,81.39221,17.693481
1768998769149,-0.9746094,-0.005859375,0.14941406,5.065918,1.0986328,2.380371,0.0,0.0,0.0,-3.9440918,81.39221,17.693481
1768998769161,-0.9746094,-0.005859375,0.14941406,5.065918,1.0986328,2.380371,0.0,0.0,0.0,-3.4057617,80.996704,17.902222
1768998769249,-0.9916992,-0.0146484375,0.13916016,-2.380371,0.30517578,2.8076172,0.0,0.0,0.0,-3.4057617,80.996704,17.902222
1768998769260,-0.9916992,-0.0146484375,0.13916016,-2.380371,0.30517578,2.8076172,0.0,0.0,0.0,-2.3730469,80.996704,18.81958
1768998769348,-1.0073242,-0.0014648438,0.15527344,-5.2490234,-1.0375977,1.8310547,0.0,0.0,0.0,-2.3730469,80.996704,18.81958
1768998769360,-1.0073242,-0.0014648438,0.15527344,-5.2490234,-1.0375977,1.8310547,0.0,0.0,0.0,-1.3128662,80.90881,20.159912
1768998769448,-1.0327148,-0.0029296875,0.1430664,-7.9345703,-8.422852,2.6245117,0.0,0.0,0.0,-1.3128662,80.90881,20.159912
1768998769460,-1.0327148,-0.0029296875,0.1430664,-7.9345703,-8.422852,2.6245117,0.0,0.0,0.0,0.34057617,80.79346,22.131958
1768998769548,-0.96435547,0.036621094,0.17089844,0.12207031,0.061035156,0.30517578,0.0,0.0,0.0,0.34057617,80.79346,22.131958
1768998769559,-0.96435547,0.036621094,0.17089844,0.12207031,0.061035156,0.30517578,0.0,0.0,0.0,1.1920166,80.61218,23.274536
1768998769648,-0.9970703,0.021972656,0.16357422,0.8544922,1.953125,0.61035156,0.0,0.0,0.0,1.1920166,80.61218,23.274536
1768998769659,-0.9970703,0.021972656,0.16357422,0.8544922,1.953125,0.61035156,0.0,0.0,0.0,1.0766602,80.513306,22.714233
1768998769747,-0.98779297,0.0053710938,0.18261719,-2.5024414,0.36621094,0.18310547,0.0,0.0,0.0,1.0766602,80.513306,22.714233
1768998769759,-0.98779297,0.0053710938,0.18261719,-2.5024414,0.36621094,0.18310547,0.0,0.0,0.0,1.9500732,80.50232,23.598633
1768998769847,-0.95703125,0.0034179688,0.13427734,4.5776367,6.8359375,-0.6713867,0.0,0.0,0.0,1.9500732,80.50232,23.598633
1768998769858,-0.95703125,0.0034179688,0.13427734,4.5776367,6.8359375,-0.6713867,0.0,0.0,0.0,1.9335938,80.53528,23.59314
1768998769947,-1.0498047,0.0087890625,0.12841797,-4.211426,-1.4648438,-0.61035156,0.0,0.0,0.0,1.9335938,80.53528,23.59314
1768998769958,-1.0498047,0.0087890625,0.12841797,-4.211426,-1.4648438,-0.61035156,0.0,0.0,0.0,2.0214844,80.6012,23.291016
1768998770046,-0.9970703,0.019042969,0.14404297,0.0,-0.8544922,-0.91552734,0.0,0.0,0.0,2.0214844,80.6012,23.291016
1768998770058,-0.9970703,0.019042969,0.14404297,0.0,-0.8544922,-0.91552734,0.0,0.0,0.0,1.40625,80.61218,22.236328
1768998770146,-0.95751953,0.023925781,0.16308594,3.1738281,-5.92041,-0.7324219,0.0,0.0,0.0,1.40625,80.61218,22.236328
1768998770157,-0.95751953,0.023925781,0.16308594,3.1738281,-5.92041,-0.7324219,0.0,0.0,0.0,1.6040039,80.425415,22.071533
1768998770246,-0.9941406,-0.011230469,0.15136719,0.30517578,-3.90625,1.2817383,0.0,0.0,0.0,1.6040039,80.425415,22.071533
1768998770257,-0.9941406,-0.011230469,0.15136719,0.30517578,-3.90625,1.2817383,0.0,0.0,0.0,1.9390869,80.16724,21.802368
1768998770345,-0.9921875,0.0126953125,0.16308594,2.746582,-3.90625,-0.91552734,0.0,0.0,0.0,1.9390869,80.16724,21.802368
1768998770357,-0.9921875,0.0126953125,0.16308594,2.746582,-3.90625,-0.91552734,0.0,0.0,0.0,2.4829102,79.83215,21.950684
1768998770445,-0.95214844,0.023925781,0.18408203,8.972168,-5.126953,2.1972656,0.0,0.0,0.0,2.4829102,79.83215,21.950684
1768998770457,-0.95214844,0.023925781,0.18408203,8.972168,-5.126953,2.1972656,0.0,0.0,0.0,3.619995,79.48059,22.461548
1768998770545,-1.0009766,0.026855469,0.1875,4.5166016,-1.7700195,1.0375977,0.0,0.0,0.0,3.619995,79.48059,22.461548
1768998770556,-1.0009766,0.026855469,0.1875,4.5166016,-1.7700195,1.0375977,0.0,0.0,0.0,5.1470947,78.94226,23.197632
1768998770644,-0.9975586,0.029296875,0.2006836,3.479004,-1.0375977,0.4272461,0.0,0.0,0.0,5.1470947,78.94226,23.197632
1768998770656,-0.9975586,0.029296875,0.2006836,3.479004,-1.0375977,0.4272461,0.0,0.0,0.0,5.9381104,78.73352,23.615112
1768998770745,-0.9589844,-0.0029296875,0.18115234,-1.2207031,-3.112793,5.6152344,0.0,0.0,0.0,5.9381104,78.73352,23.615112
1768998770756,-0.9589844,-0.0029296875,0.18115234,-1.2207031,-3.112793,5.6152344,0.0,0.0,0.0,8.805542,78.513794,26.564941
1768998770844,-0.96435547,0.0,0.20751953,0.30517578,3.0517578,-1.8310547,0.0,0.0,0.0,8.805542,78.513794,26.564941
1768998770855,-0.96435547,0.0,0.20751953,0.30517578,3.0517578,-1.8310547,0.0,0.0,0.0,9.310913,78.480835,26.998901
1768998770943,-1.0048828,0.05859375,0.20458984,-1.8310547,2.6245117,-1.159668,0.0,0.0,0.0,9.310913,78.480835,26.998901
1768998770955,-1.0048828,0.05859375,0.20458984,-1.8310547,2.6245117,-1.159668,0.0,0.0,0.0,9.0802,79.002686,26.740723
1768998771043,-0.9863281,0.05810547,0.17089844,3.1738281,4.272461,-1.8310547,0.0,0.0,0.0,9.0802,79.002686,26.740723
1768998771055,-0.9863281,0.05810547,0.17089844,3.1738281,4.272461,-1.8310547,0.0,0.0,0.0,8.668213,79.365234,26.14746
1768998771143,-0.9785156,0.03515625,0.19189453,-0.79345703,0.30517578,0.6713867,0.0,0.0,0.0,8.668213,79.365234,26.14746
1768998771154,-0.9785156,0.03515625,0.19189453,-0.79345703,0.30517578,0.6713867,0.0,0.0,0.0,9.036255,79.60693,26.488037
1768998771243,-0.9897461,0.043945312,0.18457031,1.7089844,2.9296875,-1.0375977,0.0,0.0,0.0,9.036255,79.60693,26.488037
1768998771254,-0.9897461,0.043945312,0.18457031,1.7089844,2.9296875,-1.0375977,0.0,0.0,0.0,9.030762,79.60144,26.861572
1768998771342,-0.9614258,0.026855469,0.1665039,3.2348633,-1.6479492,-1.4648438,0.0,0.0,0.0,9.030762,79.60144,26.861572
1768998771354,-0.9614258,0.026855469,0.1665039,3.2348633,-1.6479492,-1.4648438,0.0,0.0,0.0,9.008789,79.68384,27.009888
1768998771442,-0.99658203,0.03515625,0.15673828,-3.7231445,-1.6479492,0.5493164,0.0,0.0,0.0,9.008789,79.68384,27.009888
1768998771453,-0.99658203,0.03515625,0.15673828,-3.7231445,-1.6479492,0.5493164,0.0,0.0,0.0,9.069214,79.56299,27.383423
1768998771542,-0.9916992,0.044433594,0.20019531,-0.4272461,-3.112793,0.24414062,0.0,0.0,0.0,9.069214,79.56299,27.383423
1768998771553,-0.9916992,0.044433594,0.20019531,-0.4272461,-3.112793,0.24414062,0.0,0.0,0.0,8.7890625,79.37622,27.037354
1768998771641,-1.0,0.032714844,0.16308594,-3.9672852,-0.4272461,-0.36621094,0.0,0.0,0.0,8.7890625,79.37622,27.037354
1768998771653,-1.0,0.032714844,0.16308594,-3.9672852,-0.4272461,-0.36621094,0.0,0.0,0.0,8.514404,79.227905,27.053833
1768998771741,-0.98095703,0.032714844,0.1899414,-4.760742,-0.061035156,-0.36621094,0.0,0.0,0.0,8.514404,79.227905,27.053833
1768998771752,-0.98095703,0.032714844,0.1899414,-4.760742,-0.061035156,-0.36621094,0.0,0.0,0.0,8.036499,79.32129,26.834106
1768998771841,-0.97216797,0.029785156,0.18896484,-2.1362305,0.4272461,-0.24414062,0.0,0.0,0.0,8.036499,79.32129,26.834106
1768998771852,-0.97216797,0.029785156,0.18896484,-2.1362305,0.4272461,-0.24414062,0.0,0.0,0.0,7.965088,79.348755,27.086792
1768998771940,-0.9794922,0.03173828,0.17285156,1.4038086,1.0375977,-1.953125,0.0,0.0,0.0,7.965088,79.348755,27.086792
1768998771952,-0.9794922,0.03173828,0.17285156,1.4038086,1.0375977,-1.953125,0.0,0.0,0.0,7.630005,79.35974,26.746216
1768998772040,-0.99658203,0.037597656,0.17871094,0.0,-1.0375977,-1.0375977,0.0,0.0,0.0,7.630005,79.35974,26.746216
1768998772051,-0.99658203,0.037597656,0.17871094,0.0,-1.0375977,-1.0375977,0.0,0.0,0.0,7.196045,79.30481,26.065063
1768998772140,-0.9819336,0.032226562,0.18017578,4.5776367,2.4414062,-2.380371,0.0,0.0,0.0,7.196045,79.30481,26.065063
1768998772151,-0.9819336,0.032226562,0.18017578,4.5776367,2.4414062,-2.380371,0.0,0.0,0.0,6.8774414,79.469604,25.361938
1768998772240,-0.97558594,0.023925781,0.17675781,0.48828125,0.12207031,0.4272461,0.0,0.0,0.0,6.8774414,79.469604,25.361938
1768998772252,-0.97558594,0.023925781,0.17675781,0.48828125,0.12207031,0.4272461,0.0,0.0,0.0,7.1795654,79.57947,25.422363
1768998772339,-0.9848633,0.028320312,0.17480469,-0.36621094,1.2207031,-0.4272461,0.0,0.0,0.0,7.1795654,79.57947,25.422363
1768998772351,-0.9848633,0.028320312,0.17480469,-0.36621094,1.2207031,-0.4272461,0.0,0.0,0.0,7.2839355,79.59595,25.620117
1768998772439,-0.9970703,0.026855469,0.16845703,-0.48828125,-0.061035156,-0.61035156,0.0,0.0,0.0,7.2839355,79.59595,25.620117
1768998772450,-0.9970703,0.026855469,0.16845703,-0.48828125,-0.061035156,-0.61035156,0.0,0.0,0.0,7.025757,79.67285,25.345459
1768998772539,-0.9819336,0.033691406,0.1694336,1.2207031,-0.4272461,-0.7324219,0.0,0.0,0.0,7.025757,79.67285,25.345459
1768998772550,-0.9819336,0.033691406,0.1694336,1.2207031,-0.4272461,-0.7324219,0.0,0.0,0.0,6.937866,79.63989,25.252075
1768998772638,-0.98046875,0.029296875,0.1928711,2.1972656,-1.7700195,-0.79345703,0.0,0.0,0.0,6.937866,79.63989,25.252075
1768998772650,-0.98046875,0.029296875,0.1928711,2.1972656,-1.7700195,-0.79345703,0.0,0.0,0.0,6.92688,79.53552,25.037842
1768998772738,-0.97509766,0.03466797,0.17089844,0.8544922,2.4414062,-0.7324219,0.0,0.0,0.0,6.92688,79.53552,25.037842
1768998772750,-0.97509766,0.03466797,0.17089844,0.8544922,2.4414062,-0.7324219,0.0,0.0,0.0,6.828003,79.65088,24.927979
1768998772838,-0.9897461,0.021972656,0.16601562,-2.6245117,0.24414062,0.8544922,0.0,0.0,0.0,6.828003,79.65088,24.927979
1768998772849,-0.9897461,0.021972656,0.16601562,-2.6245117,0.24414062,0.8544922,0.0,0.0,0.0,6.828003,79.766235,24.955444
1768998772937,-1.0400391,0.016601562,0.15625,-10.253906,-1.7089844,0.0,0.0,0.0,0.0,6.828003,79.766235,24.955444
1768998772949,-1.0400391,0.016601562,0.15625,-10.253906,-1.7089844,0.0,0.0,0.0,0.0,6.4819336,79.59595,25.235596
1768998773037,-0.92285156,0.041992188,0.20800781,-6.1035156,1.2817383,2.0141602,0.0,0.0,0.0,6.4819336,79.59595,25.235596
1768998773049,-0.92285156,0.041992188,0.20800781,-6.1035156,1.2817383,2.0141602,0.0,0.0,0.0,6.7456055,79.7937,26.07605
1768998773137,-0.97558594,0.018554688,0.1640625,2.8686523,1.2817383,-2.1972656,0.0,0.0,0.0,6.7456055,79.7937,26.07605
1768998773149,-0.97558594,0.018554688,0.1640625,2.8686523,1.2817383,-2.1972656,0.0,0.0,0.0,6.7401123,79.65637,26.537476
1768998773237,-1.0097656,0.032226562,0.16503906,1.4648438,0.61035156,-0.30517578,0.0,0.0,0.0,6.7401123,79.65637,26.537476
1768998773248,-1.0097656,0.032226562,0.16503906,1.4648438,0.61035156,-0.30517578,0.0,0.0,0.0,6.2841797,79.77722,25.647583
1768998773336,-0.984375,0.03466797,0.15625,-0.24414062,0.61035156,-0.18310547,0.0,0.0,0.0,6.2841797,79.77722,25.647583
1768998773348,-0.984375,0.03466797,0.15625,-0.24414062,0.61035156,-0.18310547,0.0,0.0,0.0,6.2786865,79.93103,25.52124
1768998773436,-0.9692383,0.032226562,0.17578125,2.1362305,0.30517578,-0.36621094,0.0,0.0,0.0,6.2786865,79.93103,25.52124
1768998773449,-0.9692383,0.032226562,0.17578125,2.1362305,0.30517578,-0.36621094,0.0,0.0,0.0,6.536865,80.07385,25.653076
1768998773536,-1.0112305,0.026855469,0.16796875,0.61035156,-1.7700195,-0.61035156,0.0,0.0,0.0,6.536865,80.07385,25.653076
1768998773547,-1.0112305,0.026855469,0.16796875,0.61035156,-1.7700195,-0.61035156,0.0,0.0,0.0,6.295166,80.007935,25.257568
1768998773635,-0.99316406,0.036132812,0.18310547,-1.0375977,-1.5869141,2.9296875,0.0,0.0,0.0,6.295166,80.007935,25.257568
1768998773647,-0.99316406,0.036132812,0.18310547,-1.0375977,-1.5869141,2.9296875,0.0,0.0,0.0,6.9433594,79.4751,26.125488
1768998773735,-0.9536133,0.025878906,0.19482422,-3.2958984,-3.2958984,0.5493164,0.0,0.0,0.0,6.9433594,79.4751,26.125488
1768998773747,-0.9536133,0.025878906,0.19482422,-3.2958984,-3.2958984,0.5493164,0.0,0.0,0.0,7.668457,79.45862,27.037354
1768998773835,-0.98095703,0.030273438,0.17773438,5.126953,0.36621094,-1.8920898,0.0,0.0,0.0,7.668457,79.45862,27.037354
1768998773846,-0.98095703,0.030273438,0.17773438,5.126953,0.36621094,-1.8920898,0.0,0.0,0.0,7.5091553,79.38721,26.993408
1768998773934,-0.99902344,0.03173828,0.16699219,0.79345703,2.746582,-1.0375977,0.0,0.0,0.0,7.5091553,79.38721,26.993408
1768998773946,-0.99902344,0.03173828,0.16699219,0.79345703,2.746582,-1.0375977,0.0,0.0,0.0,7.3773193,79.53003,26.724243
1768998774034,-0.9741211,0.034179688,0.1665039,1.159668,2.6245117,-0.18310547,0.0,0.0,0.0,7.3773193,79.53003,26.724243
1768998774046,-0.9741211,0.034179688,0.1665039,1.159668,2.6245117,-0.18310547,0.0,0.0,0.0,7.56958,79.80469,26.92749
1768998774134,-0.97314453,0.026855469,0.16601562,2.4414062,3.1738281,-0.7324219,0.0,0.0,0.0,7.56958,79.80469,26.92749
1768998774145,-0.97314453,0.026855469,0.16601562,2.4414062,3.1738281,-0.7324219,0.0,0.0,0.0,7.8881836,80.112305,27.092285
1768998774234,-0.9941406,0.022460938,0.14941406,0.0,2.4414062,0.30517578,0.0,0.0,0.0,7.8881836,80.112305,27.092285
1768998774245,-0.9941406,0.022460938,0.14941406,0.0,2.4414062,0.30517578,0.0,0.0,0.0,8.327637,80.17273,27.60315
1768998774333,-0.9794922,0.02734375,0.15429688,2.380371,1.0375977,-1.2817383,0.0,0.0,0.0,8.327637,80.17273,27.60315
1768998774345,-0.9794922,0.02734375,0.15429688,2.380371,1.0375977,-1.2817383,0.0,0.0,0.0,8.338623,80.38696,27.669067
1768998774433,-0.99072266,0.041503906,0.1616211,2.9296875,0.0,-1.7089844,0.0,0.0,0.0,8.338623,80.38696,27.669067
1768998774444,-0.99072266,0.041503906,0.1616211,2.9296875,0.0,-1.7089844,0.0,0.0,0.0,7.965088,80.354004,27.114258
1768998774533,-0.9921875,0.0234375,0.12792969,-3.479004,-1.5258789,0.12207031,0.0,0.0,0.0,7.965088,80.354004,27.114258
1768998774544,-0.9921875,0.0234375,0.12792969,-3.479004,-1.5258789,0.12207031,0.0,0.0,0.0,7.5860596,80.529785,26.625366
1768998774632,-0.99853516,0.022949219,0.15722656,-2.1362305,0.24414062,-0.48828125,0.0,0.0,0.0,7.5860596,80.529785,26.625366
1768998774644,-0.99853516,0.022949219,0.15722656,-2.1362305,0.24414062,-0.48828125,0.0,0.0,0.0,7.404785,80.53528,26.795654
1768998774732,-0.9868164,0.03125,0.1743164,1.2207031,-1.8920898,-0.061035156,0.0,0.0,0.0,7.404785,80.53528,26.795654
1768998774743,-0.9868164,0.03125,0.1743164,1.2207031,-1.8920898,-0.061035156,0.0,0.0,0.0,7.371826,80.771484,26.834106
1768998774832,-1.0151367,0.044433594,0.18652344,-3.9672852,-5.859375,1.2207031,0.0,0.0,0.0,7.371826,80.771484,26.834106
1768998774843,-1.0151367,0.044433594,0.18652344,-3.9672852,-5.859375,1.2207031,0.0,0.0,0.0,7.1136475,80.50232,26.817627
1768998774931,-0.94628906,0.016601562,0.17626953,-4.0893555,12.390137,6.225586,0.0,0.0,0.0,7.1136475,80.50232,26.817627
1768998774943,-0.94628906,0.016601562,0.17626953,-4.0893555,12.390137,6.225586,0.0,0.0,0.0,9.415283,80.24963,29.729004
1768998775031,-0.9970703,0.022460938,0.15136719,-0.7324219,3.8452148,3.2958984,0.0,0.0,0.0,9.415283,80.24963,29.729004
1768998775043,-0.9970703,0.022460938,0.15136719,-0.7324219,3.8452148,3.2958984,0.0,0.0,0.0,12.260742,80.55176,33.62915
1768998775131,-0.9902344,0.053222656,0.14013672,2.380371,3.6010742,7.9956055,0.0,0.0,0.0,12.260742,80.55176,33.62915
1768998775142,-0.9902344,0.053222656,0.14013672,2.380371,3.6010742,7.9956055,0.0,0.0,0.0,16.710205,80.71655,38.221436
1768998775231,-1.0019531,0.084472656,0.14648438,11.779785,1.159668,6.0424805,0.0,0.0,0.0,16.710205,80.71655,38.221436
1768998775242,-1.0019531,0.084472656,0.14648438,11.779785,1.159668,6.0424805,0.0,0.0,0.0,21.967163,80.57373,43.00598
1768998775330,-0.99072266,0.083984375,0.12402344,-2.319336,1.0986328,5.126953,0.0,0.0,0.0,21.967163,80.57373,43.00598
1768998775342,-0.99072266,0.083984375,0.12402344,-2.319336,1.0986328,5.126953,0.0,0.0,0.0,25.812378,80.7605,46.91162
1768998775430,-0.99121094,0.08251953,0.1328125,-0.30517578,0.6713867,-1.2817383,0.0,0.0,0.0,25.812378,80.7605,46.91162
1768998775442,-0.99121094,0.08251953,0.1328125,-0.30517578,0.6713867,-1.2817383,0.0,0.0,0.0,26.921997,80.77698,48.356323
1768998775530,-0.99560547,0.09375,0.118652344,0.18310547,-0.48828125,-4.0893555,0.0,0.0,0.0,26.921997,80.77698,48.356323
1768998775542,-0.99560547,0.09375,0.118652344,0.18310547,-0.48828125,-4.0893555,0.0,0.0,0.0,25.878296,81.06262,47.367554
1768998775629,-0.98583984,0.060058594,0.13134766,-0.061035156,0.0,-3.112793,0.0,0.0,0.0,25.878296,81.06262,47.367554
1768998775641,-0.98583984,0.060058594,0.13134766,-0.061035156,0.0,-3.112793,0.0,0.0,0.0,24.016113,81.14502,45.439453
1768998775729,-0.9868164,0.05517578,0.14111328,-1.8310547,-0.30517578,-1.8310547,0.0,0.0,0.0,24.016113,81.14502,45.439453
1768998775740,-0.9868164,0.05517578,0.14111328,-1.8310547,-0.30517578,-1.8310547,0.0,0.0,0.0,22.868042,81.276855,44.577026
1768998775829,-0.9897461,0.06298828,0.13330078,0.0,1.3427734,-0.36621094,0.0,0.0,0.0,22.868042,81.276855,44.577026
1768998775840,-0.9897461,0.06298828,0.13330078,0.0,1.3427734,-0.36621094,0.0,0.0,0.0,22.494507,81.46912,44.30237
1768998775929,-0.98583984,0.063964844,0.1328125,-1.5258789,1.7700195,0.061035156,0.0,0.0,0.0,22.494507,81.46912,44.30237
1768998775940,-0.98583984,0.063964844,0.1328125,-1.5258789,1.7700195,0.061035156,0.0,0.0,0.0,22.879028,81.65039,44.901123
1768998776028,-0.99560547,0.06542969,0.12109375,0.061035156,1.6479492,-0.6713867,0.0,0.0,0.0,22.879028,81.65039,44.901123
1768998776039,-0.99560547,0.06542969,0.12109375,0.061035156,1.6479492,-0.6713867,0.0,0.0,0.0,23.137207,81.78223,45.428467
1768998776128,-0.99121094,0.05517578,0.11230469,2.0141602,1.2207031,-0.4272461,0.0,0.0,0.0,23.137207,81.78223,45.428467
1768998776139,-0.99121094,0.05517578,0.11230469,2.0141602,1.2207031,-0.4272461,0.0,0.0,0.0,24.038086,81.89758,46.30188
1768998776227,-0.99658203,0.05419922,0.11816406,1.8310547,1.2207031,-0.4272461,0.0,0.0,0.0,24.038086,81.89758,46.30188
1768998776239,-0.99658203,0.05419922,0.11816406,1.8310547,1.2207031,-0.4272461,0.0,0.0,0.0,24.98291,82.00195,47.25769
1768998776327,-0.99121094,0.060546875,0.114746094,2.0141602,-0.18310547,-0.61035156,0.0,0.0,0.0,24.98291,82.00195,47.25769
1768998776339,-0.99121094,0.060546875,0.114746094,2.0141602,-0.18310547,-0.61035156,0.0,0.0,0.0,25.197144,82.073364,47.43347
1768998776427,-1.0,0.061035156,0.11425781,0.18310547,-0.24414062,-0.79345703,0.0,0.0,0.0,25.197144,82.073364,47.43347
1768998776438,-1.0,0.061035156,0.11425781,0.18310547,-0.24414062,-0.79345703,0.0,0.0,0.0,25.059814,82.05139,47.29065
1768998776527,-0.9975586,0.061035156,0.11621094,0.12207031,0.8544922,-0.61035156,0.0,0.0,0.0,25.059814,82.05139,47.29065
1768998776538,-0.9975586,0.061035156,0.11621094,0.12207031,0.8544922,-0.61035156,0.0,0.0,0.0,25.235596,82.1228,47.592773
1768998776626,-0.9892578,0.063964844,0.11425781,1.4038086,0.061035156,-0.36621094,0.0,0.0,0.0,25.235596,82.1228,47.592773
1768998776638,-0.9892578,0.063964844,0.11425781,1.4038086,0.061035156,-0.36621094,0.0,0.0,0.0,25.52124,82.128296,47.91687
1768998776726,-1.003418,0.056640625,0.119140625,1.4038086,0.6713867,-0.24414062,0.0,0.0,0.0,25.52124,82.128296,47.91687
1768998776737,-1.003418,0.056640625,0.119140625,1.4038086,0.6713867,-0.24414062,0.0,0.0,0.0,25.823364,82.249146,48.208008
1768998776826,-0.9785156,0.06542969,0.12548828,1.159668,2.6245117,-0.79345703,0.0,0.0,0.0,25.823364,82.249146,48.208008
1768998776837,-0.9785156,0.06542969,0.12548828,1.159668,2.6245117,-0.79345703,0.0,0.0,0.0,26.152954,82.402954,48.64746
1768998776925,-0.9946289,0.07421875,0.10839844,0.79345703,0.79345703,-0.5493164,0.0,0.0,0.0,26.152954,82.402954,48.64746
1768998776937,-0.9946289,0.07421875,0.10839844,0.79345703,0.79345703,-0.5493164,0.0,0.0,0.0,26.559448,82.55676,49.246216
1768998777025,-0.98876953,0.067871094,0.11376953,0.79345703,0.12207031,-0.48828125,0.0,0.0,0.0,26.559448,82.55676,49.246216
1768998777036,-0.98876953,0.067871094,0.11376953,0.79345703,0.12207031,-0.48828125,0.0,0.0,0.0,26.784668,82.58423,49.542847
1768998777125,-0.99072266,0.06689453,0.10205078,2.380371,-0.36621094,-1.0375977,0.0,0.0,0.0,26.784668,82.58423,49.542847
1768998777136,-0.99072266,0.06689453,0.10205078,2.380371,-0.36621094,-1.0375977,0.0,0.0,0.0,26.119995,82.65015,48.861694
1768998777224,-0.96435547,0.07080078,0.107421875,1.0986328,-0.7324219,2.1362305,0.0,0.0,0.0,26.119995,82.65015,48.861694
1768998777236,-0.96435547,0.07080078,0.107421875,1.0986328,-0.7324219,2.1362305,0.0,0.0,0.0,27.559204,82.51831,50.300903
1768998777324,-0.99902344,0.05029297,0.107421875,2.9296875,1.2207031,4.333496,0.0,0.0,0.0,27.559204,82.51831,50.300903
1768998777336,-0.99902344,0.05029297,0.107421875,2.9296875,1.2207031,4.333496,0.0,0.0,0.0,30.6958,82.38098,53.410034
1768998777424,-1.0,0.049804688,0.10595703,-2.0751953,-1.7089844,5.1879883,0.0,0.0,0.0,30.6958,82.38098,53.410034
1768998777435,-1.0,0.049804688,0.10595703,-2.0751953,-1.7089844,5.1879883,0.0,0.0,0.0,32.81067,82.11182,55.700684
1768998777523,-0.98828125,0.09326172,0.11669922,-4.9438477,-2.380371,4.272461,0.0,0.0,0.0,32.81067,82.11182,55.700684
1768998777535,-0.98828125,0.09326172,0.11669922,-4.9438477,-2.380371,4.272461,0.0,0.0,0.0,34.057617,81.87561,57.60132
1768998777623,-1.0229492,0.11279297,0.171875,-7.751465,2.1972656,-10.803223,0.0,0.0,0.0,34.057617,81.87561,57.60132
1768998777635,-1.0229492,0.11279297,0.171875,-7.751465,2.1972656,-10.803223,0.0,0.0,0.0,33.62915,81.8866,58.21106
1768998777724,-0.9926758,0.107910156,0.096191406,12.390137,5.1879883,-5.004883,0.0,0.0,0.0,33.62915,81.8866,58.21106
1768998777734,-0.9926758,0.107910156,0.096191406,12.390137,5.1879883,-5.004883,0.0,0.0,0.0,32.25586,82.43591,57.06848
1768998777823,-1.0141602,0.064941406,0.08203125,-1.0986328,7.2021484,0.12207031,0.0,0.0,0.0,32.25586,82.43591,57.06848
1768998777834,-1.0141602,0.064941406,0.08203125,-1.0986328,7.2021484,0.12207031,0.0,0.0,0.0,34.37622,82.87537,58.826294
1768998777923,-0.99853516,0.05859375,0.061523438,-6.164551,4.8217773,-2.380371,0.0,0.0,0.0,34.37622,82.87537,58.826294
1768998777934,-0.99853516,0.05859375,0.061523438,-6.164551,4.8217773,-2.380371,0.0,0.0,0.0,36.63391,83.63342,61.45752
1768998778022,-0.9814453,0.053710938,0.07861328,-7.446289,3.6621094,-2.0141602,0.0,0.0,0.0,36.63391,83.63342,61.45752
1768998778033,-0.9814453,0.053710938,0.07861328,-7.446289,3.6621094,-2.0141602,0.0,0.0,0.0,36.61194,84.177246,62.17163
1768998778122,-0.96972656,0.09472656,0.056152344,-0.5493164,2.746582,-5.3710938,0.0,0.0,0.0,36.61194,84.177246,62.17163
1768998778133,-0.96972656,0.09472656,0.056152344,-0.5493164,2.746582,-5.3710938,0.0,0.0,0.0,33.848877,84.63318,60.19409
1768998778221,-0.9760742,0.018066406,0.06933594,0.8544922,4.8828125,-2.8686523,0.0,0.0,0.0,33.848877,84.63318,60.19409
1768998778233,-0.9760742,0.018066406,0.06933594,0.8544922,4.8828125,-2.8686523,0.0,0.0,0.0,34.03015,85.00122,60.161133
1768998778321,-0.9770508,0.0546875,0.03515625,-0.36621094,0.48828125,3.540039,0.0,0.0,0.0,34.03015,85.00122,60.161133
1768998778333,-0.9770508,0.0546875,0.03515625,-0.36621094,0.48828125,3.540039,0.0,0.0,0.0,37.249146,85.12756,63.83606
1768998778421,-1.0185547,0.06689453,0.041503906,4.9438477,-11.291504,2.5634766,0.0,0.0,0.0,37.249146,85.12756,63.83606
1768998778432,-1.0185547,0.06689453,0.041503906,4.9438477,-11.291504,2.5634766,0.0,0.0,0.0,36.557007,84.55078,63.050537
1768998778520,-0.9746094,0.057128906,0.106933594,7.2631836,-7.080078,1.8920898,0.0,0.0,0.0,36.557007,84.55078,63.050537
1768998778532,-0.9746094,0.057128906,0.106933594,7.2631836,-7.080078,1.8920898,0.0,0.0,0.0,34.222412,83.47412,59.919434
1768998778620,-0.98828125,0.053710938,0.099609375,0.7324219,-0.8544922,-2.6245117,0.0,0.0,0.0,34.222412,83.47412,59.919434
1768998778632,-0.98828125,0.053710938,0.099609375,0.7324219,-0.8544922,-2.6245117,0.0,0.0,0.0,32.124023,83.012695,57.628784
1768998778720,-1.0239258,0.06347656,0.115722656,0.24414062,-1.8310547,0.24414062,0.0,0.0,0.0,32.124023,83.012695,57.628784
1768998778731,-1.0239258,0.06347656,0.115722656,0.24414062,-1.8310547,0.24414062,0.0,0.0,0.0,30.910034,82.54028,56.4093
1768998778820,-0.9975586,0.125,0.0703125,8.422852,-0.061035156,-0.5493164,0.0,0.0,0.0,30.910034,82.54028,56.4093
1768998778831,-0.9975586,0.125,0.0703125,8.422852,-0.061035156,-0.5493164,0.0,0.0,0.0,31.849365,82.74353,57.06848
1768998778919,-0.9819336,0.072753906,0.11328125,3.7841797,-2.5024414,0.8544922,0.0,0.0,0.0,31.849365,82.74353,57.06848
1768998778931,-0.9819336,0.072753906,0.11328125,3.7841797,-2.5024414,0.8544922,0.0,0.0,0.0,31.415405,82.72156,55.6073
1768998779019,-0.9814453,0.07714844,0.1352539,-1.2817383,-3.6010742,2.6855469,0.0,0.0,0.0,31.415405,82.72156,55.6073
1768998779031,-0.9814453,0.07714844,0.1352539,-1.2817383,-3.6010742,2.6855469,0.0,0.0,0.0,32.64038,82.386475,56.99707
1768998779119,-1.0053711,0.06982422,0.111816406,-4.4555664,-0.12207031,2.0751953,0.0,0.0,0.0,32.64038,82.386475,56.99707
1768998779130,-1.0053711,0.06982422,0.111816406,-4.4555664,-0.12207031,2.0751953,0.0,0.0,0.0,32.53601,81.936035,57.11792
1768998779218,-0.9741211,0.09716797,0.12158203,-1.2817383,-1.5869141,1.7700195,0.0,0.0,0.0,32.53601,81.936035,57.11792
1768998779230,-0.9741211,0.09716797,0.12158203,-1.2817383,-1.5869141,1.7700195,0.0,0.0,0.0,32.83264,81.7218,57.74414
1768998779318,-0.9941406,0.10107422,0.106933594,0.18310547,0.8544922,0.12207031,0.0,0.0,0.0,32.83264,81.7218,57.74414
1768998779329,-0.9941406,0.10107422,0.106933594,0.18310547,0.8544922,0.12207031,0.0,0.0,0.0,33.519287,81.73279,58.480225
1768998779418,-0.99121094,0.087890625,0.107910156,1.2207031,1.4648438,-0.48828125,0.0,0.0,0.0,33.519287,81.73279,58.480225
1768998779429,-0.99121094,0.087890625,0.107910156,1.2207031,1.4648438,-0.48828125,0.0,0.0,0.0,34.25537,81.77124,59.155884
1768998779517,-0.9926758,0.087890625,0.111328125,-0.24414062,0.79345703,-1.4038086,0.0,0.0,0.0,34.25537,81.77124,59.155884
1768998779529,-0.9926758,0.087890625,0.111328125,-0.24414062,0.79345703,-1.4038086,0.0,0.0,0.0,34.085083,81.90857,58.8208
1768998779617,-0.9941406,0.067871094,0.09863281,-0.18310547,0.061035156,-1.2817383,0.0,0.0,0.0,34.085083,81.90857,58.8208
1768998779628,-0.9941406,0.067871094,0.09863281,-0.18310547,0.061035156,-1.2817383,0.0,0.0,0.0,34.32129,81.968994,59.035034
1768998779717,-0.97265625,0.091308594,0.12207031,-1.6479492,1.5869141,-0.6713867,0.0,0.0,0.0,34.32129,81.968994,59.035034
1768998779728,-0.97265625,0.091308594,0.12207031,-1.6479492,1.5869141,-0.6713867,0.0,0.0,0.0,34.211426,82.08984,58.99109
1768998779816,-0.96777344,0.07128906,0.1171875,-0.48828125,0.48828125,3.0517578,0.0,0.0,0.0,34.211426,82.08984,58.99109
1768998779828,-0.96777344,0.07128906,0.1171875,-0.48828125,0.48828125,3.0517578,0.0,0.0,0.0,34.94751,82.06238,60.133667
1768998779916,-1.0175781,0.06689453,0.123535156,-2.0141602,8.239746,-0.61035156,0.0,0.0,0.0,34.94751,82.06238,60.133667
1768998779927,-1.0175781,0.06689453,0.123535156,-2.0141602,8.239746,-0.61035156,0.0,0.0,0.0,37.457886,82.33154,63.0011
1768998780016,-1.0224609,0.09765625,0.032226562,-6.1035156,-2.380371,-0.6713867,0.0,0.0,0.0,37.457886,82.33154,63.0011
1768998780028,-1.0224609,0.09765625,0.032226562,-6.1035156,-2.380371,-0.6713867,0.0,0.0,0.0,37.17224,82.64465,62.81433
1768998780115,-1.0063477,0.088378906,0.140625,-1.159668,-1.4648438,-0.91552734,0.0,0.0,0.0,37.17224,82.64465,62.81433
1768998780127,-1.0063477,0.088378906,0.140625,-1.159668,-1.4648438,-0.91552734,0.0,0.0,0.0,39.138794,82.55676,65.03906
1768998780215,-0.90966797,0.08642578,0.09033203,2.9907227,-3.6010742,-2.2583008,0.0,0.0,0.0,39.138794,82.55676,65.03906
1768998780227,-0.90966797,0.08642578,0.09033203,2.9907227,-3.6010742,-2.2583008,0.0,0.0,0.0,36.793213,82.5293,62.369385
1768998780315,-1.0766602,0.08935547,0.0546875,3.112793,-4.0283203,-2.9907227,0.0,0.0,0.0,36.793213,82.5293,62.369385
1768998780326,-1.0766602,0.08935547,0.0546875,3.112793,-4.0283203,-2.9907227,0.0,0.0,0.0,32.382202,82.35901,57.68921
1768998780415,-0.9667969,0.07080078,0.106933594,-0.9765625,-4.8828125,-3.2348633,0.0,0.0,0.0,32.382202,82.35901,57.68921
1768998780426,-0.9667969,0.07080078,0.106933594,-0.9765625,-4.8828125,-3.2348633,0.0,0.0,0.0,29.663086,82.18872,54.019775
1768998780514,-0.98583984,0.06933594,0.11816406,0.30517578,-2.1972656,-3.2348633,0.0,0.0,0.0,29.663086,82.18872,54.019775
