timestamp,accX,accY,accZ,gyroX,gyroY,gyroZ,magX,magY,magZ,roll,pitch,yaw
1766902455719,-0.7402344,-0.0703125,-0.6738281,0.7324219,0.6713867,-1.7089844,0.0,0.0,0.0,-173.69934,47.93335,168.01941
1766902455731,-0.7402344,-0.0703125,-0.6738281,0.7324219,0.6713867,-1.7089844,0.0,0.0,0.0,-173.43567,47.90039,168.21716
1766902455820,-0.75390625,-0.07080078,-0.6635742,1.2817383,0.18310547,1.0375977,0.0,0.0,0.0,-173.43567,47.90039,168.21716
1766902455830,-0.75390625,-0.07080078,-0.6635742,1.2817383,0.18310547,1.0375977,0.0,0.0,0.0,-173.4137,47.86743,168.07434
1766902455920,-0.7529297,-0.088378906,-0.6665039,2.380371,-0.18310547,-2.1362305,0.0,0.0,0.0,-173.4137,47.86743,168.07434
1766902455930,-0.7529297,-0.088378906,-0.6665039,2.380371,-0.18310547,-2.1362305,0.0,0.0,0.0,-173.0951,47.834473,168.16772
1766902456018,-0.73779297,-0.087402344,-0.6772461,1.159668,-0.061035156,-1.5258789,0.0,0.0,0.0,-173.0951,47.834473,168.16772
1766902456029,-0.73779297,-0.087402344,-0.6772461,1.159668,-0.061035156,-1.5258789,0.0,0.0,0.0,-172.6117,47.76306,168.48083
1766902456118,-0.74902344,-0.078125,-0.6660156,-1.4038086,-0.79345703,1.3427734,0.0,0.0,0.0,-172.6117,47.76306,168.48083
1766902456129,-0.74902344,-0.078125,-0.6660156,-1.4038086,-0.79345703,1.3427734,0.0,0.0,0.0,-172.71606,47.746582,168.31604
1766902456218,-0.74121094,-0.091308594,-0.66796875,-0.79345703,0.48828125,1.159668,0.0,0.0,0.0,-172.71606,47.746582,168.31604
1766902456230,-0.74121094,-0.091308594,-0.66796875,-0.79345703,0.48828125,1.159668,0.0,0.0,0.0,-172.94128,47.74109,168.07434
1766902456317,-0.74853516,-0.08300781,-0.6616211,-0.5493164,1.5258789,-0.30517578,0.0,0.0,0.0,-172.94128,47.74109,168.07434
1766902456328,-0.74853516,-0.08300781,-0.6616211,-0.5493164,1.5258789,-0.30517578,0.0,0.0,0.0,-173.11707,47.631226,167.87659
1766902456417,-0.7363281,-0.06640625,-0.67578125,0.0,2.9296875,-1.7089844,0.0,0.0,0.0,-173.11707,47.631226,167.87659
1766902456429,-0.7363281,-0.06640625,-0.67578125,0.0,2.9296875,-1.7089844,0.0,0.0,0.0,-173.07312,47.4115,167.95898
1766902456517,-0.72021484,-0.068359375,-0.6689453,3.540039,2.4414062,-1.953125,0.0,0.0,0.0,-173.07312,47.4115,167.95898
1766902456528,-0.72021484,-0.068359375,-0.6689453,3.540039,2.4414062,-1.953125,0.0,0.0,0.0,-172.6886,47.142334,168.09631
1766902456616,-0.7241211,-0.07080078,-0.6821289,11.230469,0.12207031,-2.380371,0.0,0.0,0.0,-172.6886,47.142334,168.09631
1766902456628,-0.7241211,-0.07080078,-0.6821289,11.230469,0.12207031,-2.380371,0.0,0.0,0.0,-171.83716,46.99402,168.22266
1766902456716,-0.7285156,-0.11669922,-0.67626953,11.657715,-1.5258789,-0.061035156,0.0,0.0,0.0,-171.83716,46.99402,168.22266
1766902456728,-0.7285156,-0.11669922,-0.67626953,11.657715,-1.5258789,-0.061035156,0.0,0.0,0.0,-170.54626,47.021484,168.16772
1766902456816,-0.74121094,-0.12890625,-0.6411133,7.2021484,-8.7890625,4.5776367,0.0,0.0,0.0,-170.54626,47.021484,168.16772
1766902456827,-0.74121094,-0.12890625,-0.6411133,7.2021484,-8.7890625,4.5776367,0.0,0.0,0.0,-169.42566,47.559814,168.00293
1766902456915,-0.75927734,-0.15234375,-0.6557617,5.126953,0.79345703,17.089844,0.0,0.0,0.0,-169.42566,47.559814,168.00293
1766902456927,-0.75927734,-0.15234375,-0.6557617,5.126953,0.79345703,17.089844,0.0,0.0,0.0,-170.2002,48.098145,166.33301
1766902457015,-0.8041992,-0.114746094,-0.6591797,7.385254,0.7324219,4.1503906,0.0,0.0,0.0,-170.2002,48.098145,166.33301
1766902457026,-0.8041992,-0.114746094,-0.6591797,7.385254,0.7324219,4.1503906,0.0,0.0,0.0,-170.65063,48.10913,165.2124
1766902457115,-0.7290039,-0.11328125,-0.6333008,0.061035156,6.4697266,-0.48828125,0.0,0.0,0.0,-170.65063,48.10913,165.2124
1766902457126,-0.7290039,-0.11328125,-0.6333008,0.061035156,6.4697266,-0.48828125,0.0,0.0,0.0,-170.18372,47.922363,165.98145
1766902457214,-0.76708984,-0.12890625,-0.734375,7.2631836,-2.5024414,-7.2631836,0.0,0.0,0.0,-170.18372,47.922363,165.98145
1766902457226,-0.76708984,-0.12890625,-0.734375,7.2631836,-2.5024414,-7.2631836,0.0,0.0,0.0,-169.72229,47.444458,166.88782
1766902457315,-0.65478516,-0.104003906,-0.6430664,-3.2958984,-2.8076172,3.7841797,0.0,0.0,0.0,-169.72229,47.444458,166.88782
1766902457325,-0.65478516,-0.104003906,-0.6430664,-3.2958984,-2.8076172,3.7841797,0.0,0.0,0.0,-168.46985,47.230225,168.20618
1766902457414,-0.7495117,-0.16015625,-0.6904297,5.92041,3.540039,0.18310547,0.0,0.0,0.0,-168.46985,47.230225,168.20618
1766902457425,-0.7495117,-0.16015625,-0.6904297,5.92041,3.540039,0.18310547,0.0,0.0,0.0,-169.06311,47.373047,167.60742
1766902457513,-0.7519531,-0.14892578,-0.6542969,-0.7324219,-2.319336,-2.5634766,0.0,0.0,0.0,-169.06311,47.373047,167.60742
1766902457525,-0.7519531,-0.14892578,-0.6542969,-0.7324219,-2.319336,-2.5634766,0.0,0.0,0.0,-168.59619,47.20276,168.04688
1766902457613,-0.7260742,-0.13671875,-0.6821289,0.7324219,3.2348633,0.36621094,0.0,0.0,0.0,-168.59619,47.20276,168.04688
1766902457625,-0.7260742,-0.13671875,-0.6821289,0.7324219,3.2348633,0.36621094,0.0,0.0,0.0,-168.31055,47.092896,168.65662
1766902457713,-0.75683594,-0.14160156,-0.67041016,-3.4179688,-0.91552734,0.48828125,0.0,0.0,0.0,-168.31055,47.092896,168.65662
1766902457724,-0.75683594,-0.14160156,-0.67041016,-3.4179688,-0.91552734,0.48828125,0.0,0.0,0.0,-168.4259,46.966553,168.76648
1766902457813,-0.71875,-0.14453125,-0.65966797,-0.61035156,7.2021484,-0.7324219,0.0,0.0,0.0,-168.4259,46.966553,168.76648
1766902457824,-0.71875,-0.14453125,-0.65966797,-0.61035156,7.2021484,-0.7324219,0.0,0.0,0.0,-168.92029,46.78528,168.9972
1766902457912,-0.73046875,-0.12890625,-0.67871094,-2.1972656,0.48828125,0.24414062,0.0,0.0,0.0,-168.92029,46.78528,168.9972
1766902457924,-0.73046875,-0.12890625,-0.67871094,-2.1972656,0.48828125,0.24414062,0.0,0.0,0.0,-169.04663,46.505127,169.2334
1766902458012,-0.7602539,-0.12207031,-0.68115234,-1.0375977,-2.319336,1.3427734,0.0,0.0,0.0,-169.04663,46.505127,169.2334
1766902458024,-0.7602539,-0.12207031,-0.68115234,-1.0375977,-2.319336,1.3427734,0.0,0.0,0.0,-169.16748,46.625977,169.35974
1766902458112,-0.7060547,-0.1274414,-0.6699219,0.7324219,-0.61035156,0.0,0.0,0.0,0.0,-169.16748,46.625977,169.35974
1766902458123,-0.7060547,-0.1274414,-0.6699219,0.7324219,-0.61035156,0.0,0.0,0.0,0.0,-169.23889,46.724854,169.3982
1766902458212,-0.74365234,-0.125,-0.68310547,2.5024414,-1.5869141,-0.48828125,0.0,0.0,0.0,-169.23889,46.724854,169.3982
1766902458223,-0.74365234,-0.125,-0.68310547,2.5024414,-1.5869141,-0.48828125,0.0,0.0,0.0,-168.97522,46.73584,169.51904
1766902458311,-0.7324219,-0.1484375,-0.68066406,1.7089844,-0.79345703,-0.61035156,0.0,0.0,0.0,-168.97522,46.73584,169.51904
1766902458323,-0.7324219,-0.1484375,-0.68066406,1.7089844,-0.79345703,-0.61035156,0.0,0.0,0.0,-168.66211,46.763306,169.76624
1766902458411,-0.73828125,-0.13574219,-0.6669922,-5.554199,-3.2958984,2.2583008,0.0,0.0,0.0,-168.66211,46.763306,169.76624
1766902458422,-0.73828125,-0.13574219,-0.6669922,-5.554199,-3.2958984,2.2583008,0.0,0.0,0.0,-168.71704,46.862183,169.86511
1766902458510,-0.7338867,-0.12207031,-0.66796875,-0.24414062,1.4038086,0.36621094,0.0,0.0,0.0,-168.71704,46.862183,169.86511
1766902458523,-0.7338867,-0.12207031,-0.66796875,-0.24414062,1.4038086,0.36621094,0.0,0.0,0.0,-169.18396,47.131348,169.85413
1766902458610,-0.7402344,-0.13085938,-0.6665039,2.380371,2.380371,-0.9765625,0.0,0.0,0.0,-169.18396,47.131348,169.85413
1766902458622,-0.7402344,-0.13085938,-0.6665039,2.380371,2.380371,-0.9765625,0.0,0.0,0.0,-169.00269,46.933594,169.953
1766902458710,-0.73339844,-0.1430664,-0.67822266,1.6479492,1.5869141,-1.3427734,0.0,0.0,0.0,-169.00269,46.933594,169.953
1766902458721,-0.73339844,-0.1430664,-0.67822266,1.6479492,1.5869141,-1.3427734,0.0,0.0,0.0,-168.71155,46.64795,170.21667
1766902458810,-0.71875,-0.1303711,-0.66552734,0.61035156,0.5493164,-0.79345703,0.0,0.0,0.0,-168.71155,46.64795,170.21667
1766902458821,-0.71875,-0.1303711,-0.66552734,0.61035156,0.5493164,-0.79345703,0.0,0.0,0.0,-168.44238,46.49414,170.46387
1766902458909,-0.7416992,-0.1381836,-0.68115234,1.7700195,2.9296875,-0.4272461,0.0,0.0,0.0,-168.44238,46.49414,170.46387
1766902458921,-0.7416992,-0.1381836,-0.68115234,1.7700195,2.9296875,-0.4272461,0.0,0.0,0.0,-168.31055,46.38977,170.56274
1766902459009,-0.70703125,-0.14453125,-0.67529297,2.1972656,1.8310547,-0.5493164,0.0,0.0,0.0,-168.31055,46.38977,170.56274
1766902459021,-0.70703125,-0.14453125,-0.67529297,2.1972656,1.8310547,-0.5493164,0.0,0.0,0.0,-168.14575,46.137085,170.57922
1766902459109,-0.70996094,-0.15234375,-0.64990234,0.30517578,-0.12207031,-0.061035156,0.0,0.0,0.0,-168.14575,46.137085,170.57922
1766902459120,-0.70996094,-0.15234375,-0.64990234,0.30517578,-0.12207031,-0.061035156,0.0,0.0,0.0,-167.92053,46.071167,170.54077
1766902459208,-0.7270508,-0.140625,-0.6855469,-2.6855469,-3.3569336,1.7089844,0.0,0.0,0.0,-167.92053,46.071167,170.54077
1766902459220,-0.7270508,-0.140625,-0.6855469,-2.6855469,-3.3569336,1.7089844,0.0,0.0,0.0,-168.19519,46.45569,170.4364
1766902459308,-0.7446289,-0.14208984,-0.6694336,-1.2207031,0.6713867,1.3427734,0.0,0.0,0.0,-168.19519,46.45569,170.4364
1766902459320,-0.7446289,-0.14208984,-0.6694336,-1.2207031,0.6713867,1.3427734,0.0,0.0,0.0,-168.45886,46.46118,170.17822
1766902459408,-0.7475586,-0.10888672,-0.68310547,3.540039,2.6855469,-0.18310547,0.0,0.0,0.0,-168.45886,46.46118,170.17822
1766902459419,-0.7475586,-0.10888672,-0.68310547,3.540039,2.6855469,-0.18310547,0.0,0.0,0.0,-168.37646,46.384277,170.21667
1766902459508,-0.69873047,-0.15283203,-0.6352539,3.7231445,4.272461,0.91552734,0.0,0.0,0.0,-168.37646,46.384277,170.21667
1766902459519,-0.69873047,-0.15283203,-0.6352539,3.7231445,4.272461,0.91552734,0.0,0.0,0.0,-168.33801,46.203003,170.05188
1766902459608,-0.7216797,-0.13378906,-0.69433594,-1.4648438,-1.8310547,-0.4272461,0.0,0.0,0.0,-168.33801,46.203003,170.05188
1766902459619,-0.7216797,-0.13378906,-0.69433594,-1.4648438,-1.8310547,-0.4272461,0.0,0.0,0.0,-168.37646,46.25244,170.13977
1766902459708,-0.7285156,-0.14208984,-0.6777344,0.12207031,-0.24414062,-0.061035156,0.0,0.0,0.0,-168.37646,46.25244,170.13977
1766902459719,-0.7285156,-0.14208984,-0.6777344,0.12207031,-0.24414062,-0.061035156,0.0,0.0,0.0,-168.46985,46.219482,170.0299
1766902459807,-0.7314453,-0.14160156,-0.68066406,-0.48828125,-0.9765625,0.79345703,0.0,0.0,0.0,-168.46985,46.219482,170.0299
1766902459818,-0.7314453,-0.14160156,-0.68066406,-0.48828125,-0.9765625,0.79345703,0.0,0.0,0.0,-168.49182,46.279907,169.98596
1766902459906,-0.7246094,-0.14013672,-0.67529297,0.79345703,0.61035156,-1.4648438,0.0,0.0,0.0,-168.49182,46.279907,169.98596
1766902459918,-0.7246094,-0.14013672,-0.67529297,0.79345703,0.61035156,-1.4648438,0.0,0.0,0.0,-168.3435,46.175537,170.05188
1766902460007,-0.7373047,-0.13427734,-0.68066406,0.4272461,0.6713867,0.30517578,0.0,0.0,0.0,-168.3435,46.175537,170.05188
1766902460018,-0.7373047,-0.13427734,-0.68066406,0.4272461,0.6713867,0.30517578,0.0,0.0,0.0,-168.24463,46.19751,170.07385
1766902460106,-0.7236328,-0.1430664,-0.6713867,1.4648438,0.6713867,-0.8544922,0.0,0.0,0.0,-168.24463,46.19751,170.07385
1766902460117,-0.7236328,-0.1430664,-0.6713867,1.4648438,0.6713867,-0.8544922,0.0,0.0,0.0,-168.09631,46.13159,170.08484
1766902460206,-0.71972656,-0.1430664,-0.66845703,0.24414062,0.9765625,-0.8544922,0.0,0.0,0.0,-168.09631,46.13159,170.08484
1766902460217,-0.71972656,-0.1430664,-0.66845703,0.24414062,0.9765625,-0.8544922,0.0,0.0,0.0,-167.83813,46.087646,170.15625
1766902460305,-0.7158203,-0.14501953,-0.67041016,-0.30517578,0.36621094,0.0,0.0,0.0,0.0,-167.83813,46.087646,170.15625
1766902460317,-0.7158203,-0.14501953,-0.67041016,-0.30517578,0.36621094,0.0,0.0,0.0,0.0,-167.80518,46.0437,170.16174
1766902460405,-0.72509766,-0.14550781,-0.67529297,-0.48828125,-1.2207031,0.8544922,0.0,0.0,0.0,-167.80518,46.0437,170.16174
1766902460417,-0.72509766,-0.14550781,-0.67529297,-0.48828125,-1.2207031,0.8544922,0.0,0.0,0.0,-167.8656,46.09314,170.01343
1766902460505,-0.72998047,-0.14453125,-0.6738281,-0.7324219,-1.4648438,0.48828125,0.0,0.0,0.0,-167.8656,46.09314,170.01343
1766902460516,-0.72998047,-0.14453125,-0.6738281,-0.7324219,-1.4648438,0.48828125,0.0,0.0,0.0,-167.98645,46.24695,169.88159
1766902460604,-0.7270508,-0.14208984,-0.67089844,-0.7324219,-1.5869141,0.48828125,0.0,0.0,0.0,-167.98645,46.24695,169.88159
1766902460616,-0.7270508,-0.14208984,-0.67089844,-0.7324219,-1.5869141,0.48828125,0.0,0.0,0.0,-168.0304,46.38977,169.83765
1766902460704,-0.73876953,-0.14160156,-0.68310547,-0.5493164,-1.159668,0.30517578,0.0,0.0,0.0,-168.0304,46.38977,169.83765
1766902460717,-0.73876953,-0.14160156,-0.68310547,-0.5493164,-1.159668,0.30517578,0.0,0.0,0.0,-168.09631,46.532593,169.81018
1766902460804,-0.7314453,-0.14941406,-0.67529297,1.5869141,0.48828125,-0.48828125,0.0,0.0,0.0,-168.09631,46.532593,169.81018
1766902460815,-0.7314453,-0.14941406,-0.67529297,1.5869141,0.48828125,-0.48828125,0.0,0.0,0.0,-167.99744,46.46118,169.82666
1766902460904,-0.7363281,-0.14111328,-0.6767578,-1.2207031,0.12207031,-0.18310547,0.0,0.0,0.0,-167.99744,46.46118,169.82666
1766902460915,-0.7363281,-0.14111328,-0.6767578,-1.2207031,0.12207031,-0.18310547,0.0,0.0,0.0,-167.93701,46.411743,169.89807
1766902461003,-0.72265625,-0.14550781,-0.6743164,0.5493164,1.2207031,-0.24414062,0.0,0.0,0.0,-167.93701,46.411743,169.89807
1766902461015,-0.72265625,-0.14550781,-0.6743164,0.5493164,1.2207031,-0.24414062,0.0,0.0,0.0,-167.92603,46.340332,169.93103
1766902461103,-0.72802734,-0.14648438,-0.66796875,0.0,0.9765625,0.0,0.0,0.0,0.0,-167.92603,46.340332,169.93103
1766902461114,-0.72802734,-0.14648438,-0.66796875,0.0,0.9765625,0.0,0.0,0.0,0.0,-167.88208,46.26892,169.89258
1766902461203,-0.7265625,-0.1459961,-0.6801758,0.24414062,0.5493164,-0.12207031,0.0,0.0,0.0,-167.88208,46.26892,169.89258
1766902461214,-0.7265625,-0.1459961,-0.6801758,0.24414062,0.5493164,-0.12207031,0.0,0.0,0.0,-167.8601,46.224976,169.92004
1766902461302,-0.72753906,-0.1484375,-0.67285156,0.36621094,1.5869141,-0.18310547,0.0,0.0,0.0,-167.8601,46.224976,169.92004
1766902461314,-0.72753906,-0.1484375,-0.67285156,0.36621094,1.5869141,-0.18310547,0.0,0.0,0.0,-167.80518,46.1261,169.89258
1766902461402,-0.7246094,-0.1484375,-0.6816406,1.0986328,1.8310547,-0.4272461,0.0,0.0,0.0,-167.80518,46.1261,169.89258
1766902461413,-0.7246094,-0.1484375,-0.6816406,1.0986328,1.8310547,-0.4272461,0.0,0.0,0.0,-167.72827,45.983276,169.85413
1766902461502,-0.71777344,-0.14550781,-0.68066406,1.7089844,2.8076172,-0.61035156,0.0,0.0,0.0,-167.72827,45.983276,169.85413
1766902461513,-0.71777344,-0.14550781,-0.68066406,1.7089844,2.8076172,-0.61035156,0.0,0.0,0.0,-167.55249,45.74707,169.76624
1766902461601,-0.71972656,-0.15332031,-0.68896484,1.5258789,4.638672,-1.159668,0.0,0.0,0.0,-167.55249,45.74707,169.76624
1766902461613,-0.71972656,-0.15332031,-0.68896484,1.5258789,4.638672,-1.159668,0.0,0.0,0.0,-167.42615,45.390015,169.65637
1766902461701,-0.71484375,-0.15771484,-0.6899414,0.6713867,1.2817383,-0.18310547,0.0,0.0,0.0,-167.42615,45.390015,169.65637
1766902461713,-0.71484375,-0.15771484,-0.6899414,0.6713867,1.2817383,-0.18310547,0.0,0.0,0.0,-167.23938,45.060425,169.50256
1766902461801,-0.7138672,-0.16015625,-0.69091797,0.5493164,2.4414062,-0.61035156,0.0,0.0,0.0,-167.23938,45.060425,169.50256
1766902461812,-0.7138672,-0.16015625,-0.69091797,0.5493164,2.4414062,-0.61035156,0.0,0.0,0.0,-167.19543,44.857178,169.25537
1766902461901,-0.6982422,-0.1586914,-0.6855469,1.2817383,1.2817383,-0.79345703,0.0,0.0,0.0,-167.19543,44.857178,169.25537
1766902461912,-0.6982422,-0.1586914,-0.6855469,1.2817383,1.2817383,-0.79345703,0.0,0.0,0.0,-166.9867,44.61548,169.04114
1766902462000,-0.6972656,-0.1586914,-0.6791992,-1.0375977,-1.3427734,0.5493164,0.0,0.0,0.0,-166.9867,44.61548,169.04114
1766902462012,-0.6972656,-0.1586914,-0.6791992,-1.0375977,-1.3427734,0.5493164,0.0,0.0,0.0,-166.95374,44.609985,168.71155
1766902462100,-0.7089844,-0.1640625,-0.69677734,-0.5493164,-1.8920898,0.36621094,0.0,0.0,0.0,-166.95374,44.609985,168.71155
1766902462111,-0.7089844,-0.1640625,-0.69677734,-0.5493164,-1.8920898,0.36621094,0.0,0.0,0.0,-167.10205,44.857178,168.31604
1766902462200,-0.71728516,-0.15527344,-0.68847656,-1.953125,-2.1972656,0.5493164,0.0,0.0,0.0,-167.10205,44.857178,168.31604
1766902462211,-0.71728516,-0.15527344,-0.68847656,-1.953125,-2.1972656,0.5493164,0.0,0.0,0.0,-167.13501,44.98352,167.99744
1766902462301,-0.7138672,-0.15478516,-0.69140625,-1.4038086,-2.319336,0.8544922,0.0,0.0,0.0,-167.13501,44.98352,167.99744
1766902462311,-0.7138672,-0.15478516,-0.69140625,-1.4038086,-2.319336,0.8544922,0.0,0.0,0.0,-167.3053,45.20874,167.72827
1766902462399,-0.7114258,-0.15039062,-0.6777344,-0.9765625,-1.953125,0.91552734,0.0,0.0,0.0,-167.3053,45.20874,167.72827
1766902462411,-0.7114258,-0.15039062,-0.6777344,-0.9765625,-1.953125,0.91552734,0.0,0.0,0.0,-167.43164,45.428467,167.48657
1766902462499,-0.72216797,-0.15185547,-0.6870117,-0.6713867,-2.0141602,0.36621094,0.0,0.0,0.0,-167.43164,45.428467,167.48657
1766902462510,-0.72216797,-0.15185547,-0.6870117,-0.6713867,-2.0141602,0.36621094,0.0,0.0,0.0,-167.57446,45.703125,167.34375
1766902462598,-0.72216797,-0.14794922,-0.6743164,-1.2817383,-2.0141602,0.48828125,0.0,0.0,0.0,-167.57446,45.703125,167.34375
1766902462610,-0.72216797,-0.14794922,-0.6743164,-1.2817383,-2.0141602,0.48828125,0.0,0.0,0.0,-167.64038,45.91736,167.27783
1766902462698,-0.7285156,-0.14501953,-0.67578125,-1.5258789,-1.5258789,0.5493164,0.0,0.0,0.0,-167.64038,45.91736,167.27783
1766902462710,-0.7285156,-0.14501953,-0.67578125,-1.5258789,-1.5258789,0.5493164,0.0,0.0,0.0,-167.73926,46.14807,167.25586
1766902462798,-0.72998047,-0.14453125,-0.66259766,-0.61035156,-1.8920898,0.0,0.0,0.0,0.0,-167.73926,46.14807,167.25586
1766902462810,-0.72998047,-0.14453125,-0.66259766,-0.61035156,-1.8920898,0.0,0.0,0.0,0.0,-167.7063,46.323853,167.31628
1766902462898,-0.73046875,-0.14013672,-0.6723633,-1.8920898,-2.0751953,0.79345703,0.0,0.0,0.0,-167.7063,46.323853,167.31628
1766902462909,-0.73046875,-0.14013672,-0.6723633,-1.8920898,-2.0751953,0.79345703,0.0,0.0,0.0,-167.87659,46.587524,167.41516
1766902462997,-0.73535156,-0.14160156,-0.66748047,-1.0986328,-2.1362305,0.91552734,0.0,0.0,0.0,-167.87659,46.587524,167.41516
1766902463010,-0.73535156,-0.14160156,-0.66748047,-1.0986328,-2.1362305,0.91552734,0.0,0.0,0.0,-168.0249,46.80725,167.4646
1766902463097,-0.74560547,-0.13671875,-0.66552734,-1.0375977,-2.1362305,0.48828125,0.0,0.0,0.0,-168.0249,46.80725,167.4646
1766902463108,-0.74560547,-0.13671875,-0.66552734,-1.0375977,-2.1362305,0.48828125,0.0,0.0,0.0,-168.07983,47.010498,167.64587
1766902463197,-0.7397461,-0.1381836,-0.66259766,-0.18310547,0.12207031,0.18310547,0.0,0.0,0.0,-168.07983,47.010498,167.64587
1766902463208,-0.7397461,-0.1381836,-0.66259766,-0.18310547,0.12207031,0.18310547,0.0,0.0,0.0,-168.14575,47.13684,167.84363
1766902463297,-0.74072266,-0.13720703,-0.6621094,-0.48828125,-0.61035156,0.30517578,0.0,0.0,0.0,-168.14575,47.13684,167.84363
1766902463308,-0.74072266,-0.13720703,-0.6621094,-0.48828125,-0.61035156,0.30517578,0.0,0.0,0.0,-168.17322,47.147827,168.04688
1766902463396,-0.7421875,-0.14160156,-0.67089844,-0.061035156,-1.5869141,0.30517578,0.0,0.0,0.0,-168.17322,47.147827,168.04688
1766902463408,-0.7421875,-0.14160156,-0.67089844,-0.061035156,-1.5869141,0.30517578,0.0,0.0,0.0,-168.19519,47.263184,168.2721
1766902463496,-0.7421875,-0.13769531,-0.66503906,-1.2207031,-0.6713867,0.7324219,0.0,0.0,0.0,-168.19519,47.263184,168.2721
1766902463507,-0.7421875,-0.13769531,-0.66503906,-1.2207031,-0.6713867,0.7324219,0.0,0.0,0.0,-168.26111,47.318115,168.48633
1766902463596,-0.73876953,-0.1352539,-0.66503906,-0.61035156,-0.8544922,0.18310547,0.0,0.0,0.0,-168.26111,47.318115,168.48633
1766902463607,-0.73876953,-0.1352539,-0.66503906,-0.61035156,-0.8544922,0.18310547,0.0,0.0,0.0,-168.33801,47.384033,168.7445
1766902463695,-0.7446289,-0.1352539,-0.65966797,-0.7324219,-0.48828125,0.24414062,0.0,0.0,0.0,-168.33801,47.384033,168.7445
1766902463707,-0.7446289,-0.1352539,-0.65966797,-0.7324219,-0.48828125,0.24414062,0.0,0.0,0.0,-168.38196,47.43347,169.00818
1766902463795,-0.7480469,-0.13378906,-0.6640625,-1.7089844,-0.91552734,0.061035156,0.0,0.0,0.0,-168.38196,47.43347,169.00818
1766902463807,-0.7480469,-0.13378906,-0.6640625,-1.7089844,-0.91552734,0.061035156,0.0,0.0,0.0,-168.48633,47.54883,169.27734
1766902463895,-0.7470703,-0.12890625,-0.65771484,-2.380371,-0.30517578,0.6713867,0.0,0.0,0.0,-168.48633,47.54883,169.27734
1766902463906,-0.7470703,-0.12890625,-0.65771484,-2.380371,-0.30517578,0.6713867,0.0,0.0,0.0,-168.7555,47.614746,169.45862
1766902463994,-0.74560547,-0.12646484,-0.65478516,-1.7089844,0.91552734,0.30517578,0.0,0.0,0.0,-168.7555,47.614746,169.45862
1766902464006,-0.74560547,-0.12646484,-0.65478516,-1.7089844,0.91552734,0.30517578,0.0,0.0,0.0,-168.95874,47.598267,169.64539
1766902464094,-0.74560547,-0.12451172,-0.6538086,-0.6713867,0.48828125,0.24414062,0.0,0.0,0.0,-168.95874,47.598267,169.64539
1766902464106,-0.74560547,-0.12451172,-0.6538086,-0.6713867,0.48828125,0.24414062,0.0,0.0,0.0,-169.01367,47.598267,169.85413
1766902464194,-0.7368164,-0.12451172,-0.6567383,-0.18310547,1.0375977,-0.18310547,0.0,0.0,0.0,-169.01367,47.598267,169.85413
1766902464205,-0.7368164,-0.12451172,-0.6567383,-0.18310547,1.0375977,-0.18310547,0.0,0.0,0.0,-169.07959,47.54883,170.10132
1766902464294,-0.7397461,-0.12451172,-0.64990234,-0.061035156,0.5493164,-0.30517578,0.0,0.0,0.0,-169.07959,47.54883,170.10132
1766902464305,-0.7397461,-0.12451172,-0.64990234,-0.061035156,0.5493164,-0.30517578,0.0,0.0,0.0,-169.00818,47.51587,170.3595
1766902464393,-0.7470703,-0.13476562,-0.6689453,0.12207031,-0.61035156,0.0,0.0,0.0,0.0,-169.00818,47.51587,170.3595
1766902464405,-0.7470703,-0.13476562,-0.6689453,0.12207031,-0.61035156,0.0,0.0,0.0,0.0,-168.95874,47.576294,170.60669
1766902464493,-0.71777344,-0.12890625,-0.65527344,1.7700195,2.5024414,-1.3427734,0.0,0.0,0.0,-168.95874,47.576294,170.60669
1766902464505,-0.71777344,-0.12890625,-0.65527344,1.7700195,2.5024414,-1.3427734,0.0,0.0,0.0,-168.88733,47.48291,170.77698
1766902464593,-0.77001953,-0.11767578,-0.65185547,3.479004,0.8544922,-0.48828125,0.0,0.0,0.0,-168.88733,47.48291,170.77698
1766902464604,-0.77001953,-0.11767578,-0.65185547,3.479004,0.8544922,-0.48828125,0.0,0.0,0.0,-168.64563,47.55432,170.98022
1766902464692,-0.71972656,-0.14111328,-0.65625,3.90625,2.1972656,-2.0141602,0.0,0.0,0.0,-168.64563,47.55432,170.98022
1766902464704,-0.71972656,-0.14111328,-0.65625,3.90625,2.1972656,-2.0141602,0.0,0.0,0.0,-168.05237,47.406006,171.44714
1766902464792,-0.7451172,-0.140625,-0.66015625,-0.36621094,0.30517578,0.48828125,0.0,0.0,0.0,-168.05237,47.406006,171.44714
1766902464804,-0.7451172,-0.140625,-0.66015625,-0.36621094,0.30517578,0.48828125,0.0,0.0,0.0,-167.95898,47.42798,171.61743
1766902464892,-0.7446289,-0.14355469,-0.66845703,0.0,0.48828125,0.18310547,0.0,0.0,0.0,-167.95898,47.42798,171.61743
1766902464904,-0.7446289,-0.14355469,-0.66845703,0.0,0.48828125,0.18310547,0.0,0.0,0.0,-167.93152,47.340088,171.69983
1766902464992,-0.74072266,-0.13769531,-0.66064453,0.0,0.8544922,0.36621094,0.0,0.0,0.0,-167.93152,47.340088,171.69983
1766902465004,-0.74072266,-0.13769531,-0.66064453,0.0,0.8544922,0.36621094,0.0,0.0,0.0,-167.98096,47.279663,171.73279
1766902465091,-0.7265625,-0.13330078,-0.65771484,-1.3427734,1.4648438,2.8686523,0.0,0.0,0.0,-167.98096,47.279663,171.73279
1766902465103,-0.7265625,-0.13330078,-0.65771484,-1.3427734,1.4648438,2.8686523,0.0,0.0,0.0,-168.15674,47.24121,171.62292
1766902465191,-0.7128906,-0.12890625,-0.67089844,1.6479492,2.5024414,7.873535,0.0,0.0,0.0,-168.15674,47.24121,171.62292
1766902465203,-0.7128906,-0.12890625,-0.67089844,1.6479492,2.5024414,7.873535,0.0,0.0,0.0,-168.70056,46.972046,170.95276
1766902465291,-0.7792969,-0.12792969,-0.66308594,-2.0141602,4.699707,3.112793,0.0,0.0,0.0,-168.70056,46.972046,170.95276
1766902465302,-0.7792969,-0.12792969,-0.66308594,-2.0141602,4.699707,3.112793,0.0,0.0,0.0,-169.40918,46.708374,169.93652
1766902465390,-0.73339844,-0.12548828,-0.6791992,-2.746582,-1.2817383,-1.8310547,0.0,0.0,0.0,-169.40918,46.708374,169.93652
1766902465402,-0.73339844,-0.12548828,-0.6791992,-2.746582,-1.2817383,-1.8310547,0.0,0.0,0.0,-169.57947,46.642456,170.13977
1766902465490,-0.71972656,-0.11621094,-0.67333984,3.2958984,1.5258789,-2.9907227,0.0,0.0,0.0,-169.57947,46.642456,170.13977
1766902465502,-0.71972656,-0.11621094,-0.67333984,3.2958984,1.5258789,-2.9907227,0.0,0.0,0.0,-169.26086,46.587524,170.55725
1766902465590,-0.7290039,-0.13085938,-0.6801758,-0.6713867,-0.4272461,1.4038086,0.0,0.0,0.0,-169.26086,46.587524,170.55725
1766902465601,-0.7290039,-0.13085938,-0.6801758,-0.6713867,-0.4272461,1.4038086,0.0,0.0,0.0,-168.97522,46.5271,170.59021
1766902465689,-0.7211914,-0.13183594,-0.6713867,-0.30517578,1.8310547,0.061035156,0.0,0.0,0.0,-168.97522,46.5271,170.59021
1766902465701,-0.7211914,-0.13183594,-0.6713867,-0.30517578,1.8310547,0.061035156,0.0,0.0,0.0,-169.12354,46.417236,170.34851
1766902465789,-0.7373047,-0.12597656,-0.6855469,-0.30517578,1.8920898,-0.4272461,0.0,0.0,0.0,-169.12354,46.417236,170.34851
1766902465801,-0.7373047,-0.12597656,-0.6855469,-0.30517578,1.8920898,-0.4272461,0.0,0.0,0.0,-169.18396,46.290894,170.29358
1766902465889,-0.7446289,-0.1352539,-0.671875,-0.7324219,-0.6713867,-0.12207031,0.0,0.0,0.0,-169.18396,46.290894,170.29358
1766902465900,-0.7446289,-0.1352539,-0.671875,-0.7324219,-0.6713867,-0.12207031,0.0,0.0,0.0,-169.23889,46.137085,170.15625
1766902465989,-0.6875,-0.11669922,-0.69433594,-0.79345703,-0.6713867,-0.6713867,0.0,0.0,0.0,-169.23889,46.137085,170.15625
1766902466000,-0.6875,-0.11669922,-0.69433594,-0.79345703,-0.6713867,-0.6713867,0.0,0.0,0.0,-169.2334,46.071167,170.33203
1766902466088,-0.76904297,-0.12060547,-0.6743164,-2.1972656,0.36621094,1.5869141,0.0,0.0,0.0,-169.2334,46.071167,170.33203
1766902466100,-0.76904297,-0.12060547,-0.6743164,-2.1972656,0.36621094,1.5869141,0.0,0.0,0.0,-169.43665,46.14807,169.98596
1766902466188,-0.70654297,-0.14257812,-0.67333984,0.24414062,-0.9765625,1.0986328,0.0,0.0,0.0,-169.43665,46.14807,169.98596
1766902466199,-0.70654297,-0.14257812,-0.67333984,0.24414062,-0.9765625,1.0986328,0.0,0.0,0.0,-169.44214,46.153564,169.8761
1766902466288,-0.7192383,-0.118652344,-0.6879883,0.79345703,1.5258789,-0.91552734,0.0,0.0,0.0,-169.44214,46.153564,169.8761
1766902466299,-0.7192383,-0.118652344,-0.6879883,0.79345703,1.5258789,-0.91552734,0.0,0.0,0.0,-169.49158,46.1261,169.77722
1766902466387,-0.7451172,-0.119140625,-0.67089844,-1.4038086,1.5258789,0.6713867,0.0,0.0,0.0,-169.49158,46.1261,169.77722
1766902466399,-0.7451172,-0.119140625,-0.67089844,-1.4038086,1.5258789,0.6713867,0.0,0.0,0.0,-169.54651,46.038208,169.66187
1766902466487,-0.72753906,-0.13574219,-0.6743164,-0.91552734,2.0141602,1.0986328,0.0,0.0,0.0,-169.54651,46.038208,169.66187
1766902466499,-0.72753906,-0.13574219,-0.6743164,-0.91552734,2.0141602,1.0986328,0.0,0.0,0.0,-169.57947,45.95581,169.65088
1766902466587,-0.70947266,-0.12646484,-0.67626953,0.9765625,0.61035156,-0.48828125,0.0,0.0,0.0,-169.57947,45.95581,169.65088
1766902466598,-0.70947266,-0.12646484,-0.67626953,0.9765625,0.61035156,-0.48828125,0.0,0.0,0.0,-169.56299,45.878906,169.66736
1766902466686,-0.7416992,-0.12451172,-0.6845703,-0.36621094,0.18310547,-0.79345703,0.0,0.0,0.0,-169.56299,45.878906,169.66736
1766902466698,-0.7416992,-0.12451172,-0.6845703,-0.36621094,0.18310547,-0.79345703,0.0,0.0,0.0,-169.6344,45.999756,169.69482
1766902466786,-0.71484375,-0.11767578,-0.68359375,-0.12207031,-0.4272461,-1.0375977,0.0,0.0,0.0,-169.6344,45.999756,169.69482
1766902466798,-0.71484375,-0.11767578,-0.68359375,-0.12207031,-0.4272461,-1.0375977,0.0,0.0,0.0,-169.41467,45.977783,169.90906
1766902466886,-0.7421875,-0.12695312,-0.6899414,1.7700195,-1.4038086,-1.953125,0.0,0.0,0.0,-169.41467,45.977783,169.90906
1766902466898,-0.7421875,-0.12695312,-0.6899414,1.7700195,-1.4038086,-1.953125,0.0,0.0,0.0,-169.151,46.071167,170.07935
1766902466986,-0.7084961,-0.12890625,-0.67871094,4.1503906,-1.5258789,-3.90625,0.0,0.0,0.0,-169.151,46.071167,170.07935
1766902466997,-0.7084961,-0.12890625,-0.67871094,4.1503906,-1.5258789,-3.90625,0.0,0.0,0.0,-168.56323,46.16455,170.56274
1766902467085,-0.8120117,-0.15722656,-0.6850586,1.6479492,1.4038086,0.4272461,0.0,0.0,0.0,-168.56323,46.16455,170.56274
1766902467097,-0.8120117,-0.15722656,-0.6850586,1.6479492,1.4038086,0.4272461,0.0,0.0,0.0,-168.12927,46.296387,170.63416
1766902467185,-0.60302734,-0.17333984,-0.6464844,-1.0986328,3.7841797,-4.333496,0.0,0.0,0.0,-168.12927,46.296387,170.63416
1766902467196,-0.60302734,-0.17333984,-0.6464844,-1.0986328,3.7841797,-4.333496,0.0,0.0,0.0,-167.76672,45.928345,171.40869
1766902467285,-0.78515625,-0.12158203,-0.71484375,-1.0375977,-2.4414062,1.159668,0.0,0.0,0.0,-167.76672,45.928345,171.40869
1766902467298,-0.78515625,-0.12158203,-0.71484375,-1.0375977,-2.4414062,1.159668,0.0,0.0,0.0,-168.16772,46.104126,171.14502
1766902467384,-0.7338867,-0.1328125,-0.67529297,-0.30517578,-0.30517578,1.5258789,0.0,0.0,0.0,-168.16772,46.104126,171.14502
1766902467396,-0.7338867,-0.1328125,-0.67529297,-0.30517578,-0.30517578,1.5258789,0.0,0.0,0.0,-167.96997,45.999756,171.19446
1766902467485,-0.7133789,-0.16064453,-0.67041016,-1.0375977,0.36621094,0.91552734,0.0,0.0,0.0,-167.96997,45.999756,171.19446
1766902467496,-0.7133789,-0.16064453,-0.67041016,-1.0375977,0.36621094,0.91552734,0.0,0.0,0.0,-168.22815,46.159058,171.03516
1766902467584,-0.7324219,-0.12890625,-0.6801758,0.24414062,-0.4272461,-0.7324219,0.0,0.0,0.0,-168.22815,46.159058,171.03516
1766902467595,-0.7324219,-0.12890625,-0.6801758,0.24414062,-0.4272461,-0.7324219,0.0,0.0,0.0,-168.12378,46.14258,171.12854
1766902467684,-0.7192383,-0.14453125,-0.6748047,-0.12207031,0.7324219,0.7324219,0.0,0.0,0.0,-168.12378,46.14258,171.12854
1766902467695,-0.7192383,-0.14453125,-0.6748047,-0.12207031,0.7324219,0.7324219,0.0,0.0,0.0,-168.16223,46.120605,171.12854
1766902467783,-0.73291016,-0.14355469,-0.6801758,-0.18310547,-0.4272461,0.12207031,0.0,0.0,0.0,-168.16223,46.120605,171.12854
1766902467795,-0.73291016,-0.14355469,-0.6801758,-0.18310547,-0.4272461,0.12207031,0.0,0.0,0.0,-168.19519,46.14258,171.11755
1766902467883,-0.7236328,-0.14501953,-0.68408203,0.18310547,-0.6713867,0.12207031,0.0,0.0,0.0,-168.19519,46.14258,171.11755
1766902467894,-0.7236328,-0.14501953,-0.68408203,0.18310547,-0.6713867,0.12207031,0.0,0.0,0.0,-168.09082,46.115112,171.17798
1766902467983,-0.7324219,-0.13964844,-0.68603516,-0.9765625,-0.48828125,0.5493164,0.0,0.0,0.0,-168.09082,46.115112,171.17798
1766902467994,-0.7324219,-0.13964844,-0.68603516,-0.9765625,-0.48828125,0.5493164,0.0,0.0,0.0,-168.14026,46.1261,171.1615
1766902468082,-0.7246094,-0.14404297,-0.68408203,-0.30517578,-0.36621094,0.36621094,0.0,0.0,0.0,-168.14026,46.1261,171.1615
1766902468094,-0.7246094,-0.14404297,-0.68408203,-0.30517578,-0.36621094,0.36621094,0.0,0.0,0.0,-168.14026,46.098633,171.15051
1766902468182,-0.72802734,-0.140625,-0.6723633,-0.5493164,-0.7324219,0.24414062,0.0,0.0,0.0,-168.14026,46.098633,171.15051
1766902468194,-0.72802734,-0.140625,-0.6723633,-0.5493164,-0.7324219,0.24414062,0.0,0.0,0.0,-168.1897,46.14258,171.12854
1766902468282,-0.7236328,-0.140625,-0.6743164,-0.061035156,0.0,-0.061035156,0.0,0.0,0.0,-168.1897,46.14258,171.12854
1766902468293,-0.7236328,-0.140625,-0.6743164,-0.061035156,0.0,-0.061035156,0.0,0.0,0.0,-168.16772,46.170044,171.18896
1766902468382,-0.72753906,-0.140625,-0.6743164,-0.4272461,-0.12207031,0.30517578,0.0,0.0,0.0,-168.16772,46.170044,171.18896
1766902468393,-0.72753906,-0.140625,-0.6743164,-0.4272461,-0.12207031,0.30517578,0.0,0.0,0.0,-168.20068,46.21399,171.15051
1766902468481,-0.7319336,-0.13574219,-0.66552734,-0.5493164,2.1362305,0.0,0.0,0.0,0.0,-168.20068,46.21399,171.15051
1766902468493,-0.7319336,-0.13574219,-0.66552734,-0.5493164,2.1362305,0.0,0.0,0.0,0.0,-168.21167,46.170044,171.13403
1766902468581,-0.72265625,-0.14013672,-0.67041016,-0.36621094,-0.24414062,0.0,0.0,0.0,0.0,-168.21167,46.170044,171.13403
1766902468593,-0.72265625,-0.14013672,-0.67041016,-0.36621094,-0.24414062,0.0,0.0,0.0,0.0,-168.12927,46.16455,171.14502
1766902468681,-0.72558594,-0.140625,-0.67333984,-0.48828125,0.0,0.24414062,0.0,0.0,0.0,-168.12927,46.16455,171.14502
1766902468692,-0.72558594,-0.140625,-0.67333984,-0.48828125,0.0,0.24414062,0.0,0.0,0.0,-168.23364,46.235962,171.0791
1766902468780,-0.7270508,-0.13671875,-0.66064453,-0.30517578,1.5258789,-0.061035156,0.0,0.0,0.0,-168.23364,46.235962,171.0791
1766902468792,-0.7270508,-0.13671875,-0.66064453,-0.30517578,1.5258789,-0.061035156,0.0,0.0,0.0,-168.22266,46.219482,171.06262
1766902468880,-0.73291016,-0.140625,-0.68310547,-0.6713867,-0.79345703,0.61035156,0.0,0.0,0.0,-168.22266,46.219482,171.06262
1766902468892,-0.73291016,-0.140625,-0.68310547,-0.6713867,-0.79345703,0.61035156,0.0,0.0,0.0,-168.24463,46.235962,171.05713
1766902468980,-0.7290039,-0.13964844,-0.6748047,0.0,1.4648438,0.24414062,0.0,0.0,0.0,-168.24463,46.235962,171.05713
1766902468991,-0.7290039,-0.13964844,-0.6748047,0.0,1.4648438,0.24414062,0.0,0.0,0.0,-168.2721,46.219482,171.05713
1766902469080,-0.7265625,-0.14111328,-0.6772461,0.30517578,0.7324219,0.24414062,0.0,0.0,0.0,-168.2721,46.219482,171.05713
1766902469091,-0.7265625,-0.14111328,-0.6772461,0.30517578,0.7324219,0.24414062,0.0,0.0,0.0,-168.29407,46.098633,171.02417
1766902469179,-0.7216797,-0.13964844,-0.6801758,0.7324219,1.4038086,0.0,0.0,0.0,0.0,-168.29407,46.098633,171.02417
1766902469191,-0.7216797,-0.13964844,-0.6801758,0.7324219,1.4038086,0.0,0.0,0.0,0.0,-168.23364,45.999756,171.02966
1766902469279,-0.72802734,-0.13769531,-0.6850586,-0.12207031,0.48828125,0.4272461,0.0,0.0,0.0,-168.23364,45.999756,171.02966
1766902469291,-0.72802734,-0.13769531,-0.6850586,-0.12207031,0.48828125,0.4272461,0.0,0.0,0.0,-168.21716,45.906372,171.01318
1766902469379,-0.7216797,-0.14257812,-0.6826172,1.0375977,0.30517578,0.0,0.0,0.0,0.0,-168.21716,45.906372,171.01318
1766902469391,-0.7216797,-0.14257812,-0.6826172,1.0375977,0.30517578,0.0,0.0,0.0,0.0,-168.17871,45.83496,170.95825
1766902469478,-0.72021484,-0.14111328,-0.6801758,-0.061035156,0.0,0.24414062,0.0,0.0,0.0,-168.17871,45.83496,170.95825
1766902469491,-0.72021484,-0.14111328,-0.6801758,-0.061035156,0.0,0.24414062,0.0,0.0,0.0,-168.17871,45.78003,170.9253
1766902469578,-0.7216797,-0.14013672,-0.68066406,-0.12207031,0.24414062,0.0,0.0,0.0,0.0,-168.17871,45.78003,170.9253
1766902469590,-0.7216797,-0.14013672,-0.68066406,-0.12207031,0.24414062,0.0,0.0,0.0,0.0,-168.16772,45.774536,170.88684
1766902469678,-0.7207031,-0.1430664,-0.6845703,0.0,0.12207031,0.0,0.0,0.0,0.0,-168.16772,45.774536,170.88684
1766902469689,-0.7207031,-0.1430664,-0.6845703,0.0,0.12207031,0.0,0.0,0.0,0.0,-168.15674,45.73059,170.84839
1766902469778,-0.72314453,-0.14404297,-0.6855469,0.91552734,-0.24414062,-0.18310547,0.0,0.0,0.0,-168.15674,45.73059,170.84839
1766902469789,-0.72314453,-0.14404297,-0.6855469,0.91552734,-0.24414062,-0.18310547,0.0,0.0,0.0,-168.1073,45.719604,170.85388
1766902469877,-0.72265625,-0.14404297,-0.6855469,-0.79345703,-0.79345703,0.0,0.0,0.0,0.0,-168.1073,45.719604,170.85388
1766902469889,-0.72265625,-0.14404297,-0.6855469,-0.79345703,-0.79345703,0.0,0.0,0.0,0.0,-168.07983,45.719604,170.8374
1766902469977,-0.72021484,-0.14355469,-0.6826172,0.061035156,-0.4272461,0.24414062,0.0,0.0,0.0,-168.07983,45.719604,170.8374
1766902469988,-0.72021484,-0.14355469,-0.6826172,0.061035156,-0.4272461,0.24414062,0.0,0.0,0.0,-168.13477,45.785522,170.77698
1766902470077,-0.72509766,-0.14404297,-0.67822266,0.061035156,-0.30517578,-0.12207031,0.0,0.0,0.0,-168.13477,45.785522,170.77698
1766902470088,-0.72509766,-0.14404297,-0.67822266,0.061035156,-0.30517578,-0.12207031,0.0,0.0,0.0,-168.13477,45.85144,170.755
1766902470176,-0.7236328,-0.14111328,-0.6816406,-0.30517578,-1.4038086,-0.061035156,0.0,0.0,0.0,-168.13477,45.85144,170.755
1766902470188,-0.7236328,-0.14111328,-0.6816406,-0.30517578,-1.4038086,-0.061035156,0.0,0.0,0.0,-168.08533,45.944824,170.78796
1766902470276,-0.7270508,-0.14111328,-0.67626953,-0.12207031,-0.36621094,0.061035156,0.0,0.0,0.0,-168.08533,45.944824,170.78796
1766902470287,-0.7270508,-0.14111328,-0.67626953,-0.12207031,-0.36621094,0.061035156,0.0,0.0,0.0,-168.06335,46.0437,170.81543
1766902470376,-0.72558594,-0.14453125,-0.6748047,0.61035156,-0.4272461,-0.30517578,0.0,0.0,0.0,-168.06335,46.0437,170.81543
1766902470387,-0.72558594,-0.14453125,-0.6748047,0.61035156,-0.4272461,-0.30517578,0.0,0.0,0.0,-168.00293,46.09314,170.89233
1766902470475,-0.71972656,-0.14013672,-0.6723633,-0.12207031,1.5869141,-0.36621094,0.0,0.0,0.0,-168.00293,46.09314,170.89233
1766902470487,-0.71972656,-0.14013672,-0.6723633,-0.12207031,1.5869141,-0.36621094,0.0,0.0,0.0,-167.92603,46.038208,170.94727
1766902470575,-0.72509766,-0.14355469,-0.67626953,-1.3427734,-0.30517578,0.61035156,0.0,0.0,0.0,-167.92603,46.038208,170.94727
1766902470588,-0.72509766,-0.14355469,-0.67626953,-1.3427734,-0.30517578,0.61035156,0.0,0.0,0.0,-168.03589,46.02722,170.94727
1766902470675,-0.7294922,-0.14013672,-0.6777344,-0.5493164,-0.5493164,0.4272461,0.0,0.0,0.0,-168.03589,46.02722,170.94727
1766902470686,-0.7294922,-0.14013672,-0.6777344,-0.5493164,-0.5493164,0.4272461,0.0,0.0,0.0,-168.09631,46.09314,170.9253
1766902470775,-0.72998047,-0.14160156,-0.6772461,-0.6713867,-0.48828125,0.30517578,0.0,0.0,0.0,-168.09631,46.09314,170.9253
1766902470786,-0.72998047,-0.14160156,-0.6772461,-0.6713867,-0.48828125,0.30517578,0.0,0.0,0.0,-168.1842,46.16455,170.9198
1766902470874,-0.7285156,-0.1381836,-0.6748047,-1.0375977,-1.159668,0.61035156,0.0,0.0,0.0,-168.1842,46.16455,170.9198
1766902470886,-0.7285156,-0.1381836,-0.6748047,-1.0375977,-1.159668,0.61035156,0.0,0.0,0.0,-168.23914,46.257935,170.95276
1766902470974,-0.7290039,-0.1381836,-0.67626953,-0.5493164,-0.30517578,0.30517578,0.0,0.0,0.0,-168.23914,46.257935,170.95276
1766902470986,-0.7290039,-0.1381836,-0.67626953,-0.5493164,-0.30517578,0.30517578,0.0,0.0,0.0,-168.35449,46.31836,170.95276
1766902471074,-0.7294922,-0.14404297,-0.6845703,0.48828125,-0.8544922,0.24414062,0.0,0.0,0.0,-168.35449,46.31836,170.95276
1766902471085,-0.7294922,-0.14404297,-0.6845703,0.48828125,-0.8544922,0.24414062,0.0,0.0,0.0,-168.33252,46.345825,171.02966
1766902471173,-0.73828125,-0.13574219,-0.67822266,-1.8920898,-2.8686523,0.18310547,0.0,0.0,0.0,-168.33252,46.345825,171.02966
1766902471185,-0.73828125,-0.13574219,-0.67822266,-1.8920898,-2.8686523,0.18310547,0.0,0.0,0.0,-168.32153,46.400757,171.11755
1766902471273,-0.7294922,-0.13476562,-0.6743164,-1.3427734,-2.1972656,-0.18310547,0.0,0.0,0.0,-168.32153,46.400757,171.11755
1766902471285,-0.7294922,-0.13476562,-0.6743164,-1.3427734,-2.1972656,-0.18310547,0.0,0.0,0.0,-168.38745,46.593018,171.29883
1766902471373,-0.7324219,-0.13574219,-0.66748047,0.0,-0.18310547,0.0,0.0,0.0,0.0,-168.38745,46.593018,171.29883
1766902471384,-0.7324219,-0.13574219,-0.66748047,0.0,-0.18310547,0.0,0.0,0.0,0.0,-168.4314,46.691895,171.38672
1766902471473,-0.73291016,-0.13574219,-0.67089844,-0.061035156,0.24414062,0.0,0.0,0.0,0.0,-168.4314,46.691895,171.38672
1766902471485,-0.73291016,-0.13574219,-0.67089844,-0.061035156,0.24414062,0.0,0.0,0.0,0.0,-168.41492,46.70288,171.49109
1766902471572,-0.73291016,-0.13574219,-0.66845703,0.0,0.7324219,0.18310547,0.0,0.0,0.0,-168.41492,46.70288,171.49109
1766902471584,-0.73291016,-0.13574219,-0.66845703,0.0,0.7324219,0.18310547,0.0,0.0,0.0,-168.42041,46.658936,171.57349
1766902471672,-0.734375,-0.13574219,-0.66552734,-0.061035156,0.79345703,0.061035156,0.0,0.0,0.0,-168.42041,46.658936,171.57349
1766902471684,-0.734375,-0.13574219,-0.66552734,-0.061035156,0.79345703,0.061035156,0.0,0.0,0.0,-168.38745,46.64795,171.67786
1766902471772,-0.7294922,-0.13378906,-0.6665039,0.12207031,0.91552734,-0.061035156,0.0,0.0,0.0,-168.38745,46.64795,171.67786
1766902471783,-0.7294922,-0.13378906,-0.6665039,0.12207031,0.91552734,-0.061035156,0.0,0.0,0.0,-168.3435,46.620483,171.81519
1766902471871,-0.73779297,-0.1352539,-0.67285156,-0.48828125,-0.18310547,0.36621094,0.0,0.0,0.0,-168.3435,46.620483,171.81519
1766902471883,-0.73779297,-0.1352539,-0.67285156,-0.48828125,-0.18310547,0.36621094,0.0,0.0,0.0,-168.40393,46.64795,171.93054
1766902471972,-0.7324219,-0.1381836,-0.6743164,1.3427734,1.7089844,-0.18310547,0.0,0.0,0.0,-168.40393,46.64795,171.93054
1766902471983,-0.7324219,-0.1381836,-0.6743164,1.3427734,1.7089844,-0.18310547,0.0,0.0,0.0,-168.35449,46.54358,172.00195
1766902472071,-0.7314453,-0.13574219,-0.67285156,0.6713867,0.61035156,-0.12207031,0.0,0.0,0.0,-168.35449,46.54358,172.00195
1766902472082,-0.7314453,-0.13574219,-0.67285156,0.6713867,0.61035156,-0.12207031,0.0,0.0,0.0,-168.26111,46.40625,172.07886
1766902472171,-0.72802734,-0.13867188,-0.67089844,0.24414062,0.9765625,0.061035156,0.0,0.0,0.0,-168.26111,46.40625,172.07886
1766902472182,-0.72802734,-0.13867188,-0.67089844,0.24414062,0.9765625,0.061035156,0.0,0.0,0.0,-168.21167,46.33484,172.1283
1766902472270,-0.7270508,-0.14013672,-0.6723633,0.0,0.48828125,0.0,0.0,0.0,0.0,-168.21167,46.33484,172.1283
1766902472282,-0.7270508,-0.14013672,-0.6723633,0.0,0.48828125,0.0,0.0,0.0,0.0,-168.21716,46.25244,172.10632
1766902472370,-0.7294922,-0.13623047,-0.6689453,-0.91552734,1.2207031,0.0,0.0,0.0,0.0,-168.21716,46.25244,172.10632
1766902472381,-0.7294922,-0.13623047,-0.6689453,-0.91552734,1.2207031,0.0,0.0,0.0,0.0,-168.23364,46.25244,172.1228
1766902472470,-0.72802734,-0.14013672,-0.66845703,-0.4272461,0.30517578,0.12207031,0.0,0.0,0.0,-168.23364,46.25244,172.1228
1766902472481,-0.72802734,-0.14013672,-0.66845703,-0.4272461,0.30517578,0.12207031,0.0,0.0,0.0,-168.21167,46.23047,172.11731
1766902472569,-0.7236328,-0.13964844,-0.67089844,0.061035156,0.79345703,0.12207031,0.0,0.0,0.0,-168.21167,46.23047,172.11731
1766902472581,-0.7236328,-0.13964844,-0.67089844,0.061035156,0.79345703,0.12207031,0.0,0.0,0.0,-168.2721,46.24695,172.07336
1766902472669,-0.7294922,-0.1381836,-0.6743164,-0.7324219,0.30517578,0.12207031,0.0,0.0,0.0,-168.2721,46.24695,172.07336
1766902472681,-0.7294922,-0.1381836,-0.6743164,-0.7324219,0.30517578,0.12207031,0.0,0.0,0.0,-168.24463,46.224976,172.05688
1766902472769,-0.72998047,-0.140625,-0.67871094,-0.061035156,0.24414062,0.30517578,0.0,0.0,0.0,-168.24463,46.224976,172.05688
1766902472780,-0.72998047,-0.140625,-0.67871094,-0.061035156,0.24414062,0.30517578,0.0,0.0,0.0,-168.28857,46.23047,172.0404
1766902472869,-0.72802734,-0.13916016,-0.6767578,-0.18310547,0.0,0.18310547,0.0,0.0,0.0,-168.28857,46.23047,172.0404
1766902472880,-0.72802734,-0.13916016,-0.6767578,-0.18310547,0.0,0.18310547,0.0,0.0,0.0,-168.28857,46.23047,172.02393
1766902472968,-0.7290039,-0.13964844,-0.67871094,0.0,-0.061035156,0.18310547,0.0,0.0,0.0,-168.28857,46.23047,172.02393
1766902472980,-0.7290039,-0.13964844,-0.67871094,0.0,-0.061035156,0.18310547,0.0,0.0,0.0,-168.29956,46.224976,172.00195
1766902473068,-0.72802734,-0.14257812,-0.68115234,0.79345703,-0.061035156,-0.24414062,0.0,0.0,0.0,-168.29956,46.224976,172.00195
1766902473079,-0.72802734,-0.14257812,-0.68115234,0.79345703,-0.061035156,-0.24414062,0.0,0.0,0.0,-168.24463,46.192017,171.99097
1766902473168,-0.72753906,-0.14111328,-0.6826172,-0.8544922,-0.61035156,0.36621094,0.0,0.0,0.0,-168.24463,46.192017,171.99097
1766902473179,-0.72753906,-0.14111328,-0.6826172,-0.8544922,-0.61035156,0.36621094,0.0,0.0,0.0,-168.23364,46.16455,171.9635
1766902473267,-0.7260742,-0.13964844,-0.6777344,-0.30517578,-0.061035156,0.24414062,0.0,0.0,0.0,-168.23364,46.16455,171.9635
1766902473279,-0.7260742,-0.13964844,-0.6777344,-0.30517578,-0.061035156,0.24414062,0.0,0.0,0.0,-168.31604,46.208496,171.93604
1766902473367,-0.72509766,-0.13867188,-0.6723633,-0.12207031,0.12207031,0.061035156,0.0,0.0,0.0,-168.31604,46.208496,171.93604
1766902473379,-0.72509766,-0.13867188,-0.6723633,-0.12207031,0.12207031,0.061035156,0.0,0.0,0.0,-168.35449,46.19751,171.91956
1766902473467,-0.72802734,-0.13769531,-0.67871094,-0.12207031,-0.18310547,0.0,0.0,0.0,0.0,-168.35449,46.19751,171.91956
1766902473479,-0.72802734,-0.13769531,-0.67871094,-0.12207031,-0.18310547,0.0,0.0,0.0,0.0,-168.35449,46.224976,171.91956
1766902473566,-0.72802734,-0.1381836,-0.67871094,-0.18310547,0.061035156,0.24414062,0.0,0.0,0.0,-168.35449,46.224976,171.91956
1766902473578,-0.72802734,-0.1381836,-0.67871094,-0.18310547,0.061035156,0.24414062,0.0,0.0,0.0,-168.35999,46.23047,171.90857
1766902473666,-0.7294922,-0.1381836,-0.67822266,-0.061035156,-0.12207031,0.061035156,0.0,0.0,0.0,-168.35999,46.23047,171.90857
1766902473678,-0.7294922,-0.1381836,-0.67822266,-0.061035156,-0.12207031,0.061035156,0.0,0.0,0.0,-168.35999,46.224976,171.92505
1766902473766,-0.7265625,-0.1430664,-0.6826172,0.7324219,-0.36621094,-0.18310547,0.0,0.0,0.0,-168.35999,46.224976,171.92505
1766902473779,-0.7265625,-0.1430664,-0.6826172,0.7324219,-0.36621094,-0.18310547,0.0,0.0,0.0,-168.31604,46.203003,171.97449
1766902473865,-0.72998047,-0.13964844,-0.68408203,-0.91552734,-0.61035156,0.48828125,0.0,0.0,0.0,-168.31604,46.203003,171.97449
1766902473877,-0.72998047,-0.13964844,-0.68408203,-0.91552734,-0.61035156,0.48828125,0.0,0.0,0.0,-168.31055,46.18103,171.95801
1766902473965,-0.7246094,-0.1381836,-0.67822266,-0.18310547,-0.061035156,0.12207031,0.0,0.0,0.0,-168.31055,46.18103,171.95801
1766902473977,-0.7246094,-0.1381836,-0.67822266,-0.18310547,-0.061035156,0.12207031,0.0,0.0,0.0,-168.37097,46.203003,171.92505
1766902474065,-0.7265625,-0.13769531,-0.67333984,-0.12207031,0.0,0.061035156,0.0,0.0,0.0,-168.37097,46.203003,171.92505
1766902474076,-0.7265625,-0.13769531,-0.67333984,-0.12207031,0.0,0.061035156,0.0,0.0,0.0,-168.39294,46.203003,171.91406
1766902474165,-0.7265625,-0.1381836,-0.67871094,-0.12207031,-0.30517578,0.0,0.0,0.0,0.0,-168.39294,46.203003,171.91406
1766902474176,-0.7265625,-0.1381836,-0.67871094,-0.12207031,-0.30517578,0.0,0.0,0.0,0.0,-168.39844,46.224976,171.91406
1766902474264,-0.7285156,-0.13671875,-0.6772461,-0.12207031,0.12207031,0.18310547,0.0,0.0,0.0,-168.39844,46.224976,171.91406
1766902474276,-0.7285156,-0.13671875,-0.6772461,-0.12207031,0.12207031,0.18310547,0.0,0.0,0.0,-168.39294,46.23047,171.93054
1766902474364,-0.7290039,-0.13769531,-0.6748047,-0.061035156,0.18310547,0.0,0.0,0.0,0.0,-168.39294,46.23047,171.93054
1766902474375,-0.7290039,-0.13769531,-0.6748047,-0.061035156,0.18310547,0.0,0.0,0.0,0.0,-168.40393,46.23047,171.95801
1766902474464,-0.7290039,-0.13427734,-0.67041016,-0.6713867,1.2817383,-0.12207031,0.0,0.0,0.0,-168.40393,46.23047,171.95801
1766902474475,-0.7290039,-0.13427734,-0.67041016,-0.6713867,1.2817383,-0.12207031,0.0,0.0,0.0,-168.38196,46.224976,171.98547
1766902474563,-0.7270508,-0.13867188,-0.6699219,-0.30517578,0.7324219,-0.12207031,0.0,0.0,0.0,-168.38196,46.224976,171.98547
1766902474575,-0.7270508,-0.13867188,-0.6699219,-0.30517578,0.7324219,-0.12207031,0.0,0.0,0.0,-168.33801,46.192017,171.99646
1766902474663,-0.7246094,-0.13720703,-0.6738281,-0.5493164,0.061035156,0.12207031,0.0,0.0,0.0,-168.33801,46.192017,171.99646
1766902474675,-0.7246094,-0.13720703,-0.6738281,-0.5493164,0.061035156,0.12207031,0.0,0.0,0.0,-168.39294,46.219482,171.969
1766902474763,-0.7290039,-0.13476562,-0.6723633,-0.5493164,0.6713867,0.061035156,0.0,0.0,0.0,-168.39294,46.219482,171.969
1766902474774,-0.7290039,-0.13476562,-0.6723633,-0.5493164,0.6713867,0.061035156,0.0,0.0,0.0,-168.41492,46.219482,171.94702
1766902474863,-0.72998047,-0.13964844,-0.6777344,-0.12207031,-0.12207031,0.061035156,0.0,0.0,0.0,-168.41492,46.219482,171.94702
1766902474874,-0.72998047,-0.13964844,-0.6777344,-0.12207031,-0.12207031,0.061035156,0.0,0.0,0.0,-168.41492,46.235962,171.9635
1766902474962,-0.72753906,-0.13671875,-0.67529297,0.0,0.24414062,0.12207031,0.0,0.0,0.0,-168.41492,46.235962,171.9635
1766902474974,-0.72753906,-0.13671875,-0.67529297,0.0,0.24414062,0.12207031,0.0,0.0,0.0,-168.39844,46.235962,171.97998
1766902475062,-0.7290039,-0.13671875,-0.67529297,-0.24414062,-0.061035156,0.12207031,0.0,0.0,0.0,-168.39844,46.235962,171.97998
1766902475073,-0.7290039,-0.13671875,-0.67529297,-0.24414062,-0.061035156,0.12207031,0.0,0.0,0.0,-168.40942,46.235962,171.98547
1766902475162,-0.72753906,-0.13769531,-0.67626953,-0.061035156,-0.18310547,0.0,0.0,0.0,0.0,-168.40942,46.235962,171.98547
1766902475173,-0.72753906,-0.13769531,-0.67626953,-0.061035156,-0.18310547,0.0,0.0,0.0,0.0,-168.39844,46.23047,172.00195
1766902475261,-0.7260742,-0.14013672,-0.68310547,0.48828125,-0.24414062,0.0,0.0,0.0,0.0,-168.39844,46.23047,172.00195
1766902475273,-0.7260742,-0.14013672,-0.68310547,0.48828125,-0.24414062,0.0,0.0,0.0,0.0,-168.349,46.23047,172.02393
1766902475361,-0.73095703,-0.1352539,-0.68115234,-0.7324219,-0.7324219,0.48828125,0.0,0.0,0.0,-168.349,46.23047,172.02393
1766902475372,-0.73095703,-0.1352539,-0.68115234,-0.7324219,-0.7324219,0.48828125,0.0,0.0,0.0,-168.35449,46.21399,172.01843
1766902475461,-0.72802734,-0.1381836,-0.6845703,-0.12207031,-0.24414062,0.30517578,0.0,0.0,0.0,-168.35449,46.21399,172.01843
1766902475472,-0.72802734,-0.1381836,-0.6845703,-0.12207031,-0.24414062,0.30517578,0.0,0.0,0.0,-168.39294,46.24695,171.98547
1766902475560,-0.72753906,-0.1381836,-0.67529297,0.4272461,0.0,-0.061035156,0.0,0.0,0.0,-168.39294,46.24695,171.98547
1766902475572,-0.72753906,-0.1381836,-0.67529297,0.4272461,0.0,-0.061035156,0.0,0.0,0.0,-168.38196,46.219482,171.97449
1766902475660,-0.72802734,-0.13671875,-0.6767578,0.0,-0.30517578,-0.24414062,0.0,0.0,0.0,-168.38196,46.219482,171.97449
1766902475672,-0.72802734,-0.13671875,-0.6767578,0.0,-0.30517578,-0.24414062,0.0,0.0,0.0,-168.31604,46.257935,172.0404
1766902475760,-0.7294922,-0.13720703,-0.6772461,0.0,-0.12207031,0.0,0.0,0.0,0.0,-168.31604,46.257935,172.0404
1766902475772,-0.7294922,-0.13720703,-0.6772461,0.0,-0.12207031,0.0,0.0,0.0,0.0,-168.2721,46.25244,172.06238
1766902475860,-0.72802734,-0.13964844,-0.6777344,0.30517578,-0.24414062,-0.36621094,0.0,0.0,0.0,-168.2721,46.25244,172.06238
1766902475871,-0.72802734,-0.13964844,-0.6777344,0.30517578,-0.24414062,-0.36621094,0.0,0.0,0.0,-168.23364,46.290894,172.07886
1766902475959,-0.73046875,-0.13867188,-0.6665039,0.4272461,0.91552734,-0.30517578,0.0,0.0,0.0,-168.23364,46.290894,172.07886
1766902475971,-0.73046875,-0.13867188,-0.6665039,0.4272461,0.91552734,-0.30517578,0.0,0.0,0.0,-168.1128,46.290894,172.1228
1766902476059,-0.72802734,-0.14160156,-0.66748047,-0.4272461,0.36621094,-0.24414062,0.0,0.0,0.0,-168.1128,46.290894,172.1228
1766902476070,-0.72802734,-0.14160156,-0.66748047,-0.4272461,0.36621094,-0.24414062,0.0,0.0,0.0,-167.97546,46.31836,172.16125
1766902476159,-0.7260742,-0.14208984,-0.6699219,-0.30517578,0.061035156,0.061035156,0.0,0.0,0.0,-167.97546,46.31836,172.16125
1766902476170,-0.7260742,-0.14208984,-0.6699219,-0.30517578,0.061035156,0.061035156,0.0,0.0,0.0,-168.01392,46.378784,172.17773
1766902476258,-0.7319336,-0.14013672,-0.6738281,-0.36621094,0.0,0.12207031,0.0,0.0,0.0,-168.01392,46.378784,172.17773
1766902476270,-0.7319336,-0.14013672,-0.6738281,-0.36621094,0.0,0.12207031,0.0,0.0,0.0,-168.00842,46.411743,172.16675
1766902476358,-0.7319336,-0.14355469,-0.6743164,0.0,-0.5493164,0.061035156,0.0,0.0,0.0,-168.00842,46.411743,172.16675
1766902476369,-0.7319336,-0.14355469,-0.6743164,0.0,-0.5493164,0.061035156,0.0,0.0,0.0,-167.98096,46.450195,172.1997
1766902476458,-0.7294922,-0.140625,-0.6689453,-0.48828125,-0.91552734,0.36621094,0.0,0.0,0.0,-167.98096,46.450195,172.1997
1766902476469,-0.7294922,-0.140625,-0.6689453,-0.48828125,-0.91552734,0.36621094,0.0,0.0,0.0,-167.99194,46.54358,172.22168
1766902476558,-0.73291016,-0.13964844,-0.6694336,-0.91552734,-0.61035156,0.48828125,0.0,0.0,0.0,-167.99194,46.54358,172.22168
1766902476569,-0.73291016,-0.13964844,-0.6694336,-0.91552734,-0.61035156,0.48828125,0.0,0.0,0.0,-168.09082,46.64795,172.24365
1766902476657,-0.734375,-0.13916016,-0.6689453,-0.24414062,0.0,0.12207031,0.0,0.0,0.0,-168.09082,46.64795,172.24365
1766902476669,-0.734375,-0.13916016,-0.6689453,-0.24414062,0.0,0.12207031,0.0,0.0,0.0,-168.1128,46.70288,172.29309
1766902476757,-0.73291016,-0.1352539,-0.66748047,-0.6713867,2.5024414,-0.061035156,0.0,0.0,0.0,-168.1128,46.70288,172.29309
1766902476768,-0.73291016,-0.1352539,-0.66748047,-0.6713867,2.5024414,-0.061035156,0.0,0.0,0.0,-168.09082,46.620483,172.33154
1766902476857,-0.7338867,-0.1459961,-0.6567383,-4.272461,-4.1503906,-1.953125,0.0,0.0,0.0,-168.09082,46.620483,172.33154
1766902476868,-0.7338867,-0.1459961,-0.6567383,-4.272461,-4.1503906,-1.953125,0.0,0.0,0.0,-168.2721,46.774292,172.56226
1766902476956,-0.7363281,-0.14111328,-0.66259766,0.36621094,-0.6713867,-1.5869141,0.0,0.0,0.0,-168.2721,46.774292,172.56226
1766902476968,-0.7363281,-0.14111328,-0.66259766,0.36621094,-0.6713867,-1.5869141,0.0,0.0,0.0,-168.22266,47.06543,172.96326
1766902477056,-0.75683594,-0.140625,-0.67626953,-2.0141602,-1.5258789,-0.061035156,0.0,0.0,0.0,-168.22266,47.06543,172.96326
1766902477068,-0.75683594,-0.140625,-0.67626953,-2.0141602,-1.5258789,-0.061035156,0.0,0.0,0.0,-168.11829,47.092896,173.28735
1766902477156,-0.73535156,-0.14111328,-0.6538086,-1.2207031,-0.12207031,0.30517578,0.0,0.0,0.0,-168.11829,47.092896,173.28735
1766902477167,-0.73535156,-0.14111328,-0.6538086,-1.2207031,-0.12207031,0.30517578,0.0,0.0,0.0,-168.06885,46.950073,173.4082
1766902477255,-0.7163086,-0.12548828,-0.6713867,-2.8686523,-3.9672852,4.1503906,0.0,0.0,0.0,-168.06885,46.950073,173.4082
1766902477267,-0.7163086,-0.12548828,-0.6713867,-2.8686523,-3.9672852,4.1503906,0.0,0.0,0.0,-168.49182,47.180786,173.23242
1766902477355,-0.76464844,-0.13330078,-0.6665039,2.319336,2.0141602,4.699707,0.0,0.0,0.0,-168.49182,47.180786,173.23242
1766902477367,-0.76464844,-0.13330078,-0.6665039,2.319336,2.0141602,4.699707,0.0,0.0,0.0,-168.9862,47.37854,172.63916
1766902477455,-0.7602539,-0.13720703,-0.6738281,0.48828125,2.8076172,0.8544922,0.0,0.0,0.0,-168.9862,47.37854,172.63916
1766902477466,-0.7602539,-0.13720703,-0.6738281,0.48828125,2.8076172,0.8544922,0.0,0.0,0.0,-169.03564,46.983032,172.41943
1766902477554,-0.7236328,-0.13623047,-0.67089844,0.36621094,0.91552734,-4.638672,0.0,0.0,0.0,-169.03564,46.983032,172.41943
1766902477566,-0.7236328,-0.13623047,-0.67089844,0.36621094,0.91552734,-4.638672,0.0,0.0,0.0,-168.70605,46.757812,173.03467
1766902477654,-0.7270508,-0.12402344,-0.6816406,-0.79345703,3.6621094,0.18310547,0.0,0.0,0.0,-168.70605,46.757812,173.03467
1766902477666,-0.7270508,-0.12402344,-0.6816406,-0.79345703,3.6621094,0.18310547,0.0,0.0,0.0,-168.64563,46.5271,173.30383
1766902477754,-0.7451172,-0.13378906,-0.66259766,-1.953125,3.2348633,-2.319336,0.0,0.0,0.0,-168.64563,46.5271,173.30383
1766902477766,-0.7451172,-0.13378906,-0.66259766,-1.953125,3.2348633,-2.319336,0.0,0.0,0.0,-168.7555,46.279907,173.43567
1766902477854,-0.73339844,-0.15478516,-0.6767578,-6.5307617,2.9907227,-5.6152344,0.0,0.0,0.0,-168.7555,46.279907,173.43567
1766902477866,-0.73339844,-0.15478516,-0.6767578,-6.5307617,2.9907227,-5.6152344,0.0,0.0,0.0,-168.82141,46.0437,174.02893
1766902477953,-0.72802734,-0.14111328,-0.6870117,-6.8969727,2.9907227,-7.9345703,0.0,0.0,0.0,-168.82141,46.0437,174.02893
1766902477965,-0.72802734,-0.14111328,-0.6870117,-6.8969727,2.9907227,-7.9345703,0.0,0.0,0.0,-168.76648,45.543823,174.92432
1766902478053,-0.6972656,-0.13574219,-0.6850586,-5.493164,1.0986328,-7.9956055,0.0,0.0,0.0,-168.76648,45.543823,174.92432
1766902478065,-0.6972656,-0.13574219,-0.6850586,-5.493164,1.0986328,-7.9956055,0.0,0.0,0.0,-168.60168,45.22522,175.85815
1766902478153,-0.72216797,-0.14160156,-0.69628906,-6.164551,-3.2958984,-10.559082,0.0,0.0,0.0,-168.60168,45.22522,175.85815
1766902478165,-0.72216797,-0.14160156,-0.69628906,-6.164551,-3.2958984,-10.559082,0.0,0.0,0.0,-168.09631,45.197754,176.61072
1766902478252,-0.71484375,-0.15234375,-0.69677734,-7.9956055,-1.159668,-7.5683594,0.0,0.0,0.0,-168.09631,45.197754,176.61072
1766902478264,-0.71484375,-0.15234375,-0.69677734,-7.9956055,-1.159668,-7.5683594,0.0,0.0,0.0,-167.77222,45.32959,177.40173
1766902478352,-0.6870117,-0.125,-0.6958008,0.18310547,-2.8076172,-5.3710938,0.0,0.0,0.0,-167.77222,45.32959,177.40173
1766902478364,-0.6870117,-0.125,-0.6958008,0.18310547,-2.8076172,-5.3710938,0.0,0.0,0.0,-167.56348,45.32959,177.75879
1766902478452,-0.71875,-0.15136719,-0.6777344,1.0986328,-3.112793,-1.7700195,0.0,0.0,0.0,-167.56348,45.32959,177.75879
1766902478463,-0.71875,-0.15136719,-0.6777344,1.0986328,-3.112793,-1.7700195,0.0,0.0,0.0,-167.17896,45.50537,177.48413
1766902478552,-0.71435547,-0.17578125,-0.67626953,-1.5258789,-1.2207031,0.12207031,0.0,0.0,0.0,-167.17896,45.50537,177.48413
1766902478563,-0.71435547,-0.17578125,-0.67626953,-1.5258789,-1.2207031,0.12207031,0.0,0.0,0.0,-166.99768,45.65918,176.97327
1766902478651,-0.74316406,-0.15722656,-0.67822266,-0.8544922,-2.0141602,-0.6713867,0.0,0.0,0.0,-166.99768,45.65918,176.97327
1766902478663,-0.74316406,-0.15722656,-0.67822266,-0.8544922,-2.0141602,-0.6713867,0.0,0.0,0.0,-166.95923,45.823975,176.47888
1766902478751,-0.71484375,-0.15966797,-0.67089844,-0.7324219,2.6245117,-1.159668,0.0,0.0,0.0,-166.95923,45.823975,176.47888
1766902478762,-0.71484375,-0.15966797,-0.67089844,-0.7324219,2.6245117,-1.159668,0.0,0.0,0.0,-166.91528,45.785522,176.21521
1766902478851,-0.7192383,-0.15332031,-0.67285156,0.0,0.061035156,-1.2817383,0.0,0.0,0.0,-166.91528,45.785522,176.21521
1766902478862,-0.7192383,-0.15332031,-0.67285156,0.0,0.061035156,-1.2817383,0.0,0.0,0.0,-166.70654,45.769043,175.96252
1766902478950,-0.7133789,-0.15966797,-0.6723633,1.7700195,0.48828125,0.12207031,0.0,0.0,0.0,-166.70654,45.769043,175.96252
1766902478962,-0.7133789,-0.15966797,-0.6723633,1.7700195,0.48828125,0.12207031,0.0,0.0,0.0,-166.61316,45.78003,175.53955
1766902479050,-0.73046875,-0.17089844,-0.6777344,1.3427734,0.4272461,-0.18310547,0.0,0.0,0.0,-166.61316,45.78003,175.53955
1766902479062,-0.73046875,-0.17089844,-0.6777344,1.3427734,0.4272461,-0.18310547,0.0,0.0,0.0,-166.42639,45.81299,175.07812
1766902479150,-0.72802734,-0.16552734,-0.68408203,0.5493164,-1.6479492,-1.0375977,0.0,0.0,0.0,-166.42639,45.81299,175.07812
1766902479161,-0.72802734,-0.16552734,-0.68408203,0.5493164,-1.6479492,-1.0375977,0.0,0.0,0.0,-166.31653,45.802002,174.72656
1766902479249,-0.71240234,-0.16503906,-0.6669922,0.0,-0.4272461,-1.6479492,0.0,0.0,0.0,-166.31653,45.802002,174.72656
1766902479261,-0.71240234,-0.16503906,-0.6669922,0.0,-0.4272461,-1.6479492,0.0,0.0,0.0,-166.0968,45.823975,174.50684
1766902479349,-0.7211914,-0.17138672,-0.67529297,-0.79345703,-3.9672852,-0.79345703,0.0,0.0,0.0,-166.0968,45.823975,174.50684
1766902479361,-0.7211914,-0.17138672,-0.67529297,-0.79345703,-3.9672852,-0.79345703,0.0,0.0,0.0,-165.97046,45.950317,174.32556
1766902479449,-0.71191406,-0.16845703,-0.66748047,-0.30517578,-3.2958984,0.36621094,0.0,0.0,0.0,-165.97046,45.950317,174.32556
1766902479460,-0.71191406,-0.16845703,-0.66748047,-0.30517578,-3.2958984,0.36621094,0.0,0.0,0.0,-165.9375,46.35681,174.03992
1766902479548,-0.7553711,-0.16845703,-0.66552734,-3.0517578,-4.4555664,0.79345703,0.0,0.0,0.0,-165.9375,46.35681,174.03992
1766902479560,-0.7553711,-0.16845703,-0.66552734,-3.0517578,-4.4555664,0.79345703,0.0,0.0,0.0,-166.0144,46.845703,173.74329
1766902479648,-0.74560547,-0.16748047,-0.65966797,-3.0517578,-5.432129,0.061035156,0.0,0.0,0.0,-166.0144,46.845703,173.74329
1766902479660,-0.74560547,-0.16748047,-0.65966797,-3.0517578,-5.432129,0.061035156,0.0,0.0,0.0,-166.16821,47.22473,173.63342
1766902479748,-0.7402344,-0.16357422,-0.64697266,-0.30517578,-1.4648438,-0.30517578,0.0,0.0,0.0,-166.16821,47.22473,173.63342
1766902479760,-0.7402344,-0.16357422,-0.64697266,-0.30517578,-1.4648438,-0.30517578,0.0,0.0,0.0,-166.25061,47.565308,173.75977
1766902479848,-0.74658203,-0.16064453,-0.65527344,-0.30517578,1.4648438,0.4272461,0.0,0.0,0.0,-166.25061,47.565308,173.75977
1766902479859,-0.74658203,-0.16064453,-0.65527344,-0.30517578,1.4648438,0.4272461,0.0,0.0,0.0,-166.27258,47.598267,173.8092
1766902479947,-0.7441406,-0.15625,-0.6533203,-1.6479492,-0.5493164,-0.18310547,0.0,0.0,0.0,-166.27258,47.598267,173.8092
1766902479959,-0.7441406,-0.15625,-0.6533203,-1.6479492,-0.5493164,-0.18310547,0.0,0.0,0.0,-166.39343,47.53235,173.79822
1766902480047,-0.7441406,-0.15722656,-0.6464844,-0.8544922,-0.4272461,0.0,0.0,0.0,0.0,-166.39343,47.53235,173.79822
1766902480059,-0.7441406,-0.15722656,-0.6464844,-0.8544922,-0.4272461,0.0,0.0,0.0,0.0,-166.54175,47.642212,173.8971
1766902480147,-0.7402344,-0.15576172,-0.6386719,0.12207031,0.8544922,0.061035156,0.0,0.0,0.0,-166.54175,47.642212,173.8971
1766902480159,-0.7402344,-0.15576172,-0.6386719,0.12207031,0.8544922,0.061035156,0.0,0.0,0.0,-166.5033,47.642212,174.00146
1766902480246,-0.73876953,-0.1508789,-0.640625,-1.2817383,0.48828125,-0.18310547,0.0,0.0,0.0,-166.5033,47.642212,174.00146
1766902480258,-0.73876953,-0.1508789,-0.640625,-1.2817383,0.48828125,-0.18310547,0.0,0.0,0.0,-166.77795,47.70813,174.06738
1766902480346,-0.74365234,-0.14550781,-0.6586914,-2.9296875,-0.36621094,0.79345703,0.0,0.0,0.0,-166.77795,47.70813,174.06738
1766902480359,-0.74365234,-0.14550781,-0.6586914,-2.9296875,-0.36621094,0.79345703,0.0,0.0,0.0,-166.96472,47.834473,174.20471
1766902480446,-0.72998047,-0.13769531,-0.6274414,0.9765625,7.3242188,1.6479492,0.0,0.0,0.0,-166.96472,47.834473,174.20471
1766902480458,-0.72998047,-0.13769531,-0.6274414,0.9765625,7.3242188,1.6479492,0.0,0.0,0.0,-167.52502,47.746582,173.74878
1766902480546,-0.7475586,-0.15625,-0.6435547,-1.8920898,2.5024414,1.8310547,0.0,0.0,0.0,-167.52502,47.746582,173.74878
1766902480558,-0.7475586,-0.15625,-0.6435547,-1.8920898,2.5024414,1.8310547,0.0,0.0,0.0,-167.45361,47.526855,173.55103
1766902480645,-0.73876953,-0.12939453,-0.6801758,-0.4272461,0.9765625,1.8920898,0.0,0.0,0.0,-167.45361,47.526855,173.55103
1766902480657,-0.73876953,-0.12939453,-0.6801758,-0.4272461,0.9765625,1.8920898,0.0,0.0,0.0,-167.48108,47.356567,173.47961
1766902480745,-0.7495117,-0.15673828,-0.6699219,1.4648438,6.4697266,2.2583008,0.0,0.0,0.0,-167.48108,47.356567,173.47961
1766902480756,-0.7495117,-0.15673828,-0.6699219,1.4648438,6.4697266,2.2583008,0.0,0.0,0.0,-167.60742,47.01599,173.14453
1766902480845,-0.7421875,-0.14111328,-0.6791992,-3.1738281,-0.61035156,1.3427734,0.0,0.0,0.0,-167.60742,47.01599,173.14453
1766902480856,-0.7421875,-0.14111328,-0.6791992,-3.1738281,-0.61035156,1.3427734,0.0,0.0,0.0,-168.0304,46.774292,172.81494
1766902480944,-0.73291016,-0.1430664,-0.6713867,-0.30517578,0.6713867,-0.24414062,0.0,0.0,0.0,-168.0304,46.774292,172.81494
1766902480956,-0.73291016,-0.1430664,-0.6713867,-0.30517578,0.6713867,-0.24414062,0.0,0.0,0.0,-168.08533,46.636963,172.73804
1766902481044,-0.7246094,-0.13916016,-0.67041016,0.30517578,0.79345703,-0.36621094,0.0,0.0,0.0,-168.08533,46.636963,172.73804
1766902481055,-0.7246094,-0.13916016,-0.67041016,0.30517578,0.79345703,-0.36621094,0.0,0.0,0.0,-168.1842,46.5271,172.66113
1766902481144,-0.72802734,-0.14355469,-0.67529297,-0.24414062,1.2207031,-1.4648438,0.0,0.0,0.0,-168.1842,46.5271,172.66113
1766902481155,-0.72802734,-0.14355469,-0.67529297,-0.24414062,1.2207031,-1.4648438,0.0,0.0,0.0,-168.1128,46.450195,172.73254
1766902481244,-0.72021484,-0.13769531,-0.6723633,-1.0986328,1.4648438,-0.4272461,0.0,0.0,0.0,-168.1128,46.450195,172.73254
1766902481255,-0.72021484,-0.13769531,-0.6723633,-1.0986328,1.4648438,-0.4272461,0.0,0.0,0.0,-168.03589,46.323853,172.75452
1766902481343,-0.73583984,-0.14257812,-0.67871094,1.0986328,-0.30517578,0.91552734,0.0,0.0,0.0,-168.03589,46.323853,172.75452
1766902481355,-0.73583984,-0.14257812,-0.67871094,1.0986328,-0.30517578,0.91552734,0.0,0.0,0.0,-168.04688,46.323853,172.58972
1766902481443,-0.7260742,-0.140625,-0.6791992,1.4648438,1.0375977,0.36621094,0.0,0.0,0.0,-168.04688,46.323853,172.58972
1766902481455,-0.7260742,-0.140625,-0.6791992,1.4648438,1.0375977,0.36621094,0.0,0.0,0.0,-167.99744,46.2854,172.39746
1766902481543,-0.73339844,-0.14208984,-0.68066406,-1.0986328,0.79345703,0.5493164,0.0,0.0,0.0,-167.99744,46.2854,172.39746
1766902481554,-0.73339844,-0.14208984,-0.68066406,-1.0986328,0.79345703,0.5493164,0.0,0.0,0.0,-168.0304,46.115112,172.13928
1766902481642,-0.7285156,-0.14160156,-0.6796875,1.3427734,-0.79345703,-1.159668,0.0,0.0,0.0,-168.0304,46.115112,172.13928
1766902481654,-0.7285156,-0.14160156,-0.6796875,1.3427734,-0.79345703,-1.159668,0.0,0.0,0.0,-167.85461,46.1261,172.11731
1766902481742,-0.73291016,-0.15576172,-0.6748047,0.4272461,0.8544922,-1.5258789,0.0,0.0,0.0,-167.85461,46.1261,172.11731
1766902481754,-0.73291016,-0.15576172,-0.6748047,0.4272461,0.8544922,-1.5258789,0.0,0.0,0.0,-167.63489,46.16455,172.22168
1766902481842,-0.7109375,-0.15234375,-0.6826172,-1.2207031,3.6621094,-0.36621094,0.0,0.0,0.0,-167.63489,46.16455,172.22168
1766902481853,-0.7109375,-0.15234375,-0.6826172,-1.2207031,3.6621094,-0.36621094,0.0,0.0,0.0,-167.57996,45.785522,172.07886
1766902481941,-0.7182617,-0.1381836,-0.68066406,-2.0141602,1.0375977,0.12207031,0.0,0.0,0.0,-167.57996,45.785522,172.07886
1766902481953,-0.7182617,-0.1381836,-0.68066406,-2.0141602,1.0375977,0.12207031,0.0,0.0,0.0,-167.67883,45.631714,171.91406
1766902482041,-0.72216797,-0.14648438,-0.68652344,0.61035156,1.4648438,-0.30517578,0.0,0.0,0.0,-167.67883,45.631714,171.91406
1766902482053,-0.72216797,-0.14648438,-0.68652344,0.61035156,1.4648438,-0.30517578,0.0,0.0,0.0,-167.77771,45.560303,171.76025
1766902482141,-0.71777344,-0.15576172,-0.6894531,-0.18310547,-1.159668,0.36621094,0.0,0.0,0.0,-167.77771,45.560303,171.76025
1766902482153,-0.71777344,-0.15576172,-0.6894531,-0.18310547,-1.159668,0.36621094,0.0,0.0,0.0,-167.63489,45.444946,171.6394
1766902482241,-0.73828125,-0.14404297,-0.7001953,-1.159668,-2.6855469,0.61035156,0.0,0.0,0.0,-167.63489,45.444946,171.6394
1766902482252,-0.73828125,-0.14404297,-0.7001953,-1.159668,-2.6855469,0.61035156,0.0,0.0,0.0,-167.69531,45.604248,171.44714
1766902482340,-0.7241211,-0.15136719,-0.6845703,-1.6479492,-3.3569336,1.8310547,0.0,0.0,0.0,-167.69531,45.604248,171.44714
1766902482352,-0.7241211,-0.15136719,-0.6845703,-1.6479492,-3.3569336,1.8310547,0.0,0.0,0.0,-167.75024,45.719604,171.19446
1766902482440,-0.71728516,-0.14257812,-0.67578125,-0.48828125,-1.0986328,0.30517578,0.0,0.0,0.0,-167.75024,45.719604,171.19446
1766902482452,-0.71728516,-0.14257812,-0.67578125,-0.48828125,-1.0986328,0.30517578,0.0,0.0,0.0,-168.00293,45.889893,170.93628
1766902482540,-0.7236328,-0.14013672,-0.67529297,-0.24414062,1.5258789,0.0,0.0,0.0,0.0,-168.00293,45.889893,170.93628
1766902482552,-0.7236328,-0.14013672,-0.67529297,-0.24414062,1.5258789,0.0,0.0,0.0,0.0,-168.04688,45.840454,170.74402
1766902482639,-0.72216797,-0.140625,-0.68603516,0.36621094,-1.0375977,-0.61035156,0.0,0.0,0.0,-168.04688,45.840454,170.74402
1766902482651,-0.72216797,-0.140625,-0.68603516,0.36621094,-1.0375977,-0.61035156,0.0,0.0,0.0,-167.92053,45.85144,170.73853
1766902482739,-0.7368164,-0.15039062,-0.67871094,0.48828125,-0.48828125,0.8544922,0.0,0.0,0.0,-167.92053,45.85144,170.73853
1766902482751,-0.7368164,-0.15039062,-0.67871094,0.48828125,-0.48828125,0.8544922,0.0,0.0,0.0,-167.93701,45.91736,170.62317
1766902482839,-0.7109375,-0.15429688,-0.6796875,0.7324219,0.18310547,-0.91552734,0.0,0.0,0.0,-167.93701,45.91736,170.62317
1766902482850,-0.7109375,-0.15429688,-0.6796875,0.7324219,0.18310547,-0.91552734,0.0,0.0,0.0,-167.8601,45.85144,170.66162
1766902482939,-0.7241211,-0.13623047,-0.68408203,0.5493164,2.5024414,-1.7700195,0.0,0.0,0.0,-167.8601,45.85144,170.66162
1766902482951,-0.7241211,-0.13623047,-0.68408203,0.5493164,2.5024414,-1.7700195,0.0,0.0,0.0,-167.82166,45.78003,170.76599
1766902483038,-0.72265625,-0.15039062,-0.6821289,0.91552734,1.5869141,-2.6855469,0.0,0.0,0.0,-167.82166,45.78003,170.76599
1766902483050,-0.72265625,-0.15039062,-0.6821289,0.91552734,1.5869141,-2.6855469,0.0,0.0,0.0,-167.60193,45.57129,170.87585
1766902483138,-0.7128906,-0.1586914,-0.6845703,-0.36621094,0.5493164,-1.2207031,0.0,0.0,0.0,-167.60193,45.57129,170.87585
1766902483149,-0.7128906,-0.1586914,-0.6845703,-0.36621094,0.5493164,-1.2207031,0.0,0.0,0.0,-167.41516,45.357056,171.0791
1766902483238,-0.71435547,-0.14501953,-0.68408203,-0.5493164,2.0141602,-1.953125,0.0,0.0,0.0,-167.41516,45.357056,171.0791
1766902483249,-0.71435547,-0.14501953,-0.68408203,-0.5493164,2.0141602,-1.953125,0.0,0.0,0.0,-167.3053,45.25818,171.156
1766902483337,-0.7216797,-0.15966797,-0.6879883,-0.36621094,1.0375977,-1.159668,0.0,0.0,0.0,-167.3053,45.25818,171.156
1766902483349,-0.7216797,-0.15966797,-0.6879883,-0.36621094,1.0375977,-1.159668,0.0,0.0,0.0,-167.16248,45.10437,171.18347
1766902483437,-0.7001953,-0.15576172,-0.6845703,0.9765625,-0.24414062,-1.2207031,0.0,0.0,0.0,-167.16248,45.10437,171.18347
1766902483448,-0.7001953,-0.15576172,-0.6845703,0.9765625,-0.24414062,-1.2207031,0.0,0.0,0.0,-166.99768,45.0,171.23291
1766902483537,-0.69970703,-0.16113281,-0.68603516,0.7324219,1.159668,0.24414062,0.0,0.0,0.0,-166.99768,45.0,171.23291
1766902483548,-0.69970703,-0.16113281,-0.68603516,0.7324219,1.159668,0.24414062,0.0,0.0,0.0,-166.91528,44.994507,171.11206
1766902483636,-0.7216797,-0.16601562,-0.68310547,0.79345703,2.6855469,1.159668,0.0,0.0,0.0,-166.91528,44.994507,171.11206
1766902483648,-0.7216797,-0.16601562,-0.68310547,0.79345703,2.6855469,1.159668,0.0,0.0,0.0,-166.88782,44.989014,170.82642
1766902483736,-0.70947266,-0.1586914,-0.6977539,-0.24414062,1.0986328,1.7700195,0.0,0.0,0.0,-166.88782,44.989014,170.82642
1766902483748,-0.70947266,-0.1586914,-0.6977539,-0.24414062,1.0986328,1.7700195,0.0,0.0,0.0,-167.03613,44.802246,170.41992
1766902483836,-0.7104492,-0.15283203,-0.68408203,-0.5493164,1.2207031,0.8544922,0.0,0.0,0.0,-167.03613,44.802246,170.41992
1766902483847,-0.7104492,-0.15283203,-0.68408203,-0.5493164,1.2207031,0.8544922,0.0,0.0,0.0,-167.15149,44.780273,170.1178
1766902483937,-0.70654297,-0.15527344,-0.6899414,1.0375977,2.5634766,0.48828125,0.0,0.0,0.0,-167.15149,44.780273,170.1178
1766902483947,-0.70654297,-0.15527344,-0.6899414,1.0375977,2.5634766,0.48828125,0.0,0.0,0.0,-167.2174,44.631958,169.86511
1766902484035,-0.70214844,-0.1484375,-0.69091797,0.24414062,-0.24414062,0.79345703,0.0,0.0,0.0,-167.2174,44.631958,169.86511
1766902484047,-0.70214844,-0.1484375,-0.69091797,0.24414062,-0.24414062,0.79345703,0.0,0.0,0.0,-167.23389,44.58252,169.6399
1766902484135,-0.7080078,-0.15673828,-0.68896484,0.0,0.6713867,0.7324219,0.0,0.0,0.0,-167.23389,44.58252,169.6399
1766902484147,-0.7080078,-0.15673828,-0.68896484,0.0,0.6713867,0.7324219,0.0,0.0,0.0,-167.2998,44.71985,169.40369
1766902484235,-0.70996094,-0.15625,-0.6899414,-0.6713867,0.6713867,0.9765625,0.0,0.0,0.0,-167.2998,44.71985,169.40369
1766902484246,-0.70996094,-0.15625,-0.6899414,-0.6713867,0.6713867,0.9765625,0.0,0.0,0.0,-167.33276,44.609985,169.10706
1766902484334,-0.7084961,-0.15966797,-0.69970703,-0.12207031,0.61035156,0.18310547,0.0,0.0,0.0,-167.33276,44.609985,169.10706
1766902484346,-0.7084961,-0.15966797,-0.69970703,-0.12207031,0.61035156,0.18310547,0.0,0.0,0.0,-167.39868,44.604492,168.93677
1766902484434,-0.703125,-0.1459961,-0.70214844,0.48828125,0.12207031,-0.5493164,0.0,0.0,0.0,-167.39868,44.604492,168.93677
1766902484446,-0.703125,-0.1459961,-0.70214844,0.48828125,0.12207031,-0.5493164,0.0,0.0,0.0,-167.35474,44.560547,168.80493
1766902484534,-0.69970703,-0.16064453,-0.6875,1.4038086,1.8920898,-0.30517578,0.0,0.0,0.0,-167.35474,44.560547,168.80493
1766902484545,-0.69970703,-0.16064453,-0.6875,1.4038086,1.8920898,-0.30517578,0.0,0.0,0.0,-167.17346,44.417725,168.76648
1766902484633,-0.7133789,-0.15185547,-0.6899414,0.48828125,0.48828125,-0.9765625,0.0,0.0,0.0,-167.17346,44.417725,168.76648
1766902484645,-0.7133789,-0.15185547,-0.6899414,0.48828125,0.48828125,-0.9765625,0.0,0.0,0.0,-167.08557,44.3573,168.71155
1766902484733,-0.69873047,-0.16308594,-0.69873047,0.0,-0.5493164,-0.91552734,0.0,0.0,0.0,-167.08557,44.3573,168.71155
1766902484745,-0.69873047,-0.16308594,-0.69873047,0.0,-0.5493164,-0.91552734,0.0,0.0,0.0,-166.96472,44.395752,168.76648
1766902484833,-0.7060547,-0.16796875,-0.69873047,0.24414062,0.24414062,-1.2207031,0.0,0.0,0.0,-166.96472,44.395752,168.76648
1766902484845,-0.7060547,-0.16796875,-0.69873047,0.24414062,0.24414062,-1.2207031,0.0,0.0,0.0,-166.8219,44.30237,168.77197
1766902484933,-0.69921875,-0.15576172,-0.68896484,-0.5493164,-0.36621094,-0.5493164,0.0,0.0,0.0,-166.8219,44.30237,168.77197
1766902484945,-0.69921875,-0.15576172,-0.68896484,-0.5493164,-0.36621094,-0.5493164,0.0,0.0,0.0,-166.71204,44.258423,168.78296
1766902485032,-0.70410156,-0.16503906,-0.69873047,0.5493164,-1.7089844,-0.12207031,0.0,0.0,0.0,-166.71204,44.258423,168.78296
1766902485044,-0.70410156,-0.16503906,-0.69873047,0.5493164,-1.7089844,-0.12207031,0.0,0.0,0.0,-166.67358,44.34082,168.72253
1766902485132,-0.7060547,-0.1665039,-0.6850586,-0.24414062,0.61035156,0.61035156,0.0,0.0,0.0,-166.67358,44.34082,168.72253
1766902485143,-0.7060547,-0.1665039,-0.6850586,-0.24414062,0.61035156,0.61035156,0.0,0.0,0.0,-166.70654,44.39026,168.5083
1766902485232,-0.70410156,-0.16357422,-0.69140625,0.24414062,1.2207031,-0.91552734,0.0,0.0,0.0,-166.70654,44.39026,168.5083
1766902485243,-0.70410156,-0.16357422,-0.69140625,0.24414062,1.2207031,-0.91552734,0.0,0.0,0.0,-166.59668,44.313354,168.45337
1766902485331,-0.6977539,-0.1665039,-0.6923828,-0.61035156,0.18310547,0.0,0.0,0.0,0.0,-166.59668,44.313354,168.45337
1766902485343,-0.6977539,-0.1665039,-0.6923828,-0.61035156,0.18310547,0.0,0.0,0.0,0.0,-166.56372,44.247437,168.39294
1766902485431,-0.69384766,-0.16455078,-0.6904297,0.36621094,-0.4272461,0.5493164,0.0,0.0,0.0,-166.56372,44.247437,168.39294
1766902485443,-0.69384766,-0.16455078,-0.6904297,0.36621094,-0.4272461,0.5493164,0.0,0.0,0.0,-166.61865,44.25293,168.19519
1766902485531,-0.70214844,-0.1694336,-0.69628906,-0.61035156,1.2207031,1.7700195,0.0,0.0,0.0,-166.61865,44.25293,168.19519
1766902485542,-0.70214844,-0.1694336,-0.69628906,-0.61035156,1.2207031,1.7700195,0.0,0.0,0.0,-166.71204,44.26941,167.96448
1766902485631,-0.71240234,-0.15820312,-0.69921875,-0.4272461,-1.159668,1.6479492,0.0,0.0,0.0,-166.71204,44.26941,167.96448
1766902485642,-0.71240234,-0.15820312,-0.69921875,-0.4272461,-1.159668,1.6479492,0.0,0.0,0.0,-166.9867,44.335327,167.60742
1766902485730,-0.703125,-0.16357422,-0.6982422,-1.7700195,-1.3427734,2.8076172,0.0,0.0,0.0,-166.9867,44.335327,167.60742
1766902485742,-0.703125,-0.16357422,-0.6982422,-1.7700195,-1.3427734,2.8076172,0.0,0.0,0.0,-167.24487,44.571533,167.34924
1766902485830,-0.7158203,-0.1508789,-0.6894531,0.30517578,-1.7700195,2.4414062,0.0,0.0,0.0,-167.24487,44.571533,167.34924
1766902485842,-0.7158203,-0.1508789,-0.6894531,0.30517578,-1.7700195,2.4414062,0.0,0.0,0.0,-167.51953,44.802246,166.99768
1766902485930,-0.71191406,-0.16064453,-0.68896484,0.7324219,-0.4272461,0.30517578,0.0,0.0,0.0,-167.51953,44.802246,166.99768
1766902485941,-0.71191406,-0.16064453,-0.68896484,0.7324219,-0.4272461,0.30517578,0.0,0.0,0.0,-167.47559,44.873657,166.8219
1766902486029,-0.71728516,-0.15722656,-0.68847656,0.61035156,-0.9765625,0.0,0.0,0.0,0.0,-167.47559,44.873657,166.8219
1766902486041,-0.71728516,-0.15722656,-0.68847656,0.61035156,-0.9765625,0.0,0.0,0.0,0.0,-167.34924,44.873657,166.79443
1766902486129,-0.7084961,-0.1616211,-0.7001953,2.380371,-1.7089844,-0.91552734,0.0,0.0,0.0,-167.34924,44.873657,166.79443
1766902486141,-0.7084961,-0.1616211,-0.7001953,2.380371,-1.7089844,-0.91552734,0.0,0.0,0.0,-167.17346,45.0,166.97571
1766902486229,-0.7211914,-0.1484375,-0.6948242,0.61035156,-3.4179688,-0.8544922,0.0,0.0,0.0,-167.17346,45.0,166.97571
1766902486240,-0.7211914,-0.1484375,-0.6948242,0.61035156,-3.4179688,-0.8544922,0.0,0.0,0.0,-167.00867,45.148315,167.1405
1766902486329,-0.70947266,-0.16113281,-0.68408203,0.30517578,-3.0517578,0.18310547,0.0,0.0,0.0,-167.00867,45.148315,167.1405
1766902486340,-0.70947266,-0.16113281,-0.68408203,0.30517578,-3.0517578,0.18310547,0.0,0.0,0.0,-166.85486,45.324097,167.27234
1766902486428,-0.71972656,-0.16503906,-0.67285156,0.6713867,-1.6479492,-0.48828125,0.0,0.0,0.0,-166.85486,45.324097,167.27234
1766902486440,-0.71972656,-0.16503906,-0.67285156,0.6713867,-1.6479492,-0.48828125,0.0,0.0,0.0,-166.72302,45.576782,167.40967
1766902486528,-0.7167969,-0.15673828,-0.6767578,0.061035156,-0.8544922,-0.9765625,0.0,0.0,0.0,-166.72302,45.576782,167.40967
1766902486540,-0.7167969,-0.15673828,-0.6767578,0.061035156,-0.8544922,-0.9765625,0.0,0.0,0.0,-166.55273,45.741577,167.6294
1766902486628,-0.7236328,-0.16064453,-0.6738281,-1.4648438,-1.4648438,0.7324219,0.0,0.0,0.0,-166.55273,45.741577,167.6294
1766902486640,-0.7236328,-0.16064453,-0.6738281,-1.4648438,-1.4648438,0.7324219,0.0,0.0,0.0,-166.54724,45.802002,167.73376
1766902486727,-0.71875,-0.16601562,-0.66552734,-2.380371,-0.061035156,2.0141602,0.0,0.0,0.0,-166.54724,45.802002,167.73376
1766902486739,-0.71875,-0.16601562,-0.66552734,-2.380371,-0.061035156,2.0141602,0.0,0.0,0.0,-166.80542,45.95581,167.72827
1766902486827,-0.7246094,-0.14990234,-0.6689453,-1.953125,-0.9765625,2.380371,0.0,0.0,0.0,-166.80542,45.95581,167.72827
1766902486839,-0.7246094,-0.14990234,-0.6689453,-1.953125,-0.9765625,2.380371,0.0,0.0,0.0,-167.07458,46.120605,167.60193
1766902486927,-0.7446289,-0.16113281,-0.6748047,0.0,-0.18310547,2.5634766,0.0,0.0,0.0,-167.07458,46.120605,167.60193
1766902486939,-0.7446289,-0.16113281,-0.6748047,0.0,-0.18310547,2.5634766,0.0,0.0,0.0,-167.49207,46.279907,167.40967
1766902487027,-0.72998047,-0.14550781,-0.6791992,1.2207031,-2.0141602,-1.4648438,0.0,0.0,0.0,-167.49207,46.279907,167.40967
1766902487038,-0.72998047,-0.14550781,-0.6791992,1.2207031,-2.0141602,-1.4648438,0.0,0.0,0.0,-167.43713,46.35681,167.60193
1766902487127,-0.7324219,-0.1459961,-0.6772461,0.30517578,1.159668,-0.7324219,0.0,0.0,0.0,-167.43713,46.35681,167.60193
1766902487138,-0.7324219,-0.1459961,-0.6772461,0.30517578,1.159668,-0.7324219,0.0,0.0,0.0,-167.36572,46.384277,167.9425
1766902487226,-0.7265625,-0.14990234,-0.66259766,-2.9907227,0.061035156,-2.0141602,0.0,0.0,0.0,-167.36572,46.384277,167.9425
1766902487237,-0.7265625,-0.14990234,-0.66259766,-2.9907227,0.061035156,-2.0141602,0.0,0.0,0.0,-167.32727,46.24695,168.30505
1766902487326,-0.7246094,-0.1508789,-0.66748047,-1.0986328,1.7700195,-1.4648438,0.0,0.0,0.0,-167.32727,46.24695,168.30505
1766902487337,-0.7246094,-0.1508789,-0.66748047,-1.0986328,1.7700195,-1.4648438,0.0,0.0,0.0,-167.2998,46.192017,168.69507
1766902487426,-0.7270508,-0.1586914,-0.6723633,1.2207031,1.0986328,-1.2207031,0.0,0.0,0.0,-167.2998,46.192017,168.69507
1766902487437,-0.7270508,-0.1586914,-0.6723633,1.2207031,1.0986328,-1.2207031,0.0,0.0,0.0,-167.146,46.065674,169.04114
1766902487525,-0.7158203,-0.15429688,-0.671875,-1.5869141,2.2583008,-0.9765625,0.0,0.0,0.0,-167.146,46.065674,169.04114
1766902487536,-0.7158203,-0.15429688,-0.671875,-1.5869141,2.2583008,-0.9765625,0.0,0.0,0.0,-167.18994,46.010742,169.27734
1766902487625,-0.7421875,-0.14794922,-0.68115234,-1.0986328,0.79345703,-0.9765625,0.0,0.0,0.0,-167.18994,46.010742,169.27734
1766902487636,-0.7421875,-0.14794922,-0.68115234,-1.0986328,0.79345703,-0.9765625,0.0,0.0,0.0,-167.1405,45.961304,169.53003
1766902487724,-0.7182617,-0.16113281,-0.67578125,-0.12207031,-0.79345703,-1.0986328,0.0,0.0,0.0,-167.1405,45.961304,169.53003
1766902487736,-0.7182617,-0.16113281,-0.67578125,-0.12207031,-0.79345703,-1.0986328,0.0,0.0,0.0,-167.01416,45.906372,169.84863
1766902487824,-0.7104492,-0.15917969,-0.67871094,1.0986328,0.061035156,-1.0375977,0.0,0.0,0.0,-167.01416,45.906372,169.84863
1766902487836,-0.7104492,-0.15917969,-0.67871094,1.0986328,0.061035156,-1.0375977,0.0,0.0,0.0,-166.87134,45.862427,170.06287
1766902487924,-0.734375,-0.1538086,-0.671875,0.7324219,0.7324219,2.746582,0.0,0.0,0.0,-166.87134,45.862427,170.06287
1766902487935,-0.734375,-0.1538086,-0.671875,0.7324219,0.7324219,2.746582,0.0,0.0,0.0,-166.79443,45.92285,169.99146
1766902488024,-0.72509766,-0.16552734,-0.68310547,2.0141602,1.0375977,3.2348633,0.0,0.0,0.0,-166.79443,45.92285,169.99146
1766902488036,-0.72509766,-0.16552734,-0.68310547,2.0141602,1.0375977,3.2348633,0.0,0.0,0.0,-167.11853,45.83496,169.53003
1766902488123,-0.72558594,-0.1484375,-0.68359375,-2.0141602,1.953125,0.6713867,0.0,0.0,0.0,-167.11853,45.83496,169.53003
1766902488135,-0.72558594,-0.1484375,-0.68359375,-2.0141602,1.953125,0.6713867,0.0,0.0,0.0,-167.32727,45.76355,169.33228
1766902488223,-0.72558594,-0.15283203,-0.6875,-0.4272461,1.2817383,1.2207031,0.0,0.0,0.0,-167.32727,45.76355,169.33228
1766902488235,-0.72558594,-0.15283203,-0.6875,-0.4272461,1.2817383,1.2207031,0.0,0.0,0.0,-167.49756,45.615234,169.24988
1766902488323,-0.6953125,-0.15136719,-0.6738281,1.4038086,2.1972656,-0.18310547,0.0,0.0,0.0,-167.49756,45.615234,169.24988
1766902488334,-0.6953125,-0.15136719,-0.6738281,1.4038086,2.1972656,-0.18310547,0.0,0.0,0.0,-167.57446,45.401,169.16199
1766902488422,-0.70996094,-0.14355469,-0.68066406,1.4038086,3.8452148,-0.79345703,0.0,0.0,0.0,-167.57446,45.401,169.16199
1766902488434,-0.70996094,-0.14355469,-0.68066406,1.4038086,3.8452148,-0.79345703,0.0,0.0,0.0,-167.72278,45.37903,169.06311
1766902488522,-0.71435547,-0.15576172,-0.6933594,1.159668,1.0986328,0.48828125,0.0,0.0,0.0,-167.72278,45.37903,169.06311
1766902488534,-0.71435547,-0.15576172,-0.6933594,1.159668,1.0986328,0.48828125,0.0,0.0,0.0,-167.5415,45.142822,169.04663
1766902488622,-0.69970703,-0.15332031,-0.68066406,1.3427734,2.8076172,-0.12207031,0.0,0.0,0.0,-167.5415,45.142822,169.04663
1766902488633,-0.69970703,-0.15332031,-0.68066406,1.3427734,2.8076172,-0.12207031,0.0,0.0,0.0,-167.47559,44.956055,168.96423
1766902488722,-0.71435547,-0.15673828,-0.6821289,0.6713867,0.91552734,0.61035156,0.0,0.0,0.0,-167.47559,44.956055,168.96423
1766902488733,-0.71435547,-0.15673828,-0.6821289,0.6713867,0.91552734,0.61035156,0.0,0.0,0.0,-167.37671,44.79126,168.81592
1766902488821,-0.70214844,-0.1538086,-0.6928711,-0.79345703,0.8544922,1.6479492,0.0,0.0,0.0,-167.37671,44.79126,168.81592
1766902488833,-0.70214844,-0.1538086,-0.6928711,-0.79345703,0.8544922,1.6479492,0.0,0.0,0.0,-167.47559,44.714355,168.5907
1766902488921,-0.71533203,-0.13964844,-0.68652344,0.4272461,-0.18310547,0.18310547,0.0,0.0,0.0,-167.47559,44.714355,168.5907
1766902488933,-0.71533203,-0.13964844,-0.68652344,0.4272461,-0.18310547,0.18310547,0.0,0.0,0.0,-167.60193,44.829712,168.33801
1766902489021,-0.70947266,-0.15820312,-0.68603516,0.24414062,1.4648438,0.24414062,0.0,0.0,0.0,-167.60193,44.829712,168.33801
1766902489032,-0.70947266,-0.15820312,-0.68603516,0.24414062,1.4648438,0.24414062,0.0,0.0,0.0,-167.6239,44.84619,168.2721
1766902489120,-0.69970703,-0.14355469,-0.69677734,0.0,-0.36621094,-0.48828125,0.0,0.0,0.0,-167.6239,44.84619,168.2721
1766902489132,-0.69970703,-0.14355469,-0.69677734,0.0,-0.36621094,-0.48828125,0.0,0.0,0.0,-167.5415,44.829712,168.28857
1766902489220,-0.72265625,-0.1538086,-0.6904297,-0.9765625,-2.0141602,0.7324219,0.0,0.0,0.0,-167.5415,44.829712,168.28857
1766902489232,-0.72265625,-0.1538086,-0.6904297,-0.9765625,-2.0141602,0.7324219,0.0,0.0,0.0,-167.48108,44.978027,168.25012
1766902489320,-0.7114258,-0.1616211,-0.6958008,1.7089844,0.36621094,-1.0986328,0.0,0.0,0.0,-167.48108,44.978027,168.25012
1766902489332,-0.7114258,-0.1616211,-0.6958008,1.7089844,0.36621094,-1.0986328,0.0,0.0,0.0,-167.37122,44.934082,168.25562
1766902489420,-0.71240234,-0.14892578,-0.6928711,-0.48828125,0.18310547,-0.18310547,0.0,0.0,0.0,-167.37122,44.934082,168.25562
1766902489431,-0.71240234,-0.14892578,-0.6928711,-0.48828125,0.18310547,-0.18310547,0.0,0.0,0.0,-167.26685,44.785767,168.2666
1766902489519,-0.7036133,-0.15527344,-0.6977539,-0.061035156,1.7089844,-1.159668,0.0,0.0,0.0,-167.26685,44.785767,168.2666
1766902489531,-0.7036133,-0.15527344,-0.6977539,-0.061035156,1.7089844,-1.159668,0.0,0.0,0.0,-167.17346,44.604492,168.29407
1766902489619,-0.7011719,-0.15283203,-0.69140625,-0.8544922,-0.30517578,1.2207031,0.0,0.0,0.0,-167.17346,44.604492,168.29407
1766902489630,-0.7011719,-0.15283203,-0.69140625,-0.8544922,-0.30517578,1.2207031,0.0,0.0,0.0,-167.27783,44.5166,168.07983
1766902489718,-0.7133789,-0.15576172,-0.6972656,0.12207031,-0.061035156,0.36621094,0.0,0.0,0.0,-167.27783,44.5166,168.07983
1766902489730,-0.7133789,-0.15576172,-0.6972656,0.12207031,-0.061035156,0.36621094,0.0,0.0,0.0,-167.33276,44.58252,167.93701
1766902489818,-0.70214844,-0.1616211,-0.6933594,0.061035156,-0.18310547,1.5258789,0.0,0.0,0.0,-167.33276,44.58252,167.93701
1766902489830,-0.70214844,-0.1616211,-0.6933594,0.061035156,-0.18310547,1.5258789,0.0,0.0,0.0,-167.37671,44.588013,167.73926
1766902489918,-0.70947266,-0.14746094,-0.6948242,0.0,0.4272461,0.79345703,0.0,0.0,0.0,-167.37671,44.588013,167.73926
1766902489929,-0.70947266,-0.14746094,-0.6948242,0.0,0.4272461,0.79345703,0.0,0.0,0.0,-167.52502,44.58252,167.49207
1766902490018,-0.71240234,-0.15478516,-0.6928711,0.12207031,1.3427734,0.5493164,0.0,0.0,0.0,-167.52502,44.58252,167.49207
1766902490029,-0.71240234,-0.15478516,-0.6928711,0.12207031,1.3427734,0.5493164,0.0,0.0,0.0,-167.53601,44.522095,167.37671
1766902490117,-0.7128906,-0.14697266,-0.6958008,0.0,1.159668,0.12207031,0.0,0.0,0.0,-167.53601,44.522095,167.37671
1766902490129,-0.7128906,-0.14697266,-0.6958008,0.0,1.159668,0.12207031,0.0,0.0,0.0,-167.56348,44.39026,167.25037
1766902490217,-0.6894531,-0.15820312,-0.7011719,0.061035156,0.5493164,0.0,0.0,0.0,0.0,-167.56348,44.39026,167.25037
1766902490229,-0.6894531,-0.15820312,-0.7011719,0.061035156,0.5493164,0.0,0.0,0.0,0.0,-167.56348,44.241943,167.15149
1766902490317,-0.7055664,-0.14697266,-0.69384766,-0.5493164,0.91552734,0.48828125,0.0,0.0,0.0,-167.56348,44.241943,167.15149
1766902490329,-0.7055664,-0.14697266,-0.69384766,-0.5493164,0.91552734,0.48828125,0.0,0.0,0.0,-167.59644,44.208984,166.94824
1766902490417,-0.69189453,-0.15185547,-0.7006836,0.24414062,0.061035156,-0.91552734,0.0,0.0,0.0,-167.59644,44.208984,166.94824
1766902490428,-0.69189453,-0.15185547,-0.7006836,0.24414062,0.061035156,-0.91552734,0.0,0.0,0.0,-167.57446,44.20349,166.91528
1766902490516,-0.70458984,-0.14892578,-0.69921875,0.36621094,-0.24414062,0.0,0.0,0.0,0.0,-167.57446,44.20349,166.91528
1766902490528,-0.70458984,-0.14892578,-0.69921875,0.36621094,-0.24414062,0.0,0.0,0.0,0.0,-167.48657,44.18701,166.8274
1766902490616,-0.6972656,-0.15673828,-0.6904297,0.061035156,0.24414062,0.30517578,0.0,0.0,0.0,-167.48657,44.18701,166.8274
1766902490627,-0.6972656,-0.15673828,-0.6904297,0.061035156,0.24414062,0.30517578,0.0,0.0,0.0,-167.44812,44.25293,166.71204
1766902490716,-0.7084961,-0.16064453,-0.6923828,0.061035156,1.159668,-0.36621094,0.0,0.0,0.0,-167.44812,44.25293,166.71204
1766902490728,-0.7084961,-0.16064453,-0.6923828,0.061035156,1.159668,-0.36621094,0.0,0.0,0.0,-167.3822,44.25293,166.62415
1766902490815,-0.6972656,-0.15429688,-0.69189453,0.6713867,1.2207031,-0.61035156,0.0,0.0,0.0,-167.3822,44.25293,166.62415
1766902490827,-0.6972656,-0.15429688,-0.69189453,0.6713867,1.2207031,-0.61035156,0.0,0.0,0.0,-167.28882,44.154053,166.60767
1766902490915,-0.69189453,-0.16210938,-0.6958008,0.4272461,2.5634766,-0.79345703,0.0,0.0,0.0,-167.28882,44.154053,166.60767
1766902490927,-0.69189453,-0.16210938,-0.6958008,0.4272461,2.5634766,-0.79345703,0.0,0.0,0.0,-167.18994,43.99475,166.5802
1766902491015,-0.7050781,-0.15234375,-0.7001953,-1.159668,-0.5493164,1.0375977,0.0,0.0,0.0,-167.18994,43.99475,166.5802
1766902491026,-0.7050781,-0.15234375,-0.7001953,-1.159668,-0.5493164,1.0375977,0.0,0.0,0.0,-167.2229,44.04419,166.45386
1766902491114,-0.70458984,-0.15576172,-0.69873047,-0.30517578,-1.0986328,1.7089844,0.0,0.0,0.0,-167.2229,44.04419,166.45386
1766902491126,-0.70458984,-0.15576172,-0.69873047,-0.30517578,-1.0986328,1.7089844,0.0,0.0,0.0,-167.44263,44.28589,166.21216
1766902491214,-0.7050781,-0.1586914,-0.7011719,0.48828125,0.79345703,0.36621094,0.0,0.0,0.0,-167.44263,44.28589,166.21216
1766902491226,-0.7050781,-0.1586914,-0.7011719,0.48828125,0.79345703,0.36621094,0.0,0.0,0.0,-167.45361,44.258423,166.03638
1766902491314,-0.69677734,-0.14746094,-0.6958008,0.0,0.0,0.6713867,0.0,0.0,0.0,-167.45361,44.258423,166.03638
1766902491326,-0.69677734,-0.14746094,-0.6958008,0.0,0.0,0.6713867,0.0,0.0,0.0,-167.57996,44.23645,165.83313
1766902491414,-0.70458984,-0.15771484,-0.68603516,0.48828125,1.953125,2.5024414,0.0,0.0,0.0,-167.57996,44.23645,165.83313
1766902491425,-0.70458984,-0.15771484,-0.68603516,0.48828125,1.953125,2.5024414,0.0,0.0,0.0,-167.52502,44.280396,165.6903
1766902491513,-0.7060547,-0.14892578,-0.7001953,1.5869141,0.36621094,5.126953,0.0,0.0,0.0,-167.52502,44.280396,165.6903
1766902491525,-0.7060547,-0.14892578,-0.7001953,1.5869141,0.36621094,5.126953,0.0,0.0,0.0,-167.73926,44.37378,165.17944
1766902491613,-0.7055664,-0.13085938,-0.69677734,4.8217773,-0.4272461,3.6010742,0.0,0.0,0.0,-167.73926,44.37378,165.17944
1766902491625,-0.7055664,-0.13085938,-0.69677734,4.8217773,-0.4272461,3.6010742,0.0,0.0,0.0,-167.96997,44.609985,164.53674
1766902491713,-0.6777344,-0.13476562,-0.703125,7.2021484,-1.2207031,13.305664,0.0,0.0,0.0,-167.96997,44.609985,164.53674
1766902491724,-0.6777344,-0.13476562,-0.703125,7.2021484,-1.2207031,13.305664,0.0,0.0,0.0,-167.89307,44.747314,163.74573
1766902491812,-0.76953125,-0.14550781,-0.69384766,7.080078,3.540039,17.63916,0.0,0.0,0.0,-167.89307,44.747314,163.74573
1766902491824,-0.76953125,-0.14550781,-0.69384766,7.080078,3.540039,17.63916,0.0,0.0,0.0,-169.151,44.978027,161.2024
1766902491912,-0.73095703,-0.13964844,-0.68310547,7.507324,3.2348633,-1.8920898,0.0,0.0,0.0,-169.151,44.978027,161.2024
1766902491924,-0.73095703,-0.13964844,-0.68310547,7.507324,3.2348633,-1.8920898,0.0,0.0,0.0,-169.11804,44.769287,160.70251
1766902492012,-0.6816406,-0.14160156,-0.7114258,7.873535,2.1972656,0.0,0.0,0.0,0.0,-169.11804,44.769287,160.70251
1766902492023,-0.6816406,-0.14160156,-0.7114258,7.873535,2.1972656,0.0,0.0,0.0,0.0,-168.09082,44.450684,161.61987
1766902492112,-0.734375,-0.14746094,-0.69970703,2.0141602,-0.36621094,-0.9765625,0.0,0.0,0.0,-168.09082,44.450684,161.61987
1766902492123,-0.734375,-0.14746094,-0.69970703,2.0141602,-0.36621094,-0.9765625,0.0,0.0,0.0,-167.64038,44.3573,161.98242
1766902492211,-0.7084961,-0.15136719,-0.6743164,-6.958008,-8.972168,-1.5258789,0.0,0.0,0.0,-167.64038,44.3573,161.98242
1766902492223,-0.7084961,-0.15136719,-0.6743164,-6.958008,-8.972168,-1.5258789,0.0,0.0,0.0,-167.60193,44.873657,162.65259
1766902492311,-0.76464844,-0.12695312,-0.68603516,-3.9672852,-2.1972656,-0.061035156,0.0,0.0,0.0,-167.60193,44.873657,162.65259
1766902492322,-0.76464844,-0.12695312,-0.68603516,-3.9672852,-2.1972656,-0.061035156,0.0,0.0,0.0,-167.8601,45.411987,163.43262
1766902492411,-0.6533203,-0.1586914,-0.6542969,-1.8310547,-0.8544922,-1.159668,0.0,0.0,0.0,-167.8601,45.411987,163.43262
1766902492422,-0.6533203,-0.1586914,-0.6542969,-1.8310547,-0.8544922,-1.159668,0.0,0.0,0.0,-167.61292,45.620728,164.46533
1766902492510,-0.7573242,-0.13134766,-0.69628906,-2.9296875,-0.91552734,2.5024414,0.0,0.0,0.0,-167.61292,45.620728,164.46533
1766902492522,-0.7573242,-0.13134766,-0.69628906,-2.9296875,-0.91552734,2.5024414,0.0,0.0,0.0,-168.25012,45.889893,164.77844
1766902492610,-0.7446289,-0.14648438,-0.6743164,-4.5776367,0.4272461,1.953125,0.0,0.0,0.0,-168.25012,45.889893,164.77844
1766902492622,-0.7446289,-0.14648438,-0.6743164,-4.5776367,0.4272461,1.953125,0.0,0.0,0.0,-168.65112,45.906372,165.0586
1766902492710,-0.7011719,-0.12792969,-0.67822266,-4.8828125,1.8310547,2.380371,0.0,0.0,0.0,-168.65112,45.906372,165.0586
1766902492721,-0.7011719,-0.12792969,-0.67822266,-4.8828125,1.8310547,2.380371,0.0,0.0,0.0,-169.34875,45.823975,165.36072
1766902492809,-0.7236328,-0.10058594,-0.6870117,2.5634766,0.24414062,-0.12207031,0.0,0.0,0.0,-169.34875,45.823975,165.36072
1766902492821,-0.7236328,-0.10058594,-0.6870117,2.5634766,0.24414062,-0.12207031,0.0,0.0,0.0,-169.61243,45.725098,165.72327
1766902492909,-0.7158203,-0.13134766,-0.6879883,2.1362305,-0.30517578,-0.18310547,0.0,0.0,0.0,-169.61243,45.725098,165.72327
1766902492921,-0.7158203,-0.13134766,-0.6879883,2.1362305,-0.30517578,-0.18310547,0.0,0.0,0.0,-169.35974,45.69214,166.28906
1766902493009,-0.72509766,-0.13574219,-0.6796875,3.2348633,1.8920898,-1.4648438,0.0,0.0,0.0,-169.35974,45.69214,166.28906
1766902493021,-0.72509766,-0.13574219,-0.6796875,3.2348633,1.8920898,-1.4648438,0.0,0.0,0.0,-168.9862,45.60974,166.83289
1766902493109,-0.71728516,-0.13476562,-0.68066406,0.24414062,1.953125,-0.18310547,0.0,0.0,0.0,-168.9862,45.60974,166.83289
1766902493121,-0.71728516,-0.13476562,-0.68066406,0.24414062,1.953125,-0.18310547,0.0,0.0,0.0,-168.88184,45.48889,167.33276
1766902493208,-0.72753906,-0.13134766,-0.6923828,-0.4272461,0.79345703,0.6713867,0.0,0.0,0.0,-168.88184,45.48889,167.33276
1766902493220,-0.72753906,-0.13134766,-0.6923828,-0.4272461,0.79345703,0.6713867,0.0,0.0,0.0,-168.92578,45.395508,167.66235
1766902493308,-0.71484375,-0.13574219,-0.68603516,-0.061035156,1.953125,0.18310547,0.0,0.0,0.0,-168.92578,45.395508,167.66235
1766902493319,-0.71484375,-0.13574219,-0.68603516,-0.061035156,1.953125,0.18310547,0.0,0.0,0.0,-168.95325,45.2417,167.95349
1766902493408,-0.71435547,-0.1328125,-0.6933594,0.6713867,0.9765625,0.12207031,0.0,0.0,0.0,-168.95325,45.2417,167.95349
1766902493419,-0.71435547,-0.1328125,-0.6933594,0.6713867,0.9765625,0.12207031,0.0,0.0,0.0,-168.96423,45.142822,168.21716
1766902493507,-0.71191406,-0.1328125,-0.68652344,0.61035156,2.6855469,-0.061035156,0.0,0.0,0.0,-168.96423,45.142822,168.21716
1766902493519,-0.71191406,-0.1328125,-0.68652344,0.61035156,2.6855469,-0.061035156,0.0,0.0,0.0,-168.89832,44.939575,168.4314
1766902493607,-0.7128906,-0.13085938,-0.6958008,-1.4038086,0.0,0.9765625,0.0,0.0,0.0,-168.89832,44.939575,168.4314
1766902493619,-0.7128906,-0.13085938,-0.6958008,-1.4038086,0.0,0.9765625,0.0,0.0,0.0,-169.02466,44.901123,168.56323
1766902493707,-0.7138672,-0.1352539,-0.69873047,0.36621094,0.061035156,0.12207031,0.0,0.0,0.0,-169.02466,44.901123,168.56323
1766902493719,-0.7138672,-0.1352539,-0.69873047,0.36621094,0.061035156,0.12207031,0.0,0.0,0.0,-169.0686,44.890137,168.71155
1766902493806,-0.70751953,-0.13183594,-0.69384766,-0.24414062,0.0,0.24414062,0.0,0.0,0.0,-169.0686,44.890137,168.71155
1766902493818,-0.70751953,-0.13183594,-0.69384766,-0.24414062,0.0,0.24414062,0.0,0.0,0.0,-169.09607,44.82422,168.87634
1766902493906,-0.71191406,-0.13232422,-0.6953125,0.12207031,0.61035156,0.0,0.0,0.0,0.0,-169.09607,44.82422,168.87634
1766902493918,-0.71191406,-0.13232422,-0.6953125,0.12207031,0.61035156,0.0,0.0,0.0,0.0,-169.09058,44.796753,169.03015
1766902494006,-0.7089844,-0.13232422,-0.6972656,-0.12207031,0.24414062,0.12207031,0.0,0.0,0.0,-169.09058,44.796753,169.03015
1766902494017,-0.7089844,-0.13232422,-0.6972656,-0.12207031,0.24414062,0.12207031,0.0,0.0,0.0,-169.09607,44.73633,169.1565
1766902494106,-0.70996094,-0.13183594,-0.6923828,0.8544922,0.9765625,-0.24414062,0.0,0.0,0.0,-169.09607,44.73633,169.1565
1766902494117,-0.70996094,-0.13183594,-0.6923828,0.8544922,0.9765625,-0.24414062,0.0,0.0,0.0,-169.0686,44.714355,169.27185
1766902494205,-0.70996094,-0.13378906,-0.69677734,-0.5493164,-0.24414062,-0.061035156,0.0,0.0,0.0,-169.0686,44.714355,169.27185
1766902494217,-0.70996094,-0.13378906,-0.69677734,-0.5493164,-0.24414062,-0.061035156,0.0,0.0,0.0,-168.98071,44.675903,169.42566
1766902494305,-0.70947266,-0.13476562,-0.6948242,-0.91552734,-0.36621094,0.79345703,0.0,0.0,0.0,-168.98071,44.675903,169.42566
1766902494316,-0.70947266,-0.13476562,-0.6948242,-0.91552734,-0.36621094,0.79345703,0.0,0.0,0.0,-169.151,44.763794,169.45862
1766902494405,-0.71240234,-0.13232422,-0.6933594,0.24414062,1.4648438,-0.4272461,0.0,0.0,0.0,-169.151,44.763794,169.45862
1766902494416,-0.71240234,-0.13232422,-0.6933594,0.24414062,1.4648438,-0.4272461,0.0,0.0,0.0,-169.11804,44.730835,169.57397
1766902494504,-0.7133789,-0.1352539,-0.69921875,1.2817383,0.24414062,-0.91552734,0.0,0.0,0.0,-169.11804,44.730835,169.57397
1766902494516,-0.7133789,-0.1352539,-0.69921875,1.2817383,0.24414062,-0.91552734,0.0,0.0,0.0,-168.93127,44.697876,169.80469
1766902494604,-0.70214844,-0.13476562,-0.6977539,1.2817383,-0.48828125,-0.9765625,0.0,0.0,0.0,-168.93127,44.697876,169.80469
1766902494616,-0.70214844,-0.13476562,-0.6977539,1.2817383,-0.48828125,-0.9765625,0.0,0.0,0.0,-168.70605,44.664917,170.04639
1766902494704,-0.71240234,-0.13623047,-0.69873047,0.12207031,-0.6713867,0.4272461,0.0,0.0,0.0,-168.70605,44.664917,170.04639
1766902494715,-0.71240234,-0.13623047,-0.69873047,0.12207031,-0.6713867,0.4272461,0.0,0.0,0.0,-168.64563,44.747314,170.10681
1766902494804,-0.7163086,-0.1430664,-0.68847656,1.5258789,1.0986328,-0.4272461,0.0,0.0,0.0,-168.64563,44.747314,170.10681
1766902494815,-0.7163086,-0.1430664,-0.68847656,1.5258789,1.0986328,-0.4272461,0.0,0.0,0.0,-168.5907,44.74182,170.17822
1766902494903,-0.71777344,-0.14208984,-0.6982422,0.24414062,0.6713867,-1.159668,0.0,0.0,0.0,-168.5907,44.74182,170.17822
1766902494915,-0.71777344,-0.14208984,-0.6982422,0.24414062,0.6713867,-1.159668,0.0,0.0,0.0,-168.32703,44.63745,170.39246
1766902495003,-0.69628906,-0.14257812,-0.6948242,1.159668,0.5493164,-0.79345703,0.0,0.0,0.0,-168.32703,44.63745,170.39246
1766902495015,-0.69628906,-0.14257812,-0.6948242,1.159668,0.5493164,-0.79345703,0.0,0.0,0.0,-168.20068,44.544067,170.52429
1766902495103,-0.7128906,-0.14550781,-0.69189453,-0.9765625,-1.4038086,0.0,0.0,0.0,0.0,-168.20068,44.544067,170.52429
1766902495114,-0.7128906,-0.14550781,-0.69189453,-0.9765625,-1.4038086,0.0,0.0,0.0,0.0,-168.11829,44.67041,170.57373
1766902495202,-0.7241211,-0.1430664,-0.7060547,0.48828125,-0.18310547,-0.4272461,0.0,0.0,0.0,-168.11829,44.67041,170.57373
1766902495214,-0.7241211,-0.1430664,-0.7060547,0.48828125,-0.18310547,-0.4272461,0.0,0.0,0.0,-168.05786,44.67041,170.62866
1766902495302,-0.7080078,-0.14355469,-0.6879883,-0.30517578,0.0,-0.61035156,0.0,0.0,0.0,-168.05786,44.67041,170.62866
1766902495314,-0.7080078,-0.14355469,-0.6879883,-0.30517578,0.0,-0.61035156,0.0,0.0,0.0,-167.96997,44.61548,170.71655
1766902495402,-0.6977539,-0.14648438,-0.69189453,-1.159668,-1.0986328,0.24414062,0.0,0.0,0.0,-167.96997,44.61548,170.71655
1766902495415,-0.6977539,-0.14648438,-0.69189453,-1.159668,-1.0986328,0.24414062,0.0,0.0,0.0,-167.97546,44.67041,170.82092
1766902495501,-0.7060547,-0.1484375,-0.6972656,-0.18310547,-3.90625,0.24414062,0.0,0.0,0.0,-167.97546,44.67041,170.82092
1766902495513,-0.7060547,-0.1484375,-0.6972656,-0.18310547,-3.90625,0.24414062,0.0,0.0,0.0,-168.00842,44.829712,170.8374
1766902495601,-0.7241211,-0.140625,-0.6953125,-3.4179688,-6.164551,0.61035156,0.0,0.0,0.0,-168.00842,44.829712,170.8374
1766902495613,-0.7241211,-0.140625,-0.6953125,-3.4179688,-6.164551,0.61035156,0.0,0.0,0.0,-168.12378,45.285645,170.90332
1766902495701,-0.7192383,-0.14160156,-0.6801758,-0.061035156,-1.7700195,-0.30517578,0.0,0.0,0.0,-168.12378,45.285645,170.90332
1766902495712,-0.7192383,-0.14160156,-0.6801758,-0.061035156,-1.7700195,-0.30517578,0.0,0.0,0.0,-168.21716,45.6427,171.03516
1766902495801,-0.7158203,-0.14404297,-0.6748047,1.2817383,1.6479492,-0.18310547,0.0,0.0,0.0,-168.21716,45.6427,171.03516
1766902495812,-0.7158203,-0.14404297,-0.6748047,1.2817383,1.6479492,-0.18310547,0.0,0.0,0.0,-168.09082,45.670166,171.23291
1766902495900,-0.7216797,-0.14550781,-0.6855469,0.5493164,0.12207031,-0.12207031,0.0,0.0,0.0,-168.09082,45.670166,171.23291
1766902495912,-0.7216797,-0.14550781,-0.6855469,0.5493164,0.12207031,-0.12207031,0.0,0.0,0.0,-168.0304,45.62622,171.42517
1766902496000,-0.71240234,-0.1459961,-0.6796875,0.061035156,0.79345703,0.0,0.0,0.0,0.0,-168.0304,45.62622,171.42517
1766902496011,-0.71240234,-0.1459961,-0.6796875,0.061035156,0.79345703,0.0,0.0,0.0,0.0,-167.98645,45.620728,171.65039
1766902496100,-0.72802734,-0.13916016,-0.6816406,-1.0986328,-2.5634766,0.6713867,0.0,0.0,0.0,-167.98645,45.620728,171.65039
1766902496111,-0.72802734,-0.13916016,-0.6816406,-1.0986328,-2.5634766,0.6713867,0.0,0.0,0.0,-167.99194,45.67566,171.8097
1766902496199,-0.7182617,-0.14746094,-0.6713867,0.30517578,1.2207031,0.0,0.0,0.0,0.0,-167.99194,45.67566,171.8097
1766902496211,-0.7182617,-0.14746094,-0.6713867,0.30517578,1.2207031,0.0,0.0,0.0,0.0,-168.01941,45.85144,172.0459
1766902496299,-0.73046875,-0.13623047,-0.68603516,0.24414062,3.1738281,-0.91552734,0.0,0.0,0.0,-168.01941,45.85144,172.0459
1766902496311,-0.73046875,-0.13623047,-0.68603516,0.24414062,3.1738281,-0.91552734,0.0,0.0,0.0,-168.06335,45.774536,172.22168
1766902496399,-0.71240234,-0.15283203,-0.68310547,0.061035156,-1.2207031,0.24414062,0.0,0.0,0.0,-168.06335,45.774536,172.22168
1766902496410,-0.71240234,-0.15283203,-0.68310547,0.061035156,-1.2207031,0.24414062,0.0,0.0,0.0,-167.8601,45.428467,172.42493
1766902496498,-0.73095703,-0.140625,-0.68408203,-1.953125,-4.272461,0.79345703,0.0,0.0,0.0,-167.8601,45.428467,172.42493
1766902496510,-0.73095703,-0.140625,-0.68408203,-1.953125,-4.272461,0.79345703,0.0,0.0,0.0,-167.98096,45.802002,172.54028
1766902496598,-0.72021484,-0.14111328,-0.6777344,-2.4414062,-0.5493164,0.36621094,0.0,0.0,0.0,-167.98096,45.802002,172.54028
1766902496609,-0.72021484,-0.14111328,-0.6777344,-2.4414062,-0.5493164,0.36621094,0.0,0.0,0.0,-168.25012,46.054688,172.66663
1766902496698,-0.72998047,-0.13183594,-0.68359375,0.061035156,0.91552734,0.0,0.0,0.0,0.0,-168.25012,46.054688,172.66663
1766902496709,-0.72998047,-0.13183594,-0.68359375,0.061035156,0.91552734,0.0,0.0,0.0,0.0,-168.2721,46.038208,172.86987
1766902496798,-0.7216797,-0.14257812,-0.6801758,2.9907227,4.0893555,-0.061035156,0.0,0.0,0.0,-168.2721,46.038208,172.86987
1766902496809,-0.7216797,-0.14257812,-0.6801758,2.9907227,4.0893555,-0.061035156,0.0,0.0,0.0,-168.21167,45.807495,173.0072
1766902496897,-0.7055664,-0.13916016,-0.67041016,1.0986328,0.8544922,-0.4272461,0.0,0.0,0.0,-168.21167,45.807495,173.0072
1766902496909,-0.7055664,-0.13916016,-0.67041016,1.0986328,0.8544922,-0.4272461,0.0,0.0,0.0,-167.93152,45.532837,173.15002
1766902496997,-0.7285156,-0.14160156,-0.6845703,-2.746582,-3.1738281,0.8544922,0.0,0.0,0.0,-167.93152,45.532837,173.15002
1766902497008,-0.7285156,-0.14160156,-0.6845703,-2.746582,-3.1738281,0.8544922,0.0,0.0,0.0,-168.04688,45.74707,173.25989
1766902497097,-0.71777344,-0.125,-0.6845703,0.0,-1.7089844,0.30517578,0.0,0.0,0.0,-168.04688,45.74707,173.25989
1766902497108,-0.71777344,-0.125,-0.6845703,0.0,-1.7089844,0.30517578,0.0,0.0,0.0,-168.21716,46.02173,173.30933
1766902497196,-0.71875,-0.13916016,-0.67626953,-0.79345703,3.3569336,-0.91552734,0.0,0.0,0.0,-168.21716,46.02173,173.30933
1766902497208,-0.71875,-0.13916016,-0.67626953,-0.79345703,3.3569336,-0.91552734,0.0,0.0,0.0,-168.20618,45.840454,173.51807
1766902497296,-0.7163086,-0.15576172,-0.66845703,-0.18310547,-1.6479492,0.5493164,0.0,0.0,0.0,-168.20618,45.840454,173.51807
1766902497308,-0.7163086,-0.15576172,-0.66845703,-0.18310547,-1.6479492,0.5493164,0.0,0.0,0.0,-168.17322,45.69763,173.63892
1766902497396,-0.72509766,-0.13427734,-0.68603516,-0.5493164,-1.6479492,0.12207031,0.0,0.0,0.0,-168.17322,45.69763,173.63892
1766902497407,-0.72509766,-0.13427734,-0.68603516,-0.5493164,-1.6479492,0.12207031,0.0,0.0,0.0,-168.35449,46.120605,173.74878
1766902497495,-0.7324219,-0.13916016,-0.6816406,-0.061035156,1.8920898,0.24414062,0.0,0.0,0.0,-168.35449,46.120605,173.74878
1766902497507,-0.7324219,-0.13916016,-0.6816406,-0.061035156,1.8920898,0.24414062,0.0,0.0,0.0,-168.33252,45.999756,173.86963
1766902497595,-0.73095703,-0.14892578,-0.68603516,-0.6713867,-1.159668,0.5493164,0.0,0.0,0.0,-168.33252,45.999756,173.86963
1766902497607,-0.73095703,-0.14892578,-0.68603516,-0.6713867,-1.159668,0.5493164,0.0,0.0,0.0,-168.27759,45.86792,173.98499
1766902497695,-0.72558594,-0.13623047,-0.6845703,-0.36621094,-0.48828125,0.5493164,0.0,0.0,0.0,-168.27759,45.86792,173.98499
1766902497706,-0.72558594,-0.13623047,-0.6845703,-0.36621094,-0.48828125,0.5493164,0.0,0.0,0.0,-168.32153,45.90088,174.04541
1766902497795,-0.72314453,-0.13671875,-0.68603516,0.0,0.8544922,0.4272461,0.0,0.0,0.0,-168.32153,45.90088,174.04541
1766902497806,-0.72314453,-0.13671875,-0.68603516,0.0,0.8544922,0.4272461,0.0,0.0,0.0,-168.35999,45.802002,174.07288
1766902497894,-0.71435547,-0.14257812,-0.67871094,0.8544922,0.79345703,0.0,0.0,0.0,0.0,-168.35999,45.802002,174.07288
1766902497906,-0.71435547,-0.14257812,-0.67871094,0.8544922,0.79345703,0.0,0.0,0.0,0.0,-168.31055,45.681152,174.09485
1766902497994,-0.72509766,-0.13964844,-0.68603516,0.24414062,1.2207031,0.18310547,0.0,0.0,0.0,-168.31055,45.681152,174.09485
1766902498005,-0.72509766,-0.13964844,-0.68603516,0.24414062,1.2207031,0.18310547,0.0,0.0,0.0,-168.31604,45.62622,174.1333
1766902498094,-0.71728516,-0.13671875,-0.6845703,0.061035156,0.12207031,0.18310547,0.0,0.0,0.0,-168.31604,45.62622,174.1333
1766902498105,-0.71728516,-0.13671875,-0.6845703,0.061035156,0.12207031,0.18310547,0.0,0.0,0.0,-168.31604,45.57129,174.2102
1766902498193,-0.72314453,-0.1430664,-0.68896484,-0.061035156,0.6713867,0.18310547,0.0,0.0,0.0,-168.31604,45.57129,174.2102
1766902498205,-0.72314453,-0.1430664,-0.68896484,-0.061035156,0.6713867,0.18310547,0.0,0.0,0.0,-168.31604,45.549316,174.25964
1766902498293,-0.71875,-0.13964844,-0.6870117,-0.061035156,2.9907227,-0.18310547,0.0,0.0,0.0,-168.31604,45.549316,174.25964
1766902498304,-0.71875,-0.13964844,-0.6870117,-0.061035156,2.9907227,-0.18310547,0.0,0.0,0.0,-168.39844,45.351562,174.27063
1766902498393,-0.7138672,-0.14111328,-0.6875,-1.8920898,1.0375977,0.0,0.0,0.0,0.0,-168.39844,45.351562,174.27063
1766902498404,-0.7138672,-0.14111328,-0.6875,-1.8920898,1.0375977,0.0,0.0,0.0,0.0,-168.54675,45.115356,174.30908
1766902498492,-0.7128906,-0.14257812,-0.6826172,-2.5024414,-1.8310547,-1.2817383,0.0,0.0,0.0,-168.54675,45.115356,174.30908
1766902498504,-0.7128906,-0.14257812,-0.6826172,-2.5024414,-1.8310547,-1.2817383,0.0,0.0,0.0,-168.68408,45.20874,174.40247
1766902498592,-0.7133789,-0.13720703,-0.68310547,-1.4648438,-0.91552734,-1.5258789,0.0,0.0,0.0,-168.68408,45.20874,174.40247
1766902498604,-0.7133789,-0.13720703,-0.68310547,-1.4648438,-0.91552734,-1.5258789,0.0,0.0,0.0,-168.61816,45.324097,174.68262
1766902498692,-0.7207031,-0.13720703,-0.68896484,0.5493164,0.061035156,-0.6713867,0.0,0.0,0.0,-168.61816,45.324097,174.68262
1766902498703,-0.7207031,-0.13720703,-0.68896484,0.5493164,0.061035156,-0.6713867,0.0,0.0,0.0,-168.52478,45.37903,174.8529
1766902498792,-0.71484375,-0.1381836,-0.68408203,0.30517578,0.061035156,0.30517578,0.0,0.0,0.0,-168.52478,45.37903,174.8529
1766902498806,-0.71484375,-0.1381836,-0.68408203,0.30517578,0.061035156,0.30517578,0.0,0.0,0.0,-168.46436,45.351562,174.90234
1766902498891,-0.71484375,-0.14111328,-0.68652344,0.0,-0.48828125,1.0375977,0.0,0.0,0.0,-168.46436,45.351562,174.90234
1766902498903,-0.71484375,-0.14111328,-0.68652344,0.0,-0.48828125,1.0375977,0.0,0.0,0.0,-168.47534,45.43396,174.8529
1766902498991,-0.71777344,-0.13769531,-0.67871094,2.380371,2.0751953,1.2207031,0.0,0.0,0.0,-168.47534,45.43396,174.8529
1766902499002,-0.71777344,-0.13769531,-0.67871094,2.380371,2.0751953,1.2207031,0.0,0.0,0.0,-168.5028,45.406494,174.64966
1766902499091,-0.72558594,-0.14208984,-0.71191406,2.0141602,4.0893555,0.18310547,0.0,0.0,0.0,-168.5028,45.406494,174.64966
1766902499102,-0.72558594,-0.14208984,-0.71191406,2.0141602,4.0893555,0.18310547,0.0,0.0,0.0,-168.36548,45.098877,174.51233
1766902499190,-0.7060547,-0.14453125,-0.69384766,4.0893555,5.859375,-1.2207031,0.0,0.0,0.0,-168.36548,45.098877,174.51233
1766902499202,-0.7060547,-0.14453125,-0.69384766,4.0893555,5.859375,-1.2207031,0.0,0.0,0.0,-168.12378,44.571533,174.41895
1766902499290,-0.7080078,-0.14550781,-0.7055664,-0.18310547,-1.0375977,-0.18310547,0.0,0.0,0.0,-168.12378,44.571533,174.41895
1766902499301,-0.7080078,-0.14550781,-0.7055664,-0.18310547,-1.0375977,-0.18310547,0.0,0.0,0.0,-167.88208,44.37378,174.3695
1766902499390,-0.7050781,-0.15234375,-0.69384766,1.8920898,0.61035156,-0.9765625,0.0,0.0,0.0,-167.88208,44.37378,174.3695
1766902499401,-0.7050781,-0.15234375,-0.69384766,1.8920898,0.61035156,-0.9765625,0.0,0.0,0.0,-167.67883,44.30786,174.28162
1766902499490,-0.6958008,-0.14941406,-0.6899414,-0.061035156,-0.61035156,-0.48828125,0.0,0.0,0.0,-167.67883,44.30786,174.28162
1766902499501,-0.6958008,-0.14941406,-0.6899414,-0.061035156,-0.61035156,-0.48828125,0.0,0.0,0.0,-167.51404,44.280396,174.23218
1766902499589,-0.7011719,-0.1484375,-0.6904297,-1.5258789,-2.1972656,0.8544922,0.0,0.0,0.0,-167.51404,44.280396,174.23218
1766902499601,-0.7011719,-0.1484375,-0.6904297,-1.5258789,-2.1972656,0.8544922,0.0,0.0,0.0,-167.56897,44.434204,174.08386
1766902499689,-0.7080078,-0.15234375,-0.6923828,-1.0375977,-3.6621094,0.48828125,0.0,0.0,0.0,-167.56897,44.434204,174.08386
1766902499700,-0.7080078,-0.15234375,-0.6923828,-1.0375977,-3.6621094,0.48828125,0.0,0.0,0.0,-167.71179,44.769287,173.91907
1766902499788,-0.70947266,-0.1430664,-0.6821289,-0.79345703,-2.0751953,0.36621094,0.0,0.0,0.0,-167.71179,44.769287,173.91907
1766902499800,-0.70947266,-0.1430664,-0.6821289,-0.79345703,-2.0751953,0.36621094,0.0,0.0,0.0,-167.7832,45.01648,173.78723
1766902499888,-0.7133789,-0.14794922,-0.6904297,-0.9765625,-1.3427734,0.18310547,0.0,0.0,0.0,-167.7832,45.01648,173.78723
1766902499900,-0.7133789,-0.14794922,-0.6904297,-0.9765625,-1.3427734,0.18310547,0.0,0.0,0.0,-167.88208,45.15381,173.71582
1766902499988,-0.7192383,-0.14501953,-0.6904297,-0.9765625,-2.6245117,0.8544922,0.0,0.0,0.0,-167.88208,45.15381,173.71582
1766902499999,-0.7192383,-0.14501953,-0.6904297,-0.9765625,-2.6245117,0.8544922,0.0,0.0,0.0,-167.96997,45.357056,173.67188
1766902500088,-0.7182617,-0.14550781,-0.6826172,-0.5493164,-0.5493164,0.4272461,0.0,0.0,0.0,-167.96997,45.357056,173.67188
1766902500099,-0.7182617,-0.14550781,-0.6826172,-0.5493164,-0.5493164,0.4272461,0.0,0.0,0.0,-168.06335,45.439453,173.61694
1766902500187,-0.7163086,-0.14501953,-0.68066406,-0.48828125,-0.61035156,0.24414062,0.0,0.0,0.0,-168.06335,45.439453,173.61694
1766902500200,-0.7163086,-0.14501953,-0.68066406,-0.48828125,-0.61035156,0.24414062,0.0,0.0,0.0,-168.07983,45.516357,173.62244
1766902500287,-0.71972656,-0.14257812,-0.6821289,-0.4272461,0.0,0.24414062,0.0,0.0,0.0,-168.07983,45.516357,173.62244
1766902500299,-0.71972656,-0.14257812,-0.6821289,-0.4272461,0.0,0.24414062,0.0,0.0,0.0,-168.15125,45.57129,173.62244
1766902500387,-0.7236328,-0.14013672,-0.67626953,-0.30517578,2.9907227,1.0986328,0.0,0.0,0.0,-168.15125,45.57129,173.62244
1766902500399,-0.7236328,-0.14013672,-0.67626953,-0.30517578,2.9907227,1.0986328,0.0,0.0,0.0,-168.1842,45.560303,173.60596
1766902500486,-0.7128906,-0.1381836,-0.6743164,2.0141602,1.8920898,-0.79345703,0.0,0.0,0.0,-168.1842,45.560303,173.60596
1766902500498,-0.7128906,-0.1381836,-0.6743164,2.0141602,1.8920898,-0.79345703,0.0,0.0,0.0,-168.06885,45.38452,173.58948
1766902500586,-0.7192383,-0.15136719,-0.68408203,0.30517578,-0.5493164,0.18310547,0.0,0.0,0.0,-168.06885,45.38452,173.58948
1766902500598,-0.7192383,-0.15136719,-0.68408203,0.30517578,-0.5493164,0.18310547,0.0,0.0,0.0,-167.95349,45.455933,173.69934
1766902500686,-0.7216797,-0.140625,-0.6879883,0.36621094,0.48828125,-0.061035156,0.0,0.0,0.0,-167.95349,45.455933,173.69934
1766902500698,-0.7216797,-0.140625,-0.6879883,0.36621094,0.48828125,-0.061035156,0.0,0.0,0.0,-167.87659,45.444946,173.71582
1766902500786,-0.7211914,-0.14648438,-0.68652344,-0.30517578,-1.0986328,0.48828125,0.0,0.0,0.0,-167.87659,45.444946,173.71582
1766902500797,-0.7211914,-0.14648438,-0.68652344,-0.30517578,-1.0986328,0.48828125,0.0,0.0,0.0,-167.83813,45.45044,173.77625
1766902500886,-0.70214844,-0.1459961,-0.67285156,-2.9296875,1.0986328,3.479004,0.0,0.0,0.0,-167.83813,45.45044,173.77625
1766902500897,-0.70214844,-0.1459961,-0.67285156,-2.9296875,1.0986328,3.479004,0.0,0.0,0.0,-168.05237,45.4834,173.62244
1766902500985,-0.71484375,-0.13867188,-0.69384766,-3.540039,-1.0375977,5.3710938,0.0,0.0,0.0,-168.05237,45.4834,173.62244
1766902500996,-0.71484375,-0.13867188,-0.69384766,-3.540039,-1.0375977,5.3710938,0.0,0.0,0.0,-168.83789,45.565796,173.02917
1766902501085,-0.7441406,-0.13134766,-0.69091797,0.9765625,0.9765625,1.3427734,0.0,0.0,0.0,-168.83789,45.565796,173.02917
1766902501096,-0.7441406,-0.13134766,-0.69091797,0.9765625,0.9765625,1.3427734,0.0,0.0,0.0,-169.21143,45.648193,172.65015
1766902501184,-0.71777344,-0.12158203,-0.6826172,1.5258789,2.8686523,-3.2958984,0.0,0.0,0.0,-169.21143,45.648193,172.65015
1766902501196,-0.71777344,-0.12158203,-0.6826172,1.5258789,2.8686523,-3.2958984,0.0,0.0,0.0,-168.90381,45.41748,173.04016
1766902501284,-0.7265625,-0.13085938,-0.6904297,4.760742,-2.746582,-6.164551,0.0,0.0,0.0,-168.90381,45.41748,173.04016
1766902501295,-0.7265625,-0.13085938,-0.6904297,4.760742,-2.746582,-6.164551,0.0,0.0,0.0,-168.11829,45.406494,173.8916
1766902501384,-0.70410156,-0.13916016,-0.6875,7.751465,-5.554199,-6.7749023,0.0,0.0,0.0,-168.11829,45.406494,173.8916
1766902501395,-0.70410156,-0.13916016,-0.6875,7.751465,-5.554199,-6.7749023,0.0,0.0,0.0,-166.70105,45.69763,175.0232
1766902501483,-0.72509766,-0.17675781,-0.6669922,6.8359375,-4.4555664,-5.126953,0.0,0.0,0.0,-166.70105,45.69763,175.0232
1766902501495,-0.72509766,-0.17675781,-0.6669922,6.8359375,-4.4555664,-5.126953,0.0,0.0,0.0,-165.42664,45.983276,175.83069
1766902501583,-0.7241211,-0.20654297,-0.6508789,5.79834,-2.6855469,-5.1879883,0.0,0.0,0.0,-165.42664,45.983276,175.83069
1766902501595,-0.7241211,-0.20654297,-0.6508789,5.79834,-2.6855469,-5.1879883,0.0,0.0,0.0,-164.15771,46.16455,176.75354
1766902501683,-0.71240234,-0.18798828,-0.6455078,1.5258789,-6.1035156,-6.0424805,0.0,0.0,0.0,-164.15771,46.16455,176.75354
1766902501695,-0.71240234,-0.18798828,-0.6455078,1.5258789,-6.1035156,-6.0424805,0.0,0.0,0.0,-163.16345,46.428223,177.9071
1766902501782,-0.7421875,-0.22998047,-0.6508789,-0.30517578,-3.3569336,-1.5258789,0.0,0.0,0.0,-163.16345,46.428223,177.9071
1766902501794,-0.7421875,-0.22998047,-0.6508789,-0.30517578,-3.3569336,-1.5258789,0.0,0.0,0.0,-162.52075,46.966553,178.80249
1766902501882,-0.7426758,-0.22851562,-0.63183594,-2.8686523,0.48828125,0.24414062,0.0,0.0,0.0,-162.52075,46.966553,178.80249
1766902501894,-0.7426758,-0.22851562,-0.63183594,-2.8686523,0.48828125,0.24414062,0.0,0.0,0.0,-162.4823,47.01599,179.14856
1766902501982,-0.73339844,-0.1875,-0.6503906,-4.211426,-0.6713867,0.061035156,0.0,0.0,0.0,-162.4823,47.01599,179.14856
1766902501994,-0.73339844,-0.1875,-0.6503906,-4.211426,-0.6713867,0.061035156,0.0,0.0,0.0,-162.81738,47.092896,179.51111
1766902502082,-0.7495117,-0.18896484,-0.65283203,-1.5869141,-1.0375977,2.0751953,0.0,0.0,0.0,-162.81738,47.092896,179.51111
1766902502093,-0.7495117,-0.18896484,-0.65283203,-1.5869141,-1.0375977,2.0751953,0.0,0.0,0.0,-163.03162,47.142334,179.63196
1766902502181,-0.7402344,-0.20507812,-0.64697266,0.7324219,-0.36621094,-0.12207031,0.0,0.0,0.0,-163.03162,47.142334,179.63196
1766902502193,-0.7402344,-0.20507812,-0.64697266,0.7324219,-0.36621094,-0.12207031,0.0,0.0,0.0,-163.07556,47.180786,179.86816
1766902502282,-0.73828125,-0.19873047,-0.64208984,0.5493164,-0.91552734,-1.5258789,0.0,0.0,0.0,-163.07556,47.180786,179.86816
1766902502293,-0.73828125,-0.19873047,-0.64208984,0.5493164,-0.91552734,-1.5258789,0.0,0.0,0.0,-162.85583,47.191772,-179.60999
1766902502381,-0.7441406,-0.19873047,-0.6503906,0.0,-2.380371,0.061035156,0.0,0.0,0.0,-162.85583,47.191772,-179.60999
1766902502393,-0.7441406,-0.19873047,-0.6503906,0.0,-2.380371,0.061035156,0.0,0.0,0.0,-162.71301,47.285156,-179.20349
1766902502480,-0.7416992,-0.21679688,-0.6489258,0.12207031,0.18310547,0.0,0.0,0.0,0.0,-162.71301,47.285156,-179.20349
1766902502492,-0.7416992,-0.21679688,-0.6489258,0.12207031,0.18310547,0.0,0.0,0.0,0.0,-162.59216,47.356567,-178.86841
1766902502580,-0.74853516,-0.20263672,-0.6513672,-1.6479492,-0.91552734,-0.18310547,0.0,0.0,0.0,-162.59216,47.356567,-178.86841
1766902502591,-0.74853516,-0.20263672,-0.6513672,-1.6479492,-0.91552734,-0.18310547,0.0,0.0,0.0,-162.54272,47.30713,-178.4784
1766902502680,-0.734375,-0.20019531,-0.64990234,0.79345703,0.91552734,-0.6713867,0.0,0.0,0.0,-162.54272,47.30713,-178.4784
1766902502691,-0.734375,-0.20019531,-0.64990234,0.79345703,0.91552734,-0.6713867,0.0,0.0,0.0,-162.51526,47.25769,-178.08838
1766902502780,-0.74121094,-0.20947266,-0.63964844,0.12207031,0.79345703,0.48828125,0.0,0.0,0.0,-162.51526,47.25769,-178.08838
1766902502791,-0.74121094,-0.20947266,-0.63964844,0.12207031,0.79345703,0.48828125,0.0,0.0,0.0,-162.51526,47.180786,-177.95654
1766902502879,-0.7324219,-0.20263672,-0.6513672,0.24414062,1.2207031,-0.91552734,0.0,0.0,0.0,-162.51526,47.180786,-177.95654
1766902502891,-0.7324219,-0.20263672,-0.6513672,0.24414062,1.2207031,-0.91552734,0.0,0.0,0.0,-162.50977,47.10388,-177.67639
1766902502979,-0.73828125,-0.2055664,-0.65185547,0.8544922,2.6855469,-0.7324219,0.0,0.0,0.0,-162.50977,47.10388,-177.67639
1766902502990,-0.73828125,-0.2055664,-0.65185547,0.8544922,2.6855469,-0.7324219,0.0,0.0,0.0,-162.29004,46.917114,-177.36328
1766902503079,-0.74316406,-0.21240234,-0.6508789,-1.5258789,-1.4038086,-0.5493164,0.0,0.0,0.0,-162.29004,46.917114,-177.36328
1766902503090,-0.74316406,-0.21240234,-0.6508789,-1.5258789,-1.4038086,-0.5493164,0.0,0.0,0.0,-162.3175,46.9281,-177.12708
1766902503178,-0.7294922,-0.203125,-0.64453125,0.4272461,0.0,-1.159668,0.0,0.0,0.0,-162.3175,46.9281,-177.12708
1766902503190,-0.7294922,-0.203125,-0.64453125,0.4272461,0.0,-1.159668,0.0,0.0,0.0,-162.16919,46.91162,-176.80298
1766902503278,-0.74072266,-0.20800781,-0.65283203,-0.9765625,-0.36621094,0.48828125,0.0,0.0,0.0,-162.16919,46.91162,-176.80298
1766902503290,-0.74072266,-0.20800781,-0.65283203,-0.9765625,-0.36621094,0.48828125,0.0,0.0,0.0,-162.20215,47.043457,-176.64917
1766902503378,-0.7373047,-0.20947266,-0.6503906,0.061035156,-0.5493164,0.24414062,0.0,0.0,0.0,-162.20215,47.043457,-176.64917
1766902503389,-0.7373047,-0.20947266,-0.6503906,0.061035156,-0.5493164,0.24414062,0.0,0.0,0.0,-162.22961,47.037964,-176.58875
1766902503477,-0.7548828,-0.2133789,-0.6464844,-2.6855469,-1.953125,-0.9765625,0.0,0.0,0.0,-162.22961,47.037964,-176.58875
1766902503489,-0.7548828,-0.2133789,-0.6464844,-2.6855469,-1.953125,-0.9765625,0.0,0.0,0.0,-162.19116,47.12036,-176.3086
1766902503577,-0.73876953,-0.20996094,-0.6484375,-1.0986328,0.0,-2.6855469,0.0,0.0,0.0,-162.19116,47.12036,-176.3086
1766902503589,-0.73876953,-0.20996094,-0.6484375,-1.0986328,0.0,-2.6855469,0.0,0.0,0.0,-162.0758,47.20276,-175.69336
1766902503677,-0.73046875,-0.20214844,-0.65625,-1.953125,-3.7841797,0.79345703,0.0,0.0,0.0,-162.0758,47.20276,-175.69336
1766902503688,-0.73046875,-0.20214844,-0.65625,-1.953125,-3.7841797,0.79345703,0.0,0.0,0.0,-161.96594,47.087402,-175.2649
1766902503776,-0.73583984,-0.20898438,-0.63720703,-0.61035156,0.9765625,0.48828125,0.0,0.0,0.0,-161.96594,47.087402,-175.2649
1766902503788,-0.73583984,-0.20898438,-0.63720703,-0.61035156,0.9765625,0.48828125,0.0,0.0,0.0,-162.11975,47.180786,-175.3418
1766902503876,-0.7397461,-0.21289062,-0.63427734,-0.61035156,0.4272461,-0.061035156,0.0,0.0,0.0,-162.11975,47.180786,-175.3418
1766902503888,-0.7397461,-0.21289062,-0.63427734,-0.61035156,0.4272461,-0.061035156,0.0,0.0,0.0,-162.09229,47.18628,-175.24841
1766902503976,-0.7363281,-0.203125,-0.63916016,-0.48828125,2.9296875,0.061035156,0.0,0.0,0.0,-162.09229,47.18628,-175.24841
1766902503987,-0.7363281,-0.203125,-0.63916016,-0.48828125,2.9296875,0.061035156,0.0,0.0,0.0,-162.26257,47.18628,-175.12207
1766902504076,-0.74902344,-0.20507812,-0.6557617,-1.2817383,1.953125,0.6713867,0.0,0.0,0.0,-162.26257,47.18628,-175.12207
1766902504087,-0.74902344,-0.20507812,-0.6557617,-1.2817383,1.953125,0.6713867,0.0,0.0,0.0,-162.36145,47.005005,-175.03967
1766902504175,-0.7348633,-0.20117188,-0.65234375,-0.5493164,-1.4648438,0.30517578,0.0,0.0,0.0,-162.36145,47.005005,-175.03967
1766902504187,-0.7348633,-0.20117188,-0.65234375,-0.5493164,-1.4648438,0.30517578,0.0,0.0,0.0,-162.45483,46.983032,-174.98474
1766902504275,-0.7368164,-0.20605469,-0.64697266,0.6713867,1.6479492,-0.6713867,0.0,0.0,0.0,-162.45483,46.983032,-174.98474
1766902504286,-0.7368164,-0.20605469,-0.64697266,0.6713867,1.6479492,-0.6713867,0.0,0.0,0.0,-162.42188,46.99951,-174.91882
1766902504375,-0.7470703,-0.2055664,-0.6567383,-1.4648438,1.8310547,1.4038086,0.0,0.0,0.0,-162.42188,46.99951,-174.91882
1766902504387,-0.7470703,-0.2055664,-0.6567383,-1.4648438,1.8310547,1.4038086,0.0,0.0,0.0,-162.4768,46.87317,-174.89136
1766902504474,-0.74072266,-0.203125,-0.65234375,-0.9765625,2.8076172,0.91552734,0.0,0.0,0.0,-162.4768,46.87317,-174.89136
