timestamp,accX,accY,accZ,gyroX,gyroY,gyroZ,magX,magY,magZ,roll,pitch,yaw
1765377106125,-0.5209961,-0.3022461,-0.80566406,0.24414062,-0.5493164,0.0,0.0,0.0,0.0,-159.07654,30.80017,170.31555
1765377106137,-0.5209961,-0.3022461,-0.80566406,0.24414062,-0.5493164,0.0,0.0,0.0,0.0,-159.07654,30.772705,170.31006
1765377106226,-0.5185547,-0.30126953,-0.80566406,-0.18310547,0.24414062,0.0,0.0,0.0,0.0,-159.07654,30.772705,170.31006
1765377106237,-0.5185547,-0.30126953,-0.80566406,-0.18310547,0.24414062,0.0,0.0,0.0,0.0,-159.06006,30.789185,170.31555
1765377106325,-0.51904297,-0.3017578,-0.8046875,0.061035156,-0.4272461,0.0,0.0,0.0,0.0,-159.06006,30.789185,170.31555
1765377106336,-0.51904297,-0.3017578,-0.8046875,0.061035156,-0.4272461,0.0,0.0,0.0,0.0,-159.05457,30.80017,170.32654
1765377106425,-0.51904297,-0.3022461,-0.80371094,-0.061035156,0.0,0.0,0.0,0.0,0.0,-159.05457,30.80017,170.32654
1765377106436,-0.51904297,-0.3022461,-0.80371094,-0.061035156,0.0,0.0,0.0,0.0,0.0,-159.04907,30.811157,170.33203
1765377106525,-0.5180664,-0.30126953,-0.80322266,0.0,0.0,0.0,0.0,0.0,0.0,-159.04907,30.811157,170.33203
1765377106536,-0.5180664,-0.30126953,-0.80322266,0.0,0.0,0.0,0.0,0.0,0.0,-159.04358,30.81665,170.33752
1765377106624,-0.5185547,-0.30078125,-0.8041992,-0.061035156,0.0,0.0,0.0,0.0,0.0,-159.04358,30.81665,170.33752
1765377106635,-0.5185547,-0.30078125,-0.8041992,-0.061035156,0.0,0.0,0.0,0.0,0.0,-159.03809,30.827637,170.34302
1765377106723,-0.51953125,-0.2998047,-0.8051758,0.0,-0.061035156,0.0,0.0,0.0,0.0,-159.03809,30.827637,170.34302
1765377106735,-0.51953125,-0.2998047,-0.8051758,0.0,-0.061035156,0.0,0.0,0.0,0.0,-159.03809,30.827637,170.34302
1765377106823,-0.51904297,-0.30273438,-0.8071289,0.18310547,0.24414062,0.0,0.0,0.0,0.0,-159.03809,30.827637,170.34302
1765377106834,-0.51904297,-0.30273438,-0.8071289,0.18310547,0.24414062,0.0,0.0,0.0,0.0,-159.04907,30.811157,170.33752
1765377106923,-0.5205078,-0.3022461,-0.80566406,0.18310547,-0.48828125,0.0,0.0,0.0,0.0,-159.04907,30.811157,170.33752
1765377106934,-0.5205078,-0.3022461,-0.80566406,0.18310547,-0.48828125,0.0,0.0,0.0,0.0,-159.04907,30.789185,170.32654
1765377107022,-0.51953125,-0.2998047,-0.80566406,0.0,0.24414062,0.0,0.0,0.0,0.0,-159.04907,30.789185,170.32654
1765377107034,-0.51953125,-0.2998047,-0.80566406,0.0,0.24414062,0.0,0.0,0.0,0.0,-159.0271,30.805664,170.33752
1765377107122,-0.51904297,-0.30273438,-0.80322266,0.0,-0.12207031,0.0,0.0,0.0,0.0,-159.0271,30.805664,170.33752
1765377107134,-0.51904297,-0.30273438,-0.80322266,0.0,-0.12207031,0.0,0.0,0.0,0.0,-159.0326,30.805664,170.33752
1765377107222,-0.51904297,-0.30029297,-0.8027344,-0.12207031,0.061035156,0.0,0.0,0.0,0.0,-159.0326,30.805664,170.33752
1765377107233,-0.51904297,-0.30029297,-0.8027344,-0.12207031,0.061035156,0.0,0.0,0.0,0.0,-159.0216,30.822144,170.34851
1765377107322,-0.51904297,-0.30078125,-0.80371094,-0.12207031,0.18310547,0.0,0.0,0.0,0.0,-159.0216,30.822144,170.34851
1765377107333,-0.51904297,-0.30078125,-0.80371094,-0.12207031,0.18310547,0.0,0.0,0.0,0.0,-159.0216,30.81665,170.34302
1765377107421,-0.5185547,-0.30078125,-0.80371094,-0.5493164,0.12207031,0.0,0.0,0.0,0.0,-159.0216,30.81665,170.34302
1765377107433,-0.5185547,-0.30078125,-0.80371094,-0.5493164,0.12207031,0.0,0.0,0.0,0.0,-159.05457,30.83313,170.354
1765377107521,-0.51904297,-0.30029297,-0.80615234,-0.8544922,0.4272461,0.36621094,0.0,0.0,0.0,-159.05457,30.83313,170.354
1765377107533,-0.51904297,-0.30029297,-0.80615234,-0.8544922,0.4272461,0.36621094,0.0,0.0,0.0,-159.14795,30.827637,170.33203
1765377107621,-0.51904297,-0.29833984,-0.8051758,-1.3427734,1.2817383,0.4272461,0.0,0.0,0.0,-159.14795,30.827637,170.33203
1765377107632,-0.51904297,-0.29833984,-0.8051758,-1.3427734,1.2817383,0.4272461,0.0,0.0,0.0,-159.29077,30.794678,170.25513
1765377107721,-0.5214844,-0.29638672,-0.80908203,-1.2817383,0.61035156,0.24414062,0.0,0.0,0.0,-159.29077,30.794678,170.25513
1765377107733,-0.5214844,-0.29638672,-0.80908203,-1.2817383,0.61035156,0.24414062,0.0,0.0,0.0,-159.43909,30.739746,170.18372
1765377107820,-0.515625,-0.29345703,-0.8095703,-1.5258789,0.91552734,0.4272461,0.0,0.0,0.0,-159.43909,30.739746,170.18372
1765377107832,-0.515625,-0.29345703,-0.8095703,-1.5258789,0.91552734,0.4272461,0.0,0.0,0.0,-159.59839,30.701294,170.10132
1765377107920,-0.5175781,-0.29248047,-0.8095703,-1.159668,0.91552734,0.48828125,0.0,0.0,0.0,-159.59839,30.701294,170.10132
1765377107931,-0.5175781,-0.29248047,-0.8095703,-1.159668,0.91552734,0.48828125,0.0,0.0,0.0,-159.77966,30.613403,170.00244
1765377108020,-0.51416016,-0.28955078,-0.8129883,-1.159668,0.79345703,0.5493164,0.0,0.0,0.0,-159.77966,30.613403,170.00244
1765377108031,-0.51416016,-0.28955078,-0.8129883,-1.159668,0.79345703,0.5493164,0.0,0.0,0.0,-159.93347,30.552979,169.92554
1765377108119,-0.51416016,-0.28955078,-0.8120117,-0.9765625,1.4038086,0.4272461,0.0,0.0,0.0,-159.93347,30.552979,169.92554
1765377108131,-0.51416016,-0.28955078,-0.8120117,-0.9765625,1.4038086,0.4272461,0.0,0.0,0.0,-160.05981,30.481567,169.82666
1765377108219,-0.5107422,-0.28173828,-0.8125,-1.6479492,1.0375977,1.0986328,0.0,0.0,0.0,-160.05981,30.481567,169.82666
1765377108231,-0.5107422,-0.28173828,-0.8125,-1.6479492,1.0375977,1.0986328,0.0,0.0,0.0,-160.26855,30.393677,169.68384
1765377108319,-0.50927734,-0.28125,-0.81640625,-0.61035156,0.061035156,0.48828125,0.0,0.0,0.0,-160.26855,30.393677,169.68384
1765377108330,-0.50927734,-0.28125,-0.81640625,-0.61035156,0.061035156,0.48828125,0.0,0.0,0.0,-160.41138,30.36621,169.58496
1765377108419,-0.5083008,-0.27685547,-0.81347656,0.061035156,0.91552734,0.36621094,0.0,0.0,0.0,-160.41138,30.36621,169.58496
1765377108430,-0.5083008,-0.27685547,-0.81347656,0.061035156,0.91552734,0.36621094,0.0,0.0,0.0,-160.49377,30.2948,169.49158
1765377108518,-0.50634766,-0.2861328,-0.8154297,0.9765625,-0.6713867,-0.4272461,0.0,0.0,0.0,-160.49377,30.2948,169.49158
1765377108530,-0.50634766,-0.2861328,-0.8154297,0.9765625,-0.6713867,-0.4272461,0.0,0.0,0.0,-160.4773,30.31128,169.48608
1765377108618,-0.5131836,-0.28173828,-0.8144531,0.8544922,-0.36621094,-0.30517578,0.0,0.0,0.0,-160.4773,30.31128,169.48608
1765377108630,-0.5131836,-0.28173828,-0.8144531,0.8544922,-0.36621094,-0.30517578,0.0,0.0,0.0,-160.33997,30.344238,169.49707
1765377108718,-0.5078125,-0.28320312,-0.8095703,0.91552734,-1.3427734,-0.8544922,0.0,0.0,0.0,-160.33997,30.344238,169.49707
1765377108729,-0.5078125,-0.28320312,-0.8095703,0.91552734,-1.3427734,-0.8544922,0.0,0.0,0.0,-160.20813,30.432129,169.57397
1765377108817,-0.5161133,-0.29638672,-0.8149414,1.7089844,-0.24414062,-0.6713867,0.0,0.0,0.0,-160.20813,30.432129,169.57397
1765377108829,-0.5161133,-0.29638672,-0.8149414,1.7089844,-0.24414062,-0.6713867,0.0,0.0,0.0,-160.01038,30.443115,169.68933
1765377108917,-0.51220703,-0.28515625,-0.8076172,1.2207031,-0.8544922,-0.061035156,0.0,0.0,0.0,-160.01038,30.443115,169.68933
1765377108929,-0.51220703,-0.28515625,-0.8076172,1.2207031,-0.8544922,-0.061035156,0.0,0.0,0.0,-159.85107,30.492554,169.68384
1765377109017,-0.5151367,-0.29785156,-0.8154297,1.0375977,-0.36621094,-0.18310547,0.0,0.0,0.0,-159.85107,30.492554,169.68384
1765377109028,-0.5151367,-0.29785156,-0.8154297,1.0375977,-0.36621094,-0.18310547,0.0,0.0,0.0,-159.72473,30.541992,169.7168
1765377109117,-0.5136719,-0.29541016,-0.81103516,1.0986328,0.18310547,-0.18310547,0.0,0.0,0.0,-159.72473,30.541992,169.7168
1765377109128,-0.5136719,-0.29541016,-0.81103516,1.0986328,0.18310547,-0.18310547,0.0,0.0,0.0,-159.64233,30.552979,169.7168
1765377109216,-0.5161133,-0.29492188,-0.81103516,1.0986328,-0.9765625,-0.30517578,0.0,0.0,0.0,-159.64233,30.552979,169.7168
1765377109228,-0.5161133,-0.29492188,-0.81103516,1.0986328,-0.9765625,-0.30517578,0.0,0.0,0.0,-159.54346,30.547485,169.7168
1765377109316,-0.51708984,-0.29882812,-0.8095703,0.5493164,-0.24414062,0.0,0.0,0.0,0.0,-159.54346,30.547485,169.7168
1765377109328,-0.51708984,-0.29882812,-0.8095703,0.5493164,-0.24414062,0.0,0.0,0.0,0.0,-159.4226,30.629883,169.76074
1765377109416,-0.515625,-0.29785156,-0.80615234,0.5493164,-0.5493164,0.0,0.0,0.0,0.0,-159.4226,30.629883,169.76074
1765377109427,-0.515625,-0.29785156,-0.80615234,0.5493164,-0.5493164,0.0,0.0,0.0,0.0,-159.36218,30.662842,169.75525
1765377109516,-0.5161133,-0.2998047,-0.80566406,0.061035156,0.0,-0.061035156,0.0,0.0,0.0,-159.36218,30.662842,169.75525
1765377109527,-0.5161133,-0.2998047,-0.80566406,0.061035156,0.0,-0.061035156,0.0,0.0,0.0,-159.32922,30.684814,169.75525
1765377109615,-0.51660156,-0.2993164,-0.8051758,0.18310547,0.061035156,0.0,0.0,0.0,0.0,-159.32922,30.684814,169.75525
1765377109627,-0.51660156,-0.2993164,-0.8051758,0.18310547,0.061035156,0.0,0.0,0.0,0.0,-159.29626,30.679321,169.76074
1765377109715,-0.5180664,-0.29882812,-0.80029297,-0.4272461,-0.12207031,-0.30517578,0.0,0.0,0.0,-159.29626,30.679321,169.76074
1765377109726,-0.5180664,-0.29882812,-0.80029297,-0.4272461,-0.12207031,-0.30517578,0.0,0.0,0.0,-159.28528,30.701294,169.76624
1765377109815,-0.51660156,-0.29785156,-0.80078125,-0.24414062,0.061035156,0.0,0.0,0.0,0.0,-159.28528,30.701294,169.76624
1765377109826,-0.51660156,-0.29785156,-0.80078125,-0.24414062,0.061035156,0.0,0.0,0.0,0.0,-159.28528,30.684814,169.77722
1765377109914,-0.51416016,-0.29736328,-0.80078125,0.0,0.48828125,-0.12207031,0.0,0.0,0.0,-159.28528,30.684814,169.77722
1765377109926,-0.51416016,-0.29736328,-0.80078125,0.0,0.48828125,-0.12207031,0.0,0.0,0.0,-159.28528,30.657349,169.76074
1765377110015,-0.51464844,-0.30078125,-0.80615234,0.12207031,-0.6713867,0.12207031,0.0,0.0,0.0,-159.28528,30.657349,169.76074
1765377110026,-0.51464844,-0.30078125,-0.80615234,0.12207031,-0.6713867,0.12207031,0.0,0.0,0.0,-159.23584,30.679321,169.77722
1765377110114,-0.5161133,-0.30029297,-0.8066406,-0.79345703,0.061035156,0.18310547,0.0,0.0,0.0,-159.23584,30.679321,169.77722
1765377110125,-0.5161133,-0.30029297,-0.8066406,-0.79345703,0.061035156,0.18310547,0.0,0.0,0.0,-159.2688,30.6958,169.74426
1765377110214,-0.5161133,-0.2998047,-0.8051758,-1.159668,0.0,0.36621094,0.0,0.0,0.0,-159.2688,30.6958,169.74426
1765377110225,-0.5161133,-0.2998047,-0.8051758,-1.159668,0.0,0.36621094,0.0,0.0,0.0,-159.37317,30.717773,169.70581
1765377110314,-0.5180664,-0.296875,-0.80810547,-1.0375977,0.61035156,0.48828125,0.0,0.0,0.0,-159.37317,30.717773,169.70581
1765377110329,-0.5180664,-0.296875,-0.80810547,-1.0375977,0.61035156,0.48828125,0.0,0.0,0.0,-159.505,30.71228,169.66187
1765377110414,-0.5175781,-0.29101562,-0.8071289,-1.5869141,0.36621094,0.9765625,0.0,0.0,0.0,-159.505,30.71228,169.66187
1765377110428,-0.5175781,-0.29101562,-0.8071289,-1.5869141,0.36621094,0.9765625,0.0,0.0,0.0,-159.65881,30.690308,169.57397
1765377110513,-0.515625,-0.2919922,-0.8125,-1.5869141,0.9765625,0.48828125,0.0,0.0,0.0,-159.65881,30.690308,169.57397
1765377110524,-0.515625,-0.2919922,-0.8125,-1.5869141,0.9765625,0.48828125,0.0,0.0,0.0,-159.86755,30.651855,169.49158
1765377110612,-0.5102539,-0.29052734,-0.8125,-1.3427734,2.1362305,0.48828125,0.0,0.0,0.0,-159.86755,30.651855,169.49158
1765377110624,-0.5102539,-0.29052734,-0.8125,-1.3427734,2.1362305,0.48828125,0.0,0.0,0.0,-160.09277,30.552979,169.40369
1765377110712,-0.5136719,-0.2861328,-0.8144531,-1.4648438,1.0375977,0.30517578,0.0,0.0,0.0,-160.09277,30.552979,169.40369
1765377110724,-0.5136719,-0.2861328,-0.8144531,-1.4648438,1.0375977,0.30517578,0.0,0.0,0.0,-160.28503,30.41565,169.3103
1765377110812,-0.5102539,-0.28173828,-0.81591797,-1.5258789,1.6479492,0.6713867,0.0,0.0,0.0,-160.28503,30.41565,169.3103
1765377110823,-0.5102539,-0.28173828,-0.81591797,-1.5258789,1.6479492,0.6713867,0.0,0.0,0.0,-160.46082,30.327759,169.22241
1765377110912,-0.5078125,-0.27978516,-0.8173828,-0.8544922,0.8544922,0.4272461,0.0,0.0,0.0,-160.46082,30.327759,169.22241
1765377110923,-0.5078125,-0.27978516,-0.8173828,-0.8544922,0.8544922,0.4272461,0.0,0.0,0.0,-160.6366,30.201416,169.11804
1765377111011,-0.50634766,-0.28125,-0.8178711,0.18310547,0.0,0.18310547,0.0,0.0,0.0,-160.6366,30.201416,169.11804
1765377111023,-0.50634766,-0.28125,-0.8178711,0.18310547,0.0,0.18310547,0.0,0.0,0.0,-160.70801,30.179443,169.06311
1765377111111,-0.5078125,-0.27929688,-0.8149414,0.91552734,-0.5493164,-0.12207031,0.0,0.0,0.0,-160.70801,30.179443,169.06311
1765377111122,-0.5078125,-0.27929688,-0.8149414,0.91552734,-0.5493164,-0.12207031,0.0,0.0,0.0,-160.64758,30.201416,169.04663
1765377111211,-0.5078125,-0.28222656,-0.8154297,0.9765625,-0.8544922,-0.30517578,0.0,0.0,0.0,-160.64758,30.201416,169.04663
1765377111222,-0.5078125,-0.28222656,-0.8154297,0.9765625,-0.8544922,-0.30517578,0.0,0.0,0.0,-160.53772,30.27832,169.06311
1765377111310,-0.5107422,-0.28466797,-0.80810547,0.48828125,-0.9765625,-0.24414062,0.0,0.0,0.0,-160.53772,30.27832,169.06311
1765377111322,-0.5107422,-0.28466797,-0.80810547,0.48828125,-0.9765625,-0.24414062,0.0,0.0,0.0,-160.3949,30.371704,169.12354
1765377111410,-0.5131836,-0.28466797,-0.8149414,1.0986328,-0.9765625,-0.4272461,0.0,0.0,0.0,-160.3949,30.371704,169.12354
1765377111422,-0.5131836,-0.28466797,-0.8149414,1.0986328,-0.9765625,-0.4272461,0.0,0.0,0.0,-160.20813,30.432129,169.18945
1765377111510,-0.5131836,-0.28955078,-0.8095703,1.6479492,-1.0375977,-0.24414062,0.0,0.0,0.0,-160.20813,30.432129,169.18945
1765377111522,-0.5131836,-0.28955078,-0.8095703,1.6479492,-1.0375977,-0.24414062,0.0,0.0,0.0,-159.99939,30.541992,169.27734
1765377111610,-0.51464844,-0.29101562,-0.8129883,1.2817383,-1.0375977,-0.24414062,0.0,0.0,0.0,-159.99939,30.541992,169.27734
1765377111621,-0.51464844,-0.29101562,-0.8129883,1.2817383,-1.0375977,-0.24414062,0.0,0.0,0.0,-159.85107,30.602417,169.33228
1765377111709,-0.5151367,-0.29638672,-0.80908203,0.5493164,0.18310547,-0.24414062,0.0,0.0,0.0,-159.85107,30.602417,169.33228
1765377111721,-0.5151367,-0.29638672,-0.80908203,0.5493164,0.18310547,-0.24414062,0.0,0.0,0.0,-159.7522,30.646362,169.42017
1765377111809,-0.51464844,-0.29492188,-0.80859375,1.0375977,-0.24414062,-0.30517578,0.0,0.0,0.0,-159.7522,30.646362,169.42017
1765377111821,-0.51464844,-0.29492188,-0.80859375,1.0375977,-0.24414062,-0.30517578,0.0,0.0,0.0,-159.63684,30.646362,169.46411
1765377111909,-0.51708984,-0.296875,-0.8076172,0.36621094,-0.30517578,-0.24414062,0.0,0.0,0.0,-159.63684,30.646362,169.46411
1765377111921,-0.51708984,-0.296875,-0.8076172,0.36621094,-0.30517578,-0.24414062,0.0,0.0,0.0,-159.55444,30.662842,169.50806
1765377112009,-0.51660156,-0.29589844,-0.8051758,0.61035156,-0.24414062,0.0,0.0,0.0,0.0,-159.55444,30.662842,169.50806
1765377112020,-0.51660156,-0.29589844,-0.8051758,0.61035156,-0.24414062,0.0,0.0,0.0,0.0,-159.49402,30.662842,169.54102
1765377112108,-0.51660156,-0.29785156,-0.80810547,0.30517578,0.0,0.0,0.0,0.0,0.0,-159.49402,30.662842,169.54102
1765377112120,-0.51660156,-0.29785156,-0.80810547,0.30517578,0.0,0.0,0.0,0.0,0.0,-159.44458,30.651855,169.552
1765377112208,-0.515625,-0.2993164,-0.8076172,0.79345703,-0.79345703,-0.061035156,0.0,0.0,0.0,-159.44458,30.651855,169.552
1765377112219,-0.515625,-0.2993164,-0.8076172,0.79345703,-0.79345703,-0.061035156,0.0,0.0,0.0,-159.39514,30.646362,169.5575
1765377112308,-0.5161133,-0.2998047,-0.80810547,0.12207031,-0.18310547,0.0,0.0,0.0,0.0,-159.39514,30.646362,169.5575
1765377112319,-0.5161133,-0.2998047,-0.80810547,0.12207031,-0.18310547,0.0,0.0,0.0,0.0,-159.33472,30.679321,169.57947
1765377112407,-0.5180664,-0.29833984,-0.8066406,0.0,-0.12207031,0.0,0.0,0.0,0.0,-159.33472,30.679321,169.57947
1765377112419,-0.5180664,-0.29833984,-0.8066406,0.0,-0.12207031,0.0,0.0,0.0,0.0,-159.31824,30.6958,169.58496
1765377112507,-0.515625,-0.30078125,-0.8071289,0.4272461,-0.18310547,0.0,0.0,0.0,0.0,-159.31824,30.6958,169.58496
1765377112519,-0.515625,-0.30078125,-0.8071289,0.4272461,-0.18310547,0.0,0.0,0.0,0.0,-159.29626,30.701294,169.59045
1765377112608,-0.5180664,-0.30126953,-0.80810547,-0.61035156,-0.061035156,0.30517578,0.0,0.0,0.0,-159.29626,30.701294,169.59045
1765377112619,-0.5180664,-0.30126953,-0.80810547,-0.61035156,-0.061035156,0.30517578,0.0,0.0,0.0,-159.29626,30.717773,169.60144
1765377112707,-0.51708984,-0.29882812,-0.8051758,-1.2207031,0.30517578,0.24414062,0.0,0.0,0.0,-159.29626,30.717773,169.60144
1765377112719,-0.51708984,-0.29882812,-0.8051758,-1.2207031,0.30517578,0.24414062,0.0,0.0,0.0,-159.38416,30.723267,169.59045
1765377112806,-0.5161133,-0.29833984,-0.80566406,-1.7089844,0.9765625,0.36621094,0.0,0.0,0.0,-159.38416,30.723267,169.59045
1765377112818,-0.5161133,-0.29833984,-0.80566406,-1.7089844,0.9765625,0.36621094,0.0,0.0,0.0,-159.51599,30.701294,169.552
1765377112907,-0.51660156,-0.29345703,-0.8100586,-1.2817383,0.8544922,0.24414062,0.0,0.0,0.0,-159.51599,30.701294,169.552
1765377112918,-0.51660156,-0.29345703,-0.8100586,-1.2817383,0.8544922,0.24414062,0.0,0.0,0.0,-159.6643,30.629883,169.49707
1765377113006,-0.5126953,-0.29296875,-0.80908203,-1.3427734,0.91552734,0.36621094,0.0,0.0,0.0,-159.6643,30.629883,169.49707
1765377113018,-0.5126953,-0.29296875,-0.80908203,-1.3427734,0.91552734,0.36621094,0.0,0.0,0.0,-159.79065,30.618896,169.48608
1765377113106,-0.515625,-0.28955078,-0.81103516,-1.2207031,0.8544922,0.36621094,0.0,0.0,0.0,-159.79065,30.618896,169.48608
1765377113118,-0.515625,-0.28955078,-0.81103516,-1.2207031,0.8544922,0.36621094,0.0,0.0,0.0,-159.94446,30.541992,169.43665
1765377113205,-0.51220703,-0.28759766,-0.81152344,-1.5258789,1.3427734,0.6713867,0.0,0.0,0.0,-159.94446,30.541992,169.43665
1765377113217,-0.51220703,-0.28759766,-0.81152344,-1.5258789,1.3427734,0.6713867,0.0,0.0,0.0,-160.13672,30.48706,169.37073
1765377113305,-0.51171875,-0.2866211,-0.8144531,-1.159668,1.159668,0.5493164,0.0,0.0,0.0,-160.13672,30.48706,169.37073
1765377113316,-0.51171875,-0.2866211,-0.8144531,-1.159668,1.159668,0.5493164,0.0,0.0,0.0,-160.27954,30.388184,169.27185
1765377113405,-0.5097656,-0.28125,-0.8125,-1.2207031,0.7324219,0.6713867,0.0,0.0,0.0,-160.27954,30.388184,169.27185
1765377113416,-0.5097656,-0.28125,-0.8125,-1.2207031,0.7324219,0.6713867,0.0,0.0,0.0,-160.43884,30.322266,169.16748
1765377113505,-0.5097656,-0.28125,-0.81640625,-0.48828125,0.36621094,0.36621094,0.0,0.0,0.0,-160.43884,30.322266,169.16748
1765377113516,-0.5097656,-0.28125,-0.81640625,-0.48828125,0.36621094,0.36621094,0.0,0.0,0.0,-160.5542,30.2948,169.10156
1765377113604,-0.5078125,-0.27539062,-0.8129883,0.061035156,0.24414062,0.18310547,0.0,0.0,0.0,-160.5542,30.2948,169.10156
1765377113616,-0.5078125,-0.27539062,-0.8129883,0.061035156,0.24414062,0.18310547,0.0,0.0,0.0,-160.60364,30.256348,169.03015
1765377113704,-0.5073242,-0.28320312,-0.81347656,0.79345703,-0.79345703,-0.30517578,0.0,0.0,0.0,-160.60364,30.256348,169.03015
1765377113715,-0.5073242,-0.28320312,-0.81347656,0.79345703,-0.79345703,-0.30517578,0.0,0.0,0.0,-160.53772,30.289307,169.06311
1765377113804,-0.5102539,-0.28271484,-0.8154297,1.2207031,-0.61035156,-0.24414062,0.0,0.0,0.0,-160.53772,30.289307,169.06311
1765377113815,-0.5102539,-0.28271484,-0.8154297,1.2207031,-0.61035156,-0.24414062,0.0,0.0,0.0,-160.42236,30.31128,169.09607
1765377113903,-0.5097656,-0.29101562,-0.8120117,1.0375977,-1.2817383,-0.30517578,0.0,0.0,0.0,-160.42236,30.31128,169.09607
1765377113915,-0.5097656,-0.29101562,-0.8120117,1.0375977,-1.2817383,-0.30517578,0.0,0.0,0.0,-160.25208,30.432129,169.20044
1765377114003,-0.51464844,-0.28759766,-0.8125,1.5258789,-0.5493164,-0.30517578,0.0,0.0,0.0,-160.25208,30.432129,169.20044
1765377114015,-0.51464844,-0.28759766,-0.8125,1.5258789,-0.5493164,-0.30517578,0.0,0.0,0.0,-160.0763,30.50354,169.27185
1765377114103,-0.5131836,-0.29248047,-0.81152344,1.0375977,-0.7324219,-0.36621094,0.0,0.0,0.0,-160.0763,30.50354,169.27185
1765377114114,-0.5131836,-0.29248047,-0.81152344,1.0375977,-0.7324219,-0.36621094,0.0,0.0,0.0,-159.94995,30.547485,169.32678
1765377114203,-0.515625,-0.2939453,-0.8129883,0.91552734,-0.36621094,-0.24414062,0.0,0.0,0.0,-159.94995,30.547485,169.32678
1765377114214,-0.515625,-0.2939453,-0.8129883,0.91552734,-0.36621094,-0.24414062,0.0,0.0,0.0,-159.8291,30.580444,169.3872
1765377114302,-0.51464844,-0.29345703,-0.81103516,1.0986328,0.0,-0.18310547,0.0,0.0,0.0,-159.8291,30.580444,169.3872
1765377114314,-0.51464844,-0.29345703,-0.81103516,1.0986328,0.0,-0.18310547,0.0,0.0,0.0,-159.74121,30.585938,169.41467
1765377114402,-0.515625,-0.29785156,-0.8120117,1.159668,-0.8544922,-0.5493164,0.0,0.0,0.0,-159.74121,30.585938,169.41467
1765377114414,-0.515625,-0.29785156,-0.8120117,1.159668,-0.8544922,-0.5493164,0.0,0.0,0.0,-159.63684,30.574951,169.4696
1765377114502,-0.5151367,-0.29541016,-0.80859375,0.5493164,-0.12207031,-0.12207031,0.0,0.0,0.0,-159.63684,30.574951,169.4696
1765377114513,-0.5151367,-0.29541016,-0.80859375,0.5493164,-0.12207031,-0.12207031,0.0,0.0,0.0,-159.51599,30.618896,169.51904
1765377114602,-0.5161133,-0.29785156,-0.80810547,0.4272461,-0.30517578,-0.061035156,0.0,0.0,0.0,-159.51599,30.618896,169.51904
1765377114613,-0.5161133,-0.29785156,-0.80810547,0.4272461,-0.30517578,-0.061035156,0.0,0.0,0.0,-159.43909,30.646362,169.56848
1765377114701,-0.5151367,-0.2998047,-0.80859375,0.48828125,0.061035156,0.0,0.0,0.0,0.0,-159.43909,30.646362,169.56848
1765377114713,-0.5151367,-0.2998047,-0.80859375,0.48828125,0.061035156,0.0,0.0,0.0,0.0,-159.40063,30.657349,169.59045
1765377114801,-0.51464844,-0.2998047,-0.8071289,0.24414062,0.0,0.12207031,0.0,0.0,0.0,-159.40063,30.657349,169.59045
1765377114812,-0.51464844,-0.2998047,-0.8071289,0.24414062,0.0,0.12207031,0.0,0.0,0.0,-159.35669,30.668335,169.60144
1765377114901,-0.515625,-0.2998047,-0.8041992,0.0,-0.061035156,0.18310547,0.0,0.0,0.0,-159.35669,30.668335,169.60144
1765377114912,-0.515625,-0.2998047,-0.8041992,0.0,-0.061035156,0.18310547,0.0,0.0,0.0,-159.32922,30.684814,169.61792
1765377115002,-0.515625,-0.30078125,-0.80322266,0.18310547,0.18310547,0.0,0.0,0.0,0.0,-159.32922,30.684814,169.61792
1765377115012,-0.515625,-0.30078125,-0.80322266,0.18310547,0.18310547,0.0,0.0,0.0,0.0,-159.30725,30.690308,169.6289
1765377115100,-0.51464844,-0.2993164,-0.80322266,-0.12207031,0.30517578,0.0,0.0,0.0,0.0,-159.30725,30.690308,169.6289
1765377115112,-0.51464844,-0.2993164,-0.80322266,-0.12207031,0.30517578,0.0,0.0,0.0,0.0,-159.29077,30.673828,169.6289
1765377115200,-0.51708984,-0.30078125,-0.8066406,-0.4272461,-0.30517578,0.30517578,0.0,0.0,0.0,-159.29077,30.673828,169.6289
1765377115211,-0.51708984,-0.30078125,-0.8066406,-0.4272461,-0.30517578,0.30517578,0.0,0.0,0.0,-159.28528,30.6958,169.64539
1765377115300,-0.5185547,-0.29638672,-0.80615234,-1.5869141,-0.12207031,0.0,0.0,0.0,0.0,-159.28528,30.6958,169.64539
1765377115311,-0.5185547,-0.29638672,-0.80615234,-1.5869141,-0.12207031,0.0,0.0,0.0,0.0,-159.37317,30.71228,169.6344
1765377115399,-0.51904297,-0.29541016,-0.80322266,-2.1362305,0.4272461,0.48828125,0.0,0.0,0.0,-159.37317,30.71228,169.6344
1765377115412,-0.51904297,-0.29541016,-0.80322266,-2.1362305,0.4272461,0.48828125,0.0,0.0,0.0,-159.53247,30.706787,169.6399
1765377115499,-0.51464844,-0.2919922,-0.80859375,-1.159668,0.7324219,0.48828125,0.0,0.0,0.0,-159.53247,30.706787,169.6399
1765377115511,-0.51464844,-0.2919922,-0.80859375,-1.159668,0.7324219,0.48828125,0.0,0.0,0.0,-159.71375,30.651855,169.59045
1765377115599,-0.5151367,-0.29248047,-0.81103516,-1.5869141,0.91552734,0.7324219,0.0,0.0,0.0,-159.71375,30.651855,169.59045
1765377115610,-0.5151367,-0.29248047,-0.81103516,-1.5869141,0.91552734,0.7324219,0.0,0.0,0.0,-159.86755,30.602417,169.53003
1765377115699,-0.5131836,-0.2890625,-0.8125,-1.4648438,1.2207031,0.48828125,0.0,0.0,0.0,-159.86755,30.602417,169.53003
1765377115710,-0.5131836,-0.2890625,-0.8125,-1.4648438,1.2207031,0.48828125,0.0,0.0,0.0,-160.0763,30.536499,169.44214
1765377115798,-0.5131836,-0.28564453,-0.8076172,-2.380371,1.5869141,0.6713867,0.0,0.0,0.0,-160.0763,30.536499,169.44214
1765377115810,-0.5131836,-0.28564453,-0.8076172,-2.380371,1.5869141,0.6713867,0.0,0.0,0.0,-160.26855,30.454102,169.34875
1765377115898,-0.51171875,-0.28125,-0.81591797,-1.2207031,0.91552734,0.061035156,0.0,0.0,0.0,-160.26855,30.454102,169.34875
1765377115910,-0.51171875,-0.28125,-0.81591797,-1.2207031,0.91552734,0.061035156,0.0,0.0,0.0,-160.40039,30.333252,169.26086
1765377115998,-0.50683594,-0.28076172,-0.8129883,-0.24414062,0.61035156,0.24414062,0.0,0.0,0.0,-160.40039,30.333252,169.26086
1765377116009,-0.50683594,-0.28076172,-0.8129883,-0.24414062,0.61035156,0.24414062,0.0,0.0,0.0,-160.46082,30.305786,169.2279
1765377116098,-0.5097656,-0.28320312,-0.8149414,0.36621094,-0.5493164,-0.12207031,0.0,0.0,0.0,-160.46082,30.305786,169.2279
1765377116109,-0.5097656,-0.28320312,-0.8149414,0.36621094,-0.5493164,-0.12207031,0.0,0.0,0.0,-160.44434,30.31128,169.24438
1765377116197,-0.51123047,-0.28320312,-0.8144531,0.8544922,-0.4272461,-0.12207031,0.0,0.0,0.0,-160.44434,30.31128,169.24438
1765377116209,-0.51123047,-0.28320312,-0.8144531,0.8544922,-0.4272461,-0.12207031,0.0,0.0,0.0,-160.35095,30.36621,169.27185
1765377116297,-0.51123047,-0.28710938,-0.8129883,1.2817383,-0.79345703,-0.30517578,0.0,0.0,0.0,-160.35095,30.36621,169.27185
1765377116309,-0.51123047,-0.28710938,-0.8129883,1.2817383,-0.79345703,-0.30517578,0.0,0.0,0.0,-160.20264,30.426636,169.32678
1765377116397,-0.5136719,-0.28808594,-0.8105469,1.0375977,-0.91552734,-0.12207031,0.0,0.0,0.0,-160.20264,30.426636,169.32678
1765377116408,-0.5136719,-0.28808594,-0.8105469,1.0375977,-0.91552734,-0.12207031,0.0,0.0,0.0,-160.05981,30.498047,169.38171
1765377116497,-0.5151367,-0.29052734,-0.80908203,0.91552734,-0.61035156,-0.4272461,0.0,0.0,0.0,-160.05981,30.498047,169.38171
1765377116508,-0.5151367,-0.29052734,-0.80908203,0.91552734,-0.61035156,-0.4272461,0.0,0.0,0.0,-159.92798,30.552979,169.43115
1765377116596,-0.5126953,-0.29052734,-0.8100586,0.8544922,0.0,-0.061035156,0.0,0.0,0.0,-159.92798,30.552979,169.43115
1765377116608,-0.5126953,-0.29052734,-0.8100586,0.8544922,0.0,-0.061035156,0.0,0.0,0.0,-159.81812,30.547485,169.45312
1765377116696,-0.5151367,-0.29492188,-0.80615234,1.159668,-0.91552734,-0.061035156,0.0,0.0,0.0,-159.81812,30.547485,169.45312
1765377116707,-0.5151367,-0.29492188,-0.80615234,1.159668,-0.91552734,-0.061035156,0.0,0.0,0.0,-159.68079,30.618896,169.53003
1765377116796,-0.51708984,-0.29492188,-0.8100586,0.4272461,-0.61035156,-0.24414062,0.0,0.0,0.0,-159.68079,30.618896,169.53003
1765377116807,-0.51708984,-0.29492188,-0.8100586,0.4272461,-0.61035156,-0.24414062,0.0,0.0,0.0,-159.58191,30.651855,169.57397
1765377116895,-0.515625,-0.29882812,-0.8051758,0.61035156,-0.12207031,0.0,0.0,0.0,0.0,-159.58191,30.651855,169.57397
1765377116907,-0.515625,-0.29882812,-0.8051758,0.61035156,-0.12207031,0.0,0.0,0.0,0.0,-159.5105,30.684814,169.61243
1765377116995,-0.515625,-0.29833984,-0.8066406,0.4272461,-0.36621094,-0.24414062,0.0,0.0,0.0,-159.5105,30.684814,169.61243
1765377117006,-0.515625,-0.29833984,-0.8066406,0.4272461,-0.36621094,-0.24414062,0.0,0.0,0.0,-159.44458,30.706787,169.6344
1765377117095,-0.5175781,-0.29638672,-0.8046875,0.24414062,0.0,0.061035156,0.0,0.0,0.0,-159.44458,30.706787,169.6344
1765377117106,-0.5175781,-0.29638672,-0.8046875,0.24414062,0.0,0.061035156,0.0,0.0,0.0,-159.39514,30.701294,169.66187
1765377117194,-0.51464844,-0.3022461,-0.8105469,0.24414062,0.061035156,-0.061035156,0.0,0.0,0.0,-159.39514,30.701294,169.66187
1765377117206,-0.51464844,-0.3022461,-0.8105469,0.24414062,0.061035156,-0.061035156,0.0,0.0,0.0,-159.37866,30.706787,169.67834
1765377117294,-0.51708984,-0.30029297,-0.80908203,0.4272461,0.5493164,0.0,0.0,0.0,0.0,-159.37866,30.706787,169.67834
1765377117306,-0.51708984,-0.30029297,-0.80908203,0.4272461,0.5493164,0.0,0.0,0.0,0.0,-159.35669,30.679321,169.66736
1765377117394,-0.51660156,-0.2998047,-0.8100586,0.4272461,-0.4272461,-0.18310547,0.0,0.0,0.0,-159.35669,30.679321,169.66736
1765377117405,-0.51660156,-0.2998047,-0.8100586,0.4272461,-0.4272461,-0.18310547,0.0,0.0,0.0,-159.32922,30.668335,169.67834
1765377117494,-0.5180664,-0.29833984,-0.80859375,-0.6713867,0.24414062,0.18310547,0.0,0.0,0.0,-159.32922,30.668335,169.67834
1765377117505,-0.5180664,-0.29833984,-0.80859375,-0.6713867,0.24414062,0.18310547,0.0,0.0,0.0,-159.32373,30.6958,169.68933
1765377117593,-0.5180664,-0.29833984,-0.80810547,-1.2817383,-0.061035156,0.36621094,0.0,0.0,0.0,-159.32373,30.6958,169.68933
1765377117605,-0.5180664,-0.29833984,-0.80810547,-1.2817383,-0.061035156,0.36621094,0.0,0.0,0.0,-159.41711,30.6958,169.67285
1765377117693,-0.51708984,-0.29785156,-0.8066406,-1.2817383,0.6713867,0.4272461,0.0,0.0,0.0,-159.41711,30.6958,169.67285
1765377117705,-0.51708984,-0.29785156,-0.8066406,-1.2817383,0.6713867,0.4272461,0.0,0.0,0.0,-159.57642,30.679321,169.6289
1765377117793,-0.5151367,-0.29296875,-0.8076172,-1.5258789,0.79345703,0.5493164,0.0,0.0,0.0,-159.57642,30.679321,169.6289
1765377117804,-0.5151367,-0.29296875,-0.8076172,-1.5258789,0.79345703,0.5493164,0.0,0.0,0.0,-159.73022,30.629883,169.5575
1765377117892,-0.51464844,-0.29052734,-0.80908203,-1.7089844,0.8544922,0.5493164,0.0,0.0,0.0,-159.73022,30.629883,169.5575
1765377117904,-0.51464844,-0.29052734,-0.80908203,-1.7089844,0.8544922,0.5493164,0.0,0.0,0.0,-159.9115,30.574951,169.48059
1765377117992,-0.5131836,-0.28955078,-0.8100586,-1.4648438,1.0375977,0.48828125,0.0,0.0,0.0,-159.9115,30.574951,169.48059
1765377118004,-0.5131836,-0.28955078,-0.8100586,-1.4648438,1.0375977,0.48828125,0.0,0.0,0.0,-160.09277,30.509033,169.3982
1765377118092,-0.5102539,-0.28125,-0.81103516,-1.0986328,0.91552734,0.30517578,0.0,0.0,0.0,-160.09277,30.509033,169.3982
1765377118104,-0.5102539,-0.28125,-0.81103516,-1.0986328,0.91552734,0.30517578,0.0,0.0,0.0,-160.24658,30.410156,169.3103
1765377118192,-0.5083008,-0.28466797,-0.8105469,-0.24414062,0.18310547,0.30517578,0.0,0.0,0.0,-160.24658,30.410156,169.3103
1765377118203,-0.5083008,-0.28466797,-0.8105469,-0.24414062,0.18310547,0.30517578,0.0,0.0,0.0,-160.307,30.393677,169.28284
1765377118291,-0.51123047,-0.2836914,-0.81347656,0.18310547,-0.061035156,0.0,0.0,0.0,0.0,-160.307,30.393677,169.28284
1765377118303,-0.51123047,-0.2836914,-0.81347656,0.18310547,-0.061035156,0.0,0.0,0.0,0.0,-160.3125,30.38269,169.26636
1765377118391,-0.5102539,-0.2866211,-0.81152344,0.61035156,-0.30517578,0.0,0.0,0.0,0.0,-160.3125,30.38269,169.26636
1765377118403,-0.5102539,-0.2866211,-0.81152344,0.61035156,-0.30517578,0.0,0.0,0.0,0.0,-160.25208,30.421143,169.28284
1765377118491,-0.51171875,-0.2861328,-0.8120117,1.0986328,-0.7324219,-0.18310547,0.0,0.0,0.0,-160.25208,30.421143,169.28284
1765377118502,-0.51171875,-0.2861328,-0.8120117,1.0986328,-0.7324219,-0.18310547,0.0,0.0,0.0,-160.13123,30.470581,169.32129
1765377118591,-0.5136719,-0.28955078,-0.81103516,0.9765625,-0.91552734,-0.12207031,0.0,0.0,0.0,-160.13123,30.470581,169.32129
1765377118602,-0.5136719,-0.28955078,-0.81103516,0.9765625,-0.91552734,-0.12207031,0.0,0.0,0.0,-160.00488,30.531006,169.37073
1765377118690,-0.51464844,-0.29248047,-0.81152344,0.8544922,-0.79345703,-0.18310547,0.0,0.0,0.0,-160.00488,30.531006,169.37073
1765377118702,-0.51464844,-0.29248047,-0.81152344,0.8544922,-0.79345703,-0.18310547,0.0,0.0,0.0,-159.89502,30.585938,169.40918
1765377118790,-0.5151367,-0.29101562,-0.80908203,0.8544922,0.0,0.0,0.0,0.0,0.0,-159.89502,30.585938,169.40918
1765377118802,-0.5151367,-0.29101562,-0.80908203,0.8544922,0.0,0.0,0.0,0.0,0.0,-159.80713,30.596924,169.41467
1765377118890,-0.515625,-0.29785156,-0.8105469,1.2817383,-1.0986328,-0.24414062,0.0,0.0,0.0,-159.80713,30.596924,169.41467
1765377118901,-0.515625,-0.29785156,-0.8105469,1.2817383,-1.0986328,-0.24414062,0.0,0.0,0.0,-159.70825,30.613403,169.4696
1765377118989,-0.51660156,-0.296875,-0.80859375,0.61035156,-0.12207031,-0.24414062,0.0,0.0,0.0,-159.70825,30.613403,169.4696
1765377119001,-0.51660156,-0.296875,-0.80859375,0.61035156,-0.12207031,-0.24414062,0.0,0.0,0.0,-159.59839,30.657349,169.52454
1765377119089,-0.5175781,-0.29589844,-0.80566406,0.24414062,-0.48828125,-0.061035156,0.0,0.0,0.0,-159.59839,30.657349,169.52454
1765377119101,-0.5175781,-0.29589844,-0.80566406,0.24414062,-0.48828125,-0.061035156,0.0,0.0,0.0,-159.52148,30.6958,169.57947
1765377119189,-0.51708984,-0.29882812,-0.80859375,0.61035156,-0.061035156,-0.061035156,0.0,0.0,0.0,-159.52148,30.6958,169.57947
1765377119200,-0.51708984,-0.29882812,-0.80859375,0.61035156,-0.061035156,-0.061035156,0.0,0.0,0.0,-159.47205,30.706787,169.60693
1765377119289,-0.5175781,-0.29736328,-0.80566406,0.24414062,0.0,0.0,0.0,0.0,0.0,-159.47205,30.706787,169.60693
1765377119300,-0.5175781,-0.29736328,-0.80566406,0.24414062,0.0,0.0,0.0,0.0,0.0,-159.41711,30.71228,169.6399
1765377119388,-0.51660156,-0.29882812,-0.80615234,0.061035156,-0.12207031,0.0,0.0,0.0,0.0,-159.41711,30.71228,169.6399
1765377119400,-0.51660156,-0.29882812,-0.80615234,0.061035156,-0.12207031,0.0,0.0,0.0,0.0,-159.38416,30.723267,169.64539
1765377119488,-0.5175781,-0.29882812,-0.80371094,0.12207031,0.0,0.0,0.0,0.0,0.0,-159.38416,30.723267,169.64539
1765377119499,-0.5175781,-0.29882812,-0.80371094,0.12207031,0.0,0.0,0.0,0.0,0.0,-159.36218,30.72876,169.65088
1765377119588,-0.51464844,-0.29736328,-0.8022461,0.0,0.24414062,0.0,0.0,0.0,0.0,-159.36218,30.72876,169.65088
1765377119599,-0.51464844,-0.29736328,-0.8022461,0.0,0.24414062,0.0,0.0,0.0,0.0,-159.3457,30.706787,169.6399
1765377119687,-0.515625,-0.30126953,-0.8041992,0.4272461,-0.61035156,0.0,0.0,0.0,0.0,-159.3457,30.706787,169.6399
1765377119699,-0.515625,-0.30126953,-0.8041992,0.4272461,-0.61035156,0.0,0.0,0.0,0.0,-159.30176,30.706787,169.6344
1765377119787,-0.51708984,-0.30029297,-0.8051758,0.061035156,-0.18310547,0.0,0.0,0.0,0.0,-159.30176,30.706787,169.6344
1765377119799,-0.51708984,-0.30029297,-0.8051758,0.061035156,-0.18310547,0.0,0.0,0.0,0.0,-159.2688,30.723267,169.65637
1765377119887,-0.5161133,-0.30273438,-0.8041992,0.0,-0.12207031,0.0,0.0,0.0,0.0,-159.2688,30.723267,169.65637
1765377119899,-0.5161133,-0.30273438,-0.8041992,0.0,-0.12207031,0.0,0.0,0.0,0.0,-159.25232,30.750732,169.66736
1765377119987,-0.51660156,-0.2998047,-0.8066406,0.061035156,-0.12207031,0.0,0.0,0.0,0.0,-159.25232,30.750732,169.66736
1765377119998,-0.51660156,-0.2998047,-0.8066406,0.061035156,-0.12207031,0.0,0.0,0.0,0.0,-159.23035,30.750732,169.66736
1765377120086,-0.5180664,-0.30078125,-0.80566406,-0.24414062,-0.061035156,0.0,0.0,0.0,0.0,-159.23035,30.750732,169.66736
1765377120098,-0.5180664,-0.30078125,-0.80566406,-0.24414062,-0.061035156,0.0,0.0,0.0,0.0,-159.23035,30.761719,169.67285
1765377120186,-0.51708984,-0.2998047,-0.80615234,-0.5493164,-0.12207031,0.0,0.0,0.0,0.0,-159.23035,30.761719,169.67285
1765377120198,-0.51708984,-0.2998047,-0.80615234,-0.5493164,-0.12207031,0.0,0.0,0.0,0.0,-159.25232,30.767212,169.68384
1765377120286,-0.5175781,-0.2993164,-0.8051758,-0.79345703,0.12207031,0.0,0.0,0.0,0.0,-159.25232,30.767212,169.68384
1765377120297,-0.5175781,-0.2993164,-0.8051758,-0.79345703,0.12207031,0.0,0.0,0.0,0.0,-159.32373,30.761719,169.67834
1765377120386,-0.51708984,-0.29589844,-0.8046875,-0.7324219,0.5493164,0.36621094,0.0,0.0,0.0,-159.32373,30.761719,169.67834
1765377120397,-0.51708984,-0.29589844,-0.8046875,-0.7324219,0.5493164,0.36621094,0.0,0.0,0.0,-159.4226,30.723267,169.6399
1765377120485,-0.51660156,-0.2993164,-0.80859375,-0.48828125,-0.18310547,0.18310547,0.0,0.0,0.0,-159.4226,30.723267,169.6399
1765377120498,-0.51660156,-0.2993164,-0.80859375,-0.48828125,-0.18310547,0.18310547,0.0,0.0,0.0,-159.49402,30.6958,169.62341
1765377120585,-0.5161133,-0.29345703,-0.8076172,-0.8544922,0.5493164,0.18310547,0.0,0.0,0.0,-159.49402,30.6958,169.62341
1765377120597,-0.5161133,-0.29345703,-0.8076172,-0.8544922,0.5493164,0.18310547,0.0,0.0,0.0,-159.57642,30.668335,169.59045
1765377120685,-0.51708984,-0.2944336,-0.8076172,-0.9765625,0.061035156,0.24414062,0.0,0.0,0.0,-159.57642,30.668335,169.59045
1765377120696,-0.51708984,-0.2944336,-0.8076172,-0.9765625,0.061035156,0.24414062,0.0,0.0,0.0,-159.65881,30.668335,169.57397
1765377120784,-0.5161133,-0.2919922,-0.80859375,-0.30517578,0.30517578,0.12207031,0.0,0.0,0.0,-159.65881,30.668335,169.57397
1765377120796,-0.5161133,-0.2919922,-0.80859375,-0.30517578,0.30517578,0.12207031,0.0,0.0,0.0,-159.71924,30.64087,169.54651
1765377120884,-0.5161133,-0.2919922,-0.80810547,-0.61035156,0.4272461,0.30517578,0.0,0.0,0.0,-159.71924,30.64087,169.54651
1765377120896,-0.5161133,-0.2919922,-0.80810547,-0.61035156,0.4272461,0.30517578,0.0,0.0,0.0,-159.77966,30.618896,169.53552
1765377120984,-0.51416016,-0.29052734,-0.80810547,-0.6713867,0.30517578,0.24414062,0.0,0.0,0.0,-159.77966,30.618896,169.53552
1765377120995,-0.51416016,-0.29052734,-0.80810547,-0.6713867,0.30517578,0.24414062,0.0,0.0,0.0,-159.84558,30.602417,169.53552
1765377121084,-0.51416016,-0.29003906,-0.80908203,0.0,0.061035156,0.0,0.0,0.0,0.0,-159.84558,30.602417,169.53552
1765377121095,-0.51416016,-0.29003906,-0.80908203,0.0,0.061035156,0.0,0.0,0.0,0.0,-159.86206,30.59143,169.53003
1765377121183,-0.5126953,-0.28857422,-0.8066406,0.30517578,0.36621094,-0.061035156,0.0,0.0,0.0,-159.86206,30.59143,169.53003
1765377121195,-0.5126953,-0.28857422,-0.8066406,0.30517578,0.36621094,-0.061035156,0.0,0.0,0.0,-159.84009,30.563965,169.53003
1765377121283,-0.5126953,-0.29101562,-0.8066406,0.8544922,-0.48828125,0.0,0.0,0.0,0.0,-159.84009,30.563965,169.53003
1765377121295,-0.5126953,-0.29101562,-0.8066406,0.8544922,-0.48828125,0.0,0.0,0.0,0.0,-159.75769,30.585938,169.5575
1765377121383,-0.5151367,-0.2939453,-0.8100586,0.7324219,-0.4272461,0.0,0.0,0.0,0.0,-159.75769,30.585938,169.5575
1765377121394,-0.5151367,-0.2939453,-0.8100586,0.7324219,-0.4272461,0.0,0.0,0.0,0.0,-159.6753,30.602417,169.56299
1765377121482,-0.5136719,-0.29785156,-0.80615234,0.5493164,-0.24414062,0.0,0.0,0.0,0.0,-159.6753,30.602417,169.56299
1765377121494,-0.5136719,-0.29785156,-0.80615234,0.5493164,-0.24414062,0.0,0.0,0.0,0.0,-159.59839,30.662842,169.59045
1765377121582,-0.515625,-0.29492188,-0.80810547,0.6713867,-0.24414062,0.0,0.0,0.0,0.0,-159.59839,30.662842,169.59045
1765377121594,-0.515625,-0.29492188,-0.80810547,0.6713867,-0.24414062,0.0,0.0,0.0,0.0,-159.51599,30.684814,169.61792
1765377121682,-0.51708984,-0.29736328,-0.8071289,0.4272461,-0.30517578,0.0,0.0,0.0,0.0,-159.51599,30.684814,169.61792
1765377121693,-0.51708984,-0.29736328,-0.8071289,0.4272461,-0.30517578,0.0,0.0,0.0,0.0,-159.46106,30.706787,169.64539
1765377121782,-0.5180664,-0.29785156,-0.8051758,0.18310547,0.0,0.0,0.0,0.0,0.0,-159.46106,30.706787,169.64539
1765377121793,-0.5180664,-0.29785156,-0.8051758,0.18310547,0.0,0.0,0.0,0.0,0.0,-159.41711,30.723267,169.66736
1765377121881,-0.51660156,-0.29833984,-0.80371094,0.0,0.36621094,0.0,0.0,0.0,0.0,-159.41711,30.723267,169.66736
1765377121893,-0.51660156,-0.29833984,-0.80371094,0.0,0.36621094,0.0,0.0,0.0,0.0,-159.38416,30.723267,169.68384
1765377121981,-0.5151367,-0.29882812,-0.80615234,0.12207031,0.61035156,0.0,0.0,0.0,0.0,-159.38416,30.723267,169.68384
1765377121993,-0.5151367,-0.29882812,-0.80615234,0.12207031,0.61035156,0.0,0.0,0.0,0.0,-159.35669,30.690308,169.67834
1765377122081,-0.5161133,-0.29882812,-0.8051758,0.4272461,-0.061035156,0.0,0.0,0.0,0.0,-159.35669,30.690308,169.67834
1765377122092,-0.5161133,-0.29882812,-0.8051758,0.4272461,-0.061035156,0.0,0.0,0.0,0.0,-159.28528,30.723267,169.70032
1765377122181,-0.51708984,-0.30078125,-0.8071289,0.24414062,-0.18310547,0.0,0.0,0.0,0.0,-159.28528,30.723267,169.70032
1765377122192,-0.51708984,-0.30078125,-0.8071289,0.24414062,-0.18310547,0.0,0.0,0.0,0.0,-159.25781,30.72876,169.69482
1765377122280,-0.5161133,-0.2993164,-0.80615234,0.061035156,0.12207031,0.0,0.0,0.0,0.0,-159.25781,30.72876,169.69482
1765377122292,-0.5161133,-0.2993164,-0.80615234,0.061035156,0.12207031,0.0,0.0,0.0,0.0,-159.23584,30.74524,169.7113
1765377122380,-0.51708984,-0.3017578,-0.80615234,0.061035156,0.12207031,0.0,0.0,0.0,0.0,-159.23584,30.74524,169.7113
1765377122391,-0.51708984,-0.3017578,-0.80615234,0.061035156,0.12207031,0.0,0.0,0.0,0.0,-159.21387,30.74524,169.7168
1765377122480,-0.51660156,-0.2993164,-0.80322266,-0.12207031,-0.061035156,0.0,0.0,0.0,0.0,-159.21387,30.74524,169.7168
1765377122491,-0.51660156,-0.2993164,-0.80322266,-0.12207031,-0.061035156,0.0,0.0,0.0,0.0,-159.20837,30.750732,169.72778
1765377122580,-0.51660156,-0.30078125,-0.8041992,0.0,0.12207031,0.0,0.0,0.0,0.0,-159.20837,30.750732,169.72778
1765377122591,-0.51660156,-0.30078125,-0.8041992,0.0,0.12207031,0.0,0.0,0.0,0.0,-159.19739,30.756226,169.76074
1765377122679,-0.51708984,-0.30029297,-0.8027344,-0.36621094,0.48828125,0.0,0.0,0.0,0.0,-159.19739,30.756226,169.76074
1765377122691,-0.51708984,-0.30029297,-0.8027344,-0.36621094,0.48828125,0.0,0.0,0.0,0.0,-159.1919,30.750732,169.77722
1765377122779,-0.5175781,-0.30126953,-0.8076172,-0.061035156,0.5493164,0.0,0.0,0.0,0.0,-159.1919,30.750732,169.77722
1765377122791,-0.5175781,-0.30126953,-0.8076172,-0.061035156,0.5493164,0.0,0.0,0.0,0.0,-159.20288,30.717773,169.77173
1765377122879,-0.51708984,-0.29882812,-0.8041992,0.0,0.24414062,0.0,0.0,0.0,0.0,-159.20288,30.717773,169.77173
1765377122890,-0.51708984,-0.29882812,-0.8041992,0.0,0.24414062,0.0,0.0,0.0,0.0,-159.17542,30.72876,169.77722
1765377122978,-0.51708984,-0.3017578,-0.8071289,0.0,-0.18310547,0.0,0.0,0.0,0.0,-159.17542,30.72876,169.77722
1765377122990,-0.51708984,-0.3017578,-0.8071289,0.0,-0.18310547,0.0,0.0,0.0,0.0,-159.17542,30.734253,169.7937
1765377123078,-0.51708984,-0.2993164,-0.80371094,-0.18310547,0.18310547,0.0,0.0,0.0,0.0,-159.17542,30.734253,169.7937
1765377123090,-0.51708984,-0.2993164,-0.80371094,-0.18310547,0.18310547,0.0,0.0,0.0,0.0,-159.18091,30.74524,169.83215
1765377123178,-0.5175781,-0.30029297,-0.8051758,-0.18310547,0.12207031,0.0,0.0,0.0,0.0,-159.18091,30.74524,169.83215
1765377123189,-0.5175781,-0.30029297,-0.8051758,-0.18310547,0.12207031,0.0,0.0,0.0,0.0,-159.17542,30.74524,169.83765
1765377123278,-0.51660156,-0.2998047,-0.8027344,-0.18310547,0.12207031,0.0,0.0,0.0,0.0,-159.17542,30.74524,169.83765
1765377123289,-0.51660156,-0.2998047,-0.8027344,-0.18310547,0.12207031,0.0,0.0,0.0,0.0,-159.1919,30.734253,169.83765
1765377123377,-0.51660156,-0.3017578,-0.8066406,0.0,0.18310547,0.0,0.0,0.0,0.0,-159.1919,30.734253,169.83765
1765377123389,-0.51660156,-0.3017578,-0.8066406,0.0,0.18310547,0.0,0.0,0.0,0.0,-159.19739,30.734253,169.85413
1765377123477,-0.5161133,-0.30126953,-0.8071289,-0.061035156,0.61035156,0.0,0.0,0.0,0.0,-159.19739,30.734253,169.85413
1765377123489,-0.5161133,-0.30126953,-0.8071289,-0.061035156,0.61035156,0.0,0.0,0.0,0.0,-159.19739,30.723267,169.85413
1765377123577,-0.51953125,-0.30078125,-0.8100586,0.061035156,0.0,0.0,0.0,0.0,0.0,-159.19739,30.723267,169.85413
1765377123589,-0.51953125,-0.30078125,-0.8100586,0.061035156,0.0,0.0,0.0,0.0,0.0,-159.20288,30.684814,169.86511
1765377123677,-0.5175781,-0.29882812,-0.8071289,-0.061035156,0.36621094,0.0,0.0,0.0,0.0,-159.20288,30.684814,169.86511
1765377123688,-0.5175781,-0.29882812,-0.8071289,-0.061035156,0.36621094,0.0,0.0,0.0,0.0,-159.1864,30.6958,169.86511
1765377123777,-0.5161133,-0.3022461,-0.80566406,0.0,-0.24414062,0.0,0.0,0.0,0.0,-159.1864,30.6958,169.86511
1765377123788,-0.5161133,-0.3022461,-0.80566406,0.0,-0.24414062,0.0,0.0,0.0,0.0,-159.1864,30.6958,169.85413
1765377123876,-0.51708984,-0.2998047,-0.8051758,0.061035156,-0.061035156,0.0,0.0,0.0,0.0,-159.1864,30.6958,169.85413
1765377123888,-0.51708984,-0.2998047,-0.8051758,0.061035156,-0.061035156,0.0,0.0,0.0,0.0,-159.17542,30.71228,169.85962
1765377123976,-0.51708984,-0.2993164,-0.8046875,0.0,-0.061035156,0.0,0.0,0.0,0.0,-159.17542,30.71228,169.85962
1765377123987,-0.51708984,-0.2993164,-0.8046875,0.0,-0.061035156,0.0,0.0,0.0,0.0,-159.15894,30.717773,169.85962
1765377124075,-0.5180664,-0.30029297,-0.8046875,0.0,-0.061035156,0.0,0.0,0.0,0.0,-159.15894,30.717773,169.85962
1765377124087,-0.5180664,-0.30029297,-0.8046875,0.0,-0.061035156,0.0,0.0,0.0,0.0,-159.14795,30.72876,169.8761
1765377124175,-0.51708984,-0.2998047,-0.8046875,0.0,-0.12207031,0.0,0.0,0.0,0.0,-159.14795,30.72876,169.8761
1765377124187,-0.51708984,-0.2998047,-0.8046875,0.0,-0.12207031,0.0,0.0,0.0,0.0,-159.14246,30.734253,169.88708
1765377124275,-0.51708984,-0.30029297,-0.8066406,0.18310547,0.12207031,0.0,0.0,0.0,0.0,-159.14246,30.734253,169.88708
1765377124286,-0.51708984,-0.30029297,-0.8066406,0.18310547,0.12207031,0.0,0.0,0.0,0.0,-159.14246,30.717773,169.88159
1765377124375,-0.5180664,-0.30419922,-0.8071289,0.36621094,-0.5493164,0.0,0.0,0.0,0.0,-159.14246,30.717773,169.88159
1765377124386,-0.5180664,-0.30419922,-0.8071289,0.36621094,-0.5493164,0.0,0.0,0.0,0.0,-159.13147,30.706787,169.88159
1765377124474,-0.51708984,-0.29882812,-0.8051758,-0.24414062,0.30517578,0.0,0.0,0.0,0.0,-159.13147,30.706787,169.88159
1765377124486,-0.51708984,-0.29882812,-0.8051758,-0.24414062,0.30517578,0.0,0.0,0.0,0.0,-159.1095,30.723267,169.8761
1765377124574,-0.51660156,-0.3017578,-0.80566406,-0.12207031,-0.12207031,0.0,0.0,0.0,0.0,-159.1095,30.723267,169.8761
1765377124586,-0.51660156,-0.3017578,-0.80566406,-0.12207031,-0.12207031,0.0,0.0,0.0,0.0,-159.12048,30.723267,169.8761
1765377124674,-0.5175781,-0.3017578,-0.80615234,-0.061035156,0.18310547,0.0,0.0,0.0,0.0,-159.12048,30.723267,169.8761
1765377124685,-0.5175781,-0.3017578,-0.80615234,-0.061035156,0.18310547,0.0,0.0,0.0,0.0,-159.13147,30.72876,169.88159
1765377124774,-0.51708984,-0.2998047,-0.8041992,-0.18310547,0.0,0.0,0.0,0.0,0.0,-159.13147,30.72876,169.88159
1765377124785,-0.51708984,-0.2998047,-0.8041992,-0.18310547,0.0,0.0,0.0,0.0,0.0,-159.13696,30.723267,169.88708
1765377124873,-0.5175781,-0.30029297,-0.8051758,-0.12207031,0.061035156,0.0,0.0,0.0,0.0,-159.13696,30.723267,169.88708
1765377124885,-0.5175781,-0.30029297,-0.8051758,-0.12207031,0.061035156,0.0,0.0,0.0,0.0,-159.14246,30.723267,169.90356
1765377124973,-0.51660156,-0.30078125,-0.8071289,-0.061035156,0.12207031,0.0,0.0,0.0,0.0,-159.14246,30.723267,169.90356
1765377124984,-0.51660156,-0.30078125,-0.8071289,-0.061035156,0.12207031,0.0,0.0,0.0,0.0,-159.16443,30.717773,169.89807
1765377125073,-0.5151367,-0.3022461,-0.80859375,0.0,0.61035156,0.0,0.0,0.0,0.0,-159.16443,30.717773,169.89807
1765377125084,-0.5151367,-0.3022461,-0.80859375,0.0,0.61035156,0.0,0.0,0.0,0.0,-159.1864,30.690308,169.90906
1765377125172,-0.51904297,-0.2993164,-0.80908203,0.4272461,-0.4272461,0.0,0.0,0.0,0.0,-159.1864,30.690308,169.90906
1765377125184,-0.51904297,-0.2993164,-0.80908203,0.4272461,-0.4272461,0.0,0.0,0.0,0.0,-159.16443,30.673828,169.90906
1765377125272,-0.51660156,-0.2998047,-0.8120117,0.0,0.061035156,0.0,0.0,0.0,0.0,-159.16443,30.673828,169.90906
1765377125284,-0.51660156,-0.2998047,-0.8120117,0.0,0.061035156,0.0,0.0,0.0,0.0,-159.14795,30.690308,169.93103
1765377125372,-0.546875,-0.27734375,-0.8413086,-5.859375,-7.2021484,1.0986328,0.0,0.0,0.0,-159.14795,30.690308,169.93103
1765377125383,-0.546875,-0.27734375,-0.8413086,-5.859375,-7.2021484,1.0986328,0.0,0.0,0.0,-159.29626,30.970459,170.0299
1765377125472,-0.5336914,-0.3256836,-0.7685547,-10.498047,-0.36621094,2.6245117,0.0,0.0,0.0,-159.29626,30.970459,170.0299
1765377125483,-0.5336914,-0.3256836,-0.7685547,-10.498047,-0.36621094,2.6245117,0.0,0.0,0.0,-160.32349,31.646118,170.21118
1765377125571,-0.50634766,-0.3017578,-0.8095703,3.479004,4.699707,3.8452148,0.0,0.0,0.0,-160.32349,31.646118,170.21118
1765377125583,-0.50634766,-0.3017578,-0.8095703,3.479004,4.699707,3.8452148,0.0,0.0,0.0,-160.50476,31.316528,169.58496
1765377125671,-0.52001953,-0.23339844,-0.8046875,6.8359375,3.9672852,-0.8544922,0.0,0.0,0.0,-160.50476,31.316528,169.58496
1765377125683,-0.52001953,-0.23339844,-0.8046875,6.8359375,3.9672852,-0.8544922,0.0,0.0,0.0,-160.04333,30.899048,169.3158
1765377125771,-0.5151367,-0.2919922,-0.8203125,1.4648438,0.0,-3.6621094,0.0,0.0,0.0,-160.04333,30.899048,169.3158
1765377125783,-0.5151367,-0.2919922,-0.8203125,1.4648438,0.0,-3.6621094,0.0,0.0,0.0,-159.62036,30.706787,169.53552
1765377125871,-0.5209961,-0.31835938,-0.7998047,0.91552734,2.380371,-0.91552734,0.0,0.0,0.0,-159.62036,30.706787,169.53552
1765377125882,-0.5209961,-0.31835938,-0.7998047,0.91552734,2.380371,-0.91552734,0.0,0.0,0.0,-159.47754,30.50354,169.78821
1765377125971,-0.5307617,-0.28076172,-0.8208008,-0.5493164,-3.3569336,1.7089844,0.0,0.0,0.0,-159.47754,30.50354,169.78821
1765377125982,-0.5307617,-0.28076172,-0.8208008,-0.5493164,-3.3569336,1.7089844,0.0,0.0,0.0,-159.41162,30.48706,169.77173
1765377126070,-0.5078125,-0.29541016,-0.8071289,-1.8310547,1.4648438,-0.24414062,0.0,0.0,0.0,-159.41162,30.48706,169.77173
1765377126082,-0.5078125,-0.29541016,-0.8071289,-1.8310547,1.4648438,-0.24414062,0.0,0.0,0.0,-159.69727,30.701294,169.73328
1765377126170,-0.5205078,-0.29736328,-0.8129883,-0.4272461,0.36621094,0.0,0.0,0.0,0.0,-159.69727,30.701294,169.73328
1765377126181,-0.5205078,-0.29736328,-0.8129883,-0.4272461,0.36621094,0.0,0.0,0.0,0.0,-159.79065,30.618896,169.72778
1765377126270,-0.5131836,-0.28759766,-0.8076172,-0.8544922,-0.4272461,1.3427734,0.0,0.0,0.0,-159.79065,30.618896,169.72778
1765377126281,-0.5131836,-0.28759766,-0.8076172,-0.8544922,-0.4272461,1.3427734,0.0,0.0,0.0,-159.87854,30.657349,169.6344
1765377126369,-0.51464844,-0.28955078,-0.81152344,-1.3427734,1.8920898,0.48828125,0.0,0.0,0.0,-159.87854,30.657349,169.6344
1765377126381,-0.51464844,-0.28955078,-0.81152344,-1.3427734,1.8920898,0.48828125,0.0,0.0,0.0,-160.02686,30.60791,169.53003
1765377126469,-0.5131836,-0.28759766,-0.81103516,-1.953125,1.159668,1.3427734,0.0,0.0,0.0,-160.02686,30.60791,169.53003
1765377126480,-0.5131836,-0.28759766,-0.81103516,-1.953125,1.159668,1.3427734,0.0,0.0,0.0,-160.24658,30.50354,169.37073
1765377126569,-0.51416016,-0.2841797,-0.8183594,-0.12207031,-1.6479492,0.6713867,0.0,0.0,0.0,-160.24658,30.50354,169.37073
1765377126580,-0.51416016,-0.2841797,-0.8183594,-0.12207031,-1.6479492,0.6713867,0.0,0.0,0.0,-160.36743,30.541992,169.27185
1765377126668,-0.51660156,-0.27685547,-0.80566406,-0.7324219,-0.5493164,1.0986328,0.0,0.0,0.0,-160.36743,30.541992,169.27185
1765377126680,-0.51660156,-0.27685547,-0.80566406,-0.7324219,-0.5493164,1.0986328,0.0,0.0,0.0,-160.37292,30.71228,169.16748
1765377126768,-0.5161133,-0.2788086,-0.80566406,-1.4648438,1.8310547,0.24414062,0.0,0.0,0.0,-160.37292,30.71228,169.16748
1765377126780,-0.5161133,-0.2788086,-0.80566406,-1.4648438,1.8310547,0.24414062,0.0,0.0,0.0,-160.49377,30.673828,169.17297
1765377126868,-0.515625,-0.2783203,-0.81347656,-1.2207031,0.5493164,0.12207031,0.0,0.0,0.0,-160.49377,30.673828,169.17297
1765377126879,-0.515625,-0.2783203,-0.81347656,-1.2207031,0.5493164,0.12207031,0.0,0.0,0.0,-160.69153,30.547485,169.0686
1765377126968,-0.51171875,-0.27539062,-0.82128906,-0.5493164,1.2817383,0.5493164,0.0,0.0,0.0,-160.69153,30.547485,169.0686
1765377126980,-0.51171875,-0.27539062,-0.82128906,-0.5493164,1.2817383,0.5493164,0.0,0.0,0.0,-160.76843,30.410156,169.01917
1765377127067,-0.5053711,-0.2788086,-0.8100586,0.4272461,0.48828125,-0.5493164,0.0,0.0,0.0,-160.76843,30.410156,169.01917
1765377127079,-0.5053711,-0.2788086,-0.8100586,0.4272461,0.48828125,-0.5493164,0.0,0.0,0.0,-160.80688,30.377197,169.00269
1765377127167,-0.51708984,-0.27539062,-0.81347656,0.48828125,-0.48828125,-0.36621094,0.0,0.0,0.0,-160.80688,30.377197,169.00269
1765377127179,-0.51708984,-0.27539062,-0.81347656,0.48828125,-0.48828125,-0.36621094,0.0,0.0,0.0,-160.66406,30.377197,169.0741
1765377127267,-0.5083008,-0.2788086,-0.81347656,-0.061035156,-0.24414062,-0.30517578,0.0,0.0,0.0,-160.66406,30.377197,169.0741
1765377127278,-0.5083008,-0.2788086,-0.81347656,-0.061035156,-0.24414062,-0.30517578,0.0,0.0,0.0,-160.65308,30.393677,169.11804
1765377127367,-0.5126953,-0.28173828,-0.81591797,0.91552734,0.0,-0.48828125,0.0,0.0,0.0,-160.65308,30.393677,169.11804
1765377127378,-0.5126953,-0.28173828,-0.81591797,0.91552734,0.0,-0.48828125,0.0,0.0,0.0,-160.5542,30.360718,169.16199
1765377127466,-0.5083008,-0.28076172,-0.8105469,0.9765625,-1.0375977,-0.30517578,0.0,0.0,0.0,-160.5542,30.360718,169.16199
1765377127478,-0.5083008,-0.28076172,-0.8105469,0.9765625,-1.0375977,-0.30517578,0.0,0.0,0.0,-160.45532,30.41565,169.22241
1765377127566,-0.515625,-0.28710938,-0.8144531,1.0375977,-0.61035156,-0.5493164,0.0,0.0,0.0,-160.45532,30.41565,169.22241
1765377127578,-0.515625,-0.28710938,-0.8144531,1.0375977,-0.61035156,-0.5493164,0.0,0.0,0.0,-160.28503,30.459595,169.3103
1765377127666,-0.51220703,-0.28759766,-0.80615234,0.6713867,-0.8544922,-0.36621094,0.0,0.0,0.0,-160.28503,30.459595,169.3103
1765377127678,-0.51220703,-0.28759766,-0.80615234,0.6713867,-0.8544922,-0.36621094,0.0,0.0,0.0,-160.15869,30.547485,169.3982
1765377127766,-0.51660156,-0.29003906,-0.81152344,1.2207031,-0.79345703,-0.4272461,0.0,0.0,0.0,-160.15869,30.547485,169.3982
1765377127777,-0.51660156,-0.29003906,-0.81152344,1.2207031,-0.79345703,-0.4272461,0.0,0.0,0.0,-159.99939,30.585938,169.4696
1765377127865,-0.5151367,-0.2919922,-0.8100586,0.79345703,-0.48828125,-0.18310547,0.0,0.0,0.0,-159.99939,30.585938,169.4696
1765377127877,-0.5151367,-0.2919922,-0.8100586,0.79345703,-0.48828125,-0.18310547,0.0,0.0,0.0,-159.87854,30.618896,169.52454
1765377127965,-0.5151367,-0.29492188,-0.8120117,1.0375977,-0.79345703,-0.30517578,0.0,0.0,0.0,-159.87854,30.618896,169.52454
1765377127977,-0.5151367,-0.29492188,-0.8120117,1.0375977,-0.79345703,-0.30517578,0.0,0.0,0.0,-159.77966,30.679321,169.5575
1765377128065,-0.5180664,-0.2939453,-0.8095703,1.0375977,-0.18310547,-0.36621094,0.0,0.0,0.0,-159.77966,30.679321,169.5575
1765377128076,-0.5180664,-0.2939453,-0.8095703,1.0375977,-0.18310547,-0.36621094,0.0,0.0,0.0,-159.68628,30.690308,169.60693
1765377128164,-0.5180664,-0.29736328,-0.80908203,1.0986328,-1.3427734,-0.61035156,0.0,0.0,0.0,-159.68628,30.690308,169.60693
1765377128176,-0.5180664,-0.29736328,-0.80908203,1.0986328,-1.3427734,-0.61035156,0.0,0.0,0.0,-159.57092,30.701294,169.65637
1765377128264,-0.5180664,-0.29833984,-0.8066406,0.5493164,-0.24414062,0.0,0.0,0.0,0.0,-159.57092,30.701294,169.65637
1765377128276,-0.5180664,-0.29833984,-0.8066406,0.5493164,-0.24414062,0.0,0.0,0.0,0.0,-159.45557,30.761719,169.70581
1765377128364,-0.5185547,-0.29882812,-0.8051758,0.36621094,-0.36621094,-0.12207031,0.0,0.0,0.0,-159.45557,30.761719,169.70581
1765377128376,-0.5185547,-0.29882812,-0.8051758,0.36621094,-0.36621094,-0.12207031,0.0,0.0,0.0,-159.37866,30.80017,169.72229
1765377128464,-0.5185547,-0.30029297,-0.8051758,0.24414062,0.0,-0.12207031,0.0,0.0,0.0,-159.37866,30.80017,169.72229
1765377128475,-0.5185547,-0.30029297,-0.8051758,0.24414062,0.0,-0.12207031,0.0,0.0,0.0,-159.3457,30.81665,169.74426
1765377128563,-0.51708984,-0.2998047,-0.8022461,0.12207031,-0.061035156,-0.12207031,0.0,0.0,0.0,-159.3457,30.81665,169.74426
1765377128575,-0.51708984,-0.2998047,-0.8022461,0.12207031,-0.061035156,-0.12207031,0.0,0.0,0.0,-159.30176,30.822144,169.77173
1765377128663,-0.51904297,-0.2998047,-0.8017578,-0.30517578,-0.18310547,0.0,0.0,0.0,0.0,-159.30176,30.822144,169.77173
1765377128675,-0.51904297,-0.2998047,-0.8017578,-0.30517578,-0.18310547,0.0,0.0,0.0,0.0,-159.27979,30.827637,169.78271
1765377128763,-0.52001953,-0.3017578,-0.80566406,-0.61035156,0.36621094,0.0,0.0,0.0,0.0,-159.27979,30.827637,169.78271
1765377128774,-0.52001953,-0.3017578,-0.80566406,-0.61035156,0.36621094,0.0,0.0,0.0,0.0,-159.29077,30.83313,169.7937
1765377128863,-0.5161133,-0.29638672,-0.8017578,-1.3427734,0.79345703,0.36621094,0.0,0.0,0.0,-159.29077,30.83313,169.7937
1765377128874,-0.5161133,-0.29638672,-0.8017578,-1.3427734,0.79345703,0.36621094,0.0,0.0,0.0,-159.39514,30.783691,169.74976
1765377128962,-0.51660156,-0.30029297,-0.80615234,-0.91552734,0.18310547,0.48828125,0.0,0.0,0.0,-159.39514,30.783691,169.74976
1765377128974,-0.51660156,-0.30029297,-0.80615234,-0.91552734,0.18310547,0.48828125,0.0,0.0,0.0,-159.49951,30.761719,169.72229
1765377129062,-0.5180664,-0.29541016,-0.8066406,-1.3427734,0.7324219,0.36621094,0.0,0.0,0.0,-159.49951,30.761719,169.72229
1765377129073,-0.5180664,-0.29541016,-0.8066406,-1.3427734,0.7324219,0.36621094,0.0,0.0,0.0,-159.64233,30.701294,169.65637
1765377129162,-0.515625,-0.2919922,-0.8066406,-1.5258789,0.7324219,0.61035156,0.0,0.0,0.0,-159.64233,30.701294,169.65637
1765377129173,-0.515625,-0.2919922,-0.8066406,-1.5258789,0.7324219,0.61035156,0.0,0.0,0.0,-159.80713,30.673828,169.5575
1765377129261,-0.5151367,-0.2915039,-0.81152344,-1.4038086,1.4038086,0.61035156,0.0,0.0,0.0,-159.80713,30.673828,169.5575
1765377129273,-0.5151367,-0.2915039,-0.81152344,-1.4038086,1.4038086,0.61035156,0.0,0.0,0.0,-159.97192,30.580444,169.4696
1765377129361,-0.51123047,-0.28515625,-0.8120117,-1.7089844,1.5869141,0.8544922,0.0,0.0,0.0,-159.97192,30.580444,169.4696
1765377129373,-0.51123047,-0.28515625,-0.8120117,-1.7089844,1.5869141,0.8544922,0.0,0.0,0.0,-160.17517,30.459595,169.32129
1765377129461,-0.5097656,-0.28515625,-0.8154297,-1.0986328,0.91552734,0.5493164,0.0,0.0,0.0,-160.17517,30.459595,169.32129
1765377129472,-0.5097656,-0.28515625,-0.8154297,-1.0986328,0.91552734,0.5493164,0.0,0.0,0.0,-160.36743,30.360718,169.22241
1765377129561,-0.5053711,-0.28466797,-0.8149414,0.061035156,1.0986328,0.30517578,0.0,0.0,0.0,-160.36743,30.360718,169.22241
1765377129572,-0.5053711,-0.28466797,-0.8149414,0.061035156,1.0986328,0.30517578,0.0,0.0,0.0,-160.46631,30.2948,169.151
1765377129660,-0.5102539,-0.2866211,-0.8183594,0.48828125,-0.5493164,-0.18310547,0.0,0.0,0.0,-160.46631,30.2948,169.151
1765377129672,-0.5102539,-0.2866211,-0.8183594,0.48828125,-0.5493164,-0.18310547,0.0,0.0,0.0,-160.44434,30.289307,169.1565
1765377129760,-0.5107422,-0.28320312,-0.81591797,0.61035156,-0.12207031,-0.12207031,0.0,0.0,0.0,-160.44434,30.289307,169.1565
1765377129772,-0.5107422,-0.28320312,-0.81591797,0.61035156,-0.12207031,-0.12207031,0.0,0.0,0.0,-160.36194,30.322266,169.16199
1765377129860,-0.51123047,-0.28759766,-0.8173828,0.9765625,-0.9765625,-0.24414062,0.0,0.0,0.0,-160.36194,30.322266,169.16199
1765377129871,-0.51123047,-0.28759766,-0.8173828,0.9765625,-0.9765625,-0.24414062,0.0,0.0,0.0,-160.26306,30.371704,169.20593
1765377129960,-0.51220703,-0.28759766,-0.8129883,1.4038086,-0.91552734,-0.36621094,0.0,0.0,0.0,-160.26306,30.371704,169.20593
1765377129971,-0.51220703,-0.28759766,-0.8129883,1.4038086,-0.91552734,-0.36621094,0.0,0.0,0.0,-160.14221,30.437622,169.24438
1765377130059,-0.5136719,-0.29052734,-0.8100586,0.9765625,-0.6713867,-0.18310547,0.0,0.0,0.0,-160.14221,30.437622,169.24438
1765377130071,-0.5136719,-0.29052734,-0.8100586,0.9765625,-0.6713867,-0.18310547,0.0,0.0,0.0,-159.9884,30.509033,169.29382
1765377130159,-0.51464844,-0.29101562,-0.80859375,0.48828125,-0.4272461,-0.061035156,0.0,0.0,0.0,-159.9884,30.509033,169.29382
1765377130171,-0.51464844,-0.29101562,-0.80859375,0.48828125,-0.4272461,-0.061035156,0.0,0.0,0.0,-159.88403,30.574951,169.33228
1765377130259,-0.51416016,-0.2939453,-0.80615234,0.18310547,0.12207031,-0.061035156,0.0,0.0,0.0,-159.88403,30.574951,169.33228
1765377130271,-0.51416016,-0.2939453,-0.80615234,0.18310547,0.12207031,-0.061035156,0.0,0.0,0.0,-159.80164,30.60791,169.35425
1765377130359,-0.51416016,-0.29248047,-0.8100586,0.7324219,-0.18310547,-0.4272461,0.0,0.0,0.0,-159.80164,30.60791,169.35425
1765377130370,-0.51416016,-0.29248047,-0.8100586,0.7324219,-0.18310547,-0.4272461,0.0,0.0,0.0,-159.70276,30.60791,169.37622
1765377130458,-0.5161133,-0.29492188,-0.8066406,0.79345703,-0.48828125,-0.12207031,0.0,0.0,0.0,-159.70276,30.60791,169.37622
1765377130470,-0.5161133,-0.29492188,-0.8066406,0.79345703,-0.48828125,-0.12207031,0.0,0.0,0.0,-159.55994,30.684814,169.45862
1765377130558,-0.51708984,-0.29882812,-0.80810547,0.6713867,-0.5493164,-0.061035156,0.0,0.0,0.0,-159.55994,30.684814,169.45862
1765377130569,-0.51708984,-0.29882812,-0.80810547,0.6713867,-0.5493164,-0.061035156,0.0,0.0,0.0,-159.47205,30.723267,169.51355
1765377130658,-0.5161133,-0.296875,-0.80322266,0.24414062,-0.061035156,0.0,0.0,0.0,0.0,-159.47205,30.723267,169.51355
1765377130669,-0.5161133,-0.296875,-0.80322266,0.24414062,-0.061035156,0.0,0.0,0.0,0.0,-159.41162,30.767212,169.54651
1765377130758,-0.5185547,-0.30029297,-0.8071289,0.5493164,-0.061035156,-0.12207031,0.0,0.0,0.0,-159.41162,30.767212,169.54651
1765377130769,-0.5185547,-0.30029297,-0.8071289,0.5493164,-0.061035156,-0.12207031,0.0,0.0,0.0,-159.34021,30.772705,169.56848
1765377130857,-0.5175781,-0.2993164,-0.8041992,0.12207031,-0.24414062,0.061035156,0.0,0.0,0.0,-159.34021,30.772705,169.56848
1765377130869,-0.5175781,-0.2993164,-0.8041992,0.12207031,-0.24414062,0.061035156,0.0,0.0,0.0,-159.30176,30.789185,169.58496
1765377130957,-0.51708984,-0.30078125,-0.80615234,0.24414062,-0.24414062,0.0,0.0,0.0,0.0,-159.30176,30.789185,169.58496
1765377130968,-0.51708984,-0.30078125,-0.80615234,0.24414062,-0.24414062,0.0,0.0,0.0,0.0,-159.27979,30.794678,169.61243
1765377131057,-0.5180664,-0.30029297,-0.8076172,0.36621094,0.061035156,0.0,0.0,0.0,0.0,-159.27979,30.794678,169.61243
1765377131068,-0.5180664,-0.30029297,-0.8076172,0.36621094,0.061035156,0.0,0.0,0.0,0.0,-159.25781,30.783691,169.60693
1765377131157,-0.5185547,-0.30273438,-0.8066406,0.5493164,-0.91552734,0.0,0.0,0.0,0.0,-159.25781,30.783691,169.60693
1765377131168,-0.5185547,-0.30273438,-0.8066406,0.5493164,-0.91552734,0.0,0.0,0.0,0.0,-159.23035,30.778198,169.6289
1765377131256,-0.51953125,-0.30371094,-0.8095703,-0.4272461,0.061035156,0.0,0.0,0.0,0.0,-159.23035,30.778198,169.6289
1765377131268,-0.51953125,-0.30371094,-0.8095703,-0.4272461,0.061035156,0.0,0.0,0.0,0.0,-159.21387,30.811157,169.68384
1765377131356,-0.5185547,-0.2993164,-0.8051758,-1.159668,0.36621094,0.18310547,0.0,0.0,0.0,-159.21387,30.811157,169.68384
1765377131367,-0.5185547,-0.2993164,-0.8051758,-1.159668,0.36621094,0.18310547,0.0,0.0,0.0,-159.30176,30.805664,169.66736
1765377131456,-0.5175781,-0.2998047,-0.8051758,-0.91552734,0.4272461,0.30517578,0.0,0.0,0.0,-159.30176,30.805664,169.66736
1765377131467,-0.5175781,-0.2998047,-0.8051758,-0.91552734,0.4272461,0.30517578,0.0,0.0,0.0,-159.40613,30.789185,169.6344
1765377131555,-0.51660156,-0.29736328,-0.80810547,-1.2817383,1.159668,0.5493164,0.0,0.0,0.0,-159.40613,30.789185,169.6344
1765377131567,-0.51660156,-0.29736328,-0.80810547,-1.2817383,1.159668,0.5493164,0.0,0.0,0.0,-159.53247,30.72876,169.56299
1765377131655,-0.51464844,-0.29541016,-0.80810547,-1.4648438,0.9765625,0.5493164,0.0,0.0,0.0,-159.53247,30.72876,169.56299
1765377131667,-0.51464844,-0.29541016,-0.80810547,-1.4648438,0.9765625,0.5493164,0.0,0.0,0.0,-159.70825,30.662842,169.48608
1765377131755,-0.5151367,-0.29296875,-0.80859375,-1.2207031,1.0986328,0.48828125,0.0,0.0,0.0,-159.70825,30.662842,169.48608
1765377131766,-0.5151367,-0.29296875,-0.80859375,-1.2207031,1.0986328,0.48828125,0.0,0.0,0.0,-159.86206,30.585938,169.42566
1765377131854,-0.5102539,-0.28564453,-0.80615234,-1.2817383,1.4038086,0.48828125,0.0,0.0,0.0,-159.86206,30.585938,169.42566
1765377131866,-0.5102539,-0.28564453,-0.80615234,-1.2817383,1.4038086,0.48828125,0.0,0.0,0.0,-160.04333,30.470581,169.33228
1765377131954,-0.5107422,-0.28955078,-0.80908203,-0.6713867,0.30517578,0.30517578,0.0,0.0,0.0,-160.04333,30.470581,169.33228
1765377131966,-0.5107422,-0.28955078,-0.80908203,-0.6713867,0.30517578,0.30517578,0.0,0.0,0.0,-160.1477,30.410156,169.29382
1765377132054,-0.51171875,-0.2861328,-0.81103516,-0.30517578,0.12207031,0.0,0.0,0.0,0.0,-160.1477,30.410156,169.29382
1765377132065,-0.51171875,-0.2861328,-0.81103516,-0.30517578,0.12207031,0.0,0.0,0.0,0.0,-160.20264,30.371704,169.2279
1765377132154,-0.5097656,-0.28759766,-0.8095703,0.36621094,-0.48828125,-0.061035156,0.0,0.0,0.0,-160.20264,30.371704,169.2279
1765377132165,-0.5097656,-0.28759766,-0.8095703,0.36621094,-0.48828125,-0.061035156,0.0,0.0,0.0,-160.16418,30.404663,169.23889
1765377132253,-0.51220703,-0.28857422,-0.8120117,0.6713867,-0.48828125,-0.12207031,0.0,0.0,0.0,-160.16418,30.404663,169.23889
1765377132265,-0.51220703,-0.28857422,-0.8120117,0.6713867,-0.48828125,-0.12207031,0.0,0.0,0.0,-160.08179,30.443115,169.27185
1765377132353,-0.51171875,-0.28955078,-0.81152344,0.6713867,-0.6713867,-0.061035156,0.0,0.0,0.0,-160.08179,30.443115,169.27185
1765377132365,-0.51171875,-0.28955078,-0.81152344,0.6713867,-0.6713867,-0.061035156,0.0,0.0,0.0,-159.9939,30.481567,169.30481
1765377132453,-0.5131836,-0.2915039,-0.81152344,0.61035156,-0.4272461,-0.12207031,0.0,0.0,0.0,-159.9939,30.481567,169.30481
1765377132465,-0.5131836,-0.2915039,-0.81152344,0.61035156,-0.4272461,-0.12207031,0.0,0.0,0.0,-159.91699,30.536499,169.33228
1765377132553,-0.5136719,-0.29638672,-0.8100586,0.79345703,0.18310547,0.0,0.0,0.0,0.0,-159.91699,30.536499,169.33228
1765377132564,-0.5136719,-0.29638672,-0.8100586,0.79345703,0.18310547,0.0,0.0,0.0,0.0,-159.8346,30.574951,169.37073
1765377132653,-0.5161133,-0.29492188,-0.81396484,0.8544922,-0.36621094,-0.61035156,0.0,0.0,0.0,-159.8346,30.574951,169.37073
1765377132664,-0.5161133,-0.29492188,-0.81396484,0.8544922,-0.36621094,-0.61035156,0.0,0.0,0.0,-159.74121,30.580444,169.3982
1765377132752,-0.5151367,-0.29345703,-0.8076172,0.7324219,-0.36621094,-0.18310547,0.0,0.0,0.0,-159.74121,30.580444,169.3982
1765377132764,-0.5151367,-0.29345703,-0.8076172,0.7324219,-0.36621094,-0.18310547,0.0,0.0,0.0,-159.61487,30.662842,169.45312
1765377132852,-0.51708984,-0.296875,-0.80810547,0.5493164,-0.8544922,-0.18310547,0.0,0.0,0.0,-159.61487,30.662842,169.45312
1765377132864,-0.51708984,-0.296875,-0.80810547,0.5493164,-0.8544922,-0.18310547,0.0,0.0,0.0,-159.52698,30.690308,169.49158
1765377132951,-0.51708984,-0.29589844,-0.8071289,0.36621094,0.0,-0.18310547,0.0,0.0,0.0,-159.52698,30.690308,169.49158
1765377132963,-0.51708984,-0.29589844,-0.8071289,0.36621094,0.0,-0.18310547,0.0,0.0,0.0,-159.46655,30.723267,169.52454
1765377133051,-0.51660156,-0.2993164,-0.80615234,0.4272461,-0.061035156,-0.12207031,0.0,0.0,0.0,-159.46655,30.723267,169.52454
1765377133063,-0.51660156,-0.2993164,-0.80615234,0.4272461,-0.061035156,-0.12207031,0.0,0.0,0.0,-159.38965,30.723267,169.54651
1765377133151,-0.5161133,-0.29882812,-0.8046875,0.18310547,-0.12207031,-0.12207031,0.0,0.0,0.0,-159.38965,30.723267,169.54651
1765377133162,-0.5161133,-0.29882812,-0.8046875,0.18310547,-0.12207031,-0.12207031,0.0,0.0,0.0,-159.3512,30.739746,169.56848
1765377133251,-0.5161133,-0.30126953,-0.80371094,0.12207031,0.0,0.0,0.0,0.0,0.0,-159.3512,30.739746,169.56848
1765377133262,-0.5161133,-0.30126953,-0.80371094,0.12207031,0.0,0.0,0.0,0.0,0.0,-159.31824,30.739746,169.58496
1765377133350,-0.5161133,-0.30078125,-0.8027344,-0.12207031,0.30517578,0.0,0.0,0.0,0.0,-159.31824,30.739746,169.58496
1765377133362,-0.5161133,-0.30078125,-0.8027344,-0.12207031,0.30517578,0.0,0.0,0.0,0.0,-159.28528,30.74524,169.59045
1765377133450,-0.5151367,-0.3022461,-0.80615234,0.36621094,0.7324219,0.0,0.0,0.0,0.0,-159.28528,30.74524,169.59045
1765377133462,-0.5151367,-0.3022461,-0.80615234,0.36621094,0.7324219,0.0,0.0,0.0,0.0,-159.25232,30.6958,169.58496
1765377133550,-0.5151367,-0.30126953,-0.80371094,0.48828125,0.061035156,0.0,0.0,0.0,0.0,-159.25232,30.6958,169.58496
1765377133561,-0.5151367,-0.30126953,-0.80371094,0.48828125,0.061035156,0.0,0.0,0.0,0.0,-159.1864,30.74524,169.61243
1765377133650,-0.5180664,-0.3017578,-0.8046875,0.24414062,-0.30517578,0.0,0.0,0.0,0.0,-159.1864,30.74524,169.61243
1765377133661,-0.5180664,-0.3017578,-0.8046875,0.24414062,-0.30517578,0.0,0.0,0.0,0.0,-159.13147,30.756226,169.6344
1765377133749,-0.51660156,-0.30126953,-0.80322266,0.0,0.0,0.0,0.0,0.0,0.0,-159.13147,30.756226,169.6344
1765377133761,-0.51660156,-0.30126953,-0.80322266,0.0,0.0,0.0,0.0,0.0,0.0,-159.104,30.778198,169.67285
1765377133849,-0.5180664,-0.30273438,-0.8046875,-0.061035156,-0.12207031,0.0,0.0,0.0,0.0,-159.104,30.778198,169.67285
1765377133861,-0.5180664,-0.30273438,-0.8046875,-0.061035156,-0.12207031,0.0,0.0,0.0,0.0,-159.08203,30.783691,169.69482
1765377133949,-0.51171875,-0.29296875,-0.8208008,-0.91552734,-1.7700195,-1.6479492,0.0,0.0,0.0,-159.08203,30.783691,169.69482
1765377133960,-0.51171875,-0.29296875,-0.8208008,-0.91552734,-1.7700195,-1.6479492,0.0,0.0,0.0,-159.09851,30.805664,169.77722
1765377134049,-0.54003906,-0.3305664,-0.7753906,-1.2207031,-10.986328,-0.91552734,0.0,0.0,0.0,-159.09851,30.805664,169.77722
1765377134060,-0.54003906,-0.3305664,-0.7753906,-1.2207031,-10.986328,-0.91552734,0.0,0.0,0.0,-158.98865,31.59668,170.42542
1765377134148,-0.5371094,-0.29101562,-0.76953125,-0.5493164,2.6855469,0.061035156,0.0,0.0,0.0,-158.98865,31.59668,170.42542
1765377134160,-0.5371094,-0.29101562,-0.76953125,-0.5493164,2.6855469,0.061035156,0.0,0.0,0.0,-158.99414,31.810913,170.46936
1765377134248,-0.51416016,-0.2919922,-0.7895508,0.36621094,2.1362305,0.4272461,0.0,0.0,0.0,-158.99414,31.810913,170.46936
1765377134259,-0.51416016,-0.2919922,-0.7895508,0.36621094,2.1362305,0.4272461,0.0,0.0,0.0,-159.08752,31.552734,170.40894
1765377134348,-0.51708984,-0.3305664,-0.7783203,1.0986328,5.004883,1.7089844,0.0,0.0,0.0,-159.08752,31.552734,170.40894
1765377134359,-0.51708984,-0.3305664,-0.7783203,1.0986328,5.004883,1.7089844,0.0,0.0,0.0,-159.00513,31.28357,170.41992
1765377134447,-0.52783203,-0.25585938,-0.8457031,14.831543,9.643555,-8.361816,0.0,0.0,0.0,-159.00513,31.28357,170.41992
1765377134459,-0.52783203,-0.25585938,-0.8457031,14.831543,9.643555,-8.361816,0.0,0.0,0.0,-158.01636,30.097046,170.14526
1765377134547,-0.5097656,-0.35791016,-0.8051758,-1.7700195,-0.79345703,2.8686523,0.0,0.0,0.0,-158.01636,30.097046,170.14526
1765377134559,-0.5097656,-0.35791016,-0.8051758,-1.7700195,-0.79345703,2.8686523,0.0,0.0,0.0,-157.70325,29.849854,170.34302
1765377134647,-0.48583984,-0.33203125,-0.80615234,-1.4038086,-1.2207031,3.112793,0.0,0.0,0.0,-157.70325,29.849854,170.34302
1765377134658,-0.48583984,-0.33203125,-0.80615234,-1.4038086,-1.2207031,3.112793,0.0,0.0,0.0,-157.87354,30.108032,169.92554
1765377134747,-0.54785156,-0.3125,-0.79003906,-1.5258789,-1.2207031,6.4697266,0.0,0.0,0.0,-157.87354,30.108032,169.92554
1765377134758,-0.54785156,-0.3125,-0.79003906,-1.5258789,-1.2207031,6.4697266,0.0,0.0,0.0,-158.15369,30.421143,169.43115
1765377134846,-0.48095703,-0.30419922,-0.80078125,5.92041,3.2958984,-1.0986328,0.0,0.0,0.0,-158.15369,30.421143,169.43115
1765377134858,-0.48095703,-0.30419922,-0.80078125,5.92041,3.2958984,-1.0986328,0.0,0.0,0.0,-158.17566,30.344238,169.09058
1765377134946,-0.51171875,-0.359375,-0.8125,-6.591797,0.12207031,5.065918,0.0,0.0,0.0,-158.17566,30.344238,169.09058
1765377134958,-0.51171875,-0.359375,-0.8125,-6.591797,0.12207031,5.065918,0.0,0.0,0.0,-158.33496,30.162964,168.82141
1765377135046,-0.50439453,-0.27441406,-0.7973633,-6.8969727,-3.479004,4.699707,0.0,0.0,0.0,-158.33496,30.162964,168.82141
1765377135057,-0.50439453,-0.27441406,-0.7973633,-6.8969727,-3.479004,4.699707,0.0,0.0,0.0,-159.44458,30.59143,167.93701
1765377135146,-0.53808594,-0.29296875,-0.8095703,-3.0517578,4.4555664,-1.4648438,0.0,0.0,0.0,-159.44458,30.59143,167.93701
1765377135157,-0.53808594,-0.29296875,-0.8095703,-3.0517578,4.4555664,-1.4648438,0.0,0.0,0.0,-159.9115,30.481567,167.85461
1765377135245,-0.5053711,-0.27685547,-0.80371094,-3.0517578,-0.24414062,1.2817383,0.0,0.0,0.0,-159.9115,30.481567,167.85461
1765377135257,-0.5053711,-0.27685547,-0.80371094,-3.0517578,-0.24414062,1.2817383,0.0,0.0,0.0,-160.24109,30.509033,167.76672
1765377135345,-0.5078125,-0.29052734,-0.8198242,0.30517578,0.4272461,-0.5493164,0.0,0.0,0.0,-160.24109,30.509033,167.76672
1765377135357,-0.5078125,-0.29052734,-0.8198242,0.30517578,0.4272461,-0.5493164,0.0,0.0,0.0,-160.27405,30.421143,167.83813
1765377135445,-0.51171875,-0.28466797,-0.80615234,0.5493164,-1.0986328,-0.24414062,0.0,0.0,0.0,-160.27405,30.421143,167.83813
1765377135457,-0.51171875,-0.28466797,-0.80615234,0.5493164,-1.0986328,-0.24414062,0.0,0.0,0.0,-160.20813,30.465088,167.90405
1765377135545,-0.5151367,-0.2788086,-0.81103516,1.0986328,-1.0375977,-1.0986328,0.0,0.0,0.0,-160.20813,30.465088,167.90405
1765377135556,-0.5151367,-0.2788086,-0.81103516,1.0986328,-1.0375977,-1.0986328,0.0,0.0,0.0,-160.03784,30.525513,168.0304
1765377135644,-0.5131836,-0.29541016,-0.8041992,-0.18310547,-0.12207031,0.0,0.0,0.0,0.0,-160.03784,30.525513,168.0304
1765377135656,-0.5131836,-0.29541016,-0.8041992,-0.18310547,-0.12207031,0.0,0.0,0.0,0.0,-159.9115,30.602417,168.17871
1765377135744,-0.515625,-0.28808594,-0.80859375,0.9765625,0.0,-0.9765625,0.0,0.0,0.0,-159.9115,30.602417,168.17871
1765377135756,-0.515625,-0.28808594,-0.80859375,0.9765625,0.0,-0.9765625,0.0,0.0,0.0,-159.77417,30.585938,168.26111
1765377135844,-0.5209961,-0.3022461,-0.8046875,0.0,-1.2817383,-0.24414062,0.0,0.0,0.0,-159.77417,30.585938,168.26111
1765377135855,-0.5209961,-0.3022461,-0.8046875,0.0,-1.2817383,-0.24414062,0.0,0.0,0.0,-159.62036,30.684814,168.40942
1765377135943,-0.5136719,-0.296875,-0.8125,1.0986328,-0.18310547,0.12207031,0.0,0.0,0.0,-159.62036,30.684814,168.40942
1765377135955,-0.5136719,-0.296875,-0.8125,1.0986328,-0.18310547,0.12207031,0.0,0.0,0.0,-159.56543,30.706787,168.44238
1765377136043,-0.5180664,-0.29296875,-0.8027344,0.12207031,-0.24414062,-0.24414062,0.0,0.0,0.0,-159.56543,30.706787,168.44238
1765377136055,-0.5180664,-0.29296875,-0.8027344,0.12207031,-0.24414062,-0.24414062,0.0,0.0,0.0,-159.505,30.767212,168.49731
1765377136143,-0.51904297,-0.30078125,-0.80810547,0.5493164,-0.48828125,0.0,0.0,0.0,0.0,-159.505,30.767212,168.49731
1765377136154,-0.51904297,-0.30078125,-0.80810547,0.5493164,-0.48828125,0.0,0.0,0.0,0.0,-159.4336,30.80017,168.56873
1765377136243,-0.51660156,-0.2993164,-0.80615234,0.24414062,0.0,0.24414062,0.0,0.0,0.0,-159.4336,30.80017,168.56873
1765377136254,-0.51660156,-0.2993164,-0.80615234,0.24414062,0.0,0.24414062,0.0,0.0,0.0,-159.41711,30.80017,168.61267
1765377136342,-0.51904297,-0.296875,-0.8051758,-0.061035156,0.18310547,0.0,0.0,0.0,0.0,-159.41711,30.80017,168.61267
1765377136354,-0.51904297,-0.296875,-0.8051758,-0.061035156,0.18310547,0.0,0.0,0.0,0.0,-159.38965,30.844116,168.64563
1765377136442,-0.51708984,-0.29736328,-0.8041992,-0.36621094,0.18310547,0.30517578,0.0,0.0,0.0,-159.38965,30.844116,168.64563
1765377136454,-0.51708984,-0.29736328,-0.8041992,-0.36621094,0.18310547,0.30517578,0.0,0.0,0.0,-159.40613,30.844116,168.65112
1765377136542,-0.5239258,-0.2944336,-0.8100586,-0.91552734,0.48828125,0.18310547,0.0,0.0,0.0,-159.40613,30.844116,168.65112
1765377136553,-0.5239258,-0.2944336,-0.8100586,-0.91552734,0.48828125,0.18310547,0.0,0.0,0.0,-159.41711,30.811157,168.65112
1765377136642,-0.51708984,-0.29589844,-0.8071289,-0.9765625,0.5493164,0.36621094,0.0,0.0,0.0,-159.41711,30.811157,168.65112
1765377136653,-0.51708984,-0.29589844,-0.8071289,-0.9765625,0.5493164,0.36621094,0.0,0.0,0.0,-159.52698,30.822144,168.65112
1765377136741,-0.51953125,-0.29589844,-0.8076172,-0.9765625,0.18310547,0.48828125,0.0,0.0,0.0,-159.52698,30.822144,168.65112
1765377136753,-0.51953125,-0.29589844,-0.8076172,-0.9765625,0.18310547,0.48828125,0.0,0.0,0.0,-159.64233,30.805664,168.64014
1765377136841,-0.51660156,-0.28808594,-0.80810547,-1.4038086,0.61035156,0.8544922,0.0,0.0,0.0,-159.64233,30.805664,168.64014
1765377136852,-0.51660156,-0.28808594,-0.80810547,-1.4038086,0.61035156,0.8544922,0.0,0.0,0.0,-159.80713,30.794678,168.57422
1765377136941,-0.51660156,-0.29492188,-0.81103516,-1.0375977,0.9765625,0.48828125,0.0,0.0,0.0,-159.80713,30.794678,168.57422
1765377136952,-0.51660156,-0.29492188,-0.81103516,-1.0375977,0.9765625,0.48828125,0.0,0.0,0.0,-159.93896,30.72876,168.53027
1765377137041,-0.5161133,-0.28271484,-0.8095703,-1.8920898,1.2207031,0.7324219,0.0,0.0,0.0,-159.93896,30.72876,168.53027
1765377137052,-0.5161133,-0.28271484,-0.8095703,-1.8920898,1.2207031,0.7324219,0.0,0.0,0.0,-160.13123,30.64087,168.41492
1765377137140,-0.5136719,-0.28515625,-0.8149414,-1.159668,1.0375977,0.61035156,0.0,0.0,0.0,-160.13123,30.64087,168.41492
1765377137152,-0.5136719,-0.28515625,-0.8149414,-1.159668,1.0375977,0.61035156,0.0,0.0,0.0,-160.34546,30.558472,168.35449
1765377137240,-0.5078125,-0.2836914,-0.8129883,-0.12207031,1.7700195,0.18310547,0.0,0.0,0.0,-160.34546,30.558472,168.35449
1765377137252,-0.5078125,-0.2836914,-0.8129883,-0.12207031,1.7700195,0.18310547,0.0,0.0,0.0,-160.49927,30.454102,168.29956
1765377137340,-0.51123047,-0.28271484,-0.81396484,0.24414062,-0.7324219,-0.18310547,0.0,0.0,0.0,-160.49927,30.454102,168.29956
1765377137352,-0.51123047,-0.28271484,-0.81396484,0.24414062,-0.7324219,-0.18310547,0.0,0.0,0.0,-160.52124,30.39917,168.28308
1765377137439,-0.5126953,-0.27978516,-0.81347656,0.6713867,-0.24414062,-0.24414062,0.0,0.0,0.0,-160.52124,30.39917,168.28308
1765377137451,-0.5126953,-0.27978516,-0.81347656,0.6713867,-0.24414062,-0.24414062,0.0,0.0,0.0,-160.44983,30.437622,168.31604
1765377137539,-0.5136719,-0.2836914,-0.8154297,0.9765625,-0.9765625,-0.12207031,0.0,0.0,0.0,-160.44983,30.437622,168.31604
1765377137551,-0.5136719,-0.2836914,-0.8154297,0.9765625,-0.9765625,-0.12207031,0.0,0.0,0.0,-160.35095,30.476074,168.36548
1765377137639,-0.51464844,-0.28710938,-0.8120117,1.159668,-0.61035156,-0.30517578,0.0,0.0,0.0,-160.35095,30.476074,168.36548
1765377137650,-0.51464844,-0.28710938,-0.8120117,1.159668,-0.61035156,-0.30517578,0.0,0.0,0.0,-160.2356,30.541992,168.42041
1765377137739,-0.515625,-0.2866211,-0.81152344,1.0375977,-0.4272461,-0.18310547,0.0,0.0,0.0,-160.2356,30.541992,168.42041
1765377137750,-0.515625,-0.2866211,-0.81152344,1.0375977,-0.4272461,-0.18310547,0.0,0.0,0.0,-160.09277,30.59143,168.46436
1765377137838,-0.51416016,-0.29052734,-0.80810547,0.4272461,-0.5493164,-0.12207031,0.0,0.0,0.0,-160.09277,30.59143,168.46436
1765377137850,-0.51416016,-0.29052734,-0.80810547,0.4272461,-0.5493164,-0.12207031,0.0,0.0,0.0,-160.00488,30.651855,168.52478
1765377137938,-0.5175781,-0.28857422,-0.8076172,0.5493164,-0.4272461,-0.30517578,0.0,0.0,0.0,-160.00488,30.651855,168.52478
1765377137950,-0.5175781,-0.28857422,-0.8076172,0.5493164,-0.4272461,-0.30517578,0.0,0.0,0.0,-159.92249,30.684814,168.55774
1765377138038,-0.5136719,-0.2890625,-0.80566406,0.6713867,0.0,-0.12207031,0.0,0.0,0.0,-159.92249,30.684814,168.55774
1765377138049,-0.5136719,-0.2890625,-0.80566406,0.6713867,0.0,-0.12207031,0.0,0.0,0.0,-159.85107,30.679321,168.60168
1765377138138,-0.51708984,-0.29638672,-0.8066406,0.8544922,-1.4038086,-0.18310547,0.0,0.0,0.0,-159.85107,30.679321,168.60168
1765377138150,-0.51708984,-0.29638672,-0.8066406,0.8544922,-1.4038086,-0.18310547,0.0,0.0,0.0,-159.71375,30.756226,168.70056
1765377138237,-0.5180664,-0.29589844,-0.8071289,0.61035156,-0.61035156,-0.12207031,0.0,0.0,0.0,-159.71375,30.756226,168.70056
1765377138249,-0.5180664,-0.29589844,-0.8071289,0.61035156,-0.61035156,-0.12207031,0.0,0.0,0.0,-159.62036,30.805664,168.73901
1765377138337,-0.51904297,-0.29589844,-0.8051758,0.30517578,-0.30517578,-0.18310547,0.0,0.0,0.0,-159.62036,30.805664,168.73901
1765377138348,-0.51904297,-0.29589844,-0.8051758,0.30517578,-0.30517578,-0.18310547,0.0,0.0,0.0,-159.54895,30.860596,168.80493
1765377138437,-0.5185547,-0.29736328,-0.8066406,0.61035156,0.0,-0.5493164,0.0,0.0,0.0,-159.54895,30.860596,168.80493
1765377138448,-0.5185547,-0.29736328,-0.8066406,0.61035156,0.0,-0.5493164,0.0,0.0,0.0,-159.48303,30.855103,168.87634
1765377138537,-0.5180664,-0.29833984,-0.8051758,0.24414062,-0.061035156,0.0,0.0,0.0,0.0,-159.48303,30.855103,168.87634
1765377138548,-0.5180664,-0.29833984,-0.8051758,0.24414062,-0.061035156,0.0,0.0,0.0,0.0,-159.4226,30.855103,168.93677
1765377138636,-0.5185547,-0.29833984,-0.8027344,0.0,0.12207031,0.0,0.0,0.0,0.0,-159.4226,30.855103,168.93677
1765377138648,-0.5185547,-0.29833984,-0.8027344,0.0,0.12207031,0.0,0.0,0.0,0.0,-159.39514,30.860596,168.96423
1765377138736,-0.5185547,-0.29833984,-0.8017578,0.0,0.061035156,0.0,0.0,0.0,0.0,-159.39514,30.860596,168.96423
1765377138747,-0.5185547,-0.29833984,-0.8017578,0.0,0.061035156,0.0,0.0,0.0,0.0,-159.36218,30.866089,168.9862
1765377138836,-0.5175781,-0.2993164,-0.80371094,0.12207031,0.6713867,-0.061035156,0.0,0.0,0.0,-159.36218,30.866089,168.9862
1765377138847,-0.5175781,-0.2993164,-0.80371094,0.12207031,0.6713867,-0.061035156,0.0,0.0,0.0,-159.34021,30.827637,168.9972
1765377138935,-0.51708984,-0.2998047,-0.80322266,0.36621094,-0.30517578,-0.18310547,0.0,0.0,0.0,-159.34021,30.827637,168.9972
1765377138947,-0.51708984,-0.2998047,-0.80322266,0.36621094,-0.30517578,-0.18310547,0.0,0.0,0.0,-159.29077,30.871582,169.06311
1765377139035,-0.52197266,-0.3022461,-0.8066406,-0.12207031,-0.18310547,0.0,0.0,0.0,0.0,-159.29077,30.871582,169.06311
1765377139047,-0.52197266,-0.3022461,-0.8066406,-0.12207031,-0.18310547,0.0,0.0,0.0,0.0,-159.25781,30.882568,169.07959
1765377139135,-0.5185547,-0.30029297,-0.8022461,-0.91552734,0.6713867,0.30517578,0.0,0.0,0.0,-159.25781,30.882568,169.07959
1765377139146,-0.5185547,-0.30029297,-0.8022461,-0.91552734,0.6713867,0.30517578,0.0,0.0,0.0,-159.31274,30.882568,169.0686
1765377139235,-0.5205078,-0.29736328,-0.8066406,-1.2207031,0.30517578,0.4272461,0.0,0.0,0.0,-159.31274,30.882568,169.0686
1765377139246,-0.5205078,-0.29736328,-0.8066406,-1.2207031,0.30517578,0.4272461,0.0,0.0,0.0,-159.4226,30.860596,169.02466
1765377139334,-0.51904297,-0.2939453,-0.80615234,-1.3427734,0.79345703,0.4272461,0.0,0.0,0.0,-159.4226,30.860596,169.02466
1765377139346,-0.51904297,-0.2939453,-0.80615234,-1.3427734,0.79345703,0.4272461,0.0,0.0,0.0,-159.57092,30.805664,168.95325
1765377139434,-0.515625,-0.29541016,-0.81152344,-1.5258789,1.4038086,0.61035156,0.0,0.0,0.0,-159.57092,30.805664,168.95325
1765377139445,-0.515625,-0.29541016,-0.81152344,-1.5258789,1.4038086,0.61035156,0.0,0.0,0.0,-159.75769,30.72876,168.86536
1765377139534,-0.51416016,-0.2915039,-0.8066406,-1.7089844,1.8920898,0.5493164,0.0,0.0,0.0,-159.75769,30.72876,168.86536
1765377139545,-0.51416016,-0.2915039,-0.8066406,-1.7089844,1.8920898,0.5493164,0.0,0.0,0.0,-159.94995,30.62439,168.75
1765377139633,-0.5180664,-0.2861328,-0.81347656,-1.2817383,0.9765625,0.18310547,0.0,0.0,0.0,-159.94995,30.62439,168.75
1765377139645,-0.5180664,-0.2861328,-0.81347656,-1.2817383,0.9765625,0.18310547,0.0,0.0,0.0,-160.09277,30.514526,168.65112
1765377139733,-0.51171875,-0.28564453,-0.8129883,-0.6713867,1.0986328,0.4272461,0.0,0.0,0.0,-160.09277,30.514526,168.65112
1765377139745,-0.51171875,-0.28564453,-0.8129883,-0.6713867,1.0986328,0.4272461,0.0,0.0,0.0,-160.19714,30.459595,168.5907
1765377139833,-0.5102539,-0.28515625,-0.8125,-0.24414062,0.12207031,0.0,0.0,0.0,0.0,-160.19714,30.459595,168.5907
1765377139845,-0.5102539,-0.28515625,-0.8125,-0.24414062,0.12207031,0.0,0.0,0.0,0.0,-160.26855,30.426636,168.54675
1765377139933,-0.51220703,-0.28320312,-0.8125,0.24414062,-0.18310547,0.061035156,0.0,0.0,0.0,-160.26855,30.426636,168.54675
1765377139944,-0.51220703,-0.28320312,-0.8125,0.24414062,-0.18310547,0.061035156,0.0,0.0,0.0,-160.25208,30.437622,168.54126
1765377140032,-0.5136719,-0.2861328,-0.81396484,0.5493164,-0.12207031,0.0,0.0,0.0,0.0,-160.25208,30.437622,168.54126
1765377140044,-0.5136719,-0.2861328,-0.81396484,0.5493164,-0.12207031,0.0,0.0,0.0,0.0,-160.17517,30.459595,168.56323
1765377140132,-0.51171875,-0.28759766,-0.8105469,0.61035156,-0.6713867,0.0,0.0,0.0,0.0,-160.17517,30.459595,168.56323
1765377140144,-0.51171875,-0.28759766,-0.8105469,0.61035156,-0.6713867,0.0,0.0,0.0,0.0,-160.10925,30.48706,168.60168
1765377140232,-0.51416016,-0.2915039,-0.81103516,1.0986328,-1.0986328,-0.061035156,0.0,0.0,0.0,-160.10925,30.48706,168.60168
1765377140244,-0.51416016,-0.2915039,-0.81103516,1.0986328,-1.0986328,-0.061035156,0.0,0.0,0.0,-160.00488,30.547485,168.65112
1765377140332,-0.5126953,-0.28857422,-0.8076172,0.8544922,0.0,-0.24414062,0.0,0.0,0.0,-160.00488,30.547485,168.65112
1765377140343,-0.5126953,-0.28857422,-0.8076172,0.8544922,0.0,-0.24414062,0.0,0.0,0.0,-159.90051,30.574951,168.68408
1765377140431,-0.51464844,-0.29638672,-0.8076172,0.9765625,-1.6479492,-0.36621094,0.0,0.0,0.0,-159.90051,30.574951,168.68408
1765377140443,-0.51464844,-0.29638672,-0.8076172,0.9765625,-1.6479492,-0.36621094,0.0,0.0,0.0,-159.76868,30.62439,168.76648
1765377140531,-0.51660156,-0.29345703,-0.80859375,0.79345703,-0.79345703,-0.18310547,0.0,0.0,0.0,-159.76868,30.62439,168.76648
1765377140544,-0.51660156,-0.29345703,-0.80859375,0.79345703,-0.79345703,-0.18310547,0.0,0.0,0.0,-159.65332,30.6958,168.82141
1765377140631,-0.5180664,-0.29785156,-0.8046875,0.18310547,-0.12207031,0.0,0.0,0.0,0.0,-159.65332,30.6958,168.82141
1765377140643,-0.5180664,-0.29785156,-0.8046875,0.18310547,-0.12207031,0.0,0.0,0.0,0.0,-159.56543,30.739746,168.88184
1765377140731,-0.51708984,-0.29541016,-0.8066406,0.61035156,-0.18310547,-0.24414062,0.0,0.0,0.0,-159.56543,30.739746,168.88184
1765377140742,-0.51708984,-0.29541016,-0.8066406,0.61035156,-0.18310547,-0.24414062,0.0,0.0,0.0,-159.53247,30.739746,168.89282
1765377140830,-0.5185547,-0.296875,-0.80615234,0.30517578,-0.24414062,0.061035156,0.0,0.0,0.0,-159.53247,30.739746,168.89282
1765377140842,-0.5185547,-0.296875,-0.80615234,0.30517578,-0.24414062,0.061035156,0.0,0.0,0.0,-159.46106,30.756226,168.9148
1765377140930,-0.51708984,-0.296875,-0.80322266,0.18310547,-0.24414062,0.0,0.0,0.0,0.0,-159.46106,30.756226,168.9148
1765377140941,-0.51708984,-0.296875,-0.80322266,0.18310547,-0.24414062,0.0,0.0,0.0,0.0,-159.41711,30.789185,168.94226
1765377141030,-0.51660156,-0.29785156,-0.8041992,0.24414062,0.0,0.0,0.0,0.0,0.0,-159.41711,30.789185,168.94226
1765377141041,-0.51660156,-0.29785156,-0.8041992,0.24414062,0.0,0.0,0.0,0.0,0.0,-159.37866,30.80017,168.96423
1765377141129,-0.515625,-0.296875,-0.8017578,0.061035156,0.5493164,0.0,0.0,0.0,0.0,-159.37866,30.80017,168.96423
1765377141141,-0.515625,-0.296875,-0.8017578,0.061035156,0.5493164,0.0,0.0,0.0,0.0,-159.35669,30.778198,168.95874
1765377141229,-0.51660156,-0.3022461,-0.8041992,0.4272461,-0.79345703,0.0,0.0,0.0,0.0,-159.35669,30.778198,168.95874
1765377141241,-0.51660156,-0.3022461,-0.8041992,0.4272461,-0.79345703,0.0,0.0,0.0,0.0,-159.27979,30.789185,168.9972
1765377141329,-0.51708984,-0.30371094,-0.8066406,0.24414062,0.0,0.0,0.0,0.0,0.0,-159.27979,30.789185,168.9972
1765377141340,-0.51708984,-0.30371094,-0.8066406,0.24414062,0.0,0.0,0.0,0.0,0.0,-159.24133,30.794678,169.00818
1765377141429,-0.5161133,-0.30078125,-0.8051758,0.0,-0.061035156,0.0,0.0,0.0,0.0,-159.24133,30.794678,169.00818
1765377141440,-0.5161133,-0.30078125,-0.8051758,0.0,-0.061035156,0.0,0.0,0.0,0.0,-159.22485,30.805664,169.01367
1765377141528,-0.5175781,-0.30322266,-0.8046875,-0.12207031,0.061035156,0.0,0.0,0.0,0.0,-159.22485,30.805664,169.01367
1765377141540,-0.5175781,-0.30322266,-0.8046875,-0.12207031,0.061035156,0.0,0.0,0.0,0.0,-159.21387,30.822144,169.02466
1765377141628,-0.51904297,-0.2993164,-0.8051758,-0.7324219,0.061035156,0.30517578,0.0,0.0,0.0,-159.21387,30.822144,169.02466
1765377141640,-0.51904297,-0.2993164,-0.8051758,-0.7324219,0.061035156,0.30517578,0.0,0.0,0.0,-159.25781,30.822144,169.00269
1765377141728,-0.52001953,-0.30078125,-0.8051758,-1.2207031,0.4272461,0.4272461,0.0,0.0,0.0,-159.25781,30.822144,169.00269
1765377141739,-0.52001953,-0.30078125,-0.8051758,-1.2207031,0.4272461,0.4272461,0.0,0.0,0.0,-159.34021,30.81665,168.9862
1765377141828,-0.51904297,-0.296875,-0.8041992,-1.3427734,0.79345703,0.30517578,0.0,0.0,0.0,-159.34021,30.81665,168.9862
1765377141839,-0.51904297,-0.296875,-0.8041992,-1.3427734,0.79345703,0.30517578,0.0,0.0,0.0,-159.46106,30.794678,168.93677
1765377141927,-0.51464844,-0.2919922,-0.80615234,-0.9765625,1.159668,0.30517578,0.0,0.0,0.0,-159.46106,30.794678,168.93677
1765377141939,-0.51464844,-0.2919922,-0.80615234,-0.9765625,1.159668,0.30517578,0.0,0.0,0.0,-159.60938,30.706787,168.86536
1765377142027,-0.5136719,-0.29296875,-0.80615234,-1.2817383,0.79345703,0.61035156,0.0,0.0,0.0,-159.60938,30.706787,168.86536
1765377142038,-0.5136719,-0.29296875,-0.80615234,-1.2817383,0.79345703,0.61035156,0.0,0.0,0.0,-159.72473,30.662842,168.8324
1765377142127,-0.5161133,-0.29248047,-0.8105469,-0.9765625,0.91552734,0.24414062,0.0,0.0,0.0,-159.72473,30.662842,168.8324
1765377142138,-0.5161133,-0.29248047,-0.8105469,-0.9765625,0.91552734,0.24414062,0.0,0.0,0.0,-159.86755,30.580444,168.76099
1765377142226,-0.51220703,-0.29003906,-0.80859375,-1.0986328,0.6713867,0.48828125,0.0,0.0,0.0,-159.86755,30.580444,168.76099
1765377142238,-0.51220703,-0.29003906,-0.80859375,-1.0986328,0.6713867,0.48828125,0.0,0.0,0.0,-159.9939,30.536499,168.71155
1765377142326,-0.51220703,-0.2890625,-0.8125,0.0,0.4272461,0.061035156,0.0,0.0,0.0,-159.9939,30.536499,168.71155
1765377142338,-0.51220703,-0.2890625,-0.8125,0.0,0.4272461,0.061035156,0.0,0.0,0.0,-160.04333,30.48706,168.67859
1765377142426,-0.5097656,-0.2919922,-0.8105469,0.0,0.061035156,0.12207031,0.0,0.0,0.0,-160.04333,30.48706,168.67859
1765377142437,-0.5097656,-0.2919922,-0.8105469,0.0,0.061035156,0.12207031,0.0,0.0,0.0,-160.05432,30.476074,168.6731
1765377142526,-0.5136719,-0.28564453,-0.8095703,0.061035156,-0.061035156,-0.18310547,0.0,0.0,0.0,-160.05432,30.476074,168.6731
1765377142537,-0.5136719,-0.28564453,-0.8095703,0.061035156,-0.061035156,-0.18310547,0.0,0.0,0.0,-160.03235,30.50354,168.65662
1765377142625,-0.51171875,-0.29052734,-0.8051758,-0.061035156,0.12207031,0.0,0.0,0.0,0.0,-160.03235,30.50354,168.65662
1765377142638,-0.51171875,-0.29052734,-0.8051758,-0.061035156,0.12207031,0.0,0.0,0.0,0.0,-159.9939,30.531006,168.67859
1765377142725,-0.5131836,-0.28955078,-0.8144531,0.6713867,0.061035156,-0.36621094,0.0,0.0,0.0,-159.9939,30.531006,168.67859
1765377142737,-0.5131836,-0.28955078,-0.8144531,0.6713867,0.061035156,-0.36621094,0.0,0.0,0.0,-159.91699,30.50354,168.70056
1765377142825,-0.5131836,-0.29003906,-0.8071289,0.61035156,-0.30517578,-0.18310547,0.0,0.0,0.0,-159.91699,30.50354,168.70056
1765377142836,-0.5131836,-0.29003906,-0.8071289,0.61035156,-0.30517578,-0.18310547,0.0,0.0,0.0,-159.80713,30.574951,168.77197
1765377142925,-0.51660156,-0.29296875,-0.81103516,0.79345703,-0.61035156,-0.12207031,0.0,0.0,0.0,-159.80713,30.574951,168.77197
1765377142936,-0.51660156,-0.29296875,-0.81103516,0.79345703,-0.61035156,-0.12207031,0.0,0.0,0.0,-159.70825,30.602417,168.78845
1765377143024,-0.5131836,-0.29345703,-0.8076172,0.48828125,-0.12207031,-0.061035156,0.0,0.0,0.0,-159.70825,30.602417,168.78845
1765377143036,-0.5131836,-0.29345703,-0.8076172,0.48828125,-0.12207031,-0.061035156,0.0,0.0,0.0,-159.64233,30.635376,168.80493
1765377143124,-0.5180664,-0.29589844,-0.8076172,0.5493164,-0.24414062,-0.061035156,0.0,0.0,0.0,-159.64233,30.635376,168.80493
1765377143136,-0.5180664,-0.29589844,-0.8076172,0.5493164,-0.24414062,-0.061035156,0.0,0.0,0.0,-159.53796,30.662842,168.8324
1765377143224,-0.51416016,-0.29638672,-0.80615234,0.36621094,-0.24414062,0.0,0.0,0.0,0.0,-159.53796,30.662842,168.8324
1765377143235,-0.51416016,-0.29638672,-0.80615234,0.36621094,-0.24414062,0.0,0.0,0.0,0.0,-159.49951,30.679321,168.83789
1765377143324,-0.51708984,-0.29833984,-0.8120117,0.4272461,-0.12207031,0.0,0.0,0.0,0.0,-159.49951,30.679321,168.83789
1765377143335,-0.51708984,-0.29833984,-0.8120117,0.4272461,-0.12207031,0.0,0.0,0.0,0.0,-159.45557,30.684814,168.83789
1765377143423,-0.515625,-0.2998047,-0.80908203,0.5493164,0.48828125,0.0,0.0,0.0,0.0,-159.45557,30.684814,168.83789
1765377143435,-0.515625,-0.2998047,-0.80908203,0.5493164,0.48828125,0.0,0.0,0.0,0.0,-159.4336,30.679321,168.85437
1765377143523,-0.5185547,-0.29785156,-0.81103516,0.48828125,-0.7324219,0.0,0.0,0.0,0.0,-159.4336,30.679321,168.85437
1765377143534,-0.5185547,-0.29785156,-0.81103516,0.48828125,-0.7324219,0.0,0.0,0.0,0.0,-159.38965,30.662842,168.85986
1765377143623,-0.51660156,-0.29736328,-0.8076172,0.4272461,-0.12207031,0.0,0.0,0.0,0.0,-159.38965,30.662842,168.85986
1765377143634,-0.51660156,-0.29736328,-0.8076172,0.4272461,-0.12207031,0.0,0.0,0.0,0.0,-159.32373,30.717773,168.87085
1765377143722,-0.51708984,-0.30126953,-0.8066406,0.30517578,-0.24414062,0.0,0.0,0.0,0.0,-159.32373,30.717773,168.87085
1765377143734,-0.51708984,-0.30126953,-0.8066406,0.30517578,-0.24414062,0.0,0.0,0.0,0.0,-159.28528,30.734253,168.86536
1765377143822,-0.51708984,-0.30029297,-0.80566406,0.12207031,0.061035156,0.0,0.0,0.0,0.0,-159.28528,30.734253,168.86536
1765377143834,-0.51708984,-0.30029297,-0.80566406,0.12207031,0.061035156,0.0,0.0,0.0,0.0,-159.2688,30.74524,168.88184
1765377143922,-0.5185547,-0.30029297,-0.8051758,0.061035156,0.0,0.0,0.0,0.0,0.0,-159.2688,30.74524,168.88184
1765377143933,-0.5185547,-0.30029297,-0.8051758,0.061035156,0.0,0.0,0.0,0.0,0.0,-159.23584,30.74524,168.88184
1765377144022,-0.51660156,-0.30029297,-0.8046875,0.061035156,0.0,0.0,0.0,0.0,0.0,-159.23584,30.74524,168.88184
1765377144033,-0.51660156,-0.30029297,-0.8046875,0.061035156,0.0,0.0,0.0,0.0,0.0,-159.22485,30.750732,168.89282
1765377144121,-0.51660156,-0.30126953,-0.8076172,0.18310547,-0.061035156,0.0,0.0,0.0,0.0,-159.22485,30.750732,168.89282
1765377144133,-0.51660156,-0.30126953,-0.8076172,0.18310547,-0.061035156,0.0,0.0,0.0,0.0,-159.21387,30.750732,168.90381
1765377144221,-0.51660156,-0.30126953,-0.8071289,0.12207031,0.4272461,0.0,0.0,0.0,0.0,-159.21387,30.750732,168.90381
1765377144233,-0.51660156,-0.30126953,-0.8071289,0.12207031,0.4272461,0.0,0.0,0.0,0.0,-159.20837,30.739746,168.88184
1765377144321,-0.51904297,-0.30126953,-0.80810547,0.30517578,-0.30517578,0.0,0.0,0.0,0.0,-159.20837,30.739746,168.88184
1765377144332,-0.51904297,-0.30126953,-0.80810547,0.30517578,-0.30517578,0.0,0.0,0.0,0.0,-159.19739,30.706787,168.86536
1765377144421,-0.5180664,-0.3022461,-0.80859375,0.24414062,0.12207031,0.0,0.0,0.0,0.0,-159.19739,30.706787,168.86536
1765377144432,-0.5180664,-0.3022461,-0.80859375,0.24414062,0.12207031,0.0,0.0,0.0,0.0,-159.14795,30.72876,168.87634
1765377144520,-0.51708984,-0.30029297,-0.8051758,-0.24414062,-0.24414062,0.0,0.0,0.0,0.0,-159.14795,30.72876,168.87634
1765377144532,-0.51708984,-0.30029297,-0.8051758,-0.24414062,-0.24414062,0.0,0.0,0.0,0.0,-159.13696,30.74524,168.88733
1765377144620,-0.52001953,-0.30322266,-0.8051758,-0.061035156,0.18310547,0.0,0.0,0.0,0.0,-159.13696,30.74524,168.88733
1765377144632,-0.52001953,-0.30322266,-0.8051758,-0.061035156,0.18310547,0.0,0.0,0.0,0.0,-159.13696,30.74524,168.90381
1765377144720,-0.51708984,-0.3017578,-0.8066406,0.0,-0.12207031,0.0,0.0,0.0,0.0,-159.13696,30.74524,168.90381
1765377144731,-0.51708984,-0.3017578,-0.8066406,0.0,-0.12207031,0.0,0.0,0.0,0.0,-159.13147,30.74524,168.90381
1765377144820,-0.51708984,-0.30126953,-0.80371094,-0.36621094,0.12207031,0.12207031,0.0,0.0,0.0,-159.13147,30.74524,168.90381
1765377144831,-0.51708984,-0.30126953,-0.80371094,-0.36621094,0.12207031,0.12207031,0.0,0.0,0.0,-159.15894,30.756226,168.88184
1765377144919,-0.5185547,-0.2998047,-0.8046875,-0.061035156,0.0,0.061035156,0.0,0.0,0.0,-159.15894,30.756226,168.88184
1765377144931,-0.5185547,-0.2998047,-0.8046875,-0.061035156,0.0,0.061035156,0.0,0.0,0.0,-159.1864,30.756226,168.85986
1765377145019,-0.51708984,-0.30029297,-0.80566406,-0.12207031,0.36621094,0.30517578,0.0,0.0,0.0,-159.1864,30.756226,168.85986
1765377145030,-0.51708984,-0.30029297,-0.80566406,-0.12207031,0.36621094,0.30517578,0.0,0.0,0.0,-159.21387,30.734253,168.85437
1765377145119,-0.51708984,-0.30273438,-0.8076172,0.0,-0.48828125,0.0,0.0,0.0,0.0,-159.21387,30.734253,168.85437
1765377145130,-0.51708984,-0.30273438,-0.8076172,0.0,-0.48828125,0.0,0.0,0.0,0.0,-159.23584,30.71228,168.86536
1765377145218,-0.51660156,-0.30029297,-0.8071289,-0.18310547,0.18310547,0.12207031,0.0,0.0,0.0,-159.23584,30.71228,168.86536
1765377145230,-0.51660156,-0.30029297,-0.8071289,-0.18310547,0.18310547,0.12207031,0.0,0.0,0.0,-159.24133,30.706787,168.88733
1765377145318,-0.5175781,-0.2993164,-0.8051758,-0.18310547,-0.36621094,0.12207031,0.0,0.0,0.0,-159.24133,30.706787,168.88733
1765377145330,-0.5175781,-0.2993164,-0.8051758,-0.18310547,-0.36621094,0.12207031,0.0,0.0,0.0,-159.24133,30.72876,168.89282
1765377145418,-0.51660156,-0.30029297,-0.80566406,0.0,0.0,0.0,0.0,0.0,0.0,-159.24133,30.72876,168.89282
1765377145429,-0.51660156,-0.30029297,-0.80566406,0.0,0.0,0.0,0.0,0.0,0.0,-159.24133,30.739746,168.89282
1765377145518,-0.51660156,-0.29833984,-0.8046875,0.061035156,-0.061035156,0.12207031,0.0,0.0,0.0,-159.24133,30.739746,168.89282
1765377145529,-0.51660156,-0.29833984,-0.8046875,0.061035156,-0.061035156,0.12207031,0.0,0.0,0.0,-159.23584,30.74524,168.90381
1765377145617,-0.51660156,-0.30126953,-0.8041992,-0.061035156,-0.18310547,0.0,0.0,0.0,0.0,-159.23584,30.74524,168.90381
1765377145629,-0.51660156,-0.30126953,-0.8041992,-0.061035156,-0.18310547,0.0,0.0,0.0,0.0,-159.23035,30.756226,168.9148
1765377145717,-0.51953125,-0.2998047,-0.8046875,0.0,0.0,0.0,0.0,0.0,0.0,-159.23035,30.756226,168.9148
1765377145729,-0.51953125,-0.2998047,-0.8046875,0.0,0.0,0.0,0.0,0.0,0.0,-159.21936,30.756226,168.93127
1765377145817,-0.5161133,-0.29736328,-0.8022461,0.061035156,0.18310547,0.0,0.0,0.0,0.0,-159.21936,30.756226,168.93127
1765377145828,-0.5161133,-0.29736328,-0.8022461,0.061035156,0.18310547,0.0,0.0,0.0,0.0,-159.21936,30.739746,168.94226
1765377145917,-0.51464844,-0.30273438,-0.8051758,0.18310547,-0.6713867,0.0,0.0,0.0,0.0,-159.21936,30.739746,168.94226
1765377145928,-0.51464844,-0.30273438,-0.8051758,0.18310547,-0.6713867,0.0,0.0,0.0,0.0,-159.20837,30.734253,168.94775
1765377146017,-0.51708984,-0.2998047,-0.80566406,0.0,-0.061035156,0.0,0.0,0.0,0.0,-159.20837,30.734253,168.94775
1765377146028,-0.51708984,-0.2998047,-0.80566406,0.0,-0.061035156,0.0,0.0,0.0,0.0,-159.19739,30.734253,168.93677
1765377146116,-0.51708984,-0.2993164,-0.80371094,-0.12207031,-0.30517578,0.0,0.0,0.0,0.0,-159.19739,30.734253,168.93677
1765377146127,-0.51708984,-0.2993164,-0.80371094,-0.12207031,-0.30517578,0.0,0.0,0.0,0.0,-159.1864,30.756226,168.95325
1765377146216,-0.51953125,-0.3017578,-0.80615234,0.061035156,0.061035156,0.0,0.0,0.0,0.0,-159.1864,30.756226,168.95325
1765377146227,-0.51953125,-0.3017578,-0.80615234,0.061035156,0.061035156,0.0,0.0,0.0,0.0,-159.18091,30.750732,168.96973
1765377146315,-0.5151367,-0.30126953,-0.8041992,0.12207031,0.0,0.0,0.0,0.0,0.0,-159.18091,30.750732,168.96973
1765377146327,-0.5151367,-0.30126953,-0.8041992,0.12207031,0.0,0.0,0.0,0.0,0.0,-159.17542,30.778198,168.96973
1765377146415,-0.51904297,-0.29882812,-0.8027344,-0.12207031,0.0,0.061035156,0.0,0.0,0.0,-159.17542,30.778198,168.96973
1765377146427,-0.51904297,-0.29882812,-0.8027344,-0.12207031,0.0,0.061035156,0.0,0.0,0.0,-159.15894,30.778198,168.96423
1765377146515,-0.5180664,-0.3022461,-0.8071289,0.0,-0.18310547,0.12207031,0.0,0.0,0.0,-159.15894,30.778198,168.96423
1765377146526,-0.5180664,-0.3022461,-0.8071289,0.0,-0.18310547,0.12207031,0.0,0.0,0.0,-159.16443,30.789185,168.96423
1765377146615,-0.5161133,-0.30078125,-0.80566406,0.12207031,0.4272461,0.0,0.0,0.0,0.0,-159.16443,30.789185,168.96423
1765377146626,-0.5161133,-0.30078125,-0.80566406,0.12207031,0.4272461,0.0,0.0,0.0,0.0,-159.17542,30.772705,168.93677
1765377146714,-0.52001953,-0.30371094,-0.80859375,0.0,-0.5493164,0.0,0.0,0.0,0.0,-159.17542,30.772705,168.93677
1765377146726,-0.52001953,-0.30371094,-0.80859375,0.0,-0.5493164,0.0,0.0,0.0,0.0,-159.16992,30.74524,168.94226
1765377146814,-0.5185547,-0.29833984,-0.80615234,-0.12207031,0.5493164,0.0,0.0,0.0,0.0,-159.16992,30.74524,168.94226
1765377146826,-0.5185547,-0.29833984,-0.80615234,-0.12207031,0.5493164,0.0,0.0,0.0,0.0,-159.15344,30.74524,168.93677
1765377146914,-0.51660156,-0.30126953,-0.8071289,0.0,-0.18310547,0.0,0.0,0.0,0.0,-159.15344,30.74524,168.93677
1765377146925,-0.51660156,-0.30126953,-0.8071289,0.0,-0.18310547,0.0,0.0,0.0,0.0,-159.14795,30.756226,168.93677
1765377147014,-0.5180664,-0.2993164,-0.80566406,0.0,0.12207031,0.0,0.0,0.0,0.0,-159.14795,30.756226,168.93677
1765377147025,-0.5180664,-0.2993164,-0.80566406,0.0,0.12207031,0.0,0.0,0.0,0.0,-159.14795,30.756226,168.93127
1765377147113,-0.51708984,-0.30126953,-0.8041992,-0.12207031,0.0,0.0,0.0,0.0,0.0,-159.14795,30.756226,168.93127
1765377147125,-0.51708984,-0.30126953,-0.8041992,-0.12207031,0.0,0.0,0.0,0.0,0.0,-159.15344,30.750732,168.9148
1765377147213,-0.5175781,-0.29882812,-0.8051758,-0.12207031,0.0,0.0,0.0,0.0,0.0,-159.15344,30.750732,168.9148
1765377147225,-0.5175781,-0.29882812,-0.8051758,-0.12207031,0.0,0.0,0.0,0.0,0.0,-159.14795,30.756226,168.92578
1765377147313,-0.51660156,-0.30126953,-0.80566406,0.0,-0.061035156,0.0,0.0,0.0,0.0,-159.14795,30.756226,168.92578
1765377147324,-0.51660156,-0.30126953,-0.80566406,0.0,-0.061035156,0.0,0.0,0.0,0.0,-159.15894,30.756226,168.93127
1765377147413,-0.5175781,-0.30126953,-0.80908203,0.061035156,0.30517578,0.0,0.0,0.0,0.0,-159.15894,30.756226,168.93127
1765377147424,-0.5175781,-0.30126953,-0.80908203,0.061035156,0.30517578,0.0,0.0,0.0,0.0,-159.16443,30.72876,168.92578
1765377147513,-0.51904297,-0.3017578,-0.80810547,0.12207031,-0.5493164,0.0,0.0,0.0,0.0,-159.16443,30.72876,168.92578
1765377147524,-0.51904297,-0.3017578,-0.80810547,0.12207031,-0.5493164,0.0,0.0,0.0,0.0,-159.16443,30.717773,168.92578
1765377147612,-0.5175781,-0.2993164,-0.8076172,-0.12207031,0.18310547,0.0,0.0,0.0,0.0,-159.16443,30.717773,168.92578
1765377147623,-0.5175781,-0.2993164,-0.8076172,-0.12207031,0.18310547,0.0,0.0,0.0,0.0,-159.15344,30.71228,168.93127
1765377147712,-0.51660156,-0.30078125,-0.8071289,0.12207031,-0.36621094,0.0,0.0,0.0,0.0,-159.15344,30.71228,168.93127
1765377147724,-0.51660156,-0.30078125,-0.8071289,0.12207031,-0.36621094,0.0,0.0,0.0,0.0,-159.14246,30.734253,168.93127
1765377147811,-0.51708984,-0.3017578,-0.8051758,-0.12207031,-0.18310547,0.0,0.0,0.0,0.0,-159.14246,30.734253,168.93127
1765377147824,-0.51708984,-0.3017578,-0.8051758,-0.12207031,-0.18310547,0.0,0.0,0.0,0.0,-159.13696,30.739746,168.94226
1765377147911,-0.51953125,-0.30078125,-0.80615234,0.061035156,0.0,0.0,0.0,0.0,0.0,-159.13696,30.739746,168.94226
1765377147924,-0.51953125,-0.30078125,-0.80615234,0.061035156,0.0,0.0,0.0,0.0,0.0,-159.12048,30.74524,168.94226
1765377148011,-0.5161133,-0.30078125,-0.8046875,0.0,0.0,0.0,0.0,0.0,0.0,-159.12048,30.74524,168.94226
1765377148023,-0.5161133,-0.30078125,-0.8046875,0.0,0.0,0.0,0.0,0.0,0.0,-159.12048,30.750732,168.94226
1765377148111,-0.5175781,-0.30029297,-0.80322266,-0.12207031,0.0,0.0,0.0,0.0,0.0,-159.12048,30.750732,168.94226
1765377148122,-0.5175781,-0.30029297,-0.80322266,-0.12207031,0.0,0.0,0.0,0.0,0.0,-159.12048,30.750732,168.94775
1765377148210,-0.51660156,-0.29882812,-0.8027344,0.061035156,0.12207031,0.0,0.0,0.0,0.0,-159.12048,30.750732,168.94775
1765377148222,-0.51660156,-0.29882812,-0.8027344,0.061035156,0.12207031,0.0,0.0,0.0,0.0,-159.12598,30.72876,168.96423
1765377148310,-0.5161133,-0.30517578,-0.80615234,0.18310547,-0.61035156,0.0,0.0,0.0,0.0,-159.12598,30.72876,168.96423
1765377148322,-0.5161133,-0.30517578,-0.80615234,0.18310547,-0.61035156,0.0,0.0,0.0,0.0,-159.12048,30.72876,168.9917
1765377148410,-0.5185547,-0.30126953,-0.8071289,0.0,0.0,0.0,0.0,0.0,0.0,-159.12048,30.72876,168.9917
1765377148421,-0.5185547,-0.30126953,-0.8071289,0.0,0.0,0.0,0.0,0.0,0.0,-159.1095,30.723267,169.00269
1765377148510,-0.51708984,-0.30078125,-0.80371094,-0.18310547,-0.24414062,0.0,0.0,0.0,0.0,-159.1095,30.723267,169.00269
1765377148521,-0.51708984,-0.30078125,-0.80371094,-0.18310547,-0.24414062,0.0,0.0,0.0,0.0,-159.104,30.74524,169.03015
1765377148609,-0.51708984,-0.30078125,-0.8046875,-0.061035156,0.061035156,0.0,0.0,0.0,0.0,-159.104,30.74524,169.03015
1765377148621,-0.51708984,-0.30078125,-0.8046875,-0.061035156,0.061035156,0.0,0.0,0.0,0.0,-159.11499,30.734253,169.03564
1765377148709,-0.5185547,-0.2993164,-0.8051758,0.0,0.12207031,0.0,0.0,0.0,0.0,-159.11499,30.734253,169.03564
1765377148721,-0.5185547,-0.2993164,-0.8051758,0.0,0.12207031,0.0,0.0,0.0,0.0,-159.1095,30.734253,169.04663
1765377148809,-0.5180664,-0.30029297,-0.8051758,-0.24414062,0.0,0.0,0.0,0.0,0.0,-159.1095,30.734253,169.04663
1765377148820,-0.5180664,-0.30029297,-0.8051758,-0.24414062,0.0,0.0,0.0,0.0,0.0,-159.11499,30.739746,169.05762
1765377148909,-0.5175781,-0.30029297,-0.80371094,-0.061035156,0.061035156,0.0,0.0,0.0,0.0,-159.11499,30.739746,169.05762
1765377148920,-0.5175781,-0.30029297,-0.80371094,-0.061035156,0.061035156,0.0,0.0,0.0,0.0,-159.13147,30.734253,169.0686
1765377149008,-0.5151367,-0.29736328,-0.80322266,-0.061035156,0.24414062,0.0,0.0,0.0,0.0,-159.13147,30.734253,169.0686
1765377149020,-0.5151367,-0.29736328,-0.80322266,-0.061035156,0.24414062,0.0,0.0,0.0,0.0,-159.15344,30.701294,169.05762
1765377149108,-0.51464844,-0.30419922,-0.8051758,0.24414062,-0.4272461,0.0,0.0,0.0,0.0,-159.15344,30.701294,169.05762
1765377149120,-0.51464844,-0.30419922,-0.8051758,0.24414062,-0.4272461,0.0,0.0,0.0,0.0,-159.15344,30.690308,169.06311
1765377149208,-0.515625,-0.3022461,-0.80615234,0.0,0.061035156,0.0,0.0,0.0,0.0,-159.15344,30.690308,169.06311
1765377149219,-0.515625,-0.3022461,-0.80615234,0.0,0.061035156,0.0,0.0,0.0,0.0,-159.15344,30.673828,169.06311
1765377149308,-0.51416016,-0.30078125,-0.8046875,-0.18310547,-0.12207031,0.0,0.0,0.0,0.0,-159.15344,30.673828,169.06311
1765377149319,-0.51416016,-0.30078125,-0.8046875,-0.18310547,-0.12207031,0.0,0.0,0.0,0.0,-159.13696,30.6958,169.07959
1765377149407,-0.515625,-0.30322266,-0.8051758,0.0,-0.061035156,0.0,0.0,0.0,0.0,-159.13696,30.6958,169.07959
1765377149419,-0.515625,-0.30322266,-0.8051758,0.0,-0.061035156,0.0,0.0,0.0,0.0,-159.14795,30.679321,169.07959
1765377149507,-0.5161133,-0.2993164,-0.80615234,0.12207031,0.061035156,0.0,0.0,0.0,0.0,-159.14795,30.679321,169.07959
1765377149519,-0.5161133,-0.2993164,-0.80615234,0.12207031,0.061035156,0.0,0.0,0.0,0.0,-159.13147,30.684814,169.08508
1765377149607,-0.5161133,-0.30078125,-0.8051758,-0.12207031,-0.061035156,0.0,0.0,0.0,0.0,-159.13147,30.684814,169.08508
1765377149618,-0.5161133,-0.30078125,-0.8051758,-0.12207031,-0.061035156,0.0,0.0,0.0,0.0,-159.13147,30.684814,169.09058
1765377149706,-0.51464844,-0.3022461,-0.8027344,0.18310547,0.24414062,0.0,0.0,0.0,0.0,-159.13147,30.684814,169.09058
1765377149718,-0.51464844,-0.3022461,-0.8027344,0.18310547,0.24414062,0.0,0.0,0.0,0.0,-159.12598,30.690308,169.10156
1765377149806,-0.5161133,-0.29638672,-0.7998047,-0.18310547,0.24414062,0.0,0.0,0.0,0.0,-159.12598,30.690308,169.10156
1765377149818,-0.5161133,-0.29638672,-0.7998047,-0.18310547,0.24414062,0.0,0.0,0.0,0.0,-159.1095,30.657349,169.09058
1765377149906,-0.5136719,-0.30566406,-0.80566406,0.61035156,-0.61035156,0.0,0.0,0.0,0.0,-159.1095,30.657349,169.09058
1765377149918,-0.5136719,-0.30566406,-0.80566406,0.61035156,-0.61035156,0.0,0.0,0.0,0.0,-159.08752,30.668335,169.09607
1765377150006,-0.5151367,-0.30273438,-0.80615234,0.0,-0.18310547,0.0,0.0,0.0,0.0,-159.08752,30.668335,169.09607
1765377150017,-0.5151367,-0.30273438,-0.80615234,0.0,-0.18310547,0.0,0.0,0.0,0.0,-159.06006,30.662842,169.10156
1765377150105,-0.51464844,-0.30322266,-0.8027344,-0.061035156,0.0,0.0,0.0,0.0,0.0,-159.06006,30.662842,169.10156
1765377150117,-0.51464844,-0.30322266,-0.8027344,-0.061035156,0.0,0.0,0.0,0.0,0.0,-159.04358,30.6958,169.11804
1765377150205,-0.51660156,-0.3017578,-0.8051758,0.061035156,0.0,0.0,0.0,0.0,0.0,-159.04358,30.6958,169.11804
1765377150217,-0.51660156,-0.3017578,-0.8051758,0.061035156,0.0,0.0,0.0,0.0,0.0,-159.04358,30.684814,169.12354
1765377150305,-0.515625,-0.3017578,-0.8051758,0.0,-0.061035156,0.0,0.0,0.0,0.0,-159.04358,30.684814,169.12354
1765377150316,-0.515625,-0.3017578,-0.8051758,0.0,-0.061035156,0.0,0.0,0.0,0.0,-159.0326,30.690308,169.12903
1765377150405,-0.5161133,-0.3022461,-0.8041992,-0.12207031,-0.061035156,0.0,0.0,0.0,0.0,-159.0326,30.690308,169.12903
1765377150416,-0.5161133,-0.3022461,-0.8041992,-0.12207031,-0.061035156,0.0,0.0,0.0,0.0,-159.0271,30.6958,169.13452
1765377150504,-0.51660156,-0.30126953,-0.80322266,-0.061035156,0.061035156,0.0,0.0,0.0,0.0,-159.0271,30.6958,169.13452
1765377150516,-0.51660156,-0.30126953,-0.80322266,-0.061035156,0.061035156,0.0,0.0,0.0,0.0,-159.0326,30.6958,169.13452
1765377150605,-0.51416016,-0.2993164,-0.7998047,-0.12207031,0.36621094,0.0,0.0,0.0,0.0,-159.0326,30.6958,169.13452
1765377150616,-0.51416016,-0.2993164,-0.7998047,-0.12207031,0.36621094,0.0,0.0,0.0,0.0,-159.04358,30.673828,169.12903
1765377150704,-0.5131836,-0.30419922,-0.8027344,0.24414062,-0.48828125,0.0,0.0,0.0,0.0,-159.04358,30.673828,169.12903
1765377150715,-0.5131836,-0.30419922,-0.8027344,0.24414062,-0.48828125,0.0,0.0,0.0,0.0,-159.0326,30.673828,169.12903
1765377150804,-0.5161133,-0.30371094,-0.8051758,-0.061035156,-0.061035156,0.0,0.0,0.0,0.0,-159.0326,30.673828,169.12903
1765377150815,-0.5161133,-0.30371094,-0.8051758,-0.061035156,-0.061035156,0.0,0.0,0.0,0.0,-159.03809,30.662842,169.12903
1765377150903,-0.5151367,-0.30322266,-0.80371094,-0.18310547,0.0,0.0,0.0,0.0,0.0,-159.03809,30.662842,169.12903
1765377150915,-0.5151367,-0.30322266,-0.80371094,-0.18310547,0.0,0.0,0.0,0.0,0.0,-159.0326,30.679321,169.13452
1765377151003,-0.5161133,-0.3022461,-0.8046875,0.0,0.061035156,0.0,0.0,0.0,0.0,-159.0326,30.679321,169.13452
1765377151015,-0.5161133,-0.3022461,-0.8046875,0.0,0.061035156,0.0,0.0,0.0,0.0,-159.03809,30.673828,169.13452
1765377151106,-0.515625,-0.3017578,-0.80566406,-0.18310547,0.12207031,0.0,0.0,0.0,0.0,-159.03809,30.673828,169.13452
1765377151115,-0.515625,-0.3017578,-0.80566406,-0.18310547,0.12207031,0.0,0.0,0.0,0.0,-159.04907,30.668335,169.13452
1765377151202,-0.51660156,-0.30078125,-0.80615234,-0.24414062,-0.12207031,0.0,0.0,0.0,0.0,-159.04907,30.668335,169.13452
1765377151214,-0.51660156,-0.30078125,-0.80615234,-0.24414062,-0.12207031,0.0,0.0,0.0,0.0,-159.05457,30.673828,169.13452
1765377151302,-0.5185547,-0.30517578,-0.7988281,-0.36621094,-2.1972656,0.30517578,0.0,0.0,0.0,-159.05457,30.673828,169.13452
1765377151314,-0.5185547,-0.30517578,-0.7988281,-0.36621094,-2.1972656,0.30517578,0.0,0.0,0.0,-159.06555,30.822144,169.20044
1765377151402,-0.51953125,-0.29736328,-0.80078125,0.12207031,0.8544922,-0.18310547,0.0,0.0,0.0,-159.06555,30.822144,169.20044
1765377151413,-0.51953125,-0.29736328,-0.80078125,0.12207031,0.8544922,-0.18310547,0.0,0.0,0.0,-159.09851,30.72876,169.17847
1765377151502,-0.5205078,-0.30566406,-0.80810547,0.0,0.0,-0.18310547,0.0,0.0,0.0,-159.09851,30.72876,169.17847
1765377151513,-0.5205078,-0.30566406,-0.80810547,0.0,0.0,-0.18310547,0.0,0.0,0.0,-159.08203,30.684814,169.19495
1765377151602,-0.5097656,-0.30566406,-0.8071289,0.36621094,0.9765625,-0.36621094,0.0,0.0,0.0,-159.08203,30.684814,169.19495
1765377151613,-0.5097656,-0.30566406,-0.8071289,0.36621094,0.9765625,-0.36621094,0.0,0.0,0.0,-159.11499,30.60791,169.16199
1765377151701,-0.51953125,-0.30126953,-0.8046875,-0.61035156,-0.18310547,0.24414062,0.0,0.0,0.0,-159.11499,30.60791,169.16199
1765377151713,-0.51953125,-0.30126953,-0.8046875,-0.61035156,-0.18310547,0.24414062,0.0,0.0,0.0,-159.08752,30.602417,169.12903
1765377151801,-0.51171875,-0.2998047,-0.80566406,0.7324219,0.5493164,0.0,0.0,0.0,0.0,-159.08752,30.602417,169.12903
1765377151812,-0.51171875,-0.2998047,-0.80566406,0.7324219,0.5493164,0.0,0.0,0.0,0.0,-159.09302,30.585938,169.09058
1765377151901,-0.5151367,-0.30322266,-0.80566406,-0.12207031,0.0,0.061035156,0.0,0.0,0.0,-159.09302,30.585938,169.09058
1765377151912,-0.5151367,-0.30322266,-0.80566406,-0.12207031,0.0,0.061035156,0.0,0.0,0.0,-159.07654,30.574951,169.06311
1765377152001,-0.51464844,-0.30322266,-0.80566406,0.061035156,-0.061035156,0.0,0.0,0.0,0.0,-159.07654,30.574951,169.06311
1765377152012,-0.51464844,-0.30322266,-0.80566406,0.061035156,-0.061035156,0.0,0.0,0.0,0.0,-159.04907,30.580444,169.05762
1765377152100,-0.5161133,-0.29833984,-0.8125,-0.30517578,-0.48828125,0.48828125,0.0,0.0,0.0,-159.04907,30.580444,169.05762
1765377152112,-0.5161133,-0.29833984,-0.8125,-0.30517578,-0.48828125,0.48828125,0.0,0.0,0.0,-159.07654,30.618896,169.02466
1765377152200,-0.52441406,-0.2919922,-0.79052734,-0.12207031,-4.638672,2.8076172,0.0,0.0,0.0,-159.07654,30.618896,169.02466
1765377152212,-0.52441406,-0.2919922,-0.79052734,-0.12207031,-4.638672,2.8076172,0.0,0.0,0.0,-159.04907,31.02539,168.92029
1765377152300,-0.5078125,-0.3046875,-0.8125,0.0,2.4414062,-3.2348633,0.0,0.0,0.0,-159.04907,31.02539,168.92029
1765377152311,-0.5078125,-0.3046875,-0.8125,0.0,2.4414062,-3.2348633,0.0,0.0,0.0,-159.06006,30.838623,169.0686
1765377152399,-0.5239258,-0.30664062,-0.8046875,-1.4038086,1.8310547,-4.0893555,0.0,0.0,0.0,-159.06006,30.838623,169.0686
1765377152411,-0.5239258,-0.30664062,-0.8046875,-1.4038086,1.8310547,-4.0893555,0.0,0.0,0.0,-159.01062,30.509033,169.32129
1765377152499,-0.515625,-0.32128906,-0.8232422,5.7373047,-1.4648438,-1.2817383,0.0,0.0,0.0,-159.01062,30.509033,169.32129
1765377152511,-0.515625,-0.32128906,-0.8232422,5.7373047,-1.4648438,-1.2817383,0.0,0.0,0.0,-158.97766,30.289307,169.50806
1765377152599,-0.48535156,-0.23828125,-0.7626953,-1.7700195,2.5024414,2.2583008,0.0,0.0,0.0,-158.97766,30.289307,169.50806
1765377152611,-0.48535156,-0.23828125,-0.7626953,-1.7700195,2.5024414,2.2583008,0.0,0.0,0.0,-159.05457,30.635376,169.1565
1765377152699,-0.5292969,-0.34179688,-0.82958984,-0.18310547,-0.30517578,0.79345703,0.0,0.0,0.0,-159.05457,30.635376,169.1565
1765377152710,-0.5292969,-0.34179688,-0.82958984,-0.18310547,-0.30517578,0.79345703,0.0,0.0,0.0,-159.0271,30.41565,169.29932
1765377152798,-0.5078125,-0.28857422,-0.7998047,-3.2348633,2.0751953,0.61035156,0.0,0.0,0.0,-159.0271,30.41565,169.29932
1765377152810,-0.5078125,-0.28857422,-0.7998047,-3.2348633,2.0751953,0.61035156,0.0,0.0,0.0,-159.36768,30.39917,169.05762
1765377152898,-0.50683594,-0.30078125,-0.8183594,-0.36621094,1.0986328,0.61035156,0.0,0.0,0.0,-159.36768,30.39917,169.05762
1765377152910,-0.50683594,-0.30078125,-0.8183594,-0.36621094,1.0986328,0.61035156,0.0,0.0,0.0,-159.52148,30.245361,168.94226
1765377152998,-0.5136719,-0.29492188,-0.81396484,-0.36621094,1.159668,0.061035156,0.0,0.0,0.0,-159.52148,30.245361,168.94226
1765377153009,-0.5136719,-0.29492188,-0.81396484,-0.36621094,1.159668,0.061035156,0.0,0.0,0.0,-159.69177,30.201416,168.79944
1765377153098,-0.5004883,-0.28271484,-0.81103516,-1.4648438,1.7700195,0.48828125,0.0,0.0,0.0,-159.69177,30.201416,168.79944
1765377153109,-0.5004883,-0.28271484,-0.81103516,-1.4648438,1.7700195,0.48828125,0.0,0.0,0.0,-159.87305,30.119019,168.63464
1765377153197,-0.5107422,-0.29248047,-0.8144531,0.9765625,-0.61035156,-0.061035156,0.0,0.0,0.0,-159.87305,30.119019,168.63464
1765377153209,-0.5107422,-0.29248047,-0.8144531,0.9765625,-0.61035156,-0.061035156,0.0,0.0,0.0,-159.91699,30.047607,168.5852
1765377153297,-0.50146484,-0.29296875,-0.8149414,0.4272461,-0.4272461,-0.061035156,0.0,0.0,0.0,-159.91699,30.047607,168.5852
1765377153308,-0.50146484,-0.29296875,-0.8149414,0.4272461,-0.4272461,-0.061035156,0.0,0.0,0.0,-159.86206,30.119019,168.59619
1765377153397,-0.51220703,-0.29052734,-0.8129883,0.18310547,-0.48828125,-0.36621094,0.0,0.0,0.0,-159.86206,30.119019,168.59619
1765377153408,-0.51220703,-0.29052734,-0.8129883,0.18310547,-0.48828125,-0.36621094,0.0,0.0,0.0,-159.78516,30.130005,168.57971
1765377153497,-0.50439453,-0.296875,-0.8144531,1.7089844,-0.5493164,-1.0986328,0.0,0.0,0.0,-159.78516,30.130005,168.57971
1765377153508,-0.50439453,-0.296875,-0.8144531,1.7089844,-0.5493164,-1.0986328,0.0,0.0,0.0,-159.64233,30.15747,168.6676
1765377153596,-0.5078125,-0.29101562,-0.8041992,0.18310547,0.4272461,-0.12207031,0.0,0.0,0.0,-159.64233,30.15747,168.6676
1765377153608,-0.5078125,-0.29101562,-0.8041992,0.18310547,0.4272461,-0.12207031,0.0,0.0,0.0,-159.53247,30.195923,168.69507
1765377153696,-0.51123047,-0.30517578,-0.8183594,1.0986328,-1.0375977,-1.159668,0.0,0.0,0.0,-159.53247,30.195923,168.69507
1765377153707,-0.51123047,-0.30517578,-0.8183594,1.0986328,-1.0375977,-1.159668,0.0,0.0,0.0,-159.4226,30.201416,168.73901
1765377153796,-0.51220703,-0.296875,-0.81152344,0.30517578,-0.12207031,0.30517578,0.0,0.0,0.0,-159.4226,30.201416,168.73901
1765377153807,-0.51220703,-0.296875,-0.81152344,0.30517578,-0.12207031,0.30517578,0.0,0.0,0.0,-159.2633,30.250854,168.81592
1765377153895,-0.5083008,-0.30029297,-0.80615234,0.7324219,-0.6713867,-0.7324219,0.0,0.0,0.0,-159.2633,30.250854,168.81592
1765377153907,-0.5083008,-0.30029297,-0.80615234,0.7324219,-0.6713867,-0.7324219,0.0,0.0,0.0,-159.27429,30.316772,168.78845
1765377153995,-0.51171875,-0.30566406,-0.8125,0.0,0.12207031,-0.18310547,0.0,0.0,0.0,-159.27429,30.316772,168.78845
1765377154007,-0.51171875,-0.30566406,-0.8125,0.0,0.12207031,-0.18310547,0.0,0.0,0.0,-159.15894,30.316772,168.85986
1765377154095,-0.5078125,-0.29736328,-0.80371094,0.8544922,-0.24414062,-0.18310547,0.0,0.0,0.0,-159.15894,30.316772,168.85986
1765377154106,-0.5078125,-0.29736328,-0.80371094,0.8544922,-0.24414062,-0.18310547,0.0,0.0,0.0,-159.1095,30.327759,168.83789
1765377154195,-0.5136719,-0.30908203,-0.8095703,0.18310547,-0.61035156,0.0,0.0,0.0,0.0,-159.1095,30.327759,168.83789
1765377154206,-0.5136719,-0.30908203,-0.8095703,0.18310547,-0.61035156,0.0,0.0,0.0,0.0,-159.01062,30.360718,168.87085
1765377154294,-0.5102539,-0.3017578,-0.80371094,0.4272461,-0.061035156,0.0,0.0,0.0,0.0,-159.01062,30.360718,168.87085
1765377154306,-0.5102539,-0.3017578,-0.80371094,0.4272461,-0.061035156,0.0,0.0,0.0,0.0,-158.99414,30.377197,168.86536
1765377154394,-0.51220703,-0.30566406,-0.8046875,0.18310547,0.24414062,-0.061035156,0.0,0.0,0.0,-158.99414,30.377197,168.86536
1765377154406,-0.51220703,-0.30566406,-0.8046875,0.18310547,0.24414062,-0.061035156,0.0,0.0,0.0,-158.93921,30.355225,168.86536
1765377154494,-0.5107422,-0.30615234,-0.80322266,0.79345703,-1.159668,0.0,0.0,0.0,0.0,-158.93921,30.355225,168.86536
1765377154505,-0.5107422,-0.30615234,-0.80322266,0.79345703,-1.159668,0.0,0.0,0.0,0.0,-158.88977,30.360718,168.88184
1765377154593,-0.5126953,-0.30810547,-0.8071289,0.24414062,-0.12207031,0.0,0.0,0.0,0.0,-158.88977,30.360718,168.88184
1765377154605,-0.5126953,-0.30810547,-0.8071289,0.24414062,-0.12207031,0.0,0.0,0.0,0.0,-158.82385,30.393677,168.90381
1765377154693,-0.51171875,-0.3071289,-0.8041992,-0.061035156,-0.24414062,0.0,0.0,0.0,0.0,-158.82385,30.393677,168.90381
1765377154705,-0.51171875,-0.3071289,-0.8041992,-0.061035156,-0.24414062,0.0,0.0,0.0,0.0,-158.80188,30.41565,168.92029
1765377154793,-0.5131836,-0.30908203,-0.80566406,0.18310547,-0.061035156,0.0,0.0,0.0,0.0,-158.80188,30.41565,168.92029
1765377154804,-0.5131836,-0.30908203,-0.80566406,0.18310547,-0.061035156,0.0,0.0,0.0,0.0,-158.7854,30.41565,168.92578
1765377154893,-0.5136719,-0.30810547,-0.80810547,0.0,-0.36621094,0.0,0.0,0.0,0.0,-158.7854,30.41565,168.92578
1765377154904,-0.5136719,-0.30810547,-0.80810547,0.0,-0.36621094,0.0,0.0,0.0,0.0,-158.76343,30.432129,168.94226
1765377154992,-0.515625,-0.3095703,-0.8066406,-0.48828125,0.0,0.0,0.0,0.0,0.0,-158.76343,30.432129,168.94226
1765377155004,-0.515625,-0.3095703,-0.8066406,-0.48828125,0.0,0.0,0.0,0.0,0.0,-158.74695,30.476074,168.96973
1765377155092,-0.5131836,-0.30615234,-0.80322266,-1.159668,0.9765625,0.36621094,0.0,0.0,0.0,-158.74695,30.476074,168.96973
1765377155104,-0.5131836,-0.30615234,-0.80322266,-1.159668,0.9765625,0.36621094,0.0,0.0,0.0,-158.82935,30.476074,168.95874
1765377155192,-0.515625,-0.3046875,-0.8095703,-1.2207031,0.7324219,0.24414062,0.0,0.0,0.0,-158.82935,30.476074,168.95874
1765377155203,-0.515625,-0.3046875,-0.8095703,-1.2207031,0.7324219,0.24414062,0.0,0.0,0.0,-158.9447,30.421143,168.89282
1765377155292,-0.51220703,-0.30078125,-0.80615234,-0.91552734,0.4272461,0.4272461,0.0,0.0,0.0,-158.9447,30.421143,168.89282
1765377155303,-0.51220703,-0.30078125,-0.80615234,-0.91552734,0.4272461,0.4272461,0.0,0.0,0.0,-159.04358,30.41565,168.84888
1765377155391,-0.5131836,-0.30322266,-0.80859375,-1.2207031,0.6713867,0.36621094,0.0,0.0,0.0,-159.04358,30.41565,168.84888
1765377155403,-0.5131836,-0.30322266,-0.80859375,-1.2207031,0.6713867,0.36621094,0.0,0.0,0.0,-159.17542,30.38269,168.78845
1765377155491,-0.51123047,-0.29492188,-0.8071289,-1.4038086,0.91552734,0.61035156,0.0,0.0,0.0,-159.17542,30.38269,168.78845
1765377155502,-0.51123047,-0.29492188,-0.8071289,-1.4038086,0.91552734,0.61035156,0.0,0.0,0.0,-159.3457,30.338745,168.67859
1765377155591,-0.5102539,-0.30029297,-0.8120117,-0.48828125,1.0375977,0.30517578,0.0,0.0,0.0,-159.3457,30.338745,168.67859
1765377155602,-0.5102539,-0.30029297,-0.8120117,-0.48828125,1.0375977,0.30517578,0.0,0.0,0.0,-159.45007,30.26184,168.63464
1765377155690,-0.50683594,-0.29492188,-0.81103516,-1.0986328,0.8544922,0.36621094,0.0,0.0,0.0,-159.45007,30.26184,168.63464
1765377155702,-0.50683594,-0.29492188,-0.81103516,-1.0986328,0.8544922,0.36621094,0.0,0.0,0.0,-159.57092,30.20691,168.56323
1765377155790,-0.5102539,-0.29492188,-0.81152344,0.0,0.12207031,0.18310547,0.0,0.0,0.0,-159.57092,30.20691,168.56323
1765377155802,-0.5102539,-0.29492188,-0.81152344,0.0,0.12207031,0.18310547,0.0,0.0,0.0,-159.63135,30.168457,168.53577
1765377155890,-0.5058594,-0.29492188,-0.81103516,0.8544922,0.12207031,0.061035156,0.0,0.0,0.0,-159.63135,30.168457,168.53577
