timestamp,accX,accY,accZ,gyroX,gyroY,gyroZ,magX,magY,magZ,roll,pitch,yaw
1769247730564,-0.9326172,-0.36572266,0.10498047,-0.12207031,2.9907227,2.1972656,0.0,0.0,0.0,-73.76221,67.16492,172.90283
1769247730575,-0.9326172,-0.36572266,0.10498047,-0.12207031,2.9907227,2.1972656,0.0,0.0,0.0,-74.229126,67.423096,172.34253
1769247730664,-0.92578125,-0.36914062,0.099609375,-0.79345703,6.652832,1.7700195,0.0,0.0,0.0,-74.229126,67.423096,172.34253
1769247730675,-0.92578125,-0.36914062,0.099609375,-0.79345703,6.652832,1.7700195,0.0,0.0,0.0,-75.338745,67.7417,170.78796
1769247730764,-0.92529297,-0.35351562,0.07373047,-1.3427734,2.380371,1.2817383,0.0,0.0,0.0,-75.338745,67.7417,170.78796
1769247730775,-0.92529297,-0.35351562,0.07373047,-1.3427734,2.380371,1.2817383,0.0,0.0,0.0,-76.35498,67.94495,169.5575
1769247730864,-0.92333984,-0.36328125,0.08496094,-1.5869141,-1.0986328,0.7324219,0.0,0.0,0.0,-76.35498,67.94495,169.5575
1769247730875,-0.92333984,-0.36328125,0.08496094,-1.5869141,-1.0986328,0.7324219,0.0,0.0,0.0,-76.61316,68.10974,169.29382
1769247730963,-0.93066406,-0.3569336,0.07519531,0.12207031,-1.953125,0.36621094,0.0,0.0,0.0,-76.61316,68.10974,169.29382
1769247730977,-0.93066406,-0.3569336,0.07519531,0.12207031,-1.953125,0.36621094,0.0,0.0,0.0,-76.36597,68.08777,169.43665
1769247731062,-0.9267578,-0.3544922,0.099609375,0.8544922,-1.7700195,0.12207031,0.0,0.0,0.0,-76.36597,68.08777,169.43665
1769247731074,-0.9267578,-0.3544922,0.099609375,0.8544922,-1.7700195,0.12207031,0.0,0.0,0.0,-75.8551,68.065796,169.77173
1769247731162,-0.93115234,-0.36621094,0.1015625,1.8310547,1.5258789,0.0,0.0,0.0,0.0,-75.8551,68.065796,169.77173
1769247731173,-0.93115234,-0.36621094,0.1015625,1.8310547,1.5258789,0.0,0.0,0.0,0.0,-75.47058,68.03833,169.76074
1769247731262,-0.93115234,-0.36083984,0.08300781,-1.0986328,3.9672852,0.12207031,0.0,0.0,0.0,-75.47058,68.03833,169.76074
1769247731273,-0.93115234,-0.36083984,0.08300781,-1.0986328,3.9672852,0.12207031,0.0,0.0,0.0,-76.21216,68.098755,168.71704
1769247731361,-0.9267578,-0.3544922,0.08154297,-1.2817383,0.36621094,0.12207031,0.0,0.0,0.0,-76.21216,68.098755,168.71704
1769247731373,-0.9267578,-0.3544922,0.08154297,-1.2817383,0.36621094,0.12207031,0.0,0.0,0.0,-76.84387,68.19214,168.06335
1769247731461,-0.9321289,-0.3544922,0.07470703,0.0,0.061035156,-0.4272461,0.0,0.0,0.0,-76.84387,68.19214,168.06335
1769247731473,-0.9321289,-0.3544922,0.07470703,0.0,0.061035156,-0.4272461,0.0,0.0,0.0,-76.953735,68.17566,167.89856
1769247731561,-0.93066406,-0.36376953,0.080566406,0.0,0.48828125,-0.36621094,0.0,0.0,0.0,-76.953735,68.17566,167.89856
1769247731572,-0.93066406,-0.36376953,0.080566406,0.0,0.48828125,-0.36621094,0.0,0.0,0.0,-77.03613,68.15369,167.67883
1769247731660,-0.93066406,-0.35839844,0.08203125,1.3427734,2.380371,-0.18310547,0.0,0.0,0.0,-77.03613,68.15369,167.67883
1769247731672,-0.93066406,-0.35839844,0.08203125,1.3427734,2.380371,-0.18310547,0.0,0.0,0.0,-77.24487,68.131714,167.31079
1769247731760,-0.9267578,-0.35742188,0.071777344,-0.4272461,1.0986328,-0.48828125,0.0,0.0,0.0,-77.24487,68.131714,167.31079
1769247731772,-0.9267578,-0.35742188,0.071777344,-0.4272461,1.0986328,-0.48828125,0.0,0.0,0.0,-77.61841,68.15918,166.78894
1769247731860,-0.92822266,-0.36132812,0.072753906,0.36621094,0.48828125,-0.18310547,0.0,0.0,0.0,-77.61841,68.15918,166.78894
1769247731872,-0.92822266,-0.36132812,0.072753906,0.36621094,0.48828125,-0.18310547,0.0,0.0,0.0,-77.821655,68.13721,166.4978
1769247731960,-0.9345703,-0.36279297,0.076171875,1.8920898,2.6855469,0.0,0.0,0.0,0.0,-77.821655,68.13721,166.4978
1769247731971,-0.9345703,-0.36279297,0.076171875,1.8920898,2.6855469,0.0,0.0,0.0,0.0,-78.0249,68.15918,166.03638
1769247732059,-0.9379883,-0.35839844,0.08886719,0.6713867,4.3945312,1.2207031,0.0,0.0,0.0,-78.0249,68.15918,166.03638
1769247732071,-0.9379883,-0.35839844,0.08886719,0.6713867,4.3945312,1.2207031,0.0,0.0,0.0,-78.777466,68.28003,164.94324
1769247732159,-0.93115234,-0.3569336,0.048828125,-1.2817383,5.6762695,-0.6713867,0.0,0.0,0.0,-78.777466,68.28003,164.94324
1769247732171,-0.93115234,-0.3569336,0.048828125,-1.2817383,5.6762695,-0.6713867,0.0,0.0,0.0,-80.05737,68.42285,163.526
1769247732259,-0.92578125,-0.359375,0.048828125,-1.8310547,1.953125,1.0986328,0.0,0.0,0.0,-80.05737,68.42285,163.526
1769247732270,-0.92578125,-0.359375,0.048828125,-1.8310547,1.953125,1.0986328,0.0,0.0,0.0,-81.35376,68.49426,162.20764
1769247732359,-0.93408203,-0.3544922,0.040527344,0.5493164,0.18310547,0.0,0.0,0.0,0.0,-81.35376,68.49426,162.20764
1769247732370,-0.93408203,-0.3544922,0.040527344,0.5493164,0.18310547,0.0,0.0,0.0,0.0,-81.71631,68.532715,161.81763
1769247732458,-0.92871094,-0.35498047,0.041503906,0.79345703,-1.4648438,0.61035156,0.0,0.0,0.0,-81.71631,68.532715,161.81763
1769247732470,-0.92871094,-0.35498047,0.041503906,0.79345703,-1.4648438,0.61035156,0.0,0.0,0.0,-81.589966,68.604126,161.82861
1769247732558,-0.94921875,-0.35058594,0.013183594,8.178711,-5.432129,-2.746582,0.0,0.0,0.0,-81.589966,68.604126,161.82861
1769247732569,-0.94921875,-0.35058594,0.013183594,8.178711,-5.432129,-2.746582,0.0,0.0,0.0,-80.63965,68.41736,162.3999
1769247732658,-0.9223633,-0.3935547,0.15917969,10.437012,-14.526367,-3.6621094,0.0,0.0,0.0,-80.63965,68.41736,162.3999
1769247732669,-0.9223633,-0.3935547,0.15917969,10.437012,-14.526367,-3.6621094,0.0,0.0,0.0,-77.684326,67.961426,164.42139
1769247732757,-0.95654297,-0.32226562,0.05810547,-1.2817383,2.0751953,-5.126953,0.0,0.0,0.0,-77.684326,67.961426,164.42139
1769247732770,-0.95654297,-0.32226562,0.05810547,-1.2817383,2.0751953,-5.126953,0.0,0.0,0.0,-76.118774,67.7417,165.75623
1769247732857,-0.92041016,-0.39013672,0.036132812,-1.159668,10.620117,13.85498,0.0,0.0,0.0,-76.118774,67.7417,165.75623
1769247732869,-0.92041016,-0.39013672,0.036132812,-1.159668,10.620117,13.85498,0.0,0.0,0.0,-78.06885,68.14819,164.0039
1769247732957,-0.9165039,-0.37304688,0.12646484,-11.169434,-5.6762695,5.859375,0.0,0.0,0.0,-78.06885,68.14819,164.0039
1769247732968,-0.9165039,-0.37304688,0.12646484,-11.169434,-5.6762695,5.859375,0.0,0.0,0.0,-75.94299,69.32373,167.04712
1769247733057,-0.96972656,-0.3569336,0.013671875,-2.6855469,17.822266,1.6479492,0.0,0.0,0.0,-75.94299,69.32373,167.04712
1769247733068,-0.96972656,-0.3569336,0.013671875,-2.6855469,17.822266,1.6479492,0.0,0.0,0.0,-80.9198,69.77966,162.00989
1769247733156,-0.9223633,-0.32470703,0.028808594,8.850098,13.916016,4.9438477,0.0,0.0,0.0,-80.9198,69.77966,162.00989
1769247733168,-0.9223633,-0.32470703,0.028808594,8.850098,13.916016,4.9438477,0.0,0.0,0.0,-84.63867,70.35095,157.29126
1769247733256,-0.92285156,-0.32958984,0.015136719,-7.019043,6.286621,4.0893555,0.0,0.0,0.0,-84.63867,70.35095,157.29126
1769247733267,-0.92285156,-0.32958984,0.015136719,-7.019043,6.286621,4.0893555,0.0,0.0,0.0,-87.06116,70.97168,154.57764
1769247733356,-0.9667969,-0.3076172,-0.015625,-9.82666,-0.91552734,0.7324219,0.0,0.0,0.0,-87.06116,70.97168,154.57764
1769247733367,-0.9667969,-0.3076172,-0.015625,-9.82666,-0.91552734,0.7324219,0.0,0.0,0.0,-87.98401,71.1145,154.56665
1769247733455,-0.94189453,-0.30322266,0.0,-3.112793,-7.080078,-3.2348633,0.0,0.0,0.0,-87.98401,71.1145,154.56665
1769247733467,-0.94189453,-0.30322266,0.0,-3.112793,-7.080078,-3.2348633,0.0,0.0,0.0,-87.62695,70.9552,155.54993
1769247733555,-0.9458008,-0.31396484,0.0073242188,2.0141602,-7.751465,-1.8920898,0.0,0.0,0.0,-87.62695,70.9552,155.54993
1769247733567,-0.9458008,-0.31396484,0.0073242188,2.0141602,-7.751465,-1.8920898,0.0,0.0,0.0,-85.424194,70.65857,157.95044
1769247733655,-0.9370117,-0.34179688,0.04248047,6.7749023,-3.0517578,-2.8686523,0.0,0.0,0.0,-85.424194,70.65857,157.95044
1769247733667,-0.9370117,-0.34179688,0.04248047,6.7749023,-3.0517578,-2.8686523,0.0,0.0,0.0,-83.90259,70.52673,158.99963
1769247733755,-0.9472656,-0.3413086,0.044433594,3.6621094,-1.8310547,0.5493164,0.0,0.0,0.0,-83.90259,70.52673,158.99963
1769247733766,-0.9472656,-0.3413086,0.044433594,3.6621094,-1.8310547,0.5493164,0.0,0.0,0.0,-82.79297,70.29053,159.60388
1769247733854,-0.9477539,-0.3203125,0.048828125,-3.2958984,0.79345703,0.79345703,0.0,0.0,0.0,-82.79297,70.29053,159.60388
1769247733866,-0.9477539,-0.3203125,0.048828125,-3.2958984,0.79345703,0.79345703,0.0,0.0,0.0,-82.787476,70.48279,159.7467
1769247733956,-0.96191406,-0.32128906,0.020996094,1.8310547,2.1972656,-2.1362305,0.0,0.0,0.0,-82.787476,70.48279,159.7467
1769247733966,-0.96191406,-0.32128906,0.020996094,1.8310547,2.1972656,-2.1362305,0.0,0.0,0.0,-83.430176,70.36194,159.23035
1769247734054,-0.9433594,-0.32666016,0.018554688,7.5683594,4.4555664,-0.18310547,0.0,0.0,0.0,-83.430176,70.36194,159.23035
1769247734065,-0.9433594,-0.32666016,0.018554688,7.5683594,4.4555664,-0.18310547,0.0,0.0,0.0,-83.984985,70.37842,158.15369
1769247734153,-0.94091797,-0.3388672,0.045410156,9.033203,5.126953,-0.18310547,0.0,0.0,0.0,-83.984985,70.37842,158.15369
1769247734165,-0.94091797,-0.3388672,0.045410156,9.033203,5.126953,-0.18310547,0.0,0.0,0.0,-84.6167,70.36194,156.51672
1769247734253,-0.9355469,-0.33496094,0.016601562,-1.4648438,2.9296875,-0.61035156,0.0,0.0,0.0,-84.6167,70.36194,156.51672
1769247734264,-0.9355469,-0.33496094,0.016601562,-1.4648438,2.9296875,-0.61035156,0.0,0.0,0.0,-85.55054,70.36194,155.27527
1769247734353,-0.9458008,-0.32470703,-0.00390625,-2.6855469,-4.272461,-1.4038086,0.0,0.0,0.0,-85.55054,70.36194,155.27527
1769247734364,-0.9458008,-0.32470703,-0.00390625,-2.6855469,-4.272461,-1.4038086,0.0,0.0,0.0,-85.9021,70.32349,155.28076
1769247734453,-0.93408203,-0.31591797,0.04248047,-6.225586,-2.380371,-0.18310547,0.0,0.0,0.0,-85.9021,70.32349,155.28076
1769247734464,-0.93408203,-0.31591797,0.04248047,-6.225586,-2.380371,-0.18310547,0.0,0.0,0.0,-85.149536,70.17517,156.55518
1769247734552,-0.94921875,-0.3408203,0.021484375,-4.0893555,-0.12207031,-1.4648438,0.0,0.0,0.0,-85.149536,70.17517,156.55518
1769247734564,-0.94921875,-0.3408203,0.021484375,-4.0893555,-0.12207031,-1.4648438,0.0,0.0,0.0,-85.28137,70.12024,156.97266
1769247734652,-0.94433594,-0.3095703,0.04296875,0.61035156,1.4648438,-2.0751953,0.0,0.0,0.0,-85.28137,70.12024,156.97266
1769247734664,-0.94433594,-0.3095703,0.04296875,0.61035156,1.4648438,-2.0751953,0.0,0.0,0.0,-85.52307,69.90051,156.82983
1769247734758,-0.94433594,-0.34814453,0.014160156,-0.24414062,-0.91552734,-1.7089844,0.0,0.0,0.0,-85.52307,69.90051,156.82983
1769247734764,-0.94433594,-0.34814453,0.014160156,-0.24414062,-0.91552734,-1.7089844,0.0,0.0,0.0,-85.0177,69.75769,157.41211
1769247734852,-0.9394531,-0.35009766,0.025878906,0.36621094,-7.019043,-0.30517578,0.0,0.0,0.0,-85.0177,69.75769,157.41211
1769247734863,-0.9394531,-0.35009766,0.025878906,0.36621094,-7.019043,-0.30517578,0.0,0.0,0.0,-84.16626,69.56543,158.39539
1769247734951,-0.93847656,-0.35205078,0.048828125,-4.5776367,-5.859375,-3.0517578,0.0,0.0,0.0,-84.16626,69.56543,158.39539
1769247734963,-0.93847656,-0.35205078,0.048828125,-4.5776367,-5.859375,-3.0517578,0.0,0.0,0.0,-82.81494,69.36218,160.0708
1769247735051,-0.94189453,-0.34814453,0.04248047,-5.6762695,-6.225586,-3.4179688,0.0,0.0,0.0,-82.81494,69.36218,160.0708
1769247735062,-0.94189453,-0.34814453,0.04248047,-5.6762695,-6.225586,-3.4179688,0.0,0.0,0.0,-81.798706,68.95569,161.70776
1769247735150,-0.9316406,-0.35107422,0.05810547,0.9765625,-1.7089844,-2.0751953,0.0,0.0,0.0,-81.798706,68.95569,161.70776
1769247735162,-0.9316406,-0.35107422,0.05810547,0.9765625,-1.7089844,-2.0751953,0.0,0.0,0.0,-81.09009,68.63159,162.70203
1769247735250,-0.9355469,-0.35498047,0.057617188,2.9907227,2.9907227,-2.6855469,0.0,0.0,0.0,-81.09009,68.63159,162.70203
1769247735262,-0.9355469,-0.35498047,0.057617188,2.9907227,2.9907227,-2.6855469,0.0,0.0,0.0,-81.172485,68.411865,162.39441
1769247735350,-0.91845703,-0.35888672,0.056640625,3.3569336,7.446289,-2.1972656,0.0,0.0,0.0,-81.172485,68.411865,162.39441
1769247735361,-0.91845703,-0.35888672,0.056640625,3.3569336,7.446289,-2.1972656,0.0,0.0,0.0,-82.0459,68.323975,161.10901
1769247735449,-0.92089844,-0.37646484,0.01171875,4.760742,11.413574,4.211426,0.0,0.0,0.0,-82.0459,68.323975,161.10901
1769247735461,-0.92089844,-0.37646484,0.01171875,4.760742,11.413574,4.211426,0.0,0.0,0.0,-83.82019,68.428345,158.80737
1769247735549,-0.9448242,-0.3256836,0.025390625,9.216309,5.6762695,9.521484,0.0,0.0,0.0,-83.82019,68.428345,158.80737
1769247735561,-0.9448242,-0.3256836,0.025390625,9.216309,5.6762695,9.521484,0.0,0.0,0.0,-85.13306,69.09302,156.51672
1769247735649,-0.9423828,-0.328125,0.053710938,22.033691,17.578125,12.084961,0.0,0.0,0.0,-85.13306,69.09302,156.51672
1769247735660,-0.9423828,-0.328125,0.053710938,22.033691,17.578125,12.084961,0.0,0.0,0.0,-85.79224,70.02136,153.69324
1769247735748,-0.98535156,-0.30664062,0.0073242188,9.277344,21.362305,24.108887,0.0,0.0,0.0,-85.79224,70.02136,153.69324
1769247735760,-0.98535156,-0.30664062,0.0073242188,9.277344,21.362305,24.108887,0.0,0.0,0.0,-89.99451,71.916504,147.82104
1769247735848,-0.9638672,-0.31152344,-0.03564453,7.9345703,17.578125,16.601562,0.0,0.0,0.0,-89.99451,71.916504,147.82104
1769247735860,-0.9638672,-0.31152344,-0.03564453,7.9345703,17.578125,16.601562,0.0,0.0,0.0,-95.701904,73.85559,140.9436
1769247735948,-0.97802734,-0.21875,-0.064453125,16.662598,12.084961,11.657715,0.0,0.0,0.0,-95.701904,73.85559,140.9436
1769247735959,-0.97802734,-0.21875,-0.064453125,16.662598,12.084961,11.657715,0.0,0.0,0.0,-100.788574,74.49829,134.93958
1769247736048,-0.96875,-0.26171875,-0.052734375,11.413574,15.258789,2.9907227,0.0,0.0,0.0,-100.788574,74.49829,134.93958
1769247736059,-0.96875,-0.26171875,-0.052734375,11.413574,15.258789,2.9907227,0.0,0.0,0.0,-104.331665,75.04761,130.24841
1769247736147,-0.94873047,-0.24707031,-0.099121094,3.6010742,5.065918,-0.8544922,0.0,0.0,0.0,-104.331665,75.04761,130.24841
1769247736159,-0.94873047,-0.24707031,-0.099121094,3.6010742,5.065918,-0.8544922,0.0,0.0,0.0,-107.33093,74.98718,127.161255
1769247736247,-0.94970703,-0.23339844,-0.10546875,2.746582,4.699707,0.24414062,0.0,0.0,0.0,-107.33093,74.98718,127.161255
1769247736258,-0.94970703,-0.23339844,-0.10546875,2.746582,4.699707,0.24414062,0.0,0.0,0.0,-108.42407,74.937744,126.205444
1769247736347,-0.92089844,-0.2475586,-0.10839844,-21.118164,-10.253906,14.343262,0.0,0.0,0.0,-108.42407,74.937744,126.205444
1769247736358,-0.92089844,-0.2475586,-0.10839844,-21.118164,-10.253906,14.343262,0.0,0.0,0.0,-108.847046,74.800415,126.606445
1769247736446,-0.9716797,-0.23144531,-0.104003906,-11.169434,-5.6762695,-1.2817383,0.0,0.0,0.0,-108.847046,74.800415,126.606445
1769247736458,-0.9716797,-0.23144531,-0.104003906,-11.169434,-5.6762695,-1.2817383,0.0,0.0,0.0,-107.29248,76.06384,129.28711
1769247736546,-0.9682617,-0.22216797,-0.076171875,-10.131836,-9.887695,2.9907227,0.0,0.0,0.0,-107.29248,76.06384,129.28711
1769247736558,-0.9682617,-0.22216797,-0.076171875,-10.131836,-9.887695,2.9907227,0.0,0.0,0.0,-106.051025,76.46484,131.92383
1769247736646,-1.0004883,-0.20019531,-0.0546875,-3.3569336,-10.681152,3.112793,0.0,0.0,0.0,-106.051025,76.46484,131.92383
1769247736657,-1.0004883,-0.20019531,-0.0546875,-3.3569336,-10.681152,3.112793,0.0,0.0,0.0,-103.02429,77.01965,135.99426
1769247736745,-0.9926758,-0.21533203,-0.023925781,-2.319336,-1.3427734,4.4555664,0.0,0.0,0.0,-103.02429,77.01965,135.99426
1769247736757,-0.9926758,-0.21533203,-0.023925781,-2.319336,-1.3427734,4.4555664,0.0,0.0,0.0,-102.00806,77.57446,137.43347
1769247736845,-0.97265625,-0.16699219,-0.049804688,-4.0283203,1.5869141,1.6479492,0.0,0.0,0.0,-102.00806,77.57446,137.43347
1769247736857,-0.97265625,-0.16699219,-0.049804688,-4.0283203,1.5869141,1.6479492,0.0,0.0,0.0,-102.11792,77.821655,138.27942
1769247736945,-0.97753906,-0.17285156,-0.03466797,0.4272461,-0.7324219,1.2207031,0.0,0.0,0.0,-102.11792,77.821655,138.27942
1769247736956,-0.97753906,-0.17285156,-0.03466797,0.4272461,-0.7324219,1.2207031,0.0,0.0,0.0,-102.354126,78.118286,138.6914
1769247737047,-1.0117188,-0.17871094,-0.03125,-6.4086914,4.5166016,7.080078,0.0,0.0,0.0,-102.354126,78.118286,138.6914
1769247737056,-1.0117188,-0.17871094,-0.03125,-6.4086914,4.5166016,7.080078,0.0,0.0,0.0,-104.20532,78.497314,137.29065
1769247737144,-0.9916992,-0.14550781,-0.076171875,-2.1972656,9.643555,1.4038086,0.0,0.0,0.0,-104.20532,78.497314,137.29065
1769247737157,-0.9916992,-0.14550781,-0.076171875,-2.1972656,9.643555,1.4038086,0.0,0.0,0.0,-108.81958,78.65662,133.396
1769247737245,-1.0053711,-0.20117188,-0.08300781,4.8217773,6.225586,8.422852,0.0,0.0,0.0,-108.81958,78.65662,133.396
1769247737256,-1.0053711,-0.20117188,-0.08300781,4.8217773,6.225586,8.422852,0.0,0.0,0.0,-112.56592,78.69507,129.35303
1769247737344,-0.96875,-0.1328125,-0.084472656,8.911133,1.6479492,10.7421875,0.0,0.0,0.0,-112.56592,78.69507,129.35303
1769247737355,-0.96875,-0.1328125,-0.084472656,8.911133,1.6479492,10.7421875,0.0,0.0,0.0,-114.68628,79.65637,126.727295
1769247737444,-1.012207,-0.076171875,-0.07373047,19.958496,12.756348,12.634277,0.0,0.0,0.0,-114.68628,79.65637,126.727295
1769247737455,-1.012207,-0.076171875,-0.07373047,19.958496,12.756348,12.634277,0.0,0.0,0.0,-122.00867,80.5957,117.81738
1769247737543,-0.9682617,-0.10107422,-0.10449219,13.366699,13.305664,9.70459,0.0,0.0,0.0,-122.00867,80.5957,117.81738
1769247737554,-0.9682617,-0.10107422,-0.10449219,13.366699,13.305664,9.70459,0.0,0.0,0.0,-130.11658,80.64514,108.17139
1769247737643,-0.9770508,-0.1303711,-0.10498047,3.2348633,-1.8310547,8.056641,0.0,0.0,0.0,-130.11658,80.64514,108.17139
1769247737654,-0.9770508,-0.1303711,-0.10498047,3.2348633,-1.8310547,8.056641,0.0,0.0,0.0,-134.25842,81.188965,103.43628
1769247737742,-1.0087891,-0.10498047,-0.103027344,7.080078,-5.126953,0.18310547,0.0,0.0,0.0,-134.25842,81.188965,103.43628
1769247737754,-1.0087891,-0.10498047,-0.103027344,7.080078,-5.126953,0.18310547,0.0,0.0,0.0,-133.35754,81.85364,104.32617
1769247737842,-0.98046875,-0.096191406,-0.09277344,0.6713867,4.0283203,-4.0893555,0.0,0.0,0.0,-133.35754,81.85364,104.32617
1769247737854,-0.98046875,-0.096191406,-0.09277344,0.6713867,4.0283203,-4.0893555,0.0,0.0,0.0,-131.85791,81.381226,105.41382
1769247737942,-0.98779297,-0.11230469,-0.118652344,-1.7700195,-3.4179688,-1.953125,0.0,0.0,0.0,-131.85791,81.381226,105.41382
1769247737953,-0.98779297,-0.11230469,-0.118652344,-1.7700195,-3.4179688,-1.953125,0.0,0.0,0.0,-130.94055,81.260376,106.68274
1769247738042,-0.9824219,-0.104003906,-0.099121094,-1.8310547,-3.4179688,0.30517578,0.0,0.0,0.0,-130.94055,81.260376,106.68274
1769247738053,-0.9824219,-0.104003906,-0.099121094,-1.8310547,-3.4179688,0.30517578,0.0,0.0,0.0,-129.375,81.31531,108.58887
1769247738141,-0.9868164,-0.09375,-0.10498047,-4.5166016,-1.8310547,0.5493164,0.0,0.0,0.0,-129.375,81.31531,108.58887
1769247738153,-0.9868164,-0.09375,-0.10498047,-4.5166016,-1.8310547,0.5493164,0.0,0.0,0.0,-128.66089,81.49658,109.764404
1769247738241,-0.9975586,-0.10058594,-0.092285156,-0.4272461,-2.1362305,1.953125,0.0,0.0,0.0,-128.66089,81.49658,109.764404
1769247738252,-0.9975586,-0.10058594,-0.092285156,-0.4272461,-2.1362305,1.953125,0.0,0.0,0.0,-128.60596,81.710815,110.08301
1769247738340,-0.9765625,-0.09765625,-0.09326172,-0.48828125,-1.0986328,1.8310547,0.0,0.0,0.0,-128.60596,81.710815,110.08301
1769247738362,-0.9765625,-0.09765625,-0.09326172,-0.48828125,-1.0986328,1.8310547,0.0,0.0,0.0,-129.08936,81.97998,109.83032
1769247738440,-0.9970703,-0.08251953,-0.091308594,1.6479492,-1.2817383,2.1972656,0.0,0.0,0.0,-129.08936,81.97998,109.83032
1769247738452,-0.9970703,-0.08251953,-0.091308594,1.6479492,-1.2817383,2.1972656,0.0,0.0,0.0,-129.57825,82.21069,109.281006
1769247738540,-0.98291016,-0.09423828,-0.07373047,-5.2490234,-1.5869141,2.8686523,0.0,0.0,0.0,-129.57825,82.21069,109.281006
1769247738551,-0.98291016,-0.09423828,-0.07373047,-5.2490234,-1.5869141,2.8686523,0.0,0.0,0.0,-130.03967,82.46338,108.8855
1769247738640,-1.0087891,-0.08886719,-0.07763672,-8.361816,-3.112793,2.380371,0.0,0.0,0.0,-130.03967,82.46338,108.8855
1769247738651,-1.0087891,-0.08886719,-0.07763672,-8.361816,-3.112793,2.380371,0.0,0.0,0.0,-130.70435,82.87537,109.055786
1769247738739,-0.99316406,-0.06298828,-0.09375,-7.8125,5.3100586,1.6479492,0.0,0.0,0.0,-130.70435,82.87537,109.055786
1769247738751,-0.99316406,-0.06298828,-0.09375,-7.8125,5.3100586,1.6479492,0.0,0.0,0.0,-133.77502,82.85339,106.9574
1769247738839,-0.99316406,-0.067871094,-0.09667969,-0.79345703,4.699707,-4.638672,0.0,0.0,0.0,-133.77502,82.85339,106.9574
1769247738851,-0.99316406,-0.067871094,-0.09667969,-0.79345703,4.699707,-4.638672,0.0,0.0,0.0,-135.91736,82.43042,105.22705
1769247738939,-0.9951172,-0.07080078,-0.09326172,0.12207031,3.0517578,-2.5634766,0.0,0.0,0.0,-135.91736,82.43042,105.22705
1769247738950,-0.9951172,-0.07080078,-0.09326172,0.12207031,3.0517578,-2.5634766,0.0,0.0,0.0,-136.11511,82.00195,105.04028
1769247739038,-0.9916992,-0.10498047,-0.10058594,1.8310547,5.126953,-4.638672,0.0,0.0,0.0,-136.11511,82.00195,105.04028
1769247739050,-0.9916992,-0.10498047,-0.10058594,1.8310547,5.126953,-4.638672,0.0,0.0,0.0,-136.9226,81.61743,104.139404
1769247739138,-0.98779297,-0.11230469,-0.13330078,1.0375977,-3.2958984,1.3427734,0.0,0.0,0.0,-136.9226,81.61743,104.139404
1769247739151,-0.98779297,-0.11230469,-0.13330078,1.0375977,-3.2958984,1.3427734,0.0,0.0,0.0,-136.64246,81.326294,104.1449
1769247739238,-0.9863281,-0.072753906,-0.08642578,1.6479492,-9.521484,-1.8310547,0.0,0.0,0.0,-136.64246,81.326294,104.1449
1769247739249,-0.9863281,-0.072753906,-0.08642578,1.6479492,-9.521484,-1.8310547,0.0,0.0,0.0,-133.26965,81.90857,107.276
1769247739338,-1.0063477,-0.10205078,-0.071777344,0.5493164,0.061035156,-1.3427734,0.0,0.0,0.0,-133.26965,81.90857,107.276
1769247739349,-1.0063477,-0.10205078,-0.071777344,0.5493164,0.061035156,-1.3427734,0.0,0.0,0.0,-129.58923,82.18323,111.09924
1769247739437,-0.9848633,-0.100097656,-0.099609375,-5.3100586,1.4648438,-0.36621094,0.0,0.0,0.0,-129.58923,82.18323,111.09924
1769247739449,-0.9848633,-0.100097656,-0.099609375,-5.3100586,1.4648438,-0.36621094,0.0,0.0,0.0,-130.42969,81.8866,110.4126
1769247739537,-0.9951172,-0.095703125,-0.08105469,0.5493164,1.8310547,-0.18310547,0.0,0.0,0.0,-130.42969,81.8866,110.4126
1769247739548,-0.9951172,-0.095703125,-0.08105469,0.5493164,1.8310547,-0.18310547,0.0,0.0,0.0,-130.86365,81.848145,110.13245
1769247739637,-0.9863281,-0.08642578,-0.106933594,-2.5024414,0.0,0.6713867,0.0,0.0,0.0,-130.86365,81.848145,110.13245
1769247739648,-0.9863281,-0.08642578,-0.106933594,-2.5024414,0.0,0.6713867,0.0,0.0,0.0,-132.78625,81.760254,108.35266
1769247739736,-0.9970703,-0.09472656,-0.095214844,2.2583008,-1.2207031,0.18310547,0.0,0.0,0.0,-132.78625,81.760254,108.35266
1769247739748,-0.9970703,-0.09472656,-0.095214844,2.2583008,-1.2207031,0.18310547,0.0,0.0,0.0,-132.594,81.84265,108.413086
1769247739836,-0.98828125,-0.099609375,-0.087890625,-0.5493164,-0.8544922,0.6713867,0.0,0.0,0.0,-132.594,81.84265,108.413086
1769247739848,-0.98828125,-0.099609375,-0.087890625,-0.5493164,-0.8544922,0.6713867,0.0,0.0,0.0,-132.17651,81.97998,108.687744
1769247739936,-0.99609375,-0.095214844,-0.09326172,-2.1972656,-0.48828125,0.30517578,0.0,0.0,0.0,-132.17651,81.97998,108.687744
1769247739947,-0.99609375,-0.095214844,-0.09326172,-2.1972656,-0.48828125,0.30517578,0.0,0.0,0.0,-132.41821,82.056885,108.57239
1769247740035,-0.9897461,-0.083496094,-0.096191406,0.7324219,1.4648438,-2.6245117,0.0,0.0,0.0,-132.41821,82.056885,108.57239
1769247740047,-0.9897461,-0.083496094,-0.096191406,0.7324219,1.4648438,-2.6245117,0.0,0.0,0.0,-132.47314,82.02942,108.5614
1769247740136,-0.98876953,-0.10595703,-0.09814453,2.746582,2.1972656,-3.0517578,0.0,0.0,0.0,-132.47314,82.02942,108.5614
1769247740147,-0.98876953,-0.10595703,-0.09814453,2.746582,2.1972656,-3.0517578,0.0,0.0,0.0,-131.66565,81.65039,109.105225
1769247740235,-0.9838867,-0.100097656,-0.08984375,0.36621094,-1.5258789,-1.2207031,0.0,0.0,0.0,-131.66565,81.65039,109.105225
1769247740246,-0.9838867,-0.100097656,-0.08984375,0.36621094,-1.5258789,-1.2207031,0.0,0.0,0.0,-130.57251,81.54053,110.061035
1769247740335,-0.99658203,-0.11035156,-0.091796875,-0.48828125,-0.24414062,-0.12207031,0.0,0.0,0.0,-130.57251,81.54053,110.061035
1769247740346,-0.99658203,-0.11035156,-0.091796875,-0.48828125,-0.24414062,-0.12207031,0.0,0.0,0.0,-129.91333,81.57898,110.71472
1769247740434,-0.98779297,-0.100097656,-0.09423828,-0.7324219,1.0375977,0.7324219,0.0,0.0,0.0,-129.91333,81.57898,110.71472
1769247740446,-0.98779297,-0.100097656,-0.09423828,-0.7324219,1.0375977,0.7324219,0.0,0.0,0.0,-130.37476,81.55701,110.23132
1769247740534,-0.9941406,-0.103027344,-0.10253906,-0.12207031,1.2207031,0.79345703,0.0,0.0,0.0,-130.37476,81.55701,110.23132
1769247740546,-0.9941406,-0.103027344,-0.10253906,-0.12207031,1.2207031,0.79345703,0.0,0.0,0.0,-131.90186,81.51306,108.70422
1769247740634,-0.9892578,-0.09472656,-0.09863281,-0.30517578,-0.4272461,0.24414062,0.0,0.0,0.0,-131.90186,81.51306,108.70422
1769247740645,-0.9892578,-0.09472656,-0.09863281,-0.30517578,-0.4272461,0.24414062,0.0,0.0,0.0,-132.32483,81.57349,108.28125
1769247740733,-0.99121094,-0.10986328,-0.09326172,-0.18310547,3.6621094,-0.48828125,0.0,0.0,0.0,-132.32483,81.57349,108.28125
1769247740745,-0.99121094,-0.10986328,-0.09326172,-0.18310547,3.6621094,-0.48828125,0.0,0.0,0.0,-132.91809,81.51306,107.69348
1769247740833,-0.98535156,-0.100097656,-0.11376953,0.6713867,0.91552734,-0.61035156,0.0,0.0,0.0,-132.91809,81.51306,107.69348
1769247740845,-0.98535156,-0.100097656,-0.11376953,0.6713867,0.91552734,-0.61035156,0.0,0.0,0.0,-134.15405,81.221924,106.35315
1769247740933,-0.98828125,-0.095214844,-0.10595703,0.061035156,-1.159668,0.30517578,0.0,0.0,0.0,-134.15405,81.221924,106.35315
1769247740944,-0.98828125,-0.095214844,-0.10595703,0.061035156,-1.159668,0.30517578,0.0,0.0,0.0,-134.14856,81.309814,106.309204
1769247741032,-0.9941406,-0.104003906,-0.10107422,-0.061035156,0.0,0.0,0.0,0.0,0.0,-134.14856,81.309814,106.309204
1769247741044,-0.9941406,-0.104003906,-0.10107422,-0.061035156,0.0,0.0,0.0,0.0,0.0,-134.00024,81.34277,106.397095
1769247741132,-0.9897461,-0.103515625,-0.107421875,0.061035156,-0.5493164,-0.12207031,0.0,0.0,0.0,-134.00024,81.34277,106.397095
1769247741144,-0.9897461,-0.103515625,-0.107421875,0.061035156,-0.5493164,-0.12207031,0.0,0.0,0.0,-133.9563,81.33728,106.38611
1769247741232,-0.99365234,-0.09863281,-0.1015625,0.0,-0.7324219,0.061035156,0.0,0.0,0.0,-133.9563,81.33728,106.38611
1769247741243,-0.99365234,-0.09863281,-0.1015625,0.0,-0.7324219,0.061035156,0.0,0.0,0.0,-133.61023,81.40869,106.70471
1769247741332,-0.9951172,-0.100097656,-0.10253906,-0.24414062,0.5493164,0.061035156,0.0,0.0,0.0,-133.61023,81.40869,106.70471
1769247741343,-0.9951172,-0.100097656,-0.10253906,-0.24414062,0.5493164,0.061035156,0.0,0.0,0.0,-133.76404,81.430664,106.56189
1769247741431,-0.9897461,-0.09814453,-0.10498047,0.0,1.6479492,-0.48828125,0.0,0.0,0.0,-133.76404,81.430664,106.56189
1769247741443,-0.9897461,-0.09814453,-0.10498047,0.0,1.6479492,-0.48828125,0.0,0.0,0.0,-134.40125,81.326294,105.89722
1769247741531,-0.9892578,-0.10107422,-0.10839844,0.36621094,1.159668,-0.79345703,0.0,0.0,0.0,-134.40125,81.326294,105.89722
1769247741542,-0.9892578,-0.10107422,-0.10839844,0.36621094,1.159668,-0.79345703,0.0,0.0,0.0,-134.68689,81.19995,105.54016
1769247741631,-0.9863281,-0.100097656,-0.11230469,0.18310547,-0.18310547,1.0986328,0.0,0.0,0.0,-134.68689,81.19995,105.54016
1769247741642,-0.9863281,-0.100097656,-0.11230469,0.18310547,-0.18310547,1.0986328,0.0,0.0,0.0,-134.9945,81.188965,105.17761
1769247741730,-0.9892578,-0.09716797,-0.09863281,1.0375977,-1.2817383,1.0375977,0.0,0.0,0.0,-134.9945,81.188965,105.17761
1769247741742,-0.9892578,-0.09716797,-0.09863281,1.0375977,-1.2817383,1.0375977,0.0,0.0,0.0,-134.92859,81.39221,105.20508
1769247741830,-0.99316406,-0.103027344,-0.104003906,0.12207031,0.061035156,-0.061035156,0.0,0.0,0.0,-134.92859,81.39221,105.20508
1769247741841,-0.99316406,-0.103027344,-0.104003906,0.12207031,0.061035156,-0.061035156,0.0,0.0,0.0,-135.0055,81.40869,105.0238
1769247741930,-0.9897461,-0.09326172,-0.107421875,-0.061035156,-0.061035156,0.061035156,0.0,0.0,0.0,-135.0055,81.40869,105.0238
1769247741941,-0.9897461,-0.09326172,-0.107421875,-0.061035156,-0.061035156,0.061035156,0.0,0.0,0.0,-135.08789,81.40869,104.88098
1769247742030,-0.9916992,-0.099609375,-0.10449219,-0.12207031,-0.36621094,-0.30517578,0.0,0.0,0.0,-135.08789,81.40869,104.88098
1769247742041,-0.9916992,-0.099609375,-0.10449219,-0.12207031,-0.36621094,-0.30517578,0.0,0.0,0.0,-134.97253,81.430664,104.96338
1769247742129,-0.9926758,-0.099121094,-0.10107422,-0.5493164,0.36621094,-0.30517578,0.0,0.0,0.0,-134.97253,81.430664,104.96338
1769247742141,-0.9926758,-0.099121094,-0.10107422,-0.5493164,0.36621094,-0.30517578,0.0,0.0,0.0,-134.88464,81.42517,105.03479
1769247742229,-0.9921875,-0.09765625,-0.107421875,-0.12207031,0.8544922,0.0,0.0,0.0,0.0,-134.88464,81.42517,105.03479
1769247742240,-0.9921875,-0.09765625,-0.107421875,-0.12207031,0.8544922,0.0,0.0,0.0,0.0,-135.23071,81.381226,104.661255
1769247742329,-0.99121094,-0.09277344,-0.11035156,0.6713867,0.8544922,-0.36621094,0.0,0.0,0.0,-135.23071,81.381226,104.661255
1769247742340,-0.99121094,-0.09277344,-0.11035156,0.6713867,0.8544922,-0.36621094,0.0,0.0,0.0,-135.67017,81.3208,104.18884
1769247742428,-0.9941406,-0.099121094,-0.11328125,0.4272461,-0.4272461,-0.36621094,0.0,0.0,0.0,-135.67017,81.3208,104.18884
1769247742440,-0.9941406,-0.099121094,-0.11328125,0.4272461,-0.4272461,-0.36621094,0.0,0.0,0.0,-135.69763,81.28235,104.11194
1769247742528,-0.99121094,-0.099609375,-0.107421875,0.061035156,-0.36621094,-0.61035156,0.0,0.0,0.0,-135.69763,81.28235,104.11194
1769247742540,-0.99121094,-0.099609375,-0.107421875,0.061035156,-0.36621094,-0.61035156,0.0,0.0,0.0,-135.26367,81.25488,104.47998
1769247742628,-0.9916992,-0.10205078,-0.10644531,-0.24414062,-0.30517578,-0.24414062,0.0,0.0,0.0,-135.26367,81.25488,104.47998
1769247742639,-0.9916992,-0.10205078,-0.10644531,-0.24414062,-0.30517578,-0.24414062,0.0,0.0,0.0,-134.94507,81.26587,104.7876
1769247742727,-0.9897461,-0.099609375,-0.10888672,-0.30517578,-0.4272461,0.0,0.0,0.0,0.0,-134.94507,81.26587,104.7876
1769247742739,-0.9897461,-0.099609375,-0.10888672,-0.30517578,-0.4272461,0.0,0.0,0.0,0.0,-134.89014,81.28784,104.85901
1769247742827,-0.9916992,-0.10058594,-0.107421875,-0.5493164,-0.9765625,0.4272461,0.0,0.0,0.0,-134.89014,81.28784,104.85901
1769247742839,-0.9916992,-0.10058594,-0.107421875,-0.5493164,-0.9765625,0.4272461,0.0,0.0,0.0,-134.79675,81.35925,104.99634
1769247742927,-0.9921875,-0.09863281,-0.10546875,-0.24414062,-1.0375977,0.79345703,0.0,0.0,0.0,-134.79675,81.35925,104.99634
1769247742938,-0.9921875,-0.09863281,-0.10546875,-0.24414062,-1.0375977,0.79345703,0.0,0.0,0.0,-134.77478,81.45813,105.04578
1769247743026,-0.9916992,-0.09814453,-0.1015625,0.061035156,-0.7324219,0.5493164,0.0,0.0,0.0,-134.77478,81.45813,105.04578
1769247743038,-0.9916992,-0.09814453,-0.1015625,0.061035156,-0.7324219,0.5493164,0.0,0.0,0.0,-134.74182,81.55701,105.06775
1769247743126,-0.9873047,-0.09716797,-0.1015625,-0.61035156,-0.7324219,0.4272461,0.0,0.0,0.0,-134.74182,81.55701,105.06775
1769247743138,-0.9873047,-0.09716797,-0.1015625,-0.61035156,-0.7324219,0.4272461,0.0,0.0,0.0,-134.80774,81.63391,105.01831
1769247743226,-0.9926758,-0.095214844,-0.10058594,-0.18310547,-1.0986328,0.12207031,0.0,0.0,0.0,-134.80774,81.63391,105.01831
1769247743237,-0.9926758,-0.095214844,-0.10058594,-0.18310547,-1.0986328,0.12207031,0.0,0.0,0.0,-134.6814,81.70532,105.16113
1769247743326,-0.99365234,-0.09423828,-0.09814453,-0.30517578,-0.61035156,0.0,0.0,0.0,0.0,-134.6814,81.70532,105.16113
1769247743337,-0.99365234,-0.09423828,-0.09814453,-0.30517578,-0.61035156,0.0,0.0,0.0,0.0,-134.39575,81.78772,105.45776
1769247743425,-0.9926758,-0.09326172,-0.09814453,0.061035156,0.0,-0.36621094,0.0,0.0,0.0,-134.39575,81.78772,105.45776
1769247743437,-0.9926758,-0.09326172,-0.09814453,0.061035156,0.0,-0.36621094,0.0,0.0,0.0,-134.32434,81.78772,105.53467
1769247743525,-0.99121094,-0.096191406,-0.099121094,0.6713867,0.12207031,-0.8544922,0.0,0.0,0.0,-134.32434,81.78772,105.53467
1769247743537,-0.99121094,-0.096191406,-0.099121094,0.6713867,0.12207031,-0.8544922,0.0,0.0,0.0,-134.18152,81.743774,105.62805
1769247743625,-0.9926758,-0.09765625,-0.100097656,-0.79345703,0.24414062,0.0,0.0,0.0,0.0,-134.18152,81.743774,105.62805
1769247743637,-0.9926758,-0.09765625,-0.100097656,-0.79345703,0.24414062,0.0,0.0,0.0,0.0,-134.14307,81.710815,105.65552
1769247743724,-0.9921875,-0.09814453,-0.10205078,0.061035156,0.30517578,-0.36621094,0.0,0.0,0.0,-134.14307,81.710815,105.65552
1769247743736,-0.9921875,-0.09814453,-0.10205078,0.061035156,0.30517578,-0.36621094,0.0,0.0,0.0,-134.34082,81.67786,105.47974
1769247743824,-0.99072266,-0.095214844,-0.1015625,-1.0986328,0.48828125,-0.12207031,0.0,0.0,0.0,-134.34082,81.67786,105.47974
1769247743836,-0.99072266,-0.095214844,-0.1015625,-1.0986328,0.48828125,-0.12207031,0.0,0.0,0.0,-134.50562,81.63391,105.336914
1769247743924,-0.99072266,-0.099609375,-0.09716797,0.30517578,1.4648438,0.12207031,0.0,0.0,0.0,-134.50562,81.63391,105.336914
1769247743935,-0.99072266,-0.099609375,-0.09716797,0.30517578,1.4648438,0.12207031,0.0,0.0,0.0,-134.86267,81.56799,104.93042
1769247744024,-0.9916992,-0.099609375,-0.10253906,0.79345703,2.5024414,-0.8544922,0.0,0.0,0.0,-134.86267,81.56799,104.93042
1769247744035,-0.9916992,-0.099609375,-0.10253906,0.79345703,2.5024414,-0.8544922,0.0,0.0,0.0,-135.47241,81.4032,104.21631
1769247744123,-0.9926758,-0.10058594,-0.11376953,-0.061035156,1.8920898,-0.8544922,0.0,0.0,0.0,-135.47241,81.4032,104.21631
1769247744135,-0.9926758,-0.10058594,-0.11376953,-0.061035156,1.8920898,-0.8544922,0.0,0.0,0.0,-136.07117,81.19995,103.601074
1769247744223,-0.98535156,-0.10595703,-0.115234375,-0.061035156,-0.91552734,-0.61035156,0.0,0.0,0.0,-136.07117,81.19995,103.601074
1769247744234,-0.98535156,-0.10595703,-0.115234375,-0.061035156,-0.91552734,-0.61035156,0.0,0.0,0.0,-136.25793,81.05713,103.37036
1769247744323,-0.984375,-0.09814453,-0.10839844,1.2207031,-2.6855469,0.7324219,0.0,0.0,0.0,-136.25793,81.05713,103.37036
1769247744334,-0.984375,-0.09814453,-0.10839844,1.2207031,-2.6855469,0.7324219,0.0,0.0,0.0,-135.36804,81.19995,104.260254
1769247744422,-0.9916992,-0.10449219,-0.099609375,-0.36621094,-3.9672852,0.36621094,0.0,0.0,0.0,-135.36804,81.19995,104.260254
1769247744434,-0.9916992,-0.10449219,-0.099609375,-0.36621094,-3.9672852,0.36621094,0.0,0.0,0.0,-134.21448,81.46362,105.37537
1769247744522,-0.9946289,-0.09472656,-0.09814453,-0.79345703,-2.8076172,-0.4272461,0.0,0.0,0.0,-134.21448,81.46362,105.37537
1769247744534,-0.9946289,-0.09472656,-0.09814453,-0.79345703,-2.8076172,-0.4272461,0.0,0.0,0.0,-132.57751,81.75476,107.13318
1769247744622,-0.9970703,-0.095214844,-0.088378906,0.0,-2.2583008,-1.2817383,0.0,0.0,0.0,-132.57751,81.75476,107.13318
1769247744633,-0.9970703,-0.095214844,-0.088378906,0.0,-2.2583008,-1.2817383,0.0,0.0,0.0,-130.9845,81.83716,108.77014
1769247744722,-0.9921875,-0.103515625,-0.095214844,0.61035156,-1.8920898,-1.8310547,0.0,0.0,0.0,-130.9845,81.83716,108.77014
1769247744733,-0.9921875,-0.103515625,-0.095214844,0.61035156,-1.8920898,-1.8310547,0.0,0.0,0.0,-129.34753,81.87012,110.390625
1769247744821,-0.99365234,-0.104003906,-0.08544922,2.9296875,-2.746582,-1.8920898,0.0,0.0,0.0,-129.34753,81.87012,110.390625
1769247744833,-0.99365234,-0.104003906,-0.08544922,2.9296875,-2.746582,-1.8920898,0.0,0.0,0.0,-127.32605,81.85913,112.302246
1769247744921,-0.99658203,-0.11328125,-0.076171875,1.3427734,-2.6245117,-0.7324219,0.0,0.0,0.0,-127.32605,81.85913,112.302246
1769247744932,-0.99658203,-0.11328125,-0.076171875,1.3427734,-2.6245117,-0.7324219,0.0,0.0,0.0,-125.095825,81.919556,114.246826
1769247745021,-0.99609375,-0.11376953,-0.07324219,-2.4414062,-1.159668,-0.5493164,0.0,0.0,0.0,-125.095825,81.919556,114.246826
1769247745032,-0.99609375,-0.11376953,-0.07324219,-2.4414062,-1.159668,-0.5493164,0.0,0.0,0.0,-123.68408,81.99097,115.65857
1769247745120,-0.99853516,-0.10546875,-0.079589844,-0.48828125,-0.36621094,-0.4272461,0.0,0.0,0.0,-123.68408,81.99097,115.65857
1769247745132,-0.99853516,-0.10546875,-0.079589844,-0.48828125,-0.36621094,-0.4272461,0.0,0.0,0.0,-123.27759,81.968994,116.21338
1769247745220,-0.99072266,-0.11230469,-0.06640625,0.0,0.5493164,0.79345703,0.0,0.0,0.0,-123.27759,81.968994,116.21338
1769247745232,-0.99072266,-0.11230469,-0.06640625,0.0,0.5493164,0.79345703,0.0,0.0,0.0,-123.54675,81.99646,115.83984
1769247745320,-0.9995117,-0.107421875,-0.07519531,0.36621094,0.48828125,0.0,0.0,0.0,0.0,-123.54675,81.99646,115.83984
1769247745331,-0.9995117,-0.107421875,-0.07519531,0.36621094,0.48828125,0.0,0.0,0.0,0.0,-124.002686,82.00195,115.30151
1769247745437,-0.9921875,-0.111328125,-0.07910156,0.12207031,0.36621094,-0.12207031,0.0,0.0,0.0,-124.002686,82.00195,115.30151
1769247745438,-0.9921875,-0.111328125,-0.07910156,0.12207031,0.36621094,-0.12207031,0.0,0.0,0.0,-124.32129,81.93054,114.84009
1769247745519,-0.9921875,-0.107421875,-0.076171875,0.061035156,-0.61035156,-0.5493164,0.0,0.0,0.0,-124.32129,81.93054,114.84009
1769247745531,-0.9921875,-0.107421875,-0.076171875,0.061035156,-0.61035156,-0.5493164,0.0,0.0,0.0,-124.02466,81.919556,115.076294
1769247745619,-0.9951172,-0.11425781,-0.078125,-0.30517578,0.48828125,-0.24414062,0.0,0.0,0.0,-124.02466,81.919556,115.076294
1769247745630,-0.9951172,-0.11425781,-0.078125,-0.30517578,0.48828125,-0.24414062,0.0,0.0,0.0,-124.09607,81.87561,114.9115
1769247745719,-0.99121094,-0.107421875,-0.083984375,-0.61035156,-0.18310547,0.30517578,0.0,0.0,0.0,-124.09607,81.87561,114.9115
1769247745731,-0.99121094,-0.107421875,-0.083984375,-0.61035156,-0.18310547,0.30517578,0.0,0.0,0.0,-124.227905,81.85364,114.746704
1769247745818,-0.99121094,-0.11376953,-0.07714844,0.5493164,-0.61035156,0.0,0.0,0.0,0.0,-124.227905,81.85364,114.746704
1769247745830,-0.99121094,-0.11376953,-0.07714844,0.5493164,-0.61035156,0.0,0.0,0.0,0.0,-124.07959,81.8811,114.82361
1769247745918,-0.9941406,-0.11376953,-0.07714844,-0.36621094,-0.30517578,0.24414062,0.0,0.0,0.0,-124.07959,81.8811,114.82361
1769247745929,-0.9941406,-0.11376953,-0.07714844,-0.36621094,-0.30517578,0.24414062,0.0,0.0,0.0,-123.826904,81.919556,115.010376
1769247746018,-0.9916992,-0.10839844,-0.07714844,-1.0986328,-0.7324219,0.7324219,0.0,0.0,0.0,-123.826904,81.919556,115.010376
1769247746029,-0.9916992,-0.10839844,-0.07714844,-1.0986328,-0.7324219,0.7324219,0.0,0.0,0.0,-123.6676,81.99646,115.17517
1769247746117,-0.9951172,-0.107910156,-0.079589844,0.7324219,-1.0375977,0.4272461,0.0,0.0,0.0,-123.6676,81.99646,115.17517
1769247746129,-0.9951172,-0.107910156,-0.079589844,0.7324219,-1.0375977,0.4272461,0.0,0.0,0.0,-123.52478,82.08435,115.31799
1769247746217,-0.9921875,-0.111816406,-0.067871094,0.18310547,-0.24414062,-0.061035156,0.0,0.0,0.0,-123.52478,82.08435,115.31799
1769247746229,-0.9921875,-0.111816406,-0.067871094,0.18310547,-0.24414062,-0.061035156,0.0,0.0,0.0,-123.31055,82.10083,115.40588
1769247746317,-0.9848633,-0.10595703,-0.0703125,-0.91552734,0.61035156,0.24414062,0.0,0.0,0.0,-123.31055,82.10083,115.40588
1769247746328,-0.9848633,-0.10595703,-0.0703125,-0.91552734,0.61035156,0.24414062,0.0,0.0,0.0,-123.513794,82.10632,115.20813
1769247746417,-1.003418,-0.11376953,-0.08251953,-0.7324219,1.4648438,-1.159668,0.0,0.0,0.0,-123.513794,82.10632,115.20813
1769247746428,-1.003418,-0.11376953,-0.08251953,-0.7324219,1.4648438,-1.159668,0.0,0.0,0.0,-123.73901,82.040405,115.05432
1769247746516,-0.9785156,-0.08105469,-0.06542969,1.7700195,0.9765625,0.61035156,0.0,0.0,0.0,-123.73901,82.040405,115.05432
1769247746528,-0.9785156,-0.08105469,-0.06542969,1.7700195,0.9765625,0.61035156,0.0,0.0,0.0,-124.381714,81.84265,114.36218
1769247746616,-1.0,-0.12841797,-0.091308594,-1.8920898,1.6479492,-0.36621094,0.0,0.0,0.0,-124.381714,81.84265,114.36218
1769247746627,-1.0,-0.12841797,-0.091308594,-1.8920898,1.6479492,-0.36621094,0.0,0.0,0.0,-125.5188,81.8866,113.16467
1769247746716,-0.9819336,-0.11669922,-0.07910156,0.0,1.5869141,-0.91552734,0.0,0.0,0.0,-125.5188,81.8866,113.16467
1769247746727,-0.9819336,-0.11669922,-0.07910156,0.0,1.5869141,-0.91552734,0.0,0.0,0.0,-126.37573,81.6449,112.32422
1769247746815,-0.9897461,-0.109375,-0.09033203,0.30517578,1.2817383,-0.5493164,0.0,0.0,0.0,-126.37573,81.6449,112.32422
1769247746827,-0.9897461,-0.109375,-0.09033203,0.30517578,1.2817383,-0.5493164,0.0,0.0,0.0,-126.77673,81.55151,111.87378
1769247746915,-0.99560547,-0.118652344,-0.08642578,1.2817383,0.36621094,-0.61035156,0.0,0.0,0.0,-126.77673,81.55151,111.87378
1769247746927,-0.99560547,-0.118652344,-0.08642578,1.2817383,0.36621094,-0.61035156,0.0,0.0,0.0,-126.83716,81.46362,111.68701
1769247747015,-0.98779297,-0.111816406,-0.087402344,-0.18310547,-0.7324219,0.36621094,0.0,0.0,0.0,-126.83716,81.46362,111.68701
1769247747026,-0.98779297,-0.111816406,-0.087402344,-0.18310547,-0.7324219,0.36621094,0.0,0.0,0.0,-126.815186,81.46362,111.68701
1769247747114,-0.99560547,-0.12060547,-0.09277344,-0.61035156,-0.24414062,-0.30517578,0.0,0.0,0.0,-126.815186,81.46362,111.68701
1769247747126,-0.99560547,-0.12060547,-0.09277344,-0.61035156,-0.24414062,-0.30517578,0.0,0.0,0.0,-126.67786,81.4801,111.83533
1769247747214,-0.9863281,-0.10498047,-0.08105469,-0.12207031,-0.9765625,0.36621094,0.0,0.0,0.0,-126.67786,81.4801,111.83533
1769247747226,-0.9863281,-0.10498047,-0.08105469,-0.12207031,-0.9765625,0.36621094,0.0,0.0,0.0,-126.19446,81.49658,112.30774
1769247747314,-0.99609375,-0.115234375,-0.09082031,0.061035156,-0.6713867,0.0,0.0,0.0,0.0,-126.19446,81.49658,112.30774
1769247747325,-0.99609375,-0.115234375,-0.09082031,0.061035156,-0.6713867,0.0,0.0,0.0,0.0,-125.6781,81.60095,112.76367
1769247747413,-0.9897461,-0.11621094,-0.07714844,0.4272461,0.4272461,0.0,0.0,0.0,0.0,-125.6781,81.60095,112.76367
1769247747425,-0.9897461,-0.11621094,-0.07714844,0.4272461,0.4272461,0.0,0.0,0.0,0.0,-125.6012,81.589966,112.769165
1769247747513,-0.98876953,-0.11376953,-0.091796875,0.18310547,-0.4272461,0.061035156,0.0,0.0,0.0,-125.6012,81.589966,112.769165
1769247747525,-0.98876953,-0.11376953,-0.091796875,0.18310547,-0.4272461,0.061035156,0.0,0.0,0.0,-125.45288,81.60095,112.785645
1769247747613,-0.99316406,-0.109375,-0.07861328,-1.0375977,-0.6713867,0.061035156,0.0,0.0,0.0,-125.45288,81.60095,112.785645
1769247747624,-0.99316406,-0.109375,-0.07861328,-1.0375977,-0.6713867,0.061035156,0.0,0.0,0.0,-125.23865,81.66687,112.91199
1769247747713,-0.9951172,-0.1171875,-0.08300781,0.61035156,0.30517578,-0.61035156,0.0,0.0,0.0,-125.23865,81.66687,112.91199
1769247747724,-0.9951172,-0.1171875,-0.08300781,0.61035156,0.30517578,-0.61035156,0.0,0.0,0.0,-124.86511,81.65588,113.19214
1769247747812,-0.9741211,-0.10595703,-0.09277344,2.380371,1.5869141,0.18310547,0.0,0.0,0.0,-124.86511,81.65588,113.19214
1769247747824,-0.9741211,-0.10595703,-0.09277344,2.380371,1.5869141,0.18310547,0.0,0.0,0.0,-125.20569,81.589966,112.62634
1769247747912,-0.99072266,-0.115722656,-0.07714844,1.953125,-2.6855469,1.2207031,0.0,0.0,0.0,-125.20569,81.589966,112.62634
1769247747924,-0.99072266,-0.115722656,-0.07714844,1.953125,-2.6855469,1.2207031,0.0,0.0,0.0,-125.14526,81.710815,112.368164
1769247748013,-0.98779297,-0.10546875,-0.08642578,-0.91552734,-2.8686523,-4.272461,0.0,0.0,0.0,-125.14526,81.710815,112.368164
1769247748024,-0.98779297,-0.10546875,-0.08642578,-0.91552734,-2.8686523,-4.272461,0.0,0.0,0.0,-122.67883,81.77124,114.82361
1769247748112,-0.99365234,-0.14453125,-0.048828125,1.3427734,-4.5776367,1.2207031,0.0,0.0,0.0,-122.67883,81.77124,114.82361
1769247748123,-0.99365234,-0.14453125,-0.048828125,1.3427734,-4.5776367,1.2207031,0.0,0.0,0.0,-119.67407,81.80969,117.784424
1769247748211,-1.0112305,-0.13085938,-0.059570312,-4.1503906,-1.2207031,-0.8544922,0.0,0.0,0.0,-119.67407,81.80969,117.784424
1769247748223,-1.0112305,-0.13085938,-0.059570312,-4.1503906,-1.2207031,-0.8544922,0.0,0.0,0.0,-117.48779,81.968994,120.00366
1769247748311,-0.99121094,-0.09765625,-0.047851562,-4.699707,5.2490234,1.2817383,0.0,0.0,0.0,-117.48779,81.968994,120.00366
1769247748322,-0.99121094,-0.09765625,-0.047851562,-4.699707,5.2490234,1.2817383,0.0,0.0,0.0,-119.0863,81.87012,118.69629
1769247748411,-1.0,-0.11621094,-0.08886719,-0.91552734,9.70459,-0.91552734,0.0,0.0,0.0,-119.0863,81.87012,118.69629
1769247748422,-1.0,-0.11621094,-0.08886719,-0.91552734,9.70459,-0.91552734,0.0,0.0,0.0,-123.409424,81.50757,114.537964
1769247748510,-1.0419922,-0.15820312,-0.07910156,-3.1738281,8.056641,0.36621094,0.0,0.0,0.0,-123.409424,81.50757,114.537964
1769247748522,-1.0419922,-0.15820312,-0.07910156,-3.1738281,8.056641,0.36621094,0.0,0.0,0.0,-128.39722,81.06262,109.418335
1769247748610,-0.9921875,-0.13867188,-0.087402344,-5.92041,5.2490234,-8.300781,0.0,0.0,0.0,-128.39722,81.06262,109.418335
1769247748621,-0.9921875,-0.13867188,-0.087402344,-5.92041,5.2490234,-8.300781,0.0,0.0,0.0,-130.95154,80.38696,107.00134
1769247748710,-0.9746094,-0.14257812,-0.13574219,-1.159668,7.446289,-9.216309,0.0,0.0,0.0,-130.95154,80.38696,107.00134
1769247748721,-0.9746094,-0.14257812,-0.13574219,-1.159668,7.446289,-9.216309,0.0,0.0,0.0,-130.41321,79.436646,108.08899
1769247748809,-0.98876953,-0.1508789,-0.123046875,-0.61035156,4.1503906,-9.094238,0.0,0.0,0.0,-130.41321,79.436646,108.08899
1769247748821,-0.98876953,-0.1508789,-0.123046875,-0.61035156,4.1503906,-9.094238,0.0,0.0,0.0,-130.0946,78.21716,108.78113
1769247748909,-0.9301758,-0.11621094,-0.1665039,-1.7089844,8.605957,-1.8310547,0.0,0.0,0.0,-130.0946,78.21716,108.78113
1769247748921,-0.9301758,-0.11621094,-0.1665039,-1.7089844,8.605957,-1.8310547,0.0,0.0,0.0,-129.4574,77.40967,109.852295
1769247749009,-0.9716797,-0.16308594,-0.17871094,-2.9907227,1.2207031,0.0,0.0,0.0,0.0,-129.4574,77.40967,109.852295
1769247749020,-0.9716797,-0.16308594,-0.17871094,-2.9907227,1.2207031,0.0,0.0,0.0,0.0,-131.50085,77.091064,107.98462
1769247749109,-1.4399414,-0.2890625,0.0,39.611816,-32.348633,33.813477,0.0,0.0,0.0,-131.50085,77.091064,107.98462
1769247749120,-1.4399414,-0.2890625,0.0,39.611816,-32.348633,33.813477,0.0,0.0,0.0,-139.68567,77.387695,99.03076
1769247749208,-0.9526367,-0.095703125,-0.09667969,2.6855469,-14.770508,3.8452148,0.0,0.0,0.0,-139.68567,77.387695,99.03076
1769247749220,-0.9526367,-0.095703125,-0.09667969,2.6855469,-14.770508,3.8452148,0.0,0.0,0.0,-137.7356,78.57971,101.02478
1769247749308,-0.99853516,-0.111328125,-0.091308594,-0.36621094,-5.493164,3.0517578,0.0,0.0,0.0,-137.7356,78.57971,101.02478
1769247749319,-0.99853516,-0.111328125,-0.091308594,-0.36621094,-5.493164,3.0517578,0.0,0.0,0.0,-135.03296,79.59595,103.881226
1769247749408,-1.0102539,-0.119628906,-0.12841797,-0.24414062,6.3476562,3.2348633,0.0,0.0,0.0,-135.03296,79.59595,103.881226
1769247749419,-1.0102539,-0.119628906,-0.12841797,-0.24414062,6.3476562,3.2348633,0.0,0.0,0.0,-136.49963,79.84314,102.56836
1769247749507,-0.97558594,-0.10253906,-0.14501953,0.0,11.230469,4.8217773,0.0,0.0,0.0,-136.49963,79.84314,102.56836
1769247749519,-0.97558594,-0.10253906,-0.14501953,0.0,11.230469,4.8217773,0.0,0.0,0.0,-141.81152,79.332275,97.25647
1769247749607,-0.9770508,-0.10107422,-0.1665039,-0.48828125,0.9765625,2.1362305,0.0,0.0,0.0,-141.81152,79.332275,97.25647
1769247749619,-0.9770508,-0.10107422,-0.1665039,-0.48828125,0.9765625,2.1362305,0.0,0.0,0.0,-144.8822,79.11255,94.20227
1769247749707,-0.9863281,-0.09375,-0.16113281,0.4272461,-2.1362305,0.5493164,0.0,0.0,0.0,-144.8822,79.11255,94.20227
1769247749718,-0.9863281,-0.09375,-0.16113281,0.4272461,-2.1362305,0.5493164,0.0,0.0,0.0,-145.01953,79.2334,94.20776
1769247749807,-1.0097656,-0.107910156,-0.14111328,0.0,2.0141602,1.7089844,0.0,0.0,0.0,-145.01953,79.2334,94.20776
1769247749818,-1.0097656,-0.107910156,-0.14111328,0.0,2.0141602,1.7089844,0.0,0.0,0.0,-145.39307,79.35974,93.95508
1769247749906,-0.984375,-0.092285156,-0.14648438,-2.8076172,12.390137,5.6152344,0.0,0.0,0.0,-145.39307,79.35974,93.95508
1769247749918,-0.984375,-0.092285156,-0.14648438,-2.8076172,12.390137,5.6152344,0.0,0.0,0.0,-149.90845,78.931274,89.659424
1769247750006,-0.96777344,-0.0859375,-0.18261719,-3.479004,9.460449,2.8076172,0.0,0.0,0.0,-149.90845,78.931274,89.659424
1769247750018,-0.96777344,-0.0859375,-0.18261719,-3.479004,9.460449,2.8076172,0.0,0.0,0.0,-153.7976,78.030396,85.979004
1769247750106,-0.9638672,-0.08691406,-0.2241211,-1.3427734,7.2021484,3.8452148,0.0,0.0,0.0,-153.7976,78.030396,85.979004
1769247750118,-0.9638672,-0.08691406,-0.2241211,-1.3427734,7.2021484,3.8452148,0.0,0.0,0.0,-157.4231,77.48657,82.716064
1769247750205,-0.95947266,-0.060058594,-0.22949219,0.5493164,1.2817383,0.30517578,0.0,0.0,0.0,-157.4231,77.48657,82.716064
1769247750217,-0.95947266,-0.060058594,-0.22949219,0.5493164,1.2817383,0.30517578,0.0,0.0,0.0,-158.42285,77.18994,81.78223
1769247750305,-0.98291016,-0.06640625,-0.21777344,0.5493164,-6.1035156,-1.0375977,0.0,0.0,0.0,-158.42285,77.18994,81.78223
1769247750317,-0.98291016,-0.06640625,-0.21777344,0.5493164,-6.1035156,-1.0375977,0.0,0.0,0.0,-157.99988,77.492065,82.337036
1769247750405,-0.9848633,-0.06738281,-0.19238281,-0.48828125,-6.5307617,-3.7231445,0.0,0.0,0.0,-157.99988,77.492065,82.337036
1769247750416,-0.9848633,-0.06738281,-0.19238281,-0.48828125,-6.5307617,-3.7231445,0.0,0.0,0.0,-155.90149,77.88208,84.611206
1769247750504,-0.98046875,-0.08251953,-0.1796875,4.0283203,-3.3569336,-5.859375,0.0,0.0,0.0,-155.90149,77.88208,84.611206
1769247750516,-0.98046875,-0.08251953,-0.1796875,4.0283203,-3.3569336,-5.859375,0.0,0.0,0.0,-152.96814,78.09082,87.5061
1769247750604,-0.9921875,-0.09375,-0.16748047,0.9765625,1.7700195,-4.333496,0.0,0.0,0.0,-152.96814,78.09082,87.5061
1769247750616,-0.9921875,-0.09375,-0.16748047,0.9765625,1.7700195,-4.333496,0.0,0.0,0.0,-150.61707,77.958984,89.7583
1769247750704,-0.9902344,-0.10253906,-0.17285156,-1.0375977,5.3100586,-0.18310547,0.0,0.0,0.0,-150.61707,77.958984,89.7583
1769247750715,-0.9902344,-0.10253906,-0.17285156,-1.0375977,5.3100586,-0.18310547,0.0,0.0,0.0,-150.63354,77.60742,89.79126
1769247750803,-0.99316406,-0.09814453,-0.1821289,-2.2583008,13.48877,5.9814453,0.0,0.0,0.0,-150.63354,77.60742,89.79126
1769247750815,-0.99316406,-0.09814453,-0.1821289,-2.2583008,13.48877,5.9814453,0.0,0.0,0.0,-153.93494,76.91528,86.6272
1769247750903,-1.0224609,-0.083496094,-0.203125,-4.638672,20.385742,20.935059,0.0,0.0,0.0,-153.93494,76.91528,86.6272
1769247750915,-1.0224609,-0.083496094,-0.203125,-4.638672,20.385742,20.935059,0.0,0.0,0.0,-162.02637,76.02539,78.80493
1769247751003,-1.0224609,-0.08935547,-0.20654297,-3.8452148,29.23584,15.50293,0.0,0.0,0.0,-162.02637,76.02539,78.80493
1769247751015,-1.0224609,-0.08935547,-0.20654297,-3.8452148,29.23584,15.50293,0.0,0.0,0.0,-170.93628,73.927,69.730225
1769247751103,-0.9267578,-0.029785156,-0.28027344,-10.314941,34.973145,5.9814453,0.0,0.0,0.0,-170.93628,73.927,69.730225
1769247751114,-0.9267578,-0.029785156,-0.28027344,-10.314941,34.973145,5.9814453,0.0,0.0,0.0,-176.05591,71.21338,65.423584
1769247751202,-0.8623047,0.07421875,-0.42382812,-4.5776367,53.40576,0.061035156,0.0,0.0,0.0,-176.05591,71.21338,65.423584
1769247751214,-0.8623047,0.07421875,-0.42382812,-4.5776367,53.40576,0.061035156,0.0,0.0,0.0,-177.28638,67.13745,64.660034
1769247751302,-0.8496094,0.08203125,-0.47509766,-44.555664,46.325684,-6.0424805,0.0,0.0,0.0,-177.28638,67.13745,64.660034
1769247751314,-0.8496094,0.08203125,-0.47509766,-44.555664,46.325684,-6.0424805,0.0,0.0,0.0,-179.28589,58.875732,63.413086
1769247751402,-0.8105469,0.052734375,-0.5307617,3.3569336,19.592285,-7.080078,0.0,0.0,0.0,-179.28589,58.875732,63.413086
1769247751413,-0.8105469,0.052734375,-0.5307617,3.3569336,19.592285,-7.080078,0.0,0.0,0.0,-179.96155,57.68921,63.391113
1769247751502,-0.7963867,0.0043945312,-0.6303711,1.953125,1.4038086,-7.080078,0.0,0.0,0.0,-179.96155,57.68921,63.391113
1769247751513,-0.7963867,0.0043945312,-0.6303711,1.953125,1.4038086,-7.080078,0.0,0.0,0.0,-179.42322,56.722412,64.313965
1769247751601,-0.8300781,-0.005859375,-0.5751953,6.286621,-9.277344,-8.911133,0.0,0.0,0.0,-179.42322,56.722412,64.313965
1769247751613,-0.8300781,-0.005859375,-0.5751953,6.286621,-9.277344,-8.911133,0.0,0.0,0.0,-177.72034,56.8927,65.7312
1769247751701,-0.8515625,-0.02734375,-0.5283203,11.047363,-7.2631836,-9.94873,0.0,0.0,0.0,-177.72034,56.8927,65.7312
1769247751713,-0.8515625,-0.02734375,-0.5283203,11.047363,-7.2631836,-9.94873,0.0,0.0,0.0,-175.30334,57.650757,67.4176
1769247751801,-0.86621094,-0.076660156,-0.5048828,4.0283203,0.91552734,-8.239746,0.0,0.0,0.0,-175.30334,57.650757,67.4176
1769247751812,-0.86621094,-0.076660156,-0.5048828,4.0283203,0.91552734,-8.239746,0.0,0.0,0.0,-173.13904,57.771606,68.85132
1769247751900,-0.84277344,-0.06201172,-0.5395508,1.3427734,0.061035156,-5.79834,0.0,0.0,0.0,-173.13904,57.771606,68.85132
1769247751912,-0.84277344,-0.06201172,-0.5395508,1.3427734,0.061035156,-5.79834,0.0,0.0,0.0,-172.07336,57.694702,69.87854
1769247752000,-0.82958984,-0.079589844,-0.5415039,2.9907227,0.91552734,-4.0893555,0.0,0.0,0.0,-172.07336,57.694702,69.87854
1769247752012,-0.82958984,-0.079589844,-0.5415039,2.9907227,0.91552734,-4.0893555,0.0,0.0,0.0,-171.14502,57.513428,70.51575
1769247752100,-0.84228516,-0.07763672,-0.53125,0.0,1.8310547,-2.746582,0.0,0.0,0.0,-171.14502,57.513428,70.51575
1769247752111,-0.84228516,-0.07763672,-0.53125,0.0,1.8310547,-2.746582,0.0,0.0,0.0,-170.52979,57.315674,70.878296
1769247752201,-0.83691406,-0.08251953,-0.54003906,-1.2817383,2.5024414,-3.0517578,0.0,0.0,0.0,-170.52979,57.315674,70.878296
1769247752211,-0.83691406,-0.08251953,-0.54003906,-1.2817383,2.5024414,-3.0517578,0.0,0.0,0.0,-170.32654,57.024536,71.048584
1769247752299,-0.8310547,-0.076171875,-0.5449219,0.12207031,2.6245117,-5.065918,0.0,0.0,0.0,-170.32654,57.024536,71.048584
1769247752311,-0.8310547,-0.076171875,-0.5449219,0.12207031,2.6245117,-5.065918,0.0,0.0,0.0,-169.98047,56.727905,71.44409
1769247752399,-0.8256836,-0.09033203,-0.55566406,1.3427734,1.0986328,-5.3100586,0.0,0.0,0.0,-169.98047,56.727905,71.44409
1769247752411,-0.8256836,-0.09033203,-0.55566406,1.3427734,1.0986328,-5.3100586,0.0,0.0,0.0,-169.16199,56.420288,72.108765
1769247752499,-0.82958984,-0.10253906,-0.55126953,2.746582,0.0,-5.065918,0.0,0.0,0.0,-169.16199,56.420288,72.108765
1769247752510,-0.82958984,-0.10253906,-0.55126953,2.746582,0.0,-5.065918,0.0,0.0,0.0,-168.27759,56.228027,72.8009
1769247752599,-0.84228516,-0.118652344,-0.5517578,4.5166016,0.12207031,-4.9438477,0.0,0.0,0.0,-168.27759,56.228027,72.8009
1769247752610,-0.84228516,-0.118652344,-0.5517578,4.5166016,0.12207031,-4.9438477,0.0,0.0,0.0,-167.25037,56.079712,73.47107
1769247752698,-0.8198242,-0.12011719,-0.55029297,3.8452148,2.319336,-3.540039,0.0,0.0,0.0,-167.25037,56.079712,73.47107
1769247752710,-0.8198242,-0.12011719,-0.55029297,3.8452148,2.319336,-3.540039,0.0,0.0,0.0,-166.4209,55.898438,73.98193
1769247752797,-0.82958984,-0.15039062,-0.5541992,2.2583008,2.380371,-2.8686523,0.0,0.0,0.0,-166.4209,55.898438,73.98193
1769247752809,-0.82958984,-0.15039062,-0.5541992,2.2583008,2.380371,-2.8686523,0.0,0.0,0.0,-165.90454,55.596313,74.10278
1769247752897,-0.8222656,-0.12792969,-0.5708008,-0.24414062,0.36621094,-1.5258789,0.0,0.0,0.0,-165.90454,55.596313,74.10278
1769247752909,-0.8222656,-0.12792969,-0.5708008,-0.24414062,0.36621094,-1.5258789,0.0,0.0,0.0,-165.64636,55.316162,74.27307
1769247752997,-0.82177734,-0.14648438,-0.55566406,0.12207031,0.48828125,1.5258789,0.0,0.0,0.0,-165.64636,55.316162,74.27307
1769247753008,-0.82177734,-0.14648438,-0.55566406,0.12207031,0.48828125,1.5258789,0.0,0.0,0.0,-165.67932,55.211792,74.07532
1769247753097,-0.8173828,-0.12597656,-0.56640625,0.12207031,0.24414062,-0.30517578,0.0,0.0,0.0,-165.67932,55.211792,74.07532
1769247753108,-0.8173828,-0.12597656,-0.56640625,0.12207031,0.24414062,-0.30517578,0.0,0.0,0.0,-165.82214,55.195312,73.77319
1769247753196,-0.8076172,-0.11816406,-0.5708008,-0.8544922,-1.5869141,-0.5493164,0.0,0.0,0.0,-165.82214,55.195312,73.77319
1769247753208,-0.8076172,-0.11816406,-0.5708008,-0.8544922,-1.5869141,-0.5493164,0.0,0.0,0.0,-165.91553,55.22827,73.707275
1769247753296,-0.84375,-0.13720703,-0.55615234,-0.91552734,-1.2817383,0.61035156,0.0,0.0,0.0,-165.91553,55.22827,73.707275
1769247753308,-0.84375,-0.13720703,-0.55615234,-0.91552734,-1.2817383,0.61035156,0.0,0.0,0.0,-165.90454,55.26123,73.63037
1769247753396,-0.82910156,-0.122558594,-0.5444336,2.4414062,2.2583008,6.4697266,0.0,0.0,0.0,-165.90454,55.26123,73.63037
1769247753407,-0.82910156,-0.122558594,-0.5444336,2.4414062,2.2583008,6.4697266,0.0,0.0,0.0,-166.22864,55.316162,73.081055
1769247753495,-0.83740234,-0.13916016,-0.5522461,0.79345703,2.746582,6.7749023,0.0,0.0,0.0,-166.22864,55.316162,73.081055
1769247753507,-0.83740234,-0.13916016,-0.5522461,0.79345703,2.746582,6.7749023,0.0,0.0,0.0,-167.34375,55.2063,71.58142
1769247753595,-0.8173828,-0.100097656,-0.56689453,-3.479004,2.1362305,3.2958984,0.0,0.0,0.0,-167.34375,55.2063,71.58142
1769247753607,-0.8173828,-0.100097656,-0.56689453,-3.479004,2.1362305,3.2958984,0.0,0.0,0.0,-168.04688,55.03601,70.74646
1769247753695,-0.8100586,-0.08886719,-0.5722656,-0.79345703,-1.3427734,2.319336,0.0,0.0,0.0,-168.04688,55.03601,70.74646
1769247753706,-0.8100586,-0.08886719,-0.5722656,-0.79345703,-1.3427734,2.319336,0.0,0.0,0.0,-168.65112,55.090942,70.24658
1769247753795,-0.8256836,-0.09375,-0.5649414,3.6010742,-1.5258789,-1.0986328,0.0,0.0,0.0,-168.65112,55.090942,70.24658
1769247753806,-0.8256836,-0.09375,-0.5649414,3.6010742,-1.5258789,-1.0986328,0.0,0.0,0.0,-168.5138,55.200806,70.22461
1769247753894,-0.8256836,-0.10205078,-0.5629883,4.272461,-0.24414062,-1.7700195,0.0,0.0,0.0,-168.5138,55.200806,70.22461
1769247753906,-0.8256836,-0.10205078,-0.5629883,4.272461,-0.24414062,-1.7700195,0.0,0.0,0.0,-167.93152,55.26123,70.51575
1769247753994,-0.8310547,-0.110839844,-0.5605469,4.8828125,0.9765625,-0.61035156,0.0,0.0,0.0,-167.93152,55.26123,70.51575
1769247754005,-0.8310547,-0.110839844,-0.5605469,4.8828125,0.9765625,-0.61035156,0.0,0.0,0.0,-167.39319,55.217285,70.69702
1769247754094,-0.8208008,-0.11816406,-0.54785156,3.112793,6.4086914,2.9296875,0.0,0.0,0.0,-167.39319,55.217285,70.69702
1769247754105,-0.8208008,-0.11816406,-0.54785156,3.112793,6.4086914,2.9296875,0.0,0.0,0.0,-167.60742,54.73938,70.08728
1769247754193,-0.8129883,-0.11816406,-0.5722656,-0.4272461,3.7231445,1.6479492,0.0,0.0,0.0,-167.60742,54.73938,70.08728
1769247754205,-0.8129883,-0.11816406,-0.5722656,-0.4272461,3.7231445,1.6479492,0.0,0.0,0.0,-168.0249,54.42627,69.47754
1769247754293,-0.81347656,-0.09765625,-0.58447266,-2.2583008,2.5024414,2.0141602,0.0,0.0,0.0,-168.0249,54.42627,69.47754
1769247754305,-0.81347656,-0.09765625,-0.58447266,-2.2583008,2.5024414,2.0141602,0.0,0.0,0.0,-168.5028,54.13513,69.1095
1769247754393,-0.8129883,-0.10058594,-0.5883789,-1.8310547,1.953125,2.1362305,0.0,0.0,0.0,-168.5028,54.13513,69.1095
1769247754404,-0.8129883,-0.10058594,-0.5883789,-1.8310547,1.953125,2.1362305,0.0,0.0,0.0,-169.05762,53.97583,68.64807
1769247754493,-0.8066406,-0.091308594,-0.58203125,-1.8310547,1.0986328,0.48828125,0.0,0.0,0.0,-169.05762,53.97583,68.64807
1769247754505,-0.8066406,-0.091308594,-0.58203125,-1.8310547,1.0986328,0.48828125,0.0,0.0,0.0,-169.43115,53.85498,68.36792
1769247754592,-0.8129883,-0.08691406,-0.58496094,1.953125,1.7089844,0.48828125,0.0,0.0,0.0,-169.43115,53.85498,68.36792
1769247754604,-0.8129883,-0.08691406,-0.58496094,1.953125,1.7089844,0.48828125,0.0,0.0,0.0,-169.57397,53.690186,68.302
1769247754692,-0.80810547,-0.09277344,-0.58984375,0.5493164,0.48828125,1.0375977,0.0,0.0,0.0,-169.57397,53.690186,68.302
1769247754705,-0.80810547,-0.09277344,-0.58984375,0.5493164,0.48828125,1.0375977,0.0,0.0,0.0,-169.6399,53.563843,68.131714
1769247754792,-0.80810547,-0.095214844,-0.59033203,0.30517578,0.79345703,-0.36621094,0.0,0.0,0.0,-169.6399,53.563843,68.131714
1769247754803,-0.80810547,-0.095214844,-0.59033203,0.30517578,0.79345703,-0.36621094,0.0,0.0,0.0,-169.67285,53.497925,68.08777
1769247754891,-0.80322266,-0.091796875,-0.5942383,0.0,0.30517578,-0.30517578,0.0,0.0,0.0,-169.67285,53.497925,68.08777
1769247754903,-0.80322266,-0.091796875,-0.5942383,0.0,0.30517578,-0.30517578,0.0,0.0,0.0,-169.6289,53.42102,68.19763
1769247754991,-0.8066406,-0.095703125,-0.5883789,0.48828125,-0.18310547,-0.6713867,0.0,0.0,0.0,-169.6289,53.42102,68.19763
1769247755002,-0.8066406,-0.095703125,-0.5883789,0.48828125,-0.18310547,-0.6713867,0.0,0.0,0.0,-169.60693,53.38806,68.28552
1769247755091,-0.80371094,-0.09375,-0.5942383,1.0986328,0.12207031,-1.6479492,0.0,0.0,0.0,-169.60693,53.38806,68.28552
1769247755102,-0.80371094,-0.09375,-0.5942383,1.0986328,0.12207031,-1.6479492,0.0,0.0,0.0,-169.42017,53.33313,68.52173
1769247755190,-0.8017578,-0.1015625,-0.59277344,1.7089844,-0.12207031,-1.2817383,0.0,0.0,0.0,-169.42017,53.33313,68.52173
1769247755202,-0.8017578,-0.1015625,-0.59277344,1.7089844,-0.12207031,-1.2817383,0.0,0.0,0.0,-169.09607,53.272705,68.79089
1769247755290,-0.8066406,-0.1015625,-0.59033203,1.7089844,0.24414062,-0.7324219,0.0,0.0,0.0,-169.09607,53.272705,68.79089
1769247755302,-0.8066406,-0.1015625,-0.59033203,1.7089844,0.24414062,-0.7324219,0.0,0.0,0.0,-168.92029,53.239746,68.89526
1769247755390,-0.80322266,-0.100097656,-0.5932617,-0.18310547,-0.12207031,-0.6713867,0.0,0.0,0.0,-168.92029,53.239746,68.89526
1769247755401,-0.80322266,-0.100097656,-0.5932617,-0.18310547,-0.12207031,-0.6713867,0.0,0.0,0.0,-168.9093,53.223267,68.95569
1769247755489,-0.80126953,-0.10449219,-0.58691406,0.0,-0.4272461,-0.36621094,0.0,0.0,0.0,-168.9093,53.223267,68.95569
1769247755501,-0.80126953,-0.10449219,-0.58691406,0.0,-0.4272461,-0.36621094,0.0,0.0,0.0,-168.89282,53.239746,69.02161
1769247755589,-0.8076172,-0.10644531,-0.5888672,-0.36621094,-0.061035156,-0.18310547,0.0,0.0,0.0,-168.89282,53.239746,69.02161
1769247755601,-0.8076172,-0.10644531,-0.5888672,-0.36621094,-0.061035156,-0.18310547,0.0,0.0,0.0,-168.93677,53.24524,69.071045
1769247755689,-0.80566406,-0.09277344,-0.5957031,-1.0375977,-0.36621094,-0.12207031,0.0,0.0,0.0,-168.93677,53.24524,69.071045
1769247755700,-0.80566406,-0.09277344,-0.5957031,-1.0375977,-0.36621094,-0.12207031,0.0,0.0,0.0,-169.00818,53.272705,69.09302
1769247755789,-0.81396484,-0.10205078,-0.5859375,-2.1362305,-0.61035156,-1.3427734,0.0,0.0,0.0,-169.00818,53.272705,69.09302
1769247755800,-0.81396484,-0.10205078,-0.5859375,-2.1362305,-0.61035156,-1.3427734,0.0,0.0,0.0,-168.95874,53.30017,69.21936
1769247755888,-0.81689453,-0.099121094,-0.59375,-0.91552734,-0.24414062,-2.380371,0.0,0.0,0.0,-168.95874,53.30017,69.21936
1769247755900,-0.81689453,-0.099121094,-0.59375,-0.91552734,-0.24414062,-2.380371,0.0,0.0,0.0,-168.84888,53.305664,69.54895
1769247755988,-0.8046875,-0.11328125,-0.58984375,-0.79345703,-0.8544922,-0.6713867,0.0,0.0,0.0,-168.84888,53.305664,69.54895
1769247755999,-0.8046875,-0.11328125,-0.58984375,-0.79345703,-0.8544922,-0.6713867,0.0,0.0,0.0,-168.85437,53.371582,69.77417
1769247756088,-0.8046875,-0.10058594,-0.5878906,-1.0375977,-1.7700195,-0.8544922,0.0,0.0,0.0,-168.85437,53.371582,69.77417
1769247756099,-0.8046875,-0.10058594,-0.5878906,-1.0375977,-1.7700195,-0.8544922,0.0,0.0,0.0,-168.85986,53.464966,69.91699
1769247756187,-0.81640625,-0.10058594,-0.58984375,1.4038086,0.6713867,0.36621094,0.0,0.0,0.0,-168.85986,53.464966,69.91699
1769247756199,-0.81640625,-0.10058594,-0.58984375,1.4038086,0.6713867,0.36621094,0.0,0.0,0.0,-168.72803,53.503418,70.03235
1769247756287,-0.81591797,-0.10546875,-0.5839844,-0.12207031,-1.4648438,0.061035156,0.0,0.0,0.0,-168.72803,53.503418,70.03235
1769247756299,-0.81591797,-0.10546875,-0.5839844,-0.12207031,-1.4648438,0.061035156,0.0,0.0,0.0,-168.72803,53.536377,69.96094
1769247756387,-0.8071289,-0.10595703,-0.5830078,-1.0986328,-0.48828125,-0.30517578,0.0,0.0,0.0,-168.72803,53.536377,69.96094
1769247756398,-0.8071289,-0.10595703,-0.5830078,-1.0986328,-0.48828125,-0.30517578,0.0,0.0,0.0,-168.73901,53.640747,70.04883
1769247756487,-0.8125,-0.10498047,-0.57958984,-0.4272461,-0.12207031,-0.30517578,0.0,0.0,0.0,-168.73901,53.640747,70.04883
1769247756498,-0.8125,-0.10498047,-0.57958984,-0.4272461,-0.12207031,-0.30517578,0.0,0.0,0.0,-168.7445,53.657227,70.08179
1769247756586,-0.8144531,-0.099609375,-0.58447266,0.18310547,0.0,0.6713867,0.0,0.0,0.0,-168.7445,53.657227,70.08179
1769247756598,-0.8144531,-0.099609375,-0.58447266,0.18310547,0.0,0.6713867,0.0,0.0,0.0,-168.76648,53.668213,70.059814
1769247756686,-0.80908203,-0.104003906,-0.5839844,1.0375977,0.8544922,0.24414062,0.0,0.0,0.0,-168.76648,53.668213,70.059814
1769247756698,-0.80908203,-0.104003906,-0.5839844,1.0375977,0.8544922,0.24414062,0.0,0.0,0.0,-168.81592,53.6792,69.922485
1769247756786,-0.8100586,-0.10546875,-0.58203125,0.7324219,0.4272461,0.30517578,0.0,0.0,0.0,-168.81592,53.6792,69.922485
1769247756797,-0.8100586,-0.10546875,-0.58203125,0.7324219,0.4272461,0.30517578,0.0,0.0,0.0,-168.81042,53.62976,69.86206
1769247756885,-0.8125,-0.09863281,-0.5888672,-0.48828125,0.12207031,0.0,0.0,0.0,0.0,-168.81042,53.62976,69.86206
1769247756897,-0.8125,-0.09863281,-0.5888672,-0.48828125,0.12207031,0.0,0.0,0.0,0.0,-168.87634,53.5968,69.801636
1769247756985,-0.81396484,-0.10107422,-0.58691406,0.4272461,0.36621094,-0.7324219,0.0,0.0,0.0,-168.87634,53.5968,69.801636
1769247756997,-0.81396484,-0.10107422,-0.58691406,0.4272461,0.36621094,-0.7324219,0.0,0.0,0.0,-168.84338,53.580322,69.81262
1769247757085,-0.8076172,-0.107421875,-0.5805664,-0.24414062,0.24414062,-0.8544922,0.0,0.0,0.0,-168.84338,53.580322,69.81262
1769247757096,-0.8076172,-0.107421875,-0.5805664,-0.24414062,0.24414062,-0.8544922,0.0,0.0,0.0,-168.70056,53.503418,69.87854
1769247757184,-0.8046875,-0.10449219,-0.58154297,1.0375977,0.4272461,-0.61035156,0.0,0.0,0.0,-168.70056,53.503418,69.87854
1769247757196,-0.8046875,-0.10449219,-0.58154297,1.0375977,0.4272461,-0.61035156,0.0,0.0,0.0,-168.5852,53.45398,69.971924
1769247757284,-0.8144531,-0.109375,-0.5883789,0.6713867,0.36621094,-0.79345703,0.0,0.0,0.0,-168.5852,53.45398,69.971924
1769247757295,-0.8144531,-0.109375,-0.5883789,0.6713867,0.36621094,-0.79345703,0.0,0.0,0.0,-168.5028,53.410034,70.03235
1769247757384,-0.8051758,-0.10839844,-0.5830078,-0.36621094,0.061035156,-0.36621094,0.0,0.0,0.0,-168.5028,53.410034,70.03235
1769247757395,-0.8051758,-0.10839844,-0.5830078,-0.36621094,0.061035156,-0.36621094,0.0,0.0,0.0,-168.41492,53.38257,70.10376
1769247757483,-0.80810547,-0.10107422,-0.5913086,0.36621094,0.61035156,-0.4272461,0.0,0.0,0.0,-168.41492,53.38257,70.10376
1769247757495,-0.80810547,-0.10107422,-0.5913086,0.36621094,0.61035156,-0.4272461,0.0,0.0,0.0,-168.43689,53.371582,70.09827
1769247757583,-0.81347656,-0.10449219,-0.58691406,0.18310547,0.0,-0.48828125,0.0,0.0,0.0,-168.43689,53.371582,70.09827
1769247757595,-0.81347656,-0.10449219,-0.58691406,0.18310547,0.0,-0.48828125,0.0,0.0,0.0,-168.349,53.344116,70.12573
1769247757683,-0.80322266,-0.111816406,-0.5864258,0.0,0.24414062,0.0,0.0,0.0,0.0,-168.349,53.344116,70.12573
1769247757694,-0.80322266,-0.111816406,-0.5864258,0.0,0.24414062,0.0,0.0,0.0,0.0,-168.33801,53.33313,70.131226
1769247757783,-0.81152344,-0.11425781,-0.5864258,-0.12207031,0.12207031,-0.79345703,0.0,0.0,0.0,-168.33801,53.33313,70.131226
1769247757794,-0.81152344,-0.11425781,-0.5864258,-0.12207031,0.12207031,-0.79345703,0.0,0.0,0.0,-168.31604,53.311157,70.164185
1769247757882,-0.80615234,-0.10449219,-0.5942383,0.36621094,0.48828125,-0.18310547,0.0,0.0,0.0,-168.31604,53.311157,70.164185
1769247757894,-0.80615234,-0.10449219,-0.5942383,0.36621094,0.48828125,-0.18310547,0.0,0.0,0.0,-168.2666,53.2782,70.24658
1769247757982,-0.8071289,-0.11621094,-0.58496094,0.36621094,0.79345703,-0.24414062,0.0,0.0,0.0,-168.2666,53.2782,70.24658
1769247757993,-0.8071289,-0.11621094,-0.58496094,0.36621094,0.79345703,-0.24414062,0.0,0.0,0.0,-168.2721,53.21228,70.235596
1769247758081,-0.8041992,-0.115234375,-0.5830078,-0.061035156,0.061035156,-0.18310547,0.0,0.0,0.0,-168.2721,53.21228,70.235596
1769247758093,-0.8041992,-0.115234375,-0.5830078,-0.061035156,0.061035156,-0.18310547,0.0,0.0,0.0,-168.28308,53.184814,70.21912
1769247758181,-0.8095703,-0.10644531,-0.59765625,0.18310547,-1.159668,-0.30517578,0.0,0.0,0.0,-168.28308,53.184814,70.21912
1769247758193,-0.8095703,-0.10644531,-0.59765625,0.18310547,-1.159668,-0.30517578,0.0,0.0,0.0,-168.28857,53.234253,70.252075
1769247758281,-0.80859375,-0.110839844,-0.5888672,0.61035156,-1.159668,-0.6713867,0.0,0.0,0.0,-168.28857,53.234253,70.252075
1769247758292,-0.80859375,-0.110839844,-0.5888672,0.61035156,-1.159668,-0.6713867,0.0,0.0,0.0,-168.23914,53.355103,70.29053
1769247758381,-0.8071289,-0.111816406,-0.58447266,0.7324219,-1.8310547,-0.61035156,0.0,0.0,0.0,-168.23914,53.355103,70.29053
1769247758392,-0.8071289,-0.111816406,-0.58447266,0.7324219,-1.8310547,-0.61035156,0.0,0.0,0.0,-168.07983,53.475952,70.40588
1769247758480,-0.8095703,-0.11376953,-0.5786133,0.5493164,-1.159668,-1.0986328,0.0,0.0,0.0,-168.07983,53.475952,70.40588
1769247758492,-0.8095703,-0.11376953,-0.5786133,0.5493164,-1.159668,-1.0986328,0.0,0.0,0.0,-167.88757,53.607788,70.52673
1769247758580,-0.8173828,-0.11279297,-0.58154297,1.4038086,-1.2817383,-1.159668,0.0,0.0,0.0,-167.88757,53.607788,70.52673
1769247758591,-0.8173828,-0.11279297,-0.58154297,1.4038086,-1.2817383,-1.159668,0.0,0.0,0.0,-167.7063,53.69568,70.7135
1769247758680,-0.81591797,-0.12451172,-0.57470703,0.9765625,-0.12207031,-1.2207031,0.0,0.0,0.0,-167.7063,53.69568,70.7135
1769247758691,-0.81591797,-0.12451172,-0.57470703,0.9765625,-0.12207031,-1.2207031,0.0,0.0,0.0,-167.48108,53.723145,70.8728
1769247758779,-0.81103516,-0.12158203,-0.57910156,0.12207031,0.5493164,-0.48828125,0.0,0.0,0.0,-167.48108,53.723145,70.8728
1769247758791,-0.81103516,-0.12158203,-0.57910156,0.12207031,0.5493164,-0.48828125,0.0,0.0,0.0,-167.34924,53.71216,70.97717
1769247758879,-0.81152344,-0.12011719,-0.56933594,-0.79345703,0.0,-0.48828125,0.0,0.0,0.0,-167.34924,53.71216,70.97717
1769247758891,-0.81152344,-0.12011719,-0.56933594,-0.79345703,0.0,-0.48828125,0.0,0.0,0.0,-167.3053,53.70117,71.02661
1769247758979,-0.81396484,-0.12207031,-0.57714844,-1.4648438,0.5493164,0.0,0.0,0.0,0.0,-167.3053,53.70117,71.02661
1769247758991,-0.81396484,-0.12207031,-0.57714844,-1.4648438,0.5493164,0.0,0.0,0.0,0.0,-167.34924,53.684692,71.04309
1769247759078,-0.8125,-0.119628906,-0.57958984,-1.953125,1.3427734,-0.9765625,0.0,0.0,0.0,-167.34924,53.684692,71.04309
1769247759090,-0.8125,-0.119628906,-0.57958984,-1.953125,1.3427734,-0.9765625,0.0,0.0,0.0,-167.50305,53.57483,71.04309
1769247759178,-0.8041992,-0.11767578,-0.5776367,-2.5024414,-1.4648438,-2.4414062,0.0,0.0,0.0,-167.50305,53.57483,71.04309
1769247759190,-0.8041992,-0.11767578,-0.5776367,-2.5024414,-1.4648438,-2.4414062,0.0,0.0,0.0,-167.36572,53.602295,71.378174
1769247759278,-0.80908203,-0.11621094,-0.57910156,-3.7841797,-0.24414062,-0.36621094,0.0,0.0,0.0,-167.36572,53.602295,71.378174
1769247759289,-0.80908203,-0.11621094,-0.57910156,-3.7841797,-0.24414062,-0.36621094,0.0,0.0,0.0,-167.49756,53.706665,71.63086
1769247759378,-0.8198242,-0.12548828,-0.5786133,0.061035156,1.4038086,0.48828125,0.0,0.0,0.0,-167.49756,53.706665,71.63086
1769247759389,-0.8198242,-0.12548828,-0.5786133,0.061035156,1.4038086,0.48828125,0.0,0.0,0.0,-167.68433,53.618774,71.49902
1769247759477,-0.80126953,-0.11425781,-0.5698242,-5.004883,0.0,0.18310547,0.0,0.0,0.0,-167.68433,53.618774,71.49902
1769247759489,-0.80126953,-0.11425781,-0.5698242,-5.004883,0.0,0.18310547,0.0,0.0,0.0,-167.99744,53.48694,71.38367
1769247759579,-0.79589844,-0.11816406,-0.59521484,-5.6152344,-11.047363,2.8076172,0.0,0.0,0.0,-167.99744,53.48694,71.38367
1769247759589,-0.79589844,-0.11816406,-0.59521484,-5.6152344,-11.047363,2.8076172,0.0,0.0,0.0,-168.41492,53.849487,71.328735
1769247759677,-0.7895508,-0.104003906,-0.58203125,-5.1879883,-23.376465,-2.6855469,0.0,0.0,0.0,-168.41492,53.849487,71.328735
1769247759688,-0.7895508,-0.104003906,-0.58203125,-5.1879883,-23.376465,-2.6855469,0.0,0.0,0.0,-168.94226,55.15686,71.48804
1769247759776,-0.82177734,-0.08984375,-0.5444336,-6.713867,-33.14209,-1.4038086,0.0,0.0,0.0,-168.94226,55.15686,71.48804
1769247759788,-0.82177734,-0.08984375,-0.5444336,-6.713867,-33.14209,-1.4038086,0.0,0.0,0.0,-168.57971,57.854004,72.855835
1769247759876,-0.82958984,-0.11376953,-0.5136719,1.953125,-26.97754,-4.4555664,0.0,0.0,0.0,-168.57971,57.854004,72.855835
1769247759888,-0.82958984,-0.11376953,-0.5136719,1.953125,-26.97754,-4.4555664,0.0,0.0,0.0,-167.71729,60.22705,74.21814
1769247759976,-0.8808594,-0.087402344,-0.43603516,11.71875,-32.77588,0.9765625,0.0,0.0,0.0,-167.71729,60.22705,74.21814
1769247759988,-0.8808594,-0.087402344,-0.43603516,11.71875,-32.77588,0.9765625,0.0,0.0,0.0,-165.6958,62.660522,75.877075
1769247760075,-0.9291992,-0.12646484,-0.34765625,9.277344,-39.0625,-2.0751953,0.0,0.0,0.0,-165.6958,62.660522,75.877075
1769247760087,-0.9291992,-0.12646484,-0.34765625,9.277344,-39.0625,-2.0751953,0.0,0.0,0.0,-162.68005,66.25305,77.508545
1769247760175,-0.97753906,-0.072265625,-0.30419922,3.479004,-26.855469,-9.765625,0.0,0.0,0.0,-162.68005,66.25305,77.508545
1769247760186,-0.97753906,-0.072265625,-0.30419922,3.479004,-26.855469,-9.765625,0.0,0.0,0.0,-159.14246,69.45557,80.47485
1769247760275,-0.99609375,-0.15332031,-0.2109375,10.559082,-28.259277,-1.0986328,0.0,0.0,0.0,-159.14246,69.45557,80.47485
1769247760286,-0.99609375,-0.15332031,-0.2109375,10.559082,-28.259277,-1.0986328,0.0,0.0,0.0,-155.14343,72.06482,83.430176
1769247760374,-0.9980469,-0.13867188,-0.1616211,6.5307617,-21.972656,-7.019043,0.0,0.0,0.0,-155.14343,72.06482,83.430176
1769247760386,-0.9980469,-0.13867188,-0.1616211,6.5307617,-21.972656,-7.019043,0.0,0.0,0.0,-148.1726,74.141235,88.895874
1769247760474,-0.9819336,-0.13134766,-0.171875,-0.9765625,-13.183594,-0.9765625,0.0,0.0,0.0,-148.1726,74.141235,88.895874
1769247760486,-0.9819336,-0.13134766,-0.171875,-0.9765625,-13.183594,-0.9765625,0.0,0.0,0.0,-143.53638,75.4541,93.03223
1769247760574,-0.9824219,-0.1508789,-0.14404297,0.12207031,-2.0141602,-2.6245117,0.0,0.0,0.0,-143.53638,75.4541,93.03223
1769247760585,-0.9824219,-0.1508789,-0.14404297,0.12207031,-2.0141602,-2.6245117,0.0,0.0,0.0,-141.28967,76.08032,94.87793
1769247760673,-0.97314453,-0.14404297,-0.16552734,-0.30517578,3.1738281,-0.9765625,0.0,0.0,0.0,-141.28967,76.08032,94.87793
1769247760685,-0.97314453,-0.14404297,-0.16552734,-0.30517578,3.1738281,-0.9765625,0.0,0.0,0.0,-140.49866,75.97595,95.26245
1769247760773,-0.9824219,-0.15478516,-0.18701172,1.0986328,5.2490234,1.7700195,0.0,0.0,0.0,-140.49866,75.97595,95.26245
1769247760785,-0.9824219,-0.15478516,-0.18701172,1.0986328,5.2490234,1.7700195,0.0,0.0,0.0,-141.38855,75.789185,93.812256
1769247760873,-0.95996094,-0.14257812,-0.17871094,0.12207031,6.164551,0.61035156,0.0,0.0,0.0,-141.38855,75.789185,93.812256
1769247760885,-0.95996094,-0.14257812,-0.17871094,0.12207031,6.164551,0.61035156,0.0,0.0,0.0,-142.97058,75.43213,91.6095
1769247760973,-0.9790039,-0.14501953,-0.20507812,-0.48828125,2.1972656,0.79345703,0.0,0.0,0.0,-142.97058,75.43213,91.6095
1769247760984,-0.9790039,-0.14501953,-0.20507812,-0.48828125,2.1972656,0.79345703,0.0,0.0,0.0,-143.9978,75.250854,90.17578
1769247761072,-0.96728516,-0.140625,-0.19580078,-0.12207031,1.2817383,0.12207031,0.0,0.0,0.0,-143.9978,75.250854,90.17578
1769247761084,-0.96728516,-0.140625,-0.19580078,-0.12207031,1.2817383,0.12207031,0.0,0.0,0.0,-144.44824,75.130005,89.384766
1769247761172,-0.97021484,-0.1430664,-0.19970703,0.5493164,0.18310547,-0.36621094,0.0,0.0,0.0,-144.44824,75.130005,89.384766
1769247761184,-0.97021484,-0.1430664,-0.19970703,0.5493164,0.18310547,-0.36621094,0.0,0.0,0.0,-144.52515,75.11902,88.91785
1769247761272,-0.9692383,-0.14453125,-0.19628906,0.48828125,0.0,-0.7324219,0.0,0.0,0.0,-144.52515,75.11902,88.91785
1769247761283,-0.9692383,-0.14453125,-0.19628906,0.48828125,0.0,-0.7324219,0.0,0.0,0.0,-144.29443,75.08606,88.78601
1769247761371,-0.9667969,-0.14550781,-0.19726562,0.061035156,0.5493164,-0.7324219,0.0,0.0,0.0,-144.29443,75.08606,88.78601
1769247761383,-0.9667969,-0.14550781,-0.19726562,0.061035156,0.5493164,-0.7324219,0.0,0.0,0.0,-144.06921,75.03113,88.70361
1769247761471,-0.9741211,-0.14794922,-0.2006836,0.4272461,1.0375977,-0.6713867,0.0,0.0,0.0,-144.06921,75.03113,88.70361
1769247761483,-0.9741211,-0.14794922,-0.2006836,0.4272461,1.0375977,-0.6713867,0.0,0.0,0.0,-144.04724,74.937744,88.42346
1769247761571,-0.96875,-0.15185547,-0.2006836,0.061035156,1.0986328,-0.061035156,0.0,0.0,0.0,-144.04724,74.937744,88.42346
1769247761582,-0.96875,-0.15185547,-0.2006836,0.061035156,1.0986328,-0.061035156,0.0,0.0,0.0,-144.00879,74.85535,88.132324
1769247761670,-0.9658203,-0.15039062,-0.20703125,-0.36621094,0.5493164,0.061035156,0.0,0.0,0.0,-144.00879,74.85535,88.132324
1769247761682,-0.9658203,-0.15039062,-0.20703125,-0.36621094,0.5493164,0.061035156,0.0,0.0,0.0,-144.15161,74.82788,87.70935
1769247761770,-0.96972656,-0.14404297,-0.20361328,-0.79345703,0.061035156,-0.12207031,0.0,0.0,0.0,-144.15161,74.82788,87.70935
1769247761782,-0.96972656,-0.14404297,-0.20361328,-0.79345703,0.061035156,-0.12207031,0.0,0.0,0.0,-144.17908,74.82788,87.50061
1769247761870,-0.96777344,-0.14697266,-0.2006836,0.5493164,-0.36621094,-1.0986328,0.0,0.0,0.0,-144.17908,74.82788,87.50061
1769247761881,-0.96777344,-0.14697266,-0.2006836,0.5493164,-0.36621094,-1.0986328,0.0,0.0,0.0,-143.88245,74.85535,87.577515
1769247761970,-0.9711914,-0.15332031,-0.20654297,0.5493164,-0.5493164,-0.91552734,0.0,0.0,0.0,-143.88245,74.85535,87.577515
1769247761981,-0.9711914,-0.15332031,-0.20654297,0.5493164,-0.5493164,-0.91552734,0.0,0.0,0.0,-143.41553,74.85535,87.79175
1769247762069,-0.97265625,-0.15234375,-0.20214844,0.4272461,0.18310547,-0.4272461,0.0,0.0,0.0,-143.41553,74.85535,87.79175
1769247762081,-0.97265625,-0.15234375,-0.20214844,0.4272461,0.18310547,-0.4272461,0.0,0.0,0.0,-143.2013,74.82239,87.7478
1769247762169,-0.9692383,-0.15234375,-0.20507812,-0.12207031,-0.18310547,-0.12207031,0.0,0.0,0.0,-143.2013,74.82239,87.7478
1769247762181,-0.9692383,-0.15234375,-0.20507812,-0.12207031,-0.18310547,-0.12207031,0.0,0.0,0.0,-143.10791,74.80591,87.63794
1769247762269,-0.9663086,-0.15673828,-0.20166016,-0.24414062,0.12207031,0.0,0.0,0.0,0.0,-143.10791,74.80591,87.63794
1769247762280,-0.9663086,-0.15673828,-0.20166016,-0.24414062,0.12207031,0.0,0.0,0.0,0.0,-143.1134,74.77844,87.440186
1769247762368,-0.9682617,-0.15429688,-0.20751953,-0.36621094,0.12207031,0.0,0.0,0.0,0.0,-143.1134,74.77844,87.440186
1769247762380,-0.9682617,-0.15429688,-0.20751953,-0.36621094,0.12207031,0.0,0.0,0.0,0.0,-143.15735,74.77295,87.22046
1769247762468,-0.9663086,-0.15039062,-0.19873047,0.30517578,0.48828125,-0.48828125,0.0,0.0,0.0,-143.15735,74.77295,87.22046
1769247762480,-0.9663086,-0.15039062,-0.19873047,0.30517578,0.48828125,-0.48828125,0.0,0.0,0.0,-143.21228,74.72351,87.00073
1769247762568,-0.96728516,-0.1538086,-0.2055664,0.61035156,2.6855469,-2.1362305,0.0,0.0,0.0,-143.21228,74.72351,87.00073
1769247762579,-0.96728516,-0.1538086,-0.2055664,0.61035156,2.6855469,-2.1362305,0.0,0.0,0.0,-143.09692,74.54773,86.87439
1769247762667,-0.97021484,-0.1586914,-0.20898438,-0.30517578,0.12207031,-0.48828125,0.0,0.0,0.0,-143.09692,74.54773,86.87439
1769247762679,-0.97021484,-0.1586914,-0.20898438,-0.30517578,0.12207031,-0.48828125,0.0,0.0,0.0,-142.89917,74.46533,86.885376
1769247762767,-0.96777344,-0.15966797,-0.20751953,-0.24414062,0.36621094,-0.30517578,0.0,0.0,0.0,-142.89917,74.46533,86.885376
1769247762779,-0.96777344,-0.15966797,-0.20751953,-0.24414062,0.36621094,-0.30517578,0.0,0.0,0.0,-142.85522,74.40491,86.77002
1769247762867,-0.9682617,-0.15673828,-0.20996094,-0.12207031,0.7324219,-0.24414062,0.0,0.0,0.0,-142.85522,74.40491,86.77002
1769247762878,-0.9682617,-0.15673828,-0.20996094,-0.12207031,0.7324219,-0.24414062,0.0,0.0,0.0,-142.89368,74.37195,86.588745
1769247762966,-0.9667969,-0.15722656,-0.21240234,0.12207031,0.4272461,-0.18310547,0.0,0.0,0.0,-142.89368,74.37195,86.588745
1769247762978,-0.9667969,-0.15722656,-0.21240234,0.12207031,0.4272461,-0.18310547,0.0,0.0,0.0,-142.89917,74.328,86.41846
1769247763066,-0.9658203,-0.1586914,-0.2133789,0.0,0.0,-0.24414062,0.0,0.0,0.0,-142.89917,74.328,86.41846
1769247763078,-0.9658203,-0.1586914,-0.2133789,0.0,0.0,-0.24414062,0.0,0.0,0.0,-142.83325,74.30603,86.31409
1769247763166,-0.96728516,-0.15771484,-0.2109375,-0.12207031,0.0,-0.12207031,0.0,0.0,0.0,-142.83325,74.30603,86.31409
1769247763178,-0.96728516,-0.15771484,-0.2109375,-0.12207031,0.0,-0.12207031,0.0,0.0,0.0,-142.76184,74.31152,86.23718
1769247763266,-0.96777344,-0.15917969,-0.21142578,-0.061035156,-0.061035156,-0.12207031,0.0,0.0,0.0,-142.76184,74.31152,86.23718
1769247763277,-0.96777344,-0.15917969,-0.21142578,-0.061035156,-0.061035156,-0.12207031,0.0,0.0,0.0,-142.7124,74.32251,86.14929
1769247763365,-0.9667969,-0.16113281,-0.21142578,0.0,-0.24414062,-0.061035156,0.0,0.0,0.0,-142.7124,74.32251,86.14929
1769247763377,-0.9667969,-0.16113281,-0.21142578,0.0,-0.24414062,-0.061035156,0.0,0.0,0.0,-142.68494,74.32251,86.02295
1769247763465,-0.96435547,-0.1586914,-0.2109375,0.18310547,0.0,-0.24414062,0.0,0.0,0.0,-142.68494,74.32251,86.02295
1769247763477,-0.96435547,-0.1586914,-0.2109375,0.18310547,0.0,-0.24414062,0.0,0.0,0.0,-142.59705,74.32251,85.979004
1769247763565,-0.96728516,-0.1640625,-0.21240234,0.12207031,-0.24414062,0.0,0.0,0.0,0.0,-142.59705,74.32251,85.979004
1769247763576,-0.96728516,-0.1640625,-0.21240234,0.12207031,-0.24414062,0.0,0.0,0.0,0.0,-142.48718,74.32251,85.96802
1769247763664,-0.9667969,-0.16210938,-0.2055664,-0.061035156,-0.24414062,-0.30517578,0.0,0.0,0.0,-142.48718,74.32251,85.96802
1769247763676,-0.9667969,-0.16210938,-0.2055664,-0.061035156,-0.24414062,-0.30517578,0.0,0.0,0.0,-142.43774,74.32251,85.89111
1769247763764,-0.9663086,-0.16259766,-0.2084961,-0.061035156,0.0,-0.79345703,0.0,0.0,0.0,-142.43774,74.32251,85.89111
1769247763776,-0.9663086,-0.16259766,-0.2084961,-0.061035156,0.0,-0.79345703,0.0,0.0,0.0,-142.2345,74.295044,85.95703
1769247763864,-0.96191406,-0.1640625,-0.20947266,0.48828125,-0.36621094,-0.5493164,0.0,0.0,0.0,-142.2345,74.295044,85.95703
1769247763875,-0.96191406,-0.1640625,-0.20947266,0.48828125,-0.36621094,-0.5493164,0.0,0.0,0.0,-142.03674,74.278564,86.02295
1769247763963,-0.9658203,-0.16845703,-0.20703125,0.12207031,-0.30517578,0.0,0.0,0.0,0.0,-142.03674,74.278564,86.02295
1769247763975,-0.9658203,-0.16845703,-0.20703125,0.12207031,-0.30517578,0.0,0.0,0.0,0.0,-141.84448,74.27307,86.04492
1769247764063,-0.96777344,-0.16503906,-0.20703125,0.30517578,-0.24414062,-0.12207031,0.0,0.0,0.0,-141.84448,74.27307,86.04492
1769247764075,-0.96777344,-0.16503906,-0.20703125,0.30517578,-0.24414062,-0.12207031,0.0,0.0,0.0,-141.71265,74.30603,86.03943
1769247764163,-0.9658203,-0.16259766,-0.21044922,0.061035156,-0.5493164,-0.061035156,0.0,0.0,0.0,-141.71265,74.30603,86.03943
1769247764174,-0.9658203,-0.16259766,-0.21044922,0.061035156,-0.5493164,-0.061035156,0.0,0.0,0.0,-141.58081,74.35547,86.09436
1769247764263,-0.9692383,-0.16064453,-0.20703125,0.48828125,-0.48828125,-0.48828125,0.0,0.0,0.0,-141.58081,74.35547,86.09436
1769247764274,-0.9692383,-0.16064453,-0.20703125,0.48828125,-0.48828125,-0.48828125,0.0,0.0,0.0,-141.42151,74.38843,86.154785
1769247764362,-0.9658203,-0.16992188,-0.20410156,-0.4272461,0.061035156,0.24414062,0.0,0.0,0.0,-141.42151,74.38843,86.154785
1769247764374,-0.9658203,-0.16992188,-0.20410156,-0.4272461,0.061035156,0.24414062,0.0,0.0,0.0,-141.25671,74.40491,86.2262
1769247764462,-0.9638672,-0.1640625,-0.20703125,0.0,0.12207031,0.24414062,0.0,0.0,0.0,-141.25671,74.40491,86.2262
1769247764473,-0.9638672,-0.1640625,-0.20703125,0.0,0.12207031,0.24414062,0.0,0.0,0.0,-141.32263,74.399414,86.09985
1769247764562,-0.9658203,-0.16601562,-0.20605469,0.36621094,-0.061035156,-0.18310547,0.0,0.0,0.0,-141.32263,74.399414,86.09985
1769247764573,-0.9658203,-0.16601562,-0.20605469,0.36621094,-0.061035156,-0.18310547,0.0,0.0,0.0,-141.30066,74.42139,86.00647
1769247764661,-0.96533203,-0.16503906,-0.20507812,0.0,-0.6713867,0.24414062,0.0,0.0,0.0,-141.30066,74.42139,86.00647
1769247764673,-0.96533203,-0.16503906,-0.20507812,0.0,-0.6713867,0.24414062,0.0,0.0,0.0,-141.20728,74.45984,86.02295
1769247764761,-0.96875,-0.16259766,-0.2084961,0.12207031,-0.5493164,0.061035156,0.0,0.0,0.0,-141.20728,74.45984,86.02295
1769247764773,-0.96875,-0.16259766,-0.2084961,0.12207031,-0.5493164,0.061035156,0.0,0.0,0.0,-141.1084,74.51477,86.07239
1769247764861,-0.96533203,-0.16357422,-0.2006836,-0.061035156,-0.6713867,0.12207031,0.0,0.0,0.0,-141.1084,74.51477,86.07239
1769247764872,-0.96533203,-0.16357422,-0.2006836,-0.061035156,-0.6713867,0.12207031,0.0,0.0,0.0,-141.00403,74.575195,86.121826
1769247764961,-0.96728516,-0.16308594,-0.20019531,-0.24414062,-0.30517578,0.12207031,0.0,0.0,0.0,-141.00403,74.575195,86.121826
1769247764972,-0.96728516,-0.16308594,-0.20019531,-0.24414062,-0.30517578,0.12207031,0.0,0.0,0.0,-140.93262,74.62463,86.171265
1769247765060,-0.96875,-0.16455078,-0.20410156,-0.36621094,-0.4272461,-0.12207031,0.0,0.0,0.0,-140.93262,74.62463,86.171265
1769247765072,-0.96875,-0.16455078,-0.20410156,-0.36621094,-0.4272461,-0.12207031,0.0,0.0,0.0,-140.93262,74.62463,86.1438
1769247765160,-0.9667969,-0.15625,-0.19921875,0.7324219,0.30517578,-0.61035156,0.0,0.0,0.0,-140.93262,74.62463,86.1438
1769247765171,-0.9667969,-0.15625,-0.19921875,0.7324219,0.30517578,-0.61035156,0.0,0.0,0.0,-140.72388,74.63562,86.31958
1769247765260,-0.9667969,-0.16796875,-0.20214844,-0.061035156,0.48828125,-0.7324219,0.0,0.0,0.0,-140.72388,74.63562,86.31958
1769247765271,-0.9667969,-0.16796875,-0.20214844,-0.061035156,0.48828125,-0.7324219,0.0,0.0,0.0,-140.56458,74.58618,86.40747
1769247765359,-0.96240234,-0.16503906,-0.19970703,0.30517578,0.61035156,-1.4038086,0.0,0.0,0.0,-140.56458,74.58618,86.40747
1769247765371,-0.96240234,-0.16503906,-0.19970703,0.30517578,0.61035156,-1.4038086,0.0,0.0,0.0,-140.31189,74.48181,86.605225
1769247765459,-0.96533203,-0.17089844,-0.20117188,0.0,0.9765625,-0.24414062,0.0,0.0,0.0,-140.31189,74.48181,86.605225
1769247765471,-0.96533203,-0.17089844,-0.20117188,0.0,0.9765625,-0.24414062,0.0,0.0,0.0,-140.23499,74.38843,86.6272
1769247765559,-0.9658203,-0.16796875,-0.20898438,0.12207031,0.91552734,-0.24414062,0.0,0.0,0.0,-140.23499,74.38843,86.6272
1769247765570,-0.9658203,-0.16796875,-0.20898438,0.12207031,0.91552734,-0.24414062,0.0,0.0,0.0,-140.34485,74.30603,86.47888
1769247765658,-0.9658203,-0.171875,-0.20507812,0.0,0.48828125,0.0,0.0,0.0,0.0,-140.34485,74.30603,86.47888
1769247765670,-0.9658203,-0.171875,-0.20507812,0.0,0.48828125,0.0,0.0,0.0,0.0,-140.4657,74.2511,86.32507
1769247765758,-0.96533203,-0.16699219,-0.20703125,0.18310547,0.6713867,-0.061035156,0.0,0.0,0.0,-140.4657,74.2511,86.32507
1769247765770,-0.96533203,-0.16699219,-0.20703125,0.18310547,0.6713867,-0.061035156,0.0,0.0,0.0,-140.55908,74.22363,86.21521
1769247765858,-0.96777344,-0.16894531,-0.20996094,-0.8544922,0.48828125,-0.61035156,0.0,0.0,0.0,-140.55908,74.22363,86.21521
1769247765869,-0.96777344,-0.16894531,-0.20996094,-0.8544922,0.48828125,-0.61035156,0.0,0.0,0.0,-140.6195,74.16321,86.16577
1769247765958,-0.96240234,-0.16748047,-0.20751953,0.12207031,0.24414062,-0.18310547,0.0,0.0,0.0,-140.6195,74.16321,86.16577
1769247765969,-0.96240234,-0.16748047,-0.20751953,0.12207031,0.24414062,-0.18310547,0.0,0.0,0.0,-140.68542,74.11926,86.08887
1769247766057,-0.96533203,-0.16845703,-0.2109375,0.4272461,0.061035156,-0.061035156,0.0,0.0,0.0,-140.68542,74.11926,86.08887
1769247766069,-0.96533203,-0.16845703,-0.2109375,0.4272461,0.061035156,-0.061035156,0.0,0.0,0.0,-140.59753,74.0863,86.09985
1769247766157,-0.9638672,-0.17382812,-0.20996094,0.0,0.24414062,-0.24414062,0.0,0.0,0.0,-140.59753,74.0863,86.09985
1769247766168,-0.9638672,-0.17382812,-0.20996094,0.0,0.24414062,-0.24414062,0.0,0.0,0.0,-140.5426,74.04236,86.10535
1769247766257,-0.96533203,-0.17041016,-0.21240234,-0.4272461,0.48828125,-0.12207031,0.0,0.0,0.0,-140.5426,74.04236,86.10535
1769247766268,-0.96533203,-0.17041016,-0.21240234,-0.4272461,0.48828125,-0.12207031,0.0,0.0,0.0,-140.6195,73.99292,86.01196
1769247766356,-0.9638672,-0.16992188,-0.21240234,0.24414062,0.0,-0.5493164,0.0,0.0,0.0,-140.6195,73.99292,86.01196
1769247766368,-0.9638672,-0.16992188,-0.21240234,0.24414062,0.0,-0.5493164,0.0,0.0,0.0,-140.57556,73.97095,86.03943
1769247766456,-0.96435547,-0.17333984,-0.21191406,0.4272461,-0.4272461,-0.61035156,0.0,0.0,0.0,-140.57556,73.97095,86.03943
1769247766468,-0.96435547,-0.17333984,-0.21191406,0.4272461,-0.4272461,-0.61035156,0.0,0.0,0.0,-140.33386,73.95447,86.23718
1769247766556,-0.9633789,-0.17578125,-0.20361328,-0.48828125,0.18310547,-0.24414062,0.0,0.0,0.0,-140.33386,73.95447,86.23718
1769247766567,-0.9633789,-0.17578125,-0.20361328,-0.48828125,0.18310547,-0.24414062,0.0,0.0,0.0,-140.18005,73.927,86.35254
1769247766655,-0.9638672,-0.16894531,-0.21533203,-1.2817383,0.6713867,-0.061035156,0.0,0.0,0.0,-140.18005,73.927,86.35254
1769247766667,-0.9638672,-0.16894531,-0.21533203,-1.2817383,0.6713867,-0.061035156,0.0,0.0,0.0,-140.3009,73.87207,86.28662
1769247766755,-0.9638672,-0.17529297,-0.21142578,0.24414062,0.30517578,0.0,0.0,0.0,0.0,-140.3009,73.87207,86.28662
1769247766767,-0.9638672,-0.17529297,-0.21142578,0.24414062,0.30517578,0.0,0.0,0.0,0.0,-140.51514,73.81714,86.07239
1769247766855,-0.9589844,-0.17236328,-0.21435547,0.24414062,0.61035156,-0.4272461,0.0,0.0,0.0,-140.51514,73.81714,86.07239
1769247766866,-0.9589844,-0.17236328,-0.21435547,0.24414062,0.61035156,-0.4272461,0.0,0.0,0.0,-140.4657,73.77869,86.066895
1769247766955,-0.96533203,-0.17382812,-0.21142578,0.18310547,0.0,-0.18310547,0.0,0.0,0.0,-140.4657,73.77869,86.066895
1769247766966,-0.96533203,-0.17382812,-0.21142578,0.18310547,0.0,-0.18310547,0.0,0.0,0.0,-140.43274,73.74573,86.0614
1769247767054,-0.9667969,-0.17675781,-0.21240234,-0.4272461,0.12207031,-0.36621094,0.0,0.0,0.0,-140.43274,73.74573,86.0614
1769247767066,-0.9667969,-0.17675781,-0.21240234,-0.4272461,0.12207031,-0.36621094,0.0,0.0,0.0,-140.32837,73.723755,86.10535
1769247767154,-0.9604492,-0.17041016,-0.22265625,-0.36621094,0.0,0.0,0.0,0.0,0.0,-140.32837,73.723755,86.10535
1769247767166,-0.9604492,-0.17041016,-0.22265625,-0.36621094,0.0,0.0,0.0,0.0,0.0,-140.36133,73.71277,86.13281
1769247767254,-0.96777344,-0.18164062,-0.21191406,1.2817383,0.18310547,0.0,0.0,0.0,0.0,-140.36133,73.71277,86.13281
1769247767265,-0.96777344,-0.18164062,-0.21191406,1.2817383,0.18310547,0.0,0.0,0.0,0.0,-140.28442,73.6853,86.066895
1769247767353,-0.9633789,-0.17578125,-0.21533203,0.0,-0.36621094,0.0,0.0,0.0,0.0,-140.28442,73.6853,86.066895
1769247767365,-0.9633789,-0.17578125,-0.21533203,0.0,-0.36621094,0.0,0.0,0.0,0.0,-140.15808,73.69629,86.154785
1769247767453,-0.9614258,-0.17773438,-0.21289062,0.4272461,-0.36621094,-0.061035156,0.0,0.0,0.0,-140.15808,73.69629,86.154785
1769247767465,-0.9614258,-0.17773438,-0.21289062,0.4272461,-0.36621094,-0.061035156,0.0,0.0,0.0,-140.07568,73.71277,86.2207
1769247767553,-0.9633789,-0.17626953,-0.21289062,0.0,-0.91552734,0.0,0.0,0.0,0.0,-140.07568,73.71277,86.2207
1769247767565,-0.9633789,-0.17626953,-0.21289062,0.0,-0.91552734,0.0,0.0,0.0,0.0,-139.86145,73.7677,86.41846
1769247767652,-0.96240234,-0.17529297,-0.21044922,0.24414062,-0.6713867,0.0,0.0,0.0,0.0,-139.86145,73.7677,86.41846
1769247767664,-0.96240234,-0.17529297,-0.21044922,0.24414062,-0.6713867,0.0,0.0,0.0,0.0,-139.67468,73.83362,86.61072
1769247767752,-0.96728516,-0.17578125,-0.21142578,0.061035156,-0.61035156,0.0,0.0,0.0,0.0,-139.67468,73.83362,86.61072
1769247767764,-0.96728516,-0.17578125,-0.21142578,0.061035156,-0.61035156,0.0,0.0,0.0,0.0,-139.51538,73.87756,86.74255
1769247767852,-0.9604492,-0.17578125,-0.20458984,0.0,-0.30517578,0.36621094,0.0,0.0,0.0,-139.51538,73.87756,86.74255
1769247767863,-0.9604492,-0.17578125,-0.20458984,0.0,-0.30517578,0.36621094,0.0,0.0,0.0,-139.40552,73.92151,86.84143
1769247767952,-0.96240234,-0.1743164,-0.2084961,-0.18310547,-0.30517578,0.061035156,0.0,0.0,0.0,-139.40552,73.92151,86.84143
1769247767963,-0.96240234,-0.1743164,-0.2084961,-0.18310547,-0.30517578,0.061035156,0.0,0.0,0.0,-139.47144,73.948975,86.781006
1769247768051,-0.96484375,-0.17578125,-0.2055664,0.18310547,0.30517578,-0.061035156,0.0,0.0,0.0,-139.47144,73.948975,86.781006
1769247768063,-0.96484375,-0.17578125,-0.2055664,0.18310547,0.30517578,-0.061035156,0.0,0.0,0.0,-139.46045,73.95996,86.77002
1769247768151,-0.9628906,-0.1772461,-0.20605469,0.30517578,0.48828125,-0.061035156,0.0,0.0,0.0,-139.46045,73.95996,86.77002
1769247768162,-0.9628906,-0.1772461,-0.20605469,0.30517578,0.48828125,-0.061035156,0.0,0.0,0.0,-139.5044,73.93799,86.68213
1769247768251,-0.9638672,-0.17675781,-0.20751953,-0.36621094,1.0375977,0.18310547,0.0,0.0,0.0,-139.5044,73.93799,86.68213
1769247768262,-0.9638672,-0.17675781,-0.20751953,-0.36621094,1.0375977,0.18310547,0.0,0.0,0.0,-139.64722,73.88855,86.49536
1769247768350,-0.96533203,-0.1743164,-0.21240234,-0.18310547,0.91552734,-0.18310547,0.0,0.0,0.0,-139.64722,73.88855,86.49536
1769247768362,-0.96533203,-0.1743164,-0.21240234,-0.18310547,0.91552734,-0.18310547,0.0,0.0,0.0,-139.85596,73.83362,86.28662
1769247768450,-0.96435547,-0.17773438,-0.21289062,0.0,0.61035156,-0.18310547,0.0,0.0,0.0,-139.85596,73.83362,86.28662
1769247768461,-0.96435547,-0.17773438,-0.21289062,0.0,0.61035156,-0.18310547,0.0,0.0,0.0,-139.99329,73.76221,86.138306
1769247768550,-0.96435547,-0.17675781,-0.21435547,0.48828125,0.4272461,-0.30517578,0.0,0.0,0.0,-139.99329,73.76221,86.138306
1769247768561,-0.96435547,-0.17675781,-0.21435547,0.48828125,0.4272461,-0.30517578,0.0,0.0,0.0,-140.01526,73.69629,86.08887
1769247768649,-0.95996094,-0.17626953,-0.21386719,-0.061035156,0.24414062,-0.061035156,0.0,0.0,0.0,-140.01526,73.69629,86.08887
1769247768661,-0.95996094,-0.17626953,-0.21386719,-0.061035156,0.24414062,-0.061035156,0.0,0.0,0.0,-140.01526,73.65234,86.08887
1769247768749,-0.96533203,-0.17578125,-0.21679688,0.0,0.6713867,-0.18310547,0.0,0.0,0.0,-140.01526,73.65234,86.08887
1769247768761,-0.96533203,-0.17578125,-0.21679688,0.0,0.6713867,-0.18310547,0.0,0.0,0.0,-140.11414,73.586426,85.96802
1769247768849,-0.96240234,-0.17822266,-0.21972656,0.0,0.4272461,-0.4272461,0.0,0.0,0.0,-140.11414,73.586426,85.96802
1769247768860,-0.96240234,-0.17822266,-0.21972656,0.0,0.4272461,-0.4272461,0.0,0.0,0.0,-140.16357,73.54248,85.90759
1769247768949,-0.9663086,-0.15234375,-0.21923828,1.4038086,1.5258789,-1.8310547,0.0,0.0,0.0,-140.16357,73.54248,85.90759
1769247768960,-0.9663086,-0.15234375,-0.21923828,1.4038086,1.5258789,-1.8310547,0.0,0.0,0.0,-140.11963,73.41614,85.913086
1769247769048,-0.94873047,-0.2055664,-0.21533203,5.7373047,5.432129,2.6855469,0.0,0.0,0.0,-140.11963,73.41614,85.913086
1769247769060,-0.94873047,-0.2055664,-0.21533203,5.7373047,5.432129,2.6855469,0.0,0.0,0.0,-140.51514,73.17993,84.89136
1769247769148,-0.9555664,-0.18261719,-0.24023438,0.0,0.24414062,0.061035156,0.0,0.0,0.0,-140.51514,73.17993,84.89136
1769247769159,-0.9555664,-0.18261719,-0.24023438,0.0,0.24414062,0.061035156,0.0,0.0,0.0,-140.52612,73.048096,84.59473
1769247769248,-0.95996094,-0.18798828,-0.22216797,-1.4038086,-0.79345703,-1.0375977,0.0,0.0,0.0,-140.52612,73.048096,84.59473
1769247769259,-0.95996094,-0.18798828,-0.22216797,-1.4038086,-0.79345703,-1.0375977,0.0,0.0,0.0,-140.49866,72.976685,84.375
1769247769347,-0.9506836,-0.18701172,-0.22265625,-1.2817383,-0.061035156,0.0,0.0,0.0,0.0,-140.49866,72.976685,84.375
1769247769359,-0.9506836,-0.18701172,-0.22265625,-1.2817383,-0.061035156,0.0,0.0,0.0,0.0,-140.40527,72.943726,84.331055
1769247769447,-0.9604492,-0.18066406,-0.22851562,-1.3427734,-0.061035156,0.8544922,0.0,0.0,0.0,-140.40527,72.943726,84.331055
1769247769458,-0.9604492,-0.18066406,-0.22851562,-1.3427734,-0.061035156,0.8544922,0.0,0.0,0.0,-140.48218,72.9657,84.16626
1769247769547,-0.9584961,-0.17480469,-0.22949219,-1.3427734,0.24414062,0.8544922,0.0,0.0,0.0,-140.48218,72.9657,84.16626
1769247769558,-0.9584961,-0.17480469,-0.22949219,-1.3427734,0.24414062,0.8544922,0.0,0.0,0.0,-140.85571,73.02612,83.76526
1769247769646,-0.9633789,-0.17675781,-0.2265625,0.24414062,-0.24414062,0.5493164,0.0,0.0,0.0,-140.85571,73.02612,83.76526
1769247769658,-0.9633789,-0.17675781,-0.2265625,0.24414062,-0.24414062,0.5493164,0.0,0.0,0.0,-141.21826,73.07556,83.3313
1769247769746,-0.9609375,-0.17675781,-0.22265625,0.0,0.18310547,-0.12207031,0.0,0.0,0.0,-141.21826,73.07556,83.3313
1769247769758,-0.9609375,-0.17675781,-0.22265625,0.0,0.18310547,-0.12207031,0.0,0.0,0.0,-141.20728,73.10303,83.204956
1769247769846,-0.9609375,-0.17822266,-0.22314453,0.0,-0.30517578,-0.4272461,0.0,0.0,0.0,-141.20728,73.10303,83.204956
1769247769858,-0.9609375,-0.17822266,-0.22314453,0.0,-0.30517578,-0.4272461,0.0,0.0,0.0,-141.14685,73.08655,83.15552
1769247769946,-0.96191406,-0.17919922,-0.22460938,0.18310547,-0.36621094,-0.30517578,0.0,0.0,0.0,-141.14685,73.08655,83.15552
1769247769957,-0.96191406,-0.17919922,-0.22460938,0.18310547,-0.36621094,-0.30517578,0.0,0.0,0.0,-140.96008,73.09204,83.237915
1769247770045,-0.9580078,-0.18017578,-0.22558594,0.48828125,-0.6713867,-0.24414062,0.0,0.0,0.0,-140.96008,73.09204,83.237915
1769247770057,-0.9580078,-0.18017578,-0.22558594,0.48828125,-0.6713867,-0.24414062,0.0,0.0,0.0,-140.75134,73.11951,83.342285
1769247770145,-0.95703125,-0.18164062,-0.22021484,-0.12207031,-0.79345703,-0.061035156,0.0,0.0,0.0,-140.75134,73.11951,83.342285
1769247770156,-0.95703125,-0.18164062,-0.22021484,-0.12207031,-0.79345703,-0.061035156,0.0,0.0,0.0,-140.57556,73.168945,83.45764
1769247770245,-0.9580078,-0.18115234,-0.22167969,-0.48828125,-0.24414062,0.30517578,0.0,0.0,0.0,-140.57556,73.168945,83.45764
1769247770256,-0.9580078,-0.18115234,-0.22167969,-0.48828125,-0.24414062,0.30517578,0.0,0.0,0.0,-140.52063,73.21838,83.50708
1769247770344,-0.9609375,-0.17822266,-0.21972656,-0.48828125,-0.4272461,0.30517578,0.0,0.0,0.0,-140.52063,73.21838,83.50708
1769247770356,-0.9609375,-0.17822266,-0.21972656,-0.48828125,-0.4272461,0.30517578,0.0,0.0,0.0,-140.57007,73.26782,83.44116
1769247770444,-0.9609375,-0.17919922,-0.21728516,0.0,-0.061035156,0.30517578,0.0,0.0,0.0,-140.57007,73.26782,83.44116
1769247770456,-0.9609375,-0.17919922,-0.21728516,0.0,-0.061035156,0.30517578,0.0,0.0,0.0,-140.58655,73.31726,83.375244
1769247770544,-0.95996094,-0.17675781,-0.21972656,-0.24414062,-0.7324219,0.36621094,0.0,0.0,0.0,-140.58655,73.31726,83.375244
1769247770555,-0.95996094,-0.17675781,-0.21972656,-0.24414062,-0.7324219,0.36621094,0.0,0.0,0.0,-140.55908,73.394165,83.39172
1769247770643,-0.9663086,-0.17871094,-0.2265625,0.12207031,-1.3427734,0.30517578,0.0,0.0,0.0,-140.55908,73.394165,83.39172
1769247770655,-0.9663086,-0.17871094,-0.2265625,0.12207031,-1.3427734,0.30517578,0.0,0.0,0.0,-140.50964,73.465576,83.42468
1769247770743,-0.96240234,-0.1796875,-0.20605469,-0.9765625,-2.746582,0.7324219,0.0,0.0,0.0,-140.50964,73.465576,83.42468
1769247770755,-0.96240234,-0.1796875,-0.20605469,-0.9765625,-2.746582,0.7324219,0.0,0.0,0.0,-140.08667,73.69629,83.84766
1769247770843,-0.96484375,-0.17041016,-0.2055664,-1.2207031,-0.24414062,-0.36621094,0.0,0.0,0.0,-140.08667,73.69629,83.84766
1769247770854,-0.96484375,-0.17041016,-0.2055664,-1.2207031,-0.24414062,-0.36621094,0.0,0.0,0.0,-139.93835,73.82263,84.122314
1769247770943,-0.9609375,-0.1772461,-0.21484375,0.061035156,0.91552734,-0.36621094,0.0,0.0,0.0,-139.93835,73.82263,84.122314
1769247770954,-0.9609375,-0.1772461,-0.21484375,0.061035156,0.91552734,-0.36621094,0.0,0.0,0.0,-139.91638,73.76221,84.15527
1769247771042,-0.9628906,-0.17822266,-0.20996094,0.91552734,1.0375977,-0.61035156,0.0,0.0,0.0,-139.91638,73.76221,84.15527
1769247771054,-0.9628906,-0.17822266,-0.20996094,0.91552734,1.0375977,-0.61035156,0.0,0.0,0.0,-139.96582,73.66333,84.01245
1769247771142,-0.96191406,-0.17919922,-0.21289062,-0.24414062,2.5024414,-0.30517578,0.0,0.0,0.0,-139.96582,73.66333,84.01245
1769247771153,-0.96191406,-0.17919922,-0.21289062,-0.24414062,2.5024414,-0.30517578,0.0,0.0,0.0,-140.19104,73.498535,83.71582
1769247771242,-0.95410156,-0.17822266,-0.22753906,-0.18310547,2.8076172,0.0,0.0,0.0,0.0,-140.19104,73.498535,83.71582
1769247771253,-0.95410156,-0.17822266,-0.22753906,-0.18310547,2.8076172,0.0,0.0,0.0,0.0,-140.69092,73.30078,83.21045
1769247771341,-0.95996094,-0.17871094,-0.22314453,0.4272461,0.0,0.12207031,0.0,0.0,0.0,-140.69092,73.30078,83.21045
1769247771353,-0.95996094,-0.17871094,-0.22314453,0.4272461,0.0,0.12207031,0.0,0.0,0.0,-140.9491,73.24585,82.924805
1769247771441,-0.9628906,-0.1743164,-0.22509766,0.0,-0.12207031,-0.12207031,0.0,0.0,0.0,-140.9491,73.24585,82.924805
1769247771453,-0.9628906,-0.1743164,-0.22509766,0.0,-0.12207031,-0.12207031,0.0,0.0,0.0,-140.88318,73.26782,83.01819
1769247771541,-0.95947266,-0.18164062,-0.21777344,0.8544922,-0.48828125,0.18310547,0.0,0.0,0.0,-140.88318,73.26782,83.01819
1769247771552,-0.95947266,-0.18164062,-0.21777344,0.8544922,-0.48828125,0.18310547,0.0,0.0,0.0,-140.76233,73.289795,83.06763
1769247771640,-0.96240234,-0.17773438,-0.21777344,-0.7324219,-1.0375977,0.12207031,0.0,0.0,0.0,-140.76233,73.289795,83.06763
1769247771653,-0.96240234,-0.17773438,-0.21777344,-0.7324219,-1.0375977,0.12207031,0.0,0.0,0.0,-140.63599,73.35022,83.21045
1769247771740,-0.9633789,-0.17578125,-0.22265625,-0.18310547,0.4272461,0.12207031,0.0,0.0,0.0,-140.63599,73.35022,83.21045
1769247771751,-0.9633789,-0.17578125,-0.22265625,-0.18310547,0.4272461,0.12207031,0.0,0.0,0.0,-140.625,73.37219,83.270874
1769247771840,-0.9628906,-0.17773438,-0.21728516,0.18310547,0.30517578,0.0,0.0,0.0,0.0,-140.625,73.37219,83.270874
1769247771851,-0.9628906,-0.17773438,-0.21728516,0.18310547,0.30517578,0.0,0.0,0.0,0.0,-140.71289,73.34473,83.117065
1769247771940,-0.9658203,-0.17822266,-0.22070312,0.0,0.79345703,-0.6713867,0.0,0.0,0.0,-140.71289,73.34473,83.117065
1769247771951,-0.9658203,-0.17822266,-0.22070312,0.0,0.79345703,-0.6713867,0.0,0.0,0.0,-140.71289,73.27881,83.045654
1769247772039,-0.95751953,-0.1772461,-0.22216797,0.4272461,1.0986328,-0.36621094,0.0,0.0,0.0,-140.71289,73.27881,83.045654
1769247772051,-0.95751953,-0.1772461,-0.22216797,0.4272461,1.0986328,-0.36621094,0.0,0.0,0.0,-140.77881,73.19641,82.95227
1769247772139,-0.9614258,-0.18261719,-0.2265625,-0.6713867,0.0,0.18310547,0.0,0.0,0.0,-140.77881,73.19641,82.95227
1769247772150,-0.9614258,-0.18261719,-0.2265625,-0.6713867,0.0,0.18310547,0.0,0.0,0.0,-140.85571,73.14148,82.84241
1769247772239,-0.95703125,-0.1743164,-0.22509766,0.061035156,-0.24414062,-0.12207031,0.0,0.0,0.0,-140.85571,73.14148,82.84241
1769247772251,-0.95703125,-0.1743164,-0.22509766,0.061035156,-0.24414062,-0.12207031,0.0,0.0,0.0,-140.8612,73.152466,82.86987
1769247772338,-0.95947266,-0.17871094,-0.22070312,0.48828125,-0.12207031,0.0,0.0,0.0,0.0,-140.8612,73.152466,82.86987
1769247772350,-0.95947266,-0.17871094,-0.22070312,0.48828125,-0.12207031,0.0,0.0,0.0,0.0,-140.80627,73.168945,82.91382
1769247772438,-0.9614258,-0.18164062,-0.22460938,0.48828125,0.0,0.0,0.0,0.0,0.0,-140.80627,73.168945,82.91382
1769247772450,-0.9614258,-0.18164062,-0.22460938,0.48828125,0.0,0.0,0.0,0.0,0.0,-140.74585,73.168945,82.941284
1769247772538,-0.9584961,-0.17871094,-0.22021484,-0.48828125,0.12207031,0.061035156,0.0,0.0,0.0,-140.74585,73.168945,82.941284
1769247772550,-0.9584961,-0.17871094,-0.22021484,-0.48828125,0.12207031,0.061035156,0.0,0.0,0.0,-140.76782,73.16345,82.84241
1769247772637,-0.9633789,-0.18017578,-0.22265625,0.12207031,-0.12207031,0.0,0.0,0.0,0.0,-140.76782,73.16345,82.84241
1769247772649,-0.9633789,-0.18017578,-0.22265625,0.12207031,-0.12207031,0.0,0.0,0.0,0.0,-140.73486,73.168945,82.85339
1769247772737,-0.95654297,-0.1821289,-0.22167969,0.6713867,-0.18310547,-0.30517578,0.0,0.0,0.0,-140.73486,73.168945,82.85339
1769247772749,-0.95654297,-0.1821289,-0.22167969,0.6713867,-0.18310547,-0.30517578,0.0,0.0,0.0,-140.6305,73.16345,82.95776
1769247772837,-0.95996094,-0.1821289,-0.21875,0.0,0.0,-0.12207031,0.0,0.0,0.0,-140.6305,73.16345,82.95776
1769247772848,-0.95996094,-0.1821289,-0.21875,0.0,0.0,-0.12207031,0.0,0.0,0.0,-140.52063,73.16345,83.06213
1769247772937,-0.9638672,-0.1821289,-0.22363281,-0.061035156,0.0,0.0,0.0,0.0,0.0,-140.52063,73.16345,83.06213
1769247772949,-0.9638672,-0.1821289,-0.22363281,-0.061035156,0.0,0.0,0.0,0.0,0.0,-140.51514,73.14148,83.07312
1769247773036,-0.9628906,-0.18115234,-0.22607422,-0.061035156,-0.18310547,0.48828125,0.0,0.0,0.0,-140.51514,73.14148,83.07312
1769247773048,-0.9628906,-0.18115234,-0.22607422,-0.061035156,-0.18310547,0.48828125,0.0,0.0,0.0,-140.55908,73.15796,83.05115
1769247773136,-0.95654297,-0.17773438,-0.22070312,0.18310547,-0.5493164,0.18310547,0.0,0.0,0.0,-140.55908,73.15796,83.05115
1769247773147,-0.95654297,-0.17773438,-0.22070312,0.18310547,-0.5493164,0.18310547,0.0,0.0,0.0,-140.58105,73.21289,83.03467
1769247773236,-0.96240234,-0.18408203,-0.21826172,0.0,-0.36621094,0.36621094,0.0,0.0,0.0,-140.58105,73.21289,83.03467
1769247773247,-0.96240234,-0.18408203,-0.21826172,0.0,-0.36621094,0.36621094,0.0,0.0,0.0,-140.50964,73.26233,83.06763
1769247773335,-0.95947266,-0.1772461,-0.22167969,0.0,-0.30517578,0.24414062,0.0,0.0,0.0,-140.50964,73.26233,83.06763
1769247773347,-0.95947266,-0.1772461,-0.22167969,0.0,-0.30517578,0.24414062,0.0,0.0,0.0,-140.47668,73.289795,83.09509
1769247773435,-0.9589844,-0.18164062,-0.21679688,0.0,-0.8544922,0.4272461,0.0,0.0,0.0,-140.47668,73.289795,83.09509
1769247773447,-0.9589844,-0.18164062,-0.21679688,0.0,-0.8544922,0.4272461,0.0,0.0,0.0,-140.39429,73.35022,83.19397
1769247773535,-0.9614258,-0.1796875,-0.21582031,0.061035156,-0.6713867,0.12207031,0.0,0.0,0.0,-140.39429,73.35022,83.19397
1769247773546,-0.9614258,-0.1796875,-0.21582031,0.061035156,-0.6713867,0.12207031,0.0,0.0,0.0,-140.27344,73.43262,83.325806
1769247773635,-0.96191406,-0.18017578,-0.21582031,-0.36621094,-0.61035156,0.48828125,0.0,0.0,0.0,-140.27344,73.43262,83.325806
1769247773646,-0.96191406,-0.18017578,-0.21582031,-0.36621094,-0.61035156,0.48828125,0.0,0.0,0.0,-140.2185,73.49304,83.39172
1769247773734,-0.9609375,-0.17578125,-0.21289062,0.4272461,-0.12207031,0.061035156,0.0,0.0,0.0,-140.2185,73.49304,83.39172
1769247773746,-0.9609375,-0.17578125,-0.21289062,0.4272461,-0.12207031,0.061035156,0.0,0.0,0.0,-140.19104,73.53699,83.41919
1769247773834,-0.9633789,-0.17919922,-0.21386719,-0.4272461,-0.6713867,0.30517578,0.0,0.0,0.0,-140.19104,73.53699,83.41919
1769247773845,-0.9633789,-0.17919922,-0.21386719,-0.4272461,-0.6713867,0.30517578,0.0,0.0,0.0,-140.10315,73.59741,83.50708
1769247773934,-0.9658203,-0.17480469,-0.21142578,-0.18310547,0.061035156,-0.061035156,0.0,0.0,0.0,-140.10315,73.59741,83.50708
1769247773945,-0.9658203,-0.17480469,-0.21142578,-0.18310547,0.061035156,-0.061035156,0.0,0.0,0.0,-140.09766,73.59741,83.51257
1769247774033,-0.9658203,-0.18115234,-0.21386719,0.12207031,0.4272461,-0.12207031,0.0,0.0,0.0,-140.09766,73.59741,83.51257
1769247774045,-0.9658203,-0.18115234,-0.21386719,0.12207031,0.4272461,-0.12207031,0.0,0.0,0.0,-140.09766,73.59192,83.479614
1769247774133,-0.9614258,-0.17626953,-0.21386719,-0.24414062,0.7324219,-0.12207031,0.0,0.0,0.0,-140.09766,73.59192,83.479614
1769247774145,-0.9614258,-0.17626953,-0.21386719,-0.24414062,0.7324219,-0.12207031,0.0,0.0,0.0,-140.20752,73.53699,83.36975
1769247774233,-0.9633789,-0.17822266,-0.21875,-0.12207031,0.7324219,-0.4272461,0.0,0.0,0.0,-140.20752,73.53699,83.36975
1769247774244,-0.9633789,-0.17822266,-0.21875,-0.12207031,0.7324219,-0.4272461,0.0,0.0,0.0,-140.32837,73.45459,83.25989
1769247774332,-0.96191406,-0.17871094,-0.21679688,0.0,0.48828125,-0.18310547,0.0,0.0,0.0,-140.32837,73.45459,83.25989
1769247774344,-0.96191406,-0.17871094,-0.21679688,0.0,0.48828125,-0.18310547,0.0,0.0,0.0,-140.37231,73.42163,83.237915
1769247774432,-0.9658203,-0.17822266,-0.21777344,0.061035156,0.61035156,-0.12207031,0.0,0.0,0.0,-140.37231,73.42163,83.237915
1769247774444,-0.9658203,-0.17822266,-0.21777344,0.061035156,0.61035156,-0.12207031,0.0,0.0,0.0,-140.41077,73.377686,83.17749
1769247774532,-0.9604492,-0.18017578,-0.21875,0.12207031,0.9765625,-0.12207031,0.0,0.0,0.0,-140.41077,73.377686,83.17749
1769247774543,-0.9604492,-0.18017578,-0.21875,0.12207031,0.9765625,-0.12207031,0.0,0.0,0.0,-140.55359,73.322754,83.029175
1769247774632,-0.9604492,-0.1772461,-0.2211914,-0.18310547,0.4272461,0.12207031,0.0,0.0,0.0,-140.55359,73.322754,83.029175
1769247774643,-0.9604492,-0.1772461,-0.2211914,-0.18310547,0.4272461,0.12207031,0.0,0.0,0.0,-140.69092,73.26782,82.85339
1769247774731,-0.95996094,-0.1796875,-0.2211914,0.12207031,0.4272461,0.0,0.0,0.0,0.0,-140.69092,73.26782,82.85339
1769247774743,-0.95996094,-0.1796875,-0.2211914,0.12207031,0.4272461,0.0,0.0,0.0,0.0,-140.7898,73.23486,82.699585
1769247774831,-0.96435547,-0.1821289,-0.2241211,-0.12207031,0.12207031,0.36621094,0.0,0.0,0.0,-140.7898,73.23486,82.699585
1769247774842,-0.96435547,-0.1821289,-0.2241211,-0.12207031,0.12207031,0.36621094,0.0,0.0,0.0,-140.82825,73.23486,82.64465
1769247774930,-0.9628906,-0.1743164,-0.22460938,0.36621094,0.30517578,-0.6713867,0.0,0.0,0.0,-140.82825,73.23486,82.64465
1769247774942,-0.9628906,-0.1743164,-0.22460938,0.36621094,0.30517578,-0.6713867,0.0,0.0,0.0,-140.81726,73.22388,82.6062
1769247775030,-0.9584961,-0.18164062,-0.2211914,0.0,0.061035156,-0.91552734,0.0,0.0,0.0,-140.81726,73.22388,82.6062
1769247775042,-0.9584961,-0.18164062,-0.2211914,0.0,0.061035156,-0.91552734,0.0,0.0,0.0,-140.6305,73.168945,82.732544
1769247775130,-0.96191406,-0.18408203,-0.22265625,0.12207031,0.0,-0.30517578,0.0,0.0,0.0,-140.6305,73.168945,82.732544
1769247775142,-0.96191406,-0.18408203,-0.22265625,0.12207031,0.0,-0.30517578,0.0,0.0,0.0,-140.4602,73.13049,82.89734
1769247775230,-0.95947266,-0.1821289,-0.22509766,0.18310547,0.24414062,0.0,0.0,0.0,0.0,-140.4602,73.13049,82.89734
1769247775241,-0.95947266,-0.1821289,-0.22509766,0.18310547,0.24414062,0.0,0.0,0.0,0.0,-140.4602,73.097534,82.891846
1769247775329,-0.9555664,-0.18066406,-0.22070312,-0.12207031,0.061035156,0.36621094,0.0,0.0,0.0,-140.4602,73.097534,82.891846
1769247775341,-0.9555664,-0.18066406,-0.22070312,-0.12207031,0.061035156,0.36621094,0.0,0.0,0.0,-140.55359,73.081055,82.78198
1769247775429,-0.9609375,-0.1850586,-0.22021484,-0.30517578,0.36621094,0.18310547,0.0,0.0,0.0,-140.55359,73.081055,82.78198
1769247775441,-0.9609375,-0.1850586,-0.22021484,-0.30517578,0.36621094,0.18310547,0.0,0.0,0.0,-140.66895,73.07007,82.66113
1769247775529,-0.95996094,-0.18164062,-0.22802734,-0.18310547,-0.18310547,0.24414062,0.0,0.0,0.0,-140.66895,73.07007,82.66113
1769247775540,-0.95996094,-0.18164062,-0.22802734,-0.18310547,-0.18310547,0.24414062,0.0,0.0,0.0,-140.74585,73.081055,82.611694
1769247775628,-0.9609375,-0.1796875,-0.22167969,0.061035156,-0.4272461,0.4272461,0.0,0.0,0.0,-140.74585,73.081055,82.611694
1769247775640,-0.9609375,-0.1796875,-0.22167969,0.061035156,-0.4272461,0.4272461,0.0,0.0,0.0,-140.77881,73.097534,82.578735
1769247775728,-0.9580078,-0.18408203,-0.22363281,0.36621094,-0.7324219,0.18310547,0.0,0.0,0.0,-140.77881,73.097534,82.578735
1769247775740,-0.9580078,-0.18408203,-0.22363281,0.36621094,-0.7324219,0.18310547,0.0,0.0,0.0,-140.69641,73.15796,82.65015
1769247775828,-0.95947266,-0.17529297,-0.22363281,0.12207031,-0.91552734,0.0,0.0,0.0,0.0,-140.69641,73.15796,82.65015
1769247775840,-0.95947266,-0.17529297,-0.22363281,0.12207031,-0.91552734,0.0,0.0,0.0,0.0,-140.56458,73.22388,82.79297
1769247775928,-0.9628906,-0.17919922,-0.22021484,-0.18310547,-0.9765625,0.0,0.0,0.0,0.0,-140.56458,73.22388,82.79297
1769247775939,-0.9628906,-0.17919922,-0.22021484,-0.18310547,-0.9765625,0.0,0.0,0.0,0.0,-140.35034,73.322754,83.00171
1769247776027,-0.9584961,-0.18017578,-0.21484375,-0.24414062,-0.9765625,0.061035156,0.0,0.0,0.0,-140.35034,73.322754,83.00171
1769247776039,-0.9584961,-0.18017578,-0.21484375,-0.24414062,-0.9765625,0.061035156,0.0,0.0,0.0,-140.17456,73.39966,83.18298
1769247776127,-0.96484375,-0.17773438,-0.21533203,-0.24414062,-0.48828125,0.18310547,0.0,0.0,0.0,-140.17456,73.39966,83.18298
1769247776139,-0.96484375,-0.17773438,-0.21533203,-0.24414062,-0.48828125,0.18310547,0.0,0.0,0.0,-140.07568,73.45459,83.32031
1769247776227,-0.96191406,-0.17675781,-0.2133789,0.18310547,0.0,0.18310547,0.0,0.0,0.0,-140.07568,73.45459,83.32031
1769247776239,-0.96191406,-0.17675781,-0.2133789,0.18310547,0.0,0.18310547,0.0,0.0,0.0,-140.0647,73.50403,83.33679
1769247776326,-0.96191406,-0.17822266,-0.21484375,-0.12207031,-0.12207031,0.061035156,0.0,0.0,0.0,-140.0647,73.50403,83.33679
1769247776339,-0.96191406,-0.17822266,-0.21484375,-0.12207031,-0.12207031,0.061035156,0.0,0.0,0.0,-140.07568,73.515015,83.3313
1769247776426,-0.96240234,-0.17822266,-0.21484375,-0.18310547,0.24414062,0.0,0.0,0.0,0.0,-140.07568,73.515015,83.3313
1769247776438,-0.96240234,-0.17822266,-0.21484375,-0.18310547,0.24414062,0.0,0.0,0.0,0.0,-140.11414,73.50952,83.30383
1769247776526,-0.96240234,-0.17675781,-0.21679688,0.0,0.5493164,0.0,0.0,0.0,0.0,-140.11414,73.50952,83.30383
1769247776537,-0.96240234,-0.17675781,-0.21679688,0.0,0.5493164,0.0,0.0,0.0,0.0,-140.17456,73.49304,83.2489
1769247776625,-0.96240234,-0.1772461,-0.21533203,0.0,0.48828125,-0.061035156,0.0,0.0,0.0,-140.17456,73.49304,83.2489
1769247776637,-0.96240234,-0.1772461,-0.21533203,0.0,0.48828125,-0.061035156,0.0,0.0,0.0,-140.26245,73.45459,83.16101
1769247776725,-0.9609375,-0.17919922,-0.21533203,-0.18310547,0.36621094,0.0,0.0,0.0,0.0,-140.26245,73.45459,83.16101
1769247776737,-0.9609375,-0.17919922,-0.21533203,-0.18310547,0.36621094,0.0,0.0,0.0,0.0,-140.34485,73.42163,83.07312
1769247776825,-0.9604492,-0.17773438,-0.2211914,-0.91552734,0.5493164,0.30517578,0.0,0.0,0.0,-140.34485,73.42163,83.07312
1769247776836,-0.9604492,-0.17773438,-0.2211914,-0.91552734,0.5493164,0.30517578,0.0,0.0,0.0,-140.47668,73.38867,82.98523
1769247776925,-0.96240234,-0.17626953,-0.2211914,0.61035156,0.4272461,0.0,0.0,0.0,0.0,-140.47668,73.38867,82.98523
1769247776936,-0.96240234,-0.17626953,-0.2211914,0.61035156,0.4272461,0.0,0.0,0.0,0.0,-140.625,73.34473,82.86438
1769247777024,-0.96240234,-0.18115234,-0.21923828,-0.4272461,0.6713867,-0.061035156,0.0,0.0,0.0,-140.625,73.34473,82.86438
1769247777036,-0.96240234,-0.18115234,-0.21923828,-0.4272461,0.6713867,-0.061035156,0.0,0.0,0.0,-140.66895,73.30078,82.79846
1769247777124,-0.9604492,-0.18066406,-0.21972656,-0.24414062,0.4272461,-0.061035156,0.0,0.0,0.0,-140.66895,73.30078,82.79846
1769247777136,-0.9604492,-0.18066406,-0.21972656,-0.24414062,0.4272461,-0.061035156,0.0,0.0,0.0,-140.7843,73.24036,82.71057
1769247777224,-0.9604492,-0.17822266,-0.22460938,-0.12207031,0.18310547,-0.061035156,0.0,0.0,0.0,-140.7843,73.24036,82.71057
1769247777235,-0.9604492,-0.17822266,-0.22460938,-0.12207031,0.18310547,-0.061035156,0.0,0.0,0.0,-140.82825,73.21838,82.699585
1769247777324,-0.95947266,-0.18017578,-0.22265625,-0.061035156,0.36621094,-0.12207031,0.0,0.0,0.0,-140.82825,73.21838,82.699585
1769247777335,-0.95947266,-0.18017578,-0.22265625,-0.061035156,0.36621094,-0.12207031,0.0,0.0,0.0,-140.8722,73.17444,82.65015
1769247777423,-0.9589844,-0.17871094,-0.22363281,0.61035156,-0.30517578,0.0,0.0,0.0,0.0,-140.8722,73.17444,82.65015
1769247777435,-0.9589844,-0.17871094,-0.22363281,0.61035156,-0.30517578,0.0,0.0,0.0,0.0,-140.83374,73.152466,82.67212
1769247777523,-0.95996094,-0.18359375,-0.22070312,0.24414062,0.12207031,-0.24414062,0.0,0.0,0.0,-140.83374,73.152466,82.67212
1769247777534,-0.95996094,-0.18359375,-0.22070312,0.24414062,0.12207031,-0.24414062,0.0,0.0,0.0,-140.7074,73.17444,82.787476
1769247777623,-0.95947266,-0.17919922,-0.22460938,-0.30517578,0.30517578,-0.48828125,0.0,0.0,0.0,-140.7074,73.17444,82.787476
1769247777634,-0.95947266,-0.17919922,-0.22460938,-0.30517578,0.30517578,-0.48828125,0.0,0.0,0.0,-140.60303,73.14148,82.90283
1769247777722,-0.9609375,-0.1796875,-0.22314453,0.24414062,-0.18310547,-0.4272461,0.0,0.0,0.0,-140.60303,73.14148,82.90283
1769247777734,-0.9609375,-0.1796875,-0.22314453,0.24414062,-0.18310547,-0.4272461,0.0,0.0,0.0,-140.52063,73.11951,82.97974
1769247777822,-0.9604492,-0.18310547,-0.22021484,0.18310547,-0.12207031,-0.48828125,0.0,0.0,0.0,-140.52063,73.11951,82.97974
1769247777834,-0.9604492,-0.18310547,-0.22021484,0.18310547,-0.12207031,-0.48828125,0.0,0.0,0.0,-140.33386,73.10303,83.12256
1769247777922,-0.9589844,-0.1850586,-0.22216797,-0.12207031,0.12207031,-0.30517578,0.0,0.0,0.0,-140.33386,73.10303,83.12256
1769247777933,-0.9589844,-0.1850586,-0.22216797,-0.12207031,0.12207031,-0.30517578,0.0,0.0,0.0,-140.25146,73.081055,83.18298
1769247778021,-0.96484375,-0.18896484,-0.22460938,-0.4272461,0.12207031,-0.12207031,0.0,0.0,0.0,-140.25146,73.081055,83.18298
1769247778033,-0.96484375,-0.18896484,-0.22460938,-0.4272461,0.12207031,-0.12207031,0.0,0.0,0.0,-140.25696,73.05908,83.21045
1769247778121,-0.95166016,-0.1875,-0.21875,0.5493164,0.12207031,0.0,0.0,0.0,0.0,-140.25696,73.05908,83.21045
1769247778133,-0.95166016,-0.1875,-0.21875,0.5493164,0.12207031,0.0,0.0,0.0,0.0,-140.1471,73.03162,83.29834
1769247778221,-0.9667969,-0.18652344,-0.22363281,0.0,-0.12207031,0.12207031,0.0,0.0,0.0,-140.1471,73.03162,83.29834
1769247778232,-0.9667969,-0.18652344,-0.22363281,0.0,-0.12207031,0.12207031,0.0,0.0,0.0,-140.19104,73.05908,83.25989
1769247778320,-0.95751953,-0.18115234,-0.22314453,-0.061035156,0.0,0.18310547,0.0,0.0,0.0,-140.19104,73.05908,83.25989
1769247778333,-0.95751953,-0.18115234,-0.22314453,-0.061035156,0.0,0.18310547,0.0,0.0,0.0,-140.19653,73.07007,83.237915
1769247778420,-0.9589844,-0.18701172,-0.22216797,-0.9765625,-0.61035156,0.6713867,0.0,0.0,0.0,-140.19653,73.07007,83.237915
1769247778432,-0.9589844,-0.18701172,-0.22216797,-0.9765625,-0.61035156,0.6713867,0.0,0.0,0.0,-140.32837,73.13049,83.172
1769247778520,-0.9609375,-0.1796875,-0.22216797,0.7324219,-0.36621094,0.18310547,0.0,0.0,0.0,-140.32837,73.13049,83.172
1769247778531,-0.9609375,-0.1796875,-0.22216797,0.7324219,-0.36621094,0.18310547,0.0,0.0,0.0,-140.27893,73.17993,83.23242
1769247778620,-0.95410156,-0.18066406,-0.21679688,-0.61035156,-0.79345703,0.30517578,0.0,0.0,0.0,-140.27893,73.17993,83.23242
1769247778632,-0.95410156,-0.18066406,-0.21679688,-0.61035156,-0.79345703,0.30517578,0.0,0.0,0.0,-140.22949,73.24585,83.325806
1769247778719,-0.9638672,-0.1772461,-0.21484375,-0.061035156,-1.159668,-0.18310547,0.0,0.0,0.0,-140.22949,73.24585,83.325806
1769247778731,-0.9638672,-0.1772461,-0.21484375,-0.061035156,-1.159668,-0.18310547,0.0,0.0,0.0,-140.00427,73.322754,83.583984
1769247778819,-0.96435547,-0.18115234,-0.21679688,-0.30517578,-0.79345703,-0.12207031,0.0,0.0,0.0,-140.00427,73.322754,83.583984
1769247778830,-0.96435547,-0.18115234,-0.21679688,-0.30517578,-0.79345703,-0.12207031,0.0,0.0,0.0,-139.76807,73.42163,83.83118
1769247778919,-0.95947266,-0.17919922,-0.21289062,-0.18310547,-1.2817383,0.0,0.0,0.0,0.0,-139.76807,73.42163,83.83118
1769247778930,-0.95947266,-0.17919922,-0.21289062,-0.18310547,-1.2817383,0.0,0.0,0.0,0.0,-139.55383,73.49304,84.09485
1769247779018,-0.9633789,-0.18261719,-0.21240234,-0.7324219,-0.79345703,0.0,0.0,0.0,0.0,-139.55383,73.49304,84.09485
1769247779030,-0.9633789,-0.18261719,-0.21240234,-0.7324219,-0.79345703,0.0,0.0,0.0,0.0,-139.3341,73.56995,84.35852
1769247779118,-0.95996094,-0.18066406,-0.2084961,0.18310547,-0.61035156,0.061035156,0.0,0.0,0.0,-139.3341,73.56995,84.35852
1769247779130,-0.95996094,-0.18066406,-0.2084961,0.18310547,-0.61035156,0.061035156,0.0,0.0,0.0,-139.1803,73.602905,84.539795
1769247779218,-0.96240234,-0.18261719,-0.21142578,-0.061035156,0.4272461,-0.36621094,0.0,0.0,0.0,-139.1803,73.602905,84.539795
1769247779229,-0.96240234,-0.18261719,-0.21142578,-0.061035156,0.4272461,-0.36621094,0.0,0.0,0.0,-139.13635,73.61389,84.572754
1769247779317,-0.9614258,-0.18115234,-0.21142578,-0.5493164,0.61035156,-0.18310547,0.0,0.0,0.0,-139.13635,73.61389,84.572754
1769247779329,-0.9614258,-0.18115234,-0.21142578,-0.5493164,0.61035156,-0.18310547,0.0,0.0,0.0,-139.16931,73.55896,84.572754
1769247779417,-0.9604492,-0.18554688,-0.2163086,-0.24414062,0.4272461,0.0,0.0,0.0,0.0,-139.16931,73.55896,84.572754
1769247779429,-0.9604492,-0.18554688,-0.2163086,-0.24414062,0.4272461,0.0,0.0,0.0,0.0,-139.29565,73.515015,84.46289
1769247779517,-0.9584961,-0.1821289,-0.21923828,0.0,0.91552734,0.061035156,0.0,0.0,0.0,-139.29565,73.515015,84.46289
1769247779528,-0.9584961,-0.1821289,-0.21923828,0.0,0.91552734,0.061035156,0.0,0.0,0.0,-139.40552,73.45459,84.35303
