timestamp,accX,accY,accZ,gyroX,gyroY,gyroZ,magX,magY,magZ,roll,pitch,yaw
1765589845549,-0.9165039,0.19238281,-0.33789062,2.380371,0.7324219,1.2817383,0.0,0.0,0.0,150.72693,67.664795,-135.98877
1765589845560,-0.9165039,0.19238281,-0.33789062,2.380371,0.7324219,1.2817383,0.0,0.0,0.0,150.4303,67.70874,-136.57104
1765589845648,-0.91845703,0.22021484,-0.32958984,2.0751953,-4.1503906,4.8828125,0.0,0.0,0.0,150.4303,67.70874,-136.57104
1765589845660,-0.91845703,0.22021484,-0.32958984,2.0751953,-4.1503906,4.8828125,0.0,0.0,0.0,149.96887,67.70325,-137.23022
1765589845748,-0.9501953,0.15234375,-0.30517578,-8.850098,6.4086914,-3.4179688,0.0,0.0,0.0,149.96887,67.70325,-137.23022
1765589845760,-0.9501953,0.15234375,-0.30517578,-8.850098,6.4086914,-3.4179688,0.0,0.0,0.0,149.66125,67.697754,-137.12036
1765589845848,-0.93066406,0.18896484,-0.3227539,12.451172,-7.8125,0.30517578,0.0,0.0,0.0,149.66125,67.697754,-137.12036
1765589845859,-0.93066406,0.18896484,-0.3227539,12.451172,-7.8125,0.30517578,0.0,0.0,0.0,150.07324,67.76367,-136.96655
1765589845948,-0.92333984,0.19580078,-0.3154297,-2.5634766,2.0141602,-1.2207031,0.0,0.0,0.0,150.07324,67.76367,-136.96655
1765589845959,-0.92333984,0.19580078,-0.3154297,-2.5634766,2.0141602,-1.2207031,0.0,0.0,0.0,150.41931,68.07129,-136.99402
1765589846047,-0.92871094,0.17919922,-0.32617188,1.2207031,-0.18310547,1.7089844,0.0,0.0,0.0,150.41931,68.07129,-136.99402
1765589846059,-0.92871094,0.17919922,-0.32617188,1.2207031,-0.18310547,1.7089844,0.0,0.0,0.0,150.38086,67.88452,-136.83472
1765589846148,-0.93359375,0.1953125,-0.32080078,2.6855469,-1.953125,2.4414062,0.0,0.0,0.0,150.38086,67.88452,-136.83472
1765589846159,-0.93359375,0.1953125,-0.32080078,2.6855469,-1.953125,2.4414062,0.0,0.0,0.0,149.96338,67.85156,-137.46643
1765589846247,-0.9291992,0.18701172,-0.3149414,-1.0986328,-1.4038086,0.4272461,0.0,0.0,0.0,149.96338,67.85156,-137.46643
1765589846258,-0.9291992,0.18701172,-0.3149414,-1.0986328,-1.4038086,0.4272461,0.0,0.0,0.0,149.41406,67.95044,-138.00476
1765589846347,-0.9375,0.19238281,-0.31835938,0.48828125,-1.5869141,0.24414062,0.0,0.0,0.0,149.41406,67.95044,-138.00476
1765589846358,-0.9375,0.19238281,-0.31835938,0.48828125,-1.5869141,0.24414062,0.0,0.0,0.0,149.17786,68.04932,-138.27942
1765589846446,-0.92822266,0.19824219,-0.30859375,-0.91552734,0.0,-0.48828125,0.0,0.0,0.0,149.17786,68.04932,-138.27942
1765589846458,-0.92822266,0.19824219,-0.30859375,-0.91552734,0.0,-0.48828125,0.0,0.0,0.0,149.068,68.09326,-138.36731
1765589846546,-0.9291992,0.19091797,-0.31640625,-0.9765625,0.5493164,-0.7324219,0.0,0.0,0.0,149.068,68.09326,-138.36731
1765589846558,-0.9291992,0.19091797,-0.31640625,-0.9765625,0.5493164,-0.7324219,0.0,0.0,0.0,149.10645,68.098755,-138.07068
1765589846646,-0.93847656,0.19189453,-0.31347656,0.0,0.9765625,0.48828125,0.0,0.0,0.0,149.10645,68.098755,-138.07068
1765589846657,-0.93847656,0.19189453,-0.31347656,0.0,0.9765625,0.48828125,0.0,0.0,0.0,149.26025,67.977905,-137.77954
1765589846745,-0.9277344,0.18847656,-0.31689453,-2.380371,1.2817383,-0.18310547,0.0,0.0,0.0,149.26025,67.977905,-137.77954
1765589846757,-0.9277344,0.18847656,-0.31689453,-2.380371,1.2817383,-0.18310547,0.0,0.0,0.0,149.07349,68.02734,-137.87842
1765589846845,-0.9370117,0.19140625,-0.31591797,1.8310547,-0.48828125,0.48828125,0.0,0.0,0.0,149.07349,68.02734,-137.87842
1765589846857,-0.9370117,0.19140625,-0.31591797,1.8310547,-0.48828125,0.48828125,0.0,0.0,0.0,149.18335,67.98889,-137.77954
1765589846945,-0.9375,0.1953125,-0.3178711,-1.4038086,1.953125,0.36621094,0.0,0.0,0.0,149.18335,67.98889,-137.77954
1765589846957,-0.9375,0.1953125,-0.3178711,-1.4038086,1.953125,0.36621094,0.0,0.0,0.0,149.15588,67.93945,-137.76306
1765589847045,-0.9291992,0.18945312,-0.31396484,1.2817383,1.0375977,1.7089844,0.0,0.0,0.0,149.15588,67.93945,-137.76306
1765589847056,-0.9291992,0.18945312,-0.31396484,1.2817383,1.0375977,1.7089844,0.0,0.0,0.0,149.03503,67.785645,-137.98828
1765589847144,-0.93896484,0.19873047,-0.32421875,0.12207031,-1.3427734,0.30517578,0.0,0.0,0.0,149.03503,67.785645,-137.98828
1765589847156,-0.93896484,0.19873047,-0.32421875,0.12207031,-1.3427734,0.30517578,0.0,0.0,0.0,148.97461,67.77466,-138.12561
1765589847244,-0.92822266,0.18798828,-0.3203125,0.7324219,1.3427734,-0.061035156,0.0,0.0,0.0,148.97461,67.77466,-138.12561
1765589847256,-0.92822266,0.18798828,-0.3203125,0.7324219,1.3427734,-0.061035156,0.0,0.0,0.0,149.02405,67.75818,-138.09265
1765589847344,-0.921875,0.22265625,-0.33251953,-3.4179688,5.065918,-0.4272461,0.0,0.0,0.0,149.02405,67.75818,-138.09265
1765589847356,-0.921875,0.22265625,-0.33251953,-3.4179688,5.065918,-0.4272461,0.0,0.0,0.0,149.52942,67.527466,-137.83447
1765589847443,-0.9355469,0.18310547,-0.3203125,2.380371,-0.5493164,2.0751953,0.0,0.0,0.0,149.52942,67.527466,-137.83447
1765589847456,-0.9355469,0.18310547,-0.3203125,2.380371,-0.5493164,2.0751953,0.0,0.0,0.0,149.74915,67.46155,-137.3346
1765589847543,-0.93115234,0.19873047,-0.3251953,-1.7089844,0.30517578,0.18310547,0.0,0.0,0.0,149.74915,67.46155,-137.3346
1765589847556,-0.93115234,0.19873047,-0.3251953,-1.7089844,0.30517578,0.18310547,0.0,0.0,0.0,149.51843,67.40662,-137.76306
1765589847643,-0.93115234,0.20214844,-0.3251953,-1.0375977,1.8920898,1.4038086,0.0,0.0,0.0,149.51843,67.40662,-137.76306
1765589847655,-0.93115234,0.20214844,-0.3251953,-1.0375977,1.8920898,1.4038086,0.0,0.0,0.0,149.3811,67.34619,-137.88391
1765589847743,-0.91552734,0.1875,-0.34228516,0.24414062,1.4038086,0.30517578,0.0,0.0,0.0,149.3811,67.34619,-137.88391
1765589847754,-0.91552734,0.1875,-0.34228516,0.24414062,1.4038086,0.30517578,0.0,0.0,0.0,149.56238,67.1814,-137.52136
1765589847842,-0.9355469,0.19921875,-0.32177734,-0.48828125,-2.1362305,0.79345703,0.0,0.0,0.0,149.56238,67.1814,-137.52136
1765589847854,-0.9355469,0.19921875,-0.32177734,-0.48828125,-2.1362305,0.79345703,0.0,0.0,0.0,149.41956,67.18689,-137.807
1765589847942,-0.92333984,0.20214844,-0.33251953,-1.3427734,0.91552734,0.61035156,0.0,0.0,0.0,149.41956,67.18689,-137.807
1765589847954,-0.92333984,0.20214844,-0.33251953,-1.3427734,0.91552734,0.61035156,0.0,0.0,0.0,149.15588,67.18689,-138.15308
1765589848042,-0.92089844,0.19238281,-0.32714844,-1.159668,1.0986328,-0.30517578,0.0,0.0,0.0,149.15588,67.18689,-138.15308
1765589848053,-0.92089844,0.19238281,-0.32714844,-1.159668,1.0986328,-0.30517578,0.0,0.0,0.0,149.068,67.1814,-138.1311
1765589848141,-0.92578125,0.20263672,-0.32666016,1.8310547,-4.0283203,0.24414062,0.0,0.0,0.0,149.068,67.1814,-138.1311
1765589848153,-0.92578125,0.20263672,-0.32666016,1.8310547,-4.0283203,0.24414062,0.0,0.0,0.0,148.85376,67.40662,-138.4607
1765589848241,-0.93066406,0.20410156,-0.31445312,-1.2207031,-0.48828125,-0.30517578,0.0,0.0,0.0,148.85376,67.40662,-138.4607
1765589848259,-0.93066406,0.20410156,-0.31445312,-1.2207031,-0.48828125,-0.30517578,0.0,0.0,0.0,148.72742,67.45056,-138.57056
1765589848341,-0.9248047,0.19824219,-0.3256836,0.061035156,-0.4272461,0.18310547,0.0,0.0,0.0,148.72742,67.45056,-138.57056
1765589848352,-0.9248047,0.19824219,-0.3256836,0.061035156,-0.4272461,0.18310547,0.0,0.0,0.0,148.5791,67.53296,-138.64746
1765589848441,-0.92871094,0.20019531,-0.31640625,-1.0375977,-0.12207031,-0.061035156,0.0,0.0,0.0,148.5791,67.53296,-138.64746
1765589848453,-0.92871094,0.20019531,-0.31640625,-1.0375977,-0.12207031,-0.061035156,0.0,0.0,0.0,148.45276,67.56592,-138.81226
1765589848540,-0.92871094,0.20117188,-0.3256836,-0.30517578,0.36621094,-0.061035156,0.0,0.0,0.0,148.45276,67.56592,-138.81226
1765589848552,-0.92871094,0.20117188,-0.3256836,-0.30517578,0.36621094,-0.061035156,0.0,0.0,0.0,148.35388,67.60986,-138.8617
1765589848640,-0.9277344,0.20214844,-0.31835938,-0.79345703,0.18310547,-0.30517578,0.0,0.0,0.0,148.35388,67.60986,-138.8617
1765589848652,-0.9277344,0.20214844,-0.31835938,-0.79345703,0.18310547,-0.30517578,0.0,0.0,0.0,148.38135,67.5824,-138.81775
1765589848740,-0.93115234,0.20166016,-0.31982422,0.30517578,-1.4038086,-0.24414062,0.0,0.0,0.0,148.38135,67.5824,-138.81775
1765589848751,-0.93115234,0.20166016,-0.31982422,0.30517578,-1.4038086,-0.24414062,0.0,0.0,0.0,148.38135,67.63733,-138.76282
1765589848839,-0.92822266,0.2006836,-0.31201172,-0.36621094,0.18310547,-0.061035156,0.0,0.0,0.0,148.38135,67.63733,-138.76282
1765589848851,-0.92822266,0.2006836,-0.31201172,-0.36621094,0.18310547,-0.061035156,0.0,0.0,0.0,148.39783,67.62085,-138.71887
1765589848939,-0.9326172,0.19824219,-0.31884766,-0.36621094,0.30517578,-0.24414062,0.0,0.0,0.0,148.39783,67.62085,-138.71887
1765589848951,-0.9326172,0.19824219,-0.31884766,-0.36621094,0.30517578,-0.24414062,0.0,0.0,0.0,148.43628,67.59888,-138.6145
1765589849039,-0.92871094,0.19970703,-0.31640625,0.5493164,-0.36621094,0.24414062,0.0,0.0,0.0,148.43628,67.59888,-138.6145
1765589849050,-0.92871094,0.19970703,-0.31640625,0.5493164,-0.36621094,0.24414062,0.0,0.0,0.0,148.40881,67.64282,-138.67493
1765589849139,-0.93066406,0.2006836,-0.31884766,-0.061035156,0.5493164,0.18310547,0.0,0.0,0.0,148.40881,67.64282,-138.67493
1765589849150,-0.93066406,0.2006836,-0.31884766,-0.061035156,0.5493164,0.18310547,0.0,0.0,0.0,148.44177,67.631836,-138.66943
1765589849238,-0.9296875,0.20263672,-0.31982422,0.6713867,-0.61035156,0.4272461,0.0,0.0,0.0,148.44177,67.631836,-138.66943
1765589849250,-0.9296875,0.20263672,-0.31982422,0.6713867,-0.61035156,0.4272461,0.0,0.0,0.0,148.37585,67.63733,-138.78479
1765589849338,-0.92822266,0.20507812,-0.31689453,-0.24414062,0.18310547,0.061035156,0.0,0.0,0.0,148.37585,67.63733,-138.78479
1765589849350,-0.92822266,0.20507812,-0.31689453,-0.24414062,0.18310547,0.061035156,0.0,0.0,0.0,148.27148,67.681274,-138.92761
1765589849438,-0.9326172,0.20019531,-0.31689453,0.0,0.24414062,-0.30517578,0.0,0.0,0.0,148.27148,67.681274,-138.92761
1765589849454,-0.9326172,0.20019531,-0.31689453,0.0,0.24414062,-0.30517578,0.0,0.0,0.0,148.30444,67.648315,-138.85071
1765589849537,-0.9272461,0.20117188,-0.3178711,1.159668,-1.159668,0.12207031,0.0,0.0,0.0,148.30444,67.648315,-138.85071
1765589849549,-0.9272461,0.20117188,-0.3178711,1.159668,-1.159668,0.12207031,0.0,0.0,0.0,148.29895,67.697754,-138.88367
1765589849637,-0.9296875,0.20263672,-0.3125,-0.79345703,0.6713867,-0.30517578,0.0,0.0,0.0,148.29895,67.697754,-138.88367
1765589849649,-0.9296875,0.20263672,-0.3125,-0.79345703,0.6713867,-0.30517578,0.0,0.0,0.0,148.27148,67.71423,-138.9331
1765589849739,-0.9316406,0.19970703,-0.31640625,0.18310547,-0.24414062,-0.061035156,0.0,0.0,0.0,148.27148,67.71423,-138.9331
1765589849749,-0.9316406,0.19970703,-0.31640625,0.18310547,-0.24414062,-0.061035156,0.0,0.0,0.0,148.29346,67.69226,-138.81226
1765589849838,-0.9277344,0.2006836,-0.3154297,0.18310547,0.0,-0.061035156,0.0,0.0,0.0,148.29346,67.69226,-138.81226
1765589849849,-0.9277344,0.2006836,-0.3154297,0.18310547,0.0,-0.061035156,0.0,0.0,0.0,148.30444,67.72522,-138.84521
1765589849937,-0.9316406,0.20019531,-0.31591797,-0.36621094,0.5493164,-0.12207031,0.0,0.0,0.0,148.30444,67.72522,-138.84521
1765589849949,-0.9316406,0.20019531,-0.31591797,-0.36621094,0.5493164,-0.12207031,0.0,0.0,0.0,148.3429,67.70325,-138.76282
1765589850036,-0.92871094,0.19873047,-0.3178711,-0.061035156,0.0,0.061035156,0.0,0.0,0.0,148.3429,67.70325,-138.76282
1765589850047,-0.92871094,0.19873047,-0.3178711,-0.061035156,0.0,0.061035156,0.0,0.0,0.0,148.3429,67.70325,-138.73535
1765589850136,-0.9296875,0.19873047,-0.3178711,-0.24414062,0.12207031,-0.12207031,0.0,0.0,0.0,148.3429,67.70325,-138.73535
1765589850147,-0.9296875,0.19873047,-0.3178711,-0.24414062,0.12207031,-0.12207031,0.0,0.0,0.0,148.32642,67.71973,-138.73535
1765589850235,-0.93115234,0.19873047,-0.31640625,-0.12207031,0.24414062,0.0,0.0,0.0,0.0,148.32642,67.71973,-138.73535
1765589850247,-0.93115234,0.19873047,-0.31640625,-0.12207031,0.24414062,0.0,0.0,0.0,0.0,148.3374,67.71423,-138.7024
1765589850335,-0.9291992,0.19824219,-0.31689453,0.0,-0.061035156,0.0,0.0,0.0,0.0,148.3374,67.71423,-138.7024
1765589850347,-0.9291992,0.19824219,-0.31689453,0.0,-0.061035156,0.0,0.0,0.0,0.0,148.30994,67.73071,-138.71887
1765589850435,-0.9277344,0.2006836,-0.31835938,-0.48828125,0.61035156,0.0,0.0,0.0,0.0,148.30994,67.73071,-138.71887
1765589850447,-0.9277344,0.2006836,-0.31835938,-0.48828125,0.61035156,0.0,0.0,0.0,0.0,148.29346,67.7417,-138.73535
1765589850535,-0.9321289,0.19726562,-0.31396484,-0.5493164,0.79345703,0.18310547,0.0,0.0,0.0,148.29346,67.7417,-138.73535
1765589850553,-0.9321289,0.19726562,-0.31396484,-0.5493164,0.79345703,0.18310547,0.0,0.0,0.0,148.38135,67.6593,-138.55957
1765589850634,-0.9301758,0.20166016,-0.32080078,0.4272461,-0.36621094,0.18310547,0.0,0.0,0.0,148.38135,67.6593,-138.55957
1765589850646,-0.9301758,0.20166016,-0.32080078,0.4272461,-0.36621094,0.18310547,0.0,0.0,0.0,148.38135,67.65381,-138.60352
1765589850734,-0.92333984,0.20166016,-0.32080078,-1.4038086,0.61035156,-0.4272461,0.0,0.0,0.0,148.38135,67.65381,-138.60352
1765589850746,-0.92333984,0.20166016,-0.32080078,-1.4038086,0.61035156,-0.4272461,0.0,0.0,0.0,148.35938,67.648315,-138.54309
1765589850834,-0.93652344,0.20019531,-0.31445312,0.18310547,-0.48828125,0.0,0.0,0.0,0.0,148.35938,67.648315,-138.54309
1765589850845,-0.93652344,0.20019531,-0.31445312,0.18310547,-0.48828125,0.0,0.0,0.0,0.0,148.40881,67.65381,-138.41125
1765589850934,-0.9277344,0.19921875,-0.3173828,0.7324219,-0.5493164,0.4272461,0.0,0.0,0.0,148.40881,67.65381,-138.41125
1765589850945,-0.9277344,0.19921875,-0.3173828,0.7324219,-0.5493164,0.4272461,0.0,0.0,0.0,148.29895,67.67578,-138.58154
1765589851033,-0.9301758,0.1977539,-0.31884766,-1.0375977,0.9765625,-0.5493164,0.0,0.0,0.0,148.29895,67.67578,-138.58154
1765589851045,-0.9301758,0.1977539,-0.31884766,-1.0375977,0.9765625,-0.5493164,0.0,0.0,0.0,148.33191,67.67029,-138.50464
1765589851133,-0.9301758,0.20214844,-0.3154297,0.79345703,-0.30517578,0.30517578,0.0,0.0,0.0,148.33191,67.67029,-138.50464
1765589851144,-0.9301758,0.20214844,-0.3154297,0.79345703,-0.30517578,0.30517578,0.0,0.0,0.0,148.37036,67.67578,-138.47168
1765589851233,-0.92871094,0.19726562,-0.31933594,0.18310547,-0.061035156,0.36621094,0.0,0.0,0.0,148.37036,67.67578,-138.47168
1765589851244,-0.92871094,0.19726562,-0.31933594,0.18310547,-0.061035156,0.36621094,0.0,0.0,0.0,148.33191,67.68677,-138.52112
1765589851332,-0.9321289,0.20263672,-0.32128906,-1.2207031,1.4648438,-0.36621094,0.0,0.0,0.0,148.33191,67.68677,-138.52112
1765589851344,-0.9321289,0.20263672,-0.32128906,-1.2207031,1.4648438,-0.36621094,0.0,0.0,0.0,148.34839,67.681274,-138.50464
1765589851432,-0.9296875,0.19677734,-0.31689453,0.36621094,-0.36621094,0.0,0.0,0.0,0.0,148.34839,67.681274,-138.50464
1765589851444,-0.9296875,0.19677734,-0.31689453,0.36621094,-0.36621094,0.0,0.0,0.0,0.0,148.39783,67.67029,-138.39478
1765589851532,-0.9321289,0.2006836,-0.31982422,0.061035156,0.18310547,0.18310547,0.0,0.0,0.0,148.39783,67.67029,-138.39478
1765589851543,-0.9321289,0.2006836,-0.31982422,0.061035156,0.18310547,0.18310547,0.0,0.0,0.0,148.37585,67.68677,-138.4552
1765589851631,-0.9301758,0.20214844,-0.31689453,0.0,0.36621094,-0.12207031,0.0,0.0,0.0,148.37585,67.68677,-138.4552
1765589851643,-0.9301758,0.20214844,-0.31689453,0.0,0.36621094,-0.12207031,0.0,0.0,0.0,148.39233,67.67029,-138.43872
1765589851731,-0.93115234,0.20166016,-0.31835938,0.4272461,-0.4272461,0.12207031,0.0,0.0,0.0,148.39233,67.67029,-138.43872
1765589851743,-0.93115234,0.20166016,-0.31835938,0.4272461,-0.4272461,0.12207031,0.0,0.0,0.0,148.40881,67.67029,-138.40027
1765589851831,-0.9296875,0.19824219,-0.31835938,-0.30517578,-0.061035156,-0.12207031,0.0,0.0,0.0,148.40881,67.67029,-138.40027
1765589851842,-0.9296875,0.19824219,-0.31835938,-0.30517578,-0.061035156,-0.12207031,0.0,0.0,0.0,148.38135,67.681274,-138.40027
1765589851931,-0.93066406,0.20214844,-0.31689453,0.4272461,-0.061035156,0.0,0.0,0.0,0.0,148.38135,67.681274,-138.40027
1765589851942,-0.93066406,0.20214844,-0.31689453,0.4272461,-0.061035156,0.0,0.0,0.0,0.0,148.40332,67.69226,-138.40027
1765589852030,-0.93115234,0.20019531,-0.31689453,0.30517578,-0.18310547,0.0,0.0,0.0,0.0,148.40332,67.69226,-138.40027
1765589852043,-0.93115234,0.20019531,-0.31689453,0.30517578,-0.18310547,0.0,0.0,0.0,0.0,148.39783,67.697754,-138.40576
1765589852130,-0.93115234,0.20263672,-0.31835938,0.0,-0.30517578,0.0,0.0,0.0,0.0,148.39783,67.697754,-138.40576
1765589852141,-0.93115234,0.20263672,-0.31835938,0.0,-0.30517578,0.0,0.0,0.0,0.0,148.37585,67.71423,-138.42224
1765589852230,-0.93359375,0.20214844,-0.31982422,-0.36621094,0.7324219,0.0,0.0,0.0,0.0,148.37585,67.71423,-138.42224
1765589852242,-0.93359375,0.20214844,-0.31982422,-0.36621094,0.7324219,0.0,0.0,0.0,0.0,148.38135,67.697754,-138.39478
1765589852329,-0.9291992,0.2006836,-0.3178711,0.5493164,-0.36621094,0.0,0.0,0.0,0.0,148.38135,67.697754,-138.39478
1765589852341,-0.9291992,0.2006836,-0.3178711,0.5493164,-0.36621094,0.0,0.0,0.0,0.0,148.38684,67.70325,-138.39478
1765589852429,-0.9301758,0.19824219,-0.31640625,-0.30517578,0.48828125,0.0,0.0,0.0,0.0,148.38684,67.70325,-138.39478
1765589852441,-0.9301758,0.19824219,-0.31640625,-0.30517578,0.48828125,0.0,0.0,0.0,0.0,148.38135,67.70325,-138.38379
1765589852529,-0.9316406,0.19921875,-0.31591797,-0.18310547,0.36621094,0.0,0.0,0.0,0.0,148.38135,67.70325,-138.38379
1765589852540,-0.9316406,0.19921875,-0.31591797,-0.18310547,0.36621094,0.0,0.0,0.0,0.0,148.40332,67.69226,-138.35083
1765589852629,-0.9277344,0.20019531,-0.31835938,0.30517578,-0.36621094,0.0,0.0,0.0,0.0,148.40332,67.69226,-138.35083
1765589852640,-0.9277344,0.20019531,-0.31835938,0.30517578,-0.36621094,0.0,0.0,0.0,0.0,148.39783,67.697754,-138.35083
1765589852728,-0.9301758,0.19873047,-0.3173828,0.061035156,0.061035156,0.0,0.0,0.0,0.0,148.39783,67.697754,-138.35083
1765589852740,-0.9301758,0.19873047,-0.3173828,0.061035156,0.061035156,0.0,0.0,0.0,0.0,148.38684,67.70325,-138.35083
1765589852828,-0.93066406,0.20019531,-0.31689453,0.0,0.0,0.0,0.0,0.0,0.0,148.38684,67.70325,-138.35083
1765589852839,-0.93066406,0.20019531,-0.31689453,0.0,0.0,0.0,0.0,0.0,0.0,148.40332,67.697754,-138.33435
1765589852928,-0.9301758,0.20117188,-0.31591797,0.24414062,-0.12207031,0.0,0.0,0.0,0.0,148.40332,67.697754,-138.33435
1765589852939,-0.9301758,0.20117188,-0.31591797,0.24414062,-0.12207031,0.0,0.0,0.0,0.0,148.39233,67.70874,-138.33984
1765589853027,-0.9291992,0.20166016,-0.3178711,0.061035156,-0.4272461,0.0,0.0,0.0,0.0,148.39233,67.70874,-138.33984
1765589853039,-0.9291992,0.20166016,-0.3178711,0.061035156,-0.4272461,0.0,0.0,0.0,0.0,148.36487,67.71973,-138.35632
1765589853127,-0.9321289,0.1977539,-0.31689453,0.0,0.30517578,0.0,0.0,0.0,0.0,148.36487,67.71973,-138.35632
1765589853139,-0.9321289,0.1977539,-0.31689453,0.0,0.30517578,0.0,0.0,0.0,0.0,148.37036,67.70325,-138.32886
1765589853227,-0.9291992,0.20019531,-0.31835938,0.4272461,-0.4272461,0.0,0.0,0.0,0.0,148.37036,67.70325,-138.32886
1765589853238,-0.9291992,0.20019531,-0.31835938,0.4272461,-0.4272461,0.0,0.0,0.0,0.0,148.38684,67.70874,-138.32336
1765589853327,-0.93115234,0.19873047,-0.31689453,-0.79345703,-0.24414062,0.0,0.0,0.0,0.0,148.38684,67.70874,-138.32336
1765589853338,-0.93115234,0.19873047,-0.31689453,-0.79345703,-0.24414062,0.0,0.0,0.0,0.0,148.29895,67.7417,-138.3783
1765589853426,-0.9316406,0.19873047,-0.31298828,0.0,0.30517578,0.0,0.0,0.0,0.0,148.29895,67.7417,-138.3783
1765589853438,-0.9316406,0.19873047,-0.31298828,0.0,0.30517578,0.0,0.0,0.0,0.0,148.28796,67.74719,-138.3783
1765589853526,-0.9272461,0.203125,-0.3149414,-0.4272461,0.12207031,0.0,0.0,0.0,0.0,148.28796,67.74719,-138.3783
1765589853538,-0.9272461,0.203125,-0.3149414,-0.4272461,0.12207031,0.0,0.0,0.0,0.0,148.28247,67.769165,-138.40576
1765589853626,-0.93066406,0.19726562,-0.31835938,-0.30517578,-0.18310547,-0.18310547,0.0,0.0,0.0,148.28247,67.769165,-138.40576
1765589853637,-0.93066406,0.19726562,-0.31835938,-0.30517578,-0.18310547,-0.18310547,0.0,0.0,0.0,148.29346,67.79114,-138.30139
1765589853725,-0.9379883,0.19091797,-0.31884766,0.48828125,-1.159668,-0.79345703,0.0,0.0,0.0,148.29346,67.79114,-138.30139
1765589853737,-0.9379883,0.19091797,-0.31884766,0.48828125,-1.159668,-0.79345703,0.0,0.0,0.0,148.32092,67.84607,-138.26843
1765589853825,-0.9296875,0.19580078,-0.31152344,2.1972656,-2.0141602,0.24414062,0.0,0.0,0.0,148.32092,67.84607,-138.26843
1765589853837,-0.9296875,0.19580078,-0.31152344,2.1972656,-2.0141602,0.24414062,0.0,0.0,0.0,148.31543,68.04382,-138.47168
1765589853925,-0.9296875,0.2109375,-0.30566406,0.6713867,-0.9765625,0.48828125,0.0,0.0,0.0,148.31543,68.04382,-138.47168
1765589853937,-0.9296875,0.2109375,-0.30566406,0.6713867,-0.9765625,0.48828125,0.0,0.0,0.0,148.18909,68.19214,-138.81226
1765589854025,-0.93652344,0.20166016,-0.30810547,-1.3427734,1.7089844,-0.4272461,0.0,0.0,0.0,148.18909,68.19214,-138.81226
1765589854036,-0.93652344,0.20166016,-0.30810547,-1.3427734,1.7089844,-0.4272461,0.0,0.0,0.0,148.12317,68.15918,-138.76282
1765589854124,-0.93408203,0.20019531,-0.31201172,-2.0141602,1.5258789,-0.5493164,0.0,0.0,0.0,148.12317,68.15918,-138.76282
1765589854136,-0.93408203,0.20019531,-0.31201172,-2.0141602,1.5258789,-0.5493164,0.0,0.0,0.0,148.21106,68.07129,-138.4552
1765589854224,-0.93359375,0.19970703,-0.31835938,-1.3427734,1.0986328,0.48828125,0.0,0.0,0.0,148.21106,68.07129,-138.4552
1765589854237,-0.93359375,0.19970703,-0.31835938,-1.3427734,1.0986328,0.48828125,0.0,0.0,0.0,148.2605,67.99988,-138.17505
1765589854324,-0.92822266,0.18652344,-0.31591797,-1.2817383,1.4038086,-0.4272461,0.0,0.0,0.0,148.2605,67.99988,-138.17505
1765589854335,-0.92822266,0.18652344,-0.31591797,-1.2817383,1.4038086,-0.4272461,0.0,0.0,0.0,148.12317,67.84607,-138.27393
1765589854423,-0.9301758,0.20361328,-0.30859375,1.6479492,-1.4038086,0.4272461,0.0,0.0,0.0,148.12317,67.84607,-138.27393
1765589854435,-0.9301758,0.20361328,-0.30859375,1.6479492,-1.4038086,0.4272461,0.0,0.0,0.0,148.12317,67.89551,-138.32336
1765589854523,-0.93115234,0.1953125,-0.3149414,0.18310547,-0.30517578,0.0,0.0,0.0,0.0,148.12317,67.89551,-138.32336
1765589854535,-0.93115234,0.1953125,-0.3149414,0.18310547,-0.30517578,0.0,0.0,0.0,0.0,148.13965,67.91199,-138.2959
1765589854623,-0.93066406,0.20166016,-0.31152344,-0.91552734,1.4648438,0.5493164,0.0,0.0,0.0,148.13965,67.91199,-138.2959
1765589854635,-0.93066406,0.20166016,-0.31152344,-0.91552734,1.4648438,0.5493164,0.0,0.0,0.0,148.09021,67.86255,-138.32336
1765589854723,-0.93115234,0.20019531,-0.31689453,0.12207031,-0.7324219,0.0,0.0,0.0,0.0,148.09021,67.86255,-138.32336
1765589854734,-0.93115234,0.20019531,-0.31689453,0.12207031,-0.7324219,0.0,0.0,0.0,0.0,148.06824,67.83508,-138.30688
1765589854822,-0.9316406,0.1953125,-0.3173828,-0.4272461,0.061035156,-0.30517578,0.0,0.0,0.0,148.06824,67.83508,-138.30688
1765589854834,-0.9316406,0.1953125,-0.3173828,-0.4272461,0.061035156,-0.30517578,0.0,0.0,0.0,148.09021,67.83508,-138.25195
1765589854922,-0.9321289,0.2006836,-0.3125,0.4272461,-0.18310547,0.24414062,0.0,0.0,0.0,148.09021,67.83508,-138.25195
1765589854933,-0.9321289,0.2006836,-0.3125,0.4272461,-0.18310547,0.24414062,0.0,0.0,0.0,148.00781,67.901,-138.41675
1765589855022,-0.9296875,0.19677734,-0.31103516,-0.36621094,0.4272461,0.0,0.0,0.0,0.0,148.00781,67.901,-138.41675
1765589855033,-0.9296875,0.19677734,-0.31103516,-0.36621094,0.4272461,0.0,0.0,0.0,0.0,148.02429,67.890015,-138.38379
1765589855121,-0.9321289,0.2006836,-0.3149414,-0.061035156,0.18310547,-0.12207031,0.0,0.0,0.0,148.02429,67.890015,-138.38379
1765589855133,-0.9321289,0.2006836,-0.3149414,-0.061035156,0.18310547,-0.12207031,0.0,0.0,0.0,148.0133,67.906494,-138.43323
1765589855221,-0.9301758,0.20214844,-0.3173828,0.4272461,0.48828125,0.0,0.0,0.0,0.0,148.0133,67.906494,-138.43323
1765589855233,-0.9301758,0.20214844,-0.3173828,0.4272461,0.48828125,0.0,0.0,0.0,0.0,148.11218,67.873535,-138.31787
1765589855321,-0.9321289,0.20117188,-0.3095703,-0.5493164,0.4272461,-0.48828125,0.0,0.0,0.0,148.11218,67.873535,-138.31787
1765589855333,-0.9321289,0.20117188,-0.3095703,-0.5493164,0.4272461,-0.48828125,0.0,0.0,0.0,148.1781,67.87903,-138.28491
1765589855421,-0.93359375,0.19726562,-0.3154297,0.8544922,-0.8544922,0.0,0.0,0.0,0.0,148.1781,67.87903,-138.28491
1765589855432,-0.93359375,0.19726562,-0.3154297,0.8544922,-0.8544922,0.0,0.0,0.0,0.0,148.23303,67.91199,-138.15857
1765589855520,-0.9291992,0.20117188,-0.3125,-0.61035156,0.36621094,-0.48828125,0.0,0.0,0.0,148.23303,67.91199,-138.15857
1765589855532,-0.9291992,0.20117188,-0.3125,-0.61035156,0.36621094,-0.48828125,0.0,0.0,0.0,148.24951,67.95044,-138.16406
1765589855620,-0.9326172,0.19726562,-0.31689453,0.5493164,-0.36621094,-0.061035156,0.0,0.0,0.0,148.24951,67.95044,-138.16406
1765589855632,-0.9326172,0.19726562,-0.31689453,0.5493164,-0.36621094,-0.061035156,0.0,0.0,0.0,148.32092,67.93396,-138.0542
1765589855720,-0.93408203,0.19384766,-0.31298828,-1.159668,0.24414062,-0.5493164,0.0,0.0,0.0,148.32092,67.93396,-138.0542
1765589855732,-0.93408203,0.19384766,-0.31298828,-1.159668,0.24414062,-0.5493164,0.0,0.0,0.0,148.35388,67.94495,-137.9773
1765589855819,-0.93310547,0.19873047,-0.31347656,0.0,0.0,0.18310547,0.0,0.0,0.0,148.35388,67.94495,-137.9773
1765589855831,-0.93310547,0.19873047,-0.31347656,0.0,0.0,0.18310547,0.0,0.0,0.0,148.24951,68.02185,-138.10913
1765589855919,-0.93310547,0.19726562,-0.31152344,-0.7324219,1.159668,-0.12207031,0.0,0.0,0.0,148.24951,68.02185,-138.10913
1765589855931,-0.93310547,0.19726562,-0.31152344,-0.7324219,1.159668,-0.12207031,0.0,0.0,0.0,148.34839,67.95593,-137.9773
1765589856019,-0.9321289,0.19921875,-0.31591797,-0.12207031,0.0,-0.18310547,0.0,0.0,0.0,148.34839,67.95593,-137.9773
1765589856031,-0.9321289,0.19921875,-0.31591797,-0.12207031,0.0,-0.18310547,0.0,0.0,0.0,148.3374,67.95044,-137.98828
1765589856119,-0.9316406,0.20214844,-0.3154297,0.061035156,0.0,0.12207031,0.0,0.0,0.0,148.3374,67.95044,-137.98828
1765589856131,-0.9316406,0.20214844,-0.3154297,0.061035156,0.0,0.12207031,0.0,0.0,0.0,148.31543,67.961426,-138.01575
1765589856218,-0.9350586,0.19824219,-0.3095703,0.79345703,-0.4272461,0.4272461,0.0,0.0,0.0,148.31543,67.961426,-138.01575
1765589856230,-0.9350586,0.19824219,-0.3095703,0.79345703,-0.4272461,0.4272461,0.0,0.0,0.0,148.35938,67.95593,-137.9718
1765589856318,-0.93066406,0.19042969,-0.3154297,-0.30517578,0.36621094,0.0,0.0,0.0,0.0,148.35938,67.95593,-137.9718
1765589856330,-0.93066406,0.19042969,-0.3154297,-0.30517578,0.36621094,0.0,0.0,0.0,0.0,148.33191,67.97241,-137.94434
1765589856418,-0.93115234,0.2006836,-0.31640625,-0.6713867,0.61035156,0.061035156,0.0,0.0,0.0,148.33191,67.97241,-137.94434
1765589856430,-0.93115234,0.2006836,-0.31640625,-0.6713867,0.61035156,0.061035156,0.0,0.0,0.0,148.29895,67.92847,-137.99927
1765589856518,-0.93115234,0.19580078,-0.31347656,-0.061035156,0.0,0.061035156,0.0,0.0,0.0,148.29895,67.92847,-137.99927
1765589856529,-0.93115234,0.19580078,-0.31347656,-0.061035156,0.0,0.061035156,0.0,0.0,0.0,148.28247,67.91199,-137.9773
1765589856618,-0.93115234,0.19726562,-0.3149414,-0.24414062,0.061035156,-0.12207031,0.0,0.0,0.0,148.28247,67.91199,-137.9773
1765589856629,-0.93115234,0.19726562,-0.3149414,-0.24414062,0.061035156,-0.12207031,0.0,0.0,0.0,148.255,67.94495,-138.02124
1765589856717,-0.93310547,0.19482422,-0.31445312,-0.7324219,0.61035156,-0.24414062,0.0,0.0,0.0,148.255,67.94495,-138.02124
1765589856729,-0.93310547,0.19482422,-0.31445312,-0.7324219,0.61035156,-0.24414062,0.0,0.0,0.0,148.24402,67.96692,-138.02124
1765589856817,-0.9316406,0.19873047,-0.31298828,-0.5493164,0.61035156,-0.18310547,0.0,0.0,0.0,148.24402,67.96692,-138.02124
1765589856828,-0.9316406,0.19873047,-0.31298828,-0.5493164,0.61035156,-0.18310547,0.0,0.0,0.0,148.33191,67.95593,-137.91138
1765589856916,-0.93115234,0.20361328,-0.31689453,0.48828125,-0.24414062,0.7324219,0.0,0.0,0.0,148.33191,67.95593,-137.91138
1765589856928,-0.93115234,0.20361328,-0.31689453,0.48828125,-0.24414062,0.7324219,0.0,0.0,0.0,148.2605,67.93945,-137.99927
1765589857016,-0.92822266,0.20166016,-0.31298828,0.5493164,-0.24414062,0.5493164,0.0,0.0,0.0,148.2605,67.93945,-137.99927
1765589857028,-0.92822266,0.20166016,-0.31298828,0.5493164,-0.24414062,0.5493164,0.0,0.0,0.0,148.13965,67.91748,-138.18604
1765589857116,-0.93847656,0.19970703,-0.3071289,-1.4038086,0.12207031,-0.36621094,0.0,0.0,0.0,148.13965,67.91748,-138.18604
1765589857127,-0.93847656,0.19970703,-0.3071289,-1.4038086,0.12207031,-0.36621094,0.0,0.0,0.0,148.11218,67.91199,-138.12561
1765589857216,-0.9169922,0.20263672,-0.3178711,-0.9765625,1.2207031,-0.36621094,0.0,0.0,0.0,148.11218,67.91199,-138.12561
1765589857227,-0.9169922,0.20263672,-0.3178711,-0.9765625,1.2207031,-0.36621094,0.0,0.0,0.0,148.0957,67.92847,-138.01025
1765589857315,-0.94140625,0.18310547,-0.31201172,-4.8828125,1.8920898,-2.8686523,0.0,0.0,0.0,148.0957,67.92847,-138.01025
1765589857327,-0.94140625,0.18310547,-0.31201172,-4.8828125,1.8920898,-2.8686523,0.0,0.0,0.0,148.55713,67.736206,-137.15332
1765589857415,-0.93310547,0.19482422,-0.31347656,1.4648438,-0.8544922,0.48828125,0.0,0.0,0.0,148.55713,67.736206,-137.15332
1765589857426,-0.93310547,0.19482422,-0.31347656,1.4648438,-0.8544922,0.48828125,0.0,0.0,0.0,148.72742,67.79114,-136.82373
1765589857515,-0.92529297,0.20361328,-0.3178711,-1.2817383,0.12207031,-0.36621094,0.0,0.0,0.0,148.72742,67.79114,-136.82373
1765589857526,-0.92529297,0.20361328,-0.3178711,-1.2817383,0.12207031,-0.36621094,0.0,0.0,0.0,148.38135,67.977905,-137.41699
1765589857615,-0.9370117,0.18701172,-0.31591797,0.061035156,0.12207031,-0.061035156,0.0,0.0,0.0,148.38135,67.977905,-137.41699
1765589857626,-0.9370117,0.18701172,-0.31591797,0.061035156,0.12207031,-0.061035156,0.0,0.0,0.0,148.44727,68.010864,-137.20825
1765589857714,-0.9277344,0.1928711,-0.30859375,3.3569336,0.30517578,2.6245117,0.0,0.0,0.0,148.44727,68.010864,-137.20825
1765589857726,-0.9277344,0.1928711,-0.30859375,3.3569336,0.30517578,2.6245117,0.0,0.0,0.0,148.48022,67.93945,-137.4884
1765589857814,-0.9296875,0.19921875,-0.3100586,0.61035156,0.061035156,0.61035156,0.0,0.0,0.0,148.48022,67.93945,-137.4884
1765589857826,-0.9296875,0.19921875,-0.3100586,0.61035156,0.061035156,0.61035156,0.0,0.0,0.0,148.23853,67.99988,-137.98828
1765589857914,-0.9350586,0.20263672,-0.31445312,1.2207031,1.0375977,0.18310547,0.0,0.0,0.0,148.23853,67.99988,-137.98828
1765589857925,-0.9350586,0.20263672,-0.31445312,1.2207031,1.0375977,0.18310547,0.0,0.0,0.0,148.32642,67.857056,-137.98279
1765589858013,-0.9350586,0.20605469,-0.31103516,0.0,0.061035156,-0.36621094,0.0,0.0,0.0,148.32642,67.857056,-137.98279
1765589858025,-0.9350586,0.20605469,-0.31103516,0.0,0.061035156,-0.36621094,0.0,0.0,0.0,148.40332,67.95044,-137.91138
1765589858113,-0.92871094,0.2006836,-0.32080078,0.0,0.8544922,0.7324219,0.0,0.0,0.0,148.40332,67.95044,-137.91138
1765589858125,-0.92871094,0.2006836,-0.32080078,0.0,0.8544922,0.7324219,0.0,0.0,0.0,148.35388,67.88452,-137.96082
1765589858213,-0.93115234,0.19677734,-0.31689453,-1.2207031,0.061035156,-0.6713867,0.0,0.0,0.0,148.35388,67.88452,-137.96082
1765589858224,-0.93115234,0.19677734,-0.31689453,-1.2207031,0.061035156,-0.6713867,0.0,0.0,0.0,148.37036,67.8186,-137.83997
1765589858313,-0.9296875,0.19726562,-0.3154297,-0.79345703,0.0,-0.6713867,0.0,0.0,0.0,148.37036,67.8186,-137.83997
1765589858324,-0.9296875,0.19726562,-0.3154297,-0.79345703,0.0,-0.6713867,0.0,0.0,0.0,148.4253,67.86255,-137.67517
1765589858412,-0.93310547,0.19873047,-0.31445312,0.79345703,-0.18310547,0.8544922,0.0,0.0,0.0,148.4253,67.86255,-137.67517
1765589858424,-0.93310547,0.19873047,-0.31445312,0.79345703,-0.18310547,0.8544922,0.0,0.0,0.0,148.4253,67.85156,-137.66968
1765589858512,-0.93359375,0.19433594,-0.31982422,-0.30517578,0.0,-0.24414062,0.0,0.0,0.0,148.4253,67.85156,-137.66968
1765589858524,-0.93359375,0.19433594,-0.31982422,-0.30517578,0.0,-0.24414062,0.0,0.0,0.0,148.37036,67.84607,-137.75757
1765589858612,-0.93066406,0.20117188,-0.31347656,-0.61035156,1.0986328,-0.5493164,0.0,0.0,0.0,148.37036,67.84607,-137.75757
1765589858624,-0.93066406,0.20117188,-0.31347656,-0.61035156,1.0986328,-0.5493164,0.0,0.0,0.0,148.45276,67.840576,-137.6477
1765589858711,-0.93359375,0.1977539,-0.3173828,-0.36621094,0.12207031,-0.18310547,0.0,0.0,0.0,148.45276,67.840576,-137.6477
1765589858723,-0.93359375,0.1977539,-0.3173828,-0.36621094,0.12207031,-0.18310547,0.0,0.0,0.0,148.56262,67.8241,-137.43347
1765589858811,-0.9316406,0.19726562,-0.32080078,0.0,0.0,-0.12207031,0.0,0.0,0.0,148.56262,67.8241,-137.43347
1765589858823,-0.9316406,0.19726562,-0.32080078,0.0,0.0,-0.12207031,0.0,0.0,0.0,148.57361,67.79114,-137.38403
1765589858911,-0.93066406,0.19726562,-0.31347656,0.0,0.18310547,0.12207031,0.0,0.0,0.0,148.57361,67.79114,-137.38403
1765589858922,-0.93066406,0.19726562,-0.31347656,0.0,0.18310547,0.12207031,0.0,0.0,0.0,148.56812,67.79663,-137.38953
1765589859011,-0.9321289,0.19921875,-0.3203125,0.0,0.0,-0.061035156,0.0,0.0,0.0,148.56812,67.79663,-137.38953
1765589859022,-0.9321289,0.19921875,-0.3203125,0.0,0.0,-0.061035156,0.0,0.0,0.0,148.5846,67.78015,-137.36206
1765589859110,-0.9291992,0.19921875,-0.31982422,0.12207031,0.0,0.0,0.0,0.0,0.0,148.5846,67.78015,-137.36206
1765589859122,-0.9291992,0.19921875,-0.31982422,0.12207031,0.0,0.0,0.0,0.0,0.0,148.60657,67.78015,-137.3291
1765589859210,-0.93310547,0.1977539,-0.31884766,-0.12207031,-0.36621094,0.0,0.0,0.0,0.0,148.60657,67.78015,-137.3291
1765589859222,-0.93310547,0.1977539,-0.31884766,-0.12207031,-0.36621094,0.0,0.0,0.0,0.0,148.56262,67.785645,-137.35657
1765589859310,-0.9321289,0.19482422,-0.31591797,-0.18310547,0.061035156,-0.24414062,0.0,0.0,0.0,148.56262,67.785645,-137.35657
1765589859321,-0.9321289,0.19482422,-0.31591797,-0.18310547,0.061035156,-0.24414062,0.0,0.0,0.0,148.5791,67.80762,-137.30713
1765589859409,-0.93310547,0.19824219,-0.32128906,-0.4272461,0.24414062,0.061035156,0.0,0.0,0.0,148.5791,67.80762,-137.30713
1765589859421,-0.93310547,0.19824219,-0.32128906,-0.4272461,0.24414062,0.061035156,0.0,0.0,0.0,148.57361,67.80762,-137.30164
1765589859509,-0.9316406,0.19726562,-0.31640625,-0.24414062,0.61035156,0.061035156,0.0,0.0,0.0,148.57361,67.80762,-137.30164
1765589859521,-0.9316406,0.19726562,-0.31640625,-0.24414062,0.61035156,0.061035156,0.0,0.0,0.0,148.62305,67.78015,-137.24121
1765589859609,-0.9316406,0.19824219,-0.3178711,0.061035156,-0.24414062,0.0,0.0,0.0,0.0,148.62305,67.78015,-137.24121
1765589859620,-0.9316406,0.19824219,-0.3178711,0.061035156,-0.24414062,0.0,0.0,0.0,0.0,148.5846,67.79663,-137.30164
1765589859709,-0.93115234,0.19970703,-0.32080078,0.12207031,0.061035156,0.0,0.0,0.0,0.0,148.5846,67.79663,-137.30164
1765589859720,-0.93115234,0.19970703,-0.32080078,0.12207031,0.061035156,0.0,0.0,0.0,0.0,148.61206,67.78015,-137.27417
1765589859808,-0.9321289,0.20019531,-0.31347656,0.0,0.061035156,0.0,0.0,0.0,0.0,148.61206,67.78015,-137.27417
1765589859820,-0.9321289,0.20019531,-0.31347656,0.0,0.061035156,0.0,0.0,0.0,0.0,148.61206,67.78015,-137.26868
1765589859908,-0.93066406,0.1977539,-0.31982422,0.0,0.0,0.0,0.0,0.0,0.0,148.61206,67.78015,-137.26868
1765589859920,-0.93066406,0.1977539,-0.31982422,0.0,0.0,0.0,0.0,0.0,0.0,148.61206,67.77466,-137.2467
1765589860008,-0.93066406,0.19824219,-0.31884766,0.0,0.061035156,0.0,0.0,0.0,0.0,148.61206,67.77466,-137.2467
1765589860019,-0.93066406,0.19824219,-0.31884766,0.0,0.061035156,0.0,0.0,0.0,0.0,148.63403,67.75818,-137.21924
1765589860108,-0.93066406,0.19921875,-0.3154297,0.0,-0.12207031,0.0,0.0,0.0,0.0,148.63403,67.75818,-137.21924
1765589860119,-0.93066406,0.19921875,-0.3154297,0.0,-0.12207031,0.0,0.0,0.0,0.0,148.61206,67.78015,-137.24121
1765589860207,-0.92822266,0.20166016,-0.31835938,0.12207031,-0.30517578,0.061035156,0.0,0.0,0.0,148.61206,67.78015,-137.24121
1765589860219,-0.92822266,0.20166016,-0.31835938,0.12207031,-0.30517578,0.061035156,0.0,0.0,0.0,148.5846,67.785645,-137.26868
1765589860307,-0.9296875,0.19628906,-0.3173828,0.79345703,-0.30517578,0.0,0.0,0.0,0.0,148.5846,67.785645,-137.26868
1765589860319,-0.9296875,0.19628906,-0.3173828,0.79345703,-0.30517578,0.0,0.0,0.0,0.0,148.61755,67.79663,-137.2522
1765589860407,-0.9296875,0.1977539,-0.31933594,-0.061035156,-0.061035156,0.0,0.0,0.0,0.0,148.61755,67.79663,-137.2522
1765589860418,-0.9296875,0.1977539,-0.31933594,-0.061035156,-0.061035156,0.0,0.0,0.0,0.0,148.62854,67.78015,-137.23022
1765589860506,-0.9296875,0.19824219,-0.31640625,0.0,0.30517578,-0.061035156,0.0,0.0,0.0,148.62854,67.78015,-137.23022
1765589860518,-0.9296875,0.19824219,-0.31640625,0.0,0.30517578,-0.061035156,0.0,0.0,0.0,148.6615,67.78015,-137.18628
1765589860606,-0.9316406,0.19726562,-0.31591797,0.0,0.0,0.0,0.0,0.0,0.0,148.6615,67.78015,-137.18628
1765589860617,-0.9316406,0.19726562,-0.31591797,0.0,0.0,0.0,0.0,0.0,0.0,148.69446,67.78015,-137.14233
1765589860706,-0.9291992,0.19824219,-0.31835938,-0.24414062,0.18310547,0.0,0.0,0.0,0.0,148.69446,67.78015,-137.14233
1765589860717,-0.9291992,0.19824219,-0.31835938,-0.24414062,0.18310547,0.0,0.0,0.0,0.0,148.68347,67.77466,-137.14233
1765589860806,-0.93115234,0.19824219,-0.31640625,-0.061035156,0.30517578,0.0,0.0,0.0,0.0,148.68347,67.77466,-137.14233
1765589860818,-0.93115234,0.19824219,-0.31640625,-0.061035156,0.30517578,0.0,0.0,0.0,0.0,148.68896,67.77466,-137.13684
1765589860905,-0.93066406,0.19726562,-0.31884766,0.061035156,-0.30517578,0.0,0.0,0.0,0.0,148.68896,67.77466,-137.13684
1765589860917,-0.93066406,0.19726562,-0.31884766,0.061035156,-0.30517578,0.0,0.0,0.0,0.0,148.69995,67.77466,-137.12036
1765589861005,-0.9301758,0.1977539,-0.3173828,-0.4272461,0.24414062,0.0,0.0,0.0,0.0,148.69995,67.77466,-137.12036
1765589861016,-0.9301758,0.1977539,-0.3173828,-0.4272461,0.24414062,0.0,0.0,0.0,0.0,148.68347,67.78015,-137.12585
1765589861105,-0.9301758,0.1977539,-0.3178711,-0.061035156,0.12207031,0.0,0.0,0.0,0.0,148.68347,67.78015,-137.12585
1765589861116,-0.9301758,0.1977539,-0.3178711,-0.061035156,0.12207031,0.0,0.0,0.0,0.0,148.67798,67.78015,-137.12585
1765589861204,-0.9267578,0.19677734,-0.3100586,0.061035156,0.24414062,0.0,0.0,0.0,0.0,148.67798,67.78015,-137.12585
1765589861216,-0.9267578,0.19677734,-0.3100586,0.061035156,0.24414062,0.0,0.0,0.0,0.0,148.71094,67.8186,-137.09839
1765589861304,-0.9296875,0.19335938,-0.3178711,-0.61035156,0.061035156,-0.12207031,0.0,0.0,0.0,148.71094,67.8186,-137.09839
1765589861316,-0.9296875,0.19335938,-0.3178711,-0.61035156,0.061035156,-0.12207031,0.0,0.0,0.0,148.73291,67.82959,-137.02148
1765589861404,-0.9301758,0.19580078,-0.31640625,-0.30517578,0.48828125,0.0,0.0,0.0,0.0,148.73291,67.82959,-137.02148
1765589861415,-0.9301758,0.19580078,-0.31640625,-0.30517578,0.48828125,0.0,0.0,0.0,0.0,148.77136,67.81311,-136.97205
1765589861504,-0.93115234,0.19726562,-0.31640625,0.5493164,-0.24414062,-0.12207031,0.0,0.0,0.0,148.77136,67.81311,-136.97205
1765589861515,-0.93115234,0.19726562,-0.31640625,0.5493164,-0.24414062,-0.12207031,0.0,0.0,0.0,148.8263,67.82959,-136.95557
1765589861603,-0.9345703,0.19189453,-0.3203125,0.0,0.79345703,0.061035156,0.0,0.0,0.0,148.8263,67.82959,-136.95557
1765589861615,-0.9345703,0.19189453,-0.3203125,0.0,0.79345703,0.061035156,0.0,0.0,0.0,148.90869,67.82959,-136.87317
1765589861703,-0.9296875,0.19970703,-0.31835938,-0.79345703,0.61035156,-0.4272461,0.0,0.0,0.0,148.90869,67.82959,-136.87317
1765589861714,-0.9296875,0.19970703,-0.31835938,-0.79345703,0.61035156,-0.4272461,0.0,0.0,0.0,148.93616,67.79114,-136.86768
1765589861803,-0.93115234,0.19628906,-0.31689453,0.12207031,0.0,0.30517578,0.0,0.0,0.0,148.93616,67.79114,-136.86768
1765589861814,-0.93115234,0.19628906,-0.31689453,0.12207031,0.0,0.30517578,0.0,0.0,0.0,148.96362,67.77466,-136.79626
1765589861903,-0.9321289,0.19335938,-0.3232422,0.0,-0.48828125,-0.12207031,0.0,0.0,0.0,148.96362,67.77466,-136.79626
1765589861914,-0.9321289,0.19335938,-0.3232422,0.0,-0.48828125,-0.12207031,0.0,0.0,0.0,149.01306,67.769165,-136.70837
1765589862002,-0.93359375,0.19482422,-0.3227539,-0.36621094,0.0,-0.12207031,0.0,0.0,0.0,149.01306,67.769165,-136.70837
1765589862014,-0.93359375,0.19482422,-0.3227539,-0.36621094,0.0,-0.12207031,0.0,0.0,0.0,148.9856,67.81311,-136.75781
1765589862102,-0.9321289,0.19873047,-0.3149414,-0.30517578,0.48828125,0.0,0.0,0.0,0.0,148.9856,67.81311,-136.75781
1765589862114,-0.9321289,0.19873047,-0.3149414,-0.30517578,0.48828125,0.0,0.0,0.0,0.0,148.99109,67.79663,-136.77429
1765589862202,-0.9321289,0.19433594,-0.31982422,0.18310547,-0.12207031,0.0,0.0,0.0,0.0,148.99109,67.79663,-136.77429
1765589862213,-0.9321289,0.19433594,-0.31982422,0.18310547,-0.12207031,0.0,0.0,0.0,0.0,148.9856,67.802124,-136.75781
1765589862301,-0.93066406,0.19726562,-0.32421875,0.18310547,0.061035156,-0.061035156,0.0,0.0,0.0,148.9856,67.802124,-136.75781
1765589862313,-0.93066406,0.19726562,-0.32421875,0.18310547,0.061035156,-0.061035156,0.0,0.0,0.0,149.02954,67.78015,-136.70837
1765589862401,-0.9321289,0.19726562,-0.3149414,0.0,0.0,0.0,0.0,0.0,0.0,149.02954,67.78015,-136.70837
1765589862413,-0.9321289,0.19726562,-0.3149414,0.0,0.0,0.0,0.0,0.0,0.0,149.01306,67.79114,-136.73035
1765589862501,-0.9301758,0.1953125,-0.31835938,0.061035156,-0.061035156,0.0,0.0,0.0,0.0,149.01306,67.79114,-136.73035
1765589862512,-0.9301758,0.1953125,-0.31835938,0.061035156,-0.061035156,0.0,0.0,0.0,0.0,149.00208,67.79114,-136.71936
1765589862600,-0.93115234,0.19433594,-0.31982422,-0.12207031,0.061035156,0.0,0.0,0.0,0.0,149.00208,67.79114,-136.71936
1765589862612,-0.93115234,0.19433594,-0.31982422,-0.12207031,0.061035156,0.0,0.0,0.0,0.0,149.04053,67.78015,-136.65894
1765589862700,-0.9316406,0.19580078,-0.31640625,0.061035156,-0.18310547,0.0,0.0,0.0,0.0,149.04053,67.78015,-136.65894
1765589862712,-0.9316406,0.19580078,-0.31640625,0.061035156,-0.18310547,0.0,0.0,0.0,0.0,149.01855,67.802124,-136.6919
1765589862800,-0.92871094,0.19726562,-0.31835938,0.9765625,-0.7324219,0.79345703,0.0,0.0,0.0,149.01855,67.802124,-136.6919
1765589862812,-0.92871094,0.19726562,-0.31835938,0.9765625,-0.7324219,0.79345703,0.0,0.0,0.0,148.96912,67.802124,-136.7633
1765589862900,-0.93066406,0.19580078,-0.32080078,0.12207031,-0.24414062,-0.12207031,0.0,0.0,0.0,148.96912,67.802124,-136.7633
1765589862911,-0.93066406,0.19580078,-0.32080078,0.12207031,-0.24414062,-0.12207031,0.0,0.0,0.0,148.91418,67.8186,-136.8512
1765589862999,-0.9316406,0.19628906,-0.3178711,0.12207031,0.12207031,0.0,0.0,0.0,0.0,148.91418,67.8186,-136.8512
1765589863011,-0.9316406,0.19628906,-0.3178711,0.12207031,0.12207031,0.0,0.0,0.0,0.0,148.94165,67.802124,-136.80176
1765589863099,-0.9296875,0.19384766,-0.31591797,0.18310547,0.0,-0.061035156,0.0,0.0,0.0,148.94165,67.802124,-136.80176
1765589863111,-0.9296875,0.19384766,-0.31591797,0.18310547,0.0,-0.061035156,0.0,0.0,0.0,148.91968,67.8186,-136.83472
1765589863199,-0.93115234,0.19384766,-0.3173828,0.0,0.0,-0.12207031,0.0,0.0,0.0,148.91968,67.8186,-136.83472
1765589863210,-0.93115234,0.19384766,-0.3173828,0.0,0.0,-0.12207031,0.0,0.0,0.0,148.95813,67.80762,-136.78528
1765589863298,-0.93066406,0.19677734,-0.31591797,-0.061035156,0.18310547,0.061035156,0.0,0.0,0.0,148.95813,67.80762,-136.78528
1765589863311,-0.93066406,0.19677734,-0.31591797,-0.061035156,0.18310547,0.061035156,0.0,0.0,0.0,148.95264,67.81311,-136.77979
1765589863398,-0.93115234,0.19482422,-0.31933594,0.61035156,-0.12207031,0.0,0.0,0.0,0.0,148.95264,67.81311,-136.77979
1765589863410,-0.93115234,0.19482422,-0.31933594,0.61035156,-0.12207031,0.0,0.0,0.0,0.0,148.96362,67.81311,-136.77429
1765589863498,-0.93115234,0.19433594,-0.31835938,0.061035156,0.0,0.0,0.0,0.0,0.0,148.96362,67.81311,-136.77429
1765589863509,-0.93115234,0.19433594,-0.31835938,0.061035156,0.0,0.0,0.0,0.0,0.0,148.9856,67.81311,-136.7688
1765589863598,-0.93115234,0.19677734,-0.31591797,0.061035156,-0.18310547,0.0,0.0,0.0,0.0,148.9856,67.81311,-136.7688
1765589863610,-0.93115234,0.19677734,-0.31591797,0.061035156,-0.18310547,0.0,0.0,0.0,0.0,148.96362,67.82959,-136.79077
1765589863697,-0.9316406,0.19580078,-0.31835938,0.12207031,-0.061035156,0.0,0.0,0.0,0.0,148.96362,67.82959,-136.79077
1765589863709,-0.9316406,0.19580078,-0.31835938,0.12207031,-0.061035156,0.0,0.0,0.0,0.0,148.95264,67.8241,-136.7688
1765589863797,-0.93310547,0.19580078,-0.32177734,0.18310547,0.18310547,0.0,0.0,0.0,0.0,148.95264,67.8241,-136.7688
1765589863808,-0.93310547,0.19580078,-0.32177734,0.18310547,0.18310547,0.0,0.0,0.0,0.0,148.97461,67.8241,-136.7633
1765589863897,-0.93359375,0.1953125,-0.3173828,0.24414062,-0.36621094,0.0,0.0,0.0,0.0,148.97461,67.8241,-136.7633
1765589863908,-0.93359375,0.1953125,-0.3173828,0.24414062,-0.36621094,0.0,0.0,0.0,0.0,149.00208,67.8186,-136.74683
1765589863997,-0.93115234,0.19433594,-0.3173828,0.18310547,0.12207031,-0.24414062,0.0,0.0,0.0,149.00208,67.8186,-136.74683
1765589864008,-0.93115234,0.19433594,-0.3173828,0.18310547,0.12207031,-0.24414062,0.0,0.0,0.0,149.10095,67.85156,-136.6864
1765589864096,-0.92529297,0.1977539,-0.32177734,-0.61035156,1.5258789,-0.30517578,0.0,0.0,0.0,149.10095,67.85156,-136.6864
1765589864108,-0.92529297,0.1977539,-0.32177734,-0.61035156,1.5258789,-0.30517578,0.0,0.0,0.0,149.1394,67.8186,-136.61499
1765589864196,-0.93603516,0.1899414,-0.31884766,-0.18310547,1.5869141,-0.18310547,0.0,0.0,0.0,149.1394,67.8186,-136.61499
1765589864208,-0.93603516,0.1899414,-0.31884766,-0.18310547,1.5869141,-0.18310547,0.0,0.0,0.0,149.39758,67.697754,-136.24695
1765589864296,-0.9301758,0.1928711,-0.33447266,0.9765625,1.3427734,0.0,0.0,0.0,0.0,149.39758,67.697754,-136.24695
1765589864307,-0.9301758,0.1928711,-0.33447266,0.9765625,1.3427734,0.0,0.0,0.0,0.0,149.77112,67.51648,-135.87341
1765589864395,-0.89697266,0.1796875,-0.30566406,2.5634766,-0.24414062,0.30517578,0.0,0.0,0.0,149.77112,67.51648,-135.87341
1765589864407,-0.89697266,0.1796875,-0.30566406,2.5634766,-0.24414062,0.30517578,0.0,0.0,0.0,149.66125,67.351685,-136.2085
1765589864495,-0.9326172,0.22705078,-0.34960938,-11.169434,9.643555,-1.7700195,0.0,0.0,0.0,149.66125,67.351685,-136.2085
1765589864507,-0.9326172,0.22705078,-0.34960938,-11.169434,9.643555,-1.7700195,0.0,0.0,0.0,150.28198,66.98364,-135.51086
1765589864595,-0.92041016,0.17626953,-0.32177734,4.3945312,-1.5869141,4.1503906,0.0,0.0,0.0,150.28198,66.98364,-135.51086
1765589864606,-0.92041016,0.17626953,-0.32177734,4.3945312,-1.5869141,4.1503906,0.0,0.0,0.0,150.24353,66.7749,-135.18127
1765589864695,-0.9267578,0.18554688,-0.36328125,-2.5024414,3.540039,-2.2583008,0.0,0.0,0.0,150.24353,66.7749,-135.18127
1765589864706,-0.9267578,0.18554688,-0.36328125,-2.5024414,3.540039,-2.2583008,0.0,0.0,0.0,150.30945,66.80237,-135.21973
1765589864795,-0.93066406,0.19726562,-0.3256836,0.24414062,0.24414062,0.79345703,0.0,0.0,0.0,150.30945,66.80237,-135.21973
1765589864806,-0.93066406,0.19726562,-0.3256836,0.24414062,0.24414062,0.79345703,0.0,0.0,0.0,150.63904,66.725464,-135.04395
1765589864894,-0.92578125,0.18359375,-0.34716797,2.9296875,-2.2583008,2.1362305,0.0,0.0,0.0,150.63904,66.725464,-135.04395
1765589864906,-0.92578125,0.18359375,-0.34716797,2.9296875,-2.2583008,2.1362305,0.0,0.0,0.0,150.56763,66.59912,-135.02197
1765589864994,-0.9121094,0.21044922,-0.3383789,-1.4038086,-0.24414062,0.61035156,0.0,0.0,0.0,150.56763,66.59912,-135.02197
1765589865005,-0.9121094,0.21044922,-0.3383789,-1.4038086,-0.24414062,0.61035156,0.0,0.0,0.0,149.98535,66.75842,-136.09314
1765589865093,-0.9272461,0.19384766,-0.33642578,0.6713867,-2.6855469,0.7324219,0.0,0.0,0.0,149.98535,66.75842,-136.09314
1765589865105,-0.9272461,0.19384766,-0.33642578,0.6713867,-2.6855469,0.7324219,0.0,0.0,0.0,149.67773,66.829834,-136.30737
1765589865193,-0.92285156,0.20605469,-0.33007812,0.061035156,-2.5024414,-0.18310547,0.0,0.0,0.0,149.67773,66.829834,-136.30737
1765589865205,-0.92285156,0.20605469,-0.33007812,0.061035156,-2.5024414,-0.18310547,0.0,0.0,0.0,149.36462,67.03308,-136.70837
1765589865293,-0.9238281,0.20458984,-0.3251953,0.6713867,-2.0751953,0.91552734,0.0,0.0,0.0,149.36462,67.03308,-136.70837
1765589865304,-0.9238281,0.20458984,-0.3251953,0.6713867,-2.0751953,0.91552734,0.0,0.0,0.0,149.11194,67.16492,-136.96655
1765589865393,-0.92626953,0.19921875,-0.32226562,-2.2583008,1.5869141,-0.4272461,0.0,0.0,0.0,149.11194,67.16492,-136.96655
1765589865404,-0.92626953,0.19921875,-0.32226562,-2.2583008,1.5869141,-0.4272461,0.0,0.0,0.0,148.94165,67.13196,-137.05994
1765589865492,-0.92089844,0.19726562,-0.3251953,0.48828125,-1.4648438,-0.18310547,0.0,0.0,0.0,148.94165,67.13196,-137.05994
1765589865504,-0.92089844,0.19726562,-0.3251953,0.48828125,-1.4648438,-0.18310547,0.0,0.0,0.0,148.94165,67.21985,-136.88965
1765589865592,-0.9272461,0.20410156,-0.3227539,-1.3427734,0.0,-0.61035156,0.0,0.0,0.0,148.94165,67.21985,-136.88965
1765589865604,-0.9272461,0.20410156,-0.3227539,-1.3427734,0.0,-0.61035156,0.0,0.0,0.0,148.91968,67.28577,-136.89514
1765589865692,-0.9248047,0.19433594,-0.33251953,0.0,-0.6713867,0.30517578,0.0,0.0,0.0,148.91968,67.28577,-136.89514
1765589865703,-0.9248047,0.19433594,-0.33251953,0.0,-0.6713867,0.30517578,0.0,0.0,0.0,148.89221,67.31323,-136.7688
1765589865791,-0.9370117,0.20214844,-0.31201172,-0.18310547,-2.746582,0.12207031,0.0,0.0,0.0,148.89221,67.31323,-136.7688
1765589865803,-0.9370117,0.20214844,-0.31201172,-0.18310547,-2.746582,0.12207031,0.0,0.0,0.0,148.61755,67.472534,-137.15332
1765589865891,-0.9267578,0.19970703,-0.3173828,-0.7324219,-0.8544922,-0.7324219,0.0,0.0,0.0,148.61755,67.472534,-137.15332
1765589865903,-0.9267578,0.19970703,-0.3173828,-0.7324219,-0.8544922,-0.7324219,0.0,0.0,0.0,148.37585,67.65381,-137.35107
1765589865991,-0.9301758,0.20214844,-0.3173828,-1.4648438,-0.061035156,-0.79345703,0.0,0.0,0.0,148.37585,67.65381,-137.35107
1765589866002,-0.9301758,0.20214844,-0.3173828,-1.4648438,-0.061035156,-0.79345703,0.0,0.0,0.0,148.38684,67.736206,-137.27966
1765589866091,-0.9316406,0.20166016,-0.31298828,-0.5493164,-1.159668,-0.30517578,0.0,0.0,0.0,148.38684,67.736206,-137.27966
1765589866102,-0.9316406,0.20166016,-0.31298828,-0.5493164,-1.159668,-0.30517578,0.0,0.0,0.0,148.27148,67.82959,-137.26868
1765589866190,-0.9321289,0.19580078,-0.31689453,-1.0375977,-0.24414062,-0.12207031,0.0,0.0,0.0,148.27148,67.82959,-137.26868
1765589866202,-0.9321289,0.19580078,-0.31689453,-1.0375977,-0.24414062,-0.12207031,0.0,0.0,0.0,148.1726,67.91199,-137.27417
1765589866290,-0.9345703,0.19677734,-0.30908203,0.5493164,-0.5493164,1.0375977,0.0,0.0,0.0,148.1726,67.91199,-137.27417
1765589866301,-0.9345703,0.19677734,-0.30908203,0.5493164,-0.5493164,1.0375977,0.0,0.0,0.0,147.98035,67.93945,-137.52686
1765589866390,-0.93066406,0.20019531,-0.31054688,0.30517578,-1.7089844,-0.061035156,0.0,0.0,0.0,147.98035,67.93945,-137.52686
1765589866401,-0.93066406,0.20019531,-0.31054688,0.30517578,-1.7089844,-0.061035156,0.0,0.0,0.0,147.78809,67.98889,-137.78503
1765589866489,-0.93115234,0.20410156,-0.30322266,1.4648438,0.12207031,0.5493164,0.0,0.0,0.0,147.78809,67.98889,-137.78503
1765589866501,-0.93115234,0.20410156,-0.30322266,1.4648438,0.12207031,0.5493164,0.0,0.0,0.0,147.73865,68.04932,-137.93884
1765589866589,-0.9316406,0.19824219,-0.3100586,0.30517578,-0.48828125,0.36621094,0.0,0.0,0.0,147.73865,68.04932,-137.93884
1765589866601,-0.9316406,0.19824219,-0.3100586,0.30517578,-0.48828125,0.36621094,0.0,0.0,0.0,147.62878,68.01636,-138.03223
1765589866689,-0.93115234,0.20410156,-0.30664062,0.12207031,-0.12207031,-0.24414062,0.0,0.0,0.0,147.62878,68.01636,-138.03223
1765589866701,-0.93115234,0.20410156,-0.30664062,0.12207031,-0.12207031,-0.24414062,0.0,0.0,0.0,147.52441,68.0603,-138.19702
1765589866789,-0.93310547,0.19824219,-0.30810547,-0.6713867,0.12207031,-0.4272461,0.0,0.0,0.0,147.52441,68.0603,-138.19702
1765589866800,-0.93310547,0.19824219,-0.30810547,-0.6713867,0.12207031,-0.4272461,0.0,0.0,0.0,147.57385,68.09326,-138.06519
1765589866888,-0.93310547,0.20458984,-0.30566406,0.0,0.18310547,0.061035156,0.0,0.0,0.0,147.57385,68.09326,-138.06519
1765589866900,-0.93310547,0.20458984,-0.30566406,0.0,0.18310547,0.061035156,0.0,0.0,0.0,147.55188,68.07678,-138.09814
1765589866988,-0.9345703,0.19726562,-0.30664062,0.5493164,0.0,0.18310547,0.0,0.0,0.0,147.55188,68.07678,-138.09814
1765589867000,-0.9345703,0.19726562,-0.30664062,0.5493164,0.0,0.18310547,0.0,0.0,0.0,147.57385,68.0603,-138.03223
1765589867088,-0.9301758,0.20166016,-0.31298828,-0.7324219,0.36621094,-0.4272461,0.0,0.0,0.0,147.57385,68.0603,-138.03223
1765589867099,-0.9301758,0.20166016,-0.31298828,-0.7324219,0.36621094,-0.4272461,0.0,0.0,0.0,147.63428,68.07129,-137.96631
1765589867188,-0.9316406,0.19970703,-0.3095703,0.061035156,0.12207031,0.061035156,0.0,0.0,0.0,147.63428,68.07129,-137.96631
1765589867199,-0.9316406,0.19970703,-0.3095703,0.061035156,0.12207031,0.061035156,0.0,0.0,0.0,147.65076,68.098755,-137.90588
1765589867287,-0.92871094,0.20117188,-0.30810547,0.7324219,-0.48828125,0.4272461,0.0,0.0,0.0,147.65076,68.098755,-137.90588
1765589867299,-0.92871094,0.20117188,-0.30810547,0.7324219,-0.48828125,0.4272461,0.0,0.0,0.0,147.56287,68.09326,-138.0487
1765589867387,-0.93603516,0.20263672,-0.29882812,0.30517578,0.48828125,0.061035156,0.0,0.0,0.0,147.56287,68.09326,-138.0487
1765589867399,-0.93603516,0.20263672,-0.29882812,0.30517578,0.48828125,0.061035156,0.0,0.0,0.0,147.57935,68.07129,-138.09265
1765589867487,-0.9194336,0.19482422,-0.32373047,-2.5634766,3.1738281,-1.2817383,0.0,0.0,0.0,147.57935,68.07129,-138.09265
1765589867498,-0.9194336,0.19482422,-0.32373047,-2.5634766,3.1738281,-1.2817383,0.0,0.0,0.0,147.44751,68.1427,-138.15857
1765589867586,-0.93310547,0.21191406,-0.31103516,0.0,4.699707,0.4272461,0.0,0.0,0.0,147.44751,68.1427,-138.15857
1765589867598,-0.93310547,0.21191406,-0.31103516,0.0,4.699707,0.4272461,0.0,0.0,0.0,147.91443,67.906494,-137.6532
1765589867686,-0.9453125,0.19921875,-0.3125,0.12207031,-3.2348633,0.30517578,0.0,0.0,0.0,147.91443,67.906494,-137.6532
1765589867698,-0.9453125,0.19921875,-0.3125,0.12207031,-3.2348633,0.30517578,0.0,0.0,0.0,147.91443,67.85156,-137.59827
1765589867786,-0.92285156,0.19677734,-0.30615234,1.0986328,-0.9765625,0.0,0.0,0.0,0.0,147.91443,67.85156,-137.59827
1765589867797,-0.92285156,0.19677734,-0.30615234,1.0986328,-0.9765625,0.0,0.0,0.0,0.0,147.67822,68.00537,-137.8949
1765589867886,-0.9375,0.20166016,-0.31298828,-1.6479492,2.5024414,-1.2207031,0.0,0.0,0.0,147.67822,68.00537,-137.8949
1765589867897,-0.9375,0.20166016,-0.31298828,-1.6479492,2.5024414,-1.2207031,0.0,0.0,0.0,147.91443,67.92297,-137.55432
1765589867985,-0.93310547,0.19970703,-0.30908203,0.18310547,-0.48828125,0.18310547,0.0,0.0,0.0,147.91443,67.92297,-137.55432
1765589867997,-0.93310547,0.19970703,-0.30908203,0.18310547,-0.48828125,0.18310547,0.0,0.0,0.0,147.90344,67.93396,-137.51587
1765589868085,-0.9291992,0.19921875,-0.3154297,-0.061035156,-0.4272461,-0.18310547,0.0,0.0,0.0,147.90344,67.93396,-137.51587
1765589868097,-0.9291992,0.19921875,-0.3154297,-0.061035156,-0.4272461,-0.18310547,0.0,0.0,0.0,147.7771,68.02185,-137.66418
1765589868185,-0.93359375,0.2055664,-0.3125,1.0375977,0.24414062,0.5493164,0.0,0.0,0.0,147.7771,68.02185,-137.66418
1765589868197,-0.93359375,0.2055664,-0.3125,1.0375977,0.24414062,0.5493164,0.0,0.0,0.0,147.88147,67.95044,-137.62024
1765589868285,-0.9355469,0.19628906,-0.31152344,0.0,-0.24414062,0.0,0.0,0.0,0.0,147.88147,67.95044,-137.62024
1765589868296,-0.9355469,0.19628906,-0.31152344,0.0,-0.24414062,0.0,0.0,0.0,0.0,147.88696,67.96692,-137.59827
1765589868384,-0.92822266,0.203125,-0.31689453,-1.0986328,1.0375977,-0.30517578,0.0,0.0,0.0,147.88696,67.96692,-137.59827
1765589868396,-0.92822266,0.203125,-0.31689453,-1.0986328,1.0375977,-0.30517578,0.0,0.0,0.0,147.87598,67.97241,-137.58179
1765589868484,-0.92871094,0.20947266,-0.31347656,0.0,2.5024414,0.9765625,0.0,0.0,0.0,147.87598,67.97241,-137.58179
1765589868495,-0.92871094,0.20947266,-0.31347656,0.0,2.5024414,0.9765625,0.0,0.0,0.0,147.90894,67.82959,-137.62573
1765589868584,-0.9370117,0.19970703,-0.31347656,-0.12207031,-1.8310547,-1.0375977,0.0,0.0,0.0,147.90894,67.82959,-137.62573
1765589868595,-0.9370117,0.19970703,-0.31347656,-0.12207031,-1.8310547,-1.0375977,0.0,0.0,0.0,147.9419,67.93945,-137.48291
1765589868683,-0.92871094,0.19970703,-0.31103516,-0.24414062,0.12207031,-0.30517578,0.0,0.0,0.0,147.9419,67.93945,-137.48291
1765589868695,-0.92871094,0.19970703,-0.31103516,-0.24414062,0.12207031,-0.30517578,0.0,0.0,0.0,147.97485,67.994385,-137.47742
1765589868783,-0.9326172,0.19628906,-0.31396484,-0.18310547,-0.12207031,-0.24414062,0.0,0.0,0.0,147.97485,67.994385,-137.47742
1765589868795,-0.9326172,0.19628906,-0.31396484,-0.18310547,-0.12207031,-0.24414062,0.0,0.0,0.0,148.07922,67.97241,-137.26868
1765589868883,-0.93066406,0.1977539,-0.3100586,-0.18310547,0.30517578,0.0,0.0,0.0,0.0,148.07922,67.97241,-137.26868
1765589868894,-0.93066406,0.1977539,-0.3100586,-0.18310547,0.30517578,0.0,0.0,0.0,0.0,148.05725,67.98889,-137.27417
1765589868983,-0.93310547,0.19873047,-0.31201172,0.5493164,-0.36621094,0.061035156,0.0,0.0,0.0,148.05725,67.98889,-137.27417
1765589868994,-0.93310547,0.19873047,-0.31201172,0.5493164,-0.36621094,0.061035156,0.0,0.0,0.0,148.06274,67.977905,-137.27417
1765589869082,-0.93310547,0.19335938,-0.31396484,-0.30517578,0.12207031,-0.12207031,0.0,0.0,0.0,148.06274,67.977905,-137.27417
1765589869094,-0.93310547,0.19335938,-0.31396484,-0.30517578,0.12207031,-0.12207031,0.0,0.0,0.0,148.08472,67.99988,-137.23022
1765589869182,-0.9316406,0.2006836,-0.31640625,-0.24414062,0.61035156,0.24414062,0.0,0.0,0.0,148.08472,67.99988,-137.23022
1765589869194,-0.9316406,0.2006836,-0.31640625,-0.24414062,0.61035156,0.24414062,0.0,0.0,0.0,148.03528,67.994385,-137.30164
1765589869282,-0.9316406,0.20117188,-0.3095703,-0.5493164,0.61035156,0.0,0.0,0.0,0.0,148.03528,67.994385,-137.30164
1765589869293,-0.9316406,0.20117188,-0.3095703,-0.5493164,0.61035156,0.0,0.0,0.0,0.0,148.05725,67.96692,-137.27966
1765589869382,-0.93310547,0.20019531,-0.31445312,0.30517578,-0.30517578,0.24414062,0.0,0.0,0.0,148.05725,67.96692,-137.27966
1765589869393,-0.93310547,0.20019531,-0.31445312,0.30517578,-0.30517578,0.24414062,0.0,0.0,0.0,148.02979,67.97241,-137.31812
1765589869481,-0.93066406,0.19824219,-0.31640625,-0.24414062,0.48828125,0.24414062,0.0,0.0,0.0,148.02979,67.97241,-137.31812
1765589869493,-0.93066406,0.19824219,-0.31640625,-0.24414062,0.48828125,0.24414062,0.0,0.0,0.0,148.03528,67.93945,-137.30164
1765589869581,-0.93310547,0.20410156,-0.31054688,-0.24414062,0.061035156,-0.24414062,0.0,0.0,0.0,148.03528,67.93945,-137.30164
1765589869593,-0.93310547,0.20410156,-0.31054688,-0.24414062,0.061035156,-0.24414062,0.0,0.0,0.0,148.02429,67.94495,-137.31812
1765589869681,-0.93115234,0.19970703,-0.3154297,0.36621094,-0.18310547,0.30517578,0.0,0.0,0.0,148.02429,67.94495,-137.31812
1765589869692,-0.93115234,0.19970703,-0.3154297,0.36621094,-0.18310547,0.30517578,0.0,0.0,0.0,148.0133,67.95044,-137.30713
1765589869780,-0.93115234,0.19824219,-0.31445312,-0.4272461,0.24414062,-0.36621094,0.0,0.0,0.0,148.0133,67.95044,-137.30713
1765589869792,-0.93115234,0.19824219,-0.31445312,-0.4272461,0.24414062,-0.36621094,0.0,0.0,0.0,148.0133,67.94495,-137.28516
1765589869880,-0.9326172,0.2006836,-0.31201172,-0.30517578,0.061035156,-0.061035156,0.0,0.0,0.0,148.0133,67.94495,-137.28516
1765589869892,-0.9326172,0.2006836,-0.31201172,-0.30517578,0.061035156,-0.061035156,0.0,0.0,0.0,148.03528,67.96692,-137.23572
1765589869980,-0.9316406,0.2006836,-0.31103516,-0.18310547,0.18310547,0.0,0.0,0.0,0.0,148.03528,67.96692,-137.23572
1765589869992,-0.9316406,0.2006836,-0.31103516,-0.18310547,0.18310547,0.0,0.0,0.0,0.0,148.00781,67.961426,-137.26318
1765589870079,-0.9301758,0.20214844,-0.3100586,0.24414062,-0.30517578,0.18310547,0.0,0.0,0.0,148.00781,67.961426,-137.26318
1765589870091,-0.9301758,0.20214844,-0.3100586,0.24414062,-0.30517578,0.18310547,0.0,0.0,0.0,147.97485,67.97241,-137.29614
1765589870179,-0.9316406,0.19726562,-0.31054688,0.4272461,0.061035156,0.0,0.0,0.0,0.0,147.97485,67.97241,-137.29614
1765589870191,-0.9316406,0.19726562,-0.31054688,0.4272461,0.061035156,0.0,0.0,0.0,0.0,147.98035,67.96692,-137.27966
1765589870279,-0.9316406,0.2006836,-0.31445312,-0.12207031,-0.30517578,-0.061035156,0.0,0.0,0.0,147.98035,67.96692,-137.27966
1765589870291,-0.9316406,0.2006836,-0.31445312,-0.12207031,-0.30517578,-0.061035156,0.0,0.0,0.0,147.96936,67.95044,-137.27966
1765589870379,-0.93115234,0.19921875,-0.3095703,0.061035156,0.30517578,0.0,0.0,0.0,0.0,147.96936,67.95044,-137.27966
1765589870390,-0.93115234,0.19921875,-0.3095703,0.061035156,0.30517578,0.0,0.0,0.0,0.0,147.96936,67.97241,-137.27966
1765589870479,-0.93359375,0.20019531,-0.3095703,-0.18310547,0.0,-0.12207031,0.0,0.0,0.0,147.96936,67.97241,-137.27966
1765589870490,-0.93359375,0.20019531,-0.3095703,-0.18310547,0.0,-0.12207031,0.0,0.0,0.0,147.99683,67.961426,-137.24121
1765589870578,-0.9291992,0.20166016,-0.3125,-0.061035156,0.4272461,0.0,0.0,0.0,0.0,147.99683,67.961426,-137.24121
1765589870589,-0.9291992,0.20166016,-0.3125,-0.061035156,0.4272461,0.0,0.0,0.0,0.0,147.99133,67.95044,-137.21924
1765589870678,-0.93066406,0.19873047,-0.31298828,0.061035156,0.12207031,0.0,0.0,0.0,0.0,147.99133,67.95044,-137.21924
1765589870689,-0.93066406,0.19873047,-0.31298828,0.061035156,0.12207031,0.0,0.0,0.0,0.0,148.00781,67.93396,-137.18079
1765589870777,-0.9321289,0.19970703,-0.31347656,0.12207031,0.0,0.0,0.0,0.0,0.0,148.00781,67.93396,-137.18079
1765589870789,-0.9321289,0.19970703,-0.31347656,0.12207031,0.0,0.0,0.0,0.0,0.0,148.0188,67.92847,-137.1643
1765589870877,-0.93115234,0.19873047,-0.31152344,0.12207031,-0.061035156,0.0,0.0,0.0,0.0,148.0188,67.92847,-137.1643
1765589870889,-0.93115234,0.19873047,-0.31152344,0.12207031,-0.061035156,0.0,0.0,0.0,0.0,148.00232,67.93396,-137.1698
1765589870977,-0.9326172,0.19726562,-0.3154297,-0.12207031,0.30517578,0.0,0.0,0.0,0.0,148.00232,67.93396,-137.1698
1765589870989,-0.9326172,0.19726562,-0.3154297,-0.12207031,0.30517578,0.0,0.0,0.0,0.0,148.0188,67.91748,-137.12585
1765589871077,-0.93310547,0.19873047,-0.3173828,-0.061035156,0.061035156,0.24414062,0.0,0.0,0.0,148.0188,67.91748,-137.12585
1765589871088,-0.93310547,0.19873047,-0.3173828,-0.061035156,0.061035156,0.24414062,0.0,0.0,0.0,147.97485,67.906494,-137.18628
1765589871176,-0.93115234,0.20214844,-0.31054688,-0.5493164,0.61035156,-0.24414062,0.0,0.0,0.0,147.97485,67.906494,-137.18628
1765589871188,-0.93115234,0.20214844,-0.31054688,-0.5493164,0.61035156,-0.24414062,0.0,0.0,0.0,147.98035,67.906494,-137.20276
1765589871276,-0.9321289,0.20117188,-0.3125,0.12207031,0.0,-0.061035156,0.0,0.0,0.0,147.98035,67.906494,-137.20276
1765589871288,-0.9321289,0.20117188,-0.3125,0.12207031,0.0,-0.061035156,0.0,0.0,0.0,147.99683,67.91199,-137.1753
1765589871376,-0.93066406,0.19921875,-0.31689453,-0.30517578,0.12207031,0.061035156,0.0,0.0,0.0,147.99683,67.91199,-137.1753
1765589871387,-0.93066406,0.19921875,-0.31689453,-0.30517578,0.12207031,0.061035156,0.0,0.0,0.0,148.0188,67.890015,-137.11487
1765589871476,-0.9326172,0.20263672,-0.31201172,0.0,0.12207031,0.12207031,0.0,0.0,0.0,148.0188,67.890015,-137.11487
1765589871487,-0.9326172,0.20263672,-0.31201172,0.0,0.12207031,0.12207031,0.0,0.0,0.0,147.96387,67.87903,-137.18628
1765589871575,-0.93066406,0.20019531,-0.31640625,0.30517578,-0.6713867,-0.18310547,0.0,0.0,0.0,147.96387,67.87903,-137.18628
1765589871587,-0.93066406,0.20019531,-0.31640625,0.30517578,-0.6713867,-0.18310547,0.0,0.0,0.0,147.96387,67.88452,-137.1753
1765589871675,-0.92871094,0.20166016,-0.3125,-0.18310547,0.061035156,-0.12207031,0.0,0.0,0.0,147.96387,67.88452,-137.1753
1765589871687,-0.92871094,0.20166016,-0.3125,-0.18310547,0.061035156,-0.12207031,0.0,0.0,0.0,147.92542,67.91748,-137.23572
1765589871775,-0.9321289,0.20117188,-0.31103516,-0.36621094,0.0,-0.36621094,0.0,0.0,0.0,147.92542,67.91748,-137.23572
1765589871786,-0.9321289,0.20117188,-0.31103516,-0.36621094,0.0,-0.36621094,0.0,0.0,0.0,147.95288,67.93396,-137.1643
1765589871874,-0.9301758,0.19970703,-0.3125,0.0,0.0,0.0,0.0,0.0,0.0,147.95288,67.93396,-137.1643
1765589871886,-0.9301758,0.19970703,-0.3125,0.0,0.0,0.0,0.0,0.0,0.0,147.95288,67.95044,-137.12036
1765589871974,-0.9316406,0.20019531,-0.31347656,0.36621094,-0.4272461,0.30517578,0.0,0.0,0.0,147.95288,67.95044,-137.12036
1765589871986,-0.9316406,0.20019531,-0.31347656,0.36621094,-0.4272461,0.30517578,0.0,0.0,0.0,147.91443,67.95593,-137.1643
1765589872074,-0.93359375,0.20117188,-0.31347656,0.7324219,-0.30517578,0.18310547,0.0,0.0,0.0,147.91443,67.95593,-137.1643
1765589872085,-0.93359375,0.20117188,-0.31347656,0.7324219,-0.30517578,0.18310547,0.0,0.0,0.0,147.91443,67.961426,-137.21924
1765589872173,-0.9321289,0.20166016,-0.31347656,0.0,0.12207031,0.0,0.0,0.0,0.0,147.91443,67.961426,-137.21924
1765589872185,-0.9321289,0.20166016,-0.31347656,0.0,0.12207031,0.0,0.0,0.0,0.0,147.9364,67.91748,-137.18628
1765589872273,-0.93115234,0.20410156,-0.31396484,0.0,0.24414062,-0.12207031,0.0,0.0,0.0,147.9364,67.91748,-137.18628
1765589872285,-0.93115234,0.20410156,-0.31396484,0.0,0.24414062,-0.12207031,0.0,0.0,0.0,147.9419,67.91748,-137.15881
1765589872373,-0.93310547,0.1977539,-0.31640625,1.5258789,-0.9765625,0.30517578,0.0,0.0,0.0,147.9419,67.91748,-137.15881
1765589872384,-0.93310547,0.1977539,-0.31640625,1.5258789,-0.9765625,0.30517578,0.0,0.0,0.0,147.95837,67.92847,-137.15881
1765589872473,-0.93066406,0.1977539,-0.30908203,2.0751953,0.79345703,-0.24414062,0.0,0.0,0.0,147.95837,67.92847,-137.15881
1765589872484,-0.93066406,0.1977539,-0.30908203,2.0751953,0.79345703,-0.24414062,0.0,0.0,0.0,148.07922,67.93396,-137.18628
1765589872572,-0.93310547,0.19726562,-0.31201172,1.0375977,1.3427734,-0.5493164,0.0,0.0,0.0,148.07922,67.93396,-137.18628
1765589872584,-0.93310547,0.19726562,-0.31201172,1.0375977,1.3427734,-0.5493164,0.0,0.0,0.0,148.51318,67.83508,-136.82922
1765589872672,-0.93310547,0.20117188,-0.3149414,0.48828125,0.91552734,-0.061035156,0.0,0.0,0.0,148.51318,67.83508,-136.82922
1765589872683,-0.93310547,0.20117188,-0.3149414,0.48828125,0.91552734,-0.061035156,0.0,0.0,0.0,148.7439,67.7417,-136.604
1765589872772,-0.9296875,0.19921875,-0.31933594,-2.0751953,0.91552734,-0.7324219,0.0,0.0,0.0,148.7439,67.7417,-136.604
1765589872783,-0.9296875,0.19921875,-0.31933594,-2.0751953,0.91552734,-0.7324219,0.0,0.0,0.0,148.79333,67.70874,-136.40625
1765589872872,-0.9296875,0.19482422,-0.32666016,-0.9765625,-1.2817383,-0.5493164,0.0,0.0,0.0,148.79333,67.70874,-136.40625
1765589872883,-0.9296875,0.19482422,-0.32666016,-0.9765625,-1.2817383,-0.5493164,0.0,0.0,0.0,148.7439,67.74719,-136.24695
1765589872971,-0.93408203,0.20117188,-0.30322266,-1.5258789,-3.4179688,-0.18310547,0.0,0.0,0.0,148.7439,67.74719,-136.24695
1765589872983,-0.93408203,0.20117188,-0.30322266,-1.5258789,-3.4179688,-0.18310547,0.0,0.0,0.0,148.37036,67.99988,-136.65894
1765589873071,-0.9160156,0.18457031,-0.31347656,-0.36621094,-2.0751953,0.4272461,0.0,0.0,0.0,148.37036,67.99988,-136.65894
1765589873082,-0.9160156,0.18457031,-0.31347656,-0.36621094,-2.0751953,0.4272461,0.0,0.0,0.0,147.7771,68.28552,-137.1698
1765589873171,-0.9428711,0.203125,-0.30615234,-1.2817383,3.479004,-0.9765625,0.0,0.0,0.0,147.7771,68.28552,-137.1698
1765589873182,-0.9428711,0.203125,-0.30615234,-1.2817383,3.479004,-0.9765625,0.0,0.0,0.0,148.06274,68.10425,-136.80725
1765589873270,-0.93408203,0.19482422,-0.3203125,3.2348633,-0.5493164,0.5493164,0.0,0.0,0.0,148.06274,68.10425,-136.80725
1765589873282,-0.93408203,0.19482422,-0.3203125,3.2348633,-0.5493164,0.5493164,0.0,0.0,0.0,148.33191,68.065796,-136.56006
1765589873370,-0.9707031,0.18017578,-0.32470703,7.2021484,-5.493164,-2.9907227,0.0,0.0,0.0,148.33191,68.065796,-136.56006
1765589873381,-0.9707031,0.18017578,-0.32470703,7.2021484,-5.493164,-2.9907227,0.0,0.0,0.0,148.656,68.36243,-136.86218
1765589873470,-0.93115234,0.23925781,-0.29589844,4.5776367,-0.61035156,-4.699707,0.0,0.0,0.0,148.656,68.36243,-136.86218
1765589873482,-0.93115234,0.23925781,-0.29589844,4.5776367,-0.61035156,-4.699707,0.0,0.0,0.0,149.96887,68.73047,-136.30188
1765589873570,-0.9580078,0.15234375,-0.3310547,-0.5493164,2.0751953,-0.36621094,0.0,0.0,0.0,149.96887,68.73047,-136.30188
1765589873581,-0.9580078,0.15234375,-0.3310547,-0.5493164,2.0751953,-0.36621094,0.0,0.0,0.0,150.1886,68.80188,-135.81848
1765589873669,-0.95751953,0.17773438,-0.30517578,17.150879,-12.878418,2.0751953,0.0,0.0,0.0,150.1886,68.80188,-135.81848
1765589873681,-0.95751953,0.17773438,-0.30517578,17.150879,-12.878418,2.0751953,0.0,0.0,0.0,150.23804,69.37317,-136.87866
1765589873769,-0.9199219,0.1772461,-0.296875,-4.699707,2.1362305,-8.056641,0.0,0.0,0.0,150.23804,69.37317,-136.87866
1765589873781,-0.9199219,0.1772461,-0.296875,-4.699707,2.1362305,-8.056641,0.0,0.0,0.0,150.77087,70.059814,-136.91162
1765589873869,-0.9472656,0.14550781,-0.28466797,7.751465,-6.225586,-4.211426,0.0,0.0,0.0,150.77087,70.059814,-136.91162
1765589873880,-0.9472656,0.14550781,-0.28466797,7.751465,-6.225586,-4.211426,0.0,0.0,0.0,152.15515,70.30151,-135.4834
1765589873968,-0.9248047,0.18066406,-0.2763672,0.9765625,-4.1503906,-9.155273,0.0,0.0,0.0,152.15515,70.30151,-135.4834
1765589873980,-0.9248047,0.18066406,-0.2763672,0.9765625,-4.1503906,-9.155273,0.0,0.0,0.0,153.3197,71.41113,-134.56604
1765589874068,-0.9614258,0.10449219,-0.27001953,3.2958984,-1.7089844,-6.225586,0.0,0.0,0.0,153.3197,71.41113,-134.56604
1765589874080,-0.9614258,0.10449219,-0.27001953,3.2958984,-1.7089844,-6.225586,0.0,0.0,0.0,154.95667,71.59241,-132.47314
1765589874168,-0.9614258,0.122558594,-0.28076172,4.333496,-4.211426,-3.90625,0.0,0.0,0.0,154.95667,71.59241,-132.47314
1765589874180,-0.9614258,0.122558594,-0.28076172,4.333496,-4.211426,-3.90625,0.0,0.0,0.0,155.74768,72.06482,-132.2644
1765589874268,-0.96972656,0.10986328,-0.26611328,1.0375977,0.061035156,-2.9907227,0.0,0.0,0.0,155.74768,72.06482,-132.2644
1765589874279,-0.96972656,0.10986328,-0.26611328,1.0375977,0.061035156,-2.9907227,0.0,0.0,0.0,156.97266,72.38342,-131.2976
1765589874367,-0.95458984,0.09326172,-0.2763672,2.9296875,-3.540039,-1.2817383,0.0,0.0,0.0,156.97266,72.38342,-131.2976
1765589874379,-0.95458984,0.09326172,-0.2763672,2.9296875,-3.540039,-1.2817383,0.0,0.0,0.0,157.89001,72.69104,-130.59998
1765589874467,-0.9614258,0.111328125,-0.265625,4.0283203,-4.0283203,1.4038086,0.0,0.0,0.0,157.89001,72.69104,-130.59998
1765589874479,-0.9614258,0.111328125,-0.265625,4.0283203,-4.0283203,1.4038086,0.0,0.0,0.0,157.84058,73.02612,-131.20972
1765589874567,-0.953125,0.115234375,-0.2553711,0.30517578,-1.7089844,1.159668,0.0,0.0,0.0,157.84058,73.02612,-131.20972
1765589874578,-0.953125,0.115234375,-0.2553711,0.30517578,-1.7089844,1.159668,0.0,0.0,0.0,157.2638,73.256836,-132.09412
1765589874666,-0.9477539,0.11767578,-0.25878906,-2.380371,-1.3427734,-0.8544922,0.0,0.0,0.0,157.2638,73.256836,-132.09412
1765589874678,-0.9477539,0.11767578,-0.25878906,-2.380371,-1.3427734,-0.8544922,0.0,0.0,0.0,156.90674,73.35571,-132.29187
1765589874766,-1.0004883,0.11816406,-0.2553711,-5.1879883,1.953125,2.6855469,0.0,0.0,0.0,156.90674,73.35571,-132.29187
1765589874778,-1.0004883,0.11816406,-0.2553711,-5.1879883,1.953125,2.6855469,0.0,0.0,0.0,156.10474,73.081055,-132.68188
1765589874866,-0.9453125,0.13769531,-0.2631836,-0.061035156,-0.79345703,4.333496,0.0,0.0,0.0,156.10474,73.081055,-132.68188
1765589874877,-0.9453125,0.13769531,-0.2631836,-0.061035156,-0.79345703,4.333496,0.0,0.0,0.0,154.46777,73.13049,-134.37378
1765589874966,-0.9604492,0.14013672,-0.25585938,-1.7700195,1.6479492,4.0283203,0.0,0.0,0.0,154.46777,73.13049,-134.37378
1765589874977,-0.9604492,0.14013672,-0.25585938,-1.7700195,1.6479492,4.0283203,0.0,0.0,0.0,153.91296,72.822876,-134.69238
1765589875065,-0.95996094,0.14941406,-0.26416016,-3.8452148,3.112793,4.760742,0.0,0.0,0.0,153.91296,72.822876,-134.69238
1765589875077,-0.95996094,0.14941406,-0.26416016,-3.8452148,3.112793,4.760742,0.0,0.0,0.0,152.89673,72.60864,-135.53833
1765589875165,-0.93066406,0.14355469,-0.25,3.4179688,-2.0751953,0.8544922,0.0,0.0,0.0,152.89673,72.60864,-135.53833
1765589875176,-0.93066406,0.14355469,-0.25,3.4179688,-2.0751953,0.8544922,0.0,0.0,0.0,152.61658,72.48779,-135.85693
1765589875265,-0.98095703,0.104003906,-0.2626953,-5.432129,9.887695,1.7089844,0.0,0.0,0.0,152.61658,72.48779,-135.85693
1765589875276,-0.98095703,0.104003906,-0.2626953,-5.432129,9.887695,1.7089844,0.0,0.0,0.0,152.34741,72.26807,-136.22498
1765589875364,-0.94873047,0.19580078,-0.29589844,7.5683594,-6.3476562,7.3242188,0.0,0.0,0.0,152.34741,72.26807,-136.22498
1765589875376,-0.94873047,0.19580078,-0.29589844,7.5683594,-6.3476562,7.3242188,0.0,0.0,0.0,151.57288,71.86157,-137.44446
1765589875464,-0.9741211,0.1274414,-0.27294922,-10.803223,12.512207,1.5258789,0.0,0.0,0.0,151.57288,71.86157,-137.44446
1765589875476,-0.9741211,0.1274414,-0.27294922,-10.803223,12.512207,1.5258789,0.0,0.0,0.0,151.52893,71.16394,-137.21375
1765589875564,-0.9301758,0.1640625,-0.28564453,10.070801,-10.253906,7.2631836,0.0,0.0,0.0,151.52893,71.16394,-137.21375
1765589875576,-0.9301758,0.1640625,-0.28564453,10.070801,-10.253906,7.2631836,0.0,0.0,0.0,150.15015,71.1145,-138.98254
1765589875664,-0.96240234,0.15527344,-0.25439453,-7.6293945,6.225586,-2.0141602,0.0,0.0,0.0,150.15015,71.1145,-138.98254
1765589875676,-0.96240234,0.15527344,-0.25439453,-7.6293945,6.225586,-2.0141602,0.0,0.0,0.0,149.63379,71.05408,-139.8175
1765589875764,-0.9916992,0.19384766,-0.27490234,7.8125,-2.8076172,2.9296875,0.0,0.0,0.0,149.63379,71.05408,-139.8175
1765589875775,-0.9916992,0.19384766,-0.27490234,7.8125,-2.8076172,2.9296875,0.0,0.0,0.0,149.21082,71.0376,-140.37231
1765589875863,-0.9477539,0.16699219,-0.28125,-5.2490234,4.5166016,2.380371,0.0,0.0,0.0,149.21082,71.0376,-140.37231
1765589875875,-0.9477539,0.16699219,-0.28125,-5.2490234,4.5166016,2.380371,0.0,0.0,0.0,148.83728,71.2793,-141.21277
1765589875963,-0.9614258,0.17822266,-0.28076172,3.4179688,-6.652832,1.7700195,0.0,0.0,0.0,148.83728,71.2793,-141.21277
1765589875974,-0.9614258,0.17822266,-0.28076172,3.4179688,-6.652832,1.7700195,0.0,0.0,0.0,148.86475,71.032104,-141.11938
1765589876062,-0.9614258,0.17919922,-0.27197266,-5.6762695,5.3710938,0.24414062,0.0,0.0,0.0,148.86475,71.032104,-141.11938
1765589876074,-0.9614258,0.17919922,-0.27197266,-5.6762695,5.3710938,0.24414062,0.0,0.0,0.0,148.4253,70.97717,-141.5863
1765589876162,-0.9814453,0.19238281,-0.29296875,8.056641,-4.3945312,0.0,0.0,0.0,0.0,148.4253,70.97717,-141.5863
1765589876174,-0.9814453,0.19238281,-0.29296875,8.056641,-4.3945312,0.0,0.0,0.0,0.0,148.34839,71.14746,-141.9928
1765589876262,-0.95996094,0.16015625,-0.27783203,-8.117676,7.446289,0.91552734,0.0,0.0,0.0,148.34839,71.14746,-141.9928
1765589876274,-0.95996094,0.16015625,-0.27783203,-8.117676,7.446289,0.91552734,0.0,0.0,0.0,148.78784,71.33423,-141.7456
1765589876362,-0.94921875,0.1694336,-0.27929688,10.986328,-9.82666,5.554199,0.0,0.0,0.0,148.78784,71.33423,-141.7456
1765589876373,-0.94921875,0.1694336,-0.27929688,10.986328,-9.82666,5.554199,0.0,0.0,0.0,148.78235,70.99365,-141.69067
1765589876461,-0.95751953,0.18701172,-0.2446289,-14.953613,16.662598,-4.8217773,0.0,0.0,0.0,148.78235,70.99365,-141.69067
1765589876473,-0.95751953,0.18701172,-0.2446289,-14.953613,16.662598,-4.8217773,0.0,0.0,0.0,149.01306,70.999146,-141.14136
1765589876561,-0.9423828,0.15429688,-0.30664062,12.756348,-7.873535,2.746582,0.0,0.0,0.0,149.01306,70.999146,-141.14136
1765589876573,-0.9423828,0.15429688,-0.30664062,12.756348,-7.873535,2.746582,0.0,0.0,0.0,149.32617,70.74646,-140.52612
1765589876661,-0.93652344,0.171875,-0.26611328,1.953125,0.061035156,-2.6245117,0.0,0.0,0.0,149.32617,70.74646,-140.52612
1765589876673,-0.93652344,0.171875,-0.26611328,1.953125,0.061035156,-2.6245117,0.0,0.0,0.0,149.41406,70.83435,-140.95459
1765589876761,-0.9526367,0.14941406,-0.26660156,6.164551,-2.380371,2.8686523,0.0,0.0,0.0,149.41406,70.83435,-140.95459
1765589876772,-0.9526367,0.14941406,-0.26660156,6.164551,-2.380371,2.8686523,0.0,0.0,0.0,149.39758,70.6311,-140.96558
1765589876860,-0.9453125,0.20214844,-0.26513672,-7.2631836,7.6904297,-1.6479492,0.0,0.0,0.0,149.39758,70.6311,-140.96558
1765589876872,-0.9453125,0.20214844,-0.26513672,-7.2631836,7.6904297,-1.6479492,0.0,0.0,0.0,148.88672,70.83984,-141.7511
1765589876960,-0.90966797,0.15673828,-0.29248047,7.019043,-5.859375,5.3100586,0.0,0.0,0.0,148.88672,70.83984,-141.7511
1765589876972,-0.90966797,0.15673828,-0.29248047,7.019043,-5.859375,5.3100586,0.0,0.0,0.0,148.91968,70.49927,-141.20178
1765589877060,-0.9458008,0.1821289,-0.23730469,-2.1362305,3.7841797,-2.746582,0.0,0.0,0.0,148.91968,70.49927,-141.20178
1765589877072,-0.9458008,0.1821289,-0.23730469,-2.1362305,3.7841797,-2.746582,0.0,0.0,0.0,148.9856,70.52673,-141.54236
1765589877159,-0.9711914,0.12207031,-0.30810547,0.91552734,1.5869141,2.0141602,0.0,0.0,0.0,148.9856,70.52673,-141.54236
1765589877171,-0.9711914,0.12207031,-0.30810547,0.91552734,1.5869141,2.0141602,0.0,0.0,0.0,149.36462,70.22461,-140.64697
1765589877259,-0.90966797,0.2397461,-0.27246094,0.4272461,-2.5024414,1.0986328,0.0,0.0,0.0,149.36462,70.22461,-140.64697
1765589877270,-0.90966797,0.2397461,-0.27246094,0.4272461,-2.5024414,1.0986328,0.0,0.0,0.0,147.95837,70.55969,-143.04199
1765589877359,-0.98291016,0.15673828,-0.3076172,-10.559082,9.094238,-3.9672852,0.0,0.0,0.0,147.95837,70.55969,-143.04199
1765589877370,-0.98291016,0.15673828,-0.3076172,-10.559082,9.094238,-3.9672852,0.0,0.0,0.0,149.23828,69.697266,-140.02075
1765589877458,-0.94628906,0.16113281,-0.2944336,7.5683594,-6.958008,-0.18310547,0.0,0.0,0.0,149.23828,69.697266,-140.02075
1765589877470,-0.94628906,0.16113281,-0.2944336,7.5683594,-6.958008,-0.18310547,0.0,0.0,0.0,149.40308,69.93347,-140.24597
1765589877558,-0.9277344,0.2290039,-0.29003906,-1.8920898,2.4414062,-4.1503906,0.0,0.0,0.0,149.40308,69.93347,-140.24597
1765589877570,-0.9277344,0.2290039,-0.29003906,-1.8920898,2.4414062,-4.1503906,0.0,0.0,0.0,150.09521,70.25757,-139.87244
1765589877658,-0.9511719,0.1459961,-0.29833984,-1.7700195,4.8217773,-3.7841797,0.0,0.0,0.0,150.09521,70.25757,-139.87244
1765589877669,-0.9511719,0.1459961,-0.29833984,-1.7700195,4.8217773,-3.7841797,0.0,0.0,0.0,151.5509,70.00488,-137.58728
1765589877758,-0.93896484,0.16064453,-0.28320312,2.746582,-1.3427734,-1.6479492,0.0,0.0,0.0,151.5509,70.00488,-137.58728
1765589877769,-0.93896484,0.16064453,-0.28320312,2.746582,-1.3427734,-1.6479492,0.0,0.0,0.0,152.10022,70.1532,-137.27966
1765589877857,-0.94677734,0.13867188,-0.30029297,1.7089844,2.5024414,-3.540039,0.0,0.0,0.0,152.10022,70.1532,-137.27966
1765589877869,-0.94677734,0.13867188,-0.30029297,1.7089844,2.5024414,-3.540039,0.0,0.0,0.0,153.06152,70.15869,-136.33484
1765589877957,-0.93310547,0.16601562,-0.30126953,0.36621094,1.6479492,-1.159668,0.0,0.0,0.0,153.06152,70.15869,-136.33484
1765589877969,-0.93310547,0.16601562,-0.30126953,0.36621094,1.6479492,-1.159668,0.0,0.0,0.0,154.29749,70.13672,-135.2362
1765589878057,-0.95703125,0.15527344,-0.29101562,-7.873535,6.5307617,1.6479492,0.0,0.0,0.0,154.29749,70.13672,-135.2362
1765589878068,-0.95703125,0.15527344,-0.29101562,-7.873535,6.5307617,1.6479492,0.0,0.0,0.0,154.10522,69.713745,-134.81873
1765589878156,-0.94189453,0.15234375,-0.31396484,-0.7324219,2.1972656,3.3569336,0.0,0.0,0.0,154.10522,69.713745,-134.81873
1765589878168,-0.94189453,0.15234375,-0.31396484,-0.7324219,2.1972656,3.3569336,0.0,0.0,0.0,153.28125,69.21387,-134.93958
1765589878256,-0.93847656,0.13574219,-0.33984375,-3.1738281,6.164551,1.5258789,0.0,0.0,0.0,153.28125,69.21387,-134.93958
1765589878268,-0.93847656,0.13574219,-0.33984375,-3.1738281,6.164551,1.5258789,0.0,0.0,0.0,153.5614,68.74695,-134.22546
1765589878356,-0.91748047,0.1850586,-0.32470703,-2.0141602,-0.9765625,1.0375977,0.0,0.0,0.0,153.5614,68.74695,-134.22546
1765589878368,-0.91748047,0.1850586,-0.32470703,-2.0141602,-0.9765625,1.0375977,0.0,0.0,0.0,153.28674,68.703,-134.70886
1765589878456,-0.93603516,0.140625,-0.3251953,-0.18310547,-1.7700195,4.9438477,0.0,0.0,0.0,153.28674,68.703,-134.70886
1765589878467,-0.93603516,0.140625,-0.3251953,-0.18310547,-1.7700195,4.9438477,0.0,0.0,0.0,152.6825,68.58765,-134.92859
1765589878555,-0.93359375,0.171875,-0.31152344,1.2207031,-0.9765625,1.4648438,0.0,0.0,0.0,152.6825,68.58765,-134.92859
1765589878567,-0.93359375,0.171875,-0.31152344,1.2207031,-0.9765625,1.4648438,0.0,0.0,0.0,151.82007,68.57117,-136.30188
1765589878655,-0.94091797,0.1796875,-0.30322266,-0.61035156,-0.79345703,0.6713867,0.0,0.0,0.0,151.82007,68.57117,-136.30188
1765589878667,-0.94091797,0.1796875,-0.30322266,-0.61035156,-0.79345703,0.6713867,0.0,0.0,0.0,151.30371,68.620605,-136.82922
1765589878755,-0.92871094,0.1977539,-0.31689453,-1.5258789,-1.7700195,2.5024414,0.0,0.0,0.0,151.30371,68.620605,-136.82922
1765589878766,-0.92871094,0.1977539,-0.31689453,-1.5258789,-1.7700195,2.5024414,0.0,0.0,0.0,150.96313,68.637085,-137.04895
1765589878854,-0.9321289,0.17822266,-0.30664062,-4.5166016,0.6713867,-0.91552734,0.0,0.0,0.0,150.96313,68.637085,-137.04895
1765589878866,-0.9321289,0.17822266,-0.30664062,-4.5166016,0.6713867,-0.91552734,0.0,0.0,0.0,150.15015,68.64258,-137.4939
1765589878954,-0.9291992,0.19189453,-0.3017578,-2.4414062,2.319336,-0.18310547,0.0,0.0,0.0,150.15015,68.64258,-137.4939
1765589878966,-0.9291992,0.19189453,-0.3017578,-2.4414062,2.319336,-0.18310547,0.0,0.0,0.0,150.05676,68.55469,-137.2522
1765589879054,-0.94384766,0.17675781,-0.31347656,-3.2958984,1.0986328,-1.5258789,0.0,0.0,0.0,150.05676,68.55469,-137.2522
1765589879066,-0.94384766,0.17675781,-0.31347656,-3.2958984,1.0986328,-1.5258789,0.0,0.0,0.0,150.22705,68.41736,-136.57104
1765589879154,-0.9291992,0.18554688,-0.31689453,-2.0141602,-0.18310547,-0.9765625,0.0,0.0,0.0,150.22705,68.41736,-136.57104
1765589879165,-0.9291992,0.18554688,-0.31689453,-2.0141602,-0.18310547,-0.9765625,0.0,0.0,0.0,150.30396,68.43384,-136.17554
1765589879253,-0.9379883,0.17822266,-0.32666016,-1.0375977,0.061035156,0.61035156,0.0,0.0,0.0,150.30396,68.43384,-136.17554
1765589879265,-0.9379883,0.17822266,-0.32666016,-1.0375977,0.061035156,0.61035156,0.0,0.0,0.0,150.19409,68.3844,-135.98328
1765589879353,-0.9326172,0.18310547,-0.30322266,1.159668,-2.0141602,1.5869141,0.0,0.0,0.0,150.19409,68.3844,-135.98328
1765589879365,-0.9326172,0.18310547,-0.30322266,1.159668,-2.0141602,1.5869141,0.0,0.0,0.0,149.7107,68.48877,-136.65894
1765589879453,-0.9379883,0.1899414,-0.31298828,0.12207031,-0.8544922,0.91552734,0.0,0.0,0.0,149.7107,68.48877,-136.65894
1765589879464,-0.9379883,0.1899414,-0.31298828,0.12207031,-0.8544922,0.91552734,0.0,0.0,0.0,149.41406,68.4613,-136.99951
1765589879552,-0.9428711,0.19140625,-0.29882812,0.30517578,-0.7324219,1.0375977,0.0,0.0,0.0,149.41406,68.4613,-136.99951
1765589879564,-0.9428711,0.19140625,-0.29882812,0.30517578,-0.7324219,1.0375977,0.0,0.0,0.0,149.057,68.516235,-137.46643
1765589879652,-0.94091797,0.17626953,-0.3100586,2.9296875,-3.479004,-0.12207031,0.0,0.0,0.0,149.057,68.516235,-137.46643
1765589879664,-0.94091797,0.17626953,-0.3100586,2.9296875,-3.479004,-0.12207031,0.0,0.0,0.0,148.88123,68.61511,-137.66418
1765589879752,-0.9291992,0.20507812,-0.2998047,0.5493164,-1.3427734,-0.5493164,0.0,0.0,0.0,148.88123,68.61511,-137.66418
1765589879763,-0.9291992,0.20507812,-0.2998047,0.5493164,-1.3427734,-0.5493164,0.0,0.0,0.0,148.65051,68.83484,-138.27942
1765589879851,-0.9428711,0.18115234,-0.30273438,0.0,-0.30517578,-0.12207031,0.0,0.0,0.0,148.65051,68.83484,-138.27942
1765589879863,-0.9428711,0.18115234,-0.30273438,0.0,-0.30517578,-0.12207031,0.0,0.0,0.0,148.68896,68.89526,-138.07617
1765589879951,-0.93652344,0.203125,-0.29882812,0.36621094,-0.6713867,-0.061035156,0.0,0.0,0.0,148.68896,68.89526,-138.07617
1765589879963,-0.93652344,0.203125,-0.29882812,0.36621094,-0.6713867,-0.061035156,0.0,0.0,0.0,148.53516,68.966675,-138.35632
1765589880051,-0.93847656,0.1875,-0.2944336,-1.0986328,0.061035156,-0.48828125,0.0,0.0,0.0,148.53516,68.966675,-138.35632
1765589880062,-0.93847656,0.1875,-0.2944336,-1.0986328,0.061035156,-0.48828125,0.0,0.0,0.0,148.44177,69.00513,-138.2959
1765589880151,-0.93652344,0.18457031,-0.30126953,-0.12207031,-0.24414062,0.0,0.0,0.0,0.0,148.44177,69.00513,-138.2959
1765589880162,-0.93652344,0.18457031,-0.30126953,-0.12207031,-0.24414062,0.0,0.0,0.0,0.0,148.39783,69.01062,-138.20801
1765589880250,-0.9350586,0.18847656,-0.29589844,0.12207031,-0.24414062,0.30517578,0.0,0.0,0.0,148.39783,69.01062,-138.20801
1765589880262,-0.9350586,0.18847656,-0.29589844,0.12207031,-0.24414062,0.30517578,0.0,0.0,0.0,148.32092,69.06006,-138.33435
1765589880350,-0.9824219,0.20898438,-0.27001953,14.587402,11.413574,8.605957,0.0,0.0,0.0,148.32092,69.06006,-138.33435
1765589880361,-0.9824219,0.20898438,-0.27001953,14.587402,11.413574,8.605957,0.0,0.0,0.0,148.71094,68.69751,-138.40576
1765589880450,-0.89501953,0.14746094,-0.37890625,-4.333496,-8.7890625,-0.18310547,0.0,0.0,0.0,148.71094,68.69751,-138.40576
1765589880461,-0.89501953,0.14746094,-0.37890625,-4.333496,-8.7890625,-0.18310547,0.0,0.0,0.0,148.3429,67.53845,-139.21326
1765589880549,-0.9145508,0.2421875,-0.27197266,9.887695,-2.1972656,5.493164,0.0,0.0,0.0,148.3429,67.53845,-139.21326
1765589880561,-0.9145508,0.2421875,-0.27197266,9.887695,-2.1972656,5.493164,0.0,0.0,0.0,147.11243,68.131714,-141.72363
1765589880649,-0.9379883,0.17480469,-0.34277344,-1.6479492,-0.12207031,0.8544922,0.0,0.0,0.0,147.11243,68.131714,-141.72363
1765589880661,-0.9379883,0.17480469,-0.34277344,-1.6479492,-0.12207031,0.8544922,0.0,0.0,0.0,147.19482,67.736206,-140.59204
1765589880749,-0.93066406,0.23779297,-0.30371094,1.4038086,-4.638672,2.380371,0.0,0.0,0.0,147.19482,67.736206,-140.59204
1765589880760,-0.93066406,0.23779297,-0.30371094,1.4038086,-4.638672,2.380371,0.0,0.0,0.0,146.46423,67.9834,-142.03674
1765589880849,-0.9277344,0.2084961,-0.3071289,-6.4086914,-3.7231445,1.0986328,0.0,0.0,0.0,146.46423,67.9834,-142.03674
1765589880861,-0.9277344,0.2084961,-0.3071289,-6.4086914,-3.7231445,1.0986328,0.0,0.0,0.0,145.29419,68.1427,-142.70691
1765589880948,-0.93359375,0.22509766,-0.28808594,4.0283203,-0.6713867,4.3945312,0.0,0.0,0.0,145.29419,68.1427,-142.70691
1765589880960,-0.93359375,0.22509766,-0.28808594,4.0283203,-0.6713867,4.3945312,0.0,0.0,0.0,144.11316,68.29651,-144.02527
1765589881048,-0.9423828,0.2133789,-0.2919922,-2.6855469,-1.0375977,2.9296875,0.0,0.0,0.0,144.11316,68.29651,-144.02527
1765589881060,-0.9423828,0.2133789,-0.2919922,-2.6855469,-1.0375977,2.9296875,0.0,0.0,0.0,143.46497,68.02185,-144.44275
1765589881148,-0.9199219,0.2265625,-0.2939453,2.8076172,-4.5776367,2.8686523,0.0,0.0,0.0,143.46497,68.02185,-144.44275
1765589881160,-0.9199219,0.2265625,-0.2939453,2.8076172,-4.5776367,2.8686523,0.0,0.0,0.0,142.08618,68.20862,-146.26648
1765589881247,-0.9326172,0.21777344,-0.28564453,-1.4038086,3.6621094,2.319336,0.0,0.0,0.0,142.08618,68.20862,-146.26648
1765589881259,-0.9326172,0.21777344,-0.28564453,-1.4038086,3.6621094,2.319336,0.0,0.0,0.0,141.94885,67.95593,-146.26648
1765589881347,-0.9404297,0.25,-0.28955078,2.6855469,-4.5776367,1.2817383,0.0,0.0,0.0,141.94885,67.95593,-146.26648
1765589881359,-0.9404297,0.25,-0.28955078,2.6855469,-4.5776367,1.2817383,0.0,0.0,0.0,141.80054,67.88452,-146.70044
1765589881447,-0.92822266,0.25390625,-0.28125,-5.79834,6.1035156,-2.319336,0.0,0.0,0.0,141.80054,67.88452,-146.70044
1765589881458,-0.92822266,0.25390625,-0.28125,-5.79834,6.1035156,-2.319336,0.0,0.0,0.0,141.84998,67.86804,-146.53564
1765589881547,-0.93603516,0.2319336,-0.30126953,2.2583008,-0.9765625,2.746582,0.0,0.0,0.0,141.84998,67.86804,-146.53564
1765589881558,-0.93603516,0.2319336,-0.30126953,2.2583008,-0.9765625,2.746582,0.0,0.0,0.0,141.96533,67.52197,-146.02478
1765589881646,-0.91064453,0.25097656,-0.29248047,1.953125,3.2348633,0.4272461,0.0,0.0,0.0,141.96533,67.52197,-146.02478
1765589881658,-0.91064453,0.25097656,-0.29248047,1.953125,3.2348633,0.4272461,0.0,0.0,0.0,141.94336,67.423096,-146.53015
1765589881746,-0.9277344,0.234375,-0.29736328,-0.61035156,0.79345703,0.12207031,0.0,0.0,0.0,141.94336,67.423096,-146.53015
1765589881757,-0.9277344,0.234375,-0.29736328,-0.61035156,0.79345703,0.12207031,0.0,0.0,0.0,142.32239,67.32971,-145.75012
1765589881846,-0.93408203,0.23486328,-0.30566406,-3.112793,0.61035156,-2.0751953,0.0,0.0,0.0,142.32239,67.32971,-145.75012
1765589881857,-0.93408203,0.23486328,-0.30566406,-3.112793,0.61035156,-2.0751953,0.0,0.0,0.0,142.33337,67.40112,-145.48096
1765589881945,-0.92871094,0.23876953,-0.296875,-0.79345703,-0.6713867,0.61035156,0.0,0.0,0.0,142.33337,67.40112,-145.48096
1765589881957,-0.92871094,0.23876953,-0.296875,-0.79345703,-0.6713867,0.61035156,0.0,0.0,0.0,142.3169,67.368164,-145.35461
1765589882045,-0.9291992,0.23339844,-0.3076172,-1.3427734,-0.61035156,1.0375977,0.0,0.0,0.0,142.3169,67.368164,-145.35461
1765589882057,-0.9291992,0.23339844,-0.3076172,-1.3427734,-0.61035156,1.0375977,0.0,0.0,0.0,141.9159,67.439575,-145.54688
1765589882145,-0.93603516,0.24316406,-0.28759766,1.5258789,-0.8544922,0.36621094,0.0,0.0,0.0,141.9159,67.439575,-145.54688
1765589882157,-0.93603516,0.24316406,-0.28759766,1.5258789,-0.8544922,0.36621094,0.0,0.0,0.0,141.97083,67.34619,-145.64575
1765589882244,-0.9267578,0.24169922,-0.296875,-1.0986328,0.8544922,0.061035156,0.0,0.0,0.0,141.97083,67.34619,-145.64575
1765589882256,-0.9267578,0.24169922,-0.296875,-1.0986328,0.8544922,0.061035156,0.0,0.0,0.0,141.75659,67.49451,-145.95886
1765589882344,-0.92089844,0.22998047,-0.29492188,0.9765625,-1.7089844,-0.5493164,0.0,0.0,0.0,141.75659,67.49451,-145.95886
1765589882356,-0.92089844,0.22998047,-0.29492188,0.9765625,-1.7089844,-0.5493164,0.0,0.0,0.0,141.73462,67.46155,-145.86548
1765589882444,-0.9321289,0.23828125,-0.29492188,-0.36621094,3.3569336,0.18310547,0.0,0.0,0.0,141.73462,67.46155,-145.86548
1765589882455,-0.9321289,0.23828125,-0.29492188,-0.36621094,3.3569336,0.18310547,0.0,0.0,0.0,141.92688,67.48901,-145.67871
1765589882544,-0.92529297,0.23876953,-0.29833984,0.7324219,-4.760742,-3.3569336,0.0,0.0,0.0,141.92688,67.48901,-145.67871
1765589882555,-0.92529297,0.23876953,-0.29833984,0.7324219,-4.760742,-3.3569336,0.0,0.0,0.0,142.21802,67.54944,-145.3711
1765589882644,-0.9213867,0.23779297,-0.28466797,-4.0893555,4.8828125,-3.479004,0.0,0.0,0.0,142.21802,67.54944,-145.3711
1765589882655,-0.9213867,0.23779297,-0.28466797,-4.0893555,4.8828125,-3.479004,0.0,0.0,0.0,142.58057,67.94495,-144.60754
1765589882743,-0.93066406,0.22265625,-0.31054688,1.159668,-1.5258789,-0.061035156,0.0,0.0,0.0,142.58057,67.94495,-144.60754
1765589882755,-0.93066406,0.22265625,-0.31054688,1.159668,-1.5258789,-0.061035156,0.0,0.0,0.0,143.05298,67.76367,-143.74512
1765589882843,-0.9370117,0.24023438,-0.28222656,-5.432129,4.333496,-2.1972656,0.0,0.0,0.0,143.05298,67.76367,-143.74512
1765589882854,-0.9370117,0.24023438,-0.28222656,-5.432129,4.333496,-2.1972656,0.0,0.0,0.0,143.2727,67.736206,-143.45398
1765589882942,-0.9321289,0.2133789,-0.30322266,1.2207031,-0.30517578,-1.3427734,0.0,0.0,0.0,143.2727,67.736206,-143.45398
1765589882954,-0.9321289,0.2133789,-0.30322266,1.2207031,-0.30517578,-1.3427734,0.0,0.0,0.0,143.61328,67.681274,-142.69043
1765589883042,-0.91796875,0.22558594,-0.30419922,-0.5493164,1.8920898,-1.7700195,0.0,0.0,0.0,143.61328,67.681274,-142.69043
1765589883054,-0.91796875,0.22558594,-0.30419922,-0.5493164,1.8920898,-1.7700195,0.0,0.0,0.0,143.89893,67.752686,-142.49817
1765589883142,-0.9423828,0.22460938,-0.29833984,0.8544922,-1.159668,-0.5493164,0.0,0.0,0.0,143.89893,67.752686,-142.49817
1765589883154,-0.9423828,0.22460938,-0.29833984,0.8544922,-1.159668,-0.5493164,0.0,0.0,0.0,144.37134,67.67578,-141.79504
1765589883242,-0.93652344,0.22265625,-0.2993164,0.79345703,1.2207031,-1.4038086,0.0,0.0,0.0,144.37134,67.67578,-141.79504
1765589883254,-0.93652344,0.22265625,-0.2993164,0.79345703,1.2207031,-1.4038086,0.0,0.0,0.0,144.60205,67.7417,-141.58081
1765589883341,-0.92529297,0.21289062,-0.30859375,0.8544922,1.7089844,-1.7700195,0.0,0.0,0.0,144.60205,67.7417,-141.58081
1765589883353,-0.92529297,0.21289062,-0.30859375,0.8544922,1.7089844,-1.7700195,0.0,0.0,0.0,145.09644,67.79114,-141.22375
1765589883441,-0.93359375,0.22802734,-0.2939453,-0.061035156,3.1738281,-2.5634766,0.0,0.0,0.0,145.09644,67.79114,-141.22375
1765589883454,-0.93359375,0.22802734,-0.2939453,-0.061035156,3.1738281,-2.5634766,0.0,0.0,0.0,146.06873,67.7417,-140.19104
1765589883541,-0.93066406,0.22802734,-0.32470703,-11.535645,5.6762695,-8.239746,0.0,0.0,0.0,146.06873,67.7417,-140.19104
1765589883552,-0.93066406,0.22802734,-0.32470703,-11.535645,5.6762695,-8.239746,0.0,0.0,0.0,147.052,67.7417,-138.47717
1765589883640,-0.94433594,0.16357422,-0.31298828,-1.0375977,2.5634766,-0.8544922,0.0,0.0,0.0,147.052,67.7417,-138.47717
1765589883652,-0.94433594,0.16357422,-0.31298828,-1.0375977,2.5634766,-0.8544922,0.0,0.0,0.0,148.0188,67.62634,-136.4502
1765589883740,-0.91503906,0.20751953,-0.3100586,2.5024414,-3.2348633,-0.91552734,0.0,0.0,0.0,148.0188,67.62634,-136.4502
1765589883752,-0.91503906,0.20751953,-0.3100586,2.5024414,-3.2348633,-0.91552734,0.0,0.0,0.0,147.92542,67.91748,-137.13135
1765589883840,-0.9277344,0.19042969,-0.31445312,-6.1035156,2.8076172,-4.0283203,0.0,0.0,0.0,147.92542,67.91748,-137.13135
1765589883851,-0.9277344,0.19042969,-0.31445312,-6.1035156,2.8076172,-4.0283203,0.0,0.0,0.0,148.43628,67.82959,-136.07666
1765589883939,-0.953125,0.19873047,-0.3388672,-1.4038086,2.6245117,-2.0141602,0.0,0.0,0.0,148.43628,67.82959,-136.07666
1765589883951,-0.953125,0.19873047,-0.3388672,-1.4038086,2.6245117,-2.0141602,0.0,0.0,0.0,149.04602,67.73071,-135.12085
1765589884039,-0.92822266,0.20263672,-0.3076172,-1.7089844,-0.4272461,-1.0375977,0.0,0.0,0.0,149.04602,67.73071,-135.12085
1765589884051,-0.92822266,0.20263672,-0.3076172,-1.7089844,-0.4272461,-1.0375977,0.0,0.0,0.0,149.39758,67.840576,-134.85718
1765589884139,-0.9169922,0.17626953,-0.32080078,1.2817383,1.3427734,0.30517578,0.0,0.0,0.0,149.39758,67.840576,-134.85718
1765589884150,-0.9169922,0.17626953,-0.32080078,1.2817383,1.3427734,0.30517578,0.0,0.0,0.0,149.44153,67.72522,-134.47815
1765589884239,-0.92529297,0.18115234,-0.34472656,-2.746582,5.6152344,-1.8920898,0.0,0.0,0.0,149.44153,67.72522,-134.47815
1765589884250,-0.92529297,0.18115234,-0.34472656,-2.746582,5.6152344,-1.8920898,0.0,0.0,0.0,150.1886,67.4176,-133.69812
1765589884338,-0.9453125,0.20166016,-0.32226562,-0.48828125,-3.7841797,0.24414062,0.0,0.0,0.0,150.1886,67.4176,-133.69812
1765589884350,-0.9453125,0.20166016,-0.32226562,-0.48828125,-3.7841797,0.24414062,0.0,0.0,0.0,150.38635,67.41211,-133.5553
1765589884438,-0.90771484,0.18603516,-0.32373047,1.953125,-1.953125,0.61035156,0.0,0.0,0.0,150.38635,67.41211,-133.5553
1765589884449,-0.90771484,0.18603516,-0.32373047,1.953125,-1.953125,0.61035156,0.0,0.0,0.0,149.90845,67.736206,-134.13208
1765589884538,-0.91845703,0.19042969,-0.31640625,-0.5493164,4.760742,-1.7089844,0.0,0.0,0.0,149.90845,67.736206,-134.13208
1765589884549,-0.91845703,0.19042969,-0.31640625,-0.5493164,4.760742,-1.7089844,0.0,0.0,0.0,150.08972,67.71423,-134.01672
1765589884637,-0.9453125,0.1875,-0.33203125,-1.7089844,2.1362305,-1.6479492,0.0,0.0,0.0,150.08972,67.71423,-134.01672
1765589884649,-0.9453125,0.1875,-0.33203125,-1.7089844,2.1362305,-1.6479492,0.0,0.0,0.0,150.9851,67.39563,-132.80823
1765589884737,-0.9199219,0.18896484,-0.33740234,-2.746582,0.30517578,-0.4272461,0.0,0.0,0.0,150.9851,67.39563,-132.80823
1765589884749,-0.9199219,0.18896484,-0.33740234,-2.746582,0.30517578,-0.4272461,0.0,0.0,0.0,151.00159,67.423096,-132.57202
1765589884837,-0.9321289,0.17480469,-0.34570312,1.2817383,0.18310547,0.36621094,0.0,0.0,0.0,151.00159,67.423096,-132.57202
1765589884849,-0.9321289,0.17480469,-0.34570312,1.2817383,0.18310547,0.36621094,0.0,0.0,0.0,151.13892,67.29126,-132.33582
1765589884937,-0.9296875,0.1899414,-0.32470703,-0.48828125,0.6713867,-0.9765625,0.0,0.0,0.0,151.13892,67.29126,-132.33582
1765589884948,-0.9296875,0.1899414,-0.32470703,-0.48828125,0.6713867,-0.9765625,0.0,0.0,0.0,151.29822,67.351685,-132.3468
1765589885036,-0.9291992,0.1899414,-0.33203125,0.0,-1.0986328,-0.79345703,0.0,0.0,0.0,151.29822,67.351685,-132.3468
1765589885048,-0.9291992,0.1899414,-0.33203125,0.0,-1.0986328,-0.79345703,0.0,0.0,0.0,151.3971,67.38464,-132.13257
1765589885136,-0.9248047,0.18408203,-0.33789062,-2.319336,2.1972656,-0.91552734,0.0,0.0,0.0,151.3971,67.38464,-132.13257
1765589885148,-0.9248047,0.18408203,-0.33789062,-2.319336,2.1972656,-0.91552734,0.0,0.0,0.0,151.50696,67.32971,-131.81946
1765589885236,-0.93115234,0.1796875,-0.33691406,1.159668,-1.0375977,0.30517578,0.0,0.0,0.0,151.50696,67.32971,-131.81946
1765589885247,-0.93115234,0.1796875,-0.33691406,1.159668,-1.0375977,0.30517578,0.0,0.0,0.0,151.61682,67.302246,-131.63269
1765589885335,-0.9243164,0.19042969,-0.33203125,-0.30517578,-0.061035156,0.6713867,0.0,0.0,0.0,151.61682,67.302246,-131.63269
1765589885347,-0.9243164,0.19042969,-0.33203125,-0.30517578,-0.061035156,0.6713867,0.0,0.0,0.0,151.41357,67.35718,-132.01172
1765589885435,-0.9355469,0.17578125,-0.32910156,0.91552734,-0.5493164,0.5493164,0.0,0.0,0.0,151.41357,67.35718,-132.01172
1765589885447,-0.9355469,0.17578125,-0.32910156,0.91552734,-0.5493164,0.5493164,0.0,0.0,0.0,151.3147,67.28027,-132.05566
1765589885535,-0.9223633,0.19140625,-0.33544922,3.112793,-1.8920898,1.5258789,0.0,0.0,0.0,151.3147,67.28027,-132.05566
1765589885546,-0.9223633,0.19140625,-0.33544922,3.112793,-1.8920898,1.5258789,0.0,0.0,0.0,151.18835,67.39014,-132.50061
1765589885635,-0.92285156,0.18652344,-0.3305664,-3.2348633,0.8544922,-1.0375977,0.0,0.0,0.0,151.18835,67.39014,-132.50061
1765589885646,-0.92285156,0.18652344,-0.3305664,-3.2348633,0.8544922,-1.0375977,0.0,0.0,0.0,151.02905,67.439575,-132.65442
1765589885734,-0.93310547,0.18359375,-0.32958984,0.5493164,-0.30517578,0.8544922,0.0,0.0,0.0,151.02905,67.439575,-132.65442
1765589885746,-0.93310547,0.18359375,-0.32958984,0.5493164,-0.30517578,0.8544922,0.0,0.0,0.0,150.93567,67.4176,-132.68188
1765589885834,-0.9248047,0.1875,-0.3305664,0.61035156,-1.5869141,0.48828125,0.0,0.0,0.0,150.93567,67.4176,-132.68188
1765589885845,-0.9248047,0.1875,-0.3305664,0.61035156,-1.5869141,0.48828125,0.0,0.0,0.0,150.76538,67.51648,-132.94556
1765589885934,-0.92871094,0.18701172,-0.32666016,-0.24414062,-1.7089844,0.12207031,0.0,0.0,0.0,150.76538,67.51648,-132.94556
1765589885945,-0.92871094,0.18701172,-0.32666016,-0.24414062,-1.7089844,0.12207031,0.0,0.0,0.0,150.55115,67.631836,-133.1543
1765589886033,-0.92822266,0.19091797,-0.3232422,-0.061035156,-1.3427734,0.0,0.0,0.0,0.0,150.55115,67.631836,-133.1543
1765589886045,-0.92822266,0.19091797,-0.3232422,-0.061035156,-1.3427734,0.0,0.0,0.0,0.0,150.30396,67.74719,-133.4674
1765589886133,-0.93359375,0.18701172,-0.3251953,0.36621094,-0.7324219,0.48828125,0.0,0.0,0.0,150.30396,67.74719,-133.4674
1765589886145,-0.93359375,0.18701172,-0.3251953,0.36621094,-0.7324219,0.48828125,0.0,0.0,0.0,150.22705,67.79114,-133.51135
1765589886233,-0.9272461,0.18896484,-0.31933594,0.30517578,-0.61035156,-0.30517578,0.0,0.0,0.0,150.22705,67.79114,-133.51135
1765589886244,-0.9272461,0.18896484,-0.31933594,0.30517578,-0.61035156,-0.30517578,0.0,0.0,0.0,150.1062,67.901,-133.77502
1765589886333,-0.9370117,0.18310547,-0.3203125,0.7324219,-0.30517578,0.4272461,0.0,0.0,0.0,150.1062,67.901,-133.77502
1765589886344,-0.9370117,0.18310547,-0.3203125,0.7324219,-0.30517578,0.4272461,0.0,0.0,0.0,150.16663,67.906494,-133.70361
1765589886432,-0.9267578,0.18896484,-0.31835938,1.953125,-0.4272461,0.91552734,0.0,0.0,0.0,150.16663,67.906494,-133.70361
1765589886444,-0.9267578,0.18896484,-0.31835938,1.953125,-0.4272461,0.91552734,0.0,0.0,0.0,149.97437,67.95593,-134.18152
1765589886532,-0.9267578,0.18554688,-0.3203125,1.953125,1.8920898,0.6713867,0.0,0.0,0.0,149.97437,67.95593,-134.18152
1765589886544,-0.9267578,0.18554688,-0.3203125,1.953125,1.8920898,0.6713867,0.0,0.0,0.0,150.12268,67.87903,-134.14307
1765589886632,-0.9355469,0.19580078,-0.31347656,1.7700195,-1.0986328,1.4648438,0.0,0.0,0.0,150.12268,67.87903,-134.14307
1765589886643,-0.9355469,0.19580078,-0.31347656,1.7700195,-1.0986328,1.4648438,0.0,0.0,0.0,150.01282,67.76367,-134.51111
1765589886731,-0.93359375,0.18408203,-0.32373047,1.2207031,-2.6245117,0.5493164,0.0,0.0,0.0,150.01282,67.76367,-134.51111
1765589886743,-0.93359375,0.18408203,-0.32373047,1.2207031,-2.6245117,0.5493164,0.0,0.0,0.0,149.64478,67.91748,-134.93408
1765589886831,-0.9277344,0.1953125,-0.3154297,0.6713867,-0.36621094,0.4272461,0.0,0.0,0.0,149.64478,67.91748,-134.93408
1765589886843,-0.9277344,0.1953125,-0.3154297,0.6713867,-0.36621094,0.4272461,0.0,0.0,0.0,149.5404,68.02734,-135.26367
1765589886931,-0.93896484,0.18945312,-0.3173828,1.4648438,-3.1738281,0.79345703,0.0,0.0,0.0,149.5404,68.02734,-135.26367
1765589886943,-0.93896484,0.18945312,-0.3173828,1.4648438,-3.1738281,0.79345703,0.0,0.0,0.0,149.26575,68.16467,-135.63171
1765589887030,-0.92871094,0.1928711,-0.30273438,0.6713867,-0.5493164,0.61035156,0.0,0.0,0.0,149.26575,68.16467,-135.63171
1765589887042,-0.92871094,0.1928711,-0.30273438,0.6713867,-0.5493164,0.61035156,0.0,0.0,0.0,149.10095,68.236084,-135.90637
1765589887130,-0.953125,0.1977539,-0.3232422,1.0375977,-3.540039,1.0375977,0.0,0.0,0.0,149.10095,68.236084,-135.90637
1765589887142,-0.953125,0.1977539,-0.3232422,1.0375977,-3.540039,1.0375977,0.0,0.0,0.0,148.77136,68.36243,-136.24146
1765589887230,-0.9038086,0.18798828,-0.30371094,0.0,3.4179688,-0.061035156,0.0,0.0,0.0,148.77136,68.36243,-136.24146
1765589887242,-0.9038086,0.18798828,-0.30371094,0.0,3.4179688,-0.061035156,0.0,0.0,0.0,148.71094,68.36792,-136.51611
1765589887330,-0.9638672,0.19580078,-0.3071289,-0.18310547,-3.1738281,-0.061035156,0.0,0.0,0.0,148.71094,68.36792,-136.51611
1765589887341,-0.9638672,0.19580078,-0.3071289,-0.18310547,-3.1738281,-0.061035156,0.0,0.0,0.0,148.65051,68.32947,-136.54907
1765589887429,-0.91552734,0.2006836,-0.29833984,2.2583008,-0.9765625,1.8310547,0.0,0.0,0.0,148.65051,68.32947,-136.54907
1765589887441,-0.91552734,0.2006836,-0.29833984,2.2583008,-0.9765625,1.8310547,0.0,0.0,0.0,148.255,68.61511,-137.12585
1765589887529,-0.9482422,0.20019531,-0.3178711,-1.7700195,0.6713867,0.6713867,0.0,0.0,0.0,148.255,68.61511,-137.12585
1765589887540,-0.9482422,0.20019531,-0.3178711,-1.7700195,0.6713867,0.6713867,0.0,0.0,0.0,148.1836,68.4668,-137.14783
1765589887629,-0.92871094,0.18798828,-0.30273438,-0.8544922,0.18310547,0.18310547,0.0,0.0,0.0,148.1836,68.4668,-137.14783
1765589887640,-0.92871094,0.18798828,-0.30273438,-0.8544922,0.18310547,0.18310547,0.0,0.0,0.0,147.90344,68.47778,-137.38953
1765589887728,-0.93408203,0.1977539,-0.3071289,-0.6713867,2.8686523,-0.48828125,0.0,0.0,0.0,147.90344,68.47778,-137.38953
1765589887740,-0.93408203,0.1977539,-0.3071289,-0.6713867,2.8686523,-0.48828125,0.0,0.0,0.0,148.21106,68.29651,-137.04346
1765589887828,-0.9370117,0.18945312,-0.30371094,-2.2583008,1.953125,-1.7700195,0.0,0.0,0.0,148.21106,68.29651,-137.04346
1765589887840,-0.9370117,0.18945312,-0.30371094,-2.2583008,1.953125,-1.7700195,0.0,0.0,0.0,148.60107,68.19214,-136.41724
1765589887928,-0.9296875,0.20996094,-0.31835938,1.8310547,-1.159668,1.2817383,0.0,0.0,0.0,148.60107,68.19214,-136.41724
1765589887939,-0.9296875,0.20996094,-0.31835938,1.8310547,-1.159668,1.2817383,0.0,0.0,0.0,148.61206,68.12622,-136.37878
1765589888027,-0.94189453,0.18164062,-0.30029297,-3.8452148,1.8920898,-2.1362305,0.0,0.0,0.0,148.61206,68.12622,-136.37878
1765589888039,-0.94189453,0.18164062,-0.30029297,-3.8452148,1.8920898,-2.1362305,0.0,0.0,0.0,148.59009,68.13721,-136.19751
1765589888127,-0.9291992,0.1977539,-0.3256836,3.90625,-2.9296875,1.2817383,0.0,0.0,0.0,148.59009,68.13721,-136.19751
1765589888139,-0.9291992,0.1977539,-0.3256836,3.90625,-2.9296875,1.2817383,0.0,0.0,0.0,148.78235,68.09326,-135.8899
1765589888227,-0.9296875,0.19677734,-0.30419922,-0.30517578,0.061035156,0.36621094,0.0,0.0,0.0,148.78235,68.09326,-135.8899
1765589888238,-0.9296875,0.19677734,-0.30419922,-0.30517578,0.061035156,0.36621094,0.0,0.0,0.0,148.44177,68.236084,-136.51062
1765589888327,-0.9316406,0.19482422,-0.30664062,0.8544922,0.36621094,0.0,0.0,0.0,0.0,148.44177,68.236084,-136.51062
1765589888338,-0.9316406,0.19482422,-0.30664062,0.8544922,0.36621094,0.0,0.0,0.0,0.0,148.47473,68.18115,-136.46118
1765589888426,-0.9326172,0.19384766,-0.3149414,-1.2207031,0.9765625,-0.6713867,0.0,0.0,0.0,148.47473,68.18115,-136.46118
1765589888438,-0.9326172,0.19384766,-0.3149414,-1.2207031,0.9765625,-0.6713867,0.0,0.0,0.0,148.63403,68.1427,-136.23596
1765589888526,-0.93310547,0.19384766,-0.31396484,-0.79345703,0.24414062,-0.30517578,0.0,0.0,0.0,148.63403,68.1427,-136.23596
1765589888537,-0.93310547,0.19384766,-0.31396484,-0.79345703,0.24414062,-0.30517578,0.0,0.0,0.0,148.63403,68.15918,-136.13708
1765589888626,-0.93652344,0.19335938,-0.31347656,0.24414062,-0.4272461,-0.061035156,0.0,0.0,0.0,148.63403,68.15918,-136.13708
1765589888637,-0.93652344,0.19335938,-0.31347656,0.24414062,-0.4272461,-0.061035156,0.0,0.0,0.0,148.68896,68.15918,-136.02722
1765589888725,-0.93310547,0.19384766,-0.3071289,0.5493164,-0.48828125,0.36621094,0.0,0.0,0.0,148.68896,68.15918,-136.02722
1765589888737,-0.93310547,0.19384766,-0.3071289,0.5493164,-0.48828125,0.36621094,0.0,0.0,0.0,148.64502,68.19214,-136.08765
1765589888825,-0.93408203,0.1953125,-0.31445312,0.061035156,-0.061035156,-0.18310547,0.0,0.0,0.0,148.64502,68.19214,-136.08765
1765589888837,-0.93408203,0.1953125,-0.31445312,0.061035156,-0.061035156,-0.18310547,0.0,0.0,0.0,148.5846,68.20862,-136.15356
1765589888925,-0.93652344,0.19335938,-0.31298828,-2.0141602,1.2207031,-1.2817383,0.0,0.0,0.0,148.5846,68.20862,-136.15356
1765589888937,-0.93652344,0.19335938,-0.31298828,-2.0141602,1.2207031,-1.2817383,0.0,0.0,0.0,148.7384,68.203125,-135.8789
1765589889025,-0.93408203,0.19189453,-0.31445312,0.24414062,-0.8544922,-0.061035156,0.0,0.0,0.0,148.7384,68.203125,-135.8789
1765589889036,-0.93408203,0.19189453,-0.31445312,0.24414062,-0.8544922,-0.061035156,0.0,0.0,0.0,148.76587,68.23059,-135.75256
1765589889124,-0.9326172,0.19091797,-0.31640625,-1.0375977,0.0,-0.36621094,0.0,0.0,0.0,148.76587,68.23059,-135.75256
1765589889136,-0.9326172,0.19091797,-0.31640625,-1.0375977,0.0,-0.36621094,0.0,0.0,0.0,148.79333,68.25256,-135.68665
1765589889224,-0.93652344,0.19482422,-0.30322266,0.0,-0.12207031,0.36621094,0.0,0.0,0.0,148.79333,68.25256,-135.68665
1765589889235,-0.93652344,0.19482422,-0.30322266,0.0,-0.12207031,0.36621094,0.0,0.0,0.0,148.72742,68.28003,-135.802
1765589889324,-0.9345703,0.19335938,-0.3149414,0.24414062,-0.30517578,0.36621094,0.0,0.0,0.0,148.72742,68.28003,-135.802
1765589889335,-0.9345703,0.19335938,-0.3149414,0.24414062,-0.30517578,0.36621094,0.0,0.0,0.0,148.68347,68.26904,-135.82947
1765589889423,-0.93310547,0.19482422,-0.3100586,-0.7324219,0.36621094,-0.24414062,0.0,0.0,0.0,148.68347,68.26904,-135.82947
1765589889435,-0.93310547,0.19482422,-0.3100586,-0.7324219,0.36621094,-0.24414062,0.0,0.0,0.0,148.62854,68.291016,-135.87341
1765589889523,-0.93408203,0.1953125,-0.3071289,0.24414062,0.12207031,0.12207031,0.0,0.0,0.0,148.62854,68.291016,-135.87341
1765589889535,-0.93408203,0.1953125,-0.3071289,0.24414062,0.12207031,0.12207031,0.0,0.0,0.0,148.59558,68.28552,-135.89539
1765589889623,-0.93310547,0.19628906,-0.30859375,0.18310547,-0.7324219,0.12207031,0.0,0.0,0.0,148.59558,68.28552,-135.89539
1765589889635,-0.93310547,0.19628906,-0.30859375,0.18310547,-0.7324219,0.12207031,0.0,0.0,0.0,148.54065,68.323975,-135.93384
1765589889723,-0.9350586,0.1928711,-0.31201172,0.7324219,-0.4272461,0.061035156,0.0,0.0,0.0,148.54065,68.323975,-135.93384
1765589889734,-0.9350586,0.1928711,-0.31201172,0.7324219,-0.4272461,0.061035156,0.0,0.0,0.0,148.52966,68.35144,-135.9668
1765589889822,-0.93603516,0.19238281,-0.3100586,0.061035156,-0.24414062,0.24414062,0.0,0.0,0.0,148.52966,68.35144,-135.9668
1765589889834,-0.93603516,0.19238281,-0.3100586,0.061035156,-0.24414062,0.24414062,0.0,0.0,0.0,148.52966,68.34595,-135.94482
1765589889922,-0.93310547,0.19042969,-0.3076172,0.12207031,0.0,0.0,0.0,0.0,0.0,148.52966,68.34595,-135.94482
1765589889934,-0.93310547,0.19042969,-0.3076172,0.12207031,0.0,0.0,0.0,0.0,0.0,148.48022,68.36792,-136.01074
1765589890022,-0.9350586,0.1928711,-0.31152344,0.4272461,0.0,0.0,0.0,0.0,0.0,148.48022,68.36792,-136.01074
1765589890033,-0.9350586,0.1928711,-0.31152344,0.4272461,0.0,0.0,0.0,0.0,0.0,148.52966,68.340454,-135.9613
1765589890121,-0.93359375,0.1953125,-0.30566406,0.061035156,0.0,0.061035156,0.0,0.0,0.0,148.52966,68.340454,-135.9613
1765589890133,-0.93359375,0.1953125,-0.30566406,0.061035156,0.0,0.061035156,0.0,0.0,0.0,148.51318,68.34595,-135.98328
1765589890221,-0.93408203,0.19384766,-0.3095703,0.0,0.0,-0.061035156,0.0,0.0,0.0,148.51318,68.34595,-135.98328
1765589890232,-0.93408203,0.19384766,-0.3095703,0.0,0.0,-0.061035156,0.0,0.0,0.0,148.5022,68.35144,-135.9668
1765589890321,-0.9350586,0.19091797,-0.31152344,-0.18310547,-0.061035156,-0.18310547,0.0,0.0,0.0,148.5022,68.35144,-135.9668
1765589890332,-0.9350586,0.19091797,-0.31152344,-0.18310547,-0.061035156,-0.18310547,0.0,0.0,0.0,148.53516,68.33496,-135.90088
1765589890421,-0.9345703,0.19189453,-0.3095703,-0.48828125,0.061035156,0.0,0.0,0.0,0.0,148.53516,68.33496,-135.90088
1765589890432,-0.9345703,0.19189453,-0.3095703,-0.48828125,0.061035156,0.0,0.0,0.0,0.0,148.51318,68.35693,-135.91736
1765589890520,-0.93408203,0.19335938,-0.3071289,0.061035156,0.12207031,-0.12207031,0.0,0.0,0.0,148.51318,68.35693,-135.91736
1765589890532,-0.93408203,0.19335938,-0.3071289,0.061035156,0.12207031,-0.12207031,0.0,0.0,0.0,148.48022,68.37341,-135.9668
1765589890620,-0.93310547,0.19580078,-0.30322266,-0.30517578,0.36621094,-0.061035156,0.0,0.0,0.0,148.48022,68.37341,-135.9668
1765589890632,-0.93310547,0.19580078,-0.30322266,-0.30517578,0.36621094,-0.061035156,0.0,0.0,0.0,148.48022,68.37891,-135.9613
1765589890720,-0.93359375,0.19238281,-0.31103516,-0.061035156,0.0,0.0,0.0,0.0,0.0,148.48022,68.37891,-135.9613
1765589890731,-0.93359375,0.19238281,-0.31103516,-0.061035156,0.0,0.0,0.0,0.0,0.0,148.48022,68.37341,-135.92834
1765589890819,-0.93359375,0.19091797,-0.3100586,0.061035156,0.5493164,0.0,0.0,0.0,0.0,148.48022,68.37341,-135.92834
1765589890831,-0.93359375,0.19091797,-0.3100586,0.061035156,0.5493164,0.0,0.0,0.0,0.0,148.51868,68.34595,-135.8844
1765589890919,-0.9350586,0.19580078,-0.30517578,-0.30517578,0.24414062,0.12207031,0.0,0.0,0.0,148.51868,68.34595,-135.8844
1765589890931,-0.9350586,0.19580078,-0.30517578,-0.30517578,0.24414062,0.12207031,0.0,0.0,0.0,148.5022,68.35144,-135.92834
1765589891019,-0.93408203,0.19580078,-0.31054688,0.0,-0.061035156,0.0,0.0,0.0,0.0,148.5022,68.35144,-135.92834
1765589891030,-0.93408203,0.19580078,-0.31054688,0.0,-0.061035156,0.0,0.0,0.0,0.0,148.5022,68.34595,-135.91187
1765589891119,-0.93359375,0.19482422,-0.3095703,-0.12207031,0.18310547,0.0,0.0,0.0,0.0,148.5022,68.34595,-135.91187
1765589891130,-0.93359375,0.19482422,-0.3095703,-0.12207031,0.18310547,0.0,0.0,0.0,0.0,148.4967,68.34595,-135.90088
1765589891218,-0.9370117,0.19238281,-0.30908203,-0.061035156,-0.36621094,0.0,0.0,0.0,0.0,148.4967,68.34595,-135.90088
1765589891230,-0.9370117,0.19238281,-0.30908203,-0.061035156,-0.36621094,0.0,0.0,0.0,0.0,148.46375,68.35144,-135.91187
1765589891318,-0.93408203,0.1928711,-0.3100586,-0.6713867,0.36621094,0.0,0.0,0.0,0.0,148.46375,68.35144,-135.91187
1765589891330,-0.93408203,0.1928711,-0.3100586,-0.6713867,0.36621094,0.0,0.0,0.0,0.0,148.44727,68.36243,-135.92285
1765589891418,-0.93408203,0.19238281,-0.31103516,0.0,0.12207031,0.0,0.0,0.0,0.0,148.44727,68.36243,-135.92285
1765589891429,-0.93408203,0.19238281,-0.31103516,0.0,0.12207031,0.0,0.0,0.0,0.0,148.44177,68.36243,-135.91187
1765589891517,-0.9321289,0.19726562,-0.30273438,-0.5493164,0.6713867,0.0,0.0,0.0,0.0,148.44177,68.36243,-135.91187
1765589891529,-0.9321289,0.19726562,-0.30273438,-0.5493164,0.6713867,0.0,0.0,0.0,0.0,148.43628,68.37891,-135.93933
1765589891617,-0.93408203,0.19335938,-0.30810547,0.18310547,-0.36621094,0.0,0.0,0.0,0.0,148.43628,68.37891,-135.93933
1765589891629,-0.93408203,0.19335938,-0.30810547,0.18310547,-0.36621094,0.0,0.0,0.0,0.0,148.4143,68.3844,-135.93933
1765589891717,-0.9345703,0.19433594,-0.3095703,-0.18310547,0.4272461,0.0,0.0,0.0,0.0,148.4143,68.3844,-135.93933
1765589891729,-0.9345703,0.19433594,-0.3095703,-0.18310547,0.4272461,0.0,0.0,0.0,0.0,148.45276,68.36792,-135.89539
1765589891816,-0.93652344,0.19433594,-0.30664062,-0.24414062,0.0,0.0,0.0,0.0,0.0,148.45276,68.36792,-135.89539
1765589891828,-0.93652344,0.19433594,-0.30664062,-0.24414062,0.0,0.0,0.0,0.0,0.0,148.45825,68.36792,-135.8844
1765589891916,-0.9326172,0.19189453,-0.31152344,0.0,0.12207031,0.0,0.0,0.0,0.0,148.45825,68.36792,-135.8844
1765589891928,-0.9326172,0.19189453,-0.31152344,0.0,0.12207031,0.0,0.0,0.0,0.0,148.45825,68.36792,-135.87341
1765589892016,-0.93359375,0.19238281,-0.3100586,-0.24414062,0.061035156,-0.36621094,0.0,0.0,0.0,148.45825,68.36792,-135.87341
1765589892028,-0.93359375,0.19238281,-0.3100586,-0.24414062,0.061035156,-0.36621094,0.0,0.0,0.0,148.47473,68.36792,-135.84045
1765589892116,-0.93359375,0.19482422,-0.30908203,-0.24414062,0.18310547,0.12207031,0.0,0.0,0.0,148.47473,68.36792,-135.84045
1765589892127,-0.93359375,0.19482422,-0.30908203,-0.24414062,0.18310547,0.12207031,0.0,0.0,0.0,148.46924,68.38989,-135.83496
1765589892215,-0.9355469,0.1928711,-0.30859375,-0.18310547,-0.24414062,0.061035156,0.0,0.0,0.0,148.46924,68.38989,-135.83496
1765589892227,-0.9355469,0.1928711,-0.30859375,-0.18310547,-0.24414062,0.061035156,0.0,0.0,0.0,148.46924,68.37891,-135.81299
1765589892315,-0.9345703,0.18896484,-0.30908203,0.0,-0.18310547,-0.36621094,0.0,0.0,0.0,148.46924,68.37891,-135.81299
1765589892327,-0.9345703,0.18896484,-0.30908203,0.0,-0.18310547,-0.36621094,0.0,0.0,0.0,148.44727,68.411865,-135.85144
1765589892415,-0.93359375,0.19335938,-0.30273438,-0.91552734,1.159668,-0.24414062,0.0,0.0,0.0,148.44727,68.411865,-135.85144
1765589892426,-0.93359375,0.19335938,-0.30273438,-0.91552734,1.159668,-0.24414062,0.0,0.0,0.0,148.48022,68.411865,-135.82397
1765589892514,-0.9345703,0.19384766,-0.30664062,0.12207031,-0.18310547,-0.061035156,0.0,0.0,0.0,148.48022,68.411865,-135.82397
1765589892526,-0.9345703,0.19384766,-0.30664062,0.12207031,-0.18310547,-0.061035156,0.0,0.0,0.0,148.43628,68.395386,-135.83496
1765589892614,-0.9316406,0.19482422,-0.3071289,0.0,0.6713867,0.0,0.0,0.0,0.0,148.43628,68.395386,-135.83496
1765589892625,-0.9316406,0.19482422,-0.3071289,0.0,0.6713867,0.0,0.0,0.0,0.0,148.45825,68.41736,-135.81848
1765589892714,-0.93896484,0.19482422,-0.30517578,-0.061035156,-0.24414062,0.18310547,0.0,0.0,0.0,148.45825,68.41736,-135.81848
1765589892725,-0.93896484,0.19482422,-0.30517578,-0.061035156,-0.24414062,0.18310547,0.0,0.0,0.0,148.5022,68.395386,-135.76355
1765589892813,-0.9350586,0.19189453,-0.3095703,-0.061035156,0.0,0.0,0.0,0.0,0.0,148.5022,68.395386,-135.76355
1765589892825,-0.9350586,0.19189453,-0.3095703,-0.061035156,0.0,0.0,0.0,0.0,0.0,148.46924,68.40088,-135.78003
1765589892913,-0.93359375,0.19238281,-0.3095703,-0.30517578,0.61035156,-0.12207031,0.0,0.0,0.0,148.46924,68.40088,-135.78003
1765589892925,-0.93359375,0.19238281,-0.3095703,-0.30517578,0.61035156,-0.12207031,0.0,0.0,0.0,148.5022,68.38989,-135.73059
1765589893013,-0.9350586,0.19335938,-0.3071289,-0.12207031,-0.18310547,0.0,0.0,0.0,0.0,148.5022,68.38989,-135.73059
1765589893025,-0.9350586,0.19335938,-0.3071289,-0.12207031,-0.18310547,0.0,0.0,0.0,0.0,148.4967,68.38989,-135.7196
1765589893113,-0.93310547,0.19482422,-0.30517578,0.061035156,0.061035156,0.0,0.0,0.0,0.0,148.4967,68.38989,-135.7196
1765589893124,-0.93310547,0.19482422,-0.30517578,0.061035156,0.061035156,0.0,0.0,0.0,0.0,148.47473,68.411865,-135.74707
1765589893212,-0.9345703,0.19677734,-0.30859375,0.24414062,-0.30517578,0.4272461,0.0,0.0,0.0,148.47473,68.411865,-135.74707
1765589893224,-0.9345703,0.19677734,-0.30859375,0.24414062,-0.30517578,0.4272461,0.0,0.0,0.0,148.4967,68.40088,-135.70862
1765589893312,-0.93652344,0.1899414,-0.31298828,0.61035156,-0.6713867,0.24414062,0.0,0.0,0.0,148.4967,68.40088,-135.70862
1765589893324,-0.93652344,0.1899414,-0.31298828,0.61035156,-0.6713867,0.24414062,0.0,0.0,0.0,148.46375,68.41736,-135.7251
1765589893412,-0.93408203,0.19189453,-0.31054688,-0.061035156,0.4272461,-0.24414062,0.0,0.0,0.0,148.46375,68.41736,-135.7251
1765589893423,-0.93408203,0.19189453,-0.31054688,-0.061035156,0.4272461,-0.24414062,0.0,0.0,0.0,148.5022,68.40088,-135.68665
1765589893511,-0.93359375,0.19238281,-0.30615234,-0.36621094,0.48828125,-0.24414062,0.0,0.0,0.0,148.5022,68.40088,-135.68665
1765589893523,-0.93359375,0.19238281,-0.30615234,-0.36621094,0.48828125,-0.24414062,0.0,0.0,0.0,148.50769,68.41736,-135.67566
1765589893611,-0.9345703,0.19580078,-0.30908203,0.4272461,-0.18310547,0.18310547,0.0,0.0,0.0,148.50769,68.41736,-135.67566
1765589893623,-0.9345703,0.19580078,-0.30908203,0.4272461,-0.18310547,0.18310547,0.0,0.0,0.0,148.4967,68.395386,-135.68665
1765589893711,-0.93408203,0.19580078,-0.3046875,0.12207031,-0.18310547,0.0,0.0,0.0,0.0,148.4967,68.395386,-135.68665
1765589893722,-0.93408203,0.19580078,-0.3046875,0.12207031,-0.18310547,0.0,0.0,0.0,0.0,148.5022,68.411865,-135.68115
1765589893811,-0.9350586,0.19189453,-0.31054688,-0.24414062,0.12207031,0.0,0.0,0.0,0.0,148.5022,68.411865,-135.68115
1765589893822,-0.9350586,0.19189453,-0.31054688,-0.24414062,0.12207031,0.0,0.0,0.0,0.0,148.52966,68.395386,-135.60425
1765589893910,-0.93310547,0.19091797,-0.30908203,0.12207031,0.0,0.061035156,0.0,0.0,0.0,148.52966,68.395386,-135.60425
1765589893922,-0.93310547,0.19091797,-0.30908203,0.12207031,0.0,0.061035156,0.0,0.0,0.0,148.52417,68.38989,-135.60425
1765589894010,-0.9345703,0.19238281,-0.30810547,-0.18310547,0.0,-0.30517578,0.0,0.0,0.0,148.52417,68.38989,-135.60425
1765589894022,-0.9345703,0.19238281,-0.30810547,-0.18310547,0.0,-0.30517578,0.0,0.0,0.0,148.52417,68.40637,-135.60425
1765589894110,-0.9345703,0.19335938,-0.3076172,-0.4272461,0.48828125,-0.18310547,0.0,0.0,0.0,148.52417,68.40637,-135.60425
1765589894121,-0.9345703,0.19335938,-0.3076172,-0.4272461,0.48828125,-0.18310547,0.0,0.0,0.0,148.53516,68.395386,-135.5658
1765589894209,-0.9326172,0.19433594,-0.30664062,0.18310547,-0.12207031,0.0,0.0,0.0,0.0,148.53516,68.395386,-135.5658
1765589894221,-0.9326172,0.19433594,-0.30664062,0.18310547,-0.12207031,0.0,0.0,0.0,0.0,148.49121,68.411865,-135.61523
1765589894309,-0.93359375,0.19335938,-0.3022461,0.18310547,0.12207031,0.0,0.0,0.0,0.0,148.49121,68.411865,-135.61523
1765589894321,-0.93359375,0.19335938,-0.3022461,0.18310547,0.12207031,0.0,0.0,0.0,0.0,148.4967,68.41736,-135.62622
1765589894409,-0.93310547,0.1928711,-0.3095703,0.061035156,-0.30517578,0.061035156,0.0,0.0,0.0,148.4967,68.41736,-135.62622
1765589894420,-0.93310547,0.1928711,-0.3095703,0.061035156,-0.30517578,0.061035156,0.0,0.0,0.0,148.50769,68.411865,-135.58777
1765589894509,-0.9316406,0.19189453,-0.30810547,-0.12207031,0.48828125,-0.061035156,0.0,0.0,0.0,148.50769,68.411865,-135.58777
1765589894520,-0.9316406,0.19189453,-0.30810547,-0.12207031,0.48828125,-0.061035156,0.0,0.0,0.0,148.52966,68.40637,-135.5603
1765589894608,-0.93652344,0.19335938,-0.30566406,-0.061035156,-0.061035156,0.12207031,0.0,0.0,0.0,148.52966,68.40637,-135.5603
1765589894620,-0.93652344,0.19335938,-0.30566406,-0.061035156,-0.061035156,0.12207031,0.0,0.0,0.0,148.54614,68.40088,-135.54932
1765589894708,-0.93359375,0.19238281,-0.30908203,-0.12207031,0.24414062,0.0,0.0,0.0,0.0,148.54614,68.40088,-135.54932
1765589894720,-0.93359375,0.19238281,-0.30908203,-0.12207031,0.24414062,0.0,0.0,0.0,0.0,148.53516,68.40088,-135.54382
1765589894808,-0.93408203,0.19335938,-0.30908203,-0.30517578,0.30517578,0.0,0.0,0.0,0.0,148.53516,68.40088,-135.54382
1765589894819,-0.93408203,0.19335938,-0.30908203,-0.30517578,0.30517578,0.0,0.0,0.0,0.0,148.53516,68.395386,-135.52185
1765589894907,-0.9355469,0.19384766,-0.30810547,0.0,0.0,0.0,0.0,0.0,0.0,148.53516,68.395386,-135.52185
1765589894919,-0.9355469,0.19384766,-0.30810547,0.0,0.0,0.0,0.0,0.0,0.0,148.53516,68.395386,-135.52185
1765589895007,-0.93408203,0.1928711,-0.30810547,-0.061035156,-0.061035156,0.0,0.0,0.0,0.0,148.53516,68.395386,-135.52185
1765589895019,-0.93408203,0.1928711,-0.30810547,-0.061035156,-0.061035156,0.0,0.0,0.0,0.0,148.52417,68.40088,-135.52185
1765589895107,-0.93603516,0.19140625,-0.3125,-0.5493164,0.30517578,0.0,0.0,0.0,0.0,148.52417,68.40088,-135.52185
1765589895119,-0.93603516,0.19140625,-0.3125,-0.5493164,0.30517578,0.0,0.0,0.0,0.0,148.52417,68.38989,-135.49438
1765589895207,-0.93359375,0.19189453,-0.3076172,0.0,0.061035156,-0.061035156,0.0,0.0,0.0,148.52417,68.38989,-135.49438
1765589895218,-0.93359375,0.19189453,-0.3076172,0.0,0.061035156,-0.061035156,0.0,0.0,0.0,148.48572,68.40637,-135.54382
