timestamp,accX,accY,accZ,gyroX,gyroY,gyroZ,magX,magY,magZ,roll,pitch,yaw
1768033100640,-0.9794922,0.1616211,-0.15527344,-0.9765625,-1.0986328,0.0,0.0,0.0,0.0,133.86841,76.777954,19.764404
1768033100728,-0.97509766,0.16210938,-0.15234375,-0.61035156,-0.79345703,-0.48828125,0.0,0.0,0.0,133.86841,76.777954,19.764404
1768033100740,-0.97509766,0.16210938,-0.15234375,-0.61035156,-0.79345703,-0.48828125,0.0,0.0,0.0,134.01123,76.81091,19.91272
1768033100828,-0.9785156,0.15966797,-0.15625,0.061035156,-0.48828125,-0.24414062,0.0,0.0,0.0,134.01123,76.81091,19.91272
1768033100839,-0.9785156,0.15966797,-0.15625,0.061035156,-0.48828125,-0.24414062,0.0,0.0,0.0,133.85193,76.87683,19.802856
1768033100928,-0.96972656,0.15966797,-0.14355469,0.8544922,-0.36621094,-0.4272461,0.0,0.0,0.0,133.85193,76.87683,19.802856
1768033100939,-0.96972656,0.15966797,-0.14355469,0.8544922,-0.36621094,-0.4272461,0.0,0.0,0.0,133.89587,76.88782,19.841309
1768033101027,-0.97998047,0.15966797,-0.14941406,-0.36621094,-0.5493164,0.36621094,0.0,0.0,0.0,133.89587,76.88782,19.841309
1768033101039,-0.97998047,0.15966797,-0.14941406,-0.36621094,-0.5493164,0.36621094,0.0,0.0,0.0,133.35754,76.986694,19.35791
1768033101127,-0.9814453,0.16015625,-0.1484375,-1.0986328,-1.0986328,0.4272461,0.0,0.0,0.0,133.35754,76.986694,19.35791
1768033101138,-0.9814453,0.16015625,-0.1484375,-1.0986328,-1.0986328,0.4272461,0.0,0.0,0.0,133.30261,77.003174,19.291992
1768033101227,-0.9794922,0.16064453,-0.15283203,0.061035156,0.36621094,0.0,0.0,0.0,0.0,133.30261,77.003174,19.291992
1768033101238,-0.9794922,0.16064453,-0.15283203,0.061035156,0.36621094,0.0,0.0,0.0,0.0,133.41248,76.99768,19.385376
1768033101326,-0.97802734,0.16064453,-0.14746094,0.4272461,0.61035156,-0.12207031,0.0,0.0,0.0,133.41248,76.99768,19.385376
1768033101338,-0.97802734,0.16064453,-0.14746094,0.4272461,0.61035156,-0.12207031,0.0,0.0,0.0,133.44543,76.99219,19.407349
1768033101426,-0.9770508,0.16210938,-0.14794922,0.24414062,0.30517578,0.0,0.0,0.0,0.0,133.44543,76.99219,19.407349
1768033101437,-0.9770508,0.16210938,-0.14794922,0.24414062,0.30517578,0.0,0.0,0.0,0.0,133.45093,76.986694,19.429321
1768033101526,-0.97753906,0.16015625,-0.14453125,0.24414062,-0.18310547,0.0,0.0,0.0,0.0,133.45093,76.986694,19.429321
1768033101537,-0.97753906,0.16015625,-0.14453125,0.24414062,-0.18310547,0.0,0.0,0.0,0.0,133.42346,77.00867,19.352417
1768033101625,-0.98046875,0.15966797,-0.15185547,-0.18310547,-1.0986328,-0.24414062,0.0,0.0,0.0,133.42346,77.00867,19.352417
1768033101638,-0.98046875,0.15966797,-0.15185547,-0.18310547,-1.0986328,-0.24414062,0.0,0.0,0.0,133.09937,77.09656,19.006348
1768033101725,-0.97753906,0.16210938,-0.1430664,0.48828125,-0.7324219,0.061035156,0.0,0.0,0.0,133.09937,77.09656,19.006348
1768033101736,-0.97753906,0.16210938,-0.1430664,0.48828125,-0.7324219,0.061035156,0.0,0.0,0.0,132.79175,77.13501,18.687744
1768033101825,-0.9770508,0.1586914,-0.14160156,0.8544922,-0.24414062,0.0,0.0,0.0,0.0,132.79175,77.13501,18.687744
1768033101837,-0.9770508,0.1586914,-0.14160156,0.8544922,-0.24414062,0.0,0.0,0.0,0.0,132.3523,77.20093,18.248291
1768033101924,-0.98291016,0.16113281,-0.14208984,0.7324219,-0.61035156,0.36621094,0.0,0.0,0.0,132.3523,77.20093,18.248291
1768033101936,-0.98291016,0.16113281,-0.14208984,0.7324219,-0.61035156,0.36621094,0.0,0.0,0.0,132.05017,77.23938,17.885742
1768033102024,-0.97998047,0.16064453,-0.14013672,-0.36621094,-0.6713867,0.6713867,0.0,0.0,0.0,132.05017,77.23938,17.885742
1768033102036,-0.97998047,0.16064453,-0.14013672,-0.36621094,-0.6713867,0.6713867,0.0,0.0,0.0,131.92932,77.23938,17.693481
1768033102124,-0.9838867,0.1616211,-0.14404297,0.48828125,0.061035156,0.6713867,0.0,0.0,0.0,131.92932,77.23938,17.693481
1768033102135,-0.9838867,0.1616211,-0.14404297,0.48828125,0.061035156,0.6713867,0.0,0.0,0.0,131.71509,77.2229,17.44629
1768033102223,-0.984375,0.16894531,-0.13574219,-1.6479492,-2.9907227,1.0375977,0.0,0.0,0.0,131.71509,77.2229,17.44629
1768033102235,-0.984375,0.16894531,-0.13574219,-1.6479492,-2.9907227,1.0375977,0.0,0.0,0.0,131.19324,77.21741,16.957397
1768033102323,-0.9765625,0.16748047,-0.1352539,-0.8544922,0.61035156,0.91552734,0.0,0.0,0.0,131.19324,77.21741,16.957397
1768033102335,-0.9765625,0.16748047,-0.1352539,-0.8544922,0.61035156,0.91552734,0.0,0.0,0.0,130.8197,77.15698,16.660767
1768033102423,-0.98095703,0.17089844,-0.14160156,-1.8310547,0.36621094,0.8544922,0.0,0.0,0.0,130.8197,77.15698,16.660767
1768033102434,-0.98095703,0.17089844,-0.14160156,-1.8310547,0.36621094,0.8544922,0.0,0.0,0.0,130.40222,77.11304,16.364136
1768033102523,-0.98583984,0.1772461,-0.1352539,-2.1972656,0.12207031,0.8544922,0.0,0.0,0.0,130.40222,77.11304,16.364136
1768033102534,-0.98583984,0.1772461,-0.1352539,-2.1972656,0.12207031,0.8544922,0.0,0.0,0.0,130.28687,77.04712,16.402588
1768033102622,-0.97314453,0.17822266,-0.125,1.4648438,4.5776367,-3.4179688,0.0,0.0,0.0,130.28687,77.04712,16.402588
1768033102634,-0.97314453,0.17822266,-0.125,1.4648438,4.5776367,-3.4179688,0.0,0.0,0.0,131.42944,76.97571,17.720947
1768033102722,-0.9638672,0.15722656,-0.14892578,0.0,0.4272461,-3.540039,0.0,0.0,0.0,131.42944,76.97571,17.720947
1768033102734,-0.9638672,0.15722656,-0.14892578,0.0,0.4272461,-3.540039,0.0,0.0,0.0,133.1543,77.091064,19.665527
1768033102822,-0.984375,0.14453125,-0.14941406,-7.751465,-2.0751953,-2.2583008,0.0,0.0,0.0,133.1543,77.091064,19.665527
1768033102833,-0.984375,0.14453125,-0.14941406,-7.751465,-2.0751953,-2.2583008,0.0,0.0,0.0,133.09937,77.39868,20.050049
1768033102921,-0.98535156,0.1459961,-0.14208984,-10.559082,0.48828125,-2.5024414,0.0,0.0,0.0,133.09937,77.39868,20.050049
1768033102933,-0.98535156,0.1459961,-0.14208984,-10.559082,0.48828125,-2.5024414,0.0,0.0,0.0,132.86865,77.65686,20.593872
1768033103021,-0.984375,0.15332031,-0.13134766,-12.084961,1.0375977,-1.953125,0.0,0.0,0.0,132.86865,77.65686,20.593872
1768033103033,-0.984375,0.15332031,-0.13134766,-12.084961,1.0375977,-1.953125,0.0,0.0,0.0,132.69836,77.75574,21.54419
1768033103121,-0.9838867,0.15332031,-0.14208984,-13.671875,3.9672852,-1.8920898,0.0,0.0,0.0,132.69836,77.75574,21.54419
1768033103132,-0.9838867,0.15332031,-0.14208984,-13.671875,3.9672852,-1.8920898,0.0,0.0,0.0,132.89062,77.72278,23.137207
1768033103221,-0.9790039,0.15917969,-0.13867188,-13.73291,4.333496,-0.91552734,0.0,0.0,0.0,132.89062,77.72278,23.137207
1768033103232,-0.9790039,0.15917969,-0.13867188,-13.73291,4.333496,-0.91552734,0.0,0.0,0.0,133.06091,77.55798,24.812622
1768033103320,-0.9794922,0.17089844,-0.13476562,-14.709473,2.6855469,-0.24414062,0.0,0.0,0.0,133.06091,77.55798,24.812622
1768033103332,-0.9794922,0.17089844,-0.13476562,-14.709473,2.6855469,-0.24414062,0.0,0.0,0.0,132.8302,77.371216,26.136475
1768033103420,-0.9770508,0.18017578,-0.13671875,-12.634277,2.9907227,-0.4272461,0.0,0.0,0.0,132.8302,77.371216,26.136475
1768033103432,-0.9770508,0.18017578,-0.13671875,-12.634277,2.9907227,-0.4272461,0.0,0.0,0.0,132.59949,77.195435,27.438354
1768033103520,-0.9736328,0.18066406,-0.13427734,-11.84082,1.0375977,-0.18310547,0.0,0.0,0.0,132.59949,77.195435,27.438354
1768033103532,-0.9736328,0.18066406,-0.13427734,-11.84082,1.0375977,-0.18310547,0.0,0.0,0.0,132.06116,77.06909,28.355713
1768033103620,-0.96875,0.17480469,-0.12988281,-12.145996,2.1972656,0.18310547,0.0,0.0,0.0,132.06116,77.06909,28.355713
1768033103631,-0.96875,0.17480469,-0.12988281,-12.145996,2.1972656,0.18310547,0.0,0.0,0.0,131.21521,76.93176,28.99292
1768033103719,-0.9838867,0.17089844,-0.13964844,-18.188477,1.8310547,1.2207031,0.0,0.0,0.0,131.21521,76.93176,28.99292
1768033103731,-0.9838867,0.17089844,-0.13964844,-18.188477,1.8310547,1.2207031,0.0,0.0,0.0,129.72107,76.78345,29.229126
1768033103819,-0.9790039,0.1743164,-0.14160156,-23.07129,3.2958984,0.8544922,0.0,0.0,0.0,129.72107,76.78345,29.229126
1768033103830,-0.9790039,0.1743164,-0.14160156,-23.07129,3.2958984,0.8544922,0.0,0.0,0.0,128.59497,76.536255,30.17395
1768033103919,-0.9790039,0.18115234,-0.13720703,-24.780273,3.0517578,-0.5493164,0.0,0.0,0.0,128.59497,76.536255,30.17395
1768033103930,-0.9790039,0.18115234,-0.13720703,-24.780273,3.0517578,-0.5493164,0.0,0.0,0.0,127.23816,76.343994,31.217651
1768033104018,-0.96191406,0.15966797,-0.12402344,-24.963379,1.159668,-1.4648438,0.0,0.0,0.0,127.23816,76.343994,31.217651
1768033104030,-0.96191406,0.15966797,-0.12402344,-24.963379,1.159668,-1.4648438,0.0,0.0,0.0,125.99121,76.30554,32.41516
1768033104118,-0.9770508,0.1459961,-0.12597656,-28.625488,-3.90625,-3.2958984,0.0,0.0,0.0,125.99121,76.30554,32.41516
1768033104130,-0.9770508,0.1459961,-0.12597656,-28.625488,-3.90625,-3.2958984,0.0,0.0,0.0,123.57971,76.64612,32.486572
1768033104218,-0.9975586,0.17236328,-0.12890625,-26.184082,-2.6855469,-1.953125,0.0,0.0,0.0,123.57971,76.64612,32.486572
1768033104229,-0.9975586,0.17236328,-0.12890625,-26.184082,-2.6855469,-1.953125,0.0,0.0,0.0,120.17395,77.18994,31.470337
1768033104317,-1.0043945,0.19628906,-0.12011719,-13.000488,2.1972656,-1.8310547,0.0,0.0,0.0,120.17395,77.18994,31.470337
1768033104329,-1.0043945,0.19628906,-0.12011719,-13.000488,2.1972656,-1.8310547,0.0,0.0,0.0,119.40491,77.36572,32.195435
1768033104417,-0.96435547,0.16748047,-0.103027344,-1.2817383,0.12207031,-0.91552734,0.0,0.0,0.0,119.40491,77.36572,32.195435
1768033104429,-0.96435547,0.16748047,-0.103027344,-1.2817383,0.12207031,-0.91552734,0.0,0.0,0.0,120.08606,77.40967,33.26111
1768033104517,-1.0058594,0.1616211,-0.103515625,15.686035,-0.9765625,-2.746582,0.0,0.0,0.0,120.08606,77.40967,33.26111
1768033104535,-1.0058594,0.1616211,-0.103515625,15.686035,-0.9765625,-2.746582,0.0,0.0,0.0,120.6958,77.64038,33.008423
1768033104617,-0.9902344,0.16308594,-0.1352539,25.756836,2.746582,0.0,0.0,0.0,0.0,120.6958,77.64038,33.008423
1768033104628,-0.9902344,0.16308594,-0.1352539,25.756836,2.746582,0.0,0.0,0.0,0.0,122.7887,77.7832,32.958984
1768033104716,-0.9658203,0.08691406,-0.119628906,33.26416,4.638672,-3.3569336,0.0,0.0,0.0,122.7887,77.7832,32.958984
1768033104733,-0.9658203,0.08691406,-0.119628906,33.26416,4.638672,-3.3569336,0.0,0.0,0.0,128.8916,77.63489,35.66162
1768033104816,-1.012207,0.091796875,-0.1381836,22.705078,-1.6479492,-4.272461,0.0,0.0,0.0,128.8916,77.63489,35.66162
1768033104828,-1.012207,0.091796875,-0.1381836,22.705078,-1.6479492,-4.272461,0.0,0.0,0.0,133.7146,78.08533,37.29309
1768033104916,-0.95751953,0.13574219,-0.123046875,20.019531,-2.2583008,0.7324219,0.0,0.0,0.0,133.7146,78.08533,37.29309
1768033104927,-0.95751953,0.13574219,-0.123046875,20.019531,-2.2583008,0.7324219,0.0,0.0,0.0,135.67017,78.53027,36.870117
1768033105017,-1.0097656,0.115234375,-0.111328125,19.714355,-10.498047,0.9765625,0.0,0.0,0.0,135.67017,78.53027,36.870117
1768033105027,-1.0097656,0.115234375,-0.111328125,19.714355,-10.498047,0.9765625,0.0,0.0,0.0,135.21423,78.931274,34.315796
1768033105117,-0.9711914,0.1484375,-0.13085938,20.874023,-5.6152344,0.0,0.0,0.0,0.0,135.21423,78.931274,34.315796
1768033105127,-0.9711914,0.1484375,-0.13085938,20.874023,-5.6152344,0.0,0.0,0.0,0.0,133.36853,79.62341,30.492554
1768033105215,-0.98095703,0.1459961,-0.111328125,24.902344,-7.8125,0.36621094,0.0,0.0,0.0,133.36853,79.62341,30.492554
1768033105226,-0.98095703,0.1459961,-0.111328125,24.902344,-7.8125,0.36621094,0.0,0.0,0.0,133.93433,79.93103,28.707275
1768033105314,-0.97998047,0.15625,-0.13183594,26.97754,-2.4414062,2.4414062,0.0,0.0,0.0,133.93433,79.93103,28.707275
1768033105326,-0.97998047,0.15625,-0.13183594,26.97754,-2.4414062,2.4414062,0.0,0.0,0.0,132.76428,80.1947,25.153198
1768033105414,-0.97509766,0.16259766,-0.122558594,27.893066,-4.760742,4.8828125,0.0,0.0,0.0,132.76428,80.1947,25.153198
1768033105426,-0.97509766,0.16259766,-0.122558594,27.893066,-4.760742,4.8828125,0.0,0.0,0.0,132.89612,80.007935,22.70874
1768033105514,-0.9897461,0.1430664,-0.13183594,26.97754,-0.8544922,3.4179688,0.0,0.0,0.0,132.89612,80.007935,22.70874
1768033105525,-0.9897461,0.1430664,-0.13183594,26.97754,-0.8544922,3.4179688,0.0,0.0,0.0,132.78076,79.75525,20.072021
1768033105613,-0.9790039,0.14990234,-0.140625,21.118164,-0.8544922,1.5869141,0.0,0.0,0.0,132.78076,79.75525,20.072021
1768033105625,-0.9790039,0.14990234,-0.140625,21.118164,-0.8544922,1.5869141,0.0,0.0,0.0,133.31909,79.54651,18.424072
1768033105713,-0.98779297,0.14648438,-0.15332031,13.73291,-3.2348633,1.2207031,0.0,0.0,0.0,133.31909,79.54651,18.424072
1768033105725,-0.98779297,0.14648438,-0.15332031,13.73291,-3.2348633,1.2207031,0.0,0.0,0.0,134.25842,79.4751,17.65503
1768033105813,-0.9819336,0.15673828,-0.15429688,0.0,1.5869141,0.91552734,0.0,0.0,0.0,134.25842,79.4751,17.65503
1768033105824,-0.9819336,0.15673828,-0.15429688,0.0,1.5869141,0.91552734,0.0,0.0,0.0,134.58252,79.365234,17.270508
1768033105913,-0.99853516,0.17529297,-0.16796875,-4.5776367,4.0283203,1.159668,0.0,0.0,0.0,134.58252,79.365234,17.270508
1768033105924,-0.99853516,0.17529297,-0.16796875,-4.5776367,4.0283203,1.159668,0.0,0.0,0.0,134.26392,79.03015,17.42981
1768033106012,-0.95947266,0.18408203,-0.15136719,-10.070801,8.544922,3.1738281,0.0,0.0,0.0,134.26392,79.03015,17.42981
1768033106024,-0.95947266,0.18408203,-0.15136719,-10.070801,8.544922,3.1738281,0.0,0.0,0.0,135.90088,78.184204,19.945679
1768033106112,-0.97216797,0.20263672,-0.13916016,-10.009766,5.3710938,6.5307617,0.0,0.0,0.0,135.90088,78.184204,19.945679
1768033106124,-0.97216797,0.20263672,-0.13916016,-10.009766,5.3710938,6.5307617,0.0,0.0,0.0,134.71985,77.23389,20.357666
1768033106212,-0.95703125,0.20751953,-0.1274414,-6.164551,-2.380371,7.5683594,0.0,0.0,0.0,134.71985,77.23389,20.357666
1768033106223,-0.95703125,0.20751953,-0.1274414,-6.164551,-2.380371,7.5683594,0.0,0.0,0.0,132.53357,76.53076,19.37439
1768033106312,-0.97314453,0.18115234,-0.11376953,1.953125,-5.92041,6.164551,0.0,0.0,0.0,132.53357,76.53076,19.37439
1768033106323,-0.97314453,0.18115234,-0.11376953,1.953125,-5.92041,6.164551,0.0,0.0,0.0,128.96301,76.21216,16.342163
1768033106411,-0.97802734,0.16455078,-0.11230469,3.3569336,-1.953125,2.4414062,0.0,0.0,0.0,128.96301,76.21216,16.342163
1768033106423,-0.97802734,0.16455078,-0.11230469,3.3569336,-1.953125,2.4414062,0.0,0.0,0.0,126.35376,76.16821,13.672485
1768033106511,-0.9746094,0.18652344,-0.10644531,1.953125,-4.8217773,1.2207031,0.0,0.0,0.0,126.35376,76.16821,13.672485
1768033106522,-0.9746094,0.18652344,-0.10644531,1.953125,-4.8217773,1.2207031,0.0,0.0,0.0,124.749756,76.30554,12.024536
1768033106611,-0.9873047,0.18115234,-0.10449219,9.82666,-2.5024414,-0.12207031,0.0,0.0,0.0,124.749756,76.30554,12.024536
1768033106622,-0.9873047,0.18115234,-0.10449219,9.82666,-2.5024414,-0.12207031,0.0,0.0,0.0,123.793945,76.49231,10.700684
1768033106710,-0.99072266,0.15820312,-0.11816406,6.958008,0.30517578,-0.5493164,0.0,0.0,0.0,123.793945,76.49231,10.700684
1768033106722,-0.99072266,0.15820312,-0.11816406,6.958008,0.30517578,-0.5493164,0.0,0.0,0.0,124.24988,76.67908,10.442505
1768033106810,-0.984375,0.16210938,-0.10986328,4.333496,0.24414062,-1.4038086,0.0,0.0,0.0,124.24988,76.67908,10.442505
1768033106822,-0.984375,0.16210938,-0.10986328,4.333496,0.24414062,-1.4038086,0.0,0.0,0.0,125.31555,76.8219,11.046753
1768033106910,-0.9794922,0.16259766,-0.11328125,6.4086914,1.5258789,-2.319336,0.0,0.0,0.0,125.31555,76.8219,11.046753
1768033106921,-0.9794922,0.16259766,-0.11328125,6.4086914,1.5258789,-2.319336,0.0,0.0,0.0,126.3208,77.04712,11.711426
1768033107009,-0.9892578,0.14550781,-0.1352539,6.8969727,0.30517578,-1.6479492,0.0,0.0,0.0,126.3208,77.04712,11.711426
1768033107021,-0.9892578,0.14550781,-0.1352539,6.8969727,0.30517578,-1.6479492,0.0,0.0,0.0,127.595215,77.25586,12.370605
1768033107109,-0.9873047,0.13085938,-0.14990234,1.3427734,3.2348633,-1.8920898,0.0,0.0,0.0,127.595215,77.25586,12.370605
1768033107122,-0.9873047,0.13085938,-0.14990234,1.3427734,3.2348633,-1.8920898,0.0,0.0,0.0,129.55078,77.316284,13.815308
1768033107209,-0.9736328,0.14892578,-0.14941406,-2.8686523,4.8828125,-1.4038086,0.0,0.0,0.0,129.55078,77.316284,13.815308
1768033107220,-0.9736328,0.14892578,-0.14941406,-2.8686523,4.8828125,-1.4038086,0.0,0.0,0.0,131.65466,77.23938,15.79834
1768033107309,-0.9741211,0.15966797,-0.15185547,-2.8076172,2.4414062,-2.4414062,0.0,0.0,0.0,131.65466,77.23938,15.79834
1768033107320,-0.9741211,0.15966797,-0.15185547,-2.8076172,2.4414062,-2.4414062,0.0,0.0,0.0,132.89612,77.20642,17.265015
1768033107408,-0.9765625,0.15722656,-0.14892578,-3.1738281,2.1362305,-2.380371,0.0,0.0,0.0,132.89612,77.20642,17.265015
1768033107421,-0.9765625,0.15722656,-0.14892578,-3.1738281,2.1362305,-2.380371,0.0,0.0,0.0,134.14307,77.21741,18.847046
1768033107509,-0.97509766,0.16845703,-0.1430664,-2.1972656,1.953125,-1.8310547,0.0,0.0,0.0,134.14307,77.21741,18.847046
1768033107519,-0.97509766,0.16845703,-0.1430664,-2.1972656,1.953125,-1.8310547,0.0,0.0,0.0,134.72534,77.25586,19.9292
1768033107611,-0.9785156,0.1665039,-0.15185547,-0.9765625,0.18310547,-0.61035156,0.0,0.0,0.0,134.72534,77.25586,19.9292
1768033107619,-0.9785156,0.1665039,-0.15185547,-0.9765625,0.18310547,-0.61035156,0.0,0.0,0.0,134.98901,77.27783,20.560913
1768033107707,-0.97753906,0.1616211,-0.14697266,-0.91552734,-0.9765625,0.8544922,0.0,0.0,0.0,134.98901,77.27783,20.560913
1768033107720,-0.97753906,0.1616211,-0.14697266,-0.91552734,-0.9765625,0.8544922,0.0,0.0,0.0,134.9231,77.2229,20.720215
1768033107807,-0.9770508,0.16113281,-0.14697266,0.7324219,0.48828125,1.0986328,0.0,0.0,0.0,134.9231,77.2229,20.720215
1768033107819,-0.9770508,0.16113281,-0.14697266,0.7324219,0.48828125,1.0986328,0.0,0.0,0.0,134.21448,77.178955,20.143433
1768033107907,-0.9765625,0.16357422,-0.1508789,-0.18310547,-1.4648438,1.6479492,0.0,0.0,0.0,134.21448,77.178955,20.143433
1768033107919,-0.9765625,0.16357422,-0.1508789,-0.18310547,-1.4648438,1.6479492,0.0,0.0,0.0,133.40149,77.15698,19.385376
1768033108006,-0.9790039,0.15917969,-0.1508789,0.6713867,-0.30517578,0.9765625,0.0,0.0,0.0,133.40149,77.15698,19.385376
1768033108018,-0.9790039,0.15917969,-0.1508789,0.6713867,-0.30517578,0.9765625,0.0,0.0,0.0,132.97852,77.074585,18.918457
1768033108106,-0.9794922,0.17236328,-0.14355469,1.2207031,0.91552734,0.91552734,0.0,0.0,0.0,132.97852,77.074585,18.918457
1768033108118,-0.9794922,0.17236328,-0.14355469,1.2207031,0.91552734,0.91552734,0.0,0.0,0.0,132.73132,76.99768,18.638306
1768033108206,-0.9790039,0.16064453,-0.14941406,2.6245117,0.36621094,0.4272461,0.0,0.0,0.0,132.73132,76.99768,18.638306
1768033108217,-0.9790039,0.16064453,-0.14941406,2.6245117,0.36621094,0.4272461,0.0,0.0,0.0,132.92908,76.91528,18.676758
1768033108306,-0.9765625,0.15917969,-0.14453125,1.159668,0.061035156,0.18310547,0.0,0.0,0.0,132.92908,76.91528,18.676758
1768033108317,-0.9765625,0.15917969,-0.14453125,1.159668,0.061035156,0.18310547,0.0,0.0,0.0,133.28613,76.86035,18.896484
1768033108405,-0.9824219,0.1586914,-0.1538086,0.9765625,-0.24414062,-0.18310547,0.0,0.0,0.0,133.28613,76.86035,18.896484
1768033108417,-0.9824219,0.1586914,-0.1538086,0.9765625,-0.24414062,-0.18310547,0.0,0.0,0.0,133.2367,76.88782,18.825073
1768033108505,-0.97509766,0.1665039,-0.14160156,-0.36621094,-0.61035156,-0.4272461,0.0,0.0,0.0,133.2367,76.88782,18.825073
1768033108516,-0.97509766,0.1665039,-0.14160156,-0.36621094,-0.61035156,-0.4272461,0.0,0.0,0.0,133.2367,76.937256,18.863525
1768033108605,-0.9741211,0.1640625,-0.14111328,0.18310547,0.0,-0.5493164,0.0,0.0,0.0,133.2367,76.937256,18.863525
1768033108616,-0.9741211,0.1640625,-0.14111328,0.18310547,0.0,-0.5493164,0.0,0.0,0.0,132.95105,77.02515,18.704224
1768033108704,-0.98339844,0.16601562,-0.15039062,-2.5024414,-1.6479492,0.8544922,0.0,0.0,0.0,132.95105,77.02515,18.704224
1768033108716,-0.98339844,0.16601562,-0.15039062,-2.5024414,-1.6479492,0.8544922,0.0,0.0,0.0,132.36328,77.107544,18.26477
1768033108804,-0.9794922,0.16845703,-0.14453125,-1.5869141,-0.4272461,1.4648438,0.0,0.0,0.0,132.36328,77.107544,18.26477
1768033108816,-0.9794922,0.16845703,-0.14453125,-1.5869141,-0.4272461,1.4648438,0.0,0.0,0.0,131.95679,77.041626,17.990112
1768033108904,-0.9760742,0.17089844,-0.1430664,0.36621094,1.2817383,1.0375977,0.0,0.0,0.0,131.95679,77.041626,17.990112
1768033108915,-0.9760742,0.17089844,-0.1430664,0.36621094,1.2817383,1.0375977,0.0,0.0,0.0,131.77551,76.92078,17.896729
1768033109003,-0.97998047,0.1665039,-0.15429688,1.5258789,-0.48828125,0.8544922,0.0,0.0,0.0,131.77551,76.92078,17.896729
1768033109016,-0.97998047,0.1665039,-0.15429688,1.5258789,-0.48828125,0.8544922,0.0,0.0,0.0,131.5448,76.82739,17.660522
1768033109103,-0.97753906,0.16992188,-0.14746094,1.0375977,0.0,0.48828125,0.0,0.0,0.0,131.5448,76.82739,17.660522
1768033109115,-0.97753906,0.16992188,-0.14746094,1.0375977,0.0,0.48828125,0.0,0.0,0.0,131.80847,76.7395,17.786865
1768033109203,-0.9741211,0.16894531,-0.14208984,1.3427734,1.4648438,0.0,0.0,0.0,0.0,131.80847,76.7395,17.786865
1768033109214,-0.9741211,0.16894531,-0.14208984,1.3427734,1.4648438,0.0,0.0,0.0,0.0,131.83044,76.69556,17.786865
1768033109303,-0.9770508,0.16699219,-0.1484375,-0.30517578,-0.36621094,0.0,0.0,0.0,0.0,131.83044,76.69556,17.786865
1768033109314,-0.9770508,0.16699219,-0.1484375,-0.30517578,-0.36621094,0.0,0.0,0.0,0.0,132.07764,76.68457,18.023071
1768033109402,-0.97753906,0.16699219,-0.14990234,-0.30517578,-0.18310547,0.0,0.0,0.0,0.0,132.07764,76.68457,18.023071
1768033109414,-0.97753906,0.16699219,-0.14990234,-0.30517578,-0.18310547,0.0,0.0,0.0,0.0,132.37976,76.69556,18.358154
1768033109502,-0.9790039,0.16455078,-0.14550781,-0.48828125,0.12207031,-0.48828125,0.0,0.0,0.0,132.37976,76.69556,18.358154
1768033109514,-0.9790039,0.16455078,-0.14550781,-0.48828125,0.12207031,-0.48828125,0.0,0.0,0.0,132.4347,76.73401,18.484497
1768033109602,-0.97753906,0.16308594,-0.15136719,0.0,0.0,-0.61035156,0.0,0.0,0.0,132.4347,76.73401,18.484497
1768033109613,-0.97753906,0.16308594,-0.15136719,0.0,0.0,-0.61035156,0.0,0.0,0.0,132.34131,76.79993,18.528442
1768033109702,-0.9790039,0.16748047,-0.14697266,-0.91552734,-1.3427734,-0.6713867,0.0,0.0,0.0,132.34131,76.79993,18.528442
1768033109713,-0.9790039,0.16748047,-0.14697266,-0.91552734,-1.3427734,-0.6713867,0.0,0.0,0.0,132.48962,76.84387,18.764648
1768033109801,-0.97998047,0.16552734,-0.14746094,-1.7089844,-0.061035156,-0.061035156,0.0,0.0,0.0,132.48962,76.84387,18.764648
1768033109813,-0.97998047,0.16552734,-0.14746094,-1.7089844,-0.061035156,-0.061035156,0.0,0.0,0.0,132.38525,76.90979,18.847046
1768033109901,-0.9790039,0.16455078,-0.1484375,-0.5493164,0.36621094,-0.5493164,0.0,0.0,0.0,132.38525,76.90979,18.847046
1768033109912,-0.9790039,0.16455078,-0.1484375,-0.5493164,0.36621094,-0.5493164,0.0,0.0,0.0,132.57751,76.92078,19.16565
1768033110001,-0.9785156,0.1616211,-0.15429688,0.0,0.61035156,-0.4272461,0.0,0.0,0.0,132.57751,76.92078,19.16565
1768033110012,-0.9785156,0.1616211,-0.15429688,0.0,0.61035156,-0.4272461,0.0,0.0,0.0,132.97302,76.92078,19.643555
1768033110100,-0.9790039,0.16113281,-0.15039062,-0.061035156,0.6713867,-0.48828125,0.0,0.0,0.0,132.97302,76.92078,19.643555
1768033110113,-0.9790039,0.16113281,-0.15039062,-0.061035156,0.6713867,-0.48828125,0.0,0.0,0.0,133.29712,76.93176,19.973145
1768033110200,-0.9760742,0.16259766,-0.1484375,-0.18310547,0.36621094,-0.18310547,0.0,0.0,0.0,133.29712,76.93176,19.973145
1768033110212,-0.9760742,0.16259766,-0.1484375,-0.18310547,0.36621094,-0.18310547,0.0,0.0,0.0,133.49487,76.93176,20.22583
1768033110300,-0.9741211,0.16259766,-0.1459961,-0.18310547,0.24414062,0.0,0.0,0.0,0.0,133.49487,76.93176,20.22583
1768033110311,-0.9741211,0.16259766,-0.1459961,-0.18310547,0.24414062,0.0,0.0,0.0,0.0,133.56079,76.92078,20.352173
1768033110400,-0.9819336,0.16748047,-0.15478516,-0.79345703,0.30517578,0.48828125,0.0,0.0,0.0,133.56079,76.92078,20.352173
1768033110411,-0.9819336,0.16748047,-0.15478516,-0.79345703,0.30517578,0.48828125,0.0,0.0,0.0,133.33557,76.93176,20.220337
1768033110499,-0.97802734,0.16357422,-0.15234375,0.061035156,-0.061035156,0.36621094,0.0,0.0,0.0,133.33557,76.93176,20.220337
1768033110511,-0.97802734,0.16357422,-0.15234375,0.061035156,-0.061035156,0.36621094,0.0,0.0,0.0,133.27515,76.87134,20.214844
1768033110599,-0.9765625,0.16259766,-0.15332031,1.2817383,0.91552734,-0.18310547,0.0,0.0,0.0,133.27515,76.87134,20.214844
1768033110610,-0.9765625,0.16259766,-0.15332031,1.2817383,0.91552734,-0.18310547,0.0,0.0,0.0,133.3136,76.81641,20.25879
1768033110699,-0.97802734,0.16210938,-0.15332031,0.5493164,0.91552734,0.0,0.0,0.0,0.0,133.3136,76.81641,20.25879
1768033110710,-0.97802734,0.16210938,-0.15332031,0.5493164,0.91552734,0.0,0.0,0.0,0.0,133.42896,76.78345,20.341187
1768033110798,-0.9770508,0.16503906,-0.15136719,-0.30517578,-0.24414062,0.0,0.0,0.0,0.0,133.42896,76.78345,20.341187
1768033110810,-0.9770508,0.16503906,-0.15136719,-0.30517578,-0.24414062,0.0,0.0,0.0,0.0,133.61023,76.75598,20.527954
1768033110898,-0.9765625,0.16210938,-0.14990234,0.24414062,0.48828125,-0.12207031,0.0,0.0,0.0,133.61023,76.75598,20.527954
1768033110909,-0.9765625,0.16210938,-0.14990234,0.24414062,0.48828125,-0.12207031,0.0,0.0,0.0,133.59924,76.777954,20.511475
1768033110998,-0.9790039,0.16503906,-0.14892578,-0.24414062,-1.2207031,0.0,0.0,0.0,0.0,133.59924,76.777954,20.511475
1768033111009,-0.9790039,0.16503906,-0.14892578,-0.24414062,-1.2207031,0.0,0.0,0.0,0.0,133.4784,76.83838,20.396118
1768033111097,-0.97753906,0.16259766,-0.14794922,0.48828125,0.0,0.0,0.0,0.0,0.0,133.4784,76.83838,20.396118
1768033111109,-0.97753906,0.16259766,-0.14794922,0.48828125,0.0,0.0,0.0,0.0,0.0,133.4784,76.84387,20.401611
1768033111197,-0.9785156,0.16308594,-0.15576172,-0.36621094,0.36621094,0.18310547,0.0,0.0,0.0,133.4784,76.84387,20.401611
1768033111209,-0.9785156,0.16308594,-0.15576172,-0.36621094,0.36621094,0.18310547,0.0,0.0,0.0,133.5498,76.84387,20.45105
1768033111297,-0.97753906,0.16113281,-0.15136719,-0.18310547,-0.12207031,0.30517578,0.0,0.0,0.0,133.5498,76.84387,20.45105
1768033111309,-0.97753906,0.16113281,-0.15136719,-0.18310547,-0.12207031,0.30517578,0.0,0.0,0.0,133.65967,76.8219,20.544434
1768033111397,-0.9760742,0.16064453,-0.14990234,0.30517578,0.18310547,0.061035156,0.0,0.0,0.0,133.65967,76.8219,20.544434
1768033111408,-0.9760742,0.16064453,-0.14990234,0.30517578,0.18310547,0.061035156,0.0,0.0,0.0,133.77502,76.79993,20.637817
1768033111496,-0.9794922,0.16455078,-0.15234375,0.18310547,0.4272461,0.061035156,0.0,0.0,0.0,133.77502,76.79993,20.637817
1768033111508,-0.9794922,0.16455078,-0.15234375,0.18310547,0.4272461,0.061035156,0.0,0.0,0.0,133.67065,76.79443,20.560913
1768033111596,-0.9765625,0.16308594,-0.14941406,0.0,0.48828125,0.061035156,0.0,0.0,0.0,133.67065,76.79443,20.560913
1768033111607,-0.9765625,0.16308594,-0.14941406,0.0,0.48828125,0.061035156,0.0,0.0,0.0,133.70361,76.777954,20.566406
1768033111696,-0.98046875,0.16552734,-0.15771484,-0.12207031,-0.4272461,-0.061035156,0.0,0.0,0.0,133.70361,76.777954,20.566406
1768033111707,-0.98046875,0.16552734,-0.15771484,-0.12207031,-0.4272461,-0.061035156,0.0,0.0,0.0,133.62671,76.79993,20.489502
1768033111795,-0.9765625,0.16113281,-0.15234375,0.12207031,0.48828125,0.24414062,0.0,0.0,0.0,133.62671,76.79993,20.489502
1768033111807,-0.9765625,0.16113281,-0.15234375,0.12207031,0.48828125,0.24414062,0.0,0.0,0.0,133.65417,76.75598,20.527954
1768033111895,-0.97509766,0.16455078,-0.1538086,0.36621094,0.5493164,-0.12207031,0.0,0.0,0.0,133.65417,76.75598,20.527954
1768033111907,-0.97509766,0.16455078,-0.1538086,0.36621094,0.5493164,-0.12207031,0.0,0.0,0.0,133.4729,76.7395,20.401611
1768033111995,-0.9760742,0.16552734,-0.15039062,0.30517578,0.6713867,0.12207031,0.0,0.0,0.0,133.4729,76.7395,20.401611
1768033112006,-0.9760742,0.16552734,-0.15039062,0.30517578,0.6713867,0.12207031,0.0,0.0,0.0,133.42346,76.712036,20.368652
1768033112094,-0.9790039,0.16503906,-0.1538086,-0.7324219,-0.18310547,0.5493164,0.0,0.0,0.0,133.42346,76.712036,20.368652
1768033112107,-0.9790039,0.16503906,-0.1538086,-0.7324219,-0.18310547,0.5493164,0.0,0.0,0.0,133.26965,76.69006,20.264282
1768033112194,-0.9770508,0.16552734,-0.15722656,0.48828125,0.061035156,0.18310547,0.0,0.0,0.0,133.26965,76.69006,20.264282
1768033112206,-0.9770508,0.16552734,-0.15722656,0.48828125,0.061035156,0.18310547,0.0,0.0,0.0,133.33557,76.65161,20.31372
1768033112294,-0.9741211,0.16894531,-0.15136719,0.8544922,-0.4272461,0.0,0.0,0.0,0.0,133.33557,76.65161,20.31372
1768033112306,-0.9741211,0.16894531,-0.15136719,0.8544922,-0.4272461,0.0,0.0,0.0,0.0,133.41248,76.62964,20.34668
1768033112394,-0.9741211,0.16455078,-0.1459961,0.48828125,0.4272461,0.061035156,0.0,0.0,0.0,133.41248,76.62964,20.34668
1768033112405,-0.9741211,0.16455078,-0.1459961,0.48828125,0.4272461,0.061035156,0.0,0.0,0.0,133.19824,76.640625,20.159912
1768033112493,-0.97753906,0.16503906,-0.15478516,-0.4272461,-0.48828125,0.30517578,0.0,0.0,0.0,133.19824,76.640625,20.159912
1768033112505,-0.97753906,0.16503906,-0.15478516,-0.4272461,-0.48828125,0.30517578,0.0,0.0,0.0,133.16528,76.64612,20.132446
1768033112593,-0.9765625,0.1640625,-0.15283203,-0.36621094,-0.61035156,0.24414062,0.0,0.0,0.0,133.16528,76.64612,20.132446
1768033112605,-0.9765625,0.1640625,-0.15283203,-0.36621094,-0.61035156,0.24414062,0.0,0.0,0.0,133.33008,76.64612,20.291748
1768033112693,-0.97509766,0.16601562,-0.1508789,0.061035156,0.061035156,-0.36621094,0.0,0.0,0.0,133.33008,76.64612,20.291748
1768033112704,-0.97509766,0.16601562,-0.1508789,0.061035156,0.061035156,-0.36621094,0.0,0.0,0.0,133.28613,76.67908,20.269775
1768033112792,-0.9790039,0.1640625,-0.15234375,0.30517578,0.12207031,-0.48828125,0.0,0.0,0.0,133.28613,76.67908,20.269775
1768033112804,-0.9790039,0.1640625,-0.15234375,0.30517578,0.12207031,-0.48828125,0.0,0.0,0.0,133.19824,76.73401,20.214844
1768033112892,-0.97558594,0.1616211,-0.14697266,0.0,0.0,-0.4272461,0.0,0.0,0.0,133.19824,76.73401,20.214844
1768033112904,-0.97558594,0.1616211,-0.14697266,0.0,0.0,-0.4272461,0.0,0.0,0.0,133.3905,76.77246,20.36316
1768033112992,-0.9785156,0.16552734,-0.15332031,-0.36621094,-0.30517578,-0.6713867,0.0,0.0,0.0,133.3905,76.77246,20.36316
1768033113003,-0.9785156,0.16552734,-0.15332031,-0.36621094,-0.30517578,-0.6713867,0.0,0.0,0.0,133.3136,76.86035,20.308228
1768033113092,-0.9790039,0.16210938,-0.15039062,0.061035156,0.18310547,-0.36621094,0.0,0.0,0.0,133.3136,76.86035,20.308228
1768033113103,-0.9790039,0.16210938,-0.15039062,0.061035156,0.18310547,-0.36621094,0.0,0.0,0.0,133.26416,76.88782,20.308228
1768033113191,-0.97558594,0.15722656,-0.1484375,0.4272461,0.6713867,-0.7324219,0.0,0.0,0.0,133.26416,76.88782,20.308228
1768033113203,-0.97558594,0.15722656,-0.1484375,0.4272461,0.6713867,-0.7324219,0.0,0.0,0.0,133.35754,76.91528,20.456543
1768033113291,-0.9785156,0.16308594,-0.14990234,0.0,0.24414062,-0.12207031,0.0,0.0,0.0,133.35754,76.91528,20.456543
1768033113302,-0.9785156,0.16308594,-0.14990234,0.0,0.24414062,-0.12207031,0.0,0.0,0.0,133.43445,76.937256,20.544434
1768033113391,-0.97802734,0.16210938,-0.1508789,-0.4272461,-0.30517578,0.12207031,0.0,0.0,0.0,133.43445,76.937256,20.544434
1768033113402,-0.97802734,0.16210938,-0.1508789,-0.4272461,-0.30517578,0.12207031,0.0,0.0,0.0,133.50586,76.937256,20.632324
1768033113490,-0.9794922,0.16015625,-0.15429688,0.7324219,-0.12207031,0.12207031,0.0,0.0,0.0,133.50586,76.937256,20.632324
1768033113502,-0.9794922,0.16015625,-0.15429688,0.7324219,-0.12207031,0.12207031,0.0,0.0,0.0,133.50037,76.93176,20.621338
1768033113590,-0.97802734,0.1640625,-0.1484375,0.0,-0.7324219,0.24414062,0.0,0.0,0.0,133.50037,76.93176,20.621338
1768033113602,-0.97802734,0.1640625,-0.1484375,0.0,-0.7324219,0.24414062,0.0,0.0,0.0,133.4784,76.91528,20.582886
1768033113690,-0.9785156,0.16357422,-0.14892578,0.0,0.4272461,0.4272461,0.0,0.0,0.0,133.4784,76.91528,20.582886
1768033113701,-0.9785156,0.16357422,-0.14892578,0.0,0.4272461,0.4272461,0.0,0.0,0.0,133.29712,76.9043,20.43457
1768033113790,-0.9794922,0.16259766,-0.1538086,-0.48828125,0.0,0.48828125,0.0,0.0,0.0,133.29712,76.9043,20.43457
1768033113801,-0.9794922,0.16259766,-0.1538086,-0.48828125,0.0,0.48828125,0.0,0.0,0.0,133.35754,76.87134,20.478516
1768033113889,-0.9765625,0.16064453,-0.15185547,-0.061035156,0.18310547,0.48828125,0.0,0.0,0.0,133.35754,76.87134,20.478516
1768033113901,-0.9765625,0.16064453,-0.15185547,-0.061035156,0.18310547,0.48828125,0.0,0.0,0.0,133.53882,76.832886,20.637817
1768033113989,-0.9770508,0.1616211,-0.14990234,0.30517578,0.6713867,0.0,0.0,0.0,0.0,133.53882,76.832886,20.637817
1768033114001,-0.9770508,0.1616211,-0.14990234,0.30517578,0.6713867,0.0,0.0,0.0,0.0,133.58826,76.81091,20.670776
1768033114089,-0.97802734,0.16308594,-0.15283203,0.12207031,0.18310547,0.18310547,0.0,0.0,0.0,133.58826,76.81091,20.670776
1768033114100,-0.97802734,0.16308594,-0.15283203,0.12207031,0.18310547,0.18310547,0.0,0.0,0.0,133.50037,76.80542,20.599365
1768033114188,-0.9765625,0.16308594,-0.1484375,0.061035156,0.30517578,0.24414062,0.0,0.0,0.0,133.50037,76.80542,20.599365
1768033114200,-0.9765625,0.16308594,-0.1484375,0.061035156,0.30517578,0.24414062,0.0,0.0,0.0,133.5498,76.79443,20.588379
1768033114288,-0.9790039,0.16552734,-0.15478516,0.12207031,-0.12207031,-0.18310547,0.0,0.0,0.0,133.5498,76.79443,20.588379
1768033114300,-0.9790039,0.16552734,-0.15478516,0.12207031,-0.12207031,-0.18310547,0.0,0.0,0.0,133.40149,76.81641,20.429077
1768033114388,-0.97558594,0.16357422,-0.15039062,0.79345703,0.12207031,-0.12207031,0.0,0.0,0.0,133.40149,76.81641,20.429077
1768033114399,-0.97558594,0.16357422,-0.15039062,0.79345703,0.12207031,-0.12207031,0.0,0.0,0.0,133.44543,76.79993,20.462036
1768033114488,-0.9765625,0.15966797,-0.14990234,0.4272461,0.79345703,-0.061035156,0.0,0.0,0.0,133.44543,76.79993,20.462036
1768033114499,-0.9765625,0.15966797,-0.14990234,0.4272461,0.79345703,-0.061035156,0.0,0.0,0.0,133.40698,76.80542,20.43457
1768033114587,-0.9794922,0.1640625,-0.1538086,-0.18310547,0.24414062,0.12207031,0.0,0.0,0.0,133.40698,76.80542,20.43457
1768033114599,-0.9794922,0.1640625,-0.1538086,-0.18310547,0.24414062,0.12207031,0.0,0.0,0.0,133.4784,76.79443,20.500488
1768033114687,-0.9790039,0.1640625,-0.15185547,-0.30517578,0.061035156,0.24414062,0.0,0.0,0.0,133.4784,76.79443,20.500488
1768033114698,-0.9790039,0.1640625,-0.15185547,-0.30517578,0.061035156,0.24414062,0.0,0.0,0.0,133.58826,76.76697,20.637817
1768033114787,-0.9785156,0.16259766,-0.15917969,0.48828125,-0.061035156,0.0,0.0,0.0,0.0,133.58826,76.76697,20.637817
1768033114798,-0.9785156,0.16259766,-0.15917969,0.48828125,-0.061035156,0.0,0.0,0.0,0.0,133.5553,76.7395,20.64331
1768033114886,-0.97216797,0.16210938,-0.14794922,-0.6713867,0.36621094,-0.12207031,0.0,0.0,0.0,133.5553,76.7395,20.64331
1768033114898,-0.97216797,0.16210938,-0.14794922,-0.6713867,0.36621094,-0.12207031,0.0,0.0,0.0,133.69263,76.712036,20.802612
1768033114986,-0.9790039,0.16699219,-0.15185547,-0.30517578,0.48828125,0.36621094,0.0,0.0,0.0,133.69263,76.712036,20.802612
1768033114998,-0.9790039,0.16699219,-0.15185547,-0.30517578,0.48828125,0.36621094,0.0,0.0,0.0,133.46191,76.728516,20.703735
1768033115086,-0.9790039,0.16259766,-0.15478516,-1.2207031,-1.0986328,0.36621094,0.0,0.0,0.0,133.46191,76.728516,20.703735
1768033115097,-0.9790039,0.16259766,-0.15478516,-1.2207031,-1.0986328,0.36621094,0.0,0.0,0.0,133.61572,76.69006,20.874023
1768033115186,-0.97558594,0.16308594,-0.15722656,0.30517578,1.3427734,-0.48828125,0.0,0.0,0.0,133.61572,76.69006,20.874023
1768033115197,-0.97558594,0.16308594,-0.15722656,0.30517578,1.3427734,-0.48828125,0.0,0.0,0.0,133.78052,76.66809,21.055298
1768033115285,-0.97753906,0.16455078,-0.15429688,0.24414062,0.79345703,-0.18310547,0.0,0.0,0.0,133.78052,76.66809,21.055298
1768033115297,-0.97753906,0.16455078,-0.15429688,0.24414062,0.79345703,-0.18310547,0.0,0.0,0.0,133.72559,76.66809,21.027832
1768033115385,-0.9760742,0.16601562,-0.15185547,-0.48828125,-0.24414062,0.0,0.0,0.0,0.0,133.72559,76.66809,21.027832
1768033115396,-0.9760742,0.16601562,-0.15185547,-0.48828125,-0.24414062,0.0,0.0,0.0,0.0,133.74756,76.673584,21.104736
1768033115485,-0.9746094,0.16357422,-0.15283203,0.30517578,0.18310547,-0.12207031,0.0,0.0,0.0,133.74756,76.673584,21.104736
1768033115496,-0.9746094,0.16357422,-0.15283203,0.30517578,0.18310547,-0.12207031,0.0,0.0,0.0,133.86292,76.67908,21.192627
1768033115584,-0.97558594,0.16357422,-0.1508789,-0.12207031,-1.2207031,-0.061035156,0.0,0.0,0.0,133.86292,76.67908,21.192627
1768033115596,-0.97558594,0.16357422,-0.1508789,-0.12207031,-1.2207031,-0.061035156,0.0,0.0,0.0,133.74756,76.744995,21.055298
1768033115684,-0.97558594,0.16503906,-0.14794922,0.79345703,0.91552734,-0.48828125,0.0,0.0,0.0,133.74756,76.744995,21.055298
1768033115696,-0.97558594,0.16503906,-0.14794922,0.79345703,0.91552734,-0.48828125,0.0,0.0,0.0,133.75854,76.76697,21.088257
1768033115784,-0.98339844,0.16455078,-0.15234375,-0.24414062,-0.5493164,-0.18310547,0.0,0.0,0.0,133.75854,76.76697,21.088257
1768033115795,-0.98339844,0.16455078,-0.15234375,-0.24414062,-0.5493164,-0.18310547,0.0,0.0,0.0,133.5498,76.82739,20.928955
1768033115884,-0.9785156,0.16113281,-0.1508789,0.0,-0.48828125,-0.18310547,0.0,0.0,0.0,133.5498,76.82739,20.928955
1768033115895,-0.9785156,0.16113281,-0.1508789,0.0,-0.48828125,-0.18310547,0.0,0.0,0.0,133.82996,76.832886,21.18164
1768033115983,-0.9785156,0.16064453,-0.1508789,0.061035156,-0.4272461,-0.36621094,0.0,0.0,0.0,133.82996,76.832886,21.18164
1768033115995,-0.9785156,0.16064453,-0.1508789,0.061035156,-0.4272461,-0.36621094,0.0,0.0,0.0,133.89587,76.87683,21.23108
1768033116083,-0.9790039,0.1586914,-0.15576172,0.8544922,-0.30517578,-0.18310547,0.0,0.0,0.0,133.89587,76.87683,21.23108
1768033116095,-0.9790039,0.1586914,-0.15576172,0.8544922,-0.30517578,-0.18310547,0.0,0.0,0.0,133.86292,76.92627,21.187134
1768033116183,-0.97509766,0.15820312,-0.1484375,0.30517578,-0.7324219,-0.24414062,0.0,0.0,0.0,133.86292,76.92627,21.187134
1768033116194,-0.97509766,0.15820312,-0.1484375,0.30517578,-0.7324219,-0.24414062,0.0,0.0,0.0,133.91235,76.953735,21.18164
1768033116283,-0.9814453,0.16064453,-0.15283203,-0.61035156,-0.36621094,0.7324219,0.0,0.0,0.0,133.91235,76.953735,21.18164
1768033116294,-0.9814453,0.16064453,-0.15283203,-0.61035156,-0.36621094,0.7324219,0.0,0.0,0.0,133.61572,77.00867,20.912476
1768033116382,-0.9794922,0.15966797,-0.15039062,-0.36621094,-0.61035156,0.30517578,0.0,0.0,0.0,133.61572,77.00867,20.912476
1768033116394,-0.9794922,0.15966797,-0.15039062,-0.36621094,-0.61035156,0.30517578,0.0,0.0,0.0,133.64319,76.99219,20.912476
1768033116482,-0.9794922,0.1616211,-0.15429688,0.30517578,0.6713867,0.12207031,0.0,0.0,0.0,133.64319,76.99219,20.912476
1768033116493,-0.9794922,0.1616211,-0.15429688,0.30517578,0.6713867,0.12207031,0.0,0.0,0.0,133.69812,76.970215,20.95642
1768033116582,-0.9785156,0.16015625,-0.14941406,0.24414062,0.6713867,0.061035156,0.0,0.0,0.0,133.69812,76.970215,20.95642
1768033116593,-0.9785156,0.16015625,-0.14941406,0.24414062,0.6713867,0.061035156,0.0,0.0,0.0,133.7091,76.937256,20.961914
1768033116681,-0.9770508,0.1616211,-0.14990234,0.061035156,0.48828125,0.24414062,0.0,0.0,0.0,133.7091,76.937256,20.961914
1768033116693,-0.9770508,0.1616211,-0.14990234,0.061035156,0.48828125,0.24414062,0.0,0.0,0.0,133.74207,76.9043,20.994873
1768033116781,-0.9765625,0.1616211,-0.14892578,0.36621094,0.8544922,0.36621094,0.0,0.0,0.0,133.74207,76.9043,20.994873
1768033116792,-0.9765625,0.1616211,-0.14892578,0.36621094,0.8544922,0.36621094,0.0,0.0,0.0,133.80798,76.87134,21.00586
1768033116881,-0.97802734,0.16259766,-0.1538086,-0.24414062,0.12207031,0.061035156,0.0,0.0,0.0,133.80798,76.87134,21.00586
1768033116893,-0.97802734,0.16259766,-0.1538086,-0.24414062,0.12207031,0.061035156,0.0,0.0,0.0,133.68164,76.865845,20.88501
1768033116980,-0.97558594,0.16308594,-0.15039062,0.36621094,0.4272461,0.18310547,0.0,0.0,0.0,133.68164,76.865845,20.88501
1768033116992,-0.97558594,0.16308594,-0.15039062,0.36621094,0.4272461,0.18310547,0.0,0.0,0.0,133.75305,76.80542,20.967407
1768033117080,-0.9770508,0.15966797,-0.14941406,0.5493164,1.0986328,0.12207031,0.0,0.0,0.0,133.75305,76.80542,20.967407
1768033117092,-0.9770508,0.15966797,-0.14941406,0.5493164,1.0986328,0.12207031,0.0,0.0,0.0,133.68713,76.777954,20.934448
1768033117180,-0.97998047,0.16503906,-0.15527344,0.30517578,0.30517578,0.12207031,0.0,0.0,0.0,133.68713,76.777954,20.934448
1768033117191,-0.97998047,0.16503906,-0.15527344,0.30517578,0.30517578,0.12207031,0.0,0.0,0.0,133.76953,76.75049,20.994873
1768033117280,-0.9770508,0.16308594,-0.1538086,0.0,-0.12207031,0.12207031,0.0,0.0,0.0,133.76953,76.75049,20.994873
1768033117291,-0.9770508,0.16308594,-0.1538086,0.0,-0.12207031,0.12207031,0.0,0.0,0.0,133.9508,76.71753,21.154175
1768033117379,-0.9790039,0.16210938,-0.1586914,0.91552734,0.0,0.0,0.0,0.0,0.0,133.9508,76.71753,21.154175
1768033117391,-0.9790039,0.16210938,-0.1586914,0.91552734,0.0,0.0,0.0,0.0,0.0,133.98376,76.712036,21.176147
1768033117479,-0.9760742,0.1640625,-0.15185547,0.0,-1.0986328,0.061035156,0.0,0.0,0.0,133.98376,76.712036,21.176147
1768033117491,-0.9760742,0.1640625,-0.15185547,0.0,-1.0986328,0.061035156,0.0,0.0,0.0,134.00024,76.71753,21.170654
1768033117579,-0.98046875,0.16357422,-0.15185547,-0.4272461,0.5493164,0.30517578,0.0,0.0,0.0,134.00024,76.71753,21.170654
1768033117590,-0.98046875,0.16357422,-0.15185547,-0.4272461,0.5493164,0.30517578,0.0,0.0,0.0,133.7915,76.728516,21.033325
1768033117678,-0.9770508,0.16503906,-0.15820312,-1.0986328,-0.061035156,0.36621094,0.0,0.0,0.0,133.7915,76.728516,21.033325
1768033117690,-0.9770508,0.16503906,-0.15820312,-1.0986328,-0.061035156,0.36621094,0.0,0.0,0.0,133.93433,76.69556,21.192627
1768033117778,-0.97998047,0.16210938,-0.15966797,-0.48828125,-0.12207031,0.4272461,0.0,0.0,0.0,133.93433,76.69556,21.192627
1768033117789,-0.97998047,0.16210938,-0.15966797,-0.48828125,-0.12207031,0.4272461,0.0,0.0,0.0,133.97278,76.67908,21.253052
1768033117878,-0.9746094,0.1640625,-0.15429688,0.18310547,0.18310547,-0.12207031,0.0,0.0,0.0,133.97278,76.67908,21.253052
1768033117889,-0.9746094,0.1640625,-0.15429688,0.18310547,0.18310547,-0.12207031,0.0,0.0,0.0,134.1101,76.640625,21.379395
1768033117978,-0.9760742,0.16455078,-0.15722656,0.4272461,0.61035156,0.0,0.0,0.0,0.0,134.1101,76.640625,21.379395
1768033117989,-0.9760742,0.16455078,-0.15722656,0.4272461,0.61035156,0.0,0.0,0.0,0.0,134.01672,76.65161,21.30249
1768033118077,-0.97314453,0.1616211,-0.14892578,0.061035156,-0.18310547,-0.18310547,0.0,0.0,0.0,134.01672,76.65161,21.30249
1768033118089,-0.97314453,0.1616211,-0.14892578,0.061035156,-0.18310547,-0.18310547,0.0,0.0,0.0,134.09363,76.65161,21.340942
1768033118177,-0.984375,0.16699219,-0.16308594,-0.9765625,-0.5493164,0.0,0.0,0.0,0.0,134.09363,76.65161,21.340942
1768033118188,-0.984375,0.16699219,-0.16308594,-0.9765625,-0.5493164,0.0,0.0,0.0,0.0,133.81897,76.72302,21.09375
1768033118277,-0.97558594,0.16259766,-0.15332031,0.24414062,0.18310547,-0.18310547,0.0,0.0,0.0,133.81897,76.72302,21.09375
1768033118288,-0.97558594,0.16259766,-0.15332031,0.24414062,0.18310547,-0.18310547,0.0,0.0,0.0,134.18701,76.68457,21.43982
1768033118376,-0.97558594,0.16064453,-0.15283203,1.5258789,0.36621094,-0.9765625,0.0,0.0,0.0,134.18701,76.68457,21.43982
1768033118388,-0.97558594,0.16064453,-0.15283203,1.5258789,0.36621094,-0.9765625,0.0,0.0,0.0,134.21448,76.72302,21.445312
1768033118476,-0.9765625,0.15966797,-0.15234375,0.6713867,0.61035156,-0.30517578,0.0,0.0,0.0,134.21448,76.72302,21.445312
1768033118487,-0.9765625,0.15966797,-0.15234375,0.6713867,0.61035156,-0.30517578,0.0,0.0,0.0,134.29688,76.77246,21.483765
1768033118576,-0.9765625,0.15917969,-0.15234375,-0.24414062,-0.30517578,0.0,0.0,0.0,0.0,134.29688,76.77246,21.483765
1768033118587,-0.9765625,0.15917969,-0.15234375,-0.24414062,-0.30517578,0.0,0.0,0.0,0.0,134.39575,76.78894,21.571655
1768033118675,-0.9765625,0.15917969,-0.15234375,0.18310547,0.7324219,0.30517578,0.0,0.0,0.0,134.39575,76.78894,21.571655
1768033118687,-0.9765625,0.15917969,-0.15234375,0.18310547,0.7324219,0.30517578,0.0,0.0,0.0,134.36829,76.80542,21.52771
1768033118775,-0.97753906,0.15917969,-0.1538086,-0.48828125,-1.0986328,0.30517578,0.0,0.0,0.0,134.36829,76.80542,21.52771
1768033118787,-0.97753906,0.15917969,-0.1538086,-0.48828125,-1.0986328,0.30517578,0.0,0.0,0.0,134.26392,76.8219,21.395874
1768033118875,-0.9765625,0.16210938,-0.15136719,0.61035156,0.7324219,0.12207031,0.0,0.0,0.0,134.26392,76.8219,21.395874
1768033118886,-0.9765625,0.16210938,-0.15136719,0.61035156,0.7324219,0.12207031,0.0,0.0,0.0,134.02222,76.8219,21.165161
1768033118975,-0.9814453,0.16210938,-0.15283203,-0.18310547,0.48828125,0.5493164,0.0,0.0,0.0,134.02222,76.8219,21.165161
1768033118986,-0.9814453,0.16210938,-0.15283203,-0.18310547,0.48828125,0.5493164,0.0,0.0,0.0,133.84094,76.81091,21.000366
1768033119074,-0.97802734,0.16357422,-0.15283203,-0.5493164,0.30517578,0.4272461,0.0,0.0,0.0,133.84094,76.81091,21.000366
1768033119086,-0.97802734,0.16357422,-0.15283203,-0.5493164,0.30517578,0.4272461,0.0,0.0,0.0,134.06616,76.7395,21.2146
1768033119174,-0.9770508,0.16455078,-0.1538086,-0.5493164,0.4272461,0.4272461,0.0,0.0,0.0,134.06616,76.7395,21.2146
1768033119185,-0.9770508,0.16455078,-0.1538086,-0.5493164,0.4272461,0.4272461,0.0,0.0,0.0,134.10461,76.69556,21.291504
1768033119274,-0.9785156,0.1616211,-0.16113281,0.24414062,-0.18310547,0.24414062,0.0,0.0,0.0,134.10461,76.69556,21.291504
1768033119285,-0.9785156,0.1616211,-0.16113281,0.24414062,-0.18310547,0.24414062,0.0,0.0,0.0,134.06067,76.657104,21.28601
1768033119373,-0.9736328,0.16210938,-0.15332031,-0.12207031,0.0,0.0,0.0,0.0,0.0,134.06067,76.657104,21.28601
1768033119385,-0.9736328,0.16210938,-0.15332031,-0.12207031,0.0,0.0,0.0,0.0,0.0,134.10461,76.62964,21.33545
1768033119473,-0.97998047,0.16699219,-0.15673828,-0.5493164,0.0,0.48828125,0.0,0.0,0.0,134.10461,76.62964,21.33545
1768033119485,-0.97998047,0.16699219,-0.15673828,-0.5493164,0.0,0.48828125,0.0,0.0,0.0,133.86292,76.64612,21.176147
1768033119573,-0.97802734,0.1640625,-0.15625,-0.48828125,-0.36621094,0.0,0.0,0.0,0.0,133.86292,76.64612,21.176147
1768033119585,-0.97802734,0.1640625,-0.15625,-0.48828125,-0.36621094,0.0,0.0,0.0,0.0,133.92883,76.63513,21.264038
1768033119673,-0.97802734,0.16503906,-0.16015625,0.30517578,0.61035156,-0.18310547,0.0,0.0,0.0,133.92883,76.63513,21.264038
1768033119684,-0.97802734,0.16503906,-0.16015625,0.30517578,0.61035156,-0.18310547,0.0,0.0,0.0,134.13208,76.61865,21.472778
1768033119772,-0.9765625,0.16259766,-0.15527344,0.48828125,0.61035156,-0.12207031,0.0,0.0,0.0,134.13208,76.61865,21.472778
1768033119784,-0.9765625,0.16259766,-0.15527344,0.48828125,0.61035156,-0.12207031,0.0,0.0,0.0,134.18701,76.60217,21.51123
1768033119872,-0.9770508,0.16455078,-0.15478516,-0.061035156,-0.12207031,0.18310547,0.0,0.0,0.0,134.18701,76.60217,21.51123
1768033119883,-0.9770508,0.16455078,-0.15478516,-0.061035156,-0.12207031,0.18310547,0.0,0.0,0.0,134.15955,76.607666,21.489258
1768033119972,-0.9741211,0.16308594,-0.15332031,0.18310547,0.5493164,0.18310547,0.0,0.0,0.0,134.15955,76.607666,21.489258
1768033119983,-0.9741211,0.16308594,-0.15332031,0.18310547,0.5493164,0.18310547,0.0,0.0,0.0,134.21997,76.59668,21.500244
1768033120071,-0.9790039,0.1640625,-0.15722656,-0.24414062,-0.24414062,0.0,0.0,0.0,0.0,134.21997,76.59668,21.500244
1768033120083,-0.9790039,0.1640625,-0.15722656,-0.24414062,-0.24414062,0.0,0.0,0.0,0.0,134.06067,76.63513,21.33545
1768033120171,-0.9746094,0.16455078,-0.15234375,0.7324219,0.48828125,-0.061035156,0.0,0.0,0.0,134.06067,76.63513,21.33545
1768033120183,-0.9746094,0.16455078,-0.15234375,0.7324219,0.48828125,-0.061035156,0.0,0.0,0.0,134.1101,76.60217,21.379395
1768033120271,-0.98046875,0.16259766,-0.15283203,-0.4272461,0.61035156,0.24414062,0.0,0.0,0.0,134.1101,76.60217,21.379395
1768033120282,-0.98046875,0.16259766,-0.15283203,-0.4272461,0.61035156,0.24414062,0.0,0.0,0.0,133.91785,76.607666,21.253052
1768033120370,-0.9794922,0.16552734,-0.16113281,-0.12207031,-0.12207031,0.0,0.0,0.0,0.0,133.91785,76.607666,21.253052
1768033120382,-0.9794922,0.16552734,-0.16113281,-0.12207031,-0.12207031,0.0,0.0,0.0,0.0,134.09912,76.5802,21.428833
1768033120470,-0.9770508,0.16503906,-0.15966797,0.061035156,-0.12207031,-0.30517578,0.0,0.0,0.0,134.09912,76.5802,21.428833
1768033120482,-0.9770508,0.16503906,-0.15966797,0.061035156,-0.12207031,-0.30517578,0.0,0.0,0.0,134.26392,76.5802,21.582642
1768033120570,-0.97753906,0.1616211,-0.16064453,0.79345703,-0.4272461,0.0,0.0,0.0,0.0,134.26392,76.5802,21.582642
1768033120582,-0.97753906,0.1616211,-0.16064453,0.79345703,-0.4272461,0.0,0.0,0.0,0.0,134.28589,76.58569,21.593628
1768033120670,-0.9716797,0.16552734,-0.15185547,0.6713867,-0.4272461,-0.24414062,0.0,0.0,0.0,134.28589,76.58569,21.593628
1768033120681,-0.9716797,0.16552734,-0.15185547,0.6713867,-0.4272461,-0.24414062,0.0,0.0,0.0,134.3628,76.5802,21.654053
1768033120769,-0.9794922,0.16308594,-0.15478516,-0.12207031,0.61035156,0.061035156,0.0,0.0,0.0,134.3628,76.5802,21.654053
1768033120781,-0.9794922,0.16308594,-0.15478516,-0.12207031,0.61035156,0.061035156,0.0,0.0,0.0,134.04968,76.62964,21.412354
1768033120869,-0.9794922,0.16259766,-0.1586914,-0.79345703,-1.159668,0.12207031,0.0,0.0,0.0,134.04968,76.62964,21.412354
1768033120881,-0.9794922,0.16259766,-0.1586914,-0.79345703,-1.159668,0.12207031,0.0,0.0,0.0,134.16504,76.63513,21.549683
1768033120969,-0.97753906,0.16015625,-0.15722656,-0.24414062,-0.061035156,0.36621094,0.0,0.0,0.0,134.16504,76.63513,21.549683
1768033120980,-0.97753906,0.16015625,-0.15722656,-0.24414062,-0.061035156,0.36621094,0.0,0.0,0.0,134.41772,76.607666,21.763916
1768033121068,-0.97558594,0.16308594,-0.15576172,0.4272461,0.79345703,0.061035156,0.0,0.0,0.0,134.41772,76.607666,21.763916
1768033121080,-0.97558594,0.16308594,-0.15576172,0.4272461,0.79345703,0.061035156,0.0,0.0,0.0,134.47266,76.58569,21.802368
1768033121168,-0.9760742,0.16259766,-0.15625,-0.061035156,0.0,0.18310547,0.0,0.0,0.0,134.47266,76.58569,21.802368
1768033121180,-0.9760742,0.16259766,-0.15625,-0.061035156,0.0,0.18310547,0.0,0.0,0.0,134.37927,76.57471,21.741943
1768033121268,-0.9741211,0.16357422,-0.15234375,-0.061035156,0.8544922,0.12207031,0.0,0.0,0.0,134.37927,76.57471,21.741943
1768033121279,-0.9741211,0.16357422,-0.15234375,-0.061035156,0.8544922,0.12207031,0.0,0.0,0.0,134.5166,76.536255,21.879272
1768033121368,-0.98095703,0.16308594,-0.16357422,-1.0375977,-0.18310547,0.061035156,0.0,0.0,0.0,134.5166,76.536255,21.879272
1768033121380,-0.98095703,0.16308594,-0.16357422,-1.0375977,-0.18310547,0.061035156,0.0,0.0,0.0,134.41223,76.55823,21.802368
1768033121467,-0.97509766,0.16552734,-0.15332031,0.0,0.30517578,0.0,0.0,0.0,0.0,134.41223,76.55823,21.802368
1768033121479,-0.97509766,0.16552734,-0.15332031,0.0,0.30517578,0.0,0.0,0.0,0.0,134.50562,76.53076,21.934204
1768033121567,-0.97509766,0.16308594,-0.15771484,0.61035156,0.91552734,-0.48828125,0.0,0.0,0.0,134.50562,76.53076,21.934204
1768033121579,-0.97509766,0.16308594,-0.15771484,0.61035156,0.91552734,-0.48828125,0.0,0.0,0.0,134.29688,76.552734,21.796875
1768033121667,-0.9770508,0.16259766,-0.15722656,0.0,0.0,0.0,0.0,0.0,0.0,134.29688,76.552734,21.796875
1768033121678,-0.9770508,0.16259766,-0.15722656,0.0,0.0,0.0,0.0,0.0,0.0,134.37378,76.55823,21.8573
1768033121766,-0.9770508,0.16552734,-0.15722656,-0.48828125,-0.24414062,0.24414062,0.0,0.0,0.0,134.37378,76.55823,21.8573
1768033121778,-0.9770508,0.16552734,-0.15722656,-0.48828125,-0.24414062,0.24414062,0.0,0.0,0.0,134.30237,76.56372,21.813354
1768033121866,-0.9765625,0.16259766,-0.15771484,-0.061035156,0.48828125,0.24414062,0.0,0.0,0.0,134.30237,76.56372,21.813354
1768033121878,-0.9765625,0.16259766,-0.15771484,-0.061035156,0.48828125,0.24414062,0.0,0.0,0.0,134.26941,76.55823,21.763916
1768033121966,-0.97558594,0.1665039,-0.15478516,0.0,-0.8544922,0.061035156,0.0,0.0,0.0,134.26941,76.55823,21.763916
1768033121978,-0.97558594,0.1665039,-0.15478516,0.0,-0.8544922,0.061035156,0.0,0.0,0.0,134.18701,76.59119,21.66504
1768033122066,-0.97314453,0.1616211,-0.15185547,0.9765625,1.6479492,-0.8544922,0.0,0.0,0.0,134.18701,76.59119,21.66504
1768033122077,-0.97314453,0.1616211,-0.15185547,0.9765625,1.6479492,-0.8544922,0.0,0.0,0.0,134.40125,76.5802,21.87378
1768033122165,-0.9848633,0.16503906,-0.16552734,-2.9296875,-1.4038086,0.0,0.0,0.0,0.0,134.40125,76.5802,21.87378
1768033122177,-0.9848633,0.16503906,-0.16552734,-2.9296875,-1.4038086,0.0,0.0,0.0,0.0,134.26941,76.657104,21.84082
1768033122265,-0.9785156,0.16503906,-0.15039062,0.61035156,0.12207031,0.18310547,0.0,0.0,0.0,134.26941,76.657104,21.84082
1768033122276,-0.9785156,0.16503906,-0.15039062,0.61035156,0.12207031,0.18310547,0.0,0.0,0.0,134.18152,76.62964,21.785889
1768033122365,-0.97802734,0.16748047,-0.15527344,0.7324219,0.24414062,0.0,0.0,0.0,0.0,134.18152,76.62964,21.785889
1768033122376,-0.97802734,0.16748047,-0.15527344,0.7324219,0.24414062,0.0,0.0,0.0,0.0,134.1211,76.65161,21.692505
1768033122464,-0.97802734,0.15820312,-0.16503906,0.6713867,-0.24414062,-0.061035156,0.0,0.0,0.0,134.1211,76.65161,21.692505
1768033122476,-0.97802734,0.15820312,-0.16503906,0.6713867,-0.24414062,-0.061035156,0.0,0.0,0.0,134.34631,76.62964,21.84082
1768033122564,-0.97509766,0.16210938,-0.15234375,-0.30517578,-1.4038086,-0.4272461,0.0,0.0,0.0,134.34631,76.62964,21.84082
1768033122576,-0.97509766,0.16210938,-0.15234375,-0.30517578,-1.4038086,-0.4272461,0.0,0.0,0.0,134.57703,76.63513,22.033081
1768033122664,-0.9736328,0.16503906,-0.14697266,-1.0986328,-0.24414062,-0.4272461,0.0,0.0,0.0,134.57703,76.63513,22.033081
1768033122675,-0.9736328,0.16503906,-0.14697266,-1.0986328,-0.24414062,-0.4272461,0.0,0.0,0.0,134.09363,76.73401,21.714478
1768033122764,-0.9794922,0.1640625,-0.15673828,0.24414062,-0.8544922,-0.36621094,0.0,0.0,0.0,134.09363,76.73401,21.714478
1768033122775,-0.9794922,0.1640625,-0.15673828,0.24414062,-0.8544922,-0.36621094,0.0,0.0,0.0,133.82996,76.8219,21.54419
1768033122864,-0.97802734,0.15771484,-0.15185547,-0.12207031,-0.91552734,-0.4272461,0.0,0.0,0.0,133.82996,76.8219,21.54419
1768033122875,-0.97802734,0.15771484,-0.15185547,-0.12207031,-0.91552734,-0.4272461,0.0,0.0,0.0,134.00024,76.88782,21.659546
1768033122963,-0.97998047,0.1586914,-0.14794922,0.79345703,0.36621094,-1.3427734,0.0,0.0,0.0,134.00024,76.88782,21.659546
1768033122975,-0.97998047,0.1586914,-0.14794922,0.79345703,0.36621094,-1.3427734,0.0,0.0,0.0,134.14307,77.003174,21.763916
1768033123063,-0.9794922,0.15771484,-0.14892578,1.6479492,-0.61035156,-1.159668,0.0,0.0,0.0,134.14307,77.003174,21.763916
1768033123074,-0.9794922,0.15771484,-0.14892578,1.6479492,-0.61035156,-1.159668,0.0,0.0,0.0,134.67041,77.08008,22.263794
1768033123162,-0.9765625,0.15576172,-0.14746094,0.9765625,-0.6713867,-1.2207031,0.0,0.0,0.0,134.67041,77.08008,22.263794
1768033123174,-0.9765625,0.15576172,-0.14746094,0.9765625,-0.6713867,-1.2207031,0.0,0.0,0.0,134.93408,77.18994,22.510986
1768033123263,-0.9848633,0.15625,-0.15429688,2.1362305,-0.61035156,-0.18310547,0.0,0.0,0.0,134.93408,77.18994,22.510986
1768033123274,-0.9848633,0.15625,-0.15429688,2.1362305,-0.61035156,-0.18310547,0.0,0.0,0.0,134.81323,77.316284,22.37915
1768033123362,-0.9765625,0.15039062,-0.14990234,2.6855469,-0.24414062,-0.4272461,0.0,0.0,0.0,134.81323,77.316284,22.37915
1768033123374,-0.9765625,0.15039062,-0.14990234,2.6855469,-0.24414062,-0.4272461,0.0,0.0,0.0,135.41199,77.32727,22.697754
1768033123462,-0.9794922,0.15283203,-0.15332031,2.4414062,-2.0141602,0.061035156,0.0,0.0,0.0,135.41199,77.32727,22.697754
1768033123473,-0.9794922,0.15283203,-0.15332031,2.4414062,-2.0141602,0.061035156,0.0,0.0,0.0,135.28564,77.404175,22.37915
1768033123561,-0.98291016,0.14746094,-0.1538086,3.7231445,0.48828125,0.061035156,0.0,0.0,0.0,135.28564,77.404175,22.37915
1768033123574,-0.98291016,0.14746094,-0.1538086,3.7231445,0.48828125,0.061035156,0.0,0.0,0.0,134.98901,77.44263,21.807861
1768033123661,-0.9760742,0.14746094,-0.14941406,2.1972656,-1.0375977,1.3427734,0.0,0.0,0.0,134.98901,77.44263,21.807861
1768033123673,-0.9760742,0.14746094,-0.14941406,2.1972656,-1.0375977,1.3427734,0.0,0.0,0.0,135.1648,77.39868,21.593628
1768033123761,-0.98095703,0.14794922,-0.14257812,2.5024414,-0.12207031,1.3427734,0.0,0.0,0.0,135.1648,77.39868,21.593628
1768033123772,-0.98095703,0.14794922,-0.14257812,2.5024414,-0.12207031,1.3427734,0.0,0.0,0.0,134.81873,77.39319,20.857544
1768033123860,-0.9814453,0.15478516,-0.13623047,1.5258789,0.061035156,1.2207031,0.0,0.0,0.0,134.81873,77.39319,20.857544
1768033123872,-0.9814453,0.15478516,-0.13623047,1.5258789,0.061035156,1.2207031,0.0,0.0,0.0,134.41223,77.36572,20.24231
1768033123960,-0.98095703,0.1508789,-0.14990234,0.61035156,0.0,1.0986328,0.0,0.0,0.0,134.41223,77.36572,20.24231
1768033123971,-0.98095703,0.1508789,-0.14990234,0.61035156,0.0,1.0986328,0.0,0.0,0.0,133.86292,77.35474,19.572144
1768033124060,-0.97802734,0.1508789,-0.14257812,0.0,0.36621094,0.79345703,0.0,0.0,0.0,133.86292,77.35474,19.572144
1768033124071,-0.97802734,0.1508789,-0.14257812,0.0,0.36621094,0.79345703,0.0,0.0,0.0,133.78601,77.27234,19.440308
1768033124159,-0.98046875,0.15527344,-0.14697266,-0.18310547,1.159668,-0.12207031,0.0,0.0,0.0,133.78601,77.27234,19.440308
1768033124171,-0.98046875,0.15527344,-0.14697266,-0.18310547,1.159668,-0.12207031,0.0,0.0,0.0,133.86292,77.23938,19.500732
1768033124259,-0.98046875,0.15771484,-0.14550781,-1.8920898,-1.0986328,-0.24414062,0.0,0.0,0.0,133.86292,77.23938,19.500732
1768033124271,-0.98046875,0.15771484,-0.14550781,-1.8920898,-1.0986328,-0.24414062,0.0,0.0,0.0,134.02222,77.27234,19.720459
1768033124359,-0.98046875,0.15771484,-0.14648438,0.36621094,-0.30517578,-0.8544922,0.0,0.0,0.0,134.02222,77.27234,19.720459
1768033124370,-0.98046875,0.15771484,-0.14648438,0.36621094,-0.30517578,-0.8544922,0.0,0.0,0.0,134.07715,77.35474,19.80835
1768033124459,-0.9785156,0.15527344,-0.14208984,-0.061035156,-1.2207031,-0.4272461,0.0,0.0,0.0,134.07715,77.35474,19.80835
1768033124470,-0.9785156,0.15527344,-0.14208984,-0.061035156,-1.2207031,-0.4272461,0.0,0.0,0.0,134.07166,77.48108,19.79187
1768033124558,-0.9765625,0.1538086,-0.140625,0.61035156,0.0,-0.61035156,0.0,0.0,0.0,134.07166,77.48108,19.79187
1768033124570,-0.9765625,0.1538086,-0.140625,0.61035156,0.0,-0.61035156,0.0,0.0,0.0,133.84094,77.579956,19.577637
1768033124658,-0.9838867,0.15283203,-0.14257812,-0.36621094,-1.2817383,-0.61035156,0.0,0.0,0.0,133.84094,77.579956,19.577637
1768033124670,-0.9838867,0.15283203,-0.14257812,-0.36621094,-1.2817383,-0.61035156,0.0,0.0,0.0,133.62671,77.68982,19.368896
1768033124758,-0.9790039,0.15039062,-0.13867188,0.0,-0.30517578,-0.48828125,0.0,0.0,0.0,133.62671,77.68982,19.368896
1768033124769,-0.9790039,0.15039062,-0.13867188,0.0,-0.30517578,-0.48828125,0.0,0.0,0.0,133.89587,77.74475,19.621582
1768033124857,-0.9819336,0.14892578,-0.13964844,-0.24414062,-0.12207031,-0.061035156,0.0,0.0,0.0,133.89587,77.74475,19.621582
1768033124869,-0.9819336,0.14892578,-0.13964844,-0.24414062,-0.12207031,-0.061035156,0.0,0.0,0.0,133.98926,77.77771,19.720459
1768033124957,-0.9848633,0.14941406,-0.14404297,0.8544922,-0.061035156,0.0,0.0,0.0,0.0,133.98926,77.77771,19.720459
1768033124969,-0.9848633,0.14941406,-0.14404297,0.8544922,-0.061035156,0.0,0.0,0.0,0.0,133.9563,77.7832,19.709473
1768033125057,-0.9814453,0.1508789,-0.13769531,0.30517578,-0.24414062,0.18310547,0.0,0.0,0.0,133.9563,77.7832,19.709473
1768033125068,-0.9814453,0.1508789,-0.13769531,0.30517578,-0.24414062,0.18310547,0.0,0.0,0.0,134.01123,77.76123,19.731445
1768033125157,-0.98291016,0.1484375,-0.14160156,-0.5493164,0.6713867,0.7324219,0.0,0.0,0.0,134.01123,77.76123,19.731445
1768033125168,-0.98291016,0.1484375,-0.14160156,-0.5493164,0.6713867,0.7324219,0.0,0.0,0.0,133.78601,77.72827,19.555664
1768033125256,-0.97998047,0.14990234,-0.14404297,-0.36621094,0.30517578,0.7324219,0.0,0.0,0.0,133.78601,77.72827,19.555664
1768033125268,-0.97998047,0.14990234,-0.14404297,-0.36621094,0.30517578,0.7324219,0.0,0.0,0.0,133.97278,77.629395,19.758911
1768033125356,-0.9824219,0.14990234,-0.14697266,-0.24414062,1.2207031,0.79345703,0.0,0.0,0.0,133.97278,77.629395,19.758911
1768033125368,-0.9824219,0.14990234,-0.14697266,-0.24414062,1.2207031,0.79345703,0.0,0.0,0.0,134.14307,77.53601,19.945679
1768033125456,-0.9794922,0.1538086,-0.1430664,0.4272461,0.5493164,0.18310547,0.0,0.0,0.0,134.14307,77.53601,19.945679
1768033125483,-0.9794922,0.1538086,-0.1430664,0.4272461,0.5493164,0.18310547,0.0,0.0,0.0,134.25842,77.45911,20.066528
1768033125555,-0.9790039,0.15283203,-0.1484375,1.0375977,-0.12207031,0.30517578,0.0,0.0,0.0,134.25842,77.45911,20.066528
1768033125567,-0.9790039,0.15283203,-0.1484375,1.0375977,-0.12207031,0.30517578,0.0,0.0,0.0,134.18152,77.44263,19.973145
1768033125655,-0.9765625,0.15039062,-0.1459961,0.24414062,-0.18310547,0.12207031,0.0,0.0,0.0,134.18152,77.44263,19.973145
1768033125667,-0.9765625,0.15039062,-0.1459961,0.24414062,-0.18310547,0.12207031,0.0,0.0,0.0,134.18152,77.42615,19.91272
1768033125755,-0.98339844,0.15820312,-0.14746094,-0.6713867,-0.79345703,1.0375977,0.0,0.0,0.0,134.18152,77.42615,19.91272
1768033125766,-0.98339844,0.15820312,-0.14746094,-0.6713867,-0.79345703,1.0375977,0.0,0.0,0.0,133.85742,77.44263,19.627075
1768033125855,-0.9814453,0.15673828,-0.14697266,0.24414062,0.12207031,0.4272461,0.0,0.0,0.0,133.85742,77.44263,19.627075
1768033125866,-0.9814453,0.15673828,-0.14697266,0.24414062,0.12207031,0.4272461,0.0,0.0,0.0,133.7091,77.404175,19.46228
1768033125954,-0.98095703,0.15625,-0.15039062,0.4272461,0.24414062,0.18310547,0.0,0.0,0.0,133.7091,77.404175,19.46228
1768033125966,-0.98095703,0.15625,-0.15039062,0.4272461,0.24414062,0.18310547,0.0,0.0,0.0,133.7146,77.34924,19.46228
1768033126054,-0.9790039,0.15625,-0.14550781,0.6713867,1.0986328,0.30517578,0.0,0.0,0.0,133.7146,77.34924,19.46228
1768033126066,-0.9790039,0.15625,-0.14550781,0.6713867,1.0986328,0.30517578,0.0,0.0,0.0,133.69263,77.29431,19.407349
1768033126154,-0.9790039,0.15625,-0.14648438,-0.18310547,0.30517578,0.4272461,0.0,0.0,0.0,133.69263,77.29431,19.407349
1768033126165,-0.9790039,0.15625,-0.14648438,-0.18310547,0.30517578,0.4272461,0.0,0.0,0.0,133.70361,77.23938,19.418335
1768033126253,-0.9819336,0.15917969,-0.14013672,-0.91552734,0.79345703,0.4272461,0.0,0.0,0.0,133.70361,77.23938,19.418335
1768033126265,-0.9819336,0.15917969,-0.14013672,-0.91552734,0.79345703,0.4272461,0.0,0.0,0.0,133.77502,77.20642,19.489746
1768033126353,-0.9785156,0.16210938,-0.15283203,-0.30517578,0.79345703,-0.061035156,0.0,0.0,0.0,133.77502,77.20642,19.489746
1768033126365,-0.9785156,0.16210938,-0.15283203,-0.30517578,0.79345703,-0.061035156,0.0,0.0,0.0,133.68713,77.20642,19.4458
1768033126453,-0.9785156,0.16015625,-0.15136719,0.30517578,0.18310547,-0.12207031,0.0,0.0,0.0,133.68713,77.20642,19.4458
1768033126465,-0.9785156,0.16015625,-0.15136719,0.30517578,0.18310547,-0.12207031,0.0,0.0,0.0,133.74756,77.162476,19.555664
1768033126553,-0.9741211,0.1586914,-0.14746094,0.0,1.2817383,-0.24414062,0.0,0.0,0.0,133.74756,77.162476,19.555664
1768033126564,-0.9741211,0.1586914,-0.14746094,0.0,1.2817383,-0.24414062,0.0,0.0,0.0,133.80249,77.12952,19.682007
1768033126652,-0.97998047,0.15917969,-0.1508789,0.061035156,0.24414062,-0.18310547,0.0,0.0,0.0,133.80249,77.12952,19.682007
1768033126664,-0.97998047,0.15917969,-0.1508789,0.061035156,0.24414062,-0.18310547,0.0,0.0,0.0,133.7915,77.13501,19.725952
1768033126752,-0.97802734,0.1586914,-0.14892578,-0.91552734,-0.6713867,0.30517578,0.0,0.0,0.0,133.7915,77.13501,19.725952
1768033126763,-0.97802734,0.1586914,-0.14892578,-0.91552734,-0.6713867,0.30517578,0.0,0.0,0.0,133.99475,77.107544,19.934692
1768033126852,-0.9819336,0.16015625,-0.15771484,0.12207031,-0.061035156,-0.061035156,0.0,0.0,0.0,133.99475,77.107544,19.934692
1768033126863,-0.9819336,0.16015625,-0.15771484,0.12207031,-0.061035156,-0.061035156,0.0,0.0,0.0,133.90686,77.11853,19.852295
1768033126951,-0.97558594,0.1616211,-0.14257812,0.79345703,-0.91552734,-0.18310547,0.0,0.0,0.0,133.90686,77.11853,19.852295
1768033126963,-0.97558594,0.1616211,-0.14257812,0.79345703,-0.91552734,-0.18310547,0.0,0.0,0.0,133.9563,77.107544,19.868774
1768033127051,-0.9794922,0.15820312,-0.14697266,0.6713867,0.6713867,0.0,0.0,0.0,0.0,133.9563,77.107544,19.868774
1768033127063,-0.9794922,0.15820312,-0.14697266,0.6713867,0.6713867,0.0,0.0,0.0,0.0,133.4674,77.18994,19.418335
1768033127151,-0.98095703,0.15820312,-0.14892578,-0.5493164,-0.9765625,0.30517578,0.0,0.0,0.0,133.4674,77.18994,19.418335
1768033127162,-0.98095703,0.15820312,-0.14892578,-0.5493164,-0.9765625,0.30517578,0.0,0.0,0.0,133.48389,77.17346,19.412842
1768033127251,-0.9794922,0.15576172,-0.14697266,0.0,0.12207031,0.48828125,0.0,0.0,0.0,133.48389,77.17346,19.412842
1768033127262,-0.9794922,0.15576172,-0.14697266,0.0,0.12207031,0.48828125,0.0,0.0,0.0,133.51685,77.162476,19.440308
1768033127350,-0.9814453,0.15771484,-0.14404297,-0.061035156,0.24414062,0.36621094,0.0,0.0,0.0,133.51685,77.162476,19.440308
1768033127362,-0.9814453,0.15771484,-0.14404297,-0.061035156,0.24414062,0.36621094,0.0,0.0,0.0,133.48938,77.13501,19.407349
1768033127450,-0.9892578,0.15966797,-0.15429688,0.9765625,-1.159668,0.5493164,0.0,0.0,0.0,133.48938,77.13501,19.407349
1768033127461,-0.9892578,0.15966797,-0.15429688,0.9765625,-1.159668,0.5493164,0.0,0.0,0.0,133.34106,77.12402,19.23706
1768033127550,-0.9682617,0.16113281,-0.14794922,1.159668,0.0,-0.30517578,0.0,0.0,0.0,133.34106,77.12402,19.23706
1768033127561,-0.9682617,0.16113281,-0.14794922,1.159668,0.0,-0.30517578,0.0,0.0,0.0,133.29712,77.09656,19.11621
1768033127649,-0.98535156,0.16113281,-0.15673828,-1.0375977,0.6713867,0.0,0.0,0.0,0.0,133.29712,77.09656,19.11621
1768033127661,-0.98535156,0.16113281,-0.15673828,-1.0375977,0.6713867,0.0,0.0,0.0,0.0,132.91809,77.15698,18.786621
1768033127749,-0.9897461,0.1586914,-0.16699219,-2.9907227,0.79345703,0.18310547,0.0,0.0,0.0,132.91809,77.15698,18.786621
1768033127761,-0.9897461,0.1586914,-0.16699219,-2.9907227,0.79345703,0.18310547,0.0,0.0,0.0,133.26416,77.08008,19.215088
1768033127849,-0.96728516,0.16894531,-0.12792969,0.7324219,5.1879883,-1.2817383,0.0,0.0,0.0,133.26416,77.08008,19.215088
1768033127860,-0.96728516,0.16894531,-0.12792969,0.7324219,5.1879883,-1.2817383,0.0,0.0,0.0,134.66492,76.7395,20.808105
1768033127949,-0.99121094,0.1586914,-0.16308594,1.8920898,-0.79345703,0.18310547,0.0,0.0,0.0,134.66492,76.7395,20.808105
1768033127960,-0.99121094,0.1586914,-0.16308594,1.8920898,-0.79345703,0.18310547,0.0,0.0,0.0,133.70361,76.87683,19.940186
1768033128048,-0.9663086,0.15283203,-0.14453125,-1.8310547,-0.4272461,2.9907227,0.0,0.0,0.0,133.70361,76.87683,19.940186
1768033128060,-0.9663086,0.15283203,-0.14453125,-1.8310547,-0.4272461,2.9907227,0.0,0.0,0.0,134.8407,76.60217,20.967407
1768033128148,-0.9770508,0.16845703,-0.15478516,-3.479004,2.746582,2.8076172,0.0,0.0,0.0,134.8407,76.60217,20.967407
1768033128160,-0.9770508,0.16845703,-0.15478516,-3.479004,2.746582,2.8076172,0.0,0.0,0.0,133.88489,76.40442,20.192871
1768033128248,-0.96972656,0.1743164,-0.15332031,-2.5024414,0.12207031,0.9765625,0.0,0.0,0.0,133.88489,76.40442,20.192871
1768033128259,-0.96972656,0.1743164,-0.15332031,-2.5024414,0.12207031,0.9765625,0.0,0.0,0.0,132.94556,76.34949,19.49524
1768033128347,-0.97265625,0.18017578,-0.15185547,-2.2583008,1.7089844,0.061035156,0.0,0.0,0.0,132.94556,76.34949,19.49524
1768033128359,-0.97265625,0.18017578,-0.15185547,-2.2583008,1.7089844,0.061035156,0.0,0.0,0.0,132.48962,76.28357,19.264526
1768033128447,-0.9794922,0.1796875,-0.14160156,-0.6713867,2.2583008,0.79345703,0.0,0.0,0.0,132.48962,76.28357,19.264526
1768033128459,-0.9794922,0.1796875,-0.14160156,-0.6713867,2.2583008,0.79345703,0.0,0.0,0.0,133.43445,76.11328,20.308228
1768033128547,-0.98291016,0.15966797,-0.15673828,-1.4038086,-3.112793,-1.0986328,0.0,0.0,0.0,133.43445,76.11328,20.308228
1768033128558,-0.98291016,0.15966797,-0.15673828,-1.4038086,-3.112793,-1.0986328,0.0,0.0,0.0,133.99475,76.21216,20.791626
1768033128647,-0.98046875,0.16699219,-0.18945312,-3.2348633,-3.3569336,-0.36621094,0.0,0.0,0.0,133.99475,76.21216,20.791626
1768033128658,-0.98046875,0.16699219,-0.18945312,-3.2348633,-3.3569336,-0.36621094,0.0,0.0,0.0,132.5061,76.89331,19.171143
1768033128746,-0.9785156,0.17822266,-0.14990234,3.3569336,-2.5634766,0.6713867,0.0,0.0,0.0,132.5061,76.89331,19.171143
1768033128758,-0.9785156,0.17822266,-0.14990234,3.3569336,-2.5634766,0.6713867,0.0,0.0,0.0,133.1543,76.86035,19.55017
1768033128846,-0.96972656,0.15771484,-0.171875,7.2631836,2.8686523,2.319336,0.0,0.0,0.0,133.1543,76.86035,19.55017
1768033128857,-0.96972656,0.15771484,-0.171875,7.2631836,2.8686523,2.319336,0.0,0.0,0.0,133.3905,76.68457,19.242554
1768033128946,-0.9814453,0.16894531,-0.1694336,5.6762695,-4.0893555,4.211426,0.0,0.0,0.0,133.3905,76.68457,19.242554
1768033128957,-0.9814453,0.16894531,-0.1694336,5.6762695,-4.0893555,4.211426,0.0,0.0,0.0,133.4674,76.239624,18.830566
1768033129046,-0.99853516,0.17382812,-0.13769531,-2.5634766,6.4697266,1.7089844,0.0,0.0,0.0,133.4674,76.239624,18.830566
1768033129058,-0.99853516,0.17382812,-0.13769531,-2.5634766,6.4697266,1.7089844,0.0,0.0,0.0,133.51685,75.84961,18.83606
1768033129145,-0.9736328,0.18164062,-0.1665039,-2.746582,1.159668,-1.2817383,0.0,0.0,0.0,133.51685,75.84961,18.83606
1768033129157,-0.9736328,0.18164062,-0.1665039,-2.746582,1.159668,-1.2817383,0.0,0.0,0.0,133.41797,75.805664,19.220581
1768033129245,-0.96484375,0.16210938,-0.171875,-0.36621094,1.4648438,-0.7324219,0.0,0.0,0.0,133.41797,75.805664,19.220581
1768033129256,-0.96484375,0.16210938,-0.171875,-0.36621094,1.4648438,-0.7324219,0.0,0.0,0.0,134.58252,75.79468,20.489502
1768033129345,-0.96777344,0.17773438,-0.17529297,1.5258789,0.4272461,0.7324219,0.0,0.0,0.0,134.58252,75.79468,20.489502
1768033129356,-0.96777344,0.17773438,-0.17529297,1.5258789,0.4272461,0.7324219,0.0,0.0,0.0,133.97827,75.81665,19.934692
1768033129444,-0.97216797,0.17822266,-0.15625,1.8310547,-2.1972656,0.30517578,0.0,0.0,0.0,133.97827,75.81665,19.934692
1768033129456,-0.97216797,0.17822266,-0.15625,1.8310547,-2.1972656,0.30517578,0.0,0.0,0.0,133.99475,75.78369,19.682007
1768033129544,-0.97998047,0.17919922,-0.16455078,1.3427734,-0.30517578,-0.7324219,0.0,0.0,0.0,133.99475,75.78369,19.682007
1768033129556,-0.97998047,0.17919922,-0.16455078,1.3427734,-0.30517578,-0.7324219,0.0,0.0,0.0,133.74207,75.877075,19.34143
1768033129644,-0.97802734,0.17382812,-0.1616211,0.9765625,1.8920898,-0.9765625,0.0,0.0,0.0,133.74207,75.877075,19.34143
1768033129655,-0.97802734,0.17382812,-0.1616211,0.9765625,1.8920898,-0.9765625,0.0,0.0,0.0,134.09363,75.88806,19.714966
1768033129743,-0.9711914,0.16552734,-0.17089844,-0.61035156,0.4272461,-0.18310547,0.0,0.0,0.0,134.09363,75.88806,19.714966
1768033129755,-0.9711914,0.16552734,-0.17089844,-0.61035156,0.4272461,-0.18310547,0.0,0.0,0.0,134.46716,75.83313,20.203857
1768033129843,-0.9707031,0.17822266,-0.16699219,-0.5493164,0.8544922,0.7324219,0.0,0.0,0.0,134.46716,75.83313,20.203857
1768033129855,-0.9707031,0.17822266,-0.16699219,-0.5493164,0.8544922,0.7324219,0.0,0.0,0.0,134.20898,75.74524,20.050049
1768033129943,-0.97021484,0.17285156,-0.17236328,0.9765625,-1.4038086,-1.0986328,0.0,0.0,0.0,134.20898,75.74524,20.050049
1768033129954,-0.97021484,0.17285156,-0.17236328,0.9765625,-1.4038086,-1.0986328,0.0,0.0,0.0,133.8739,75.80017,19.67102
1768033130043,-0.96777344,0.18115234,-0.14111328,-1.3427734,-0.9765625,3.112793,0.0,0.0,0.0,133.8739,75.80017,19.67102
1768033130054,-0.96777344,0.18115234,-0.14111328,-1.3427734,-0.9765625,3.112793,0.0,0.0,0.0,133.92883,75.81116,19.80835
1768033130142,-0.97509766,0.16601562,-0.16992188,5.432129,0.8544922,-4.638672,0.0,0.0,0.0,133.92883,75.81116,19.80835
1768033130154,-0.97509766,0.16601562,-0.16992188,5.432129,0.8544922,-4.638672,0.0,0.0,0.0,133.56628,75.981445,19.127197
1768033130242,-0.9663086,0.18798828,-0.15673828,-2.8686523,-2.6245117,2.2583008,0.0,0.0,0.0,133.56628,75.981445,19.127197
1768033130254,-0.9663086,0.18798828,-0.15673828,-2.8686523,-2.6245117,2.2583008,0.0,0.0,0.0,133.74207,76.03638,19.368896
1768033130342,-0.96435547,0.14648438,-0.15820312,4.0893555,2.5024414,-2.0141602,0.0,0.0,0.0,133.74207,76.03638,19.368896
1768033130354,-0.96435547,0.14648438,-0.15820312,4.0893555,2.5024414,-2.0141602,0.0,0.0,0.0,134.54956,76.11328,19.80835
1768033130442,-0.98046875,0.17578125,-0.1586914,1.0375977,-1.3427734,0.36621094,0.0,0.0,0.0,134.54956,76.11328,19.80835
1768033130454,-0.98046875,0.17578125,-0.1586914,1.0375977,-1.3427734,0.36621094,0.0,0.0,0.0,133.51685,76.190186,18.896484
1768033130541,-0.97509766,0.16992188,-0.15722656,-1.2817383,-1.3427734,1.159668,0.0,0.0,0.0,133.51685,76.190186,18.896484
1768033130553,-0.97509766,0.16992188,-0.15722656,-1.2817383,-1.3427734,1.159668,0.0,0.0,0.0,133.74207,76.173706,18.90747
1768033130641,-0.9682617,0.17529297,-0.15332031,2.6855469,1.6479492,-0.8544922,0.0,0.0,0.0,133.74207,76.173706,18.90747
1768033130653,-0.9682617,0.17529297,-0.15332031,2.6855469,1.6479492,-0.8544922,0.0,0.0,0.0,133.74207,76.16272,18.874512
1768033130741,-0.96533203,0.16992188,-0.1538086,-1.4648438,-2.1362305,1.0375977,0.0,0.0,0.0,133.74207,76.16272,18.874512
1768033130752,-0.96533203,0.16992188,-0.1538086,-1.4648438,-2.1362305,1.0375977,0.0,0.0,0.0,133.52234,76.28357,18.550415
1768033130840,-0.97509766,0.16845703,-0.14453125,-1.2207031,-4.760742,1.4648438,0.0,0.0,0.0,133.52234,76.28357,18.550415
1768033130852,-0.97509766,0.16845703,-0.14453125,-1.2207031,-4.760742,1.4648438,0.0,0.0,0.0,132.36877,76.51428,17.29248
1768033130940,-0.98535156,0.16357422,-0.15332031,-2.746582,-7.507324,0.79345703,0.0,0.0,0.0,132.36877,76.51428,17.29248
1768033130952,-0.98535156,0.16357422,-0.15332031,-2.746582,-7.507324,0.79345703,0.0,0.0,0.0,131.2976,76.865845,15.919189
1768033131040,-0.96435547,0.1743164,-0.111816406,2.319336,-2.1972656,-0.9765625,0.0,0.0,0.0,131.2976,76.865845,15.919189
1768033131051,-0.96435547,0.1743164,-0.111816406,2.319336,-2.1972656,-0.9765625,0.0,0.0,0.0,129.32007,77.195435,14.002075
1768033131139,-0.9941406,0.14794922,-0.13720703,0.7324219,-4.333496,-1.5258789,0.0,0.0,0.0,129.32007,77.195435,14.002075
1768033131151,-0.9941406,0.14794922,-0.13720703,0.7324219,-4.333496,-1.5258789,0.0,0.0,0.0,127.194214,77.72827,11.57959
1768033131239,-0.9604492,0.18310547,-0.075683594,-1.0375977,4.1503906,1.4038086,0.0,0.0,0.0,127.194214,77.72827,11.57959
1768033131251,-0.9604492,0.18310547,-0.075683594,-1.0375977,4.1503906,1.4038086,0.0,0.0,0.0,128.04565,77.58545,12.3376465
1768033131339,-0.9824219,0.1508789,-0.123535156,0.0,1.8310547,1.0986328,0.0,0.0,0.0,128.04565,77.58545,12.3376465
1768033131350,-0.9824219,0.1508789,-0.123535156,0.0,1.8310547,1.0986328,0.0,0.0,0.0,127.67212,77.65137,11.876221
1768033131439,-0.96972656,0.17480469,-0.106933594,-5.432129,4.638672,2.6245117,0.0,0.0,0.0,127.67212,77.65137,11.876221
1768033131450,-0.96972656,0.17480469,-0.106933594,-5.432129,4.638672,2.6245117,0.0,0.0,0.0,128.70483,77.3053,13.216553
1768033131538,-1.0131836,0.17041016,-0.15332031,-3.1738281,-1.2207031,1.5869141,0.0,0.0,0.0,128.70483,77.3053,13.216553
1768033131550,-1.0131836,0.17041016,-0.15332031,-3.1738281,-1.2207031,1.5869141,0.0,0.0,0.0,128.86963,77.24487,13.469238
1768033131638,-0.9663086,0.18945312,-0.14550781,1.8920898,-1.7089844,1.4038086,0.0,0.0,0.0,128.86963,77.24487,13.469238
1768033131650,-0.9663086,0.18945312,-0.14550781,1.8920898,-1.7089844,1.4038086,0.0,0.0,0.0,128.63892,77.15698,13.309937
1768033131738,-0.97802734,0.16015625,-0.115234375,3.6010742,9.338379,0.061035156,0.0,0.0,0.0,128.63892,77.15698,13.309937
1768033131749,-0.97802734,0.16015625,-0.115234375,3.6010742,9.338379,0.061035156,0.0,0.0,0.0,130.1001,76.77246,14.452515
1768033131838,-0.99853516,0.16699219,-0.16845703,-9.70459,-1.7089844,2.5634766,0.0,0.0,0.0,130.1001,76.77246,14.452515
1768033131849,-0.99853516,0.16699219,-0.16845703,-9.70459,-1.7089844,2.5634766,0.0,0.0,0.0,130.3363,76.71753,14.80957
1768033131937,-0.9667969,0.18066406,-0.1381836,6.225586,-0.8544922,-2.319336,0.0,0.0,0.0,130.3363,76.71753,14.80957
1768033131949,-0.9667969,0.18066406,-0.1381836,6.225586,-0.8544922,-2.319336,0.0,0.0,0.0,131.96777,76.30554,16.64978
1768033132037,-0.96240234,0.17138672,-0.1538086,0.7324219,1.0986328,-1.2207031,0.0,0.0,0.0,131.96777,76.30554,16.64978
1768033132049,-0.96240234,0.17138672,-0.1538086,0.7324219,1.0986328,-1.2207031,0.0,0.0,0.0,130.77576,76.49231,15.699463
1768033132137,-0.98339844,0.1772461,-0.14111328,0.061035156,-1.953125,0.4272461,0.0,0.0,0.0,130.77576,76.49231,15.699463
1768033132148,-0.98339844,0.1772461,-0.14111328,0.061035156,-1.953125,0.4272461,0.0,0.0,0.0,131.21521,76.44287,16.166382
1768033132236,-0.9707031,0.16845703,-0.14648438,0.061035156,1.5258789,1.3427734,0.0,0.0,0.0,131.21521,76.44287,16.166382
1768033132248,-0.9707031,0.16845703,-0.14648438,0.061035156,1.5258789,1.3427734,0.0,0.0,0.0,131.41846,76.28906,16.314697
1768033132336,-0.97509766,0.19482422,-0.14550781,-1.3427734,2.5634766,1.2207031,0.0,0.0,0.0,131.41846,76.28906,16.314697
1768033132348,-0.97509766,0.19482422,-0.14550781,-1.3427734,2.5634766,1.2207031,0.0,0.0,0.0,130.74829,76.14075,15.831299
1768033132436,-0.97509766,0.1772461,-0.1538086,0.18310547,-1.7700195,0.0,0.0,0.0,0.0,130.74829,76.14075,15.831299
1768033132448,-0.97509766,0.1772461,-0.1538086,0.18310547,-1.7700195,0.0,0.0,0.0,0.0,130.79773,76.14075,15.913696
1768033132536,-0.9707031,0.17041016,-0.14697266,1.953125,0.61035156,-0.4272461,0.0,0.0,0.0,130.79773,76.14075,15.913696
1768033132548,-0.9707031,0.17041016,-0.14697266,1.953125,0.61035156,-0.4272461,0.0,0.0,0.0,131.19324,76.10779,16.210327
1768033132635,-0.9838867,0.18066406,-0.14501953,-1.2817383,-0.18310547,1.7089844,0.0,0.0,0.0,131.19324,76.10779,16.210327
1768033132647,-0.9838867,0.18066406,-0.14501953,-1.2817383,-0.18310547,1.7089844,0.0,0.0,0.0,130.63843,76.11328,15.682983
1768033132735,-0.96728516,0.18310547,-0.1508789,0.8544922,1.4648438,-0.79345703,0.0,0.0,0.0,130.63843,76.11328,15.682983
1768033132747,-0.96728516,0.18310547,-0.1508789,0.8544922,1.4648438,-0.79345703,0.0,0.0,0.0,131.26465,76.014404,16.298218
1768033132835,-0.98535156,0.1772461,-0.17236328,-0.61035156,-0.12207031,-0.48828125,0.0,0.0,0.0,131.26465,76.014404,16.298218
1768033132847,-0.98535156,0.1772461,-0.17236328,-0.61035156,-0.12207031,-0.48828125,0.0,0.0,0.0,131.29211,76.05835,16.430054
1768033132934,-0.97314453,0.18408203,-0.15478516,-1.159668,0.36621094,0.12207031,0.0,0.0,0.0,131.29211,76.05835,16.430054
1768033132947,-0.97314453,0.18408203,-0.15478516,-1.159668,0.36621094,0.12207031,0.0,0.0,0.0,131.48438,75.97595,16.715698
1768033133034,-0.9716797,0.17773438,-0.15917969,1.0986328,-0.12207031,0.18310547,0.0,0.0,0.0,131.48438,75.97595,16.715698
1768033133046,-0.9716797,0.17773438,-0.15917969,1.0986328,-0.12207031,0.18310547,0.0,0.0,0.0,131.47339,75.97595,16.68274
1768033133134,-0.97802734,0.1796875,-0.15966797,1.2817383,0.0,0.12207031,0.0,0.0,0.0,131.47339,75.97595,16.68274
1768033133145,-0.97802734,0.1796875,-0.15966797,1.2817383,0.0,0.12207031,0.0,0.0,0.0,131.42395,75.94849,16.556396
1768033133234,-0.9760742,0.18359375,-0.15283203,0.0,0.0,0.4272461,0.0,0.0,0.0,131.42395,75.94849,16.556396
1768033133245,-0.9760742,0.18359375,-0.15283203,0.0,0.0,0.4272461,0.0,0.0,0.0,131.38,75.91553,16.506958
1768033133333,-0.97753906,0.17871094,-0.16113281,-0.5493164,-0.8544922,0.12207031,0.0,0.0,0.0,131.38,75.91553,16.506958
1768033133345,-0.97753906,0.17871094,-0.16113281,-0.5493164,-0.8544922,0.12207031,0.0,0.0,0.0,131.48438,75.93201,16.594849
1768033133433,-0.9741211,0.17773438,-0.15478516,0.0,0.4272461,-0.30517578,0.0,0.0,0.0,131.48438,75.93201,16.594849
1768033133445,-0.9741211,0.17773438,-0.15478516,0.0,0.4272461,-0.30517578,0.0,0.0,0.0,131.57227,75.94849,16.693726
1768033133533,-0.9760742,0.17773438,-0.15673828,-0.061035156,-0.12207031,-0.5493164,0.0,0.0,0.0,131.57227,75.94849,16.693726
1768033133544,-0.9760742,0.17773438,-0.15673828,-0.061035156,-0.12207031,-0.5493164,0.0,0.0,0.0,131.4624,76.04187,16.583862
1768033133633,-0.9785156,0.17578125,-0.15966797,0.61035156,-0.9765625,-0.6713867,0.0,0.0,0.0,131.4624,76.04187,16.583862
1768033133644,-0.9785156,0.17578125,-0.15966797,0.61035156,-0.9765625,-0.6713867,0.0,0.0,0.0,131.63269,76.07483,16.75415
1768033133732,-0.97509766,0.17480469,-0.15478516,-0.7324219,0.061035156,-1.2207031,0.0,0.0,0.0,131.63269,76.07483,16.75415
1768033133744,-0.97509766,0.17480469,-0.15478516,-0.7324219,0.061035156,-1.2207031,0.0,0.0,0.0,132.06665,76.12976,17.20459
1768033133832,-0.9770508,0.1665039,-0.15283203,-1.4648438,0.6713867,-1.4038086,0.0,0.0,0.0,132.06665,76.12976,17.20459
1768033133843,-0.9770508,0.1665039,-0.15283203,-1.4648438,0.6713867,-1.4038086,0.0,0.0,0.0,132.19849,76.239624,17.512207
1768033133932,-0.97753906,0.17675781,-0.15185547,-1.8920898,-0.48828125,-0.5493164,0.0,0.0,0.0,132.19849,76.239624,17.512207
1768033133943,-0.97753906,0.17675781,-0.15185547,-1.8920898,-0.48828125,-0.5493164,0.0,0.0,0.0,132.38525,76.28357,17.913208
1768033134031,-0.9819336,0.1743164,-0.15966797,-2.2583008,1.5869141,0.061035156,0.0,0.0,0.0,132.38525,76.28357,17.913208
1768033134043,-0.9819336,0.1743164,-0.15966797,-2.2583008,1.5869141,0.061035156,0.0,0.0,0.0,132.47864,76.31653,18.171387
1768033134132,-0.97314453,0.171875,-0.16015625,-1.3427734,0.9765625,-0.24414062,0.0,0.0,0.0,132.47864,76.31653,18.171387
1768033134143,-0.97314453,0.171875,-0.16015625,-1.3427734,0.9765625,-0.24414062,0.0,0.0,0.0,132.85217,76.2616,18.649292
1768033134231,-0.9692383,0.18457031,-0.16015625,0.5493164,-0.061035156,0.12207031,0.0,0.0,0.0,132.85217,76.2616,18.649292
1768033134242,-0.9692383,0.18457031,-0.16015625,0.5493164,-0.061035156,0.12207031,0.0,0.0,0.0,132.94006,76.21216,18.85254
1768033134331,-0.99560547,0.17138672,-0.1694336,0.30517578,-1.7089844,0.061035156,0.0,0.0,0.0,132.94006,76.21216,18.85254
1768033134342,-0.99560547,0.17138672,-0.1694336,0.30517578,-1.7089844,0.061035156,0.0,0.0,0.0,132.9895,76.15723,18.901978
1768033134430,-0.9638672,0.16064453,-0.1508789,0.0,2.8686523,-2.0751953,0.0,0.0,0.0,132.9895,76.15723,18.901978
1768033134442,-0.9638672,0.16064453,-0.1508789,0.0,2.8686523,-2.0751953,0.0,0.0,0.0,133.29712,76.1792,19.25354
1768033134530,-0.9838867,0.1743164,-0.16601562,-1.5869141,-2.319336,-0.7324219,0.0,0.0,0.0,133.29712,76.1792,19.25354
1768033134541,-0.9838867,0.1743164,-0.16601562,-1.5869141,-2.319336,-0.7324219,0.0,0.0,0.0,133.1543,76.32202,19.308472
1768033134630,-0.9707031,0.16796875,-0.15478516,-0.24414062,0.0,-0.7324219,0.0,0.0,0.0,133.1543,76.32202,19.308472
1768033134641,-0.9707031,0.16796875,-0.15478516,-0.24414062,0.0,-0.7324219,0.0,0.0,0.0,133.68164,76.34949,19.868774
1768033134729,-0.9711914,0.17041016,-0.1538086,-0.36621094,0.36621094,-0.7324219,0.0,0.0,0.0,133.68164,76.34949,19.868774
1768033134741,-0.9711914,0.17041016,-0.1538086,-0.36621094,0.36621094,-0.7324219,0.0,0.0,0.0,133.86841,76.431885,20.12146
1768033134829,-0.98095703,0.15722656,-0.16210938,-0.12207031,-0.48828125,-0.4272461,0.0,0.0,0.0,133.86841,76.431885,20.12146
1768033134841,-0.98095703,0.15722656,-0.16210938,-0.12207031,-0.48828125,-0.4272461,0.0,0.0,0.0,133.74207,76.519775,20.03357
1768033134929,-0.9765625,0.1640625,-0.15185547,-1.4648438,-1.0986328,0.24414062,0.0,0.0,0.0,133.74207,76.519775,20.03357
1768033134940,-0.9765625,0.1640625,-0.15185547,-1.4648438,-1.0986328,0.24414062,0.0,0.0,0.0,133.8794,76.54175,20.143433
1768033135029,-0.9716797,0.17919922,-0.15429688,0.4272461,1.8310547,0.30517578,0.0,0.0,0.0,133.8794,76.54175,20.143433
1768033135040,-0.9716797,0.17919922,-0.15429688,0.4272461,1.8310547,0.30517578,0.0,0.0,0.0,133.75305,76.51428,20.083008
1768033135128,-0.9790039,0.17138672,-0.16210938,0.91552734,0.48828125,0.12207031,0.0,0.0,0.0,133.75305,76.51428,20.083008
1768033135140,-0.9790039,0.17138672,-0.16210938,0.91552734,0.48828125,0.12207031,0.0,0.0,0.0,134.02222,76.42639,20.324707
1768033135228,-0.98046875,0.15136719,-0.15625,2.0751953,-0.24414062,-0.61035156,0.0,0.0,0.0,134.02222,76.42639,20.324707
1768033135240,-0.98046875,0.15136719,-0.15625,2.0751953,-0.24414062,-0.61035156,0.0,0.0,0.0,134.64844,76.38794,20.775146
1768033135328,-0.9736328,0.16015625,-0.1508789,0.6713867,-0.061035156,-0.6713867,0.0,0.0,0.0,134.64844,76.38794,20.775146
1768033135339,-0.9736328,0.16015625,-0.1508789,0.6713867,-0.061035156,-0.6713867,0.0,0.0,0.0,134.95605,76.4978,20.923462
1768033135428,-0.97802734,0.16015625,-0.15771484,0.6713867,-0.61035156,0.36621094,0.0,0.0,0.0,134.95605,76.4978,20.923462
1768033135439,-0.97802734,0.16015625,-0.15771484,0.6713867,-0.61035156,0.36621094,0.0,0.0,0.0,134.70337,76.607666,20.577393
1768033135527,-0.97558594,0.16259766,-0.15478516,-0.5493164,-0.61035156,0.91552734,0.0,0.0,0.0,134.70337,76.607666,20.577393
1768033135539,-0.97558594,0.16259766,-0.15478516,-0.5493164,-0.61035156,0.91552734,0.0,0.0,0.0,134.4397,76.640625,20.231323
1768033135627,-0.97753906,0.1640625,-0.15429688,0.061035156,0.18310547,1.0986328,0.0,0.0,0.0,134.4397,76.640625,20.231323
1768033135638,-0.97753906,0.1640625,-0.15429688,0.061035156,0.18310547,1.0986328,0.0,0.0,0.0,134.16504,76.59668,19.918213
1768033135727,-0.9794922,0.16699219,-0.1538086,-0.18310547,0.9765625,1.4648438,0.0,0.0,0.0,134.16504,76.59668,19.918213
1768033135738,-0.9794922,0.16699219,-0.1538086,-0.18310547,0.9765625,1.4648438,0.0,0.0,0.0,133.84644,76.503296,19.577637
1768033135826,-0.97753906,0.17041016,-0.1586914,0.12207031,0.36621094,1.2207031,0.0,0.0,0.0,133.84644,76.503296,19.577637
1768033135838,-0.97753906,0.17041016,-0.1586914,0.12207031,0.36621094,1.2207031,0.0,0.0,0.0,133.7091,76.37146,19.412842
1768033135926,-0.97558594,0.16845703,-0.15478516,0.061035156,0.6713867,0.7324219,0.0,0.0,0.0,133.7091,76.37146,19.412842
1768033135938,-0.97558594,0.16845703,-0.15478516,0.061035156,0.6713867,0.7324219,0.0,0.0,0.0,133.68713,76.26709,19.352417
1768033136026,-0.9760742,0.16845703,-0.15625,0.24414062,0.5493164,0.48828125,0.0,0.0,0.0,133.68713,76.26709,19.352417
1768033136038,-0.9760742,0.16845703,-0.15625,0.24414062,0.5493164,0.48828125,0.0,0.0,0.0,133.58276,76.23413,19.198608
1768033136126,-0.97314453,0.17138672,-0.15673828,-0.61035156,-0.4272461,0.0,0.0,0.0,0.0,133.58276,76.23413,19.198608
1768033136137,-0.97314453,0.17138672,-0.15673828,-0.61035156,-0.4272461,0.0,0.0,0.0,0.0,133.46191,76.2561,19.066772
1768033136225,-0.97314453,0.16845703,-0.1538086,0.18310547,0.061035156,-0.36621094,0.0,0.0,0.0,133.46191,76.2561,19.066772
1768033136237,-0.97314453,0.16845703,-0.1538086,0.18310547,0.061035156,-0.36621094,0.0,0.0,0.0,133.53333,76.278076,19.143677
1768033136325,-0.98095703,0.1665039,-0.16210938,-0.91552734,0.6713867,-0.18310547,0.0,0.0,0.0,133.53333,76.278076,19.143677
1768033136337,-0.98095703,0.1665039,-0.16210938,-0.91552734,0.6713867,-0.18310547,0.0,0.0,0.0,133.4674,76.33301,19.105225
1768033136425,-0.9760742,0.16894531,-0.15673828,-1.2207031,-0.4272461,-0.061035156,0.0,0.0,0.0,133.4674,76.33301,19.105225
1768033136436,-0.9760742,0.16894531,-0.15673828,-1.2207031,-0.4272461,-0.061035156,0.0,0.0,0.0,133.68713,76.3385,19.368896
1768033136524,-0.97265625,0.1665039,-0.15185547,0.0,0.0,-0.30517578,0.0,0.0,0.0,133.68713,76.3385,19.368896
1768033136536,-0.97265625,0.1665039,-0.15185547,0.0,0.0,-0.30517578,0.0,0.0,0.0,133.80798,76.34949,19.522705
1768033136624,-0.9770508,0.1665039,-0.1616211,0.9765625,0.4272461,-0.18310547,0.0,0.0,0.0,133.80798,76.34949,19.522705
1768033136636,-0.9770508,0.1665039,-0.1616211,0.9765625,0.4272461,-0.18310547,0.0,0.0,0.0,133.62671,76.39343,19.379883
1768033136724,-0.9741211,0.16699219,-0.15722656,0.30517578,-1.5869141,-0.061035156,0.0,0.0,0.0,133.62671,76.39343,19.379883
1768033136736,-0.9741211,0.16699219,-0.15722656,0.30517578,-1.5869141,-0.061035156,0.0,0.0,0.0,133.69263,76.40991,19.396362
1768033136824,-0.9760742,0.1665039,-0.15185547,0.24414062,0.36621094,0.18310547,0.0,0.0,0.0,133.69263,76.40991,19.396362
1768033136835,-0.9760742,0.1665039,-0.15185547,0.24414062,0.36621094,0.18310547,0.0,0.0,0.0,133.69263,76.415405,19.39087
1768033136923,-0.9814453,0.16748047,-0.15966797,-0.4272461,-0.5493164,0.061035156,0.0,0.0,0.0,133.69263,76.415405,19.39087
1768033136935,-0.9814453,0.16748047,-0.15966797,-0.4272461,-0.5493164,0.061035156,0.0,0.0,0.0,133.57178,76.448364,19.291992
1768033137023,-0.97802734,0.16845703,-0.15771484,0.0,-0.61035156,0.12207031,0.0,0.0,0.0,133.57178,76.448364,19.291992
1768033137035,-0.97802734,0.16845703,-0.15771484,0.0,-0.61035156,0.12207031,0.0,0.0,0.0,133.6377,76.43738,19.35791
1768033137123,-0.9765625,0.17041016,-0.15820312,0.36621094,1.3427734,0.0,0.0,0.0,0.0,133.6377,76.43738,19.35791
1768033137134,-0.9765625,0.17041016,-0.15820312,0.36621094,1.3427734,0.0,0.0,0.0,0.0,133.36304,76.44287,19.110718
1768033137223,-0.9765625,0.16894531,-0.15673828,-0.61035156,-0.9765625,0.4272461,0.0,0.0,0.0,133.36304,76.44287,19.110718
1768033137234,-0.9765625,0.16894531,-0.15673828,-0.61035156,-0.9765625,0.4272461,0.0,0.0,0.0,133.26416,76.448364,19.017334
1768033137322,-0.9736328,0.16503906,-0.14990234,0.48828125,0.24414062,-0.12207031,0.0,0.0,0.0,133.26416,76.448364,19.017334
1768033137334,-0.9736328,0.16503906,-0.14990234,0.48828125,0.24414062,-0.12207031,0.0,0.0,0.0,133.36853,76.45935,19.006348
1768033137422,-0.98095703,0.16992188,-0.1586914,-0.5493164,-1.4038086,-0.30517578,0.0,0.0,0.0,133.36853,76.45935,19.006348
1768033137433,-0.98095703,0.16992188,-0.1586914,-0.5493164,-1.4038086,-0.30517578,0.0,0.0,0.0,133.13232,76.569214,18.737183
1768033137522,-0.9736328,0.1665039,-0.14794922,1.5869141,-0.12207031,-0.61035156,0.0,0.0,0.0,133.13232,76.569214,18.737183
1768033137534,-0.9736328,0.1665039,-0.14794922,1.5869141,-0.12207031,-0.61035156,0.0,0.0,0.0,133.33008,76.59119,18.863525
1768033137621,-0.97558594,0.16357422,-0.14990234,1.159668,0.61035156,-0.36621094,0.0,0.0,0.0,133.33008,76.59119,18.863525
1768033137633,-0.97558594,0.16357422,-0.14990234,1.159668,0.61035156,-0.36621094,0.0,0.0,0.0,133.06091,76.68457,18.572388
1768033137721,-0.97998047,0.16699219,-0.15234375,0.0,-0.79345703,0.24414062,0.0,0.0,0.0,133.06091,76.68457,18.572388
1768033137732,-0.97998047,0.16699219,-0.15234375,0.0,-0.79345703,0.24414062,0.0,0.0,0.0,132.8247,76.72302,18.336182
1768033137821,-0.9746094,0.16455078,-0.14697266,-0.061035156,-0.8544922,0.30517578,0.0,0.0,0.0,132.8247,76.72302,18.336182
1768033137832,-0.9746094,0.16455078,-0.14697266,-0.061035156,-0.8544922,0.30517578,0.0,0.0,0.0,132.9071,76.70654,18.358154
1768033137920,-0.98046875,0.16552734,-0.15429688,1.0986328,-0.4272461,0.12207031,0.0,0.0,0.0,132.9071,76.70654,18.358154
1768033137932,-0.98046875,0.16552734,-0.15429688,1.0986328,-0.4272461,0.12207031,0.0,0.0,0.0,132.62146,76.761475,18.006592
1768033138020,-0.97802734,0.16845703,-0.1459961,0.61035156,-1.0375977,0.30517578,0.0,0.0,0.0,132.62146,76.761475,18.006592
1768033138032,-0.97802734,0.16845703,-0.1459961,0.61035156,-1.0375977,0.30517578,0.0,0.0,0.0,132.57202,76.76697,17.874756
1768033138120,-0.97753906,0.16601562,-0.14404297,0.061035156,0.36621094,0.30517578,0.0,0.0,0.0,132.57202,76.76697,17.874756
1768033138131,-0.97753906,0.16601562,-0.14404297,0.061035156,0.36621094,0.30517578,0.0,0.0,0.0,132.33582,76.76697,17.65503
1768033138220,-0.97753906,0.16455078,-0.1484375,-0.8544922,-0.24414062,0.61035156,0.0,0.0,0.0,132.33582,76.76697,17.65503
1768033138231,-0.97753906,0.16455078,-0.1484375,-0.8544922,-0.24414062,0.61035156,0.0,0.0,0.0,132.25342,76.7395,17.600098
1768033138319,-0.9790039,0.16601562,-0.14990234,-0.91552734,-0.91552734,0.6713867,0.0,0.0,0.0,132.25342,76.7395,17.600098
1768033138331,-0.9790039,0.16601562,-0.14990234,-0.91552734,-0.91552734,0.6713867,0.0,0.0,0.0,132.06665,76.75049,17.457275
1768033138419,-0.97802734,0.16699219,-0.14648438,0.061035156,0.61035156,0.061035156,0.0,0.0,0.0,132.06665,76.75049,17.457275
1768033138431,-0.97802734,0.16699219,-0.14648438,0.061035156,0.61035156,0.061035156,0.0,0.0,0.0,131.96777,76.7395,17.369385
1768033138519,-0.97753906,0.16748047,-0.14746094,0.061035156,0.0,0.0,0.0,0.0,0.0,131.96777,76.7395,17.369385
1768033138530,-0.97753906,0.16748047,-0.14746094,0.061035156,0.0,0.0,0.0,0.0,0.0,131.91833,76.7395,17.336426
1768033138619,-0.9760742,0.16503906,-0.14501953,0.61035156,0.12207031,-0.12207031,0.0,0.0,0.0,131.91833,76.7395,17.336426
1768033138630,-0.9760742,0.16503906,-0.14501953,0.61035156,0.12207031,-0.12207031,0.0,0.0,0.0,132.05017,76.728516,17.42981
1768033138718,-0.9794922,0.17236328,-0.15039062,0.061035156,-0.12207031,-0.48828125,0.0,0.0,0.0,132.05017,76.728516,17.42981
1768033138730,-0.9794922,0.17236328,-0.15039062,0.061035156,-0.12207031,-0.48828125,0.0,0.0,0.0,132.09412,76.761475,17.479248
1768033138818,-0.9770508,0.16552734,-0.14648438,0.18310547,0.30517578,-0.12207031,0.0,0.0,0.0,132.09412,76.761475,17.479248
1768033138830,-0.9770508,0.16552734,-0.14648438,0.18310547,0.30517578,-0.12207031,0.0,0.0,0.0,132.12158,76.77246,17.545166
1768033138918,-0.97558594,0.16357422,-0.15039062,0.061035156,0.48828125,-0.4272461,0.0,0.0,0.0,132.12158,76.77246,17.545166
1768033138929,-0.97558594,0.16357422,-0.15039062,0.061035156,0.48828125,-0.4272461,0.0,0.0,0.0,132.12708,76.777954,17.60559
1768033139017,-0.9770508,0.1694336,-0.14746094,0.36621094,0.30517578,-0.18310547,0.0,0.0,0.0,132.12708,76.777954,17.60559
1768033139029,-0.9770508,0.1694336,-0.14746094,0.36621094,0.30517578,-0.18310547,0.0,0.0,0.0,132.20398,76.777954,17.687988
1768033139117,-0.97802734,0.1665039,-0.14697266,0.12207031,-0.061035156,-0.12207031,0.0,0.0,0.0,132.20398,76.777954,17.687988
1768033139129,-0.97802734,0.1665039,-0.14697266,0.12207031,-0.061035156,-0.12207031,0.0,0.0,0.0,132.28088,76.79993,17.748413
1768033139217,-0.97998047,0.1665039,-0.14892578,0.24414062,-0.12207031,-0.061035156,0.0,0.0,0.0,132.28088,76.79993,17.748413
1768033139229,-0.97998047,0.1665039,-0.14892578,0.24414062,-0.12207031,-0.061035156,0.0,0.0,0.0,132.28638,76.82739,17.72644
1768033139317,-0.9790039,0.16748047,-0.14404297,-0.4272461,-0.91552734,0.24414062,0.0,0.0,0.0,132.28638,76.82739,17.72644
1768033139328,-0.9790039,0.16748047,-0.14404297,-0.4272461,-0.91552734,0.24414062,0.0,0.0,0.0,132.19849,76.86035,17.62207
1768033139416,-0.9765625,0.16796875,-0.14648438,0.18310547,0.4272461,0.18310547,0.0,0.0,0.0,132.19849,76.86035,17.62207
1768033139428,-0.9765625,0.16796875,-0.14648438,0.18310547,0.4272461,0.18310547,0.0,0.0,0.0,132.05566,76.85486,17.512207
1768033139516,-0.9790039,0.16796875,-0.14746094,-0.061035156,0.48828125,0.30517578,0.0,0.0,0.0,132.05566,76.85486,17.512207
1768033139527,-0.9790039,0.16796875,-0.14746094,-0.061035156,0.48828125,0.30517578,0.0,0.0,0.0,132.07214,76.82739,17.512207
1768033139616,-0.9814453,0.1640625,-0.14892578,0.18310547,0.061035156,0.48828125,0.0,0.0,0.0,132.07214,76.82739,17.512207
1768033139627,-0.9814453,0.1640625,-0.14892578,0.18310547,0.061035156,0.48828125,0.0,0.0,0.0,132.193,76.78894,17.589111
1768033139715,-0.9736328,0.16796875,-0.14013672,0.8544922,-0.30517578,0.30517578,0.0,0.0,0.0,132.193,76.78894,17.589111
1768033139728,-0.9736328,0.16796875,-0.14013672,0.8544922,-0.30517578,0.30517578,0.0,0.0,0.0,132.37427,76.75049,17.698975
1768033139815,-0.9824219,0.16894531,-0.14697266,0.8544922,-0.061035156,0.61035156,0.0,0.0,0.0,132.37427,76.75049,17.698975
1768033139827,-0.9824219,0.16894531,-0.14697266,0.8544922,-0.061035156,0.61035156,0.0,0.0,0.0,131.95679,76.77246,17.243042
1768033139915,-0.9746094,0.16748047,-0.14257812,-0.36621094,0.36621094,0.36621094,0.0,0.0,0.0,131.95679,76.77246,17.243042
1768033139926,-0.9746094,0.16748047,-0.14257812,-0.36621094,0.36621094,0.36621094,0.0,0.0,0.0,131.79749,76.73401,17.06726
1768033140015,-0.9790039,0.16992188,-0.15234375,-1.159668,0.30517578,-0.24414062,0.0,0.0,0.0,131.79749,76.73401,17.06726
1768033140026,-0.9790039,0.16992188,-0.15234375,-1.159668,0.30517578,-0.24414062,0.0,0.0,0.0,131.66565,76.7395,17.006836
1768033140114,-0.97216797,0.171875,-0.14892578,0.9765625,0.7324219,-0.24414062,0.0,0.0,0.0,131.66565,76.7395,17.006836
1768033140126,-0.97216797,0.171875,-0.14892578,0.9765625,0.7324219,-0.24414062,0.0,0.0,0.0,131.9458,76.69556,17.336426
1768033140214,-0.97753906,0.16601562,-0.15429688,2.1972656,2.1362305,-0.48828125,0.0,0.0,0.0,131.9458,76.69556,17.336426
1768033140225,-0.97753906,0.16601562,-0.15429688,2.1972656,2.1362305,-0.48828125,0.0,0.0,0.0,132.29187,76.6626,17.616577
1768033140314,-0.9760742,0.16552734,-0.14892578,1.7089844,1.0375977,-0.30517578,0.0,0.0,0.0,132.29187,76.6626,17.616577
1768033140325,-0.9760742,0.16552734,-0.14892578,1.7089844,1.0375977,-0.30517578,0.0,0.0,0.0,133.05542,76.57471,18.226318
1768033140414,-0.97314453,0.16113281,-0.14697266,0.0,-0.48828125,-0.12207031,0.0,0.0,0.0,133.05542,76.57471,18.226318
1768033140425,-0.97314453,0.16113281,-0.14697266,0.0,-0.48828125,-0.12207031,0.0,0.0,0.0,133.32458,76.57471,18.446045
1768033140513,-0.98046875,0.16259766,-0.1538086,-0.24414062,-1.8920898,-0.24414062,0.0,0.0,0.0,133.32458,76.57471,18.446045
1768033140525,-0.98046875,0.16259766,-0.1538086,-0.24414062,-1.8920898,-0.24414062,0.0,0.0,0.0,132.94006,76.66809,18.127441
1768033140613,-0.9741211,0.17138672,-0.14941406,0.12207031,0.79345703,-0.4272461,0.0,0.0,0.0,132.94006,76.66809,18.127441
1768033140624,-0.9741211,0.17138672,-0.14941406,0.12207031,0.79345703,-0.4272461,0.0,0.0,0.0,132.67639,76.71753,17.913208
1768033140713,-0.9819336,0.16748047,-0.15576172,-0.5493164,-0.6713867,-0.18310547,0.0,0.0,0.0,132.67639,76.71753,17.913208
1768033140724,-0.9819336,0.16748047,-0.15576172,-0.5493164,-0.6713867,-0.18310547,0.0,0.0,0.0,132.47314,76.77246,17.731934
1768033140812,-0.9765625,0.16259766,-0.1459961,-0.12207031,-1.0375977,-0.4272461,0.0,0.0,0.0,132.47314,76.77246,17.731934
1768033140824,-0.9765625,0.16259766,-0.1459961,-0.12207031,-1.0375977,-0.4272461,0.0,0.0,0.0,132.70386,76.78894,17.962646
1768033140912,-0.98095703,0.16015625,-0.15283203,0.0,0.48828125,-1.0375977,0.0,0.0,0.0,132.70386,76.78894,17.962646
1768033140924,-0.98095703,0.16015625,-0.15283203,0.0,0.48828125,-1.0375977,0.0,0.0,0.0,132.79175,76.85486,18.083496
1768033141012,-0.9746094,0.1665039,-0.15039062,-0.61035156,1.4648438,-0.4272461,0.0,0.0,0.0,132.79175,76.85486,18.083496
1768033141024,-0.9746094,0.1665039,-0.15039062,-0.61035156,1.4648438,-0.4272461,0.0,0.0,0.0,133.00049,76.865845,18.363647
1768033141112,-0.9765625,0.17138672,-0.14697266,-0.36621094,-1.0986328,0.6713867,0.0,0.0,0.0,133.00049,76.865845,18.363647
1768033141123,-0.9765625,0.17138672,-0.14697266,-0.36621094,-1.0986328,0.6713867,0.0,0.0,0.0,132.74231,76.865845,18.19336
1768033141211,-0.9794922,0.16455078,-0.15625,0.061035156,0.12207031,0.61035156,0.0,0.0,0.0,132.74231,76.865845,18.19336
1768033141223,-0.9794922,0.16455078,-0.15625,0.061035156,0.12207031,0.61035156,0.0,0.0,0.0,132.4237,76.832886,17.86377
1768033141311,-0.9741211,0.16992188,-0.14355469,0.6713867,-0.48828125,0.61035156,0.0,0.0,0.0,132.4237,76.832886,17.86377
1768033141323,-0.9741211,0.16992188,-0.14355469,0.6713867,-0.48828125,0.61035156,0.0,0.0,0.0,132.45667,76.77246,17.803345
1768033141411,-0.9760742,0.16699219,-0.1459961,2.2583008,1.3427734,0.0,0.0,0.0,0.0,132.45667,76.77246,17.803345
1768033141422,-0.9760742,0.16699219,-0.1459961,2.2583008,1.3427734,0.0,0.0,0.0,0.0,132.38525,76.75598,17.63855
1768033141510,-0.98046875,0.16748047,-0.14990234,0.61035156,-0.24414062,0.36621094,0.0,0.0,0.0,132.38525,76.75598,17.63855
1768033141526,-0.98046875,0.16748047,-0.14990234,0.61035156,-0.24414062,0.36621094,0.0,0.0,0.0,132.33032,76.73401,17.506714
1768033141610,-0.98046875,0.16503906,-0.14941406,0.061035156,-1.0375977,0.7324219,0.0,0.0,0.0,132.33032,76.73401,17.506714
1768033141622,-0.98046875,0.16503906,-0.14941406,0.061035156,-1.0375977,0.7324219,0.0,0.0,0.0,132.4292,76.70105,17.523193
1768033141710,-0.97558594,0.16503906,-0.1459961,0.18310547,0.061035156,0.061035156,0.0,0.0,0.0,132.4292,76.70105,17.523193
1768033141721,-0.97558594,0.16503906,-0.1459961,0.18310547,0.061035156,0.061035156,0.0,0.0,0.0,132.40723,76.68457,17.468262
1768033141810,-0.9785156,0.16699219,-0.1508789,0.12207031,0.12207031,-0.061035156,0.0,0.0,0.0,132.40723,76.68457,17.468262
1768033141821,-0.9785156,0.16699219,-0.1508789,0.12207031,0.12207031,-0.061035156,0.0,0.0,0.0,132.17102,76.712036,17.286987
1768033141909,-0.9760742,0.16455078,-0.1459961,0.12207031,-0.5493164,-0.24414062,0.0,0.0,0.0,132.17102,76.712036,17.286987
1768033141921,-0.9760742,0.16455078,-0.1459961,0.12207031,-0.5493164,-0.24414062,0.0,0.0,0.0,132.20398,76.7395,17.314453
1768033142009,-0.9819336,0.16796875,-0.15039062,-0.5493164,-0.48828125,0.0,0.0,0.0,0.0,132.20398,76.7395,17.314453
1768033142021,-0.9819336,0.16796875,-0.15039062,-0.5493164,-0.48828125,0.0,0.0,0.0,0.0,132.15454,76.78894,17.29248
1768033142109,-0.97753906,0.1665039,-0.1484375,-0.30517578,0.061035156,-0.30517578,0.0,0.0,0.0,132.15454,76.78894,17.29248
1768033142120,-0.97753906,0.1665039,-0.1484375,-0.30517578,0.061035156,-0.30517578,0.0,0.0,0.0,132.20398,76.80542,17.380371
1768033142208,-0.97802734,0.16601562,-0.1508789,0.0,0.0,-0.48828125,0.0,0.0,0.0,132.20398,76.80542,17.380371
1768033142220,-0.97802734,0.16601562,-0.1508789,0.0,0.0,-0.48828125,0.0,0.0,0.0,132.19849,76.8219,17.435303
1768033142308,-0.97802734,0.16845703,-0.1459961,-0.061035156,0.48828125,0.0,0.0,0.0,0.0,132.19849,76.8219,17.435303
1768033142320,-0.97802734,0.16845703,-0.1459961,-0.061035156,0.48828125,0.0,0.0,0.0,0.0,132.08862,76.8219,17.369385
1768033142408,-0.9785156,0.16845703,-0.14746094,-0.48828125,-0.36621094,0.12207031,0.0,0.0,0.0,132.08862,76.8219,17.369385
1768033142419,-0.9785156,0.16845703,-0.14746094,-0.48828125,-0.36621094,0.12207031,0.0,0.0,0.0,131.95679,76.832886,17.29248
1768033142508,-0.9760742,0.16552734,-0.14648438,0.0,0.48828125,0.18310547,0.0,0.0,0.0,131.95679,76.832886,17.29248
1768033142519,-0.9760742,0.16552734,-0.14648438,0.0,0.48828125,0.18310547,0.0,0.0,0.0,132.01172,76.8219,17.336426
1768033142607,-0.9765625,0.16845703,-0.1459961,-0.36621094,0.12207031,0.18310547,0.0,0.0,0.0,132.01172,76.8219,17.336426
1768033142619,-0.9765625,0.16845703,-0.1459961,-0.36621094,0.12207031,0.18310547,0.0,0.0,0.0,131.96777,76.832886,17.286987
1768033142707,-0.9794922,0.17236328,-0.15234375,0.061035156,0.9765625,0.30517578,0.0,0.0,0.0,131.96777,76.832886,17.286987
1768033142719,-0.9794922,0.17236328,-0.15234375,0.061035156,0.9765625,0.30517578,0.0,0.0,0.0,132.03918,76.78345,17.380371
1768033142807,-0.9711914,0.1665039,-0.13769531,0.4272461,2.9907227,0.30517578,0.0,0.0,0.0,132.03918,76.78345,17.380371
1768033142818,-0.9711914,0.1665039,-0.13769531,0.4272461,2.9907227,0.30517578,0.0,0.0,0.0,132.33582,76.64612,17.687988
1768033142906,-0.9848633,0.16845703,-0.15234375,-1.0986328,-2.1972656,0.7324219,0.0,0.0,0.0,132.33582,76.64612,17.687988
1768033142918,-0.9848633,0.16845703,-0.15234375,-1.0986328,-2.1972656,0.7324219,0.0,0.0,0.0,132.08313,76.640625,17.50122
1768033143006,-0.9716797,0.16796875,-0.14404297,0.061035156,0.0,-0.36621094,0.0,0.0,0.0,132.08313,76.640625,17.50122
1768033143018,-0.9716797,0.16796875,-0.14404297,0.061035156,0.0,-0.36621094,0.0,0.0,0.0,132.40173,76.59668,17.803345
1768033143106,-0.97998047,0.1665039,-0.15478516,1.3427734,0.061035156,-0.5493164,0.0,0.0,0.0,132.40173,76.59668,17.803345
1768033143117,-0.97998047,0.1665039,-0.15478516,1.3427734,0.061035156,-0.5493164,0.0,0.0,0.0,132.0227,76.66809,17.506714
1768033143206,-0.97753906,0.16748047,-0.1484375,-0.30517578,-1.2817383,-0.4272461,0.0,0.0,0.0,132.0227,76.66809,17.506714
1768033143217,-0.97753906,0.16748047,-0.1484375,-0.30517578,-1.2817383,-0.4272461,0.0,0.0,0.0,132.182,76.71753,17.660522
1768033143305,-0.98046875,0.16699219,-0.14892578,-0.30517578,-1.0986328,0.0,0.0,0.0,0.0,132.182,76.71753,17.660522
1768033143317,-0.98046875,0.16699219,-0.14892578,-0.30517578,-1.0986328,0.0,0.0,0.0,0.0,132.09961,76.777954,17.63855
1768033143405,-0.9790039,0.16455078,-0.14941406,-0.12207031,0.48828125,-0.12207031,0.0,0.0,0.0,132.09961,76.777954,17.63855
1768033143416,-0.9790039,0.16455078,-0.14941406,-0.12207031,0.48828125,-0.12207031,0.0,0.0,0.0,132.11609,76.81091,17.666016
1768033143505,-0.9790039,0.16748047,-0.15039062,-0.30517578,-0.12207031,0.18310547,0.0,0.0,0.0,132.11609,76.81091,17.666016
1768033143516,-0.9790039,0.16748047,-0.15039062,-0.30517578,-0.12207031,0.18310547,0.0,0.0,0.0,132.14905,76.8219,17.70996
1768033143604,-0.97558594,0.16503906,-0.14453125,-0.12207031,0.0,0.12207031,0.0,0.0,0.0,132.14905,76.8219,17.70996
1768033143616,-0.97558594,0.16503906,-0.14453125,-0.12207031,0.0,0.12207031,0.0,0.0,0.0,132.12708,76.81091,17.682495
1768033143704,-0.9790039,0.16992188,-0.14941406,0.24414062,0.30517578,0.24414062,0.0,0.0,0.0,132.12708,76.81091,17.682495
1768033143716,-0.9790039,0.16992188,-0.14941406,0.24414062,0.30517578,0.24414062,0.0,0.0,0.0,131.80847,76.8219,17.41333
1768033143804,-0.9760742,0.16748047,-0.14257812,0.24414062,0.24414062,0.18310547,0.0,0.0,0.0,131.80847,76.8219,17.41333
1768033143815,-0.9760742,0.16748047,-0.14257812,0.24414062,0.24414062,0.18310547,0.0,0.0,0.0,131.89636,76.78894,17.418823
1768033143904,-0.9765625,0.17138672,-0.14550781,0.18310547,0.30517578,-0.18310547,0.0,0.0,0.0,131.89636,76.78894,17.418823
1768033143915,-0.9765625,0.17138672,-0.14550781,0.18310547,0.30517578,-0.18310547,0.0,0.0,0.0,131.84143,76.79443,17.341919
1768033144003,-0.9770508,0.16601562,-0.14746094,1.2207031,0.0,-0.24414062,0.0,0.0,0.0,131.84143,76.79443,17.341919
1768033144015,-0.9770508,0.16601562,-0.14746094,1.2207031,0.0,-0.24414062,0.0,0.0,0.0,131.87988,76.79443,17.363892
1768033144103,-0.9711914,0.16357422,-0.14160156,1.0986328,1.2817383,-0.36621094,0.0,0.0,0.0,131.87988,76.79443,17.363892
1768033144115,-0.9711914,0.16357422,-0.14160156,1.0986328,1.2817383,-0.36621094,0.0,0.0,0.0,131.8689,76.79443,17.347412
1768033144203,-0.9824219,0.16845703,-0.1508789,0.0,0.12207031,0.061035156,0.0,0.0,0.0,131.8689,76.79443,17.347412
1768033144214,-0.9824219,0.16845703,-0.1508789,0.0,0.12207031,0.061035156,0.0,0.0,0.0,131.68213,76.83838,17.155151
1768033144303,-0.9770508,0.16796875,-0.14355469,-0.30517578,-1.2207031,0.12207031,0.0,0.0,0.0,131.68213,76.83838,17.155151
1768033144314,-0.9770508,0.16796875,-0.14355469,-0.30517578,-1.2207031,0.12207031,0.0,0.0,0.0,131.97327,76.81641,17.39685
1768033144402,-0.9819336,0.16748047,-0.14941406,0.7324219,1.2207031,0.12207031,0.0,0.0,0.0,131.97327,76.81641,17.39685
1768033144414,-0.9819336,0.16748047,-0.14941406,0.7324219,1.2207031,0.12207031,0.0,0.0,0.0,131.87439,76.83838,17.248535
1768033144502,-0.97509766,0.16796875,-0.1430664,-0.4272461,-0.61035156,0.4272461,0.0,0.0,0.0,131.87439,76.83838,17.248535
1768033144514,-0.97509766,0.16796875,-0.1430664,-0.4272461,-0.61035156,0.4272461,0.0,0.0,0.0,132.07764,76.80542,17.385864
1768033144602,-0.97509766,0.16845703,-0.14111328,0.6713867,1.159668,0.12207031,0.0,0.0,0.0,132.07764,76.80542,17.385864
1768033144613,-0.97509766,0.16845703,-0.14111328,0.6713867,1.159668,0.12207031,0.0,0.0,0.0,131.9458,76.78345,17.286987
1768033144701,-0.98046875,0.16845703,-0.14941406,-0.30517578,-0.061035156,0.30517578,0.0,0.0,0.0,131.9458,76.78345,17.286987
1768033144713,-0.98046875,0.16845703,-0.14941406,-0.30517578,-0.061035156,0.30517578,0.0,0.0,0.0,131.76453,76.77246,17.144165
1768033144801,-0.97802734,0.16796875,-0.1484375,-0.48828125,-0.79345703,0.61035156,0.0,0.0,0.0,131.76453,76.77246,17.144165
1768033144813,-0.97802734,0.16796875,-0.1484375,-0.48828125,-0.79345703,0.61035156,0.0,0.0,0.0,131.80298,76.744995,17.182617
1768033144901,-0.97509766,0.16699219,-0.14453125,0.4272461,0.8544922,-0.061035156,0.0,0.0,0.0,131.80298,76.744995,17.182617
1768033144912,-0.97509766,0.16699219,-0.14453125,0.4272461,0.8544922,-0.061035156,0.0,0.0,0.0,131.84692,76.712036,17.226562
1768033145000,-0.9790039,0.16894531,-0.15234375,0.48828125,-0.18310547,0.0,0.0,0.0,0.0,131.84692,76.712036,17.226562
1768033145012,-0.9790039,0.16894531,-0.15234375,0.48828125,-0.18310547,0.0,0.0,0.0,0.0,131.59973,76.7395,17.034302
1768033145100,-0.9770508,0.16796875,-0.14697266,-0.061035156,-1.159668,-0.061035156,0.0,0.0,0.0,131.59973,76.7395,17.034302
1768033145112,-0.9770508,0.16796875,-0.14697266,-0.061035156,-1.159668,-0.061035156,0.0,0.0,0.0,131.68213,76.744995,17.094727
1768033145200,-0.9794922,0.16894531,-0.14550781,-0.79345703,-0.061035156,0.4272461,0.0,0.0,0.0,131.68213,76.744995,17.094727
1768033145212,-0.9794922,0.16894531,-0.14550781,-0.79345703,-0.061035156,0.4272461,0.0,0.0,0.0,131.58325,76.76697,17.050781
1768033145300,-0.9794922,0.16894531,-0.1484375,-0.6713867,-0.24414062,0.30517578,0.0,0.0,0.0,131.58325,76.76697,17.050781
1768033145311,-0.9794922,0.16894531,-0.1484375,-0.6713867,-0.24414062,0.30517578,0.0,0.0,0.0,131.5393,76.75598,17.050781
1768033145399,-0.9785156,0.16894531,-0.1508789,-0.061035156,0.30517578,0.24414062,0.0,0.0,0.0,131.5393,76.75598,17.050781
1768033145411,-0.9785156,0.16894531,-0.1508789,-0.061035156,0.30517578,0.24414062,0.0,0.0,0.0,131.61072,76.71753,17.166138
1768033145500,-0.9770508,0.16992188,-0.14697266,0.18310547,0.6713867,0.18310547,0.0,0.0,0.0,131.61072,76.71753,17.166138
1768033145511,-0.9770508,0.16992188,-0.14697266,0.18310547,0.6713867,0.18310547,0.0,0.0,0.0,131.57227,76.673584,17.138672
1768033145599,-0.9765625,0.17138672,-0.14892578,0.0,0.18310547,0.24414062,0.0,0.0,0.0,131.57227,76.673584,17.138672
1768033145610,-0.9765625,0.17138672,-0.14892578,0.0,0.18310547,0.24414062,0.0,0.0,0.0,131.52283,76.65161,17.1167
1768033145698,-0.9736328,0.16894531,-0.14355469,0.61035156,0.061035156,0.0,0.0,0.0,0.0,131.52283,76.65161,17.1167
1768033145710,-0.9736328,0.16894531,-0.14355469,0.61035156,0.061035156,0.0,0.0,0.0,0.0,131.63818,76.61865,17.18811
1768033145798,-0.97998047,0.17626953,-0.1508789,0.0,0.18310547,0.12207031,0.0,0.0,0.0,131.63818,76.61865,17.18811
1768033145810,-0.97998047,0.17626953,-0.1508789,0.0,0.18310547,0.12207031,0.0,0.0,0.0,131.48438,76.63513,17.06726
1768033145898,-0.97802734,0.1694336,-0.1508789,0.18310547,-0.4272461,0.0,0.0,0.0,0.0,131.48438,76.63513,17.06726
1768033145910,-0.97802734,0.1694336,-0.1508789,0.18310547,-0.4272461,0.0,0.0,0.0,0.0,131.42944,76.624146,17.023315
1768033145998,-0.97509766,0.16894531,-0.1484375,0.4272461,0.12207031,-0.4272461,0.0,0.0,0.0,131.42944,76.624146,17.023315
1768033146010,-0.97509766,0.16894531,-0.1484375,0.4272461,0.12207031,-0.4272461,0.0,0.0,0.0,131.48438,76.61865,17.094727
1768033146097,-0.9765625,0.17089844,-0.14794922,0.36621094,0.7324219,0.0,0.0,0.0,0.0,131.48438,76.61865,17.094727
1768033146109,-0.9765625,0.17089844,-0.14794922,0.36621094,0.7324219,0.0,0.0,0.0,0.0,131.45142,76.61316,17.061768
1768033146197,-0.97802734,0.171875,-0.14941406,-0.061035156,-0.12207031,0.18310547,0.0,0.0,0.0,131.45142,76.61316,17.061768
1768033146209,-0.97802734,0.171875,-0.14941406,-0.061035156,-0.12207031,0.18310547,0.0,0.0,0.0,131.40747,76.61865,17.017822
1768033146297,-0.9741211,0.17089844,-0.1430664,0.36621094,0.5493164,0.24414062,0.0,0.0,0.0,131.40747,76.61865,17.017822
1768033146308,-0.9741211,0.17089844,-0.1430664,0.36621094,0.5493164,0.24414062,0.0,0.0,0.0,131.52832,76.59668,17.08374
1768033146396,-0.9760742,0.17285156,-0.14697266,-0.12207031,0.24414062,0.0,0.0,0.0,0.0,131.52832,76.59668,17.08374
1768033146408,-0.9760742,0.17285156,-0.14697266,-0.12207031,0.24414062,0.0,0.0,0.0,0.0,131.36902,76.61865,16.924438
1768033146496,-0.9760742,0.171875,-0.14746094,0.48828125,-0.12207031,0.12207031,0.0,0.0,0.0,131.36902,76.61865,16.924438
1768033146508,-0.9760742,0.171875,-0.14746094,0.48828125,-0.12207031,0.12207031,0.0,0.0,0.0,131.33606,76.59668,16.902466
1768033146596,-0.9770508,0.17089844,-0.14404297,0.24414062,0.79345703,0.12207031,0.0,0.0,0.0,131.33606,76.59668,16.902466
1768033146607,-0.9770508,0.17089844,-0.14404297,0.24414062,0.79345703,0.12207031,0.0,0.0,0.0,131.29211,76.58569,16.875
1768033146696,-0.9785156,0.17382812,-0.14941406,0.48828125,0.36621094,0.061035156,0.0,0.0,0.0,131.29211,76.58569,16.875
1768033146707,-0.9785156,0.17382812,-0.14941406,0.48828125,0.36621094,0.061035156,0.0,0.0,0.0,131.31958,76.569214,16.896973
1768033146795,-0.9765625,0.171875,-0.1484375,0.0,-0.18310547,0.18310547,0.0,0.0,0.0,131.31958,76.569214,16.896973
1768033146807,-0.9765625,0.171875,-0.1484375,0.0,-0.18310547,0.18310547,0.0,0.0,0.0,131.40747,76.552734,16.96289
1768033146895,-0.9785156,0.17285156,-0.15039062,0.5493164,0.061035156,0.12207031,0.0,0.0,0.0,131.40747,76.552734,16.96289
1768033146907,-0.9785156,0.17285156,-0.15039062,0.5493164,0.061035156,0.12207031,0.0,0.0,0.0,131.41846,76.536255,16.951904
1768033146995,-0.97802734,0.1743164,-0.14746094,-0.18310547,-0.8544922,0.24414062,0.0,0.0,0.0,131.41846,76.536255,16.951904
1768033147006,-0.97802734,0.1743164,-0.14746094,-0.18310547,-0.8544922,0.24414062,0.0,0.0,0.0,131.32507,76.54724,16.847534
1768033147095,-0.97753906,0.17333984,-0.14404297,-0.12207031,0.18310547,0.18310547,0.0,0.0,0.0,131.32507,76.54724,16.847534
1768033147106,-0.97753906,0.17333984,-0.14404297,-0.12207031,0.18310547,0.18310547,0.0,0.0,0.0,131.18774,76.536255,16.77063
1768033147194,-0.97802734,0.17382812,-0.15234375,-0.18310547,0.18310547,0.18310547,0.0,0.0,0.0,131.18774,76.536255,16.77063
1768033147206,-0.97802734,0.17382812,-0.15234375,-0.18310547,0.18310547,0.18310547,0.0,0.0,0.0,131.17676,76.536255,16.75415
1768033147294,-0.97802734,0.17138672,-0.15234375,-0.24414062,-0.6713867,0.36621094,0.0,0.0,0.0,131.17676,76.536255,16.75415
1768033147306,-0.97802734,0.17138672,-0.15234375,-0.24414062,-0.6713867,0.36621094,0.0,0.0,0.0,131.21521,76.54175,16.743164
1768033147394,-0.9741211,0.17480469,-0.14404297,0.36621094,0.12207031,-0.12207031,0.0,0.0,0.0,131.21521,76.54175,16.743164
1768033147406,-0.9741211,0.17480469,-0.14404297,0.36621094,0.12207031,-0.12207031,0.0,0.0,0.0,131.28113,76.53076,16.77063
1768033147493,-0.9760742,0.17285156,-0.14990234,0.91552734,-0.061035156,-0.12207031,0.0,0.0,0.0,131.28113,76.53076,16.77063
1768033147505,-0.9760742,0.17285156,-0.14990234,0.91552734,-0.061035156,-0.12207031,0.0,0.0,0.0,131.18774,76.55823,16.671753
1768033147593,-0.97265625,0.16992188,-0.14160156,0.7324219,0.0,-0.36621094,0.0,0.0,0.0,131.18774,76.55823,16.671753
1768033147605,-0.97265625,0.16992188,-0.14160156,0.7324219,0.0,-0.36621094,0.0,0.0,0.0,131.3031,76.56372,16.743164
1768033147693,-0.9819336,0.17480469,-0.14892578,-0.36621094,-0.4272461,0.18310547,0.0,0.0,0.0,131.3031,76.56372,16.743164
1768033147704,-0.9819336,0.17480469,-0.14892578,-0.36621094,-0.4272461,0.18310547,0.0,0.0,0.0,131.05591,76.61865,16.534424
1768033147793,-0.97753906,0.16894531,-0.1484375,-0.4272461,-0.91552734,0.18310547,0.0,0.0,0.0,131.05591,76.61865,16.534424
1768033147804,-0.97753906,0.16894531,-0.1484375,-0.4272461,-0.91552734,0.18310547,0.0,0.0,0.0,131.16028,76.607666,16.6333
1768033147892,-0.9760742,0.17285156,-0.14697266,0.18310547,0.48828125,-0.18310547,0.0,0.0,0.0,131.16028,76.607666,16.6333
1768033147904,-0.9760742,0.17285156,-0.14697266,0.18310547,0.48828125,-0.18310547,0.0,0.0,0.0,131.20422,76.607666,16.68274
1768033147992,-0.9736328,0.171875,-0.1430664,0.7324219,0.9765625,-0.061035156,0.0,0.0,0.0,131.20422,76.607666,16.68274
1768033148004,-0.9736328,0.171875,-0.1430664,0.7324219,0.9765625,-0.061035156,0.0,0.0,0.0,131.13281,76.60217,16.6333
1768033148092,-0.97753906,0.17138672,-0.14648438,-0.30517578,0.061035156,0.24414062,0.0,0.0,0.0,131.13281,76.60217,16.6333
1768033148103,-0.97753906,0.17138672,-0.14648438,-0.30517578,0.061035156,0.24414062,0.0,0.0,0.0,131.03943,76.60217,16.572876
1768033148191,-0.97558594,0.171875,-0.14208984,-0.24414062,0.18310547,0.18310547,0.0,0.0,0.0,131.03943,76.60217,16.572876
1768033148203,-0.97558594,0.171875,-0.14208984,-0.24414062,0.18310547,0.18310547,0.0,0.0,0.0,131.10535,76.58569,16.6333
1768033148291,-0.97753906,0.17285156,-0.14550781,-0.5493164,0.18310547,-0.18310547,0.0,0.0,0.0,131.10535,76.58569,16.6333
1768033148303,-0.97753906,0.17285156,-0.14550781,-0.5493164,0.18310547,-0.18310547,0.0,0.0,0.0,130.97351,76.60217,16.539917
1768033148391,-0.9770508,0.17333984,-0.14648438,0.24414062,0.4272461,-0.061035156,0.0,0.0,0.0,130.97351,76.60217,16.539917
1768033148402,-0.9770508,0.17333984,-0.14648438,0.24414062,0.4272461,-0.061035156,0.0,0.0,0.0,130.89111,76.59119,16.534424
1768033148491,-0.9760742,0.1694336,-0.14453125,-0.18310547,0.8544922,0.0,0.0,0.0,0.0,130.89111,76.59119,16.534424
1768033148502,-0.9760742,0.1694336,-0.14453125,-0.18310547,0.8544922,0.0,0.0,0.0,0.0,130.85815,76.57471,16.567383
1768033148590,-0.97802734,0.17626953,-0.14794922,-0.4272461,0.5493164,0.18310547,0.0,0.0,0.0,130.85815,76.57471,16.567383
1768033148602,-0.97802734,0.17626953,-0.14794922,-0.4272461,0.5493164,0.18310547,0.0,0.0,0.0,130.94604,76.54724,16.688232
1768033148690,-0.9770508,0.17480469,-0.14794922,-0.5493164,-0.061035156,0.30517578,0.0,0.0,0.0,130.94604,76.54724,16.688232
1768033148702,-0.9770508,0.17480469,-0.14794922,-0.5493164,-0.061035156,0.30517578,0.0,0.0,0.0,131.03394,76.51428,16.809082
1768033148790,-0.9790039,0.17480469,-0.15039062,0.18310547,0.36621094,0.061035156,0.0,0.0,0.0,131.03394,76.51428,16.809082
1768033148802,-0.9790039,0.17480469,-0.15039062,0.18310547,0.36621094,0.061035156,0.0,0.0,0.0,131.00647,76.49231,16.803589
1768033148890,-0.97753906,0.17773438,-0.14453125,-0.30517578,-0.48828125,0.24414062,0.0,0.0,0.0,131.00647,76.49231,16.803589
1768033148901,-0.97753906,0.17773438,-0.14453125,-0.30517578,-0.48828125,0.24414062,0.0,0.0,0.0,131.02295,76.48132,16.820068
1768033148989,-0.97753906,0.17382812,-0.1484375,-0.4272461,-0.061035156,0.61035156,0.0,0.0,0.0,131.02295,76.48132,16.820068
1768033149001,-0.97753906,0.17382812,-0.1484375,-0.4272461,-0.061035156,0.61035156,0.0,0.0,0.0,130.89111,76.47034,16.73767
1768033149089,-0.97802734,0.17382812,-0.15039062,-0.12207031,-0.24414062,0.12207031,0.0,0.0,0.0,130.89111,76.47034,16.73767
1768033149100,-0.97802734,0.17382812,-0.15039062,-0.12207031,-0.24414062,0.12207031,0.0,0.0,0.0,130.96252,76.45386,16.803589
1768033149189,-0.97753906,0.17480469,-0.15283203,0.12207031,0.061035156,0.30517578,0.0,0.0,0.0,130.96252,76.45386,16.803589
1768033149200,-0.97753906,0.17480469,-0.15283203,0.12207031,0.061035156,0.30517578,0.0,0.0,0.0,131.0669,76.42639,16.907959
1768033149288,-0.97509766,0.1743164,-0.14697266,0.18310547,0.4272461,0.061035156,0.0,0.0,0.0,131.0669,76.42639,16.907959
1768033149300,-0.97509766,0.1743164,-0.14697266,0.18310547,0.4272461,0.061035156,0.0,0.0,0.0,131.0669,76.40991,16.902466
1768033149388,-0.9765625,0.17529297,-0.14990234,-0.061035156,0.12207031,0.24414062,0.0,0.0,0.0,131.0669,76.40991,16.902466
1768033149399,-0.9765625,0.17529297,-0.14990234,-0.061035156,0.12207031,0.24414062,0.0,0.0,0.0,130.96802,76.398926,16.825562
1768033149488,-0.97509766,0.17529297,-0.14453125,0.18310547,0.12207031,0.061035156,0.0,0.0,0.0,130.96802,76.398926,16.825562
1768033149499,-0.97509766,0.17529297,-0.14453125,0.18310547,0.12207031,0.061035156,0.0,0.0,0.0,131.05042,76.38794,16.869507
1768033149587,-0.9760742,0.17919922,-0.14941406,0.18310547,0.36621094,-0.18310547,0.0,0.0,0.0,131.05042,76.38794,16.869507
1768033149599,-0.9760742,0.17919922,-0.14941406,0.18310547,0.36621094,-0.18310547,0.0,0.0,0.0,130.979,76.398926,16.803589
1768033149687,-0.97558594,0.17529297,-0.1484375,0.5493164,-0.18310547,0.0,0.0,0.0,0.0,130.979,76.398926,16.803589
1768033149699,-0.97558594,0.17529297,-0.1484375,0.5493164,-0.18310547,0.0,0.0,0.0,0.0,130.95154,76.38794,16.78711
1768033149787,-0.97216797,0.17285156,-0.14746094,0.6713867,0.8544922,-0.24414062,0.0,0.0,0.0,130.95154,76.38794,16.78711
1768033149798,-0.97216797,0.17285156,-0.14746094,0.6713867,0.8544922,-0.24414062,0.0,0.0,0.0,131.02295,76.37695,16.869507
1768033149887,-0.9770508,0.1772461,-0.1508789,0.36621094,0.30517578,0.0,0.0,0.0,0.0,131.02295,76.37695,16.869507
1768033149898,-0.9770508,0.1772461,-0.1508789,0.36621094,0.30517578,0.0,0.0,0.0,0.0,131.02295,76.37146,16.869507
1768033149986,-0.9770508,0.17529297,-0.1508789,-0.24414062,-0.36621094,0.18310547,0.0,0.0,0.0,131.02295,76.37146,16.869507
1768033149998,-0.9770508,0.17529297,-0.1508789,-0.24414062,-0.36621094,0.18310547,0.0,0.0,0.0,131.02295,76.37146,16.864014
1768033150086,-0.97753906,0.17626953,-0.15234375,0.6713867,-0.12207031,0.0,0.0,0.0,0.0,131.02295,76.37146,16.864014
1768033150097,-0.97753906,0.17626953,-0.15234375,0.6713867,-0.12207031,0.0,0.0,0.0,0.0,131.03394,76.36597,16.853027
1768033150186,-0.9770508,0.17871094,-0.14794922,0.061035156,-0.7324219,0.12207031,0.0,0.0,0.0,131.03394,76.36597,16.853027
1768033150197,-0.9770508,0.17871094,-0.14794922,0.061035156,-0.7324219,0.12207031,0.0,0.0,0.0,130.98999,76.37695,16.792603
1768033150285,-0.9736328,0.17480469,-0.14550781,0.061035156,0.48828125,0.18310547,0.0,0.0,0.0,130.98999,76.37695,16.792603
1768033150297,-0.9736328,0.17480469,-0.14550781,0.061035156,0.48828125,0.18310547,0.0,0.0,0.0,130.92407,76.36597,16.759644
