timestamp,accX,accY,accZ,gyroX,gyroY,gyroZ,magX,magY,magZ,roll,pitch,yaw
1768029294939,-0.9145508,-0.28076172,-0.2939453,3.2348633,0.61035156,1.0375977,0.0,0.0,0.0,-136.30188,65.25879,175.85266
1768029294950,-0.9145508,-0.28076172,-0.2939453,3.2348633,0.61035156,1.0375977,0.0,0.0,0.0,-136.604,65.27527,175.5011
1768029295040,-0.91796875,-0.28710938,-0.2861328,2.746582,0.18310547,0.12207031,0.0,0.0,0.0,-136.604,65.27527,175.5011
1768029295050,-0.91796875,-0.28710938,-0.2861328,2.746582,0.18310547,0.12207031,0.0,0.0,0.0,-136.32385,65.31372,175.64392
1768029295138,-0.921875,-0.31591797,-0.34472656,-10.681152,-16.540527,-5.432129,0.0,0.0,0.0,-136.32385,65.31372,175.64392
1768029295152,-0.921875,-0.31591797,-0.34472656,-10.681152,-16.540527,-5.432129,0.0,0.0,0.0,-134.69788,66.154175,177.97852
1768029295238,-0.9189453,-0.2758789,-0.27441406,-4.8828125,1.159668,-6.225586,0.0,0.0,0.0,-134.69788,66.154175,177.97852
1768029295249,-0.9189453,-0.2758789,-0.27441406,-4.8828125,1.159668,-6.225586,0.0,0.0,0.0,-134.09912,65.78613,179.18701
1768029295338,-0.9160156,-0.2763672,-0.27978516,0.18310547,1.3427734,-1.8310547,0.0,0.0,0.0,-134.09912,65.78613,179.18701
1768029295349,-0.9160156,-0.2763672,-0.27978516,0.18310547,1.3427734,-1.8310547,0.0,0.0,0.0,-133.91785,65.374146,179.45068
1768029295437,-0.9145508,-0.2919922,-0.28710938,1.5869141,3.7841797,-1.7089844,0.0,0.0,0.0,-133.91785,65.374146,179.45068
1768029295449,-0.9145508,-0.2919922,-0.28710938,1.5869141,3.7841797,-1.7089844,0.0,0.0,0.0,-134.0387,65.11597,179.25842
1768029295537,-0.90283203,-0.31054688,-0.29296875,3.90625,1.8310547,-2.319336,0.0,0.0,0.0,-134.0387,65.11597,179.25842
1768029295548,-0.90283203,-0.31054688,-0.29296875,3.90625,1.8310547,-2.319336,0.0,0.0,0.0,-133.69263,64.85779,179.29138
1768029295636,-0.9057617,-0.31884766,-0.29345703,1.7089844,0.9765625,-2.1972656,0.0,0.0,0.0,-133.69263,64.85779,179.29138
1768029295648,-0.9057617,-0.31884766,-0.29345703,1.7089844,0.9765625,-2.1972656,0.0,0.0,0.0,-133.2367,64.58313,179.46716
1768029295736,-0.90478516,-0.31835938,-0.29541016,-0.30517578,-0.24414062,-2.4414062,0.0,0.0,0.0,-133.2367,64.58313,179.46716
1768029295748,-0.90478516,-0.31835938,-0.29541016,-0.30517578,-0.24414062,-2.4414062,0.0,0.0,0.0,-132.94556,64.34143,179.71436
1768029295836,-0.9003906,-0.3125,-0.29589844,-1.2207031,1.5869141,-1.159668,0.0,0.0,0.0,-132.94556,64.34143,179.71436
1768029295847,-0.9003906,-0.3125,-0.29589844,-1.2207031,1.5869141,-1.159668,0.0,0.0,0.0,-132.8357,64.17114,179.93408
1768029295935,-0.90283203,-0.3125,-0.29882812,-0.61035156,0.5493164,0.4272461,0.0,0.0,0.0,-132.8357,64.17114,179.93408
1768029295947,-0.90283203,-0.3125,-0.29882812,-0.61035156,0.5493164,0.4272461,0.0,0.0,0.0,-133.0664,64.088745,179.78577
1768029296035,-0.90527344,-0.31347656,-0.30371094,-0.5493164,2.5024414,0.12207031,0.0,0.0,0.0,-133.0664,64.088745,179.78577
1768029296047,-0.90527344,-0.31347656,-0.30371094,-0.5493164,2.5024414,0.12207031,0.0,0.0,0.0,-133.41797,64.03931,179.49463
1768029296135,-0.8984375,-0.3178711,-0.29833984,-0.12207031,-2.6245117,0.5493164,0.0,0.0,0.0,-133.41797,64.03931,179.49463
1768029296146,-0.8984375,-0.3178711,-0.29833984,-0.12207031,-2.6245117,0.5493164,0.0,0.0,0.0,-133.52783,64.0448,179.36829
1768029296235,-0.90722656,-0.31054688,-0.29248047,-1.7089844,-0.061035156,0.0,0.0,0.0,0.0,-133.52783,64.0448,179.36829
1768029296246,-0.90722656,-0.31054688,-0.29248047,-1.7089844,-0.061035156,0.0,0.0,0.0,0.0,-133.34656,64.13818,179.54407
1768029296334,-0.9038086,-0.30859375,-0.30078125,-1.0986328,2.0141602,-0.36621094,0.0,0.0,0.0,-133.34656,64.13818,179.54407
1768029296346,-0.9038086,-0.30859375,-0.30078125,-1.0986328,2.0141602,-0.36621094,0.0,0.0,0.0,-133.53333,64.06677,179.42322
1768029296434,-0.9194336,-0.31933594,-0.2998047,2.1972656,-1.0375977,0.36621094,0.0,0.0,0.0,-133.53333,64.06677,179.42322
1768029296446,-0.9194336,-0.31933594,-0.2998047,2.1972656,-1.0375977,0.36621094,0.0,0.0,0.0,-133.70361,63.98987,179.23096
1768029296534,-0.8984375,-0.31201172,-0.30126953,3.2958984,0.061035156,0.12207031,0.0,0.0,0.0,-133.70361,63.98987,179.23096
1768029296545,-0.8984375,-0.31201172,-0.30126953,3.2958984,0.061035156,0.12207031,0.0,0.0,0.0,-133.35205,64.03381,179.28589
1768029296633,-0.9003906,-0.3095703,-0.29296875,0.79345703,-0.18310547,0.61035156,0.0,0.0,0.0,-133.35205,64.03381,179.28589
1768029296645,-0.9003906,-0.3095703,-0.29296875,0.79345703,-0.18310547,0.61035156,0.0,0.0,0.0,-133.25867,64.02283,179.15955
1768029296733,-0.9042969,-0.30908203,-0.29541016,0.91552734,-1.0986328,0.0,0.0,0.0,0.0,-133.25867,64.02283,179.15955
1768029296745,-0.9042969,-0.30908203,-0.29541016,0.91552734,-1.0986328,0.0,0.0,0.0,0.0,-133.17078,64.09973,179.198
1768029296833,-0.88623047,-0.29882812,-0.30029297,3.9672852,-3.7841797,-1.0375977,0.0,0.0,0.0,-133.17078,64.09973,179.198
1768029296844,-0.88623047,-0.29882812,-0.30029297,3.9672852,-3.7841797,-1.0375977,0.0,0.0,0.0,-132.38525,64.281006,179.6759
1768029296933,-0.9375,-0.3696289,-0.24707031,-5.6152344,3.9672852,5.493164,0.0,0.0,0.0,-132.38525,64.281006,179.6759
1768029296944,-0.9375,-0.3696289,-0.24707031,-5.6152344,3.9672852,5.493164,0.0,0.0,0.0,-132.65442,64.37439,179.07715
1768029297032,-0.8666992,-0.33544922,-0.29052734,7.019043,1.159668,-3.7841797,0.0,0.0,0.0,-132.65442,64.37439,179.07715
1768029297044,-0.8666992,-0.33544922,-0.29052734,7.019043,1.159668,-3.7841797,0.0,0.0,0.0,-132.76428,64.32495,179.1925
1768029297132,-0.89404297,-0.2993164,-0.3046875,-5.6152344,0.24414062,-4.5776367,0.0,0.0,0.0,-132.76428,64.32495,179.1925
1768029297144,-0.89404297,-0.2993164,-0.3046875,-5.6152344,0.24414062,-4.5776367,0.0,0.0,0.0,-132.22046,64.00635,179.80225
1768029297232,-0.90625,-0.30566406,-0.29882812,-4.1503906,-0.91552734,-1.4038086,0.0,0.0,0.0,-132.22046,64.00635,179.80225
1768029297244,-0.90625,-0.30566406,-0.29882812,-4.1503906,-0.91552734,-1.4038086,0.0,0.0,0.0,-132.193,63.81958,-179.90112
1768029297331,-0.89990234,-0.30517578,-0.29785156,1.0375977,1.5869141,-1.6479492,0.0,0.0,0.0,-132.193,63.81958,-179.90112
1768029297343,-0.89990234,-0.30517578,-0.29785156,1.0375977,1.5869141,-1.6479492,0.0,0.0,0.0,-132.31934,63.704224,-179.8407
1768029297431,-0.90478516,-0.34423828,-0.29638672,2.8686523,3.479004,1.0375977,0.0,0.0,0.0,-132.31934,63.704224,-179.8407
1768029297444,-0.90478516,-0.34423828,-0.29638672,2.8686523,3.479004,1.0375977,0.0,0.0,0.0,-132.45667,63.621826,179.76929
1768029297531,-0.8925781,-0.34326172,-0.30615234,-1.159668,2.1362305,-1.0375977,0.0,0.0,0.0,-132.45667,63.621826,179.76929
1768029297542,-0.8925781,-0.34326172,-0.30615234,-1.159668,2.1362305,-1.0375977,0.0,0.0,0.0,-132.6709,63.479004,179.40125
1768029297631,-0.8925781,-0.32177734,-0.3022461,-2.2583008,1.159668,0.30517578,0.0,0.0,0.0,-132.6709,63.479004,179.40125
1768029297642,-0.8925781,-0.32177734,-0.3022461,-2.2583008,1.159668,0.30517578,0.0,0.0,0.0,-132.92358,63.24829,179.24194
1768029297730,-0.89697266,-0.30810547,-0.30078125,-3.479004,1.3427734,1.2817383,0.0,0.0,0.0,-132.92358,63.24829,179.24194
1768029297742,-0.89697266,-0.30810547,-0.30078125,-3.479004,1.3427734,1.2817383,0.0,0.0,0.0,-133.48938,63.165894,178.89038
1768029297830,-0.89697266,-0.31884766,-0.32226562,-1.2817383,-0.4272461,0.5493164,0.0,0.0,0.0,-133.48938,63.165894,178.89038
1768029297841,-0.89697266,-0.31884766,-0.32226562,-1.2817383,-0.4272461,0.5493164,0.0,0.0,0.0,-133.77502,63.270264,178.76404
1768029297930,-0.89746094,-0.32373047,-0.30664062,-0.061035156,0.061035156,-0.5493164,0.0,0.0,0.0,-133.77502,63.270264,178.76404
1768029297941,-0.89746094,-0.32373047,-0.30664062,-0.061035156,0.061035156,-0.5493164,0.0,0.0,0.0,-133.84644,63.24829,178.70361
1768029298029,-0.89746094,-0.31982422,-0.3149414,-1.0375977,1.4038086,-1.0375977,0.0,0.0,0.0,-133.84644,63.24829,178.70361
1768029298041,-0.89746094,-0.31982422,-0.3149414,-1.0375977,1.4038086,-1.0375977,0.0,0.0,0.0,-133.9563,63.10547,178.64868
1768029298129,-0.8930664,-0.32226562,-0.3154297,0.24414062,0.5493164,-1.159668,0.0,0.0,0.0,-133.9563,63.10547,178.64868
1768029298140,-0.8930664,-0.32226562,-0.3154297,0.24414062,0.5493164,-1.159668,0.0,0.0,0.0,-133.8794,62.990112,178.69812
1768029298229,-0.8925781,-0.32080078,-0.31298828,-0.061035156,0.061035156,-0.48828125,0.0,0.0,0.0,-133.8794,62.990112,178.69812
1768029298240,-0.8925781,-0.32080078,-0.31298828,-0.061035156,0.061035156,-0.48828125,0.0,0.0,0.0,-133.81897,62.891235,178.7091
1768029298328,-0.8930664,-0.328125,-0.31884766,-1.0375977,1.0986328,0.0,0.0,0.0,0.0,-133.81897,62.891235,178.7091
1768029298340,-0.8930664,-0.328125,-0.31884766,-1.0375977,1.0986328,0.0,0.0,0.0,0.0,-133.92883,62.852783,178.61572
1768029298428,-0.8901367,-0.32617188,-0.31591797,0.24414062,0.061035156,-0.36621094,0.0,0.0,0.0,-133.92883,62.852783,178.61572
1768029298439,-0.8901367,-0.32617188,-0.31591797,0.24414062,0.061035156,-0.36621094,0.0,0.0,0.0,-134.02771,62.781372,178.51685
1768029298528,-0.8886719,-0.3173828,-0.31054688,-1.5869141,0.7324219,0.24414062,0.0,0.0,0.0,-134.02771,62.781372,178.51685
1768029298539,-0.8886719,-0.3173828,-0.31054688,-1.5869141,0.7324219,0.24414062,0.0,0.0,0.0,-134.15955,62.698975,178.36304
1768029298627,-0.89501953,-0.3227539,-0.33447266,-0.48828125,-0.5493164,0.061035156,0.0,0.0,0.0,-134.15955,62.698975,178.36304
1768029298639,-0.89501953,-0.3227539,-0.33447266,-0.48828125,-0.5493164,0.061035156,0.0,0.0,0.0,-134.14856,62.786865,178.38501
1768029298727,-0.8930664,-0.32617188,-0.32080078,-0.24414062,-0.061035156,-0.061035156,0.0,0.0,0.0,-134.14856,62.786865,178.38501
1768029298739,-0.8930664,-0.32617188,-0.32080078,-0.24414062,-0.061035156,-0.061035156,0.0,0.0,0.0,-134.17053,62.753906,178.31909
1768029298827,-0.8925781,-0.32177734,-0.3173828,0.0,0.79345703,0.12207031,0.0,0.0,0.0,-134.17053,62.753906,178.31909
1768029298838,-0.8925781,-0.32177734,-0.3173828,0.0,0.79345703,0.12207031,0.0,0.0,0.0,-134.32983,62.65503,178.11584
1768029298928,-0.89208984,-0.32617188,-0.32373047,-0.7324219,1.7089844,0.061035156,0.0,0.0,0.0,-134.32983,62.65503,178.11584
1768029298938,-0.89208984,-0.32617188,-0.32373047,-0.7324219,1.7089844,0.061035156,0.0,0.0,0.0,-134.48364,62.594604,177.995
1768029299026,-0.8911133,-0.32714844,-0.32421875,-1.0986328,0.061035156,0.30517578,0.0,0.0,0.0,-134.48364,62.594604,177.995
1768029299038,-0.8911133,-0.32714844,-0.32421875,-1.0986328,0.061035156,0.30517578,0.0,0.0,0.0,-134.73083,62.545166,177.84119
1768029299126,-0.8911133,-0.3203125,-0.32666016,-0.12207031,1.4038086,0.30517578,0.0,0.0,0.0,-134.73083,62.545166,177.84119
1768029299138,-0.8911133,-0.3203125,-0.32666016,-0.12207031,1.4038086,0.30517578,0.0,0.0,0.0,-134.98352,62.50122,177.65442
1768029299226,-0.88964844,-0.32421875,-0.3310547,0.4272461,0.0,0.7324219,0.0,0.0,0.0,-134.98352,62.50122,177.65442
1768029299237,-0.88964844,-0.32421875,-0.3310547,0.4272461,0.0,0.7324219,0.0,0.0,0.0,-135.12634,62.506714,177.54456
1768029299325,-0.8886719,-0.31982422,-0.32421875,-2.1362305,0.061035156,1.159668,0.0,0.0,0.0,-135.12634,62.506714,177.54456
1768029299337,-0.8886719,-0.31982422,-0.32421875,-2.1362305,0.061035156,1.159668,0.0,0.0,0.0,-135.42297,62.46826,177.29187
1768029299425,-0.89453125,-0.31591797,-0.3388672,-0.6713867,0.61035156,0.18310547,0.0,0.0,0.0,-135.42297,62.46826,177.29187
1768029299437,-0.89453125,-0.31591797,-0.3388672,-0.6713867,0.61035156,0.18310547,0.0,0.0,0.0,-135.5603,62.457275,177.20947
1768029299525,-0.88623047,-0.3203125,-0.33544922,-0.18310547,0.61035156,-0.30517578,0.0,0.0,0.0,-135.5603,62.457275,177.20947
1768029299536,-0.88623047,-0.3203125,-0.33544922,-0.18310547,0.61035156,-0.30517578,0.0,0.0,0.0,-135.66467,62.402344,177.08862
1768029299624,-0.88671875,-0.31640625,-0.32763672,0.36621094,-0.48828125,-0.18310547,0.0,0.0,0.0,-135.66467,62.402344,177.08862
1768029299636,-0.88671875,-0.31640625,-0.32763672,0.36621094,-0.48828125,-0.18310547,0.0,0.0,0.0,-135.70312,62.34192,177.0227
1768029299724,-0.89208984,-0.31982422,-0.32226562,1.159668,-1.0375977,0.24414062,0.0,0.0,0.0,-135.70312,62.34192,177.0227
1768029299736,-0.89208984,-0.31982422,-0.32226562,1.159668,-1.0375977,0.24414062,0.0,0.0,0.0,-135.45593,62.39685,177.12158
1768029299824,-0.890625,-0.32421875,-0.33447266,0.0,0.12207031,-0.12207031,0.0,0.0,0.0,-135.45593,62.39685,177.12158
1768029299836,-0.890625,-0.32421875,-0.33447266,0.0,0.12207031,-0.12207031,0.0,0.0,0.0,-135.29114,62.473755,177.24243
1768029299923,-0.88916016,-0.3227539,-0.3310547,-0.30517578,-0.5493164,-0.12207031,0.0,0.0,0.0,-135.29114,62.473755,177.24243
1768029299935,-0.88916016,-0.3227539,-0.3310547,-0.30517578,-0.5493164,-0.12207031,0.0,0.0,0.0,-135.3241,62.457275,177.20398
1768029300023,-0.89208984,-0.3173828,-0.33154297,0.18310547,0.12207031,-0.61035156,0.0,0.0,0.0,-135.3241,62.457275,177.20398
1768029300035,-0.89208984,-0.3173828,-0.33154297,0.18310547,0.12207031,-0.61035156,0.0,0.0,0.0,-135.11536,62.479248,177.33032
1768029300123,-0.88720703,-0.3203125,-0.32080078,-0.5493164,-1.2207031,0.5493164,0.0,0.0,0.0,-135.11536,62.479248,177.33032
1768029300134,-0.88720703,-0.3203125,-0.32080078,-0.5493164,-1.2207031,0.5493164,0.0,0.0,0.0,-135.19775,62.528687,177.31934
1768029300222,-0.89404297,-0.31884766,-0.32958984,-0.12207031,0.7324219,0.0,0.0,0.0,0.0,-135.19775,62.528687,177.31934
1768029300234,-0.89404297,-0.31884766,-0.32958984,-0.12207031,0.7324219,0.0,0.0,0.0,0.0,-135.29663,62.58362,177.29736
1768029300322,-0.8925781,-0.31640625,-0.3330078,-1.5869141,1.0375977,0.061035156,0.0,0.0,0.0,-135.29663,62.58362,177.29736
1768029300334,-0.8925781,-0.31640625,-0.3330078,-1.5869141,1.0375977,0.061035156,0.0,0.0,0.0,-135.45593,62.556152,177.19849
1768029300422,-0.8901367,-0.31835938,-0.3305664,-0.061035156,-0.5493164,0.061035156,0.0,0.0,0.0,-135.45593,62.556152,177.19849
1768029300434,-0.8901367,-0.31835938,-0.3305664,-0.061035156,-0.5493164,0.061035156,0.0,0.0,0.0,-135.5603,62.55066,177.13806
1768029300522,-0.8925781,-0.31445312,-0.32861328,0.79345703,0.0,-0.18310547,0.0,0.0,0.0,-135.5603,62.55066,177.13806
1768029300533,-0.8925781,-0.31445312,-0.32861328,0.79345703,0.0,-0.18310547,0.0,0.0,0.0,-135.51086,62.545166,177.14355
1768029300621,-0.89453125,-0.31982422,-0.328125,0.061035156,0.12207031,0.36621094,0.0,0.0,0.0,-135.51086,62.545166,177.14355
1768029300634,-0.89453125,-0.31982422,-0.328125,0.061035156,0.12207031,0.36621094,0.0,0.0,0.0,-135.4779,62.556152,177.12158
1768029300721,-0.8881836,-0.3173828,-0.3305664,0.6713867,0.5493164,0.0,0.0,0.0,0.0,-135.4779,62.556152,177.12158
1768029300733,-0.8881836,-0.3173828,-0.3305664,0.6713867,0.5493164,0.0,0.0,0.0,0.0,-135.5603,62.53418,177.01172
1768029300821,-0.8930664,-0.32128906,-0.33789062,-0.30517578,1.4648438,-0.30517578,0.0,0.0,0.0,-135.5603,62.53418,177.01172
1768029300832,-0.8930664,-0.32128906,-0.33789062,-0.30517578,1.4648438,-0.30517578,0.0,0.0,0.0,-135.53284,62.5177,176.92932
1768029300920,-0.89160156,-0.3203125,-0.3232422,0.0,-1.159668,0.0,0.0,0.0,0.0,-135.53284,62.5177,176.92932
1768029300932,-0.89160156,-0.3203125,-0.3232422,0.0,-1.159668,0.0,0.0,0.0,0.0,-135.65369,62.48474,176.81946
1768029301020,-0.890625,-0.3149414,-0.32617188,1.0375977,0.30517578,-0.24414062,0.0,0.0,0.0,-135.65369,62.48474,176.81946
1768029301032,-0.890625,-0.3149414,-0.32617188,1.0375977,0.30517578,-0.24414062,0.0,0.0,0.0,-135.53833,62.50122,176.89087
1768029301120,-0.89208984,-0.3173828,-0.3305664,0.0,1.159668,-0.30517578,0.0,0.0,0.0,-135.53833,62.50122,176.89087
1768029301131,-0.89208984,-0.3173828,-0.3305664,0.0,1.159668,-0.30517578,0.0,0.0,0.0,-135.49988,62.479248,176.85791
1768029301219,-0.88964844,-0.32128906,-0.33447266,0.24414062,0.4272461,0.12207031,0.0,0.0,0.0,-135.49988,62.479248,176.85791
1768029301231,-0.88964844,-0.32128906,-0.33447266,0.24414062,0.4272461,0.12207031,0.0,0.0,0.0,-135.59326,62.44629,176.75354
1768029301319,-0.8876953,-0.31689453,-0.32714844,0.061035156,-0.12207031,0.0,0.0,0.0,0.0,-135.59326,62.44629,176.75354
1768029301331,-0.8876953,-0.31689453,-0.32714844,0.061035156,-0.12207031,0.0,0.0,0.0,0.0,-135.6427,62.407837,176.66565
1768029301420,-0.89404297,-0.31591797,-0.33984375,-0.30517578,-0.30517578,0.0,0.0,0.0,0.0,-135.6427,62.407837,176.66565
1768029301430,-0.89404297,-0.31591797,-0.33984375,-0.30517578,-0.30517578,0.0,0.0,0.0,0.0,-135.62622,62.42981,176.69861
1768029301519,-0.8852539,-0.3173828,-0.33398438,0.9765625,1.4648438,-1.0986328,0.0,0.0,0.0,-135.62622,62.42981,176.69861
1768029301530,-0.8852539,-0.3173828,-0.33398438,0.9765625,1.4648438,-1.0986328,0.0,0.0,0.0,-135.63171,62.352905,176.72058
1768029301618,-0.88720703,-0.32421875,-0.33544922,0.7324219,0.61035156,0.18310547,0.0,0.0,0.0,-135.63171,62.352905,176.72058
1768029301630,-0.88720703,-0.32421875,-0.33544922,0.7324219,0.61035156,0.18310547,0.0,0.0,0.0,-135.57129,62.25403,176.71509
1768029301718,-0.8847656,-0.32226562,-0.3305664,-2.5634766,-0.12207031,0.61035156,0.0,0.0,0.0,-135.57129,62.25403,176.71509
1768029301729,-0.8847656,-0.32226562,-0.3305664,-2.5634766,-0.12207031,0.61035156,0.0,0.0,0.0,-135.97778,62.13867,176.44592
1768029301818,-0.88964844,-0.31689453,-0.34570312,0.0,1.2817383,-0.061035156,0.0,0.0,0.0,-135.97778,62.13867,176.44592
1768029301830,-0.88964844,-0.31689453,-0.34570312,0.0,1.2817383,-0.061035156,0.0,0.0,0.0,-136.07117,62.10022,176.44592
1768029301917,-0.88671875,-0.31982422,-0.3408203,0.0,0.4272461,-0.061035156,0.0,0.0,0.0,-136.07117,62.10022,176.44592
1768029301929,-0.88671875,-0.31982422,-0.3408203,0.0,0.4272461,-0.061035156,0.0,0.0,0.0,-136.16455,62.05078,176.3086
1768029302017,-0.8847656,-0.3203125,-0.33544922,0.5493164,0.48828125,0.5493164,0.0,0.0,0.0,-136.16455,62.05078,176.3086
1768029302029,-0.8847656,-0.3203125,-0.33544922,0.5493164,0.48828125,0.5493164,0.0,0.0,0.0,-136.19751,62.01233,176.20972
1768029302117,-0.8847656,-0.32080078,-0.34179688,-0.79345703,0.30517578,0.4272461,0.0,0.0,0.0,-136.19751,62.01233,176.20972
1768029302128,-0.8847656,-0.32080078,-0.34179688,-0.79345703,0.30517578,0.4272461,0.0,0.0,0.0,-136.33484,62.006836,176.03943
1768029302216,-0.8847656,-0.3178711,-0.33544922,-1.7700195,-0.4272461,0.8544922,0.0,0.0,0.0,-136.33484,62.006836,176.03943
1768029302228,-0.8847656,-0.3178711,-0.33544922,-1.7700195,-0.4272461,0.8544922,0.0,0.0,0.0,-136.53809,62.05078,175.91309
1768029302316,-0.8881836,-0.3076172,-0.3310547,0.4272461,-0.91552734,0.24414062,0.0,0.0,0.0,-136.53809,62.05078,175.91309
1768029302327,-0.8881836,-0.3076172,-0.3310547,0.4272461,-0.91552734,0.24414062,0.0,0.0,0.0,-136.57654,62.122192,175.9021
1768029302416,-0.88916016,-0.32128906,-0.3388672,0.9765625,-0.5493164,0.30517578,0.0,0.0,0.0,-136.57654,62.122192,175.9021
1768029302427,-0.88916016,-0.32128906,-0.3388672,0.9765625,-0.5493164,0.30517578,0.0,0.0,0.0,-136.40076,62.23755,176.02844
1768029302515,-0.8852539,-0.3178711,-0.33984375,-3.112793,0.6713867,-0.30517578,0.0,0.0,0.0,-136.40076,62.23755,176.02844
1768029302527,-0.8852539,-0.3178711,-0.33984375,-3.112793,0.6713867,-0.30517578,0.0,0.0,0.0,-136.53809,62.182617,176.00098
1768029302615,-0.8911133,-0.3071289,-0.36572266,2.1362305,0.8544922,-1.4648438,0.0,0.0,0.0,-136.53809,62.182617,176.00098
1768029302627,-0.8911133,-0.3071289,-0.36572266,2.1362305,0.8544922,-1.4648438,0.0,0.0,0.0,-136.64795,62.0343,175.95154
1768029302715,-0.8828125,-0.30908203,-0.3383789,0.91552734,0.0,-1.5869141,0.0,0.0,0.0,-136.64795,62.0343,175.95154
1768029302726,-0.8828125,-0.30908203,-0.3383789,0.91552734,0.0,-1.5869141,0.0,0.0,0.0,-136.43372,61.92444,176.07239
1768029302815,-0.8876953,-0.3203125,-0.34570312,1.0986328,-0.6713867,-0.79345703,0.0,0.0,0.0,-136.43372,61.92444,176.07239
1768029302827,-0.8876953,-0.3203125,-0.34570312,1.0986328,-0.6713867,-0.79345703,0.0,0.0,0.0,-136.24695,61.875,176.23169
1768029302914,-0.8828125,-0.32714844,-0.34326172,0.36621094,0.4272461,0.0,0.0,0.0,0.0,-136.24695,61.875,176.23169
1768029302926,-0.8828125,-0.32714844,-0.34326172,0.36621094,0.4272461,0.0,0.0,0.0,0.0,-136.15906,61.84204,176.27014
1768029303014,-0.88916016,-0.32666016,-0.34228516,-0.8544922,-0.79345703,1.5869141,0.0,0.0,0.0,-136.15906,61.84204,176.27014
1768029303026,-0.88916016,-0.32666016,-0.34228516,-0.8544922,-0.79345703,1.5869141,0.0,0.0,0.0,-136.24695,61.935425,176.19324
1768029303114,-0.8881836,-0.32177734,-0.33496094,-1.2207031,0.7324219,0.5493164,0.0,0.0,0.0,-136.24695,61.935425,176.19324
1768029303125,-0.8881836,-0.32177734,-0.33496094,-1.2207031,0.7324219,0.5493164,0.0,0.0,0.0,-136.43921,61.968384,176.00098
1768029303213,-0.88916016,-0.31835938,-0.33544922,-1.5869141,-1.2207031,0.8544922,0.0,0.0,0.0,-136.43921,61.968384,176.00098
1768029303225,-0.88916016,-0.31835938,-0.33544922,-1.5869141,-1.2207031,0.8544922,0.0,0.0,0.0,-136.604,62.001343,175.8966
1768029303313,-0.8925781,-0.31152344,-0.33154297,1.0986328,0.4272461,0.7324219,0.0,0.0,0.0,-136.604,62.001343,175.8966
1768029303325,-0.8925781,-0.31152344,-0.33154297,1.0986328,0.4272461,0.7324219,0.0,0.0,0.0,-136.6095,62.056274,175.84717
1768029303413,-0.8857422,-0.3251953,-0.35205078,1.5869141,0.0,-0.9765625,0.0,0.0,0.0,-136.6095,62.056274,175.84717
1768029303424,-0.8857422,-0.3251953,-0.35205078,1.5869141,0.0,-0.9765625,0.0,0.0,0.0,-136.41724,62.13867,175.96252
1768029303513,-0.8852539,-0.31298828,-0.3330078,1.4038086,-0.61035156,-0.30517578,0.0,0.0,0.0,-136.41724,62.13867,175.96252
1768029303524,-0.8852539,-0.31298828,-0.3330078,1.4038086,-0.61035156,-0.30517578,0.0,0.0,0.0,-136.16455,62.061768,176.1438
1768029303612,-0.88916016,-0.31591797,-0.33447266,0.48828125,-0.061035156,0.12207031,0.0,0.0,0.0,-136.16455,62.061768,176.1438
1768029303624,-0.88916016,-0.31591797,-0.33447266,0.48828125,-0.061035156,0.12207031,0.0,0.0,0.0,-136.10962,62.061768,176.17676
1768029303712,-0.88671875,-0.3232422,-0.3330078,0.0,-0.18310547,0.0,0.0,0.0,0.0,-136.10962,62.061768,176.17676
1768029303723,-0.88671875,-0.3232422,-0.3330078,0.0,-0.18310547,0.0,0.0,0.0,0.0,-136.00525,62.089233,176.19873
1768029303812,-0.8876953,-0.31933594,-0.3413086,-0.30517578,-1.0986328,-0.12207031,0.0,0.0,0.0,-136.00525,62.089233,176.19873
1768029303823,-0.8876953,-0.31933594,-0.3413086,-0.30517578,-1.0986328,-0.12207031,0.0,0.0,0.0,-135.95032,62.127686,176.29211
1768029303911,-0.8886719,-0.31591797,-0.33642578,0.061035156,-0.4272461,0.0,0.0,0.0,0.0,-135.95032,62.127686,176.29211
1768029303923,-0.8886719,-0.31591797,-0.33642578,0.061035156,-0.4272461,0.0,0.0,0.0,0.0,-135.90637,62.160645,176.36902
1768029304011,-0.88916016,-0.31933594,-0.3388672,0.18310547,-0.12207031,-0.24414062,0.0,0.0,0.0,-135.90637,62.160645,176.36902
1768029304023,-0.88916016,-0.31933594,-0.3388672,0.18310547,-0.12207031,-0.24414062,0.0,0.0,0.0,-135.85144,62.193604,176.44043
1768029304111,-0.89160156,-0.32714844,-0.3227539,-0.48828125,-0.18310547,0.24414062,0.0,0.0,0.0,-135.85144,62.193604,176.44043
1768029304123,-0.89160156,-0.32714844,-0.3227539,-0.48828125,-0.18310547,0.24414062,0.0,0.0,0.0,-135.68115,62.210083,176.56677
1768029304210,-0.88623047,-0.32373047,-0.33789062,-1.5258789,-0.30517578,0.24414062,0.0,0.0,0.0,-135.68115,62.210083,176.56677
1768029304222,-0.88623047,-0.32373047,-0.33789062,-1.5258789,-0.30517578,0.24414062,0.0,0.0,0.0,-135.94482,62.182617,176.47339
1768029304310,-0.89208984,-0.31054688,-0.3413086,0.0,2.4414062,-0.8544922,0.0,0.0,0.0,-135.94482,62.182617,176.47339
1768029304322,-0.89208984,-0.31054688,-0.3413086,0.0,2.4414062,-0.8544922,0.0,0.0,0.0,-136.1206,62.072754,176.39099
1768029304410,-0.8876953,-0.32080078,-0.3491211,0.8544922,-0.061035156,0.12207031,0.0,0.0,0.0,-136.1206,62.072754,176.39099
1768029304421,-0.8876953,-0.32080078,-0.3491211,0.8544922,-0.061035156,0.12207031,0.0,0.0,0.0,-136.203,62.0343,176.3086
1768029304510,-0.8857422,-0.328125,-0.3388672,0.0,0.36621094,0.36621094,0.0,0.0,0.0,-136.203,62.0343,176.3086
1768029304521,-0.8857422,-0.328125,-0.3388672,0.0,0.36621094,0.36621094,0.0,0.0,0.0,-136.32385,61.973877,176.1438
1768029304609,-0.88671875,-0.31396484,-0.33984375,-0.61035156,1.2207031,0.12207031,0.0,0.0,0.0,-136.32385,61.973877,176.1438
1768029304621,-0.88671875,-0.31396484,-0.33984375,-0.61035156,1.2207031,0.12207031,0.0,0.0,0.0,-136.4447,61.90796,176.01746
1768029304709,-0.88623047,-0.31445312,-0.34179688,-1.2207031,-0.18310547,0.7324219,0.0,0.0,0.0,-136.4447,61.90796,176.01746
1768029304720,-0.88623047,-0.31445312,-0.34179688,-1.2207031,-0.18310547,0.7324219,0.0,0.0,0.0,-136.604,61.918945,175.8966
1768029304809,-0.8881836,-0.31640625,-0.34228516,-0.61035156,0.91552734,0.61035156,0.0,0.0,0.0,-136.604,61.918945,175.8966
1768029304820,-0.8881836,-0.31640625,-0.34228516,-0.61035156,0.91552734,0.61035156,0.0,0.0,0.0,-136.83472,61.96289,175.72083
1768029304908,-0.8876953,-0.3149414,-0.3466797,-0.4272461,-0.79345703,0.4272461,0.0,0.0,0.0,-136.83472,61.96289,175.72083
1768029304920,-0.8876953,-0.3149414,-0.3466797,-0.4272461,-0.79345703,0.4272461,0.0,0.0,0.0,-137.005,61.990356,175.578
1768029305008,-0.8876953,-0.30908203,-0.3310547,0.12207031,0.24414062,-0.24414062,0.0,0.0,0.0,-137.005,61.990356,175.578
1768029305020,-0.8876953,-0.30908203,-0.3310547,0.12207031,0.24414062,-0.24414062,0.0,0.0,0.0,-136.98853,61.97937,175.53406
1768029305108,-0.88183594,-0.30517578,-0.33398438,0.79345703,-0.61035156,-0.24414062,0.0,0.0,0.0,-136.98853,61.97937,175.53406
1768029305119,-0.88183594,-0.30517578,-0.33398438,0.79345703,-0.61035156,-0.24414062,0.0,0.0,0.0,-136.87866,62.0343,175.64392
1768029305207,-0.8852539,-0.31835938,-0.3388672,0.12207031,-0.8544922,0.18310547,0.0,0.0,0.0,-136.87866,62.0343,175.64392
1768029305219,-0.8852539,-0.31835938,-0.3388672,0.12207031,-0.8544922,0.18310547,0.0,0.0,0.0,-136.70837,62.122192,175.7428
1768029305307,-0.8881836,-0.31396484,-0.3466797,-0.61035156,0.24414062,-0.48828125,0.0,0.0,0.0,-136.70837,62.122192,175.7428
1768029305319,-0.8881836,-0.31396484,-0.3466797,-0.61035156,0.24414062,-0.48828125,0.0,0.0,0.0,-136.69739,62.15515,175.8252
1768029305407,-0.88623047,-0.3076172,-0.3408203,0.9765625,-1.5258789,0.0,0.0,0.0,0.0,-136.69739,62.15515,175.8252
1768029305418,-0.88623047,-0.3076172,-0.3408203,0.9765625,-1.5258789,0.0,0.0,0.0,0.0,-136.54907,62.210083,176.02295
1768029305507,-0.890625,-0.3154297,-0.3334961,1.0375977,-1.953125,0.6713867,0.0,0.0,0.0,-136.54907,62.210083,176.02295
1768029305518,-0.890625,-0.3154297,-0.3334961,1.0375977,-1.953125,0.6713867,0.0,0.0,0.0,-136.2854,62.374878,176.19324
1768029305606,-0.89208984,-0.32080078,-0.33398438,0.6713867,0.0,-0.12207031,0.0,0.0,0.0,-136.2854,62.374878,176.19324
1768029305618,-0.89208984,-0.32080078,-0.33398438,0.6713867,0.0,-0.12207031,0.0,0.0,0.0,-136.13708,62.473755,176.31409
1768029305707,-0.8901367,-0.31347656,-0.33642578,0.061035156,0.0,0.0,0.0,0.0,0.0,-136.13708,62.473755,176.31409
1768029305718,-0.8901367,-0.31347656,-0.33642578,0.061035156,0.0,0.0,0.0,0.0,0.0,-136.10413,62.46277,176.3086
1768029305806,-0.8964844,-0.31396484,-0.3305664,-0.4272461,-0.24414062,0.18310547,0.0,0.0,0.0,-136.10413,62.46277,176.3086
1768029305817,-0.8964844,-0.31396484,-0.3305664,-0.4272461,-0.24414062,0.18310547,0.0,0.0,0.0,-136.05469,62.50122,176.32507
1768029305906,-0.8881836,-0.31835938,-0.33007812,0.0,-0.9765625,0.36621094,0.0,0.0,0.0,-136.05469,62.50122,176.32507
1768029305917,-0.8881836,-0.31835938,-0.33007812,0.0,-0.9765625,0.36621094,0.0,0.0,0.0,-136.15906,62.50122,176.27014
1768029306005,-0.89404297,-0.31298828,-0.3359375,0.48828125,0.5493164,-0.6713867,0.0,0.0,0.0,-136.15906,62.50122,176.27014
1768029306017,-0.89404297,-0.31298828,-0.3359375,0.48828125,0.5493164,-0.6713867,0.0,0.0,0.0,-136.09863,62.523193,176.36902
1768029306106,-0.890625,-0.3178711,-0.34179688,0.0,0.30517578,-0.30517578,0.0,0.0,0.0,-136.09863,62.523193,176.36902
1768029306117,-0.890625,-0.3178711,-0.34179688,0.0,0.30517578,-0.30517578,0.0,0.0,0.0,-136.00525,62.506714,176.42944
1768029306205,-0.88720703,-0.3178711,-0.33544922,-0.24414062,0.0,-0.18310547,0.0,0.0,0.0,-136.00525,62.506714,176.42944
1768029306216,-0.88720703,-0.3178711,-0.33544922,-0.24414062,0.0,-0.18310547,0.0,0.0,0.0,-136.07666,62.435303,176.36353
1768029306304,-0.8901367,-0.3173828,-0.33251953,-1.159668,1.159668,-0.30517578,0.0,0.0,0.0,-136.07666,62.435303,176.36353
1768029306316,-0.8901367,-0.3173828,-0.33251953,-1.159668,1.159668,-0.30517578,0.0,0.0,0.0,-136.19202,62.36389,176.28662
1768029306405,-0.89501953,-0.31054688,-0.3095703,5.3710938,0.4272461,-1.4038086,0.0,0.0,0.0,-136.19202,62.36389,176.28662
1768029306416,-0.89501953,-0.31054688,-0.3095703,5.3710938,0.4272461,-1.4038086,0.0,0.0,0.0,-135.78003,62.330933,176.37451
1768029306504,-0.8886719,-0.3251953,-0.33007812,0.061035156,-0.36621094,-0.8544922,0.0,0.0,0.0,-135.78003,62.330933,176.37451
1768029306515,-0.8886719,-0.3251953,-0.33007812,0.061035156,-0.36621094,-0.8544922,0.0,0.0,0.0,-135.6372,62.30896,176.5393
1768029306603,-0.88671875,-0.3232422,-0.33496094,-0.79345703,0.24414062,-0.91552734,0.0,0.0,0.0,-135.6372,62.30896,176.5393
1768029306615,-0.88671875,-0.3232422,-0.33496094,-0.79345703,0.24414062,-0.91552734,0.0,0.0,0.0,-135.51636,62.270508,176.74805
1768029306703,-0.88720703,-0.3203125,-0.33789062,0.30517578,-1.2207031,0.061035156,0.0,0.0,0.0,-135.51636,62.270508,176.74805
1768029306714,-0.88720703,-0.3203125,-0.33789062,0.30517578,-1.2207031,0.061035156,0.0,0.0,0.0,-135.51636,62.276,176.79199
1768029306803,-0.8852539,-0.3178711,-0.32128906,-1.3427734,0.30517578,0.6713867,0.0,0.0,0.0,-135.51636,62.276,176.79199
1768029306814,-0.8852539,-0.3178711,-0.32128906,-1.3427734,0.30517578,0.6713867,0.0,0.0,0.0,-135.66467,62.226562,176.65466
1768029306902,-0.88916016,-0.31689453,-0.34423828,-0.12207031,-0.061035156,0.24414062,0.0,0.0,0.0,-135.66467,62.226562,176.65466
1768029306914,-0.88916016,-0.31689453,-0.34423828,-0.12207031,-0.061035156,0.24414062,0.0,0.0,0.0,-135.63171,62.314453,176.7096
1768029307002,-0.8911133,-0.32080078,-0.33398438,-0.36621094,-0.61035156,0.4272461,0.0,0.0,0.0,-135.63171,62.314453,176.7096
1768029307013,-0.8911133,-0.32080078,-0.33398438,-0.36621094,-0.61035156,0.4272461,0.0,0.0,0.0,-135.66467,62.3584,176.67114
1768029307102,-0.88964844,-0.3173828,-0.3251953,0.24414062,0.61035156,0.0,0.0,0.0,0.0,-135.66467,62.3584,176.67114
1768029307113,-0.88964844,-0.3173828,-0.3251953,0.24414062,0.61035156,0.0,0.0,0.0,0.0,-135.76904,62.29248,176.55579
1768029307201,-0.890625,-0.31689453,-0.33251953,0.24414062,0.8544922,0.24414062,0.0,0.0,0.0,-135.76904,62.29248,176.55579
1768029307213,-0.890625,-0.31689453,-0.33251953,0.24414062,0.8544922,0.24414062,0.0,0.0,0.0,-135.77454,62.276,176.49536
1768029307301,-0.88916016,-0.3178711,-0.3359375,0.79345703,0.0,-0.4272461,0.0,0.0,0.0,-135.77454,62.276,176.49536
1768029307312,-0.88916016,-0.3178711,-0.3359375,0.79345703,0.0,-0.4272461,0.0,0.0,0.0,-135.75256,62.265015,176.50635
1768029307401,-0.88916016,-0.32177734,-0.3334961,0.61035156,0.18310547,-0.18310547,0.0,0.0,0.0,-135.75256,62.265015,176.50635
1768029307412,-0.88916016,-0.32177734,-0.3334961,0.61035156,0.18310547,-0.18310547,0.0,0.0,0.0,-135.7251,62.23755,176.47339
1768029307500,-0.8901367,-0.32128906,-0.33544922,0.0,0.18310547,0.18310547,0.0,0.0,0.0,-135.7251,62.23755,176.47339
1768029307512,-0.8901367,-0.32128906,-0.33544922,0.0,0.18310547,0.18310547,0.0,0.0,0.0,-135.7196,62.248535,176.4679
1768029307600,-0.88916016,-0.3154297,-0.3310547,0.6713867,0.0,0.30517578,0.0,0.0,0.0,-135.7196,62.248535,176.4679
1768029307612,-0.88916016,-0.3154297,-0.3310547,0.6713867,0.0,0.30517578,0.0,0.0,0.0,-135.77454,62.248535,176.41846
1768029307700,-0.8925781,-0.32666016,-0.33789062,-0.9765625,-0.12207031,0.24414062,0.0,0.0,0.0,-135.77454,62.248535,176.41846
1768029307711,-0.8925781,-0.32666016,-0.33789062,-0.9765625,-0.12207031,0.24414062,0.0,0.0,0.0,-135.75256,62.336426,176.42395
1768029307800,-0.8911133,-0.32373047,-0.3251953,-0.5493164,-4.5166016,0.91552734,0.0,0.0,0.0,-135.75256,62.336426,176.42395
1768029307811,-0.8911133,-0.32373047,-0.3251953,-0.5493164,-4.5166016,0.91552734,0.0,0.0,0.0,-135.51086,62.594604,176.77002
1768029307900,-0.8925781,-0.3154297,-0.32128906,-0.30517578,-0.36621094,0.6713867,0.0,0.0,0.0,-135.51086,62.594604,176.77002
1768029307911,-0.8925781,-0.3154297,-0.32128906,-0.30517578,-0.36621094,0.6713867,0.0,0.0,0.0,-135.42297,62.70996,176.90735
1768029307999,-0.8955078,-0.3173828,-0.328125,-0.91552734,0.79345703,0.79345703,0.0,0.0,0.0,-135.42297,62.70996,176.90735
1768029308011,-0.8955078,-0.3173828,-0.328125,-0.91552734,0.79345703,0.79345703,0.0,0.0,0.0,-135.54932,62.803345,176.8634
1768029308099,-0.8925781,-0.31298828,-0.32861328,-0.36621094,-0.4272461,0.5493164,0.0,0.0,0.0,-135.54932,62.803345,176.8634
1768029308110,-0.8925781,-0.31298828,-0.32861328,-0.36621094,-0.4272461,0.5493164,0.0,0.0,0.0,-135.68665,62.858276,176.79199
1768029308198,-0.89160156,-0.30810547,-0.32421875,0.061035156,-0.12207031,0.061035156,0.0,0.0,0.0,-135.68665,62.858276,176.79199
1768029308210,-0.89160156,-0.30810547,-0.32421875,0.061035156,-0.12207031,0.061035156,0.0,0.0,0.0,-135.7196,62.885742,176.7865
1768029308298,-0.8959961,-0.30810547,-0.32421875,0.061035156,-0.12207031,0.12207031,0.0,0.0,0.0,-135.7196,62.885742,176.7865
1768029308310,-0.8959961,-0.30810547,-0.32421875,0.061035156,-0.12207031,0.12207031,0.0,0.0,0.0,-135.67017,62.929688,176.87439
1768029308398,-0.8955078,-0.31396484,-0.32714844,0.0,-0.61035156,0.0,0.0,0.0,0.0,-135.67017,62.929688,176.87439
1768029308409,-0.8955078,-0.31396484,-0.32714844,0.0,-0.61035156,0.0,0.0,0.0,0.0,-135.65918,62.96814,176.91284
1768029308497,-0.89453125,-0.3125,-0.32373047,0.24414062,0.91552734,-0.24414062,0.0,0.0,0.0,-135.65918,62.96814,176.91284
1768029308509,-0.89453125,-0.3125,-0.32373047,0.24414062,0.91552734,-0.24414062,0.0,0.0,0.0,-135.67017,62.924194,176.87988
1768029308597,-0.89453125,-0.31298828,-0.32373047,1.2817383,-0.12207031,0.0,0.0,0.0,0.0,-135.67017,62.924194,176.87988
1768029308609,-0.89453125,-0.31298828,-0.32373047,1.2817383,-0.12207031,0.0,0.0,0.0,0.0,-135.6372,62.90222,176.87988
1768029308697,-0.89453125,-0.3149414,-0.3232422,0.0,-0.9765625,0.30517578,0.0,0.0,0.0,-135.6372,62.90222,176.87988
1768029308708,-0.89453125,-0.3149414,-0.3232422,0.0,-0.9765625,0.30517578,0.0,0.0,0.0,-135.7251,62.858276,176.7865
1768029308797,-0.89501953,-0.31298828,-0.32666016,1.0986328,0.9765625,-1.159668,0.0,0.0,0.0,-135.7251,62.858276,176.7865
1768029308808,-0.89501953,-0.31298828,-0.32666016,1.0986328,0.9765625,-1.159668,0.0,0.0,0.0,-135.47241,62.819824,176.95679
1768029308896,-0.8959961,-0.32080078,-0.3305664,-0.30517578,-0.18310547,-0.4272461,0.0,0.0,0.0,-135.47241,62.819824,176.95679
1768029308908,-0.8959961,-0.32080078,-0.3305664,-0.30517578,-0.18310547,-0.4272461,0.0,0.0,0.0,-135.35156,62.7594,177.0282
1768029308996,-0.88964844,-0.31933594,-0.31982422,-0.24414062,1.159668,-0.48828125,0.0,0.0,0.0,-135.35156,62.7594,177.0282
1768029309007,-0.88964844,-0.31933594,-0.31982422,-0.24414062,1.159668,-0.48828125,0.0,0.0,0.0,-135.39551,62.633057,176.98425
1768029309096,-0.88964844,-0.31689453,-0.32861328,-0.12207031,0.91552734,-0.18310547,0.0,0.0,0.0,-135.39551,62.633057,176.98425
1768029309107,-0.88964844,-0.31689453,-0.32861328,-0.12207031,0.91552734,-0.18310547,0.0,0.0,0.0,-135.48889,62.55066,176.90735
1768029309195,-0.8911133,-0.31835938,-0.32714844,-0.4272461,0.0,-0.48828125,0.0,0.0,0.0,-135.48889,62.55066,176.90735
1768029309207,-0.8911133,-0.31835938,-0.32714844,-0.4272461,0.0,-0.48828125,0.0,0.0,0.0,-135.5603,62.512207,176.8634
1768029309295,-0.8925781,-0.31640625,-0.32910156,-0.12207031,0.4272461,-0.12207031,0.0,0.0,0.0,-135.5603,62.512207,176.8634
1768029309307,-0.8925781,-0.31640625,-0.32910156,-0.12207031,0.4272461,-0.12207031,0.0,0.0,0.0,-135.57678,62.473755,176.87988
1768029309396,-0.89160156,-0.31689453,-0.32763672,0.4272461,0.0,-0.18310547,0.0,0.0,0.0,-135.57678,62.473755,176.87988
1768029309406,-0.89160156,-0.31689453,-0.32763672,0.4272461,0.0,-0.18310547,0.0,0.0,0.0,-135.54932,62.479248,176.90735
1768029309495,-0.88623047,-0.32080078,-0.32763672,0.91552734,-0.24414062,0.12207031,0.0,0.0,0.0,-135.54932,62.479248,176.90735
1768029309506,-0.88623047,-0.32080078,-0.32763672,0.91552734,-0.24414062,0.12207031,0.0,0.0,0.0,-135.48889,62.473755,176.91284
1768029309594,-0.8886719,-0.31591797,-0.32861328,-0.18310547,1.5258789,-0.36621094,0.0,0.0,0.0,-135.48889,62.473755,176.91284
1768029309606,-0.8886719,-0.31591797,-0.32861328,-0.18310547,1.5258789,-0.36621094,0.0,0.0,0.0,-135.45593,62.457275,176.91284
1768029309694,-0.8930664,-0.31396484,-0.3305664,0.061035156,-0.7324219,-0.30517578,0.0,0.0,0.0,-135.45593,62.457275,176.91284
1768029309706,-0.8930664,-0.31396484,-0.3305664,0.061035156,-0.7324219,-0.30517578,0.0,0.0,0.0,-135.46143,62.473755,176.90186
1768029309794,-0.8886719,-0.31933594,-0.32421875,0.30517578,-0.5493164,0.061035156,0.0,0.0,0.0,-135.46143,62.473755,176.90186
1768029309805,-0.8886719,-0.31933594,-0.32421875,0.30517578,-0.5493164,0.061035156,0.0,0.0,0.0,-135.36804,62.479248,176.9513
1768029309893,-0.8901367,-0.3178711,-0.32714844,0.0,1.159668,-0.18310547,0.0,0.0,0.0,-135.36804,62.479248,176.9513
1768029309905,-0.8901367,-0.3178711,-0.32714844,0.0,1.159668,-0.18310547,0.0,0.0,0.0,-135.39001,62.473755,176.9513
1768029309993,-0.8911133,-0.31640625,-0.32910156,0.4272461,0.5493164,-0.18310547,0.0,0.0,0.0,-135.39001,62.473755,176.9513
1768029310005,-0.8911133,-0.31640625,-0.32910156,0.4272461,0.5493164,-0.18310547,0.0,0.0,0.0,-135.42297,62.440796,176.89087
1768029310093,-0.890625,-0.31982422,-0.33007812,0.12207031,-0.18310547,0.0,0.0,0.0,0.0,-135.42297,62.440796,176.89087
1768029310104,-0.890625,-0.31982422,-0.33007812,0.12207031,-0.18310547,0.0,0.0,0.0,0.0,-135.41199,62.435303,176.87439
1768029310193,-0.890625,-0.32177734,-0.328125,0.18310547,0.0,-0.18310547,0.0,0.0,0.0,-135.41199,62.435303,176.87439
1768029310204,-0.890625,-0.32177734,-0.328125,0.18310547,0.0,-0.18310547,0.0,0.0,0.0,-135.38452,62.435303,176.90186
1768029310292,-0.8901367,-0.32226562,-0.3310547,0.36621094,-0.12207031,-0.30517578,0.0,0.0,0.0,-135.38452,62.435303,176.90186
1768029310304,-0.8901367,-0.32226562,-0.3310547,0.36621094,-0.12207031,-0.30517578,0.0,0.0,0.0,-135.3186,62.44629,176.93481
1768029310392,-0.88964844,-0.31445312,-0.32763672,1.0986328,-0.24414062,-0.48828125,0.0,0.0,0.0,-135.3186,62.44629,176.93481
1768029310404,-0.88964844,-0.31445312,-0.32763672,1.0986328,-0.24414062,-0.48828125,0.0,0.0,0.0,-135.19226,62.418823,177.00073
1768029310492,-0.8935547,-0.33251953,-0.32714844,0.6713867,-0.24414062,0.4272461,0.0,0.0,0.0,-135.19226,62.418823,177.00073
1768029310503,-0.8935547,-0.33251953,-0.32714844,0.6713867,-0.24414062,0.4272461,0.0,0.0,0.0,-135.04944,62.44629,177.07764
1768029310591,-0.8847656,-0.33398438,-0.31884766,-0.8544922,-0.7324219,0.61035156,0.0,0.0,0.0,-135.04944,62.44629,177.07764
1768029310603,-0.8847656,-0.33398438,-0.31884766,-0.8544922,-0.7324219,0.61035156,0.0,0.0,0.0,-135.19226,62.3584,176.9403
1768029310691,-0.89404297,-0.3149414,-0.3359375,-0.18310547,0.7324219,0.24414062,0.0,0.0,0.0,-135.19226,62.3584,176.9403
1768029310702,-0.89404297,-0.3149414,-0.3359375,-0.18310547,0.7324219,0.24414062,0.0,0.0,0.0,-135.17029,62.374878,177.01172
1768029310791,-0.89160156,-0.32421875,-0.33251953,-0.79345703,-0.36621094,0.7324219,0.0,0.0,0.0,-135.17029,62.374878,177.01172
1768029310803,-0.89160156,-0.32421875,-0.33251953,-0.79345703,-0.36621094,0.7324219,0.0,0.0,0.0,-135.30212,62.418823,176.91284
1768029310891,-0.89208984,-0.328125,-0.33398438,0.061035156,0.18310547,0.0,0.0,0.0,0.0,-135.30212,62.418823,176.91284
1768029310902,-0.89208984,-0.328125,-0.33398438,0.061035156,0.18310547,0.0,0.0,0.0,0.0,-135.35156,62.424316,176.8634
1768029310990,-0.8925781,-0.32128906,-0.32910156,-0.8544922,1.2817383,-0.5493164,0.0,0.0,0.0,-135.35156,62.424316,176.8634
1768029311002,-0.8925781,-0.32128906,-0.32910156,-0.8544922,1.2817383,-0.5493164,0.0,0.0,0.0,-135.45044,62.286987,176.76453
1768029311090,-0.8925781,-0.32226562,-0.3330078,-0.8544922,0.6713867,0.0,0.0,0.0,0.0,-135.45044,62.286987,176.76453
1768029311101,-0.8925781,-0.32226562,-0.3330078,-0.8544922,0.6713867,0.0,0.0,0.0,0.0,-135.59326,62.215576,176.68762
1768029311190,-0.88916016,-0.328125,-0.33447266,-1.0986328,0.61035156,-0.12207031,0.0,0.0,0.0,-135.59326,62.215576,176.68762
1768029311201,-0.88916016,-0.328125,-0.33447266,-1.0986328,0.61035156,-0.12207031,0.0,0.0,0.0,-135.75806,62.14966,176.58325
1768029311289,-0.88964844,-0.3227539,-0.33642578,-1.0986328,1.7089844,0.12207031,0.0,0.0,0.0,-135.75806,62.14966,176.58325
1768029311301,-0.88964844,-0.3227539,-0.33642578,-1.0986328,1.7089844,0.12207031,0.0,0.0,0.0,-136.02722,62.056274,176.40198
1768029311389,-0.88671875,-0.32421875,-0.34179688,0.0,1.3427734,0.18310547,0.0,0.0,0.0,-136.02722,62.056274,176.40198
1768029311400,-0.88671875,-0.32421875,-0.34179688,0.0,1.3427734,0.18310547,0.0,0.0,0.0,-136.23047,61.99585,176.25366
1768029311489,-0.88671875,-0.32177734,-0.3359375,-1.5869141,-0.24414062,0.61035156,0.0,0.0,0.0,-136.23047,61.99585,176.25366
1768029311500,-0.88671875,-0.32177734,-0.3359375,-1.5869141,-0.24414062,0.61035156,0.0,0.0,0.0,-136.49963,61.90796,176.07239
1768029311588,-0.8881836,-0.3178711,-0.34765625,0.061035156,1.2207031,-0.36621094,0.0,0.0,0.0,-136.49963,61.90796,176.07239
1768029311600,-0.8881836,-0.3178711,-0.34765625,0.061035156,1.2207031,-0.36621094,0.0,0.0,0.0,-136.53809,61.853027,176.05042
1768029311688,-0.8833008,-0.32080078,-0.34716797,-1.3427734,0.24414062,0.30517578,0.0,0.0,0.0,-136.53809,61.853027,176.05042
1768029311700,-0.8833008,-0.32080078,-0.34716797,-1.3427734,0.24414062,0.30517578,0.0,0.0,0.0,-136.64795,61.82556,175.96252
1768029311788,-0.8852539,-0.31884766,-0.3461914,-0.30517578,0.79345703,0.24414062,0.0,0.0,0.0,-136.64795,61.82556,175.96252
1768029311800,-0.8852539,-0.31884766,-0.3461914,-0.30517578,0.79345703,0.24414062,0.0,0.0,0.0,-136.9226,61.776123,175.74829
1768029311887,-0.8876953,-0.3178711,-0.34179688,1.0986328,0.7324219,-0.36621094,0.0,0.0,0.0,-136.9226,61.776123,175.74829
1768029311900,-0.8876953,-0.3178711,-0.34179688,1.0986328,0.7324219,-0.36621094,0.0,0.0,0.0,-136.98303,61.704712,175.59448
1768029311987,-0.8847656,-0.31884766,-0.3413086,0.12207031,-1.0375977,-0.061035156,0.0,0.0,0.0,-136.98303,61.704712,175.59448
1768029311999,-0.8847656,-0.31884766,-0.3413086,0.12207031,-1.0375977,-0.061035156,0.0,0.0,0.0,-136.81274,61.73767,175.72632
1768029312087,-0.8828125,-0.31640625,-0.34033203,0.12207031,-0.5493164,-0.18310547,0.0,0.0,0.0,-136.81274,61.73767,175.72632
1768029312099,-0.8828125,-0.31640625,-0.34033203,0.12207031,-0.5493164,-0.18310547,0.0,0.0,0.0,-136.6919,61.776123,175.8252
1768029312187,-0.8833008,-0.31884766,-0.34423828,0.36621094,0.12207031,0.061035156,0.0,0.0,0.0,-136.6919,61.776123,175.8252
1768029312198,-0.8833008,-0.31884766,-0.34423828,0.36621094,0.12207031,0.061035156,0.0,0.0,0.0,-136.69739,61.80359,175.85815
1768029312286,-0.88623047,-0.3203125,-0.3461914,-2.319336,-0.61035156,0.7324219,0.0,0.0,0.0,-136.69739,61.80359,175.85815
1768029312298,-0.88623047,-0.3203125,-0.3461914,-2.319336,-0.61035156,0.7324219,0.0,0.0,0.0,-136.85669,61.82556,175.78674
1768029312386,-0.8881836,-0.3154297,-0.35498047,-0.7324219,-0.061035156,0.18310547,0.0,0.0,0.0,-136.85669,61.82556,175.78674
1768029312397,-0.8881836,-0.3154297,-0.35498047,-0.7324219,-0.061035156,0.18310547,0.0,0.0,0.0,-136.9336,61.847534,175.77026
1768029312486,-0.8847656,-0.31396484,-0.3461914,-0.12207031,-0.91552734,0.4272461,0.0,0.0,0.0,-136.9336,61.847534,175.77026
1768029312497,-0.8847656,-0.31396484,-0.3461914,-0.12207031,-0.91552734,0.4272461,0.0,0.0,0.0,-136.94458,61.885986,175.75928
1768029312585,-0.88720703,-0.31835938,-0.34326172,0.12207031,0.0,0.061035156,0.0,0.0,0.0,-136.94458,61.885986,175.75928
1768029312598,-0.88720703,-0.31835938,-0.34326172,0.12207031,0.0,0.061035156,0.0,0.0,0.0,-136.99951,61.902466,175.70435
1768029312685,-0.8852539,-0.31835938,-0.34228516,0.4272461,0.0,-0.36621094,0.0,0.0,0.0,-136.99951,61.902466,175.70435
1768029312697,-0.8852539,-0.31835938,-0.34228516,0.4272461,0.0,-0.36621094,0.0,0.0,0.0,-136.91711,61.896973,175.7373
1768029312785,-0.8876953,-0.31103516,-0.3466797,1.2817383,-1.5258789,-0.24414062,0.0,0.0,0.0,-136.91711,61.896973,175.7373
1768029312796,-0.8876953,-0.31103516,-0.3466797,1.2817383,-1.5258789,-0.24414062,0.0,0.0,0.0,-136.63696,61.96289,175.96252
1768029312885,-0.8881836,-0.31640625,-0.34277344,0.7324219,-0.12207031,-0.48828125,0.0,0.0,0.0,-136.63696,61.96289,175.96252
1768029312896,-0.8881836,-0.31640625,-0.34277344,0.7324219,-0.12207031,-0.48828125,0.0,0.0,0.0,-136.46118,62.01233,176.08337
1768029312984,-0.88671875,-0.3232422,-0.33740234,1.5258789,-0.79345703,-0.12207031,0.0,0.0,0.0,-136.46118,62.01233,176.08337
1768029312996,-0.88671875,-0.3232422,-0.33740234,1.5258789,-0.79345703,-0.12207031,0.0,0.0,0.0,-136.30188,62.023315,176.17126
1768029313084,-0.8857422,-0.3095703,-0.33203125,0.0,0.12207031,-0.24414062,0.0,0.0,0.0,-136.30188,62.023315,176.17126
1768029313095,-0.8857422,-0.3095703,-0.33203125,0.0,0.12207031,-0.24414062,0.0,0.0,0.0,-136.17554,61.99585,176.23718
1768029313184,-0.8876953,-0.31933594,-0.35009766,0.0,-1.4038086,0.24414062,0.0,0.0,0.0,-136.17554,61.99585,176.23718
1768029313195,-0.8876953,-0.31933594,-0.35009766,0.0,-1.4038086,0.24414062,0.0,0.0,0.0,-136.02722,62.111206,176.3855
1768029313283,-0.88916016,-0.32080078,-0.33544922,0.061035156,-0.30517578,0.061035156,0.0,0.0,0.0,-136.02722,62.111206,176.3855
1768029313295,-0.88916016,-0.32080078,-0.33544922,0.061035156,-0.30517578,0.061035156,0.0,0.0,0.0,-135.97778,62.13867,176.41296
1768029313383,-0.88916016,-0.31640625,-0.33496094,-0.5493164,0.24414062,0.36621094,0.0,0.0,0.0,-135.97778,62.13867,176.41296
1768029313395,-0.88916016,-0.31640625,-0.33496094,-0.5493164,0.24414062,0.36621094,0.0,0.0,0.0,-136.08765,62.1167,176.32507
1768029313483,-0.88916016,-0.3178711,-0.33984375,0.18310547,0.5493164,0.061035156,0.0,0.0,0.0,-136.08765,62.1167,176.32507
1768029313494,-0.88916016,-0.3178711,-0.33984375,0.18310547,0.5493164,0.061035156,0.0,0.0,0.0,-136.14807,62.122192,176.26465
1768029313582,-0.8925781,-0.31982422,-0.34716797,-0.91552734,0.0,-0.12207031,0.0,0.0,0.0,-136.14807,62.122192,176.26465
1768029313594,-0.8925781,-0.31982422,-0.34716797,-0.91552734,0.0,-0.12207031,0.0,0.0,0.0,-136.17554,62.13867,176.26465
1768029313682,-0.88427734,-0.3173828,-0.33007812,-0.061035156,1.0986328,-0.36621094,0.0,0.0,0.0,-136.17554,62.13867,176.26465
1768029313694,-0.88427734,-0.3173828,-0.33007812,-0.061035156,1.0986328,-0.36621094,0.0,0.0,0.0,-136.35132,62.017822,176.12732
1768029313782,-0.87353516,-0.31201172,-0.3251953,-0.18310547,0.4272461,0.0,0.0,0.0,0.0,-136.35132,62.017822,176.12732
1768029313794,-0.87353516,-0.31201172,-0.3251953,-0.18310547,0.4272461,0.0,0.0,0.0,0.0,-136.45569,61.935425,176.08887
1768029313882,-0.8979492,-0.33007812,-0.3671875,-3.2958984,-0.48828125,1.953125,0.0,0.0,0.0,-136.45569,61.935425,176.08887
1768029313893,-0.8979492,-0.33007812,-0.3671875,-3.2958984,-0.48828125,1.953125,0.0,0.0,0.0,-136.06018,62.58362,177.00073
1768029313981,-0.90478516,-0.31396484,-0.33007812,-1.5869141,-3.7231445,1.8920898,0.0,0.0,0.0,-136.06018,62.58362,177.00073
1768029313993,-0.90478516,-0.31396484,-0.33007812,-1.5869141,-3.7231445,1.8920898,0.0,0.0,0.0,-136.42822,62.841797,176.83594
1768029314081,-0.90234375,-0.29833984,-0.32714844,0.0,-3.2348633,0.4272461,0.0,0.0,0.0,-136.42822,62.841797,176.83594
1768029314093,-0.90234375,-0.29833984,-0.32714844,0.0,-3.2348633,0.4272461,0.0,0.0,0.0,-136.38977,62.990112,176.8634
1768029314181,-0.89404297,-0.30664062,-0.32470703,-1.4648438,-4.638672,2.5634766,0.0,0.0,0.0,-136.38977,62.990112,176.8634
1768029314192,-0.89404297,-0.30664062,-0.32470703,-1.4648438,-4.638672,2.5634766,0.0,0.0,0.0,-136.14258,63.407593,177.25342
1768029314280,-0.89746094,-0.30126953,-0.32861328,-0.18310547,0.0,0.6713867,0.0,0.0,0.0,-136.14258,63.407593,177.25342
1768029314292,-0.89746094,-0.30126953,-0.32861328,-0.18310547,0.0,0.6713867,0.0,0.0,0.0,-136.1261,63.709717,177.33032
1768029314380,-0.8989258,-0.29345703,-0.31103516,-0.7324219,-0.5493164,0.7324219,0.0,0.0,0.0,-136.1261,63.709717,177.33032
1768029314392,-0.8989258,-0.29345703,-0.31103516,-0.7324219,-0.5493164,0.7324219,0.0,0.0,0.0,-136.27441,63.726196,177.20947
1768029314480,-0.9057617,-0.296875,-0.3178711,0.0,-0.18310547,0.4272461,0.0,0.0,0.0,-136.27441,63.726196,177.20947
1768029314491,-0.9057617,-0.296875,-0.3178711,0.0,-0.18310547,0.4272461,0.0,0.0,0.0,-136.40625,63.825073,177.1875
1768029314580,-0.90625,-0.2998047,-0.31298828,0.18310547,0.30517578,-0.12207031,0.0,0.0,0.0,-136.40625,63.825073,177.1875
1768029314591,-0.90625,-0.2998047,-0.31298828,0.18310547,0.30517578,-0.12207031,0.0,0.0,0.0,-136.45569,63.81958,177.13806
1768029314679,-0.9008789,-0.296875,-0.32080078,1.159668,0.5493164,-0.36621094,0.0,0.0,0.0,-136.45569,63.81958,177.13806
1768029314691,-0.9008789,-0.296875,-0.32080078,1.159668,0.5493164,-0.36621094,0.0,0.0,0.0,-136.41724,63.77014,177.14355
1768029314779,-0.89746094,-0.29833984,-0.31835938,1.7089844,2.5634766,-0.79345703,0.0,0.0,0.0,-136.41724,63.77014,177.14355
1768029314791,-0.89746094,-0.29833984,-0.31835938,1.7089844,2.5634766,-0.79345703,0.0,0.0,0.0,-136.38977,63.66028,177.03369
1768029314879,-0.90283203,-0.30664062,-0.31298828,1.5869141,0.4272461,-1.2817383,0.0,0.0,0.0,-136.38977,63.66028,177.03369
1768029314890,-0.90283203,-0.30664062,-0.31298828,1.5869141,0.4272461,-1.2817383,0.0,0.0,0.0,-136.24146,63.572388,177.05017
1768029314978,-0.8979492,-0.30419922,-0.3256836,1.7700195,0.061035156,-0.91552734,0.0,0.0,0.0,-136.24146,63.572388,177.05017
1768029314990,-0.8979492,-0.30419922,-0.3256836,1.7700195,0.061035156,-0.91552734,0.0,0.0,0.0,-135.8075,63.55591,177.38525
1768029315078,-0.8989258,-0.3022461,-0.32421875,0.061035156,0.30517578,-0.061035156,0.0,0.0,0.0,-135.8075,63.55591,177.38525
1768029315090,-0.8989258,-0.3022461,-0.32421875,0.061035156,0.30517578,-0.061035156,0.0,0.0,0.0,-135.75806,63.52295,177.37427
1768029315178,-0.89941406,-0.30566406,-0.31835938,0.18310547,-1.3427734,0.0,0.0,0.0,0.0,-135.75806,63.52295,177.37427
1768029315189,-0.89941406,-0.30566406,-0.31835938,0.18310547,-1.3427734,0.0,0.0,0.0,0.0,-135.70312,63.550415,177.41821
1768029315277,-0.89990234,-0.30615234,-0.31591797,0.9765625,-0.48828125,-0.36621094,0.0,0.0,0.0,-135.70312,63.550415,177.41821
1768029315289,-0.89990234,-0.30615234,-0.31591797,0.9765625,-0.48828125,-0.36621094,0.0,0.0,0.0,-135.44495,63.61084,177.67639
1768029315377,-0.9003906,-0.31103516,-0.31591797,0.5493164,-0.4272461,0.12207031,0.0,0.0,0.0,-135.44495,63.61084,177.67639
1768029315389,-0.9003906,-0.31103516,-0.31591797,0.5493164,-0.4272461,0.12207031,0.0,0.0,0.0,-135.28564,63.638306,178.00049
1768029315477,-0.9003906,-0.3076172,-0.32128906,0.91552734,0.8544922,-0.9765625,0.0,0.0,0.0,-135.28564,63.638306,178.00049
1768029315488,-0.9003906,-0.3076172,-0.32128906,0.91552734,0.8544922,-0.9765625,0.0,0.0,0.0,-135.14832,63.61084,178.33008
1768029315577,-0.8964844,-0.3017578,-0.3173828,0.9765625,2.5024414,-1.159668,0.0,0.0,0.0,-135.14832,63.61084,178.33008
1768029315588,-0.8964844,-0.3017578,-0.3173828,0.9765625,2.5024414,-1.159668,0.0,0.0,0.0,-135.26367,63.347168,178.36853
1768029315676,-0.8955078,-0.31591797,-0.32470703,-0.18310547,3.9672852,-1.7089844,0.0,0.0,0.0,-135.26367,63.347168,178.36853
1768029315688,-0.8955078,-0.31591797,-0.32470703,-0.18310547,3.9672852,-1.7089844,0.0,0.0,0.0,-135.401,63.099976,178.48938
1768029315776,-0.8930664,-0.3149414,-0.32470703,0.18310547,0.48828125,-0.6713867,0.0,0.0,0.0,-135.401,63.099976,178.48938
1768029315787,-0.8930664,-0.3149414,-0.32470703,0.18310547,0.48828125,-0.6713867,0.0,0.0,0.0,-135.5658,62.907715,178.52783
1768029315876,-0.89501953,-0.3173828,-0.3251953,-0.6713867,1.4038086,0.0,0.0,0.0,0.0,-135.5658,62.907715,178.52783
1768029315887,-0.89501953,-0.3173828,-0.3251953,-0.6713867,1.4038086,0.0,0.0,0.0,0.0,-135.7251,62.786865,178.50037
1768029315975,-0.89453125,-0.32080078,-0.33203125,-1.3427734,2.1972656,-0.061035156,0.0,0.0,0.0,-135.7251,62.786865,178.50037
1768029315987,-0.89453125,-0.32080078,-0.33203125,-1.3427734,2.1972656,-0.061035156,0.0,0.0,0.0,-135.97229,62.69348,178.29163
1768029316075,-0.8901367,-0.31396484,-0.33447266,-0.48828125,1.4038086,0.061035156,0.0,0.0,0.0,-135.97229,62.69348,178.29163
1768029316087,-0.8901367,-0.31396484,-0.33447266,-0.48828125,1.4038086,0.061035156,0.0,0.0,0.0,-136.25244,62.58911,178.01147
1768029316175,-0.8901367,-0.31103516,-0.32958984,-0.36621094,1.0375977,0.30517578,0.0,0.0,0.0,-136.25244,62.58911,178.01147
1768029316186,-0.8901367,-0.31103516,-0.32958984,-0.36621094,1.0375977,0.30517578,0.0,0.0,0.0,-136.48315,62.490234,177.72583
1768029316275,-0.8925781,-0.31152344,-0.3408203,-0.61035156,1.2207031,0.0,0.0,0.0,0.0,-136.48315,62.490234,177.72583
1768029316286,-0.8925781,-0.31152344,-0.3408203,-0.61035156,1.2207031,0.0,0.0,0.0,0.0,-136.65894,62.457275,177.54456
1768029316374,-0.8886719,-0.31298828,-0.33496094,-0.30517578,1.8310547,-0.24414062,0.0,0.0,0.0,-136.65894,62.457275,177.54456
1768029316386,-0.8886719,-0.31298828,-0.33496094,-0.30517578,1.8310547,-0.24414062,0.0,0.0,0.0,-136.88965,62.336426,177.2644
1768029316474,-0.8857422,-0.3100586,-0.33203125,0.0,-0.9765625,0.0,0.0,0.0,0.0,-136.88965,62.336426,177.2644
1768029316485,-0.8857422,-0.3100586,-0.33203125,0.0,-0.9765625,0.0,0.0,0.0,0.0,-136.86218,62.347412,177.23145
1768029316574,-0.8930664,-0.31054688,-0.34716797,-1.953125,-7.3242188,1.0986328,0.0,0.0,0.0,-136.86218,62.347412,177.23145
1768029316586,-0.8930664,-0.31054688,-0.34716797,-1.953125,-7.3242188,1.0986328,0.0,0.0,0.0,-136.5216,62.611084,177.51709
1768029316673,-0.8959961,-0.31054688,-0.3330078,-1.0375977,-3.540039,0.4272461,0.0,0.0,0.0,-136.5216,62.611084,177.51709
1768029316685,-0.8959961,-0.31054688,-0.3330078,-1.0375977,-3.540039,0.4272461,0.0,0.0,0.0,-136.15906,62.913208,177.87415
1768029316773,-0.88623047,-0.30859375,-0.29833984,-0.36621094,-4.211426,0.24414062,0.0,0.0,0.0,-136.15906,62.913208,177.87415
1768029316785,-0.88623047,-0.30859375,-0.29833984,-0.36621094,-4.211426,0.24414062,0.0,0.0,0.0,-135.8789,63.03955,178.12683
1768029316873,-0.90234375,-0.30371094,-0.32421875,1.7700195,-1.7700195,-0.48828125,0.0,0.0,0.0,-135.8789,63.03955,178.12683
1768029316885,-0.90234375,-0.30371094,-0.32421875,1.7700195,-1.7700195,-0.48828125,0.0,0.0,0.0,-135.26367,63.363647,178.77502
1768029316973,-0.9033203,-0.31152344,-0.32470703,1.2817383,-3.479004,-0.36621094,0.0,0.0,0.0,-135.26367,63.363647,178.77502
1768029316984,-0.9033203,-0.31152344,-0.32470703,1.2817383,-3.479004,-0.36621094,0.0,0.0,0.0,-134.78577,63.451538,179.02222
1768029317072,-0.9003906,-0.31884766,-0.31103516,-0.5493164,-2.0751953,0.0,0.0,0.0,0.0,-134.78577,63.451538,179.02222
1768029317084,-0.9003906,-0.31884766,-0.31103516,-0.5493164,-2.0751953,0.0,0.0,0.0,0.0,-134.73083,63.45703,179.02771
1768029317172,-0.89501953,-0.3100586,-0.30273438,0.24414062,0.4272461,0.0,0.0,0.0,0.0,-134.73083,63.45703,179.02771
1768029317184,-0.89501953,-0.3100586,-0.30273438,0.24414062,0.4272461,0.0,0.0,0.0,0.0,-134.78027,63.391113,178.9563
1768029317272,-0.8984375,-0.3227539,-0.31982422,-1.953125,0.061035156,1.3427734,0.0,0.0,0.0,-134.78027,63.391113,178.9563
1768029317283,-0.8984375,-0.3227539,-0.31982422,-1.953125,0.061035156,1.3427734,0.0,0.0,0.0,-134.95605,63.451538,178.7915
1768029317371,-0.9013672,-0.31054688,-0.31103516,-1.5869141,0.18310547,0.91552734,0.0,0.0,0.0,-134.95605,63.451538,178.7915
1768029317383,-0.9013672,-0.31054688,-0.31103516,-1.5869141,0.18310547,0.91552734,0.0,0.0,0.0,-135.2472,63.479004,178.57178
1768029317471,-0.8984375,-0.30371094,-0.30615234,-0.91552734,2.2583008,0.79345703,0.0,0.0,0.0,-135.2472,63.479004,178.57178
1768029317483,-0.8984375,-0.30371094,-0.30615234,-0.91552734,2.2583008,0.79345703,0.0,0.0,0.0,-135.52734,63.446045,178.24219
1768029317571,-0.89941406,-0.30615234,-0.328125,-0.8544922,0.61035156,1.0986328,0.0,0.0,0.0,-135.52734,63.446045,178.24219
1768029317582,-0.89941406,-0.30615234,-0.328125,-0.8544922,0.61035156,1.0986328,0.0,0.0,0.0,-135.81299,63.533936,178.00598
1768029317671,-0.89941406,-0.30810547,-0.31884766,0.4272461,0.36621094,0.18310547,0.0,0.0,0.0,-135.81299,63.533936,178.00598
1768029317683,-0.89941406,-0.30810547,-0.31884766,0.4272461,0.36621094,0.18310547,0.0,0.0,0.0,-136.01624,63.479004,177.7533
1768029317770,-0.9013672,-0.30419922,-0.31591797,0.30517578,1.6479492,0.061035156,0.0,0.0,0.0,-136.01624,63.479004,177.7533
1768029317782,-0.9013672,-0.30419922,-0.31591797,0.30517578,1.6479492,0.061035156,0.0,0.0,0.0,-136.07117,63.429565,177.62695
1768029317870,-0.8989258,-0.30419922,-0.3232422,1.0375977,0.7324219,-0.30517578,0.0,0.0,0.0,-136.07117,63.429565,177.62695
1768029317881,-0.8989258,-0.30419922,-0.3232422,1.0375977,0.7324219,-0.30517578,0.0,0.0,0.0,-136.18103,63.33069,177.44568
1768029317970,-0.8979492,-0.3071289,-0.3251953,0.5493164,0.48828125,-0.30517578,0.0,0.0,0.0,-136.18103,63.33069,177.44568
1768029317981,-0.8979492,-0.3071289,-0.3251953,0.5493164,0.48828125,-0.30517578,0.0,0.0,0.0,-136.17554,63.28125,177.37976
1768029318069,-0.8979492,-0.30615234,-0.32666016,0.48828125,0.4272461,-0.18310547,0.0,0.0,0.0,-136.17554,63.28125,177.37976
1768029318081,-0.8979492,-0.30615234,-0.32666016,0.48828125,0.4272461,-0.18310547,0.0,0.0,0.0,-136.13708,63.24829,177.36877
1768029318169,-0.8955078,-0.3100586,-0.33789062,0.061035156,0.30517578,-0.4272461,0.0,0.0,0.0,-136.13708,63.24829,177.36877
1768029318181,-0.8955078,-0.3100586,-0.33789062,0.061035156,0.30517578,-0.4272461,0.0,0.0,0.0,-136.15356,63.204346,177.30835
1768029318269,-0.89404297,-0.30517578,-0.32910156,0.61035156,2.6855469,-0.61035156,0.0,0.0,0.0,-136.15356,63.204346,177.30835
1768029318280,-0.89404297,-0.30517578,-0.32910156,0.61035156,2.6855469,-0.61035156,0.0,0.0,0.0,-136.26343,63.045044,177.11609
1768029318368,-0.8979492,-0.30566406,-0.3305664,1.7700195,0.4272461,-0.12207031,0.0,0.0,0.0,-136.26343,63.045044,177.11609
1768029318380,-0.8979492,-0.30566406,-0.3305664,1.7700195,0.4272461,-0.12207031,0.0,0.0,0.0,-136.33484,62.929688,176.91833
1768029318468,-0.8857422,-0.31835938,-0.3310547,-0.48828125,0.36621094,0.4272461,0.0,0.0,0.0,-136.33484,62.929688,176.91833
1768029318480,-0.8857422,-0.31835938,-0.3310547,-0.48828125,0.36621094,0.4272461,0.0,0.0,0.0,-136.40625,62.88025,176.79749
1768029318568,-0.89208984,-0.30908203,-0.3408203,-1.3427734,1.3427734,0.4272461,0.0,0.0,0.0,-136.40625,62.88025,176.79749
1768029318579,-0.89208984,-0.30908203,-0.3408203,-1.3427734,1.3427734,0.4272461,0.0,0.0,0.0,-136.62598,62.803345,176.60522
1768029318668,-0.8911133,-0.3017578,-0.3383789,-0.7324219,0.91552734,0.30517578,0.0,0.0,0.0,-136.62598,62.803345,176.60522
1768029318680,-0.8911133,-0.3017578,-0.3383789,-0.7324219,0.91552734,0.30517578,0.0,0.0,0.0,-136.9281,62.753906,176.37451
1768029318767,-0.89160156,-0.3095703,-0.33789062,0.8544922,1.2207031,-0.48828125,0.0,0.0,0.0,-136.9281,62.753906,176.37451
1768029318779,-0.89160156,-0.3095703,-0.33789062,0.8544922,1.2207031,-0.48828125,0.0,0.0,0.0,-137.0874,62.677002,176.20422
1768029318867,-0.88916016,-0.30859375,-0.32763672,0.061035156,-0.48828125,0.061035156,0.0,0.0,0.0,-137.0874,62.677002,176.20422
1768029318879,-0.88916016,-0.30859375,-0.32763672,0.061035156,-0.48828125,0.061035156,0.0,0.0,0.0,-137.10938,62.578125,176.09985
1768029318967,-0.8935547,-0.30273438,-0.3305664,0.5493164,-1.0986328,0.061035156,0.0,0.0,0.0,-137.10938,62.578125,176.09985
1768029318978,-0.8935547,-0.30273438,-0.3305664,0.5493164,-1.0986328,0.061035156,0.0,0.0,0.0,-136.96106,62.67151,176.2262
1768029319066,-0.8959961,-0.31103516,-0.3359375,-0.24414062,-0.18310547,0.0,0.0,0.0,0.0,-136.96106,62.67151,176.2262
1768029319078,-0.8959961,-0.31103516,-0.3359375,-0.24414062,-0.18310547,0.0,0.0,0.0,0.0,-136.82373,62.731934,176.31409
1768029319166,-0.8886719,-0.31103516,-0.33691406,-2.319336,-0.24414062,0.48828125,0.0,0.0,0.0,-136.82373,62.731934,176.31409
1768029319178,-0.8886719,-0.31103516,-0.33691406,-2.319336,-0.24414062,0.48828125,0.0,0.0,0.0,-137.05994,62.715454,176.18774
1768029319266,-0.9008789,-0.30908203,-0.32421875,-0.36621094,-2.380371,0.91552734,0.0,0.0,0.0,-137.05994,62.715454,176.18774
1768029319277,-0.9008789,-0.30908203,-0.32421875,-0.36621094,-2.380371,0.91552734,0.0,0.0,0.0,-137.04895,62.84729,176.27563
1768029319366,-0.8955078,-0.29785156,-0.3330078,-0.8544922,1.4648438,-0.48828125,0.0,0.0,0.0,-137.04895,62.84729,176.27563
1768029319377,-0.8955078,-0.29785156,-0.3330078,-0.8544922,1.4648438,-0.48828125,0.0,0.0,0.0,-137.03247,62.891235,176.2976
1768029319466,-0.8959961,-0.30419922,-0.34179688,-1.0375977,0.30517578,-0.4272461,0.0,0.0,0.0,-137.03247,62.891235,176.2976
1768029319478,-0.8959961,-0.30419922,-0.34179688,-1.0375977,0.30517578,-0.4272461,0.0,0.0,0.0,-137.04895,62.90222,176.32507
1768029319565,-0.89160156,-0.31152344,-0.3256836,-0.5493164,1.5869141,0.12207031,0.0,0.0,0.0,-137.04895,62.90222,176.32507
1768029319576,-0.89160156,-0.31152344,-0.3256836,-0.5493164,1.5869141,0.12207031,0.0,0.0,0.0,-137.30713,62.770386,176.16028
1768029319665,-0.8876953,-0.30517578,-0.31933594,-0.24414062,0.18310547,1.0986328,0.0,0.0,0.0,-137.30713,62.770386,176.16028
1768029319676,-0.8876953,-0.30517578,-0.31933594,-0.24414062,0.18310547,1.0986328,0.0,0.0,0.0,-137.66968,62.753906,175.92407
1768029319764,-0.8930664,-0.29785156,-0.34570312,-1.4038086,0.18310547,0.5493164,0.0,0.0,0.0,-137.66968,62.753906,175.92407
1768029319776,-0.8930664,-0.29785156,-0.34570312,-1.4038086,0.18310547,0.5493164,0.0,0.0,0.0,-137.75208,62.84729,175.93506
1768029319864,-0.89941406,-0.30273438,-0.34326172,-1.7700195,-2.746582,0.8544922,0.0,0.0,0.0,-137.75208,62.84729,175.93506
1768029319876,-0.89941406,-0.30273438,-0.34326172,-1.7700195,-2.746582,0.8544922,0.0,0.0,0.0,-137.82349,62.979126,175.92957
1768029319964,-0.8925781,-0.30371094,-0.3227539,1.5869141,2.1972656,0.24414062,0.0,0.0,0.0,-137.82349,62.979126,175.92957
1768029319975,-0.8925781,-0.30371094,-0.3227539,1.5869141,2.1972656,0.24414062,0.0,0.0,0.0,-137.8949,62.957153,175.78674
1768029320064,-0.89453125,-0.30029297,-0.33642578,0.6713867,-0.48828125,-0.36621094,0.0,0.0,0.0,-137.8949,62.957153,175.78674
1768029320075,-0.89453125,-0.30029297,-0.33642578,0.6713867,-0.48828125,-0.36621094,0.0,0.0,0.0,-137.70264,62.995605,175.91858
1768029320163,-0.89208984,-0.29541016,-0.33154297,0.8544922,-0.30517578,-0.12207031,0.0,0.0,0.0,-137.70264,62.995605,175.91858
1768029320175,-0.89208984,-0.29541016,-0.33154297,0.8544922,-0.30517578,-0.12207031,0.0,0.0,0.0,-137.6532,62.98462,175.9076
1768029320263,-0.8930664,-0.30078125,-0.34375,-0.30517578,-1.7700195,0.12207031,0.0,0.0,0.0,-137.6532,62.98462,175.9076
1768029320274,-0.8930664,-0.30078125,-0.34375,-0.30517578,-1.7700195,0.12207031,0.0,0.0,0.0,-137.34558,63.149414,176.18225
1768029320363,-0.8984375,-0.3017578,-0.34472656,0.061035156,-2.746582,0.18310547,0.0,0.0,0.0,-137.34558,63.149414,176.18225
1768029320374,-0.8984375,-0.3017578,-0.34472656,0.061035156,-2.746582,0.18310547,0.0,0.0,0.0,-137.19727,63.29773,176.3086
1768029320462,-0.8959961,-0.29882812,-0.31347656,-0.061035156,0.8544922,0.36621094,0.0,0.0,0.0,-137.19727,63.29773,176.3086
1768029320474,-0.8959961,-0.29882812,-0.31347656,-0.061035156,0.8544922,0.36621094,0.0,0.0,0.0,-137.21924,63.303223,176.27014
1768029320562,-0.9033203,-0.3022461,-0.34375,0.6713867,-0.61035156,-0.30517578,0.0,0.0,0.0,-137.21924,63.303223,176.27014
1768029320573,-0.9033203,-0.3022461,-0.34375,0.6713867,-0.61035156,-0.30517578,0.0,0.0,0.0,-137.0874,63.380127,176.37451
1768029320662,-0.9008789,-0.2998047,-0.32177734,1.159668,-0.36621094,0.0,0.0,0.0,0.0,-137.0874,63.380127,176.37451
1768029320673,-0.9008789,-0.2998047,-0.32177734,1.159668,-0.36621094,0.0,0.0,0.0,0.0,-137.05994,63.325195,176.33606
1768029320761,-0.88964844,-0.30029297,-0.3227539,1.2207031,0.24414062,-0.4272461,0.0,0.0,0.0,-137.05994,63.325195,176.33606
1768029320773,-0.88964844,-0.30029297,-0.3227539,1.2207031,0.24414062,-0.4272461,0.0,0.0,0.0,-136.84021,63.347168,176.49536
1768029320861,-0.8959961,-0.30273438,-0.32421875,0.9765625,0.12207031,-0.5493164,0.0,0.0,0.0,-136.84021,63.347168,176.49536
1768029320873,-0.8959961,-0.30273438,-0.32421875,0.9765625,0.12207031,-0.5493164,0.0,0.0,0.0,-136.73035,63.363647,176.58875
1768029320961,-0.89501953,-0.29492188,-0.35253906,-3.1738281,-4.333496,-0.7324219,0.0,0.0,0.0,-136.73035,63.363647,176.58875
1768029320972,-0.89501953,-0.29492188,-0.35253906,-3.1738281,-4.333496,-0.7324219,0.0,0.0,0.0,-136.49414,63.391113,176.80847
1768029321061,-0.89941406,-0.3017578,-0.32666016,-1.2817383,-2.1972656,0.36621094,0.0,0.0,0.0,-136.49414,63.391113,176.80847
1768029321072,-0.89941406,-0.3017578,-0.32666016,-1.2817383,-2.1972656,0.36621094,0.0,0.0,0.0,-136.34583,63.446045,176.9403
1768029321160,-0.89746094,-0.30517578,-0.32617188,0.30517578,-0.7324219,0.18310547,0.0,0.0,0.0,-136.34583,63.446045,176.9403
1768029321172,-0.89746094,-0.30517578,-0.32617188,0.30517578,-0.7324219,0.18310547,0.0,0.0,0.0,-136.23596,63.528442,177.05566
1768029321260,-0.9013672,-0.29785156,-0.31445312,-0.9765625,0.24414062,0.79345703,0.0,0.0,0.0,-136.23596,63.528442,177.05566
1768029321271,-0.9013672,-0.29785156,-0.31445312,-0.9765625,0.24414062,0.79345703,0.0,0.0,0.0,-136.2854,63.484497,176.99524
1768029321360,-0.9003906,-0.296875,-0.3251953,0.12207031,0.4272461,0.0,0.0,0.0,0.0,-136.2854,63.484497,176.99524
1768029321371,-0.9003906,-0.296875,-0.3251953,0.12207031,0.4272461,0.0,0.0,0.0,0.0,-136.32385,63.53943,176.98425
1768029321460,-0.90234375,-0.3046875,-0.3227539,0.30517578,-0.12207031,-0.18310547,0.0,0.0,0.0,-136.32385,63.53943,176.98425
1768029321471,-0.90234375,-0.3046875,-0.3227539,0.30517578,-0.12207031,-0.18310547,0.0,0.0,0.0,-136.31287,63.533936,176.96777
1768029321559,-0.9013672,-0.30517578,-0.31835938,0.48828125,0.79345703,-0.12207031,0.0,0.0,0.0,-136.31287,63.533936,176.96777
1768029321571,-0.9013672,-0.30517578,-0.31835938,0.48828125,0.79345703,-0.12207031,0.0,0.0,0.0,-136.33484,63.479004,176.89636
1768029321659,-0.8964844,-0.30664062,-0.32470703,1.6479492,1.0986328,-0.6713867,0.0,0.0,0.0,-136.33484,63.479004,176.89636
1768029321670,-0.8964844,-0.30664062,-0.32470703,1.6479492,1.0986328,-0.6713867,0.0,0.0,0.0,-136.25244,63.396606,176.84692
1768029321758,-0.8955078,-0.30859375,-0.32080078,0.91552734,0.36621094,-0.24414062,0.0,0.0,0.0,-136.25244,63.396606,176.84692
1768029321770,-0.8955078,-0.30859375,-0.32080078,0.91552734,0.36621094,-0.24414062,0.0,0.0,0.0,-136.18103,63.29773,176.77551
1768029321858,-0.90185547,-0.30566406,-0.33007812,0.30517578,0.5493164,0.0,0.0,0.0,0.0,-136.18103,63.29773,176.77551
1768029321870,-0.90185547,-0.30566406,-0.33007812,0.30517578,0.5493164,0.0,0.0,0.0,0.0,-136.19202,63.26477,176.72058
1768029321958,-0.89501953,-0.30566406,-0.32714844,-0.8544922,1.8310547,-0.12207031,0.0,0.0,0.0,-136.19202,63.26477,176.72058
1768029321970,-0.89501953,-0.30566406,-0.32714844,-0.8544922,1.8310547,-0.12207031,0.0,0.0,0.0,-136.35681,63.204346,176.61072
1768029322058,-0.8964844,-0.30419922,-0.3334961,-0.8544922,2.319336,-0.24414062,0.0,0.0,0.0,-136.35681,63.204346,176.61072
1768029322070,-0.8964844,-0.30419922,-0.3334961,-0.8544922,2.319336,-0.24414062,0.0,0.0,0.0,-136.70288,63.067017,176.34705
1768029322157,-0.8964844,-0.30615234,-0.33251953,-0.61035156,2.2583008,-0.4272461,0.0,0.0,0.0,-136.70288,63.067017,176.34705
1768029322169,-0.8964844,-0.30615234,-0.33251953,-0.61035156,2.2583008,-0.4272461,0.0,0.0,0.0,-136.97754,62.913208,176.09985
1768029322257,-0.89160156,-0.30810547,-0.33789062,-0.4272461,0.48828125,-0.061035156,0.0,0.0,0.0,-136.97754,62.913208,176.09985
1768029322268,-0.89160156,-0.30810547,-0.33789062,-0.4272461,0.48828125,-0.061035156,0.0,0.0,0.0,-137.31262,62.770386,175.89111
1768029322357,-0.89160156,-0.30859375,-0.34277344,-0.36621094,0.91552734,-0.79345703,0.0,0.0,0.0,-137.31262,62.770386,175.89111
1768029322368,-0.89160156,-0.30859375,-0.34277344,-0.36621094,0.91552734,-0.79345703,0.0,0.0,0.0,-137.38953,62.666016,175.85815
1768029322456,-0.8925781,-0.30615234,-0.34716797,-0.8544922,1.159668,-0.61035156,0.0,0.0,0.0,-137.38953,62.666016,175.85815
1768029322468,-0.8925781,-0.30615234,-0.34716797,-0.8544922,1.159668,-0.61035156,0.0,0.0,0.0,-137.39502,62.56714,175.88562
1768029322556,-0.8911133,-0.3100586,-0.3383789,-0.91552734,0.7324219,0.7324219,0.0,0.0,0.0,-137.39502,62.56714,175.88562
1768029322567,-0.8911133,-0.3100586,-0.3383789,-0.91552734,0.7324219,0.7324219,0.0,0.0,0.0,-137.66418,62.46277,175.63843
1768029322656,-0.8925781,-0.30419922,-0.33740234,0.061035156,0.4272461,-0.12207031,0.0,0.0,0.0,-137.66418,62.46277,175.63843
1768029322667,-0.8925781,-0.30419922,-0.33740234,0.061035156,0.4272461,-0.12207031,0.0,0.0,0.0,-137.818,62.42981,175.55603
1768029322755,-0.890625,-0.30029297,-0.33691406,0.0,-0.4272461,0.12207031,0.0,0.0,0.0,-137.818,62.42981,175.55603
1768029322767,-0.890625,-0.30029297,-0.33691406,0.0,-0.4272461,0.12207031,0.0,0.0,0.0,-137.77954,62.44629,175.58899
1768029322855,-0.8901367,-0.3046875,-0.34326172,-0.61035156,0.0,0.24414062,0.0,0.0,0.0,-137.77954,62.44629,175.58899
1768029322867,-0.8901367,-0.3046875,-0.34326172,-0.61035156,0.0,0.24414062,0.0,0.0,0.0,-137.75208,62.5177,175.62195
1768029322955,-0.9243164,-0.3305664,-0.38378906,-8.911133,-10.620117,1.0986328,0.0,0.0,0.0,-137.75208,62.5177,175.62195
1768029322967,-0.9243164,-0.3305664,-0.38378906,-8.911133,-10.620117,1.0986328,0.0,0.0,0.0,-137.08191,63.14392,176.37451
1768029323054,-0.8691406,-0.29589844,-0.25634766,-6.958008,-1.5869141,1.953125,0.0,0.0,0.0,-137.08191,63.14392,176.37451
1768029323066,-0.8691406,-0.29589844,-0.25634766,-6.958008,-1.5869141,1.953125,0.0,0.0,0.0,-138.19702,62.633057,175.27588
1768029323154,-0.87402344,-0.29248047,-0.31152344,4.3945312,-0.7324219,-0.91552734,0.0,0.0,0.0,-138.19702,62.633057,175.27588
1768029323166,-0.87402344,-0.29248047,-0.31152344,4.3945312,-0.7324219,-0.91552734,0.0,0.0,0.0,-138.14209,62.720947,175.39124
1768029323254,-0.8935547,-0.30029297,-0.36523438,4.8828125,3.0517578,-0.91552734,0.0,0.0,0.0,-138.14209,62.720947,175.39124
1768029323265,-0.8935547,-0.30029297,-0.36523438,4.8828125,3.0517578,-0.91552734,0.0,0.0,0.0,-137.52136,62.731934,175.68787
1768029323353,-0.89746094,-0.3071289,-0.3491211,0.0,-0.24414062,0.0,0.0,0.0,0.0,-137.52136,62.731934,175.68787
1768029323365,-0.89746094,-0.3071289,-0.3491211,0.0,-0.24414062,0.0,0.0,0.0,0.0,-137.7301,62.53418,175.29236
1768029323453,-0.90283203,-0.3022461,-0.3256836,-0.18310547,-3.112793,1.0986328,0.0,0.0,0.0,-137.7301,62.53418,175.29236
1768029323465,-0.90283203,-0.3022461,-0.3256836,-0.18310547,-3.112793,1.0986328,0.0,0.0,0.0,-137.85645,62.616577,175.2539
1768029323553,-0.90185547,-0.29345703,-0.34179688,-4.5776367,-9.765625,2.8076172,0.0,0.0,0.0,-137.85645,62.616577,175.2539
1768029323565,-0.90185547,-0.29345703,-0.34179688,-4.5776367,-9.765625,2.8076172,0.0,0.0,0.0,-137.2467,63.33618,176.18225
1768029323653,-0.8925781,-0.3071289,-0.29296875,8.483887,-1.2817383,1.7089844,0.0,0.0,0.0,-137.2467,63.33618,176.18225
1768029323664,-0.8925781,-0.3071289,-0.29296875,8.483887,-1.2817383,1.7089844,0.0,0.0,0.0,-136.85669,63.66028,176.19324
1768029323752,-0.9033203,-0.2919922,-0.31298828,2.1362305,0.8544922,-0.9765625,0.0,0.0,0.0,-136.85669,63.66028,176.19324
1768029323764,-0.9033203,-0.2919922,-0.31298828,2.1362305,0.8544922,-0.9765625,0.0,0.0,0.0,-136.43372,63.68225,176.49536
1768029323852,-0.90478516,-0.3071289,-0.28564453,8.605957,4.211426,-1.3427734,0.0,0.0,0.0,-136.43372,63.68225,176.49536
1768029323864,-0.90478516,-0.3071289,-0.28564453,8.605957,4.211426,-1.3427734,0.0,0.0,0.0,-136.34033,63.68225,176.60522
1768029323952,-0.9013672,-0.2836914,-0.30029297,1.7700195,-5.1879883,-1.5869141,0.0,0.0,0.0,-136.34033,63.68225,176.60522
1768029323964,-0.9013672,-0.2836914,-0.30029297,1.7700195,-5.1879883,-1.5869141,0.0,0.0,0.0,-135.57129,63.68225,177.31934
1768029324052,-0.8989258,-0.2861328,-0.27539062,13.305664,1.0986328,0.24414062,0.0,0.0,0.0,-135.57129,63.68225,177.31934
1768029324063,-0.8989258,-0.2861328,-0.27539062,13.305664,1.0986328,0.24414062,0.0,0.0,0.0,-134.7528,63.94043,177.8247
1768029324151,-0.90625,-0.3022461,-0.31982422,3.3569336,6.8359375,-1.4648438,0.0,0.0,0.0,-134.7528,63.94043,177.8247
1768029324163,-0.90625,-0.3022461,-0.31982422,3.3569336,6.8359375,-1.4648438,0.0,0.0,0.0,-134.28589,63.967896,178.08289
1768029324251,-0.90283203,-0.31933594,-0.33203125,-1.8310547,0.4272461,0.6713867,0.0,0.0,0.0,-134.28589,63.967896,178.08289
1768029324263,-0.90283203,-0.31933594,-0.33203125,-1.8310547,0.4272461,0.6713867,0.0,0.0,0.0,-134.599,63.92395,177.8357
1768029324351,-0.90527344,-0.3071289,-0.3076172,-1.159668,2.5634766,0.0,0.0,0.0,0.0,-134.599,63.92395,177.8357
1768029324363,-0.90527344,-0.3071289,-0.3076172,-1.159668,2.5634766,0.0,0.0,0.0,0.0,-135.19775,63.71521,177.34131
1768029324450,-0.90185547,-0.30273438,-0.3071289,-0.5493164,1.2817383,0.30517578,0.0,0.0,0.0,-135.19775,63.71521,177.34131
1768029324462,-0.90185547,-0.30273438,-0.3071289,-0.5493164,1.2817383,0.30517578,0.0,0.0,0.0,-135.49988,63.632812,177.12708
1768029324550,-0.9013672,-0.30419922,-0.31640625,0.7324219,0.18310547,0.061035156,0.0,0.0,0.0,-135.49988,63.632812,177.12708
1768029324562,-0.9013672,-0.30419922,-0.31640625,0.7324219,0.18310547,0.061035156,0.0,0.0,0.0,-135.5603,63.649292,177.09961
1768029324650,-0.9082031,-0.3227539,-0.33154297,1.0986328,-0.30517578,-1.159668,0.0,0.0,0.0,-135.5603,63.649292,177.09961
1768029324661,-0.9082031,-0.3227539,-0.33154297,1.0986328,-0.30517578,-1.159668,0.0,0.0,0.0,-135.23071,63.66577,177.28638
1768029324749,-0.89941406,-0.31201172,-0.31152344,-0.5493164,5.3710938,-3.4179688,0.0,0.0,0.0,-135.23071,63.66577,177.28638
1768029324761,-0.89941406,-0.31201172,-0.31152344,-0.5493164,5.3710938,-3.4179688,0.0,0.0,0.0,-135.4779,63.138428,177.05566
1768029324849,-0.8964844,-0.2993164,-0.32080078,-1.7700195,2.6855469,-2.319336,0.0,0.0,0.0,-135.4779,63.138428,177.05566
1768029324861,-0.8964844,-0.2993164,-0.32080078,-1.7700195,2.6855469,-2.319336,0.0,0.0,0.0,-135.68665,62.77588,177.04468
1768029324950,-0.8930664,-0.31640625,-0.33251953,0.0,2.2583008,-2.0141602,0.0,0.0,0.0,-135.68665,62.77588,177.04468
1768029324960,-0.8930664,-0.31640625,-0.33251953,0.0,2.2583008,-2.0141602,0.0,0.0,0.0,-135.85693,62.58911,177.0282
1768029325049,-0.8881836,-0.32080078,-0.32714844,-2.0751953,0.18310547,-1.5869141,0.0,0.0,0.0,-135.85693,62.58911,177.0282
1768029325060,-0.8881836,-0.32080078,-0.32714844,-2.0751953,0.18310547,-1.5869141,0.0,0.0,0.0,-135.79102,62.374878,177.14355
1768029325148,-0.8852539,-0.31347656,-0.33691406,0.4272461,2.2583008,-1.3427734,0.0,0.0,0.0,-135.79102,62.374878,177.14355
1768029325160,-0.8852539,-0.31347656,-0.33691406,0.4272461,2.2583008,-1.3427734,0.0,0.0,0.0,-135.83496,62.210083,177.20947
1768029325248,-0.8774414,-0.32128906,-0.32666016,-0.6713867,0.7324219,0.0,0.0,0.0,0.0,-135.83496,62.210083,177.20947
1768029325259,-0.8774414,-0.32128906,-0.32666016,-0.6713867,0.7324219,0.0,0.0,0.0,0.0,-135.98877,62.094727,177.04468
1768029325348,-0.8911133,-0.3154297,-0.3232422,0.4272461,-1.8310547,1.4648438,0.0,0.0,0.0,-135.98877,62.094727,177.04468
1768029325359,-0.8911133,-0.3154297,-0.3232422,0.4272461,-1.8310547,1.4648438,0.0,0.0,0.0,-136.0492,62.17163,176.97327
1768029325447,-0.89404297,-0.31591797,-0.3310547,2.319336,-0.4272461,-0.12207031,0.0,0.0,0.0,-136.0492,62.17163,176.97327
1768029325459,-0.89404297,-0.31591797,-0.3310547,2.319336,-0.4272461,-0.12207031,0.0,0.0,0.0,-135.74707,62.347412,177.19849
1768029325548,-0.89453125,-0.31689453,-0.33251953,-0.79345703,-5.2490234,1.0986328,0.0,0.0,0.0,-135.74707,62.347412,177.19849
1768029325559,-0.89453125,-0.31689453,-0.33251953,-0.79345703,-5.2490234,1.0986328,0.0,0.0,0.0,-135.33508,62.627563,177.6654
1768029325647,-0.8808594,-0.31933594,-0.31933594,0.9765625,3.6010742,0.48828125,0.0,0.0,0.0,-135.33508,62.627563,177.6654
1768029325658,-0.8808594,-0.31933594,-0.31933594,0.9765625,3.6010742,0.48828125,0.0,0.0,0.0,-135.26367,62.79236,177.73132
1768029325747,-0.890625,-0.3100586,-0.3203125,-0.061035156,-0.061035156,2.0141602,0.0,0.0,0.0,-135.26367,62.79236,177.73132
1768029325758,-0.890625,-0.3100586,-0.3203125,-0.061035156,-0.061035156,2.0141602,0.0,0.0,0.0,-135.41748,62.98462,177.68188
1768029325846,-0.90722656,-0.3076172,-0.3334961,-0.30517578,0.0,1.4038086,0.0,0.0,0.0,-135.41748,62.98462,177.68188
1768029325858,-0.90722656,-0.3076172,-0.3334961,-0.30517578,0.0,1.4038086,0.0,0.0,0.0,-135.73059,63.17688,177.46765
1768029325946,-0.90283203,-0.3071289,-0.33642578,0.061035156,-0.79345703,0.0,0.0,0.0,0.0,-135.73059,63.17688,177.46765
1768029325958,-0.90283203,-0.3071289,-0.33642578,0.061035156,-0.79345703,0.0,0.0,0.0,0.0,-135.77454,63.303223,177.4292
1768029326046,-0.8911133,-0.31103516,-0.3149414,0.4272461,0.48828125,-0.91552734,0.0,0.0,0.0,-135.77454,63.303223,177.4292
1768029326058,-0.8911133,-0.31103516,-0.3149414,0.4272461,0.48828125,-0.91552734,0.0,0.0,0.0,-135.62073,63.242798,177.5061
1768029326145,-0.89990234,-0.3046875,-0.33154297,-0.18310547,-1.0986328,0.12207031,0.0,0.0,0.0,-135.62073,63.242798,177.5061
1768029326157,-0.89990234,-0.3046875,-0.33154297,-0.18310547,-1.0986328,0.12207031,0.0,0.0,0.0,-135.51086,63.24829,177.63794
1768029326245,-0.9008789,-0.3076172,-0.32666016,0.18310547,0.61035156,0.9765625,0.0,0.0,0.0,-135.51086,63.24829,177.63794
1768029326257,-0.9008789,-0.3076172,-0.32666016,0.18310547,0.61035156,0.9765625,0.0,0.0,0.0,-135.5603,63.270264,177.55554
1768029326345,-0.8925781,-0.30664062,-0.31640625,3.112793,-0.48828125,0.9765625,0.0,0.0,0.0,-135.5603,63.270264,177.55554
1768029326356,-0.8925781,-0.30664062,-0.31640625,3.112793,-0.48828125,0.9765625,0.0,0.0,0.0,-135.55481,63.31421,177.37427
1768029326444,-0.9121094,-0.32714844,-0.3359375,-5.1879883,-0.36621094,3.2958984,0.0,0.0,0.0,-135.55481,63.31421,177.37427
1768029326457,-0.9121094,-0.32714844,-0.3359375,-5.1879883,-0.36621094,3.2958984,0.0,0.0,0.0,-135.93933,63.43506,176.98975
1768029326544,-0.90722656,-0.29492188,-0.32861328,-1.953125,2.6855469,0.061035156,0.0,0.0,0.0,-135.93933,63.43506,176.98975
1768029326556,-0.90722656,-0.29492188,-0.32861328,-1.953125,2.6855469,0.061035156,0.0,0.0,0.0,-136.5216,63.363647,176.67114
1768029326644,-0.8930664,-0.30078125,-0.32861328,1.8310547,-0.8544922,0.18310547,0.0,0.0,0.0,-136.5216,63.363647,176.67114
1768029326656,-0.8930664,-0.30078125,-0.32861328,1.8310547,-0.8544922,0.18310547,0.0,0.0,0.0,-136.64246,63.358154,176.5503
1768029326744,-0.90527344,-0.3076172,-0.3232422,2.5634766,-0.36621094,-0.12207031,0.0,0.0,0.0,-136.64246,63.358154,176.5503
1768029326755,-0.90527344,-0.3076172,-0.3232422,2.5634766,-0.36621094,-0.12207031,0.0,0.0,0.0,-136.35132,63.29773,176.57227
1768029326843,-0.8959961,-0.30126953,-0.31640625,0.6713867,1.4648438,-0.4272461,0.0,0.0,0.0,-136.35132,63.29773,176.57227
1768029326855,-0.8959961,-0.30126953,-0.31640625,0.6713867,1.4648438,-0.4272461,0.0,0.0,0.0,-136.34033,63.23181,176.49536
1768029326943,-0.89501953,-0.30566406,-0.32958984,0.91552734,1.159668,-0.4272461,0.0,0.0,0.0,-136.34033,63.23181,176.49536
1768029326954,-0.89501953,-0.30566406,-0.32958984,0.91552734,1.159668,-0.4272461,0.0,0.0,0.0,-136.35681,63.19336,176.45691
1768029327043,-0.8955078,-0.30664062,-0.32910156,-0.12207031,0.0,0.0,0.0,0.0,0.0,-136.35681,63.19336,176.45691
1768029327054,-0.8955078,-0.30664062,-0.32910156,-0.12207031,0.0,0.0,0.0,0.0,0.0,-136.35681,63.149414,176.41846
1768029327142,-0.8979492,-0.3046875,-0.32910156,0.0,-0.18310547,0.4272461,0.0,0.0,0.0,-136.35681,63.149414,176.41846
1768029327154,-0.8979492,-0.3046875,-0.32910156,0.0,-0.18310547,0.4272461,0.0,0.0,0.0,-136.40625,63.171387,176.41296
1768029327242,-0.89697266,-0.3046875,-0.32958984,-0.48828125,0.48828125,0.5493164,0.0,0.0,0.0,-136.40625,63.171387,176.41296
1768029327254,-0.89697266,-0.3046875,-0.32958984,-0.48828125,0.48828125,0.5493164,0.0,0.0,0.0,-136.51062,63.204346,176.34155
1768029327342,-0.8964844,-0.30664062,-0.328125,0.7324219,-0.5493164,0.6713867,0.0,0.0,0.0,-136.51062,63.204346,176.34155
1768029327353,-0.8964844,-0.30664062,-0.328125,0.7324219,-0.5493164,0.6713867,0.0,0.0,0.0,-136.58203,63.242798,176.27014
1768029327442,-0.9033203,-0.2998047,-0.32177734,-1.4648438,0.24414062,0.61035156,0.0,0.0,0.0,-136.58203,63.242798,176.27014
1768029327453,-0.9033203,-0.2998047,-0.32177734,-1.4648438,0.24414062,0.61035156,0.0,0.0,0.0,-136.74683,63.220825,176.16577
1768029327542,-0.9008789,-0.296875,-0.33447266,0.7324219,0.30517578,-0.5493164,0.0,0.0,0.0,-136.74683,63.220825,176.16577
1768029327553,-0.9008789,-0.296875,-0.33447266,0.7324219,0.30517578,-0.5493164,0.0,0.0,0.0,-136.66443,63.23181,176.25916
1768029327641,-0.8984375,-0.30371094,-0.3305664,0.7324219,-0.36621094,-0.61035156,0.0,0.0,0.0,-136.66443,63.23181,176.25916
1768029327652,-0.8984375,-0.30371094,-0.3305664,0.7324219,-0.36621094,-0.61035156,0.0,0.0,0.0,-136.51062,63.23181,176.38
1768029327741,-0.8959961,-0.31152344,-0.3251953,0.30517578,0.61035156,-0.61035156,0.0,0.0,0.0,-136.51062,63.23181,176.38
1768029327752,-0.8959961,-0.31152344,-0.3251953,0.30517578,0.61035156,-0.61035156,0.0,0.0,0.0,-136.42822,63.14392,176.41846
1768029327841,-0.8959961,-0.3046875,-0.3359375,0.18310547,2.0141602,-1.0375977,0.0,0.0,0.0,-136.42822,63.14392,176.41846
1768029327852,-0.8959961,-0.3046875,-0.3359375,0.18310547,2.0141602,-1.0375977,0.0,0.0,0.0,-136.47766,62.990112,176.36902
1768029327940,-0.89453125,-0.2998047,-0.33007812,-0.18310547,0.79345703,-0.30517578,0.0,0.0,0.0,-136.47766,62.990112,176.36902
1768029327952,-0.89453125,-0.2998047,-0.33007812,-0.18310547,0.79345703,-0.30517578,0.0,0.0,0.0,-136.68091,62.83081,176.18225
1768029328040,-0.89208984,-0.31152344,-0.3413086,-1.7089844,2.1972656,0.061035156,0.0,0.0,0.0,-136.68091,62.83081,176.18225
1768029328051,-0.89208984,-0.31152344,-0.3413086,-1.7089844,2.1972656,0.061035156,0.0,0.0,0.0,-137.04895,62.753906,175.94604
1768029328140,-0.89160156,-0.30371094,-0.33789062,-1.4648438,1.8310547,-0.061035156,0.0,0.0,0.0,-137.04895,62.753906,175.94604
1768029328151,-0.89160156,-0.30371094,-0.33789062,-1.4648438,1.8310547,-0.061035156,0.0,0.0,0.0,-137.44995,62.58911,175.6659
1768029328239,-0.89160156,-0.2919922,-0.33984375,1.6479492,1.0986328,-0.12207031,0.0,0.0,0.0,-137.44995,62.58911,175.6659
1768029328251,-0.89160156,-0.2919922,-0.33984375,1.6479492,1.0986328,-0.12207031,0.0,0.0,0.0,-137.6477,62.473755,175.52307
1768029328339,-0.890625,-0.30810547,-0.34765625,-3.8452148,0.0,0.48828125,0.0,0.0,0.0,-137.6477,62.473755,175.52307
1768029328350,-0.890625,-0.30810547,-0.34765625,-3.8452148,0.0,0.48828125,0.0,0.0,0.0,-137.99927,62.473755,175.34729
1768029328439,-0.8901367,-0.2998047,-0.359375,-1.4038086,1.8310547,-0.4272461,0.0,0.0,0.0,-137.99927,62.473755,175.34729
1768029328450,-0.8901367,-0.2998047,-0.359375,-1.4038086,1.8310547,-0.4272461,0.0,0.0,0.0,-138.19702,62.39685,175.27588
1768029328538,-0.8876953,-0.30029297,-0.3491211,-1.4038086,0.8544922,0.061035156,0.0,0.0,0.0,-138.19702,62.39685,175.27588
1768029328550,-0.8876953,-0.30029297,-0.3491211,-1.4038086,0.8544922,0.061035156,0.0,0.0,0.0,-138.43872,62.276,175.03418
1768029328638,-0.8881836,-0.30371094,-0.35009766,-0.4272461,0.7324219,0.30517578,0.0,0.0,0.0,-138.43872,62.276,175.03418
1768029328650,-0.8881836,-0.30371094,-0.35009766,-0.4272461,0.7324219,0.30517578,0.0,0.0,0.0,-138.71338,62.18811,174.79797
1768029328738,-0.8857422,-0.30029297,-0.3486328,-0.61035156,0.0,0.0,0.0,0.0,0.0,-138.71338,62.18811,174.79797
1768029328749,-0.8857422,-0.30029297,-0.3486328,-0.61035156,0.0,0.0,0.0,0.0,0.0,-138.7738,62.15515,174.72107
1768029328837,-0.8886719,-0.30078125,-0.35058594,0.18310547,-0.6713867,0.24414062,0.0,0.0,0.0,-138.7738,62.15515,174.72107
1768029328849,-0.8886719,-0.30078125,-0.35058594,0.18310547,-0.6713867,0.24414062,0.0,0.0,0.0,-138.74084,62.22107,174.75952
1768029328937,-0.88720703,-0.30615234,-0.3466797,-1.0375977,-0.061035156,0.24414062,0.0,0.0,0.0,-138.74084,62.22107,174.75952
1768029328949,-0.88720703,-0.30615234,-0.3466797,-1.0375977,-0.061035156,0.24414062,0.0,0.0,0.0,-138.7793,62.265015,174.72107
1768029329037,-0.88183594,-0.29052734,-0.36376953,-0.12207031,-0.4272461,-0.6713867,0.0,0.0,0.0,-138.7793,62.265015,174.72107
1768029329048,-0.88183594,-0.29052734,-0.36376953,-0.12207031,-0.4272461,-0.6713867,0.0,0.0,0.0,-138.8562,62.276,174.73206
1768029329136,-0.8911133,-0.29785156,-0.34570312,0.91552734,-0.36621094,-0.061035156,0.0,0.0,0.0,-138.8562,62.276,174.73206
1768029329148,-0.8911133,-0.29785156,-0.34570312,0.91552734,-0.36621094,-0.061035156,0.0,0.0,0.0,-138.60901,62.276,174.78699
1768029329236,-0.88671875,-0.3100586,-0.3461914,1.4648438,-0.36621094,0.0,0.0,0.0,0.0,-138.60901,62.276,174.78699
1768029329248,-0.88671875,-0.3100586,-0.3461914,1.4648438,-0.36621094,0.0,0.0,0.0,0.0,-138.57056,62.352905,174.81995
1768029329336,-0.8901367,-0.28857422,-0.35839844,0.9765625,-0.9765625,-1.4038086,0.0,0.0,0.0,-138.57056,62.352905,174.81995
1768029329347,-0.8901367,-0.28857422,-0.35839844,0.9765625,-0.9765625,-1.4038086,0.0,0.0,0.0,-138.38379,62.319946,175.00671
1768029329436,-0.8925781,-0.29541016,-0.34179688,1.2817383,0.0,0.30517578,0.0,0.0,0.0,-138.38379,62.319946,175.00671
1768029329447,-0.8925781,-0.29541016,-0.34179688,1.2817383,0.0,0.30517578,0.0,0.0,0.0,-138.18604,62.297974,175.07263
1768029329535,-0.8901367,-0.31298828,-0.3515625,0.30517578,-0.5493164,0.0,0.0,0.0,0.0,-138.18604,62.297974,175.07263
1768029329547,-0.8901367,-0.31298828,-0.3515625,0.30517578,-0.5493164,0.0,0.0,0.0,0.0,-138.11462,62.391357,175.11108
1768029329635,-0.88427734,-0.30126953,-0.34326172,0.12207031,-0.061035156,-0.12207031,0.0,0.0,0.0,-138.11462,62.391357,175.11108
1768029329647,-0.88427734,-0.30126953,-0.34326172,0.12207031,-0.061035156,-0.12207031,0.0,0.0,0.0,-138.12561,62.3584,175.08362
1768029329735,-0.890625,-0.2998047,-0.3486328,0.0,-1.4648438,0.48828125,0.0,0.0,0.0,-138.12561,62.3584,175.08362
1768029329746,-0.890625,-0.2998047,-0.3486328,0.0,-1.4648438,0.48828125,0.0,0.0,0.0,-138.02673,62.451782,175.20996
1768029329834,-0.89501953,-0.30029297,-0.33935547,0.7324219,-0.8544922,0.30517578,0.0,0.0,0.0,-138.02673,62.451782,175.20996
1768029329846,-0.89501953,-0.30029297,-0.33935547,0.7324219,-0.8544922,0.30517578,0.0,0.0,0.0,-137.94983,62.539673,175.2594
1768029329934,-0.8930664,-0.30566406,-0.33935547,1.953125,-1.4648438,0.0,0.0,0.0,0.0,-137.94983,62.539673,175.2594
1768029329946,-0.8930664,-0.30566406,-0.33935547,1.953125,-1.4648438,0.0,0.0,0.0,0.0,-137.74658,62.63855,175.40771
1768029330034,-0.89160156,-0.2993164,-0.3388672,0.12207031,-0.9765625,-0.18310547,0.0,0.0,0.0,-137.74658,62.63855,175.40771
1768029330045,-0.89160156,-0.2993164,-0.3388672,0.12207031,-0.9765625,-0.18310547,0.0,0.0,0.0,-137.65869,62.65503,175.51208
1768029330134,-0.8964844,-0.3076172,-0.3486328,-0.4272461,-1.159668,0.12207031,0.0,0.0,0.0,-137.65869,62.65503,175.51208
1768029330145,-0.8964844,-0.3076172,-0.3486328,-0.4272461,-1.159668,0.12207031,0.0,0.0,0.0,-137.41699,62.77588,175.79224
1768029330233,-0.89697266,-0.30419922,-0.34423828,-0.79345703,0.061035156,0.0,0.0,0.0,0.0,-137.41699,62.77588,175.79224
1768029330245,-0.89697266,-0.30419922,-0.34423828,-0.79345703,0.061035156,0.0,0.0,0.0,0.0,-137.37305,62.836304,175.86365
1768029330333,-0.8959961,-0.29589844,-0.3310547,-1.8310547,0.79345703,-0.12207031,0.0,0.0,0.0,-137.37305,62.836304,175.86365
1768029330344,-0.8959961,-0.29589844,-0.3310547,-1.8310547,0.79345703,-0.12207031,0.0,0.0,0.0,-137.6532,62.677002,175.64941
1768029330433,-0.8935547,-0.3046875,-0.3310547,-0.79345703,0.8544922,0.48828125,0.0,0.0,0.0,-137.6532,62.677002,175.64941
1768029330444,-0.8935547,-0.3046875,-0.3310547,-0.79345703,0.8544922,0.48828125,0.0,0.0,0.0,-137.95532,62.677002,175.578
1768029330532,-0.88671875,-0.2998047,-0.34472656,0.12207031,1.5869141,-1.0986328,0.0,0.0,0.0,-137.95532,62.677002,175.578
1768029330544,-0.88671875,-0.2998047,-0.34472656,0.12207031,1.5869141,-1.0986328,0.0,0.0,0.0,-138.09265,62.666016,175.51758
1768029330632,-0.89746094,-0.30664062,-0.34521484,-0.24414062,0.5493164,-0.91552734,0.0,0.0,0.0,-138.09265,62.666016,175.51758
1768029330644,-0.89746094,-0.30664062,-0.34521484,-0.24414062,0.5493164,-0.91552734,0.0,0.0,0.0,-138.0597,62.506714,175.53955
1768029330732,-0.8886719,-0.29882812,-0.35107422,-1.4038086,0.24414062,-1.2817383,0.0,0.0,0.0,-138.0597,62.506714,175.53955
1768029330743,-0.8886719,-0.29882812,-0.35107422,-1.4038086,0.24414062,-1.2817383,0.0,0.0,0.0,-138.01575,62.36389,175.61646
1768029330832,-0.87890625,-0.28759766,-0.33642578,1.7089844,-0.9765625,-0.061035156,0.0,0.0,0.0,-138.01575,62.36389,175.61646
1768029330843,-0.87890625,-0.28759766,-0.33642578,1.7089844,-0.9765625,-0.061035156,0.0,0.0,0.0,-138.40027,62.38037,175.70984
1768029330931,-0.90771484,-0.3251953,-0.3305664,0.91552734,2.8686523,0.9765625,0.0,0.0,0.0,-138.40027,62.38037,175.70984
1768029330943,-0.90771484,-0.3251953,-0.3305664,0.91552734,2.8686523,0.9765625,0.0,0.0,0.0,-138.65295,62.72644,175.6549
1768029331031,-0.8828125,-0.30859375,-0.3491211,15.930176,5.126953,-2.4414062,0.0,0.0,0.0,-138.65295,62.72644,175.6549
1768029331043,-0.8828125,-0.30859375,-0.3491211,15.930176,5.126953,-2.4414062,0.0,0.0,0.0,-138.1311,62.561646,175.64392
1768029331131,-0.9008789,-0.30810547,-0.3881836,0.30517578,-6.1035156,0.18310547,0.0,0.0,0.0,-138.1311,62.561646,175.64392
1768029331143,-0.9008789,-0.30810547,-0.3881836,0.30517578,-6.1035156,0.18310547,0.0,0.0,0.0,-136.2909,62.58911,176.33057
1768029331230,-0.88134766,-0.29736328,-0.27929688,4.3945312,0.30517578,-1.2817383,0.0,0.0,0.0,-136.2909,62.58911,176.33057
1768029331242,-0.88134766,-0.29736328,-0.27929688,4.3945312,0.30517578,-1.2817383,0.0,0.0,0.0,-135.47241,62.314453,176.48987
1768029331330,-0.9082031,-0.33496094,-0.34960938,2.5024414,2.0141602,1.159668,0.0,0.0,0.0,-135.47241,62.314453,176.48987
1768029331342,-0.9082031,-0.33496094,-0.34960938,2.5024414,2.0141602,1.159668,0.0,0.0,0.0,-135.37354,62.539673,176.58325
1768029331430,-0.88427734,-0.32373047,-0.31689453,2.380371,3.479004,-3.540039,0.0,0.0,0.0,-135.37354,62.539673,176.58325
1768029331441,-0.88427734,-0.32373047,-0.31689453,2.380371,3.479004,-3.540039,0.0,0.0,0.0,-135.44495,62.199097,176.33057
1768029331530,-0.8881836,-0.32177734,-0.35009766,-0.91552734,0.0,0.61035156,0.0,0.0,0.0,-135.44495,62.199097,176.33057
1768029331541,-0.8881836,-0.32177734,-0.35009766,-0.91552734,0.0,0.61035156,0.0,0.0,0.0,-135.42297,62.078247,176.39099
1768029331629,-0.89697266,-0.34033203,-0.33398438,1.5258789,-1.8310547,0.18310547,0.0,0.0,0.0,-135.42297,62.078247,176.39099
1768029331641,-0.89697266,-0.34033203,-0.33398438,1.5258789,-1.8310547,0.18310547,0.0,0.0,0.0,-135.36255,62.1167,176.45142
1768029331729,-0.8798828,-0.31201172,-0.3232422,2.0141602,2.746582,-2.4414062,0.0,0.0,0.0,-135.36255,62.1167,176.45142
1768029331741,-0.8798828,-0.31201172,-0.3232422,2.0141602,2.746582,-2.4414062,0.0,0.0,0.0,-135.20874,61.940918,176.58875
1768029331829,-0.8881836,-0.31689453,-0.33984375,0.36621094,-0.9765625,-1.159668,0.0,0.0,0.0,-135.20874,61.940918,176.58875
1768029331840,-0.8881836,-0.31689453,-0.33984375,0.36621094,-0.9765625,-1.159668,0.0,0.0,0.0,-134.91211,61.875,176.91833
1768029331929,-0.88623047,-0.33544922,-0.33496094,1.5258789,-0.24414062,-1.7700195,0.0,0.0,0.0,-134.91211,61.875,176.91833
1768029331940,-0.88623047,-0.33544922,-0.33496094,1.5258789,-0.24414062,-1.7700195,0.0,0.0,0.0,-134.5221,61.864014,177.24792
1768029332028,-0.8823242,-0.3466797,-0.33935547,-0.061035156,-1.6479492,-1.159668,0.0,0.0,0.0,-134.5221,61.864014,177.24792
1768029332040,-0.8823242,-0.3466797,-0.33935547,-0.061035156,-1.6479492,-1.159668,0.0,0.0,0.0,-134.1101,61.743164,177.52258
1768029332128,-0.8823242,-0.33740234,-0.33154297,-1.8920898,1.5258789,-0.30517578,0.0,0.0,0.0,-134.1101,61.743164,177.52258
1768029332139,-0.8823242,-0.33740234,-0.33154297,-1.8920898,1.5258789,-0.30517578,0.0,0.0,0.0,-134.30237,61.572876,177.36877
1768029332228,-0.88427734,-0.33203125,-0.3359375,-1.0986328,1.2817383,0.18310547,0.0,0.0,0.0,-134.30237,61.572876,177.36877
1768029332239,-0.88427734,-0.33203125,-0.3359375,-1.0986328,1.2817383,0.18310547,0.0,0.0,0.0,-134.64844,61.474,177.15454
1768029332327,-0.8798828,-0.3334961,-0.3408203,-1.0375977,2.1972656,0.18310547,0.0,0.0,0.0,-134.64844,61.474,177.15454
1768029332339,-0.8798828,-0.3334961,-0.3408203,-1.0375977,2.1972656,0.18310547,0.0,0.0,0.0,-135.04395,61.364136,176.82495
1768029332427,-0.88134766,-0.33544922,-0.34326172,0.48828125,1.3427734,0.48828125,0.0,0.0,0.0,-135.04395,61.364136,176.82495
1768029332439,-0.88134766,-0.33544922,-0.34326172,0.48828125,1.3427734,0.48828125,0.0,0.0,0.0,-135.30762,61.298218,176.59424
1768029332527,-0.87939453,-0.33203125,-0.34765625,-1.2817383,0.48828125,0.61035156,0.0,0.0,0.0,-135.30762,61.298218,176.59424
1768029332538,-0.87939453,-0.33203125,-0.34765625,-1.2817383,0.48828125,0.61035156,0.0,0.0,0.0,-135.68665,61.204834,176.29211
1768029332626,-0.8798828,-0.3251953,-0.35253906,-0.061035156,0.79345703,0.4272461,0.0,0.0,0.0,-135.68665,61.204834,176.29211
1768029332638,-0.8798828,-0.3251953,-0.35253906,-0.061035156,0.79345703,0.4272461,0.0,0.0,0.0,-135.85693,61.133423,176.10535
1768029332726,-0.87597656,-0.25585938,-0.3256836,-4.5776367,4.4555664,11.962891,0.0,0.0,0.0,-135.85693,61.133423,176.10535
1768029332738,-0.87597656,-0.25585938,-0.3256836,-4.5776367,4.4555664,11.962891,0.0,0.0,0.0,-136.8512,61.40808,175.23743
1768029332826,-0.84228516,-0.3930664,-0.45410156,-1.8920898,-0.7324219,-4.4555664,0.0,0.0,0.0,-136.8512,61.40808,175.23743
1768029332838,-0.84228516,-0.3930664,-0.45410156,-1.8920898,-0.7324219,-4.4555664,0.0,0.0,0.0,-137.69714,61.677246,174.6991
1768029332926,-0.86621094,-0.3383789,-0.30029297,-6.3476562,-2.4414062,-7.9345703,0.0,0.0,0.0,-137.69714,61.677246,174.6991
1768029332938,-0.86621094,-0.3383789,-0.30029297,-6.3476562,-2.4414062,-7.9345703,0.0,0.0,0.0,-136.57654,60.650024,175.57251
1768029333025,-0.89208984,-0.24414062,-0.37060547,-7.2631836,-3.7841797,0.6713867,0.0,0.0,0.0,-136.57654,60.650024,175.57251
1768029333038,-0.89208984,-0.24414062,-0.37060547,-7.2631836,-3.7841797,0.6713867,0.0,0.0,0.0,-136.17554,60.836792,176.92383
1768029333125,-0.87841797,-0.31396484,-0.3461914,1.2207031,-2.9296875,3.112793,0.0,0.0,0.0,-136.17554,60.836792,176.92383
1768029333137,-0.87841797,-0.31396484,-0.3461914,1.2207031,-2.9296875,3.112793,0.0,0.0,0.0,-136.62048,61.26526,176.73706
1768029333225,-0.8754883,-0.35302734,-0.34814453,4.0893555,-0.79345703,0.61035156,0.0,0.0,0.0,-136.62048,61.26526,176.73706
1768029333236,-0.8754883,-0.35302734,-0.34814453,4.0893555,-0.79345703,0.61035156,0.0,0.0,0.0,-136.39526,61.52893,176.61621
1768029333324,-0.87939453,-0.34814453,-0.34570312,-0.18310547,0.12207031,-0.6713867,0.0,0.0,0.0,-136.39526,61.52893,176.61621
1768029333336,-0.87939453,-0.34814453,-0.34570312,-0.18310547,0.12207031,-0.6713867,0.0,0.0,0.0,-135.87341,61.523438,176.81946
1768029333424,-0.8852539,-0.32080078,-0.3359375,0.24414062,0.12207031,-0.24414062,0.0,0.0,0.0,-135.87341,61.523438,176.81946
1768029333436,-0.8852539,-0.32080078,-0.3359375,0.24414062,0.12207031,-0.24414062,0.0,0.0,0.0,-135.82397,61.42456,176.85242
1768029333524,-0.87939453,-0.32373047,-0.34423828,0.61035156,0.5493164,0.061035156,0.0,0.0,0.0,-135.82397,61.42456,176.85242
1768029333535,-0.87939453,-0.32373047,-0.34423828,0.61035156,0.5493164,0.061035156,0.0,0.0,0.0,-135.86243,61.3916,176.77002
1768029333624,-0.8833008,-0.32617188,-0.34960938,0.061035156,-0.30517578,0.6713867,0.0,0.0,0.0,-135.86243,61.3916,176.77002
1768029333635,-0.8833008,-0.32617188,-0.34960938,0.061035156,-0.30517578,0.6713867,0.0,0.0,0.0,-135.93933,61.45752,176.7041
1768029333723,-0.88427734,-0.3305664,-0.33984375,0.24414062,-1.7700195,0.7324219,0.0,0.0,0.0,-135.93933,61.45752,176.7041
1768029333735,-0.88427734,-0.3305664,-0.33984375,0.24414062,-1.7700195,0.7324219,0.0,0.0,0.0,-135.89539,61.56189,176.69312
1768029333823,-0.88427734,-0.32421875,-0.34423828,-0.24414062,0.061035156,0.24414062,0.0,0.0,0.0,-135.89539,61.56189,176.69312
1768029333835,-0.88427734,-0.32421875,-0.34423828,-0.24414062,0.061035156,0.24414062,0.0,0.0,0.0,-135.81848,61.638794,176.74255
1768029333923,-0.8876953,-0.3251953,-0.34179688,0.79345703,-0.8544922,0.24414062,0.0,0.0,0.0,-135.81848,61.638794,176.74255
1768029333934,-0.8876953,-0.3251953,-0.34179688,0.79345703,-0.8544922,0.24414062,0.0,0.0,0.0,-135.71411,61.710205,176.781
1768029334022,-0.8847656,-0.32666016,-0.33203125,0.79345703,-1.159668,0.91552734,0.0,0.0,0.0,-135.71411,61.710205,176.781
1768029334034,-0.8847656,-0.32666016,-0.33203125,0.79345703,-1.159668,0.91552734,0.0,0.0,0.0,-135.75256,61.704712,176.72607
1768029334122,-0.8876953,-0.328125,-0.3461914,0.79345703,0.12207031,0.12207031,0.0,0.0,0.0,-135.75256,61.704712,176.72607
1768029334134,-0.8876953,-0.328125,-0.3461914,0.79345703,0.12207031,0.12207031,0.0,0.0,0.0,-135.60425,61.836548,176.84143
1768029334222,-0.88916016,-0.3305664,-0.34228516,-0.36621094,-0.18310547,0.48828125,0.0,0.0,0.0,-135.60425,61.836548,176.84143
1768029334233,-0.88916016,-0.3305664,-0.34228516,-0.36621094,-0.18310547,0.48828125,0.0,0.0,0.0,-135.6482,61.847534,176.76453
1768029334322,-0.88134766,-0.32470703,-0.3408203,-0.12207031,0.6713867,-0.4272461,0.0,0.0,0.0,-135.6482,61.847534,176.76453
1768029334333,-0.88134766,-0.32470703,-0.3408203,-0.12207031,0.6713867,-0.4272461,0.0,0.0,0.0,-135.75806,61.776123,176.73157
1768029334421,-0.88623047,-0.32128906,-0.33740234,0.61035156,-0.24414062,-0.30517578,0.0,0.0,0.0,-135.75806,61.776123,176.73157
1768029334433,-0.88623047,-0.32128906,-0.33740234,0.61035156,-0.24414062,-0.30517578,0.0,0.0,0.0,-135.69763,61.759644,176.76453
1768029334521,-0.8876953,-0.31689453,-0.33740234,1.6479492,-0.48828125,-0.91552734,0.0,0.0,0.0,-135.69763,61.759644,176.76453
1768029334533,-0.8876953,-0.31689453,-0.33740234,1.6479492,-0.48828125,-0.91552734,0.0,0.0,0.0,-135.47241,61.743164,176.90186
1768029334621,-0.8857422,-0.33691406,-0.33251953,-0.48828125,0.24414062,-0.7324219,0.0,0.0,0.0,-135.47241,61.743164,176.90186
1768029334632,-0.8857422,-0.33691406,-0.33251953,-0.48828125,0.24414062,-0.7324219,0.0,0.0,0.0,-135.22522,61.732178,177.07214
1768029334721,-0.8876953,-0.33642578,-0.33544922,0.30517578,-0.79345703,-0.36621094,0.0,0.0,0.0,-135.22522,61.732178,177.07214
1768029334732,-0.8876953,-0.33642578,-0.33544922,0.30517578,-0.79345703,-0.36621094,0.0,0.0,0.0,-135.19775,61.644287,177.1106
1768029334820,-0.8881836,-0.32617188,-0.3305664,0.5493164,1.4038086,-0.91552734,0.0,0.0,0.0,-135.19775,61.644287,177.1106
1768029334832,-0.8881836,-0.32617188,-0.3305664,0.5493164,1.4038086,-0.91552734,0.0,0.0,0.0,-134.98352,61.583862,177.23694
1768029334920,-0.8852539,-0.32958984,-0.3491211,-1.0375977,-0.9765625,0.18310547,0.0,0.0,0.0,-134.98352,61.583862,177.23694
1768029334932,-0.8852539,-0.32958984,-0.3491211,-1.0375977,-0.9765625,0.18310547,0.0,0.0,0.0,-134.85718,61.61133,177.3468
1768029335020,-0.8857422,-0.33203125,-0.33642578,-1.7700195,0.36621094,0.48828125,0.0,0.0,0.0,-134.85718,61.61133,177.3468
1768029335031,-0.8857422,-0.33203125,-0.33642578,-1.7700195,0.36621094,0.48828125,0.0,0.0,0.0,-135.1593,61.567383,177.14905
1768029335119,-0.8823242,-0.3305664,-0.33544922,-2.1362305,3.2958984,0.36621094,0.0,0.0,0.0,-135.1593,61.567383,177.14905
1768029335131,-0.8823242,-0.3305664,-0.33544922,-2.1362305,3.2958984,0.36621094,0.0,0.0,0.0,-135.5603,61.463013,176.89087
1768029335219,-0.8798828,-0.328125,-0.34814453,-1.953125,2.1362305,-0.18310547,0.0,0.0,0.0,-135.5603,61.463013,176.89087
1768029335231,-0.8798828,-0.328125,-0.34814453,-1.953125,2.1362305,-0.18310547,0.0,0.0,0.0,-136.08215,61.325684,176.53381
1768029335319,-0.8803711,-0.31982422,-0.34716797,-0.91552734,0.9765625,0.18310547,0.0,0.0,0.0,-136.08215,61.325684,176.53381
1768029335330,-0.8803711,-0.31982422,-0.34716797,-0.91552734,0.9765625,0.18310547,0.0,0.0,0.0,-136.47217,61.193848,176.27014
1768029335418,-0.9038086,-0.34277344,-0.34765625,0.061035156,-10.314941,1.3427734,0.0,0.0,0.0,-136.47217,61.193848,176.27014
1768029335431,-0.9038086,-0.34277344,-0.34765625,0.061035156,-10.314941,1.3427734,0.0,0.0,0.0,-135.8844,61.69922,176.97327
1768029335518,-0.8881836,-0.3330078,-0.3334961,3.4179688,-0.30517578,-0.36621094,0.0,0.0,0.0,-135.8844,61.69922,176.97327
1768029335530,-0.8881836,-0.3330078,-0.3334961,3.4179688,-0.30517578,-0.36621094,0.0,0.0,0.0,-135.28015,61.92993,177.46216
1768029335618,-0.88720703,-0.33203125,-0.33642578,1.2817383,1.0986328,-0.5493164,0.0,0.0,0.0,-135.28015,61.92993,177.46216
1768029335629,-0.88720703,-0.33203125,-0.33642578,1.2817383,1.0986328,-0.5493164,0.0,0.0,0.0,-134.9176,61.913452,177.55554
1768029335718,-0.88378906,-0.3334961,-0.34765625,1.7700195,4.0283203,-1.4648438,0.0,0.0,0.0,-134.9176,61.913452,177.55554
1768029335729,-0.88378906,-0.3334961,-0.34765625,1.7700195,4.0283203,-1.4648438,0.0,0.0,0.0,-134.97803,61.765137,177.4292
1768029335817,-0.87841797,-0.33154297,-0.33935547,0.18310547,2.8686523,-0.61035156,0.0,0.0,0.0,-134.97803,61.765137,177.4292
1768029335829,-0.87841797,-0.33154297,-0.33935547,0.18310547,2.8686523,-0.61035156,0.0,0.0,0.0,-135.30762,61.38611,176.96777
1768029335917,-0.8808594,-0.32763672,-0.34960938,-0.79345703,2.319336,0.4272461,0.0,0.0,0.0,-135.30762,61.38611,176.96777
1768029335929,-0.8808594,-0.32763672,-0.34960938,-0.79345703,2.319336,0.4272461,0.0,0.0,0.0,-135.6427,61.226807,176.63818
1768029336017,-0.87402344,-0.3330078,-0.33984375,-1.2817383,0.18310547,0.79345703,0.0,0.0,0.0,-135.6427,61.226807,176.63818
1768029336028,-0.87402344,-0.3330078,-0.33984375,-1.2817383,0.18310547,0.79345703,0.0,0.0,0.0,-136.07666,61.188354,176.28662
1768029336117,-0.87841797,-0.3227539,-0.33544922,0.5493164,-1.7700195,0.91552734,0.0,0.0,0.0,-136.07666,61.188354,176.28662
1768029336128,-0.87841797,-0.3227539,-0.33544922,0.5493164,-1.7700195,0.91552734,0.0,0.0,0.0,-136.1261,61.33667,176.31409
1768029336216,-0.88427734,-0.32177734,-0.34472656,2.0751953,-0.9765625,-0.061035156,0.0,0.0,0.0,-136.1261,61.33667,176.31409
1768029336228,-0.88427734,-0.32177734,-0.34472656,2.0751953,-0.9765625,-0.061035156,0.0,0.0,0.0,-135.75806,61.517944,176.60522
1768029336316,-0.88623047,-0.33251953,-0.34521484,-1.2207031,-0.91552734,0.79345703,0.0,0.0,0.0,-135.75806,61.517944,176.60522
1768029336327,-0.88623047,-0.33251953,-0.34521484,-1.2207031,-0.91552734,0.79345703,0.0,0.0,0.0,-135.66467,61.59485,176.68213
1768029336416,-0.88378906,-0.33251953,-0.34033203,-0.79345703,1.5258789,0.0,0.0,0.0,0.0,-135.66467,61.59485,176.68213
1768029336428,-0.88378906,-0.33251953,-0.34033203,-0.79345703,1.5258789,0.0,0.0,0.0,0.0,-135.82947,61.534424,176.49536
1768029336515,-0.8833008,-0.3256836,-0.34277344,0.36621094,-0.8544922,0.4272461,0.0,0.0,0.0,-135.82947,61.534424,176.49536
1768029336527,-0.8833008,-0.3256836,-0.34277344,0.36621094,-0.8544922,0.4272461,0.0,0.0,0.0,-135.94482,61.51245,176.42395
1768029336615,-0.88183594,-0.32861328,-0.34423828,-1.5258789,0.12207031,0.5493164,0.0,0.0,0.0,-135.94482,61.51245,176.42395
1768029336627,-0.88183594,-0.32861328,-0.34423828,-1.5258789,0.12207031,0.5493164,0.0,0.0,0.0,-136.0437,61.550903,176.42395
1768029336715,-0.8881836,-0.32177734,-0.3623047,-2.6245117,0.7324219,0.061035156,0.0,0.0,0.0,-136.0437,61.550903,176.42395
1768029336726,-0.8881836,-0.32177734,-0.3623047,-2.6245117,0.7324219,0.061035156,0.0,0.0,0.0,-136.40076,61.49048,176.25916
1768029336815,-0.8779297,-0.31347656,-0.32910156,-2.1972656,-4.638672,1.953125,0.0,0.0,0.0,-136.40076,61.49048,176.25916
1768029336826,-0.8779297,-0.31347656,-0.32910156,-2.1972656,-4.638672,1.953125,0.0,0.0,0.0,-136.57654,61.671753,176.28113
1768029336914,-0.8847656,-0.3149414,-0.34326172,0.8544922,0.30517578,0.36621094,0.0,0.0,0.0,-136.57654,61.671753,176.28113
1768029336926,-0.8847656,-0.3149414,-0.34326172,0.8544922,0.30517578,0.36621094,0.0,0.0,0.0,-136.33484,61.99585,176.6272
1768029337014,-0.8901367,-0.32080078,-0.34570312,0.0,-1.0375977,0.061035156,0.0,0.0,0.0,-136.33484,61.99585,176.6272
1768029337026,-0.8901367,-0.32080078,-0.34570312,0.0,-1.0375977,0.061035156,0.0,0.0,0.0,-136.21948,62.094727,176.73157
1768029337114,-0.88378906,-0.3149414,-0.34472656,-0.30517578,0.4272461,0.0,0.0,0.0,0.0,-136.21948,62.094727,176.73157
1768029337125,-0.88378906,-0.3149414,-0.34472656,-0.30517578,0.4272461,0.0,0.0,0.0,0.0,-136.1206,62.166138,176.80847
1768029337213,-0.8847656,-0.3154297,-0.34375,1.0986328,-0.12207031,0.24414062,0.0,0.0,0.0,-136.1206,62.166138,176.80847
1768029337225,-0.8847656,-0.3154297,-0.34375,1.0986328,-0.12207031,0.24414062,0.0,0.0,0.0,-136.1206,62.122192,176.77002
1768029337313,-0.88671875,-0.32080078,-0.32714844,-0.7324219,-0.8544922,0.5493164,0.0,0.0,0.0,-136.1206,62.122192,176.77002
1768029337325,-0.88671875,-0.32080078,-0.32714844,-0.7324219,-0.8544922,0.5493164,0.0,0.0,0.0,-136.32385,62.023315,176.6217
1768029337413,-0.89208984,-0.3154297,-0.32080078,0.0,-0.79345703,0.5493164,0.0,0.0,0.0,-136.32385,62.023315,176.6217
1768029337425,-0.89208984,-0.3154297,-0.32080078,0.0,-0.79345703,0.5493164,0.0,0.0,0.0,-136.38977,62.06726,176.63818
1768029337513,-0.88964844,-0.32080078,-0.3486328,-0.48828125,0.0,-0.5493164,0.0,0.0,0.0,-136.38977,62.06726,176.63818
1768029337524,-0.88964844,-0.32080078,-0.3486328,-0.48828125,0.0,-0.5493164,0.0,0.0,0.0,-136.14258,62.248535,176.92383
1768029337612,-0.8901367,-0.31689453,-0.33447266,-0.4272461,-0.61035156,0.24414062,0.0,0.0,0.0,-136.14258,62.248535,176.92383
1768029337624,-0.8901367,-0.31689453,-0.33447266,-0.4272461,-0.61035156,0.24414062,0.0,0.0,0.0,-136.18103,62.14966,176.84692
1768029337712,-0.89160156,-0.32666016,-0.33740234,0.24414062,0.4272461,-0.12207031,0.0,0.0,0.0,-136.18103,62.14966,176.84692
1768029337724,-0.89160156,-0.32666016,-0.33740234,0.24414062,0.4272461,-0.12207031,0.0,0.0,0.0,-136.23596,62.13867,176.77002
1768029337812,-0.88623047,-0.31347656,-0.33398438,0.48828125,0.36621094,-0.4272461,0.0,0.0,0.0,-136.23596,62.13867,176.77002
1768029337824,-0.88623047,-0.31347656,-0.33398438,0.48828125,0.36621094,-0.4272461,0.0,0.0,0.0,-136.18103,62.072754,176.77551
1768029337911,-0.88916016,-0.3173828,-0.33544922,1.0375977,0.9765625,-0.30517578,0.0,0.0,0.0,-136.18103,62.072754,176.77551
1768029337923,-0.88916016,-0.3173828,-0.33544922,1.0375977,0.9765625,-0.30517578,0.0,0.0,0.0,-136.15356,62.01233,176.7041
1768029338011,-0.8823242,-0.32128906,-0.33984375,1.0986328,0.7324219,-0.061035156,0.0,0.0,0.0,-136.15356,62.01233,176.7041
1768029338023,-0.8823242,-0.32128906,-0.33984375,1.0986328,0.7324219,-0.061035156,0.0,0.0,0.0,-136.21399,61.935425,176.56677
1768029338111,-0.8901367,-0.3227539,-0.34521484,0.48828125,0.7324219,-0.5493164,0.0,0.0,0.0,-136.21399,61.935425,176.56677
1768029338122,-0.8901367,-0.3227539,-0.34521484,0.48828125,0.7324219,-0.5493164,0.0,0.0,0.0,-136.02173,61.968384,176.66016
1768029338211,-0.88964844,-0.32080078,-0.34179688,-3.540039,-5.859375,-0.36621094,0.0,0.0,0.0,-136.02173,61.968384,176.66016
1768029338222,-0.88964844,-0.32080078,-0.34179688,-3.540039,-5.859375,-0.36621094,0.0,0.0,0.0,-135.93933,62.023315,176.84692
1768029338310,-0.88427734,-0.31835938,-0.31298828,3.6621094,-0.061035156,1.2207031,0.0,0.0,0.0,-135.93933,62.023315,176.84692
1768029338322,-0.88427734,-0.31835938,-0.31298828,3.6621094,-0.061035156,1.2207031,0.0,0.0,0.0,-135.76355,62.276,177.31934
1768029338410,-0.8979492,-0.3305664,-0.33154297,0.61035156,-1.3427734,0.6713867,0.0,0.0,0.0,-135.76355,62.276,177.31934
1768029338422,-0.8979492,-0.3305664,-0.33154297,0.61035156,-1.3427734,0.6713867,0.0,0.0,0.0,-135.4834,62.55066,177.53906
1768029338510,-0.89208984,-0.31982422,-0.32617188,0.12207031,-1.0986328,-0.12207031,0.0,0.0,0.0,-135.4834,62.55066,177.53906
1768029338521,-0.89208984,-0.31982422,-0.32617188,0.12207031,-1.0986328,-0.12207031,0.0,0.0,0.0,-135.30212,62.644043,177.70386
1768029338609,-0.8911133,-0.31152344,-0.3256836,0.24414062,0.061035156,0.061035156,0.0,0.0,0.0,-135.30212,62.644043,177.70386
1768029338621,-0.8911133,-0.31152344,-0.3256836,0.24414062,0.061035156,0.061035156,0.0,0.0,0.0,-135.22522,62.677002,177.79175
1768029338709,-0.8911133,-0.3178711,-0.3256836,0.24414062,-0.12207031,0.061035156,0.0,0.0,0.0,-135.22522,62.677002,177.79175
1768029338721,-0.8911133,-0.3178711,-0.3256836,0.24414062,-0.12207031,0.061035156,0.0,0.0,0.0,-135.14832,62.737427,177.87415
1768029338809,-0.8935547,-0.3203125,-0.32080078,0.0,-0.8544922,0.30517578,0.0,0.0,0.0,-135.14832,62.737427,177.87415
1768029338820,-0.8935547,-0.3203125,-0.32080078,0.0,-0.8544922,0.30517578,0.0,0.0,0.0,-135.0824,62.781372,177.94006
1768029338909,-0.8911133,-0.31689453,-0.3227539,0.0,0.18310547,0.36621094,0.0,0.0,0.0,-135.0824,62.781372,177.94006
1768029338920,-0.8911133,-0.31689453,-0.3227539,0.0,0.18310547,0.36621094,0.0,0.0,0.0,-135.0824,62.841797,177.96753
1768029339008,-0.8979492,-0.3227539,-0.32666016,-0.79345703,-1.2817383,-0.061035156,0.0,0.0,0.0,-135.0824,62.841797,177.96753
1768029339020,-0.8979492,-0.3227539,-0.32666016,-0.79345703,-1.2817383,-0.061035156,0.0,0.0,0.0,-135.0,62.907715,178.04443
1768029339108,-0.8955078,-0.32421875,-0.32080078,1.0986328,-0.18310547,-0.061035156,0.0,0.0,0.0,-135.0,62.907715,178.04443
1768029339120,-0.8955078,-0.32421875,-0.32080078,1.0986328,-0.18310547,-0.061035156,0.0,0.0,0.0,-134.91211,62.913208,178.0774
1768029339208,-0.89208984,-0.32226562,-0.31835938,0.30517578,0.36621094,-0.48828125,0.0,0.0,0.0,-134.91211,62.913208,178.0774
1768029339219,-0.89208984,-0.32226562,-0.31835938,0.30517578,0.36621094,-0.48828125,0.0,0.0,0.0,-134.78577,62.858276,178.12683
1768029339308,-0.8979492,-0.31591797,-0.28173828,-0.8544922,-21.728516,1.2817383,0.0,0.0,0.0,-134.78577,62.858276,178.12683
1768029339319,-0.8979492,-0.31591797,-0.28173828,-0.8544922,-21.728516,1.2817383,0.0,0.0,0.0,-133.74207,63.237305,179.01123
1768029339407,-0.9057617,-0.32226562,-0.28125,0.6713867,-0.30517578,0.48828125,0.0,0.0,0.0,-133.74207,63.237305,179.01123
1768029339419,-0.9057617,-0.32226562,-0.28125,0.6713867,-0.30517578,0.48828125,0.0,0.0,0.0,-132.40723,64.05029,-179.4342
1768029339507,-0.9038086,-0.32910156,-0.29882812,0.48828125,-0.48828125,0.061035156,0.0,0.0,0.0,-132.40723,64.05029,-179.4342
1768029339518,-0.9038086,-0.32910156,-0.29882812,0.48828125,-0.48828125,0.061035156,0.0,0.0,0.0,-132.1106,64.209595,-179.15405
1768029339607,-0.9038086,-0.31347656,-0.28564453,0.61035156,1.159668,0.18310547,0.0,0.0,0.0,-132.1106,64.209595,-179.15405
1768029339618,-0.9038086,-0.31347656,-0.28564453,0.61035156,1.159668,0.18310547,0.0,0.0,0.0,-132.15454,64.13818,-179.22546
1768029339707,-0.9033203,-0.31445312,-0.2861328,0.12207031,-1.5869141,-0.18310547,0.0,0.0,0.0,-132.15454,64.13818,-179.22546
1768029339718,-0.9033203,-0.31445312,-0.2861328,0.12207031,-1.5869141,-0.18310547,0.0,0.0,0.0,-132.20947,64.11621,-179.2749
1768029339806,-0.89990234,-0.3154297,-0.28222656,1.0986328,0.79345703,-0.12207031,0.0,0.0,0.0,-132.20947,64.11621,-179.2749
1768029339818,-0.89990234,-0.3154297,-0.28222656,1.0986328,0.79345703,-0.12207031,0.0,0.0,0.0,-132.1106,64.17114,-179.1156
1768029339906,-0.89453125,-0.31689453,-0.27978516,3.0517578,1.5258789,-0.061035156,0.0,0.0,0.0,-132.1106,64.17114,-179.1156
1768029339918,-0.89453125,-0.31689453,-0.27978516,3.0517578,1.5258789,-0.061035156,0.0,0.0,0.0,-132.05017,64.2041,-178.96179
1768029340006,-0.9082031,-0.32373047,-0.28808594,-0.61035156,-1.3427734,0.5493164,0.0,0.0,0.0,-132.05017,64.2041,-178.96179
1768029340017,-0.9082031,-0.32373047,-0.28808594,-0.61035156,-1.3427734,0.5493164,0.0,0.0,0.0,-132.08862,64.19861,-179.02771
1768029340106,-0.9057617,-0.31591797,-0.28222656,0.12207031,1.2817383,-0.24414062,0.0,0.0,0.0,-132.08862,64.19861,-179.02771
1768029340117,-0.9057617,-0.31591797,-0.28222656,0.12207031,1.2817383,-0.24414062,0.0,0.0,0.0,-132.1051,64.22058,-178.92883
1768029340205,-0.9042969,-0.31884766,-0.28710938,-0.12207031,1.4038086,0.0,0.0,0.0,0.0,-132.1051,64.22058,-178.92883
1768029340216,-0.9042969,-0.31884766,-0.28710938,-0.12207031,1.4038086,0.0,0.0,0.0,0.0,-132.193,64.176636,-178.98926
1768029340306,-0.90625,-0.31640625,-0.29589844,0.5493164,1.2817383,-0.4272461,0.0,0.0,0.0,-132.193,64.176636,-178.98926
1768029340316,-0.90625,-0.31640625,-0.29589844,0.5493164,1.2817383,-0.4272461,0.0,0.0,0.0,-132.31934,64.072266,-179.16504
1768029340404,-0.90771484,-0.32666016,-0.31640625,5.126953,5.432129,-0.36621094,0.0,0.0,0.0,-132.31934,64.072266,-179.16504
1768029340416,-0.90771484,-0.32666016,-0.31640625,5.126953,5.432129,-0.36621094,0.0,0.0,0.0,-132.67639,63.77014,-179.76929
1768029340504,-0.8979492,-0.31689453,-0.28955078,2.5024414,7.9345703,0.0,0.0,0.0,0.0,-132.67639,63.77014,-179.76929
1768029340515,-0.8979492,-0.31689453,-0.28955078,2.5024414,7.9345703,0.0,0.0,0.0,0.0,-133.21472,63.26477,179.2804
1768029340604,-0.88671875,-0.30566406,-0.31640625,-0.5493164,6.958008,0.0,0.0,0.0,0.0,-133.21472,63.26477,179.2804
1768029340615,-0.88671875,-0.30566406,-0.31640625,-0.5493164,6.958008,0.0,0.0,0.0,0.0,-134.18152,62.88025,178.36304
1768029340703,-0.8876953,-0.31298828,-0.2944336,-3.2348633,-2.8076172,0.5493164,0.0,0.0,0.0,-134.18152,62.88025,178.36304
1768029340715,-0.8876953,-0.31298828,-0.2944336,-3.2348633,-2.8076172,0.5493164,0.0,0.0,0.0,-134.41772,62.940674,178.36304
1768029340803,-0.9003906,-0.3227539,-0.33935547,1.7700195,-2.9907227,0.91552734,0.0,0.0,0.0,-134.41772,62.940674,178.36304
1768029340815,-0.9003906,-0.3227539,-0.33935547,1.7700195,-2.9907227,0.91552734,0.0,0.0,0.0,-133.45093,63.517456,179.36829
1768029340903,-0.89941406,-0.32910156,-0.31884766,-1.8920898,-3.7841797,1.2817383,0.0,0.0,0.0,-133.45093,63.517456,179.36829
1768029340915,-0.89941406,-0.32910156,-0.31884766,-1.8920898,-3.7841797,1.2817383,0.0,0.0,0.0,-133.3081,63.742676,179.5221
1768029341003,-0.8989258,-0.31103516,-0.31201172,-0.5493164,0.9765625,-0.36621094,0.0,0.0,0.0,-133.3081,63.742676,179.5221
1768029341015,-0.8989258,-0.31103516,-0.31201172,-0.5493164,0.9765625,-0.36621094,0.0,0.0,0.0,-133.41248,63.709717,179.53308
1768029341102,-0.90527344,-0.3100586,-0.3071289,-0.5493164,0.36621094,0.12207031,0.0,0.0,0.0,-133.41248,63.709717,179.53308
1768029341114,-0.90527344,-0.3100586,-0.3071289,-0.5493164,0.36621094,0.12207031,0.0,0.0,0.0,-133.53882,63.671265,179.4342
1768029341202,-0.90185547,-0.3203125,-0.30810547,0.48828125,1.0375977,-0.18310547,0.0,0.0,0.0,-133.53882,63.671265,179.4342
1768029341215,-0.90185547,-0.3203125,-0.30810547,0.48828125,1.0375977,-0.18310547,0.0,0.0,0.0,-133.7201,63.638306,179.26392
1768029341302,-0.8984375,-0.31982422,-0.30615234,0.18310547,0.61035156,-0.4272461,0.0,0.0,0.0,-133.7201,63.638306,179.26392
1768029341313,-0.8984375,-0.31982422,-0.30615234,0.18310547,0.61035156,-0.4272461,0.0,0.0,0.0,-133.66516,63.5614,179.26392
1768029341402,-0.89941406,-0.3149414,-0.3071289,-0.36621094,0.8544922,-0.12207031,0.0,0.0,0.0,-133.66516,63.5614,179.26392
1768029341413,-0.89941406,-0.3149414,-0.3071289,-0.36621094,0.8544922,-0.12207031,0.0,0.0,0.0,-133.76404,63.50647,179.18152
1768029341501,-0.9013672,-0.31640625,-0.31640625,-0.7324219,0.6713867,0.30517578,0.0,0.0,0.0,-133.76404,63.50647,179.18152
1768029341513,-0.9013672,-0.31640625,-0.31640625,-0.7324219,0.6713867,0.30517578,0.0,0.0,0.0,-133.82996,63.500977,179.13757
1768029341601,-0.89160156,-0.32666016,-0.296875,5.2490234,9.765625,0.0,0.0,0.0,0.0,-133.82996,63.500977,179.13757
1768029341613,-0.89160156,-0.32666016,-0.296875,5.2490234,9.765625,0.0,0.0,0.0,0.0,-135.17578,62.95166,177.8247
1768029341701,-0.89453125,-0.31445312,-0.3125,-0.61035156,0.18310547,0.7324219,0.0,0.0,0.0,-135.17578,62.95166,177.8247
1768029341712,-0.89453125,-0.31445312,-0.3125,-0.61035156,0.18310547,0.7324219,0.0,0.0,0.0,-135.1593,62.946167,177.79175
1768029341800,-0.8901367,-0.3125,-0.3227539,0.5493164,0.24414062,0.0,0.0,0.0,0.0,-135.1593,62.946167,177.79175
1768029341812,-0.8901367,-0.3125,-0.3227539,0.5493164,0.24414062,0.0,0.0,0.0,0.0,-135.1648,62.995605,177.8247
1768029341900,-0.88964844,-0.3100586,-0.3178711,0.48828125,-2.319336,0.12207031,0.0,0.0,0.0,-135.1648,62.995605,177.8247
1768029341912,-0.88964844,-0.3100586,-0.3178711,0.48828125,-2.319336,0.12207031,0.0,0.0,0.0,-134.96155,63.099976,178.01147
1768029342000,-0.9042969,-0.32080078,-0.32128906,0.30517578,-5.6152344,0.30517578,0.0,0.0,0.0,-134.96155,63.099976,178.01147
1768029342011,-0.9042969,-0.32080078,-0.32128906,0.30517578,-5.6152344,0.30517578,0.0,0.0,0.0,-134.46716,63.319702,178.41797
1768029342099,-0.8886719,-0.3173828,-0.3154297,-0.8544922,-2.1972656,0.30517578,0.0,0.0,0.0,-134.46716,63.319702,178.41797
1768029342111,-0.8886719,-0.3173828,-0.3154297,-0.8544922,-2.1972656,0.30517578,0.0,0.0,0.0,-133.98376,63.53943,178.92334
1768029342199,-0.8984375,-0.31689453,-0.31298828,-0.24414062,-0.48828125,-0.61035156,0.0,0.0,0.0,-133.98376,63.53943,178.92334
1768029342211,-0.8984375,-0.31689453,-0.31298828,-0.24414062,-0.48828125,-0.61035156,0.0,0.0,0.0,-133.88489,63.55591,179.0387
1768029342299,-0.9057617,-0.31933594,-0.30078125,-2.2583008,-0.8544922,0.30517578,0.0,0.0,0.0,-133.88489,63.55591,179.0387
1768029342310,-0.9057617,-0.31933594,-0.30078125,-2.2583008,-0.8544922,0.30517578,0.0,0.0,0.0,-133.91785,63.66028,179.3573
1768029342399,-0.90625,-0.3227539,-0.33789062,-4.0283203,1.5869141,0.48828125,0.0,0.0,0.0,-133.91785,63.66028,179.3573
1768029342410,-0.90625,-0.3227539,-0.33789062,-4.0283203,1.5869141,0.48828125,0.0,0.0,0.0,-133.86292,63.753662,179.50562
1768029342498,-0.8989258,-0.31298828,-0.3256836,0.24414062,-0.24414062,0.30517578,0.0,0.0,0.0,-133.86292,63.753662,179.50562
1768029342510,-0.8989258,-0.31298828,-0.3256836,0.24414062,-0.24414062,0.30517578,0.0,0.0,0.0,-134.0332,63.753662,179.34631
1768029342598,-0.8930664,-0.30908203,-0.31689453,0.0,0.24414062,0.30517578,0.0,0.0,0.0,-134.0332,63.753662,179.34631
1768029342610,-0.8930664,-0.30908203,-0.31689453,0.0,0.24414062,0.30517578,0.0,0.0,0.0,-134.06067,63.709717,179.25293
1768029342698,-0.90185547,-0.3095703,-0.31298828,-2.5634766,-1.5258789,0.0,0.0,0.0,0.0,-134.06067,63.709717,179.25293
1768029342709,-0.90185547,-0.3095703,-0.31298828,-2.5634766,-1.5258789,0.0,0.0,0.0,0.0,-134.1156,63.709717,179.21448
1768029342797,-0.9042969,-0.30566406,-0.2890625,2.4414062,-0.79345703,0.4272461,0.0,0.0,0.0,-134.1156,63.709717,179.21448
1768029342809,-0.9042969,-0.30566406,-0.2890625,2.4414062,-0.79345703,0.4272461,0.0,0.0,0.0,-134.33533,63.68225,179.07715
1768029342897,-0.8955078,-0.33251953,-0.35498047,-5.79834,-9.58252,-0.48828125,0.0,0.0,0.0,-134.33533,63.68225,179.07715
1768029342909,-0.8955078,-0.33251953,-0.35498047,-5.79834,-9.58252,-0.48828125,0.0,0.0,0.0,-133.85193,63.66577,179.24194
1768029342997,-0.89990234,-0.31884766,-0.29589844,-4.272461,-3.0517578,0.7324219,0.0,0.0,0.0,-133.85193,63.66577,179.24194
1768029343008,-0.89990234,-0.31884766,-0.29589844,-4.272461,-3.0517578,0.7324219,0.0,0.0,0.0,-133.9508,63.54492,179.17603
1768029343097,-0.8989258,-0.31054688,-0.296875,-0.6713867,0.0,0.91552734,0.0,0.0,0.0,-133.9508,63.54492,179.17603
1768029343108,-0.8989258,-0.31054688,-0.296875,-0.6713867,0.0,0.91552734,0.0,0.0,0.0,-134.17053,63.55591,179.0332
1768029343196,-0.89404297,-0.31298828,-0.3076172,0.91552734,1.159668,-0.18310547,0.0,0.0,0.0,-134.17053,63.55591,179.0332
1768029343208,-0.89404297,-0.31298828,-0.3076172,0.91552734,1.159668,-0.18310547,0.0,0.0,0.0,-134.26941,63.55591,178.89038
1768029343296,-0.9013672,-0.31591797,-0.3203125,1.0375977,0.7324219,-0.061035156,0.0,0.0,0.0,-134.26941,63.55591,178.89038
1768029343308,-0.9013672,-0.31591797,-0.3203125,1.0375977,0.7324219,-0.061035156,0.0,0.0,0.0,-134.40674,63.468018,178.7201
1768029343396,-0.90722656,-0.31933594,-0.33496094,5.065918,1.953125,-0.5493164,0.0,0.0,0.0,-134.40674,63.468018,178.7201
1768029343407,-0.90722656,-0.31933594,-0.33496094,5.065918,1.953125,-0.5493164,0.0,0.0,0.0,-134.39026,63.215332,178.41248
1768029343495,-0.88916016,-0.31298828,-0.29296875,0.9765625,-0.48828125,0.18310547,0.0,0.0,0.0,-134.39026,63.215332,178.41248
1768029343507,-0.88916016,-0.31298828,-0.29296875,0.9765625,-0.48828125,0.18310547,0.0,0.0,0.0,-134.28589,63.138428,178.21472
1768029343595,-0.89501953,-0.3071289,-0.29589844,-2.5024414,-1.4648438,-0.6713867,0.0,0.0,0.0,-134.28589,63.138428,178.21472
1768029343607,-0.89501953,-0.3071289,-0.29589844,-2.5024414,-1.4648438,-0.6713867,0.0,0.0,0.0,-134.30237,63.20984,178.36853
1768029343695,-0.88964844,-0.31982422,-0.2919922,0.5493164,7.8125,1.0986328,0.0,0.0,0.0,-134.30237,63.20984,178.36853
1768029343707,-0.88964844,-0.31982422,-0.2919922,0.5493164,7.8125,1.0986328,0.0,0.0,0.0,-135.10986,63.23181,178.36853
1768029343795,-0.9116211,-0.3256836,-0.34179688,0.8544922,-0.36621094,0.36621094,0.0,0.0,0.0,-135.10986,63.23181,178.36853
