timestamp,accX,accY,accZ,gyroX,gyroY,gyroZ,magX,magY,magZ,roll,pitch,yaw
1768029174794,-0.90234375,-0.3466797,-0.26757812,6.4086914,9.399414,-2.2583008,0.0,0.0,0.0,-127.61719,63.92395,102.72766
1768029174806,-0.90234375,-0.3466797,-0.26757812,6.4086914,9.399414,-2.2583008,0.0,0.0,0.0,-128.15002,63.47351,101.9751
1768029174894,-0.88623047,-0.33740234,-0.26123047,1.4648438,2.1972656,-0.91552734,0.0,0.0,0.0,-128.15002,63.47351,101.9751
1768029174909,-0.88623047,-0.33740234,-0.26123047,1.4648438,2.1972656,-0.91552734,0.0,0.0,0.0,-128.43567,63.099976,101.1676
1768029174993,-0.89160156,-0.35302734,-0.28125,0.36621094,-2.8686523,-0.4272461,0.0,0.0,0.0,-128.43567,63.099976,101.1676
1768029175006,-0.89160156,-0.35302734,-0.28125,0.36621094,-2.8686523,-0.4272461,0.0,0.0,0.0,-128.18848,63.242798,101.0907
1768029175093,-0.89501953,-0.3955078,-0.22998047,1.7700195,0.6713867,-0.12207031,0.0,0.0,0.0,-128.18848,63.242798,101.0907
1768029175107,-0.89501953,-0.3955078,-0.22998047,1.7700195,0.6713867,-0.12207031,0.0,0.0,0.0,-127.803955,63.407593,101.398315
1768029175193,-0.9042969,-0.3305664,-0.29003906,2.746582,-1.4648438,0.5493164,0.0,0.0,0.0,-127.803955,63.407593,101.398315
1768029175204,-0.9042969,-0.3305664,-0.29003906,2.746582,-1.4648438,0.5493164,0.0,0.0,0.0,-127.9303,63.429565,101.44226
1768029175293,-0.8847656,-0.3798828,-0.27001953,-2.1362305,-1.5869141,5.065918,0.0,0.0,0.0,-127.9303,63.429565,101.44226
1768029175307,-0.8847656,-0.3798828,-0.27001953,-2.1362305,-1.5869141,5.065918,0.0,0.0,0.0,-128.43018,63.66577,100.90393
1768029175392,-0.921875,-0.31640625,-0.2631836,4.333496,-1.4648438,0.7324219,0.0,0.0,0.0,-128.43018,63.66577,100.90393
1768029175403,-0.921875,-0.31640625,-0.2631836,4.333496,-1.4648438,0.7324219,0.0,0.0,0.0,-128.26538,64.209595,101.03027
1768029175492,-0.921875,-0.31152344,-0.28271484,-0.48828125,-1.0375977,-3.0517578,0.0,0.0,0.0,-128.26538,64.209595,101.03027
1768029175503,-0.921875,-0.31152344,-0.28271484,-0.48828125,-1.0375977,-3.0517578,0.0,0.0,0.0,-127.86987,64.21509,101.07971
1768029175591,-0.89990234,-0.3696289,-0.24609375,-0.061035156,0.5493164,-0.91552734,0.0,0.0,0.0,-127.86987,64.21509,101.07971
1768029175603,-0.89990234,-0.3696289,-0.24609375,-0.061035156,0.5493164,-0.91552734,0.0,0.0,0.0,-127.5238,63.808594,101.27197
1768029175691,-0.8989258,-0.33398438,-0.25732422,2.380371,1.4038086,-1.8310547,0.0,0.0,0.0,-127.5238,63.808594,101.27197
1768029175703,-0.8989258,-0.33398438,-0.25732422,2.380371,1.4038086,-1.8310547,0.0,0.0,0.0,-127.073364,63.671265,101.38733
1768029175791,-0.9038086,-0.36865234,-0.26904297,0.6713867,1.2207031,1.4038086,0.0,0.0,0.0,-127.073364,63.671265,101.38733
1768029175802,-0.9038086,-0.36865234,-0.26904297,0.6713867,1.2207031,1.4038086,0.0,0.0,0.0,-126.798706,63.6438,101.12915
1768029175891,-0.90283203,-0.36572266,-0.24023438,3.9672852,2.8686523,-3.540039,0.0,0.0,0.0,-126.798706,63.6438,101.12915
1768029175902,-0.90283203,-0.36572266,-0.24023438,3.9672852,2.8686523,-3.540039,0.0,0.0,0.0,-126.71631,63.616333,101.37634
1768029175990,-0.88427734,-0.32763672,-0.2578125,0.5493164,1.8310547,-1.3427734,0.0,0.0,0.0,-126.71631,63.616333,101.37634
1768029176002,-0.88427734,-0.32763672,-0.2578125,0.5493164,1.8310547,-1.3427734,0.0,0.0,0.0,-126.743774,63.19336,101.18408
1768029176090,-0.8876953,-0.34228516,-0.2475586,-2.319336,-11.71875,0.4272461,0.0,0.0,0.0,-126.743774,63.19336,101.18408
1768029176102,-0.8876953,-0.34228516,-0.2475586,-2.319336,-11.71875,0.4272461,0.0,0.0,0.0,-125.89783,63.47351,102.15637
1768029176190,-0.9003906,-0.375,-0.24316406,-2.9907227,0.0,3.6010742,0.0,0.0,0.0,-125.89783,63.47351,102.15637
1768029176201,-0.9003906,-0.375,-0.24316406,-2.9907227,0.0,3.6010742,0.0,0.0,0.0,-125.93628,63.90747,102.40906
1768029176289,-0.8964844,-0.3334961,-0.2548828,1.0375977,2.6245117,0.4272461,0.0,0.0,0.0,-125.93628,63.90747,102.40906
1768029176301,-0.8964844,-0.3334961,-0.2548828,1.0375977,2.6245117,0.4272461,0.0,0.0,0.0,-126.39221,64.11072,102.20581
1768029176389,-0.9111328,-0.34033203,-0.26953125,-1.8920898,-0.12207031,0.5493164,0.0,0.0,0.0,-126.39221,64.11072,102.20581
1768029176401,-0.9111328,-0.34033203,-0.26953125,-1.8920898,-0.12207031,0.5493164,0.0,0.0,0.0,-126.67236,64.2041,102.073975
1768029176489,-0.9003906,-0.34716797,-0.26123047,0.18310547,0.24414062,0.0,0.0,0.0,0.0,-126.67236,64.2041,102.073975
1768029176500,-0.9003906,-0.34716797,-0.26123047,0.18310547,0.24414062,0.0,0.0,0.0,0.0,-126.798706,64.14368,101.986084
1768029176589,-0.8979492,-0.34423828,-0.27441406,0.18310547,-0.79345703,-0.30517578,0.0,0.0,0.0,-126.798706,64.14368,101.986084
1768029176600,-0.8979492,-0.34423828,-0.27441406,0.18310547,-0.79345703,-0.30517578,0.0,0.0,0.0,-126.73279,64.11072,102.01904
1768029176688,-0.89990234,-0.359375,-0.2397461,1.5258789,0.36621094,0.61035156,0.0,0.0,0.0,-126.73279,64.11072,102.01904
1768029176700,-0.89990234,-0.359375,-0.2397461,1.5258789,0.36621094,0.61035156,0.0,0.0,0.0,-126.89209,64.03931,101.94214
1768029176788,-0.8959961,-0.34521484,-0.28515625,1.4038086,-1.3427734,-0.9765625,0.0,0.0,0.0,-126.89209,64.03931,101.94214
1768029176799,-0.8959961,-0.34521484,-0.28515625,1.4038086,-1.3427734,-0.9765625,0.0,0.0,0.0,-126.485596,64.13269,102.249756
1768029176888,-0.89941406,-0.36083984,-0.2578125,2.1972656,0.12207031,0.36621094,0.0,0.0,0.0,-126.485596,64.13269,102.249756
1768029176899,-0.89941406,-0.36083984,-0.2578125,2.1972656,0.12207031,0.36621094,0.0,0.0,0.0,-126.430664,64.072266,102.26074
1768029176988,-0.93652344,-0.34716797,-0.2548828,-1.953125,2.4414062,-2.1362305,0.0,0.0,0.0,-126.430664,64.072266,102.26074
1768029176999,-0.93652344,-0.34716797,-0.2548828,-1.953125,2.4414062,-2.1362305,0.0,0.0,0.0,-126.727295,64.06128,102.22229
1768029177087,-0.8857422,-0.36572266,-0.2578125,0.7324219,-2.8076172,1.8920898,0.0,0.0,0.0,-126.727295,64.06128,102.22229
1768029177099,-0.8857422,-0.36572266,-0.2578125,0.7324219,-2.8076172,1.8920898,0.0,0.0,0.0,-126.57349,63.95691,102.51892
1768029177187,-0.9111328,-0.32958984,-0.24023438,-8.544922,-0.12207031,4.699707,0.0,0.0,0.0,-126.57349,63.95691,102.51892
1768029177198,-0.9111328,-0.32958984,-0.24023438,-8.544922,-0.12207031,4.699707,0.0,0.0,0.0,-127.21069,64.297485,102.27173
1768029177286,-0.91064453,-0.3359375,-0.26953125,-4.0893555,0.36621094,1.2817383,0.0,0.0,0.0,-127.21069,64.297485,102.27173
1768029177298,-0.91064453,-0.3359375,-0.26953125,-4.0893555,0.36621094,1.2817383,0.0,0.0,0.0,-127.73804,64.59961,102.299194
1768029177386,-0.88623047,-0.3701172,-0.2861328,-3.1738281,3.1738281,-2.746582,0.0,0.0,0.0,-127.73804,64.59961,102.299194
1768029177398,-0.88623047,-0.3701172,-0.2861328,-3.1738281,3.1738281,-2.746582,0.0,0.0,0.0,-128.10059,64.39087,102.10693
1768029177486,-0.9135742,-0.3515625,-0.2524414,-0.48828125,-0.61035156,-0.061035156,0.0,0.0,0.0,-128.10059,64.39087,102.10693
1768029177498,-0.9135742,-0.3515625,-0.2524414,-0.48828125,-0.61035156,-0.061035156,0.0,0.0,0.0,-128.46313,64.055786,102.11243
1768029177585,-0.91308594,-0.3095703,-0.2788086,0.18310547,-1.7700195,0.12207031,0.0,0.0,0.0,-128.46313,64.055786,102.11243
1768029177597,-0.91308594,-0.3095703,-0.2788086,0.18310547,-1.7700195,0.12207031,0.0,0.0,0.0,-128.70483,64.06128,102.420044
1768029177685,-0.8925781,-0.3720703,-0.26464844,8.056641,2.4414062,-3.1738281,0.0,0.0,0.0,-128.70483,64.06128,102.420044
1768029177697,-0.8925781,-0.3720703,-0.26464844,8.056641,2.4414062,-3.1738281,0.0,0.0,0.0,-128.30383,63.885498,102.71118
1768029177785,-0.87109375,-0.31591797,-0.27197266,-5.6762695,-1.0375977,0.36621094,0.0,0.0,0.0,-128.30383,63.885498,102.71118
1768029177796,-0.87109375,-0.31591797,-0.27197266,-5.6762695,-1.0375977,0.36621094,0.0,0.0,0.0,-128.06763,63.572388,103.04077
1768029177885,-0.92578125,-0.38867188,-0.24804688,-16.784668,-0.36621094,22.766113,0.0,0.0,0.0,-128.06763,63.572388,103.04077
1768029177896,-0.92578125,-0.38867188,-0.24804688,-16.784668,-0.36621094,22.766113,0.0,0.0,0.0,-130.19897,64.66553,102.09595
1768029177984,-0.90478516,-0.25097656,-0.35888672,-8.605957,-2.0141602,0.48828125,0.0,0.0,0.0,-130.19897,64.66553,102.09595
1768029177996,-0.90478516,-0.25097656,-0.35888672,-8.605957,-2.0141602,0.48828125,0.0,0.0,0.0,-133.02795,65.60486,100.667725
1768029178084,-0.8828125,-0.2944336,-0.19824219,8.483887,7.873535,-4.211426,0.0,0.0,0.0,-133.02795,65.60486,100.667725
1768029178096,-0.8828125,-0.2944336,-0.19824219,8.483887,7.873535,-4.211426,0.0,0.0,0.0,-132.46216,64.98413,100.997314
1768029178184,-0.9321289,-0.27685547,-0.28466797,6.7749023,1.2817383,-3.2348633,0.0,0.0,0.0,-132.46216,64.98413,100.997314
1768029178196,-0.9321289,-0.27685547,-0.28466797,6.7749023,1.2817383,-3.2348633,0.0,0.0,0.0,-131.99524,64.868774,101.326904
1768029178283,-0.9003906,-0.33740234,-0.28125,8.544922,2.9907227,-5.9814453,0.0,0.0,0.0,-131.99524,64.868774,101.326904
1768029178295,-0.9003906,-0.33740234,-0.28125,8.544922,2.9907227,-5.9814453,0.0,0.0,0.0,-130.8252,64.53369,102.31018
1768029178383,-0.9277344,-0.2607422,-0.30322266,2.5024414,-2.1362305,-3.6621094,0.0,0.0,0.0,-130.8252,64.53369,102.31018
1768029178395,-0.9277344,-0.2607422,-0.30322266,2.5024414,-2.1362305,-3.6621094,0.0,0.0,0.0,-129.58923,64.16016,103.07373
1768029178483,-0.9272461,-0.3310547,-0.25927734,33.996582,5.7373047,-14.038086,0.0,0.0,0.0,-129.58923,64.16016,103.07373
1768029178496,-0.9272461,-0.3310547,-0.25927734,33.996582,5.7373047,-14.038086,0.0,0.0,0.0,-126.73279,63.479004,104.49097
1768029178583,-0.88134766,-0.38085938,-0.26708984,17.27295,3.6010742,-15.50293,0.0,0.0,0.0,-126.73279,63.479004,104.49097
1768029178594,-0.88134766,-0.38085938,-0.26708984,17.27295,3.6010742,-15.50293,0.0,0.0,0.0,-123.464355,62.226562,105.53467
1768029178684,-0.83251953,-0.41064453,-0.20898438,7.385254,6.8359375,-1.2207031,0.0,0.0,0.0,-123.464355,62.226562,105.53467
1768029178694,-0.83251953,-0.41064453,-0.20898438,7.385254,6.8359375,-1.2207031,0.0,0.0,0.0,-122.72278,61.36963,105.5072
1768029178782,-0.83984375,-0.4663086,-0.3076172,-3.540039,1.8310547,-1.6479492,0.0,0.0,0.0,-122.72278,61.36963,105.5072
1768029178797,-0.83984375,-0.4663086,-0.3076172,-3.540039,1.8310547,-1.6479492,0.0,0.0,0.0,-123.32153,61.034546,103.7439
1768029178883,-0.8510742,-0.4169922,-0.21923828,6.713867,0.8544922,2.0141602,0.0,0.0,0.0,-123.32153,61.034546,103.7439
1768029178893,-0.8510742,-0.4169922,-0.21923828,6.713867,0.8544922,2.0141602,0.0,0.0,0.0,-122.4646,60.5896,103.63403
1768029178984,-0.91064453,-0.36279297,-0.2705078,-9.155273,-4.1503906,4.9438477,0.0,0.0,0.0,-122.4646,60.5896,103.63403
1768029178993,-0.91064453,-0.36279297,-0.2705078,-9.155273,-4.1503906,4.9438477,0.0,0.0,0.0,-122.805176,61.14441,103.18359
1768029179081,-0.8901367,-0.3959961,-0.28125,-6.652832,0.48828125,3.3569336,0.0,0.0,0.0,-122.805176,61.14441,103.18359
1768029179093,-0.8901367,-0.3959961,-0.28125,-6.652832,0.48828125,3.3569336,0.0,0.0,0.0,-123.722534,61.61682,102.84851
1768029179181,-0.87890625,-0.40576172,-0.2553711,0.4272461,2.1362305,0.79345703,0.0,0.0,0.0,-123.722534,61.61682,102.84851
1768029179193,-0.87890625,-0.40576172,-0.2553711,0.4272461,2.1362305,0.79345703,0.0,0.0,0.0,-124.54651,61.52893,101.94214
1768029179281,-0.8886719,-0.38720703,-0.28564453,0.061035156,3.7841797,-0.48828125,0.0,0.0,0.0,-124.54651,61.52893,101.94214
1768029179292,-0.8886719,-0.38720703,-0.28564453,0.061035156,3.7841797,-0.48828125,0.0,0.0,0.0,-124.77173,61.42456,101.52466
1768029179380,-0.8833008,-0.3720703,-0.2631836,-0.5493164,-0.24414062,1.0375977,0.0,0.0,0.0,-124.77173,61.42456,101.52466
1768029179392,-0.8833008,-0.3720703,-0.2631836,-0.5493164,-0.24414062,1.0375977,0.0,0.0,0.0,-125.17273,61.331177,100.93689
1768029179480,-0.8803711,-0.3930664,-0.27783203,0.24414062,2.2583008,0.0,0.0,0.0,0.0,-125.17273,61.331177,100.93689
1768029179491,-0.8803711,-0.3930664,-0.27783203,0.24414062,2.2583008,0.0,0.0,0.0,0.0,-125.43091,61.358643,100.651245
1768029179580,-0.87841797,-0.39892578,-0.28222656,1.2817383,1.7089844,-0.48828125,0.0,0.0,0.0,-125.43091,61.358643,100.651245
1768029179592,-0.87841797,-0.39892578,-0.28222656,1.2817383,1.7089844,-0.48828125,0.0,0.0,0.0,-125.6012,61.18286,100.27771
1768029179679,-0.8808594,-0.38183594,-0.26953125,-1.159668,0.24414062,0.12207031,0.0,0.0,0.0,-125.6012,61.18286,100.27771
1768029179691,-0.8808594,-0.38183594,-0.26953125,-1.159668,0.24414062,0.12207031,0.0,0.0,0.0,-125.71655,61.00708,99.904175
1768029179779,-0.8564453,-0.40283203,-0.29541016,-1.0986328,1.5258789,3.0517578,0.0,0.0,0.0,-125.71655,61.00708,99.904175
1768029179790,-0.8564453,-0.40283203,-0.29541016,-1.0986328,1.5258789,3.0517578,0.0,0.0,0.0,-126.0022,61.00708,99.591064
1768029179879,-0.90234375,-0.36914062,-0.28808594,4.9438477,-7.2631836,0.18310547,0.0,0.0,0.0,-126.0022,61.00708,99.591064
1768029179890,-0.90234375,-0.36914062,-0.28808594,4.9438477,-7.2631836,0.18310547,0.0,0.0,0.0,-125.17822,61.61133,100.112915
1768029179978,-0.8701172,-0.36865234,-0.24365234,4.211426,-4.1503906,-1.7089844,0.0,0.0,0.0,-125.17822,61.61133,100.112915
1768029179990,-0.8701172,-0.36865234,-0.24365234,4.211426,-4.1503906,-1.7089844,0.0,0.0,0.0,-124.00818,61.655273,101.06323
1768029180078,-0.8798828,-0.41015625,-0.27392578,-6.1035156,4.0893555,3.2958984,0.0,0.0,0.0,-124.00818,61.655273,101.06323
1768029180090,-0.8798828,-0.41015625,-0.27392578,-6.1035156,4.0893555,3.2958984,0.0,0.0,0.0,-124.3103,61.869507,101.11267
1768029180178,-0.8754883,-0.39697266,-0.27490234,0.061035156,-5.92041,2.380371,0.0,0.0,0.0,-124.3103,61.869507,101.11267
1768029180189,-0.8754883,-0.39697266,-0.27490234,0.061035156,-5.92041,2.380371,0.0,0.0,0.0,-124.25537,62.02881,100.684204
1768029180278,-0.8901367,-0.3642578,-0.25439453,1.159668,2.0751953,1.159668,0.0,0.0,0.0,-124.25537,62.02881,100.684204
1768029180289,-0.8901367,-0.3642578,-0.25439453,1.159668,2.0751953,1.159668,0.0,0.0,0.0,-124.40918,62.056274,100.27222
1768029180377,-0.8881836,-0.375,-0.27490234,0.0,-0.6713867,0.061035156,0.0,0.0,0.0,-124.40918,62.056274,100.27222
1768029180389,-0.8881836,-0.375,-0.27490234,0.0,-0.6713867,0.061035156,0.0,0.0,0.0,-124.17297,62.243042,100.34363
1768029180477,-0.88427734,-0.39013672,-0.26171875,1.4648438,-0.24414062,-0.18310547,0.0,0.0,0.0,-124.17297,62.243042,100.34363
1768029180488,-0.88427734,-0.39013672,-0.26171875,1.4648438,-0.24414062,-0.18310547,0.0,0.0,0.0,-124.107056,62.226562,100.21179
1768029180577,-0.8930664,-0.3857422,-0.26220703,0.36621094,1.0986328,-0.48828125,0.0,0.0,0.0,-124.107056,62.226562,100.21179
1768029180589,-0.8930664,-0.3857422,-0.26220703,0.36621094,1.0986328,-0.48828125,0.0,0.0,0.0,-124.035645,62.166138,100.13489
1768029180676,-0.88671875,-0.38330078,-0.26904297,-1.4648438,2.380371,-0.061035156,0.0,0.0,0.0,-124.035645,62.166138,100.13489
1768029180688,-0.88671875,-0.38330078,-0.26904297,-1.4648438,2.380371,-0.061035156,0.0,0.0,0.0,-124.28833,62.078247,99.86023
1768029180776,-0.88671875,-0.38623047,-0.26367188,-0.48828125,0.0,0.30517578,0.0,0.0,0.0,-124.28833,62.078247,99.86023
1768029180788,-0.88671875,-0.38623047,-0.26367188,-0.48828125,0.0,0.30517578,0.0,0.0,0.0,-124.51355,62.061768,99.60205
1768029180876,-0.8881836,-0.3798828,-0.26171875,-0.4272461,0.12207031,0.36621094,0.0,0.0,0.0,-124.51355,62.061768,99.60205
1768029180887,-0.8881836,-0.3798828,-0.26171875,-0.4272461,0.12207031,0.36621094,0.0,0.0,0.0,-124.59595,62.039795,99.47571
1768029180976,-0.890625,-0.37646484,-0.26416016,-0.061035156,2.4414062,-1.2817383,0.0,0.0,0.0,-124.59595,62.039795,99.47571
1768029180987,-0.890625,-0.37646484,-0.26416016,-0.061035156,2.4414062,-1.2817383,0.0,0.0,0.0,-124.70581,62.001343,99.332886
1768029181075,-0.89404297,-0.39208984,-0.27734375,1.8920898,-1.2817383,-0.9765625,0.0,0.0,0.0,-124.70581,62.001343,99.332886
1768029181087,-0.89404297,-0.39208984,-0.27734375,1.8920898,-1.2817383,-0.9765625,0.0,0.0,0.0,-124.57947,61.80359,99.244995
1768029181175,-0.8803711,-0.39257812,-0.26708984,-1.953125,2.319336,0.48828125,0.0,0.0,0.0,-124.57947,61.80359,99.244995
1768029181186,-0.8803711,-0.39257812,-0.26708984,-1.953125,2.319336,0.48828125,0.0,0.0,0.0,-124.72778,61.765137,99.003296
1768029181275,-0.88183594,-0.37890625,-0.27197266,-1.8310547,0.5493164,0.91552734,0.0,0.0,0.0,-124.72778,61.765137,99.003296
1768029181288,-0.88183594,-0.37890625,-0.27197266,-1.8310547,0.5493164,0.91552734,0.0,0.0,0.0,-125.10681,61.82556,98.60779
1768029181374,-0.8852539,-0.37597656,-0.2631836,-0.12207031,-1.0375977,0.61035156,0.0,0.0,0.0,-125.10681,61.82556,98.60779
1768029181386,-0.8852539,-0.37597656,-0.2631836,-0.12207031,-1.0375977,0.61035156,0.0,0.0,0.0,-125.29358,61.85852,98.360596
1768029181474,-0.8833008,-0.37597656,-0.26904297,1.0986328,0.9765625,-0.5493164,0.0,0.0,0.0,-125.29358,61.85852,98.360596
1768029181488,-0.8833008,-0.37597656,-0.26904297,1.0986328,0.9765625,-0.5493164,0.0,0.0,0.0,-125.10681,61.92993,98.393555
1768029181574,-0.8852539,-0.38476562,-0.27197266,0.18310547,-0.24414062,0.18310547,0.0,0.0,0.0,-125.10681,61.92993,98.393555
1768029181586,-0.8852539,-0.38476562,-0.27197266,0.18310547,-0.24414062,0.18310547,0.0,0.0,0.0,-125.01892,61.940918,98.32214
1768029181673,-0.88720703,-0.37890625,-0.2705078,-0.30517578,-0.30517578,0.24414062,0.0,0.0,0.0,-125.01892,61.940918,98.32214
1768029181686,-0.88720703,-0.37890625,-0.2705078,-0.30517578,-0.30517578,0.24414062,0.0,0.0,0.0,-125.00244,61.968384,98.29468
1768029181773,-0.8886719,-0.37939453,-0.26660156,-0.061035156,0.0,0.18310547,0.0,0.0,0.0,-125.00244,61.968384,98.29468
1768029181785,-0.8886719,-0.37939453,-0.26660156,-0.061035156,0.0,0.18310547,0.0,0.0,0.0,-125.024414,62.01233,98.272705
1768029181873,-0.88623047,-0.37890625,-0.27392578,0.30517578,-1.2207031,0.18310547,0.0,0.0,0.0,-125.024414,62.01233,98.272705
1768029181885,-0.88623047,-0.37890625,-0.27392578,0.30517578,-1.2207031,0.18310547,0.0,0.0,0.0,-124.94202,62.056274,98.31116
1768029181973,-0.8886719,-0.3803711,-0.26757812,-0.4272461,2.0751953,-0.36621094,0.0,0.0,0.0,-124.94202,62.056274,98.31116
1768029181984,-0.8886719,-0.3803711,-0.26757812,-0.4272461,2.0751953,-0.36621094,0.0,0.0,0.0,-124.974976,62.056274,98.2782
1768029182072,-0.8852539,-0.37109375,-0.27392578,-6.0424805,1.0375977,0.18310547,0.0,0.0,0.0,-124.974976,62.056274,98.2782
1768029182084,-0.8852539,-0.37109375,-0.27392578,-6.0424805,1.0375977,0.18310547,0.0,0.0,0.0,-125.24963,62.039795,98.201294
1768029182172,-0.8901367,-0.37158203,-0.3154297,-12.878418,3.2958984,0.61035156,0.0,0.0,0.0,-125.24963,62.039795,98.201294
1768029182183,-0.8901367,-0.37158203,-0.3154297,-12.878418,3.2958984,0.61035156,0.0,0.0,0.0,-126.76575,61.902466,97.65747
1768029182272,-0.8803711,-0.36035156,-0.23486328,1.4038086,4.8217773,0.48828125,0.0,0.0,0.0,-126.76575,61.902466,97.65747
1768029182283,-0.8803711,-0.36035156,-0.23486328,1.4038086,4.8217773,0.48828125,0.0,0.0,0.0,-128.0951,61.853027,97.42676
1768029182371,-0.88720703,-0.3647461,-0.30810547,-2.1972656,1.4648438,-0.36621094,0.0,0.0,0.0,-128.0951,61.853027,97.42676
1768029182383,-0.88720703,-0.3647461,-0.30810547,-2.1972656,1.4648438,-0.36621094,0.0,0.0,0.0,-127.91931,61.913452,97.59155
1768029182472,-0.8803711,-0.37060547,-0.29589844,0.24414062,-2.1362305,1.2207031,0.0,0.0,0.0,-127.91931,61.913452,97.59155
1768029182483,-0.8803711,-0.37060547,-0.29589844,0.24414062,-2.1362305,1.2207031,0.0,0.0,0.0,-128.172,61.82007,97.37732
1768029182571,-0.8857422,-0.36376953,-0.28564453,-0.36621094,-0.5493164,0.18310547,0.0,0.0,0.0,-128.172,61.82007,97.37732
1768029182582,-0.8857422,-0.36376953,-0.28564453,-0.36621094,-0.5493164,0.18310547,0.0,0.0,0.0,-128.15002,61.92444,97.35535
1768029182670,-0.8925781,-0.3671875,-0.30273438,-3.2348633,-2.746582,0.36621094,0.0,0.0,0.0,-128.15002,61.92444,97.35535
1768029182682,-0.8925781,-0.3671875,-0.30273438,-3.2348633,-2.746582,0.36621094,0.0,0.0,0.0,-127.91931,62.10022,97.73987
1768029182770,-0.88720703,-0.3642578,-0.28955078,1.159668,-0.91552734,0.0,0.0,0.0,0.0,-127.91931,62.10022,97.73987
1768029182782,-0.88720703,-0.3642578,-0.28955078,1.159668,-0.91552734,0.0,0.0,0.0,0.0,-127.9303,62.111206,97.78931
1768029182870,-0.8911133,-0.3647461,-0.2861328,0.0,-1.4648438,0.24414062,0.0,0.0,0.0,-127.9303,62.111206,97.78931
1768029182882,-0.8911133,-0.3647461,-0.2861328,0.0,-1.4648438,0.24414062,0.0,0.0,0.0,-127.67761,62.210083,98.12988
1768029182970,-0.8828125,-0.36328125,-0.28125,1.953125,-1.5258789,0.18310547,0.0,0.0,0.0,-127.67761,62.210083,98.12988
1768029182982,-0.8828125,-0.36328125,-0.28125,1.953125,-1.5258789,0.18310547,0.0,0.0,0.0,-127.43042,62.314453,98.34961
1768029183069,-0.8901367,-0.37109375,-0.28710938,0.48828125,-2.1972656,0.79345703,0.0,0.0,0.0,-127.43042,62.314453,98.34961
1768029183081,-0.8901367,-0.37109375,-0.28710938,0.48828125,-2.1972656,0.79345703,0.0,0.0,0.0,-126.99097,62.407837,98.71765
1768029183169,-0.88964844,-0.36083984,-0.27197266,-0.12207031,0.5493164,-0.79345703,0.0,0.0,0.0,-126.99097,62.407837,98.71765
1768029183180,-0.88964844,-0.36083984,-0.27197266,-0.12207031,0.5493164,-0.79345703,0.0,0.0,0.0,-126.97449,62.50122,98.97034
1768029183269,-0.8911133,-0.36572266,-0.28466797,-2.5634766,-1.0986328,0.18310547,0.0,0.0,0.0,-126.97449,62.50122,98.97034
1768029183280,-0.8911133,-0.36572266,-0.28466797,-2.5634766,-1.0986328,0.18310547,0.0,0.0,0.0,-126.87012,62.539673,99.36035
1768029183368,-0.8925781,-0.36865234,-0.2685547,-1.7089844,-1.159668,0.36621094,0.0,0.0,0.0,-126.87012,62.539673,99.36035
1768029183380,-0.8925781,-0.36865234,-0.2685547,-1.7089844,-1.159668,0.36621094,0.0,0.0,0.0,-126.99097,62.556152,99.08569
1768029183468,-0.8964844,-0.36621094,-0.26611328,0.24414062,-0.12207031,-0.36621094,0.0,0.0,0.0,-126.99097,62.556152,99.08569
1768029183480,-0.8964844,-0.36621094,-0.26611328,0.24414062,-0.12207031,-0.36621094,0.0,0.0,0.0,-126.89209,62.644043,98.86047
1768029183568,-0.8720703,-0.35498047,-0.2734375,2.1362305,1.2207031,-0.24414062,0.0,0.0,0.0,-126.89209,62.644043,98.86047
1768029183579,-0.8720703,-0.35498047,-0.2734375,2.1362305,1.2207031,-0.24414062,0.0,0.0,0.0,-126.727295,62.490234,98.706665
1768029183667,-0.89501953,-0.4111328,-0.2685547,-4.1503906,1.0986328,3.2958984,0.0,0.0,0.0,-126.727295,62.490234,98.706665
1768029183679,-0.89501953,-0.4111328,-0.2685547,-4.1503906,1.0986328,3.2958984,0.0,0.0,0.0,-127.22717,62.715454,98.26721
1768029183767,-0.890625,-0.2944336,-0.3046875,-6.4697266,-4.9438477,-0.8544922,0.0,0.0,0.0,-127.22717,62.715454,98.26721
1768029183778,-0.890625,-0.2944336,-0.3046875,-6.4697266,-4.9438477,-0.8544922,0.0,0.0,0.0,-127.33154,62.7594,98.53638
1768029183867,-0.88623047,-0.3413086,-0.24414062,3.7841797,2.5634766,2.1362305,0.0,0.0,0.0,-127.33154,62.7594,98.53638
1768029183878,-0.88623047,-0.3413086,-0.24414062,3.7841797,2.5634766,2.1362305,0.0,0.0,0.0,-127.45239,62.715454,98.02551
1768029183967,-0.88671875,-0.390625,-0.2915039,7.080078,1.0986328,-0.8544922,0.0,0.0,0.0,-127.45239,62.715454,98.02551
1768029183978,-0.88671875,-0.390625,-0.2915039,7.080078,1.0986328,-0.8544922,0.0,0.0,0.0,-126.82068,62.819824,97.89368
1768029184066,-0.89746094,-0.3544922,-0.2866211,-1.159668,2.0141602,-0.9765625,0.0,0.0,0.0,-126.82068,62.819824,97.89368
1768029184078,-0.89746094,-0.3544922,-0.2866211,-1.159668,2.0141602,-0.9765625,0.0,0.0,0.0,-126.622925,62.627563,97.91565
1768029184166,-0.9033203,-0.36376953,-0.2758789,-4.699707,0.0,0.91552734,0.0,0.0,0.0,-126.622925,62.627563,97.91565
1768029184177,-0.9033203,-0.36376953,-0.2758789,-4.699707,0.0,0.91552734,0.0,0.0,0.0,-127.18323,62.616577,97.65747
1768029184266,-0.87646484,-0.3618164,-0.28125,1.4648438,-1.159668,-0.61035156,0.0,0.0,0.0,-127.18323,62.616577,97.65747
1768029184277,-0.87646484,-0.3618164,-0.28125,1.4648438,-1.159668,-0.61035156,0.0,0.0,0.0,-127.13379,62.523193,97.492676
1768029184365,-0.8886719,-0.3642578,-0.26708984,-1.0375977,0.12207031,1.159668,0.0,0.0,0.0,-127.13379,62.523193,97.492676
1768029184377,-0.8886719,-0.3642578,-0.26708984,-1.0375977,0.12207031,1.159668,0.0,0.0,0.0,-127.16675,62.56714,97.36633
1768029184465,-0.8935547,-0.3544922,-0.2734375,-1.5869141,0.91552734,0.30517578,0.0,0.0,0.0,-127.16675,62.56714,97.36633
1768029184477,-0.8935547,-0.3544922,-0.2734375,-1.5869141,0.91552734,0.30517578,0.0,0.0,0.0,-127.39197,62.67151,97.2345
1768029184565,-0.89453125,-0.36083984,-0.28125,0.30517578,0.7324219,0.24414062,0.0,0.0,0.0,-127.39197,62.67151,97.2345
1768029184576,-0.89453125,-0.36083984,-0.28125,0.30517578,0.7324219,0.24414062,0.0,0.0,0.0,-127.51831,62.704468,97.05322
1768029184664,-0.8876953,-0.35742188,-0.2836914,1.4038086,0.7324219,-0.48828125,0.0,0.0,0.0,-127.51831,62.704468,97.05322
1768029184676,-0.8876953,-0.35742188,-0.2836914,1.4038086,0.7324219,-0.48828125,0.0,0.0,0.0,-127.50183,62.63855,96.954346
1768029184764,-0.89208984,-0.36035156,-0.28027344,0.061035156,1.4648438,-0.18310547,0.0,0.0,0.0,-127.50183,62.63855,96.954346
1768029184776,-0.89208984,-0.36035156,-0.28027344,0.061035156,1.4648438,-0.18310547,0.0,0.0,0.0,-127.5238,62.594604,96.83899
1768029184864,-0.8935547,-0.36035156,-0.28466797,0.36621094,-0.48828125,-0.12207031,0.0,0.0,0.0,-127.5238,62.594604,96.83899
1768029184875,-0.8935547,-0.36035156,-0.28466797,0.36621094,-0.48828125,-0.12207031,0.0,0.0,0.0,-127.5238,62.578125,96.641235
1768029184963,-0.89941406,-0.36376953,-0.27294922,-6.713867,-6.7749023,0.0,0.0,0.0,0.0,-127.5238,62.578125,96.641235
1768029184975,-0.89941406,-0.36376953,-0.27294922,-6.713867,-6.7749023,0.0,0.0,0.0,0.0,-127.15576,62.77588,97.267456
1768029185063,-0.8901367,-0.35595703,-0.25732422,-1.3427734,-0.91552734,1.2817383,0.0,0.0,0.0,-127.15576,62.77588,97.267456
1768029185075,-0.8901367,-0.35595703,-0.25732422,-1.3427734,-0.91552734,1.2817383,0.0,0.0,0.0,-127.474365,62.98462,97.57507
1768029185163,-0.88720703,-0.3618164,-0.28222656,-2.0751953,-1.159668,2.6245117,0.0,0.0,0.0,-127.474365,62.98462,97.57507
1768029185174,-0.88720703,-0.3618164,-0.28222656,-2.0751953,-1.159668,2.6245117,0.0,0.0,0.0,-127.72705,63.26477,97.50366
1768029185263,-0.9033203,-0.34521484,-0.27539062,-1.4648438,-1.0986328,3.4179688,0.0,0.0,0.0,-127.72705,63.26477,97.50366
1768029185274,-0.9033203,-0.34521484,-0.27539062,-1.4648438,-1.0986328,3.4179688,0.0,0.0,0.0,-128.0072,63.528442,97.27844
1768029185362,-0.90722656,-0.33544922,-0.2626953,0.18310547,-0.48828125,1.953125,0.0,0.0,0.0,-128.0072,63.528442,97.27844
1768029185374,-0.90722656,-0.33544922,-0.2626953,0.18310547,-0.48828125,1.953125,0.0,0.0,0.0,-128.2489,63.753662,97.04224
1768029185462,-0.8955078,-0.34228516,-0.28710938,6.5307617,-4.8217773,-0.5493164,0.0,0.0,0.0,-128.2489,63.753662,97.04224
1768029185473,-0.8955078,-0.34228516,-0.28710938,6.5307617,-4.8217773,-0.5493164,0.0,0.0,0.0,-127.611694,63.97339,97.13562
1768029185562,-0.9067383,-0.3388672,-0.2602539,1.4648438,-0.7324219,-0.6713867,0.0,0.0,0.0,-127.611694,63.97339,97.13562
1768029185573,-0.9067383,-0.3388672,-0.2602539,1.4648438,-0.7324219,-0.6713867,0.0,0.0,0.0,-127.2876,64.06128,97.59155
1768029185661,-0.9008789,-0.33544922,-0.2602539,-10.253906,-7.6293945,-0.30517578,0.0,0.0,0.0,-127.2876,64.06128,97.59155
1768029185673,-0.9008789,-0.33544922,-0.2602539,-10.253906,-7.6293945,-0.30517578,0.0,0.0,0.0,-127.06238,64.3689,98.73413
1768029185761,-0.9082031,-0.34521484,-0.26660156,2.5024414,0.061035156,1.0986328,0.0,0.0,0.0,-127.06238,64.3689,98.73413
1768029185773,-0.9082031,-0.34521484,-0.26660156,2.5024414,0.061035156,1.0986328,0.0,0.0,0.0,-127.144775,64.56116,99.140625
1768029185861,-0.90527344,-0.3330078,-0.25439453,3.2348633,1.4038086,0.0,0.0,0.0,0.0,-127.144775,64.56116,99.140625
1768029185872,-0.90527344,-0.3330078,-0.25439453,3.2348633,1.4038086,0.0,0.0,0.0,0.0,-127.27112,64.62158,99.003296
1768029185960,-0.9135742,-0.33251953,-0.2529297,0.0,0.9765625,0.18310547,0.0,0.0,0.0,-127.27112,64.62158,99.003296
1768029185980,-0.9135742,-0.33251953,-0.2529297,0.0,0.9765625,0.18310547,0.0,0.0,0.0,-127.26013,64.66553,99.11316
1768029186060,-0.91308594,-0.3413086,-0.25,3.6010742,2.319336,-0.4272461,0.0,0.0,0.0,-127.26013,64.66553,99.11316
1768029186080,-0.91308594,-0.3413086,-0.25,3.6010742,2.319336,-0.4272461,0.0,0.0,0.0,-127.4469,64.555664,98.86597
1768029186160,-0.8959961,-0.3359375,-0.2607422,-1.7089844,-0.79345703,-0.6713867,0.0,0.0,0.0,-127.4469,64.555664,98.86597
1768029186172,-0.8959961,-0.3359375,-0.2607422,-1.7089844,-0.79345703,-0.6713867,0.0,0.0,0.0,-127.337036,64.50073,98.898926
1768029186260,-0.9038086,-0.3413086,-0.2548828,3.2348633,1.3427734,0.5493164,0.0,0.0,0.0,-127.337036,64.50073,98.898926
1768029186272,-0.9038086,-0.3413086,-0.2548828,3.2348633,1.3427734,0.5493164,0.0,0.0,0.0,-127.19971,64.5282,99.15161
1768029186359,-0.9057617,-0.3383789,-0.2709961,-1.4038086,-0.61035156,0.12207031,0.0,0.0,0.0,-127.19971,64.5282,99.15161
1768029186371,-0.9057617,-0.3383789,-0.2709961,-1.4038086,-0.61035156,0.12207031,0.0,0.0,0.0,-127.17224,64.55017,99.19006
1768029186459,-0.90527344,-0.34570312,-0.2524414,-0.61035156,2.319336,0.6713867,0.0,0.0,0.0,-127.17224,64.55017,99.19006
1768029186471,-0.90527344,-0.34570312,-0.2524414,-0.61035156,2.319336,0.6713867,0.0,0.0,0.0,-127.562256,64.522705,99.140625
1768029186559,-0.8989258,-0.33544922,-0.26513672,3.90625,2.319336,-2.319336,0.0,0.0,0.0,-127.562256,64.522705,99.140625
1768029186570,-0.8989258,-0.33544922,-0.26513672,3.90625,2.319336,-2.319336,0.0,0.0,0.0,-127.716064,64.42383,98.931885
1768029186658,-0.89746094,-0.3515625,-0.2578125,7.5683594,2.8076172,-0.61035156,0.0,0.0,0.0,-127.716064,64.42383,98.931885
1768029186670,-0.89746094,-0.3515625,-0.2578125,7.5683594,2.8076172,-0.61035156,0.0,0.0,0.0,-127.47986,64.121704,98.88245
1768029186758,-0.90478516,-0.34960938,-0.27929688,6.5307617,-1.2207031,-0.8544922,0.0,0.0,0.0,-127.47986,64.121704,98.88245
1768029186770,-0.90478516,-0.34960938,-0.27929688,6.5307617,-1.2207031,-0.8544922,0.0,0.0,0.0,-126.8042,63.918457,98.915405
1768029186858,-0.9042969,-0.34375,-0.26953125,3.6621094,1.5258789,-0.6713867,0.0,0.0,0.0,-126.8042,63.918457,98.915405
1768029186869,-0.9042969,-0.34375,-0.26953125,3.6621094,1.5258789,-0.6713867,0.0,0.0,0.0,-125.996704,63.97339,99.55261
1768029186958,-0.9038086,-0.34765625,-0.26464844,0.0,3.6010742,-0.24414062,0.0,0.0,0.0,-125.996704,63.97339,99.55261
1768029186969,-0.9038086,-0.34765625,-0.26464844,0.0,3.6010742,-0.24414062,0.0,0.0,0.0,-126.35376,63.726196,99.20105
1768029187057,-0.89941406,-0.35546875,-0.26416016,-0.30517578,4.760742,-0.5493164,0.0,0.0,0.0,-126.35376,63.726196,99.20105
1768029187069,-0.89941406,-0.35546875,-0.26416016,-0.30517578,4.760742,-0.5493164,0.0,0.0,0.0,-127.09534,63.424072,98.5968
1768029187157,-0.8984375,-0.35302734,-0.28466797,-2.2583008,2.2583008,-0.18310547,0.0,0.0,0.0,-127.09534,63.424072,98.5968
1768029187168,-0.8984375,-0.35302734,-0.28466797,-2.2583008,2.2583008,-0.18310547,0.0,0.0,0.0,-127.51831,63.24829,98.32214
1768029187257,-0.8901367,-0.34179688,-0.25439453,-5.432129,-1.8310547,1.4038086,0.0,0.0,0.0,-127.51831,63.24829,98.32214
1768029187268,-0.8901367,-0.34179688,-0.25439453,-5.432129,-1.8310547,1.4038086,0.0,0.0,0.0,-128.16101,63.138428,97.943115
1768029187356,-0.89746094,-0.36523438,-0.29345703,-19.16504,-8.911133,2.6855469,0.0,0.0,0.0,-128.16101,63.138428,97.943115
1768029187368,-0.89746094,-0.36523438,-0.29345703,-19.16504,-8.911133,2.6855469,0.0,0.0,0.0,-128.33679,63.792114,99.05823
1768029187456,-0.89453125,-0.33447266,-0.25927734,2.9296875,-1.3427734,-0.24414062,0.0,0.0,0.0,-128.33679,63.792114,99.05823
1768029187468,-0.89453125,-0.33447266,-0.25927734,2.9296875,-1.3427734,-0.24414062,0.0,0.0,0.0,-128.05664,63.95691,99.68994
1768029187556,-0.9189453,-0.34326172,-0.27490234,-2.1362305,-3.2348633,2.0751953,0.0,0.0,0.0,-128.05664,63.95691,99.68994
1768029187567,-0.9189453,-0.34326172,-0.27490234,-2.1362305,-3.2348633,2.0751953,0.0,0.0,0.0,-127.65015,64.32495,100.38208
1768029187656,-0.9140625,-0.34228516,-0.27001953,-1.5258789,-1.3427734,1.0986328,0.0,0.0,0.0,-127.65015,64.32495,100.38208
1768029187667,-0.9140625,-0.34228516,-0.27001953,-1.5258789,-1.3427734,1.0986328,0.0,0.0,0.0,-127.803955,64.35791,100.25574
1768029187755,-0.90771484,-0.33935547,-0.25683594,-2.4414062,-0.79345703,0.9765625,0.0,0.0,0.0,-127.803955,64.35791,100.25574
1768029187767,-0.90771484,-0.33935547,-0.25683594,-2.4414062,-0.79345703,0.9765625,0.0,0.0,0.0,-127.99072,64.39087,100.321655
1768029187855,-0.92089844,-0.33984375,-0.27246094,0.24414062,-0.5493164,0.12207031,0.0,0.0,0.0,-127.99072,64.39087,100.321655
1768029187866,-0.92089844,-0.33984375,-0.27246094,0.24414062,-0.5493164,0.12207031,0.0,0.0,0.0,-128.12256,64.42932,100.48645
1768029187955,-0.8486328,-0.30810547,-0.27929688,3.1738281,1.0375977,0.18310547,0.0,0.0,0.0,-128.12256,64.42932,100.48645
1768029187966,-0.8486328,-0.30810547,-0.27929688,3.1738281,1.0375977,0.18310547,0.0,0.0,0.0,-127.996216,64.37439,100.530396
1768029188054,-0.92626953,-0.34277344,-0.2680664,-4.760742,-2.9907227,1.0375977,0.0,0.0,0.0,-127.996216,64.37439,100.530396
1768029188066,-0.92626953,-0.34277344,-0.2680664,-4.760742,-2.9907227,1.0375977,0.0,0.0,0.0,-128.12805,64.58862,100.909424
1768029188154,-0.9121094,-0.3334961,-0.26220703,2.6245117,0.8544922,-0.8544922,0.0,0.0,0.0,-128.12805,64.58862,100.909424
1768029188165,-0.9121094,-0.3334961,-0.26220703,2.6245117,0.8544922,-0.8544922,0.0,0.0,0.0,-128.22144,64.42383,100.788574
1768029188254,-0.90478516,-0.33496094,-0.27197266,3.2958984,1.8920898,-2.6245117,0.0,0.0,0.0,-128.22144,64.42383,100.788574
1768029188265,-0.90478516,-0.33496094,-0.27197266,3.2958984,1.8920898,-2.6245117,0.0,0.0,0.0,-127.41943,64.27002,101.118164
1768029188354,-0.90234375,-0.34277344,-0.24023438,3.7231445,3.1738281,-2.0141602,0.0,0.0,0.0,-127.41943,64.27002,101.118164
1768029188365,-0.90234375,-0.34277344,-0.24023438,3.7231445,3.1738281,-2.0141602,0.0,0.0,0.0,-127.31506,63.86902,100.876465
1768029188453,-0.89501953,-0.34179688,-0.28027344,2.319336,-0.79345703,-2.1972656,0.0,0.0,0.0,-127.31506,63.86902,100.876465
1768029188465,-0.89501953,-0.34179688,-0.28027344,2.319336,-0.79345703,-2.1972656,0.0,0.0,0.0,-126.727295,63.687744,101.173096
1768029188553,-0.90185547,-0.36523438,-0.25927734,3.479004,0.18310547,-1.159668,0.0,0.0,0.0,-126.727295,63.687744,101.173096
1768029188564,-0.90185547,-0.36523438,-0.25927734,3.479004,0.18310547,-1.159668,0.0,0.0,0.0,-125.980225,63.583374,101.66748
1768029188653,-0.89453125,-0.36376953,-0.27197266,-0.12207031,-0.18310547,-0.12207031,0.0,0.0,0.0,-125.980225,63.583374,101.66748
1768029188664,-0.89453125,-0.36376953,-0.27197266,-0.12207031,-0.18310547,-0.12207031,0.0,0.0,0.0,-125.8374,63.45703,101.70593
1768029188752,-0.88916016,-0.3569336,-0.2734375,-2.6855469,1.2207031,0.9765625,0.0,0.0,0.0,-125.8374,63.45703,101.70593
1768029188764,-0.88916016,-0.3569336,-0.2734375,-2.6855469,1.2207031,0.9765625,0.0,0.0,0.0,-126.29883,63.41858,101.42578
1768029188852,-0.8989258,-0.3540039,-0.27978516,-4.4555664,-1.0375977,0.61035156,0.0,0.0,0.0,-126.29883,63.41858,101.42578
1768029188864,-0.8989258,-0.3540039,-0.27978516,-4.4555664,-1.0375977,0.61035156,0.0,0.0,0.0,-126.727295,63.53943,101.37085
1768029188952,-0.90234375,-0.35888672,-0.25683594,-1.0986328,0.0,1.2207031,0.0,0.0,0.0,-126.727295,63.53943,101.37085
1768029188963,-0.90234375,-0.35888672,-0.25683594,-1.0986328,0.0,1.2207031,0.0,0.0,0.0,-127.00745,63.500977,101.30493
1768029189051,-0.9013672,-0.3564453,-0.26123047,5.432129,0.36621094,0.30517578,0.0,0.0,0.0,-127.00745,63.500977,101.30493
1768029189063,-0.9013672,-0.3564453,-0.26123047,5.432129,0.36621094,0.30517578,0.0,0.0,0.0,-127.00195,63.57788,101.23901
1768029189151,-0.90478516,-0.3461914,-0.28759766,-0.48828125,1.5258789,-1.6479492,0.0,0.0,0.0,-127.00195,63.57788,101.23901
1768029189163,-0.90478516,-0.3461914,-0.28759766,-0.48828125,1.5258789,-1.6479492,0.0,0.0,0.0,-126.45264,63.47351,101.51367
1768029189251,-0.89941406,-0.35986328,-0.27783203,-1.2817383,-1.8310547,-0.18310547,0.0,0.0,0.0,-126.45264,63.47351,101.51367
1768029189262,-0.89941406,-0.35986328,-0.27783203,-1.2817383,-1.8310547,-0.18310547,0.0,0.0,0.0,-126.31531,63.484497,101.68945
1768029189351,-0.8955078,-0.36621094,-0.2680664,-0.4272461,-0.48828125,-0.18310547,0.0,0.0,0.0,-126.31531,63.484497,101.68945
1768029189363,-0.8955078,-0.36621094,-0.2680664,-0.4272461,-0.48828125,-0.18310547,0.0,0.0,0.0,-126.21094,63.391113,101.744385
1768029189450,-0.89990234,-0.3569336,-0.25732422,-6.164551,0.4272461,0.9765625,0.0,0.0,0.0,-126.21094,63.391113,101.744385
1768029189462,-0.89990234,-0.3569336,-0.25732422,-6.164551,0.4272461,0.9765625,0.0,0.0,0.0,-126.639404,63.396606,101.7334
1768029189550,-0.89941406,-0.3466797,-0.27197266,-2.9296875,-0.61035156,0.8544922,0.0,0.0,0.0,-126.639404,63.396606,101.7334
1768029189561,-0.89941406,-0.3466797,-0.27197266,-2.9296875,-0.61035156,0.8544922,0.0,0.0,0.0,-127.128296,63.48999,101.59607
1768029189650,-0.8803711,-0.42626953,-0.21777344,28.747559,7.507324,-13.366699,0.0,0.0,0.0,-127.128296,63.48999,101.59607
1768029189661,-0.8803711,-0.42626953,-0.21777344,28.747559,7.507324,-13.366699,0.0,0.0,0.0,-125.88684,63.14392,101.77185
1768029189749,-0.8574219,-0.3149414,-0.23535156,-13.244629,-5.554199,10.498047,0.0,0.0,0.0,-125.88684,63.14392,101.77185
1768029189761,-0.8574219,-0.3149414,-0.23535156,-13.244629,-5.554199,10.498047,0.0,0.0,0.0,-124.82666,62.682495,101.969604
1768029189849,-0.96240234,-0.31152344,-0.25634766,-1.2207031,-6.4086914,0.12207031,0.0,0.0,0.0,-124.82666,62.682495,101.969604
1768029189861,-0.96240234,-0.31152344,-0.25634766,-1.2207031,-6.4086914,0.12207031,0.0,0.0,0.0,-125.53528,64.23157,102.39258
1768029189949,-0.8071289,-0.41064453,-0.21142578,-14.465332,6.0424805,13.122559,0.0,0.0,0.0,-125.53528,64.23157,102.39258
1768029189960,-0.8071289,-0.41064453,-0.21142578,-14.465332,6.0424805,13.122559,0.0,0.0,0.0,-126.10657,63.33618,101.07971
1768029190049,-0.9692383,-0.25878906,-0.28466797,-9.765625,-5.065918,10.803223,0.0,0.0,0.0,-126.10657,63.33618,101.07971
1768029190060,-0.9692383,-0.25878906,-0.28466797,-9.765625,-5.065918,10.803223,0.0,0.0,0.0,-128.78723,64.94568,100.16785
1768029190148,-0.8408203,-0.3881836,-0.20996094,18.188477,9.94873,-4.760742,0.0,0.0,0.0,-128.78723,64.94568,100.16785
1768029190160,-0.8408203,-0.3881836,-0.20996094,18.188477,9.94873,-4.760742,0.0,0.0,0.0,-128.82019,64.79187,98.9978
1768029190248,-0.8959961,-0.28125,-0.296875,-6.5307617,-1.2207031,3.479004,0.0,0.0,0.0,-128.82019,64.79187,98.9978
1768029190259,-0.8959961,-0.28125,-0.296875,-6.5307617,-1.2207031,3.479004,0.0,0.0,0.0,-128.172,64.297485,99.14612
1768029190348,-0.88720703,-0.31835938,-0.2915039,12.878418,2.6855469,-5.126953,0.0,0.0,0.0,-128.172,64.297485,99.14612
1768029190359,-0.88720703,-0.31835938,-0.2915039,12.878418,2.6855469,-5.126953,0.0,0.0,0.0,-128.11707,65.01709,99.711914
1768029190447,-0.93847656,-0.34179688,-0.21582031,-1.159668,-2.9296875,-13.244629,0.0,0.0,0.0,-128.11707,65.01709,99.711914
1768029190459,-0.93847656,-0.34179688,-0.21582031,-1.159668,-2.9296875,-13.244629,0.0,0.0,0.0,-126.43616,64.13269,100.772095
1768029190547,-0.8803711,-0.3720703,-0.3955078,31.25,30.700684,0.0,0.0,0.0,0.0,-126.43616,64.13269,100.772095
1768029190559,-0.8803711,-0.3720703,-0.3955078,31.25,30.700684,0.0,0.0,0.0,0.0,-126.2439,63.253784,100.48096
1768029190647,-0.92822266,-0.38085938,-0.2548828,-15.50293,-8.666992,6.286621,0.0,0.0,0.0,-126.2439,63.253784,100.48096
1768029190658,-0.92822266,-0.38085938,-0.2548828,-15.50293,-8.666992,6.286621,0.0,0.0,0.0,-126.87561,63.726196,100.217285
1768029190747,-0.8857422,-0.39208984,-0.22558594,-5.2490234,1.0986328,-0.24414062,0.0,0.0,0.0,-126.87561,63.726196,100.217285
1768029190758,-0.8857422,-0.39208984,-0.22558594,-5.2490234,1.0986328,-0.24414062,0.0,0.0,0.0,-129.18274,63.484497,96.94336
1768029190846,-0.9116211,-0.35058594,-0.28808594,2.9907227,5.3710938,-12.817383,0.0,0.0,0.0,-129.18274,63.484497,96.94336
1768029190858,-0.9116211,-0.35058594,-0.28808594,2.9907227,5.3710938,-12.817383,0.0,0.0,0.0,-128.8147,62.677002,96.99829
1768029190946,-1.0229492,-0.34765625,-0.2758789,8.422852,-4.8828125,-26.306152,0.0,0.0,0.0,-128.8147,62.677002,96.99829
1768029190958,-1.0229492,-0.34765625,-0.2758789,8.422852,-4.8828125,-26.306152,0.0,0.0,0.0,-126.414185,60.908203,99.08569
1768029191046,-0.78564453,-0.3564453,-0.24267578,35.461426,8.666992,-10.681152,0.0,0.0,0.0,-126.414185,60.908203,99.08569
1768029191057,-0.78564453,-0.3564453,-0.24267578,35.461426,8.666992,-10.681152,0.0,0.0,0.0,-125.892334,60.897217,100.442505
1768029191145,-0.86083984,-0.42285156,-0.31640625,9.70459,9.399414,-13.000488,0.0,0.0,0.0,-125.892334,60.897217,100.442505
1768029191157,-0.86083984,-0.42285156,-0.31640625,9.70459,9.399414,-13.000488,0.0,0.0,0.0,-124.73877,60.238037,101.37634
1768029191245,-0.8227539,-0.46777344,-0.3022461,4.1503906,-6.1035156,-3.0517578,0.0,0.0,0.0,-124.73877,60.238037,101.37634
1768029191257,-0.8227539,-0.46777344,-0.3022461,4.1503906,-6.1035156,-3.0517578,0.0,0.0,0.0,-123.618164,59.34265,101.88721
1768029191345,-0.87109375,-0.43164062,-0.27539062,8.605957,2.380371,-3.6621094,0.0,0.0,0.0,-123.618164,59.34265,101.88721
1768029191357,-0.87109375,-0.43164062,-0.27539062,8.605957,2.380371,-3.6621094,0.0,0.0,0.0,-122.77222,59.188843,102.15088
1768029191445,-0.85253906,-0.42626953,-0.2758789,-1.7700195,3.2958984,-2.380371,0.0,0.0,0.0,-122.77222,59.188843,102.15088
1768029191456,-0.85253906,-0.42626953,-0.2758789,-1.7700195,3.2958984,-2.380371,0.0,0.0,0.0,-122.23938,58.9032,102.66724
1768029191544,-0.85595703,-0.42333984,-0.2890625,-8.7890625,2.0751953,3.7841797,0.0,0.0,0.0,-122.23938,58.9032,102.66724
1768029191556,-0.85595703,-0.42333984,-0.2890625,-8.7890625,2.0751953,3.7841797,0.0,0.0,0.0,-123.50281,58.688965,101.865234
1768029191644,-0.85839844,-0.4272461,-0.27734375,3.1738281,1.0986328,2.380371,0.0,0.0,0.0,-123.50281,58.688965,101.865234
1768029191656,-0.85839844,-0.4272461,-0.27734375,3.1738281,1.0986328,2.380371,0.0,0.0,0.0,-124.48059,58.78784,101.0907
1768029191744,-0.86865234,-0.42822266,-0.29589844,5.432129,-1.7089844,0.7324219,0.0,0.0,0.0,-124.48059,58.78784,101.0907
1768029191755,-0.86865234,-0.42822266,-0.29589844,5.432129,-1.7089844,0.7324219,0.0,0.0,0.0,-123.70056,59.0625,101.26099
1768029191843,-0.86083984,-0.42529297,-0.27148438,0.0,0.4272461,1.953125,0.0,0.0,0.0,-123.70056,59.0625,101.26099
1768029191855,-0.86083984,-0.42529297,-0.27148438,0.0,0.4272461,1.953125,0.0,0.0,0.0,-123.64014,59.128418,101.14014
1768029191943,-0.8574219,-0.41357422,-0.2836914,-5.3710938,-1.0375977,3.2958984,0.0,0.0,0.0,-123.64014,59.128418,101.14014
1768029191955,-0.8574219,-0.41357422,-0.2836914,-5.3710938,-1.0375977,3.2958984,0.0,0.0,0.0,-124.04663,59.37561,100.96985
1768029192043,-0.8618164,-0.43603516,-0.28466797,-4.9438477,1.7089844,4.8828125,0.0,0.0,0.0,-124.04663,59.37561,100.96985
1768029192054,-0.8618164,-0.43603516,-0.28466797,-4.9438477,1.7089844,4.8828125,0.0,0.0,0.0,-124.96399,59.749146,100.618286
1768029192142,-0.87646484,-0.3959961,-0.2944336,-1.7700195,-5.126953,3.9672852,0.0,0.0,0.0,-124.96399,59.749146,100.618286
1768029192154,-0.87646484,-0.3959961,-0.2944336,-1.7700195,-5.126953,3.9672852,0.0,0.0,0.0,-125.36499,60.22705,100.530396
1768029192242,-0.8857422,-0.38427734,-0.29003906,-0.79345703,-0.061035156,-1.7700195,0.0,0.0,0.0,-125.36499,60.22705,100.530396
1768029192254,-0.8857422,-0.38427734,-0.29003906,-0.79345703,-0.061035156,-1.7700195,0.0,0.0,0.0,-125.07385,60.3479,100.93689
1768029192342,-0.87109375,-0.39746094,-0.27685547,0.36621094,-0.9765625,-1.159668,0.0,0.0,0.0,-125.07385,60.3479,100.93689
1768029192353,-0.87109375,-0.39746094,-0.27685547,0.36621094,-0.9765625,-1.159668,0.0,0.0,0.0,-124.815674,60.31494,101.326904
1768029192442,-0.8491211,-0.3618164,-0.28125,-12.145996,4.638672,-0.8544922,0.0,0.0,0.0,-124.815674,60.31494,101.326904
1768029192453,-0.8491211,-0.3618164,-0.28125,-12.145996,4.638672,-0.8544922,0.0,0.0,0.0,-125.4364,60.177612,101.35986
1768029192541,-0.8881836,-0.47021484,-0.31347656,7.751465,1.8310547,1.159668,0.0,0.0,0.0,-125.4364,60.177612,101.35986
1768029192553,-0.8881836,-0.47021484,-0.31347656,7.751465,1.8310547,1.159668,0.0,0.0,0.0,-127.38098,60.17212,100.3656
1768029192641,-0.8955078,-0.41455078,-0.30517578,2.9296875,1.7700195,-4.4555664,0.0,0.0,0.0,-127.38098,60.17212,100.3656
1768029192652,-0.8955078,-0.41455078,-0.30517578,2.9296875,1.7700195,-4.4555664,0.0,0.0,0.0,-127.34802,59.87549,100.409546
1768029192741,-0.84228516,-0.35253906,-0.30029297,3.2348633,-1.0375977,-9.094238,0.0,0.0,0.0,-127.34802,59.87549,100.409546
1768029192752,-0.84228516,-0.35253906,-0.30029297,3.2348633,-1.0375977,-9.094238,0.0,0.0,0.0,-126.7218,59.2218,101.24451
1768029192840,-0.8642578,-0.4501953,-0.30029297,4.272461,-2.6855469,-12.512207,0.0,0.0,0.0,-126.7218,59.2218,101.24451
1768029192852,-0.8642578,-0.4501953,-0.30029297,4.272461,-2.6855469,-12.512207,0.0,0.0,0.0,-124.42566,58.43628,103.57361
1768029192940,-0.82470703,-0.42578125,-0.29833984,-4.8217773,0.79345703,-0.6713867,0.0,0.0,0.0,-124.42566,58.43628,103.57361
1768029192952,-0.82470703,-0.42578125,-0.29833984,-4.8217773,0.79345703,-0.6713867,0.0,0.0,0.0,-124.25537,57.925415,104.25476
1768029193040,-0.8510742,-0.4399414,-0.28515625,-0.5493164,-1.0986328,1.159668,0.0,0.0,0.0,-124.25537,57.925415,104.25476
1768029193051,-0.8510742,-0.4399414,-0.28515625,-0.5493164,-1.0986328,1.159668,0.0,0.0,0.0,-124.66736,58.068237,104.403076
1768029193140,-0.859375,-0.43896484,-0.31152344,2.746582,2.0751953,-2.5634766,0.0,0.0,0.0,-124.66736,58.068237,104.403076
1768029193151,-0.859375,-0.43896484,-0.31152344,2.746582,2.0751953,-2.5634766,0.0,0.0,0.0,-124.29382,58.16162,104.77661
1768029193240,-0.8588867,-0.42919922,-0.28955078,-1.7089844,-0.9765625,0.91552734,0.0,0.0,0.0,-124.29382,58.16162,104.77661
1768029193251,-0.8588867,-0.42919922,-0.28955078,-1.7089844,-0.9765625,0.91552734,0.0,0.0,0.0,-124.37073,57.96936,104.7876
1768029193339,-0.85302734,-0.4243164,-0.31201172,-2.9907227,-2.6855469,0.5493164,0.0,0.0,0.0,-124.37073,57.96936,104.7876
1768029193350,-0.85302734,-0.4243164,-0.31201172,-2.9907227,-2.6855469,0.5493164,0.0,0.0,0.0,-124.39819,58.189087,105.11719
1768029193439,-0.8491211,-0.43164062,-0.28320312,-1.0986328,3.6621094,1.4648438,0.0,0.0,0.0,-124.39819,58.189087,105.11719
1768029193450,-0.8491211,-0.43164062,-0.28320312,-1.0986328,3.6621094,1.4648438,0.0,0.0,0.0,-124.65088,58.09021,105.01282
1768029193538,-0.8725586,-0.42089844,-0.31835938,-0.5493164,-0.4272461,1.7089844,0.0,0.0,0.0,-124.65088,58.09021,105.01282
1768029193550,-0.8725586,-0.42089844,-0.31835938,-0.5493164,-0.4272461,1.7089844,0.0,0.0,0.0,-125.13428,58.101196,104.68323
1768029193638,-0.84814453,-0.43896484,-0.31054688,2.380371,-0.061035156,3.540039,0.0,0.0,0.0,-125.13428,58.101196,104.68323
1768029193650,-0.84814453,-0.43896484,-0.31054688,2.380371,-0.061035156,3.540039,0.0,0.0,0.0,-125.21118,58.233032,104.573364
1768029193738,-0.8330078,-0.40576172,-0.31445312,2.0141602,0.061035156,2.746582,0.0,0.0,0.0,-125.21118,58.233032,104.573364
1768029193750,-0.8330078,-0.40576172,-0.31445312,2.0141602,0.061035156,2.746582,0.0,0.0,0.0,-125.40344,58.535156,104.27673
1768029193837,-0.8647461,-0.39697266,-0.29833984,10.253906,-4.760742,4.9438477,0.0,0.0,0.0,-125.40344,58.535156,104.27673
1768029193850,-0.8647461,-0.39697266,-0.29833984,10.253906,-4.760742,4.9438477,0.0,0.0,0.0,-124.887085,58.831787,104.15039
1768029193937,-0.8901367,-0.48486328,-0.37353516,-76.171875,-24.291992,9.460449,0.0,0.0,0.0,-124.887085,58.831787,104.15039
1768029193950,-0.8901367,-0.48486328,-0.37353516,-76.171875,-24.291992,9.460449,0.0,0.0,0.0,-125.496826,60.39734,105.66101
1768029194037,-0.79052734,-0.49804688,-0.2319336,-24.597168,0.0,-5.065918,0.0,0.0,0.0,-125.496826,60.39734,105.66101
1768029194049,-0.79052734,-0.49804688,-0.2319336,-24.597168,0.0,-5.065918,0.0,0.0,0.0,-125.59021,59.315186,103.08472
1768029194137,-0.875,-0.40673828,-0.28955078,10.498047,3.9672852,0.61035156,0.0,0.0,0.0,-125.59021,59.315186,103.08472
1768029194148,-0.875,-0.40673828,-0.28955078,10.498047,3.9672852,0.61035156,0.0,0.0,0.0,-126.44714,58.95813,103.5022
1768029194236,-0.8833008,-0.40039062,-0.3173828,-0.24414062,1.159668,3.112793,0.0,0.0,0.0,-126.44714,58.95813,103.5022
1768029194248,-0.8833008,-0.40039062,-0.3173828,-0.24414062,1.159668,3.112793,0.0,0.0,0.0,-126.65039,59.25476,102.95288
1768029194336,-0.8623047,-0.40039062,-0.30078125,-4.699707,-2.380371,-0.7324219,0.0,0.0,0.0,-126.65039,59.25476,102.95288
1768029194348,-0.8623047,-0.40039062,-0.30078125,-4.699707,-2.380371,-0.7324219,0.0,0.0,0.0,-126.8811,59.139404,103.046265
1768029194436,-0.85839844,-0.41357422,-0.31445312,-1.3427734,1.8310547,0.9765625,0.0,0.0,0.0,-126.8811,59.139404,103.046265
1768029194447,-0.85839844,-0.41357422,-0.31445312,-1.3427734,1.8310547,0.9765625,0.0,0.0,0.0,-127.161255,59.18335,103.15613
1768029194535,-0.8623047,-0.40429688,-0.31396484,-2.746582,-3.1738281,-0.4272461,0.0,0.0,0.0,-127.161255,59.18335,103.15613
1768029194547,-0.8623047,-0.40429688,-0.31396484,-2.746582,-3.1738281,-0.4272461,0.0,0.0,0.0,-127.18323,59.205322,103.167114
1768029194635,-0.8642578,-0.39990234,-0.2993164,-1.0375977,-3.0517578,0.5493164,0.0,0.0,0.0,-127.18323,59.205322,103.167114
1768029194647,-0.8642578,-0.39990234,-0.2993164,-1.0375977,-3.0517578,0.5493164,0.0,0.0,0.0,-126.57349,59.3042,103.94165
1768029194735,-0.8779297,-0.38378906,-0.36035156,-17.211914,4.272461,0.30517578,0.0,0.0,0.0,-126.57349,59.3042,103.94165
1768029194747,-0.8779297,-0.38378906,-0.36035156,-17.211914,4.272461,0.30517578,0.0,0.0,0.0,-127.07886,59.309692,104.1449
1768029194835,-0.8457031,-0.4091797,-0.21728516,9.82666,-0.79345703,5.432129,0.0,0.0,0.0,-127.07886,59.309692,104.1449
1768029194846,-0.8457031,-0.4091797,-0.21728516,9.82666,-0.79345703,5.432129,0.0,0.0,0.0,-129.86938,59.403076,102.64526
1768029194934,-0.8701172,-0.39404297,-0.3203125,1.2817383,5.126953,-0.36621094,0.0,0.0,0.0,-129.86938,59.403076,102.64526
1768029194947,-0.8701172,-0.39404297,-0.3203125,1.2817383,5.126953,-0.36621094,0.0,0.0,0.0,-129.96826,59.661255,102.788086
1768029195034,-0.86816406,-0.39746094,-0.3334961,1.2817383,-3.1738281,1.6479492,0.0,0.0,0.0,-129.96826,59.661255,102.788086
1768029195046,-0.86816406,-0.39746094,-0.3334961,1.2817383,-3.1738281,1.6479492,0.0,0.0,0.0,-129.71558,59.468994,102.387085
1768029195134,-0.8696289,-0.39013672,-0.328125,7.9345703,-8.850098,0.0,0.0,0.0,0.0,-129.71558,59.468994,102.387085
1768029195145,-0.8696289,-0.39013672,-0.328125,7.9345703,-8.850098,0.0,0.0,0.0,0.0,-127.996216,59.65027,102.70569
1768029195233,-0.87890625,-0.39697266,-0.30029297,3.7841797,0.91552734,-1.159668,0.0,0.0,0.0,-127.996216,59.65027,102.70569
1768029195245,-0.87890625,-0.39697266,-0.30029297,3.7841797,0.91552734,-1.159668,0.0,0.0,0.0,-127.03491,59.798584,103.24402
1768029195333,-0.8666992,-0.390625,-0.3022461,-4.699707,0.61035156,1.0986328,0.0,0.0,0.0,-127.03491,59.798584,103.24402
1768029195345,-0.8666992,-0.390625,-0.3022461,-4.699707,0.61035156,1.0986328,0.0,0.0,0.0,-126.97449,59.79309,103.21106
1768029195433,-0.8671875,-0.40771484,-0.30419922,-0.7324219,0.30517578,0.5493164,0.0,0.0,0.0,-126.97449,59.79309,103.21106
1768029195444,-0.8671875,-0.40771484,-0.30419922,-0.7324219,0.30517578,0.5493164,0.0,0.0,0.0,-127.32605,59.891968,103.00232
1768029195533,-0.87353516,-0.3959961,-0.30126953,-0.61035156,-0.36621094,0.12207031,0.0,0.0,0.0,-127.32605,59.891968,103.00232
1768029195544,-0.87353516,-0.3959961,-0.30126953,-0.61035156,-0.36621094,0.12207031,0.0,0.0,0.0,-127.35901,59.89746,102.87048
1768029195632,-0.8720703,-0.38378906,-0.30517578,-1.4038086,0.8544922,0.79345703,0.0,0.0,0.0,-127.35901,59.89746,102.87048
1768029195644,-0.8720703,-0.38378906,-0.30517578,-1.4038086,0.8544922,0.79345703,0.0,0.0,0.0,-127.54578,59.91394,102.71118
1768029195732,-0.8623047,-0.38916016,-0.3227539,-7.751465,-2.0141602,1.0986328,0.0,0.0,0.0,-127.54578,59.91394,102.71118
1768029195744,-0.8623047,-0.38916016,-0.3227539,-7.751465,-2.0141602,1.0986328,0.0,0.0,0.0,-127.85339,60.040283,102.700195
1768029195832,-0.8803711,-0.3935547,-0.29882812,-2.2583008,-2.5024414,0.5493164,0.0,0.0,0.0,-127.85339,60.040283,102.700195
1768029195843,-0.8803711,-0.3935547,-0.29882812,-2.2583008,-2.5024414,0.5493164,0.0,0.0,0.0,-128.29285,60.270996,103.029785
1768029195931,-0.83447266,-0.359375,-0.32666016,1.8920898,-0.36621094,-1.5869141,0.0,0.0,0.0,-128.29285,60.270996,103.029785
1768029195943,-0.83447266,-0.359375,-0.32666016,1.8920898,-0.36621094,-1.5869141,0.0,0.0,0.0,-127.86438,60.3479,103.34839
1768029196031,-0.8852539,-0.39111328,-0.30126953,-0.7324219,-0.48828125,1.4038086,0.0,0.0,0.0,-127.86438,60.3479,103.34839
1768029196043,-0.8852539,-0.39111328,-0.30126953,-0.7324219,-0.48828125,1.4038086,0.0,0.0,0.0,-127.87537,60.507202,103.496704
1768029196131,-0.86621094,-0.37304688,-0.29248047,-3.8452148,-0.061035156,0.6713867,0.0,0.0,0.0,-127.87537,60.507202,103.496704
1768029196142,-0.86621094,-0.37304688,-0.29248047,-3.8452148,-0.061035156,0.6713867,0.0,0.0,0.0,-128.10608,60.57312,103.27698
1768029196231,-0.8730469,-0.3803711,-0.30078125,-0.7324219,0.7324219,0.18310547,0.0,0.0,0.0,-128.10608,60.57312,103.27698
1768029196242,-0.8730469,-0.3803711,-0.30078125,-0.7324219,0.7324219,0.18310547,0.0,0.0,0.0,-128.11707,60.671997,103.21106
1768029196330,-0.88378906,-0.38476562,-0.31054688,0.36621094,-1.159668,-0.4272461,0.0,0.0,0.0,-128.11707,60.671997,103.21106
1768029196342,-0.88378906,-0.38476562,-0.31054688,0.36621094,-1.159668,-0.4272461,0.0,0.0,0.0,-127.95227,60.67749,103.22754
1768029196430,-0.87353516,-0.37695312,-0.29296875,3.7231445,-0.061035156,-2.5634766,0.0,0.0,0.0,-127.95227,60.67749,103.22754
1768029196441,-0.87353516,-0.37695312,-0.29296875,3.7231445,-0.061035156,-2.5634766,0.0,0.0,0.0,-127.56775,60.507202,103.584595
1768029196530,-0.86083984,-0.38134766,-0.30371094,-1.3427734,0.6713867,3.6010742,0.0,0.0,0.0,-127.56775,60.507202,103.584595
1768029196541,-0.86083984,-0.38134766,-0.30371094,-1.3427734,0.6713867,3.6010742,0.0,0.0,0.0,-128.0951,60.671997,103.14514
1768029196629,-0.88378906,-0.37109375,-0.27148438,5.6152344,-4.3945312,2.5634766,0.0,0.0,0.0,-128.0951,60.671997,103.14514
1768029196641,-0.88378906,-0.37109375,-0.27148438,5.6152344,-4.3945312,2.5634766,0.0,0.0,0.0,-127.76001,60.996094,103.21106
1768029196729,-0.89697266,-0.36621094,-0.30615234,4.5166016,0.061035156,1.0986328,0.0,0.0,0.0,-127.76001,60.996094,103.21106
1768029196741,-0.89697266,-0.36621094,-0.30615234,4.5166016,0.061035156,1.0986328,0.0,0.0,0.0,-127.21619,61.38611,103.50769
1768029196829,-0.88134766,-0.36767578,-0.29345703,-0.18310547,2.8686523,-0.061035156,0.0,0.0,0.0,-127.21619,61.38611,103.50769
1768029196840,-0.88134766,-0.36767578,-0.29345703,-0.18310547,2.8686523,-0.061035156,0.0,0.0,0.0,-127.51282,61.28174,103.08472
1768029196929,-0.8774414,-0.37646484,-0.29833984,1.2817383,1.4648438,-0.36621094,0.0,0.0,0.0,-127.51282,61.28174,103.08472
1768029196940,-0.8774414,-0.37646484,-0.29833984,1.2817383,1.4648438,-0.36621094,0.0,0.0,0.0,-127.699585,61.122437,102.75513
1768029197028,-0.87597656,-0.36621094,-0.2841797,-2.8076172,-1.5258789,0.8544922,0.0,0.0,0.0,-127.699585,61.122437,102.75513
1768029197040,-0.87597656,-0.36621094,-0.2841797,-2.8076172,-1.5258789,0.8544922,0.0,0.0,0.0,-127.96875,61.051025,102.52991
1768029197128,-0.8852539,-0.37109375,-0.29785156,-8.300781,-1.7089844,0.61035156,0.0,0.0,0.0,-127.96875,61.051025,102.52991
1768029197140,-0.8852539,-0.37109375,-0.29785156,-8.300781,-1.7089844,0.61035156,0.0,0.0,0.0,-128.30383,61.397095,103.00781
1768029197228,-0.8828125,-0.37158203,-0.296875,0.8544922,-2.5634766,0.30517578,0.0,0.0,0.0,-128.30383,61.397095,103.00781
1768029197239,-0.8828125,-0.37158203,-0.296875,0.8544922,-2.5634766,0.30517578,0.0,0.0,0.0,-128.0841,61.44104,103.08472
1768029197327,-0.8847656,-0.37109375,-0.2939453,-3.9672852,-2.319336,0.4272461,0.0,0.0,0.0,-128.0841,61.44104,103.08472
1768029197339,-0.8847656,-0.37109375,-0.2939453,-3.9672852,-2.319336,0.4272461,0.0,0.0,0.0,-128.06213,61.56189,103.342896
1768029197427,-0.875,-0.3720703,-0.26123047,0.8544922,4.760742,0.12207031,0.0,0.0,0.0,-128.06213,61.56189,103.342896
1768029197439,-0.875,-0.3720703,-0.26123047,0.8544922,4.760742,0.12207031,0.0,0.0,0.0,-128.44666,61.54541,103.271484
1768029197527,-0.88183594,-0.3701172,-0.2758789,-0.61035156,0.12207031,0.6713867,0.0,0.0,0.0,-128.44666,61.54541,103.271484
1768029197538,-0.88183594,-0.3701172,-0.2758789,-0.61035156,0.12207031,0.6713867,0.0,0.0,0.0,-128.47412,61.638794,103.57361
1768029197627,-0.8852539,-0.37158203,-0.30029297,1.2207031,0.61035156,-0.18310547,0.0,0.0,0.0,-128.47412,61.638794,103.57361
1768029197638,-0.8852539,-0.37158203,-0.30029297,1.2207031,0.61035156,-0.18310547,0.0,0.0,0.0,-128.39722,61.589355,103.584595
1768029197726,-0.8847656,-0.36865234,-0.2998047,0.30517578,-0.36621094,0.0,0.0,0.0,0.0,-128.39722,61.589355,103.584595
1768029197738,-0.8847656,-0.36865234,-0.2998047,0.30517578,-0.36621094,0.0,0.0,0.0,0.0,-128.4961,61.622314,103.7384
1768029197826,-0.8823242,-0.36621094,-0.28955078,1.7089844,1.0986328,-0.4272461,0.0,0.0,0.0,-128.4961,61.622314,103.7384
1768029197838,-0.8823242,-0.36621094,-0.28955078,1.7089844,1.0986328,-0.4272461,0.0,0.0,0.0,-128.39722,61.56189,103.88672
1768029197926,-0.8754883,-0.3725586,-0.30322266,1.4038086,0.6713867,0.18310547,0.0,0.0,0.0,-128.39722,61.56189,103.88672
1768029197937,-0.8754883,-0.3725586,-0.30322266,1.4038086,0.6713867,0.18310547,0.0,0.0,0.0,-128.44116,61.534424,103.85925
1768029198025,-0.8847656,-0.35888672,-0.29638672,5.554199,0.61035156,-1.6479492,0.0,0.0,0.0,-128.44116,61.534424,103.85925
1768029198037,-0.8847656,-0.35888672,-0.29638672,5.554199,0.61035156,-1.6479492,0.0,0.0,0.0,-128.1665,61.435547,103.91968
1768029198125,-0.8798828,-0.37939453,-0.27294922,-0.8544922,-6.591797,-0.18310547,0.0,0.0,0.0,-128.1665,61.435547,103.91968
1768029198137,-0.8798828,-0.37939453,-0.27294922,-0.8544922,-6.591797,-0.18310547,0.0,0.0,0.0,-127.63916,61.60034,104.677734
1768029198225,-0.88134766,-0.3774414,-0.28564453,2.9296875,-0.79345703,0.24414062,0.0,0.0,0.0,-127.63916,61.60034,104.677734
1768029198236,-0.88134766,-0.3774414,-0.28564453,2.9296875,-0.79345703,0.24414062,0.0,0.0,0.0,-127.40845,61.792603,105.16113
1768029198325,-0.8808594,-0.37548828,-0.2861328,-1.5258789,0.6713867,-1.159668,0.0,0.0,0.0,-127.40845,61.792603,105.16113
1768029198337,-0.8808594,-0.37548828,-0.2861328,-1.5258789,0.6713867,-1.159668,0.0,0.0,0.0,-127.30957,61.638794,104.99634
1768029198424,-0.88916016,-0.36621094,-0.2836914,2.1972656,0.30517578,-1.7700195,0.0,0.0,0.0,-127.30957,61.638794,104.99634
1768029198436,-0.88916016,-0.36621094,-0.2836914,2.1972656,0.30517578,-1.7700195,0.0,0.0,0.0,-126.97998,61.413574,105.303955
1768029198524,-0.88183594,-0.38232422,-0.2890625,-2.746582,-1.5258789,0.6713867,0.0,0.0,0.0,-126.97998,61.413574,105.303955
1768029198536,-0.88183594,-0.38232422,-0.2890625,-2.746582,-1.5258789,0.6713867,0.0,0.0,0.0,-127.040405,61.430054,105.33142
1768029198624,-0.890625,-0.3852539,-0.28173828,0.8544922,-0.061035156,-2.8686523,0.0,0.0,0.0,-127.040405,61.430054,105.33142
1768029198635,-0.890625,-0.3852539,-0.28173828,0.8544922,-0.061035156,-2.8686523,0.0,0.0,0.0,-126.99097,61.42456,105.64453
1768029198723,-0.8881836,-0.36816406,-0.3330078,6.7749023,-1.4648438,-3.6621094,0.0,0.0,0.0,-126.99097,61.42456,105.64453
1768029198735,-0.8881836,-0.36816406,-0.3330078,6.7749023,-1.4648438,-3.6621094,0.0,0.0,0.0,-126.068115,61.100464,106.309204
1768029198823,-0.8798828,-0.38671875,-0.27490234,3.7841797,1.0375977,-2.0751953,0.0,0.0,0.0,-126.068115,61.100464,106.309204
1768029198835,-0.8798828,-0.38671875,-0.27490234,3.7841797,1.0375977,-2.0751953,0.0,0.0,0.0,-125.079346,60.79834,106.78711
1768029198923,-0.8647461,-0.40625,-0.27197266,2.1972656,4.5166016,-0.9765625,0.0,0.0,0.0,-125.079346,60.79834,106.78711
1768029198934,-0.8647461,-0.40625,-0.27197266,2.1972656,4.5166016,-0.9765625,0.0,0.0,0.0,-125.13977,60.639038,106.66077
1768029199023,-0.87646484,-0.39990234,-0.29296875,-0.6713867,-1.2817383,1.2817383,0.0,0.0,0.0,-125.13977,60.639038,106.66077
1768029199034,-0.87646484,-0.39990234,-0.29296875,-0.6713867,-1.2817383,1.2817383,0.0,0.0,0.0,-125.09033,60.671997,106.62781
1768029199122,-0.8769531,-0.3930664,-0.27294922,-1.8920898,0.48828125,1.6479492,0.0,0.0,0.0,-125.09033,60.671997,106.62781
1768029199134,-0.8769531,-0.3930664,-0.27294922,-1.8920898,0.48828125,1.6479492,0.0,0.0,0.0,-125.496826,60.715942,106.32568
1768029199222,-0.8745117,-0.3852539,-0.28076172,-1.6479492,1.6479492,0.6713867,0.0,0.0,0.0,-125.496826,60.715942,106.32568
1768029199233,-0.8745117,-0.3852539,-0.28076172,-1.6479492,1.6479492,0.6713867,0.0,0.0,0.0,-125.83191,60.78186,106.12244
1768029199322,-0.87939453,-0.38671875,-0.2890625,-1.0375977,-1.3427734,0.8544922,0.0,0.0,0.0,-125.83191,60.78186,106.12244
1768029199333,-0.87939453,-0.38671875,-0.2890625,-1.0375977,-1.3427734,0.8544922,0.0,0.0,0.0,-125.996704,60.864258,106.04004
1768029199421,-0.8881836,-0.37695312,-0.29736328,-14.587402,2.9907227,0.48828125,0.0,0.0,0.0,-125.996704,60.864258,106.04004
1768029199433,-0.8881836,-0.37695312,-0.29736328,-14.587402,2.9907227,0.48828125,0.0,0.0,0.0,-126.54053,61.067505,106.37512
1768029199521,-0.87841797,-0.3955078,-0.2758789,-3.479004,-3.9672852,1.7089844,0.0,0.0,0.0,-126.54053,61.067505,106.37512
1768029199533,-0.87841797,-0.3955078,-0.2758789,-3.479004,-3.9672852,1.7089844,0.0,0.0,0.0,-127.76001,60.820312,105.38086
1768029199621,-0.87841797,-0.3828125,-0.29589844,0.12207031,1.4038086,-0.61035156,0.0,0.0,0.0,-127.76001,60.820312,105.38086
1768029199633,-0.87841797,-0.3828125,-0.29589844,0.12207031,1.4038086,-0.61035156,0.0,0.0,0.0,-127.55127,60.968628,105.650024
1768029199721,-0.87646484,-0.37304688,-0.29589844,0.0,-1.2817383,0.24414062,0.0,0.0,0.0,-127.55127,60.968628,105.650024
1768029199732,-0.87646484,-0.37304688,-0.29589844,0.0,-1.2817383,0.24414062,0.0,0.0,0.0,-127.51282,60.963135,105.71045
1768029199820,-0.88183594,-0.38330078,-0.2915039,4.3945312,0.30517578,-0.61035156,0.0,0.0,0.0,-127.51282,60.963135,105.71045
1768029199832,-0.88183594,-0.38330078,-0.2915039,4.3945312,0.30517578,-0.61035156,0.0,0.0,0.0,-127.457886,60.968628,105.858765
1768029199920,-0.87402344,-0.3774414,-0.30517578,-0.91552734,0.61035156,-0.91552734,0.0,0.0,0.0,-127.457886,60.968628,105.858765
1768029199931,-0.87402344,-0.3774414,-0.30517578,-0.91552734,0.61035156,-0.91552734,0.0,0.0,0.0,-127.27661,61.051025,106.204834
1768029200020,-0.8823242,-0.37353516,-0.30078125,2.2583008,0.36621094,-0.30517578,0.0,0.0,0.0,-127.27661,61.051025,106.204834
1768029200031,-0.8823242,-0.37353516,-0.30078125,2.2583008,0.36621094,-0.30517578,0.0,0.0,0.0,-127.32605,61.083984,106.29822
1768029200119,-0.88183594,-0.38232422,-0.29345703,0.6713867,1.2817383,0.0,0.0,0.0,0.0,-127.32605,61.083984,106.29822
1768029200131,-0.88183594,-0.38232422,-0.29345703,0.6713867,1.2817383,0.0,0.0,0.0,0.0,-127.265625,61.05652,106.3147
1768029200219,-0.87646484,-0.3803711,-0.2939453,1.2817383,0.30517578,0.0,0.0,0.0,0.0,-127.265625,61.05652,106.3147
1768029200231,-0.87646484,-0.3803711,-0.2939453,1.2817383,0.30517578,0.0,0.0,0.0,0.0,-127.232666,61.034546,106.28174
1768029200319,-0.8745117,-0.37402344,-0.3022461,0.061035156,-0.48828125,-0.48828125,0.0,0.0,0.0,-127.232666,61.034546,106.28174
1768029200330,-0.8745117,-0.37402344,-0.3022461,0.061035156,-0.48828125,-0.48828125,0.0,0.0,0.0,-127.16675,61.083984,106.3916
1768029200419,-0.8798828,-0.3828125,-0.2915039,-1.6479492,-0.18310547,0.18310547,0.0,0.0,0.0,-127.16675,61.083984,106.3916
1768029200431,-0.8798828,-0.3828125,-0.2915039,-1.6479492,-0.18310547,0.18310547,0.0,0.0,0.0,-127.18323,61.11145,106.52344
1768029200519,-0.8828125,-0.38916016,-0.29296875,0.4272461,-0.4272461,-0.12207031,0.0,0.0,0.0,-127.18323,61.11145,106.52344
1768029200530,-0.8828125,-0.38916016,-0.29296875,0.4272461,-0.4272461,-0.12207031,0.0,0.0,0.0,-127.06787,61.07849,106.47949
1768029200618,-0.875,-0.375,-0.29248047,4.5166016,0.91552734,-1.2207031,0.0,0.0,0.0,-127.06787,61.07849,106.47949
1768029200630,-0.875,-0.375,-0.29248047,4.5166016,0.91552734,-1.2207031,0.0,0.0,0.0,-126.91406,60.9906,106.44104
1768029200718,-0.8774414,-0.3876953,-0.2939453,3.2348633,1.5869141,-1.0375977,0.0,0.0,0.0,-126.91406,60.9906,106.44104
1768029200729,-0.8774414,-0.3876953,-0.2939453,3.2348633,1.5869141,-1.0375977,0.0,0.0,0.0,-126.589966,60.88623,106.501465
1768029200818,-0.8730469,-0.39257812,-0.28759766,1.4038086,3.0517578,-0.6713867,0.0,0.0,0.0,-126.589966,60.88623,106.501465
1768029200829,-0.8730469,-0.39257812,-0.28759766,1.4038086,3.0517578,-0.6713867,0.0,0.0,0.0,-126.606445,60.71045,106.25427
1768029200918,-0.87890625,-0.38916016,-0.2998047,0.5493164,0.0,-0.18310547,0.0,0.0,0.0,-126.606445,60.71045,106.25427
1768029200929,-0.87890625,-0.38916016,-0.2998047,0.5493164,0.0,-0.18310547,0.0,0.0,0.0,-126.67786,60.62805,105.825806
1768029201017,-0.8725586,-0.38720703,-0.29589844,-0.61035156,0.7324219,0.12207031,0.0,0.0,0.0,-126.67786,60.62805,105.825806
1768029201028,-0.8725586,-0.38720703,-0.29589844,-0.61035156,0.7324219,0.12207031,0.0,0.0,0.0,-126.79321,60.57312,105.56763
1768029201117,-0.875,-0.39013672,-0.2939453,-1.0375977,0.18310547,0.4272461,0.0,0.0,0.0,-126.79321,60.57312,105.56763
1768029201128,-0.875,-0.39013672,-0.2939453,-1.0375977,0.18310547,0.4272461,0.0,0.0,0.0,-126.936035,60.595093,105.391846
1768029201216,-0.87109375,-0.3881836,-0.2993164,-0.5493164,-0.4272461,0.36621094,0.0,0.0,0.0,-126.936035,60.595093,105.391846
1768029201228,-0.87109375,-0.3881836,-0.2993164,-0.5493164,-0.4272461,0.36621094,0.0,0.0,0.0,-127.023926,60.617065,105.33142
1768029201316,-0.875,-0.3857422,-0.29541016,-0.8544922,0.5493164,0.12207031,0.0,0.0,0.0,-127.023926,60.617065,105.33142
1768029201327,-0.875,-0.3857422,-0.29541016,-0.8544922,0.5493164,0.12207031,0.0,0.0,0.0,-127.17224,60.600586,105.19409
1768029201416,-0.87841797,-0.38867188,-0.29541016,0.30517578,0.30517578,0.061035156,0.0,0.0,0.0,-127.17224,60.600586,105.19409
1768029201427,-0.87841797,-0.38867188,-0.29541016,0.30517578,0.30517578,0.061035156,0.0,0.0,0.0,-127.161255,60.617065,105.19409
1768029201515,-0.8730469,-0.3857422,-0.29638672,0.061035156,-0.48828125,0.5493164,0.0,0.0,0.0,-127.161255,60.617065,105.19409
1768029201527,-0.8730469,-0.3857422,-0.29638672,0.061035156,-0.48828125,0.5493164,0.0,0.0,0.0,-127.337036,60.578613,105.062256
1768029201615,-0.87646484,-0.38476562,-0.29589844,-0.61035156,-0.12207031,0.0,0.0,0.0,0.0,-127.337036,60.578613,105.062256
1768029201627,-0.87646484,-0.38476562,-0.29589844,-0.61035156,-0.12207031,0.0,0.0,0.0,0.0,-127.34253,60.595093,105.11719
1768029201715,-0.87353516,-0.3876953,-0.3022461,-1.5258789,0.79345703,0.061035156,0.0,0.0,0.0,-127.34253,60.595093,105.11719
1768029201726,-0.87353516,-0.3876953,-0.3022461,-1.5258789,0.79345703,0.061035156,0.0,0.0,0.0,-127.34253,60.633545,105.166626
1768029201815,-0.8754883,-0.38476562,-0.30126953,-0.18310547,0.5493164,0.12207031,0.0,0.0,0.0,-127.34253,60.633545,105.166626
1768029201826,-0.8754883,-0.38476562,-0.30126953,-0.18310547,0.5493164,0.12207031,0.0,0.0,0.0,-127.46887,60.633545,105.05127
1768029201914,-0.8803711,-0.38623047,-0.296875,-4.760742,-4.211426,1.2207031,0.0,0.0,0.0,-127.46887,60.633545,105.05127
1768029201926,-0.8803711,-0.38623047,-0.296875,-4.760742,-4.211426,1.2207031,0.0,0.0,0.0,-127.60071,60.754395,105.1886
1768029202014,-0.87890625,-0.38232422,-0.29882812,-2.6245117,-1.2817383,0.24414062,0.0,0.0,0.0,-127.60071,60.754395,105.1886
1768029202026,-0.87890625,-0.38232422,-0.29882812,-2.6245117,-1.2817383,0.24414062,0.0,0.0,0.0,-127.55676,60.88623,105.44678
1768029202114,-0.87353516,-0.38232422,-0.28808594,1.5869141,0.0,0.36621094,0.0,0.0,0.0,-127.55676,60.88623,105.44678
1768029202125,-0.87353516,-0.38232422,-0.28808594,1.5869141,0.0,0.36621094,0.0,0.0,0.0,-127.58423,60.9906,105.600586
1768029202214,-0.88183594,-0.3779297,-0.28857422,-2.319336,-3.112793,0.8544922,0.0,0.0,0.0,-127.58423,60.9906,105.600586
1768029202225,-0.88183594,-0.3779297,-0.28857422,-2.319336,-3.112793,0.8544922,0.0,0.0,0.0,-127.60071,61.089478,105.79834
1768029202313,-0.87597656,-0.37695312,-0.2734375,7.6293945,2.6245117,-0.4272461,0.0,0.0,0.0,-127.60071,61.089478,105.79834
1768029202325,-0.87597656,-0.37695312,-0.2734375,7.6293945,2.6245117,-0.4272461,0.0,0.0,0.0,-127.595215,61.16638,105.825806
1768029202413,-0.8823242,-0.3701172,-0.27246094,1.2817383,-0.48828125,0.61035156,0.0,0.0,0.0,-127.595215,61.16638,105.825806
1768029202424,-0.8823242,-0.3701172,-0.27246094,1.2817383,-0.48828125,0.61035156,0.0,0.0,0.0,-127.562256,61.28723,106.051025
1768029202513,-0.88623047,-0.36572266,-0.2841797,3.4179688,1.7089844,-1.4648438,0.0,0.0,0.0,-127.562256,61.28723,106.051025
1768029202524,-0.88623047,-0.36572266,-0.2841797,3.4179688,1.7089844,-1.4648438,0.0,0.0,0.0,-127.61719,61.358643,106.18286
1768029202612,-0.86621094,-0.3828125,-0.28271484,0.0,0.8544922,0.36621094,0.0,0.0,0.0,-127.61719,61.358643,106.18286
1768029202624,-0.86621094,-0.3828125,-0.28271484,0.0,0.8544922,0.36621094,0.0,0.0,0.0,-127.54578,61.2323,106.19934
1768029202712,-0.8774414,-0.375,-0.28808594,0.12207031,0.7324219,0.91552734,0.0,0.0,0.0,-127.54578,61.2323,106.19934
1768029202723,-0.8774414,-0.375,-0.28808594,0.12207031,0.7324219,0.91552734,0.0,0.0,0.0,-127.63916,61.270752,106.16089
1768029202812,-0.88964844,-0.36523438,-0.29345703,0.61035156,0.0,-0.30517578,0.0,0.0,0.0,-127.63916,61.270752,106.16089
1768029202823,-0.88964844,-0.36523438,-0.29345703,0.61035156,0.0,-0.30517578,0.0,0.0,0.0,-127.74902,61.325684,106.067505
1768029202911,-0.86621094,-0.36523438,-0.2919922,0.91552734,2.6855469,-2.1972656,0.0,0.0,0.0,-127.74902,61.325684,106.067505
1768029202923,-0.86621094,-0.36523438,-0.2919922,0.91552734,2.6855469,-2.1972656,0.0,0.0,0.0,-127.57324,61.193848,106.21033
1768029203012,-0.8881836,-0.3984375,-0.28320312,-1.5869141,1.0986328,3.0517578,0.0,0.0,0.0,-127.57324,61.193848,106.21033
1768029203023,-0.8881836,-0.3984375,-0.28320312,-1.5869141,1.0986328,3.0517578,0.0,0.0,0.0,-127.79297,61.16089,105.89172
1768029203111,-0.8925781,-0.36523438,-0.32763672,0.6713867,4.5166016,-1.4038086,0.0,0.0,0.0,-127.79297,61.16089,105.89172
1768029203122,-0.8925781,-0.36523438,-0.32763672,0.6713867,4.5166016,-1.4038086,0.0,0.0,0.0,-128.21594,60.941162,105.24902
1768029203211,-0.87109375,-0.36621094,-0.296875,4.272461,3.540039,0.9765625,0.0,0.0,0.0,-128.21594,60.941162,105.24902
1768029203222,-0.87109375,-0.36621094,-0.296875,4.272461,3.540039,0.9765625,0.0,0.0,0.0,-128.78174,60.688477,104.71069
1768029203311,-0.90185547,-0.36279297,-0.2993164,9.58252,1.0986328,3.4179688,0.0,0.0,0.0,-128.78174,60.688477,104.71069
1768029203322,-0.90185547,-0.36279297,-0.2993164,9.58252,1.0986328,3.4179688,0.0,0.0,0.0,-128.84766,60.754395,104.243774
1768029203410,-0.86279297,-0.41455078,-0.2866211,0.5493164,-2.6855469,-0.4272461,0.0,0.0,0.0,-128.84766,60.754395,104.243774
1768029203421,-0.86279297,-0.41455078,-0.2866211,0.5493164,-2.6855469,-0.4272461,0.0,0.0,0.0,-127.61719,60.91919,104.40857
1768029203510,-0.8666992,-0.37890625,-0.32666016,-7.1411133,1.0986328,-1.0986328,0.0,0.0,0.0,-127.61719,60.91919,104.40857
1768029203521,-0.8666992,-0.37890625,-0.32666016,-7.1411133,1.0986328,-1.0986328,0.0,0.0,0.0,-127.908325,60.770874,104.20532
1768029203609,-0.95947266,-0.33642578,-0.34033203,-7.8125,6.225586,1.0375977,0.0,0.0,0.0,-127.908325,60.770874,104.20532
1768029203621,-0.95947266,-0.33642578,-0.34033203,-7.8125,6.225586,1.0375977,0.0,0.0,0.0,-129.15527,60.50171,103.95813
1768029203709,-0.8154297,-0.35253906,-0.2241211,19.348145,19.836426,-5.3100586,0.0,0.0,0.0,-129.15527,60.50171,103.95813
1768029203721,-0.8154297,-0.35253906,-0.2241211,19.348145,19.836426,-5.3100586,0.0,0.0,0.0,-130.44617,59.32068,102.024536
1768029203809,-0.8417969,-0.36376953,-0.3720703,2.4414062,5.6762695,1.5869141,0.0,0.0,0.0,-130.44617,59.32068,102.024536
1768029203820,-0.8417969,-0.36376953,-0.3720703,2.4414062,5.6762695,1.5869141,0.0,0.0,0.0,-130.29785,59.035034,102.04651
1768029203908,-0.82421875,-0.44726562,-0.27685547,-10.498047,-0.48828125,9.70459,0.0,0.0,0.0,-130.29785,59.035034,102.04651
1768029203920,-0.82421875,-0.44726562,-0.27685547,-10.498047,-0.48828125,9.70459,0.0,0.0,0.0,-131.45142,59.19983,100.21179
1768029204008,-0.88671875,-0.36279297,-0.39892578,-6.958008,0.18310547,-1.159668,0.0,0.0,0.0,-131.45142,59.19983,100.21179
1768029204020,-0.88671875,-0.36279297,-0.39892578,-6.958008,0.18310547,-1.159668,0.0,0.0,0.0,-133.01147,59.727173,99.3219
1768029204108,-0.86816406,-0.37451172,-0.32763672,13.000488,10.7421875,-3.2348633,0.0,0.0,0.0,-133.01147,59.727173,99.3219
1768029204120,-0.86816406,-0.37451172,-0.32763672,13.000488,10.7421875,-3.2348633,0.0,0.0,0.0,-133.26965,59.397583,98.98132
1768029204208,-0.8876953,-0.37402344,-0.36523438,5.92041,2.8686523,-6.652832,0.0,0.0,0.0,-133.26965,59.397583,98.98132
1768029204219,-0.8876953,-0.37402344,-0.36523438,5.92041,2.8686523,-6.652832,0.0,0.0,0.0,-132.54456,58.76587,98.95935
1768029204307,-0.8564453,-0.3466797,-0.32910156,5.859375,-17.700195,-4.211426,0.0,0.0,0.0,-132.54456,58.76587,98.95935
1768029204319,-0.8564453,-0.3466797,-0.32910156,5.859375,-17.700195,-4.211426,0.0,0.0,0.0,-131.34705,58.639526,99.8822
1768029204407,-0.86083984,-0.32958984,-0.35253906,31.37207,-2.380371,-2.6855469,0.0,0.0,0.0,-131.34705,58.639526,99.8822
1768029204419,-0.86083984,-0.32958984,-0.35253906,31.37207,-2.380371,-2.6855469,0.0,0.0,0.0,-128.55652,59.7052,102.925415
1768029204507,-0.8564453,-0.45166016,-0.26660156,18.676758,-8.605957,-3.0517578,0.0,0.0,0.0,-128.55652,59.7052,102.925415
1768029204518,-0.8564453,-0.45166016,-0.26660156,18.676758,-8.605957,-3.0517578,0.0,0.0,0.0,-125.288086,59.33716,103.08472
1768029204606,-0.8359375,-0.49365234,-0.26464844,3.6010742,-11.230469,-4.3945312,0.0,0.0,0.0,-125.288086,59.33716,103.08472
1768029204618,-0.8359375,-0.49365234,-0.26464844,3.6010742,-11.230469,-4.3945312,0.0,0.0,0.0,-122.22839,60.012817,105.71045
1768029204706,-0.87353516,-0.41015625,-0.2446289,-22.033691,-26.855469,-7.5683594,0.0,0.0,0.0,-122.22839,60.012817,105.71045
1768029204718,-0.87353516,-0.41015625,-0.2446289,-22.033691,-26.855469,-7.5683594,0.0,0.0,0.0,-120.39917,60.232544,108.91846
1768029204806,-0.875,-0.43408203,-0.24169922,-24.169922,-31.311035,-16.235352,0.0,0.0,0.0,-120.39917,60.232544,108.91846
1768029204817,-0.875,-0.43408203,-0.24169922,-24.169922,-31.311035,-16.235352,0.0,0.0,0.0,-116.87805,60.584106,115.4718
1768029204905,-0.84765625,-0.46826172,-0.20507812,-16.296387,-30.700684,-20.568848,0.0,0.0,0.0,-116.87805,60.584106,115.4718
1768029204917,-0.84765625,-0.46826172,-0.20507812,-16.296387,-30.700684,-20.568848,0.0,0.0,0.0,-113.14819,60.298462,122.579956
1768029205006,-0.8823242,-0.4794922,-0.17138672,-13.244629,-41.68701,-17.028809,0.0,0.0,0.0,-113.14819,60.298462,122.579956
1768029205017,-0.8823242,-0.4794922,-0.17138672,-13.244629,-41.68701,-17.028809,0.0,0.0,0.0,-106.798096,59.831543,131.33606
1768029205105,-0.9194336,-0.5541992,-0.1459961,10.681152,-22.033691,-4.0283203,0.0,0.0,0.0,-106.798096,59.831543,131.33606
1768029205116,-0.9194336,-0.5541992,-0.1459961,10.681152,-22.033691,-4.0283203,0.0,0.0,0.0,-102.38159,60.040283,137.45544
1768029205205,-0.86279297,-0.5258789,-0.14257812,10.925293,-5.126953,0.0,0.0,0.0,0.0,-102.38159,60.040283,137.45544
1768029205217,-0.86279297,-0.5258789,-0.14257812,10.925293,-5.126953,0.0,0.0,0.0,0.0,-99.541626,59.727173,140.33386
1768029205304,-0.87353516,-0.55566406,-0.13720703,5.7373047,-1.953125,0.061035156,0.0,0.0,0.0,-99.541626,59.727173,140.33386
1768029205316,-0.87353516,-0.55566406,-0.13720703,5.7373047,-1.953125,0.061035156,0.0,0.0,0.0,-98.393555,59.80957,141.04797
1768029205404,-0.82470703,-0.4580078,-0.03564453,-12.207031,-6.713867,25.634766,0.0,0.0,0.0,-98.393555,59.80957,141.04797
1768029205416,-0.82470703,-0.4580078,-0.03564453,-12.207031,-6.713867,25.634766,0.0,0.0,0.0,-98.7616,61.38611,142.1466
1768029205504,-0.85498047,-0.3881836,-0.052734375,-7.2631836,-12.878418,34.606934,0.0,0.0,0.0,-98.7616,61.38611,142.1466
1768029205516,-0.85498047,-0.3881836,-0.052734375,-7.2631836,-12.878418,34.606934,0.0,0.0,0.0,-99.28894,64.2041,143.1958
1768029205603,-0.8569336,-0.4091797,0.021484375,-4.8828125,-30.761719,34.057617,0.0,0.0,0.0,-99.28894,64.2041,143.1958
1768029205615,-0.8569336,-0.4091797,0.021484375,-4.8828125,-30.761719,34.057617,0.0,0.0,0.0,-95.114136,67.91748,148.80432
1768029205703,-0.92529297,-0.40283203,0.12695312,-33.447266,-38.757324,40.893555,0.0,0.0,0.0,-95.114136,67.91748,148.80432
1768029205715,-0.92529297,-0.40283203,0.12695312,-33.447266,-38.757324,40.893555,0.0,0.0,0.0,-88.099365,71.345215,159.23035
1768029205803,-0.8359375,-0.27294922,0.13916016,-40.283203,-60.791016,30.700684,0.0,0.0,0.0,-88.099365,71.345215,159.23035
1768029205814,-0.8359375,-0.27294922,0.13916016,-40.283203,-60.791016,30.700684,0.0,0.0,0.0,-72.94922,73.61389,-179.73633
1768029205903,-1.0678711,-0.29052734,0.23291016,-37.841797,-70.06836,40.100098,0.0,0.0,0.0,-72.94922,73.61389,-179.73633
1768029205914,-1.0678711,-0.29052734,0.23291016,-37.841797,-70.06836,40.100098,0.0,0.0,0.0,-51.399536,73.76221,-151.74866
1768029206002,-0.93847656,-0.1381836,0.19726562,-43.45703,-55.786133,7.751465,0.0,0.0,0.0,-51.399536,73.76221,-151.74866
1768029206014,-0.93847656,-0.1381836,0.19726562,-43.45703,-55.786133,7.751465,0.0,0.0,0.0,-38.68286,70.03784,-131.31958
1768029206102,-0.9316406,-0.10449219,0.31933594,-20.874023,-27.70996,12.756348,0.0,0.0,0.0,-38.68286,70.03784,-131.31958
1768029206114,-0.9316406,-0.10449219,0.31933594,-20.874023,-27.70996,12.756348,0.0,0.0,0.0,-33.447876,67.40112,-120.06409
1768029206202,-0.97753906,-0.083496094,0.36328125,-6.8359375,-4.638672,-0.8544922,0.0,0.0,0.0,-33.447876,67.40112,-120.06409
1768029206213,-0.97753906,-0.083496094,0.36328125,-6.8359375,-4.638672,-0.8544922,0.0,0.0,0.0,-30.74524,66.96167,-113.26355
1768029206301,-0.9116211,-0.23925781,0.3852539,-7.8125,-1.2207031,-17.700195,0.0,0.0,0.0,-30.74524,66.96167,-113.26355
1768029206314,-0.9116211,-0.23925781,0.3852539,-7.8125,-1.2207031,-17.700195,0.0,0.0,0.0,-32.492065,66.676025,-111.92871
1768029206401,-0.91308594,-0.3125,0.46777344,-21.728516,9.216309,-22.521973,0.0,0.0,0.0,-32.492065,66.676025,-111.92871
1768029206413,-0.91308594,-0.3125,0.46777344,-21.728516,9.216309,-22.521973,0.0,0.0,0.0,-39.248657,65.77515,-113.92822
1768029206501,-0.80371094,-0.31201172,0.4423828,-14.160156,4.3945312,-21.30127,0.0,0.0,0.0,-39.248657,65.77515,-113.92822
1768029206513,-0.80371094,-0.31201172,0.4423828,-14.160156,4.3945312,-21.30127,0.0,0.0,0.0,-43.78601,64.78638,-114.4281
1768029206601,-0.8544922,-0.33984375,0.39404297,-3.3569336,-1.8920898,-25.024414,0.0,0.0,0.0,-43.78601,64.78638,-114.4281
1768029206612,-0.8544922,-0.33984375,0.39404297,-3.3569336,-1.8920898,-25.024414,0.0,0.0,0.0,-47.834473,62.825317,-115.42786
1768029206700,-0.87353516,-0.2709961,0.31982422,13.671875,-21.118164,-8.117676,0.0,0.0,0.0,-47.834473,62.825317,-115.42786
1768029206712,-0.87353516,-0.2709961,0.31982422,13.671875,-21.118164,-8.117676,0.0,0.0,0.0,-45.653687,61.122437,-111.51672
1768029206800,-0.91845703,-0.29101562,0.32470703,21.66748,-2.5024414,-2.5634766,0.0,0.0,0.0,-45.653687,61.122437,-111.51672
1768029206811,-0.91845703,-0.29101562,0.32470703,21.66748,-2.5024414,-2.5634766,0.0,0.0,0.0,-42.791748,59.87549,-108.413086
1768029206900,-0.8535156,-0.47998047,0.34375,25.390625,28.137207,-21.057129,0.0,0.0,0.0,-42.791748,59.87549,-108.413086
1768029206911,-0.8535156,-0.47998047,0.34375,25.390625,28.137207,-21.057129,0.0,0.0,0.0,-43.901367,60.512695,-110.63782
1768029206999,-0.8730469,-0.3955078,0.35742188,-0.30517578,6.7749023,-17.822266,0.0,0.0,0.0,-43.901367,60.512695,-110.63782
1768029207011,-0.8730469,-0.3955078,0.35742188,-0.30517578,6.7749023,-17.822266,0.0,0.0,0.0,-47.42798,60.30945,-115.08179
1768029207099,-0.8120117,-0.47216797,0.34570312,-16.296387,2.0751953,-6.8359375,0.0,0.0,0.0,-47.42798,60.30945,-115.08179
1768029207111,-0.8120117,-0.47216797,0.34570312,-16.296387,2.0751953,-6.8359375,0.0,0.0,0.0,-50.17456,59.589844,-114.70276
1768029207199,-0.8310547,-0.43017578,0.34472656,-14.404297,-18.554688,-18.676758,0.0,0.0,0.0,-50.17456,59.589844,-114.70276
1768029207211,-0.8310547,-0.43017578,0.34472656,-14.404297,-18.554688,-18.676758,0.0,0.0,0.0,-52.229004,58.21106,-113.76343
1768029207298,-0.8774414,-0.36816406,0.30859375,-4.8217773,-16.662598,0.8544922,0.0,0.0,0.0,-52.229004,58.21106,-113.76343
1768029207311,-0.8774414,-0.36816406,0.30859375,-4.8217773,-16.662598,0.8544922,0.0,0.0,0.0,-51.481934,56.052246,-110.061035
1768029207398,-0.80810547,-0.49902344,0.30566406,17.8833,13.061523,-0.6713867,0.0,0.0,0.0,-51.481934,56.052246,-110.061035
1768029207410,-0.80810547,-0.49902344,0.30566406,17.8833,13.061523,-0.6713867,0.0,0.0,0.0,-50.67444,56.20056,-108.671265
1768029207498,-0.80615234,-0.5097656,0.35351562,-9.460449,15.441895,0.061035156,0.0,0.0,0.0,-50.67444,56.20056,-108.671265
1768029207510,-0.80615234,-0.5097656,0.35351562,-9.460449,15.441895,0.061035156,0.0,0.0,0.0,-52.34436,57.019043,-110.25879
1768029207598,-0.8046875,-0.46777344,0.3701172,-5.6152344,8.239746,-4.638672,0.0,0.0,0.0,-52.34436,57.019043,-110.25879
1768029207609,-0.8046875,-0.46777344,0.3701172,-5.6152344,8.239746,-4.638672,0.0,0.0,0.0,-55.22278,57.304688,-111.28601
1768029207697,-0.8457031,-0.38232422,0.34814453,2.380371,-12.756348,1.5258789,0.0,0.0,0.0,-55.22278,57.304688,-111.28601
1768029207709,-0.8457031,-0.38232422,0.34814453,2.380371,-12.756348,1.5258789,0.0,0.0,0.0,-54.81079,56.71692,-109.885254
1768029207797,-0.82958984,-0.4868164,0.3227539,8.544922,-7.6904297,4.211426,0.0,0.0,0.0,-54.81079,56.71692,-109.885254
1768029207809,-0.82958984,-0.4868164,0.3227539,8.544922,-7.6904297,4.211426,0.0,0.0,0.0,-52.267456,56.50818,-106.01807
1768029207897,-0.85009766,-0.44726562,0.31396484,-16.906738,-8.361816,7.2631836,0.0,0.0,0.0,-52.267456,56.50818,-106.01807
1768029207908,-0.85009766,-0.44726562,0.31396484,-16.906738,-8.361816,7.2631836,0.0,0.0,0.0,-50.97107,56.376343,-103.56262
1768029207996,-0.8413086,-0.43164062,0.3203125,-16.235352,-0.4272461,6.0424805,0.0,0.0,0.0,-50.97107,56.376343,-103.56262
1768029208008,-0.8413086,-0.43164062,0.3203125,-16.235352,-0.4272461,6.0424805,0.0,0.0,0.0,-51.833496,56.73889,-101.486206
1768029208096,-0.8417969,-0.42871094,0.33935547,0.24414062,1.6479492,1.4648438,0.0,0.0,0.0,-51.833496,56.73889,-101.486206
1768029208108,-0.8417969,-0.42871094,0.33935547,0.24414062,1.6479492,1.4648438,0.0,0.0,0.0,-52.608032,57.123413,-100.448
1768029208196,-0.83984375,-0.4501953,0.34814453,8.239746,-2.9907227,-3.9672852,0.0,0.0,0.0,-52.608032,57.123413,-100.448
1768029208208,-0.83984375,-0.4501953,0.34814453,8.239746,-2.9907227,-3.9672852,0.0,0.0,0.0,-52.234497,57.057495,-100.096436
1768029208296,-0.83154297,-0.4248047,0.32910156,-6.591797,-8.972168,5.126953,0.0,0.0,0.0,-52.234497,57.057495,-100.096436
1768029208307,-0.83154297,-0.4248047,0.32910156,-6.591797,-8.972168,5.126953,0.0,0.0,0.0,-51.16333,56.431274,-98.031006
1768029208395,-0.8300781,-0.44726562,0.35058594,-0.7324219,4.3945312,-0.61035156,0.0,0.0,0.0,-51.16333,56.431274,-98.031006
1768029208407,-0.8300781,-0.44726562,0.35058594,-0.7324219,4.3945312,-0.61035156,0.0,0.0,0.0,-51.07544,56.502686,-97.00928
1768029208495,-0.81347656,-0.44726562,0.35986328,-8.666992,-1.8310547,2.0141602,0.0,0.0,0.0,-51.07544,56.502686,-97.00928
1768029208507,-0.81347656,-0.44726562,0.35986328,-8.666992,-1.8310547,2.0141602,0.0,0.0,0.0,-51.707153,56.651,-96.49841
1768029208595,-0.8457031,-0.43945312,0.3647461,-0.9765625,-3.90625,1.7700195,0.0,0.0,0.0,-51.707153,56.651,-96.49841
1768029208606,-0.8457031,-0.43945312,0.3647461,-0.9765625,-3.90625,1.7700195,0.0,0.0,0.0,-51.7511,56.557617,-95.42175
1768029208695,-0.80615234,-0.4555664,0.33398438,0.9765625,-0.91552734,0.30517578,0.0,0.0,0.0,-51.7511,56.557617,-95.42175
1768029208706,-0.80615234,-0.4555664,0.33398438,0.9765625,-0.91552734,0.30517578,0.0,0.0,0.0,-51.223755,56.54663,-93.96057
1768029208794,-0.8339844,-0.42773438,0.34472656,4.8828125,10.375977,0.91552734,0.0,0.0,0.0,-51.223755,56.54663,-93.96057
1768029208806,-0.8339844,-0.42773438,0.34472656,4.8828125,10.375977,0.91552734,0.0,0.0,0.0,-51.663208,56.68396,-93.97705
1768029208894,-0.859375,-0.38476562,0.35986328,3.7231445,4.8828125,7.3242188,0.0,0.0,0.0,-51.663208,56.68396,-93.97705
1768029208905,-0.859375,-0.38476562,0.35986328,3.7231445,4.8828125,7.3242188,0.0,0.0,0.0,-51.723633,57.34314,-94.279175
1768029208994,-0.828125,-0.4560547,0.35742188,-1.4038086,1.4038086,9.338379,0.0,0.0,0.0,-51.723633,57.34314,-94.279175
1768029209006,-0.828125,-0.4560547,0.35742188,-1.4038086,1.4038086,9.338379,0.0,0.0,0.0,-51.119385,58.342896,-93.19153
1768029209094,-0.8642578,-0.4243164,0.3413086,-10.559082,-16.357422,4.5776367,0.0,0.0,0.0,-51.119385,58.342896,-93.19153
1768029209105,-0.8642578,-0.4243164,0.3413086,-10.559082,-16.357422,4.5776367,0.0,0.0,0.0,-50.125122,58.200073,-90.74707
1768029209193,-0.85009766,-0.38183594,0.30078125,6.4697266,-0.8544922,4.1503906,0.0,0.0,0.0,-50.125122,58.200073,-90.74707
1768029209205,-0.85009766,-0.38183594,0.30078125,6.4697266,-0.8544922,4.1503906,0.0,0.0,0.0,-48.378296,57.89795,-88.132324
1768029209293,-0.859375,-0.390625,0.31884766,18.310547,16.357422,-3.1738281,0.0,0.0,0.0,-48.378296,57.89795,-88.132324
1768029209305,-0.859375,-0.390625,0.31884766,18.310547,16.357422,-3.1738281,0.0,0.0,0.0,-48.477173,58.59558,-89.91211
1768029209393,-0.84814453,-0.37548828,0.33935547,9.94873,8.300781,-1.2207031,0.0,0.0,0.0,-48.477173,58.59558,-89.91211
1768029209404,-0.84814453,-0.37548828,0.33935547,9.94873,8.300781,-1.2207031,0.0,0.0,0.0,-49.103394,59.28772,-91.4447
1768029209492,-0.8413086,-0.38330078,0.35546875,7.751465,11.413574,0.61035156,0.0,0.0,0.0,-49.103394,59.28772,-91.4447
1768029209504,-0.8413086,-0.38330078,0.35546875,7.751465,11.413574,0.61035156,0.0,0.0,0.0,-49.39453,59.864502,-92.2522
1768029209592,-0.85546875,-0.3876953,0.3491211,5.859375,-7.2631836,-5.7373047,0.0,0.0,0.0,-49.39453,59.864502,-92.2522
1768029209603,-0.85546875,-0.3876953,0.3491211,5.859375,-7.2631836,-5.7373047,0.0,0.0,0.0,-49.224243,59.63379,-92.69165
1768029209692,-0.86376953,-0.38671875,0.30810547,-5.3100586,-19.836426,-9.094238,0.0,0.0,0.0,-49.224243,59.63379,-92.69165
1768029209704,-0.86376953,-0.38671875,0.30810547,-5.3100586,-19.836426,-9.094238,0.0,0.0,0.0,-48.00476,57.875977,-90.131836
1768029209791,-0.84521484,-0.3515625,0.2861328,-4.5776367,-10.620117,-17.150879,0.0,0.0,0.0,-48.00476,57.875977,-90.131836
1768029209803,-0.84521484,-0.3515625,0.2861328,-4.5776367,-10.620117,-17.150879,0.0,0.0,0.0,-48.240967,56.0907,-89.84619
1768029209891,-0.8330078,-0.4267578,0.3149414,-3.4179688,-1.0986328,-14.038086,0.0,0.0,0.0,-48.240967,56.0907,-89.84619
1768029209903,-0.8330078,-0.4267578,0.3149414,-3.4179688,-1.0986328,-14.038086,0.0,0.0,0.0,-49.559326,54.854736,-90.64819
1768029209991,-0.7949219,-0.5488281,0.36865234,-7.873535,1.4648438,-7.080078,0.0,0.0,0.0,-49.559326,54.854736,-90.64819
1768029210002,-0.7949219,-0.5488281,0.36865234,-7.873535,1.4648438,-7.080078,0.0,0.0,0.0,-51.63025,54.519653,-91.73584
1768029210091,-0.69189453,-0.50097656,0.3725586,-17.700195,6.5307617,-4.4555664,0.0,0.0,0.0,-51.63025,54.519653,-91.73584
1768029210102,-0.69189453,-0.50097656,0.3725586,-17.700195,6.5307617,-4.4555664,0.0,0.0,0.0,-54.640503,53.865967,-92.55432
1768029210190,-0.7861328,-0.48583984,0.41015625,-3.6621094,-33.447266,1.6479492,0.0,0.0,0.0,-54.640503,53.865967,-92.55432
1768029210202,-0.7861328,-0.48583984,0.41015625,-3.6621094,-33.447266,1.6479492,0.0,0.0,0.0,-53.811035,52.98706,-91.065674
1768029210290,-0.80371094,-0.49560547,0.35595703,4.0283203,-20.629883,16.845703,0.0,0.0,0.0,-53.811035,52.98706,-91.065674
1768029210301,-0.80371094,-0.49560547,0.35595703,4.0283203,-20.629883,16.845703,0.0,0.0,0.0,-49.833984,51.899414,-85.166016
1768029210390,-0.7626953,-0.49316406,0.37158203,13.061523,25.57373,8.056641,0.0,0.0,0.0,-49.833984,51.899414,-85.166016
1768029210401,-0.7626953,-0.49316406,0.37158203,13.061523,25.57373,8.056641,0.0,0.0,0.0,-48.60901,53.322144,-85.33081
1768029210489,-0.82470703,-0.41455078,0.4086914,-23.254395,9.399414,14.709473,0.0,0.0,0.0,-48.60901,53.322144,-85.33081
1768029210501,-0.82470703,-0.41455078,0.4086914,-23.254395,9.399414,14.709473,0.0,0.0,0.0,-50.619507,55.08545,-86.32507
1768029210589,-0.8457031,-0.36572266,0.4194336,20.263672,16.357422,13.366699,0.0,0.0,0.0,-50.619507,55.08545,-86.32507
1768029210601,-0.8457031,-0.36572266,0.4194336,20.263672,16.357422,13.366699,0.0,0.0,0.0,-50.460205,57.123413,-85.67688
1768029210689,-0.8652344,-0.3491211,0.38623047,27.282715,-0.61035156,16.113281,0.0,0.0,0.0,-50.460205,57.123413,-85.67688
1768029210700,-0.8652344,-0.3491211,0.38623047,27.282715,-0.61035156,16.113281,0.0,0.0,0.0,-47.01599,58.754883,-84.435425
1768029210790,-0.8857422,-0.3618164,0.33984375,31.61621,0.18310547,9.82666,0.0,0.0,0.0,-47.01599,58.754883,-84.435425
1768029210801,-0.8857422,-0.3618164,0.33984375,31.61621,0.18310547,9.82666,0.0,0.0,0.0,-42.055664,59.298706,-81.31531
1768029210888,-0.87890625,-0.3227539,0.32470703,29.35791,29.60205,-9.58252,0.0,0.0,0.0,-42.055664,59.298706,-81.31531
1768029210900,-0.87890625,-0.3227539,0.32470703,29.35791,29.60205,-9.58252,0.0,0.0,0.0,-41.380005,60.490723,-83.82019
1768029210988,-0.9199219,-0.28125,0.37158203,21.606445,39.001465,-1.159668,0.0,0.0,0.0,-41.380005,60.490723,-83.82019
1768029211000,-0.9199219,-0.28125,0.37158203,21.606445,39.001465,-1.159668,0.0,0.0,0.0,-43.85742,62.74292,-88.92334
1768029211088,-0.90283203,-0.31201172,0.37548828,23.4375,29.907227,-2.319336,0.0,0.0,0.0,-43.85742,62.74292,-88.92334
1768029211099,-0.90283203,-0.31201172,0.37548828,23.4375,29.907227,-2.319336,0.0,0.0,0.0,-47.356567,64.97864,-94.35608
1768029211187,-0.83154297,-0.3720703,0.31201172,16.845703,11.169434,-10.192871,0.0,0.0,0.0,-47.356567,64.97864,-94.35608
1768029211199,-0.83154297,-0.3720703,0.31201172,16.845703,11.169434,-10.192871,0.0,0.0,0.0,-49.16931,65.57739,-97.41028
1768029211287,-0.91259766,-0.27197266,0.22509766,24.719238,6.4086914,-15.319824,0.0,0.0,0.0,-49.16931,65.57739,-97.41028
1768029211299,-0.91259766,-0.27197266,0.22509766,24.719238,6.4086914,-15.319824,0.0,0.0,0.0,-50.372314,64.72595,-100.27222
1768029211387,-0.8129883,-0.3491211,0.21777344,33.75244,50.720215,-16.418457,0.0,0.0,0.0,-50.372314,64.72595,-100.27222
1768029211398,-0.8129883,-0.3491211,0.21777344,33.75244,50.720215,-16.418457,0.0,0.0,0.0,-53.9209,65.30823,-106.16638
1768029211487,-0.86083984,-0.3959961,0.25341797,32.958984,12.451172,-8.239746,0.0,0.0,0.0,-53.9209,65.30823,-106.16638
1768029211498,-0.86083984,-0.3959961,0.25341797,32.958984,12.451172,-8.239746,0.0,0.0,0.0,-59.265747,65.945435,-115.90027
1768029211586,-1.1396484,-0.3696289,0.07714844,27.34375,21.728516,2.1362305,0.0,0.0,0.0,-59.265747,65.945435,-115.90027
1768029211598,-1.1396484,-0.3696289,0.07714844,27.34375,21.728516,2.1362305,0.0,0.0,0.0,-58.37036,65.62683,-116.94946
1768029211686,-0.8964844,-0.3955078,0.19238281,33.38623,44.067383,-9.58252,0.0,0.0,0.0,-58.37036,65.62683,-116.94946
1768029211698,-0.8964844,-0.3955078,0.19238281,33.38623,44.067383,-9.58252,0.0,0.0,0.0,-64.506226,67.34619,-127.05139
1768029211786,-0.9946289,-0.3647461,0.13769531,-14.892578,14.587402,-5.9814453,0.0,0.0,0.0,-64.506226,67.34619,-127.05139
1768029211798,-0.9946289,-0.3647461,0.13769531,-14.892578,14.587402,-5.9814453,0.0,0.0,0.0,-69.609375,67.07703,-133.16528
1768029211886,-0.9091797,-0.2841797,0.037597656,8.300781,41.07666,2.380371,0.0,0.0,0.0,-69.609375,67.07703,-133.16528
1768029211898,-0.9091797,-0.2841797,0.037597656,8.300781,41.07666,2.380371,0.0,0.0,0.0,-75.756226,67.91199,-138.88367
1768029211985,-0.921875,-0.39404297,0.033203125,-4.699707,34.973145,4.8217773,0.0,0.0,0.0,-75.756226,67.91199,-138.88367
1768029211997,-0.921875,-0.39404297,0.033203125,-4.699707,34.973145,4.8217773,0.0,0.0,0.0,-84.765015,69.158936,-148.48022
1768029212085,-0.95166016,-0.3383789,-0.109375,-33.63037,28.808594,13.671875,0.0,0.0,0.0,-84.765015,69.158936,-148.48022
1768029212097,-0.95166016,-0.3383789,-0.109375,-33.63037,28.808594,13.671875,0.0,0.0,0.0,-93.603516,69.90051,-155.8081
1768029212185,-0.93896484,-0.32714844,-0.15771484,-27.46582,44.433594,15.869141,0.0,0.0,0.0,-93.603516,69.90051,-155.8081
1768029212197,-0.93896484,-0.32714844,-0.15771484,-27.46582,44.433594,15.869141,0.0,0.0,0.0,-107.74292,70.686035,-167.4701
1768029212285,-0.87646484,-0.2758789,-0.20019531,-34.606934,41.870117,5.7373047,0.0,0.0,0.0,-107.74292,70.686035,-167.4701
1768029212296,-0.87646484,-0.2758789,-0.20019531,-34.606934,41.870117,5.7373047,0.0,0.0,0.0,-122.942505,69.801636,179.9231
1768029212384,-0.9609375,-0.18945312,-0.50097656,-48.64502,2.0751953,5.6762695,0.0,0.0,0.0,-122.942505,69.801636,179.9231
1768029212396,-0.9609375,-0.18945312,-0.50097656,-48.64502,2.0751953,5.6762695,0.0,0.0,0.0,-131.41296,68.61511,174.58923
1768029212484,-0.93359375,-0.26464844,-0.21191406,62.86621,17.150879,-18.371582,0.0,0.0,0.0,-131.41296,68.61511,174.58923
1768029212495,-0.93359375,-0.26464844,-0.21191406,62.86621,17.150879,-18.371582,0.0,0.0,0.0,-129.46289,67.84607,174.39148
1768029212584,-0.9116211,-0.28222656,-0.30078125,-13.916016,8.483887,-11.84082,0.0,0.0,0.0,-129.46289,67.84607,174.39148
1768029212595,-0.9116211,-0.28222656,-0.30078125,-13.916016,8.483887,-11.84082,0.0,0.0,0.0,-129.88037,65.6543,173.37524
1768029212683,-0.9194336,-0.28320312,-0.21972656,-4.1503906,-10.070801,-15.50293,0.0,0.0,0.0,-129.88037,65.6543,173.37524
1768029212695,-0.9194336,-0.28320312,-0.21972656,-4.1503906,-10.070801,-15.50293,0.0,0.0,0.0,-128.88611,64.87427,175.39124
1768029212783,-0.90771484,-0.35986328,-0.36376953,15.74707,9.399414,-14.404297,0.0,0.0,0.0,-128.88611,64.87427,175.39124
1768029212794,-0.90771484,-0.35986328,-0.36376953,15.74707,9.399414,-14.404297,0.0,0.0,0.0,-126.47461,64.16016,177.95654
1768029212883,-0.86328125,-0.33398438,-0.33203125,22.644043,23.254395,-9.70459,0.0,0.0,0.0,-126.47461,64.16016,177.95654
1768029212895,-0.86328125,-0.33398438,-0.33203125,22.644043,23.254395,-9.70459,0.0,0.0,0.0,-125.65613,61.990356,176.59424
1768029212982,-0.8417969,-0.39892578,-0.26513672,20.874023,30.639648,-6.225586,0.0,0.0,0.0,-125.65613,61.990356,176.59424
1768029212994,-0.8417969,-0.39892578,-0.26513672,20.874023,30.639648,-6.225586,0.0,0.0,0.0,-127.05139,59.76013,172.17773
1768029213082,-0.84375,-0.38916016,-0.36132812,11.352539,17.822266,0.79345703,0.0,0.0,0.0,-127.05139,59.76013,172.17773
1768029213094,-0.84375,-0.38916016,-0.36132812,11.352539,17.822266,0.79345703,0.0,0.0,0.0,-128.53455,58.013306,168.85986
1768029213182,-0.84472656,-0.47509766,-0.31591797,4.699707,9.399414,7.9345703,0.0,0.0,0.0,-128.53455,58.013306,168.85986
1768029213194,-0.84472656,-0.47509766,-0.31591797,4.699707,9.399414,7.9345703,0.0,0.0,0.0,-130.20447,57.612305,165.72876
1768029213282,-0.82177734,-0.43945312,-0.35595703,-10.192871,-0.61035156,1.5869141,0.0,0.0,0.0,-130.20447,57.612305,165.72876
1768029213294,-0.82177734,-0.43945312,-0.35595703,-10.192871,-0.61035156,1.5869141,0.0,0.0,0.0,-131.07788,57.628784,164.6521
1768029213382,-0.8535156,-0.38671875,-0.38720703,-4.3945312,1.5869141,3.112793,0.0,0.0,0.0,-131.07788,57.628784,164.6521
1768029213394,-0.8535156,-0.38671875,-0.38720703,-4.3945312,1.5869141,3.112793,0.0,0.0,0.0,-132.15454,57.628784,164.2456
1768029213481,-0.84716797,-0.37402344,-0.39160156,-8.361816,1.5869141,4.211426,0.0,0.0,0.0,-132.15454,57.628784,164.2456
1768029213493,-0.84716797,-0.37402344,-0.39160156,-8.361816,1.5869141,4.211426,0.0,0.0,0.0,-133.3081,57.755127,163.4491
1768029213581,-0.84228516,-0.375,-0.38183594,-4.5776367,2.6855469,3.2348633,0.0,0.0,0.0,-133.3081,57.755127,163.4491
1768029213592,-0.84228516,-0.375,-0.38183594,-4.5776367,2.6855469,3.2348633,0.0,0.0,0.0,-134.50562,57.755127,162.57568
1768029213680,-0.84521484,-0.3569336,-0.39501953,-3.479004,1.0986328,2.5634766,0.0,0.0,0.0,-134.50562,57.755127,162.57568
1768029213692,-0.84521484,-0.3569336,-0.39501953,-3.479004,1.0986328,2.5634766,0.0,0.0,0.0,-135.3241,57.875977,161.98242
1768029213780,-0.8466797,-0.3618164,-0.39257812,-2.0141602,-0.6713867,4.3945312,0.0,0.0,0.0,-135.3241,57.875977,161.98242
1768029213792,-0.8466797,-0.3618164,-0.39257812,-2.0141602,-0.6713867,4.3945312,0.0,0.0,0.0,-136.11511,58.095703,161.33423
1768029213880,-0.85253906,-0.35742188,-0.39746094,-0.91552734,0.30517578,2.0141602,0.0,0.0,0.0,-136.11511,58.095703,161.33423
1768029213891,-0.85253906,-0.35742188,-0.39746094,-0.91552734,0.30517578,2.0141602,0.0,0.0,0.0,-136.58752,58.260498,160.90027
1768029213980,-0.8466797,-0.3544922,-0.39648438,-0.91552734,-0.30517578,1.7700195,0.0,0.0,0.0,-136.58752,58.260498,160.90027
1768029213991,-0.8466797,-0.3544922,-0.39648438,-0.91552734,-0.30517578,1.7700195,0.0,0.0,0.0,-136.88416,58.359375,160.64209
1768029214079,-0.86279297,-0.3491211,-0.39892578,-2.8686523,0.18310547,1.3427734,0.0,0.0,0.0,-136.88416,58.359375,160.64209
1768029214091,-0.86279297,-0.3491211,-0.39892578,-2.8686523,0.18310547,1.3427734,0.0,0.0,0.0,-137.37854,58.408813,160.32349
1768029214179,-0.85009766,-0.34716797,-0.40039062,-2.380371,0.61035156,1.2817383,0.0,0.0,0.0,-137.37854,58.408813,160.32349
1768029214191,-0.85009766,-0.34716797,-0.40039062,-2.380371,0.61035156,1.2817383,0.0,0.0,0.0,-137.71362,58.45276,160.08728
1768029214279,-0.8540039,-0.3383789,-0.3930664,-0.5493164,-0.30517578,1.7089844,0.0,0.0,0.0,-137.71362,58.45276,160.08728
1768029214290,-0.8540039,-0.3383789,-0.3930664,-0.5493164,-0.30517578,1.7089844,0.0,0.0,0.0,-138.20251,58.463745,159.73022
1768029214378,-0.8618164,-0.3383789,-0.40625,-0.36621094,0.8544922,0.7324219,0.0,0.0,0.0,-138.20251,58.463745,159.73022
1768029214390,-0.8618164,-0.3383789,-0.40625,-0.36621094,0.8544922,0.7324219,0.0,0.0,0.0,-138.48267,58.535156,159.57642
1768029214478,-0.8544922,-0.33642578,-0.4116211,-2.319336,0.5493164,0.8544922,0.0,0.0,0.0,-138.48267,58.535156,159.57642
1768029214490,-0.8544922,-0.33642578,-0.4116211,-2.319336,0.5493164,0.8544922,0.0,0.0,0.0,-138.76282,58.562622,159.38965
1768029214578,-0.8540039,-0.33691406,-0.41064453,-2.5024414,1.0375977,1.3427734,0.0,0.0,0.0,-138.76282,58.562622,159.38965
1768029214590,-0.8540039,-0.33691406,-0.41064453,-2.5024414,1.0375977,1.3427734,0.0,0.0,0.0,-139.29565,58.513184,159.01611
1768029214678,-0.85058594,-0.33496094,-0.40527344,-2.8076172,1.2817383,1.0986328,0.0,0.0,0.0,-139.29565,58.513184,159.01611
1768029214689,-0.85058594,-0.33496094,-0.40527344,-2.8076172,1.2817383,1.0986328,0.0,0.0,0.0,-139.83398,58.43628,158.65356
1768029214777,-0.8564453,-0.3227539,-0.42626953,-2.5024414,1.3427734,1.8920898,0.0,0.0,0.0,-139.83398,58.43628,158.65356
1768029214789,-0.8564453,-0.3227539,-0.42626953,-2.5024414,1.3427734,1.8920898,0.0,0.0,0.0,-140.53162,58.47473,158.25256
1768029214877,-0.8486328,-0.31835938,-0.41064453,-1.8310547,1.3427734,1.0986328,0.0,0.0,0.0,-140.53162,58.47473,158.25256
1768029214889,-0.8486328,-0.31835938,-0.41064453,-1.8310547,1.3427734,1.0986328,0.0,0.0,0.0,-141.07544,58.392334,157.79114
1768029214977,-0.8564453,-0.3173828,-0.40820312,0.24414062,-0.5493164,0.61035156,0.0,0.0,0.0,-141.07544,58.392334,157.79114
1768029214988,-0.8564453,-0.3173828,-0.40820312,0.24414062,-0.5493164,0.61035156,0.0,0.0,0.0,-141.25671,58.463745,157.70874
1768029215077,-0.8515625,-0.3173828,-0.41015625,1.6479492,-3.3569336,1.7700195,0.0,0.0,0.0,-141.25671,58.463745,157.70874
1768029215088,-0.8515625,-0.3173828,-0.41015625,1.6479492,-3.3569336,1.7700195,0.0,0.0,0.0,-141.32263,58.634033,157.71423
1768029215176,-0.8652344,-0.32080078,-0.42333984,1.2817383,-2.380371,-0.6713867,0.0,0.0,0.0,-141.32263,58.634033,157.71423
1768029215188,-0.8652344,-0.32080078,-0.42333984,1.2817383,-2.380371,-0.6713867,0.0,0.0,0.0,-140.8612,58.826294,157.98889
1768029215276,-0.8520508,-0.31884766,-0.40185547,0.91552734,0.24414062,-0.36621094,0.0,0.0,0.0,-140.8612,58.826294,157.98889
1768029215287,-0.8520508,-0.31884766,-0.40185547,0.91552734,0.24414062,-0.36621094,0.0,0.0,0.0,-140.64697,58.738403,158.08228
1768029215376,-0.8613281,-0.32421875,-0.4091797,0.0,1.4038086,0.30517578,0.0,0.0,0.0,-140.64697,58.738403,158.08228
1768029215387,-0.8613281,-0.32421875,-0.4091797,0.0,1.4038086,0.30517578,0.0,0.0,0.0,-140.81726,58.694458,157.95044
1768029215475,-0.8535156,-0.32177734,-0.40478516,-1.159668,0.9765625,0.48828125,0.0,0.0,0.0,-140.81726,58.694458,157.95044
1768029215487,-0.8535156,-0.32177734,-0.40478516,-1.159668,0.9765625,0.48828125,0.0,0.0,0.0,-141.02051,58.606567,157.75818
1768029215575,-0.85498047,-0.3173828,-0.41308594,-0.91552734,0.0,0.9765625,0.0,0.0,0.0,-141.02051,58.606567,157.75818
1768029215587,-0.85498047,-0.3173828,-0.41308594,-0.91552734,0.0,0.9765625,0.0,0.0,0.0,-141.2677,58.634033,157.60986
1768029215675,-0.85839844,-0.31445312,-0.4116211,-0.79345703,0.24414062,0.48828125,0.0,0.0,0.0,-141.2677,58.634033,157.60986
1768029215686,-0.85839844,-0.31445312,-0.4116211,-0.79345703,0.24414062,0.48828125,0.0,0.0,0.0,-141.48743,58.672485,157.48352
1768029215774,-0.85498047,-0.3149414,-0.40820312,0.36621094,-0.48828125,1.3427734,0.0,0.0,0.0,-141.48743,58.672485,157.48352
1768029215786,-0.85498047,-0.3149414,-0.40820312,0.36621094,-0.48828125,1.3427734,0.0,0.0,0.0,-141.65222,58.694458,157.37366
1768029215874,-0.8540039,-0.30664062,-0.40429688,-1.6479492,0.4272461,1.2207031,0.0,0.0,0.0,-141.65222,58.694458,157.37366
1768029215886,-0.8540039,-0.30664062,-0.40429688,-1.6479492,0.4272461,1.2207031,0.0,0.0,0.0,-141.95435,58.6615,157.14294
1768029215974,-0.86035156,-0.32666016,-0.4165039,1.2207031,-0.9765625,1.8310547,0.0,0.0,0.0,-141.95435,58.6615,157.14294
1768029215986,-0.86035156,-0.32666016,-0.4165039,1.2207031,-0.9765625,1.8310547,0.0,0.0,0.0,-142.11365,58.80432,156.96167
1768029216074,-0.8798828,-0.3076172,-0.4111328,-5.3100586,0.061035156,0.61035156,0.0,0.0,0.0,-142.11365,58.80432,156.96167
1768029216085,-0.8798828,-0.3076172,-0.4111328,-5.3100586,0.061035156,0.61035156,0.0,0.0,0.0,-142.88269,58.90869,156.43982
1768029216173,-0.85498047,-0.28857422,-0.4038086,0.18310547,-0.30517578,-1.159668,0.0,0.0,0.0,-142.88269,58.90869,156.43982
1768029216185,-0.85498047,-0.28857422,-0.4038086,0.18310547,-0.30517578,-1.159668,0.0,0.0,0.0,-142.94861,58.73291,156.63208
1768029216273,-0.86083984,-0.3154297,-0.42041016,0.30517578,0.0,1.159668,0.0,0.0,0.0,-142.94861,58.73291,156.63208
1768029216285,-0.86083984,-0.3154297,-0.42041016,0.30517578,0.0,1.159668,0.0,0.0,0.0,-142.92114,58.864746,156.698
1768029216373,-0.85498047,-0.30859375,-0.4169922,0.061035156,1.8310547,0.0,0.0,0.0,0.0,-142.92114,58.864746,156.698
1768029216384,-0.85498047,-0.30859375,-0.4169922,0.061035156,1.8310547,0.0,0.0,0.0,0.0,-143.10242,58.78784,156.48376
1768029216472,-0.86035156,-0.29589844,-0.42919922,-1.6479492,1.7089844,0.0,0.0,0.0,0.0,-143.10242,58.78784,156.48376
1768029216484,-0.86035156,-0.29589844,-0.42919922,-1.6479492,1.7089844,0.0,0.0,0.0,0.0,-143.31665,58.672485,156.34644
1768029216572,-0.85595703,-0.2939453,-0.4165039,0.0,3.479004,-0.36621094,0.0,0.0,0.0,-143.31665,58.672485,156.34644
1768029216585,-0.85595703,-0.2939453,-0.4165039,0.0,3.479004,-0.36621094,0.0,0.0,0.0,-143.7616,58.430786,156.07178
1768029216672,-0.85791016,-0.31640625,-0.43652344,-0.61035156,1.8920898,-0.61035156,0.0,0.0,0.0,-143.7616,58.430786,156.07178
1768029216684,-0.85791016,-0.31640625,-0.43652344,-0.61035156,1.8920898,-0.61035156,0.0,0.0,0.0,-143.83301,58.375854,155.99487
1768029216772,-0.8515625,-0.3095703,-0.4169922,-1.4038086,-2.380371,-0.24414062,0.0,0.0,0.0,-143.83301,58.375854,155.99487
1768029216784,-0.8515625,-0.3095703,-0.4169922,-1.4038086,-2.380371,-0.24414062,0.0,0.0,0.0,-143.94836,58.287964,156.04431
1768029216871,-0.8564453,-0.296875,-0.43115234,0.79345703,-1.4648438,-1.5258789,0.0,0.0,0.0,-143.94836,58.287964,156.04431
1768029216883,-0.8564453,-0.296875,-0.43115234,0.79345703,-1.4648438,-1.5258789,0.0,0.0,0.0,-143.78906,58.36487,156.40686
1768029216971,-0.84472656,-0.3017578,-0.44091797,5.3100586,2.1972656,-2.1362305,0.0,0.0,0.0,-143.78906,58.36487,156.40686
1768029216983,-0.84472656,-0.3017578,-0.44091797,5.3100586,2.1972656,-2.1362305,0.0,0.0,0.0,-142.5586,58.54065,157.08801
1768029217071,-0.83691406,-0.29833984,-0.4086914,3.9672852,0.4272461,-1.7700195,0.0,0.0,0.0,-142.5586,58.54065,157.08801
1768029217082,-0.83691406,-0.29833984,-0.4086914,3.9672852,0.4272461,-1.7700195,0.0,0.0,0.0,-141.93237,58.24951,157.30774
1768029217170,-0.84033203,-0.34960938,-0.4580078,-5.79834,4.0283203,0.30517578,0.0,0.0,0.0,-141.93237,58.24951,157.30774
1768029217182,-0.84033203,-0.34960938,-0.4580078,-5.79834,4.0283203,0.30517578,0.0,0.0,0.0,-142.97058,58.134155,156.57715
1768029217270,-0.8388672,-0.33203125,-0.40722656,-2.0141602,1.4648438,2.1972656,0.0,0.0,0.0,-142.97058,58.134155,156.57715
1768029217282,-0.8388672,-0.33203125,-0.40722656,-2.0141602,1.4648438,2.1972656,0.0,0.0,0.0,-143.77258,57.546387,156.28052
1768029217370,-0.8388672,-0.28808594,-0.45214844,-3.2348633,1.8310547,1.7089844,0.0,0.0,0.0,-143.77258,57.546387,156.28052
1768029217381,-0.8388672,-0.28808594,-0.45214844,-3.2348633,1.8310547,1.7089844,0.0,0.0,0.0,-144.42078,57.612305,155.98938
1768029217470,-0.8588867,-0.29101562,-0.42138672,0.061035156,0.9765625,0.36621094,0.0,0.0,0.0,-144.42078,57.612305,155.98938
1768029217481,-0.8588867,-0.29101562,-0.42138672,0.061035156,0.9765625,0.36621094,0.0,0.0,0.0,-144.68445,57.612305,155.75317
1768029217569,-0.8535156,-0.3022461,-0.44677734,0.4272461,-0.30517578,0.6713867,0.0,0.0,0.0,-144.68445,57.612305,155.75317
1768029217581,-0.8535156,-0.3022461,-0.44677734,0.4272461,-0.30517578,0.6713867,0.0,0.0,0.0,-144.92065,57.70569,155.70374
1768029217669,-0.84375,-0.31103516,-0.4482422,0.0,-0.6713867,0.0,0.0,0.0,0.0,-144.92065,57.70569,155.70374
1768029217681,-0.84375,-0.31103516,-0.4482422,0.0,-0.6713867,0.0,0.0,0.0,0.0,-144.92065,57.738647,155.7312
1768029217769,-0.84472656,-0.30419922,-0.43652344,1.2207031,-0.12207031,-0.18310547,0.0,0.0,0.0,-144.92065,57.738647,155.7312
1768029217781,-0.84472656,-0.30419922,-0.43652344,1.2207031,-0.12207031,-0.18310547,0.0,0.0,0.0,-144.79431,57.738647,155.77515
1768029217869,-0.85009766,-0.30078125,-0.43798828,-0.5493164,0.0,-0.24414062,0.0,0.0,0.0,-144.79431,57.738647,155.77515
1768029217880,-0.85009766,-0.30078125,-0.43798828,-0.5493164,0.0,-0.24414062,0.0,0.0,0.0,-144.76135,57.716675,155.80261
1768029217968,-0.85009766,-0.2998047,-0.43603516,-0.18310547,-0.24414062,0.18310547,0.0,0.0,0.0,-144.76135,57.716675,155.80261
1768029217980,-0.85009766,-0.2998047,-0.43603516,-0.18310547,-0.24414062,0.18310547,0.0,0.0,0.0,-144.7998,57.722168,155.80261
1768029218068,-0.85009766,-0.30371094,-0.43945312,0.48828125,-0.7324219,0.0,0.0,0.0,0.0,-144.7998,57.722168,155.80261
1768029218079,-0.85009766,-0.30371094,-0.43945312,0.48828125,-0.7324219,0.0,0.0,0.0,0.0,-144.75037,57.79358,155.84106
1768029218168,-0.84814453,-0.30126953,-0.43896484,0.061035156,0.4272461,0.12207031,0.0,0.0,0.0,-144.75037,57.79358,155.84106
1768029218179,-0.84814453,-0.30126953,-0.43896484,0.061035156,0.4272461,0.12207031,0.0,0.0,0.0,-144.73938,57.7771,155.8136
1768029218267,-0.8496094,-0.30664062,-0.4326172,1.8310547,-0.061035156,0.79345703,0.0,0.0,0.0,-144.73938,57.7771,155.8136
1768029218279,-0.8496094,-0.30664062,-0.4326172,1.8310547,-0.061035156,0.79345703,0.0,0.0,0.0,-144.69543,57.799072,155.72571
1768029218367,-0.84765625,-0.30029297,-0.42919922,-0.24414062,-0.30517578,0.61035156,0.0,0.0,0.0,-144.69543,57.799072,155.72571
1768029218379,-0.84765625,-0.30029297,-0.42919922,-0.24414062,-0.30517578,0.61035156,0.0,0.0,0.0,-144.82178,57.7771,155.63232
1768029218467,-0.8535156,-0.30078125,-0.44482422,-0.91552734,0.0,0.18310547,0.0,0.0,0.0,-144.82178,57.7771,155.63232
1768029218478,-0.8535156,-0.30078125,-0.44482422,-0.91552734,0.0,0.18310547,0.0,0.0,0.0,-144.86572,57.859497,155.65979
1768029218566,-0.85009766,-0.3022461,-0.43896484,-0.79345703,-0.18310547,0.24414062,0.0,0.0,0.0,-144.86572,57.859497,155.65979
1768029218578,-0.85009766,-0.3022461,-0.43896484,-0.79345703,-0.18310547,0.24414062,0.0,0.0,0.0,-144.92615,57.86499,155.62683
1768029218666,-0.84716797,-0.3017578,-0.43896484,-0.24414062,1.3427734,-1.0986328,0.0,0.0,0.0,-144.92615,57.86499,155.62683
1768029218678,-0.84716797,-0.3017578,-0.43896484,-0.24414062,1.3427734,-1.0986328,0.0,0.0,0.0,-145.01953,57.74414,155.55542
1768029218766,-0.85595703,-0.29833984,-0.43701172,-0.61035156,-0.79345703,0.61035156,0.0,0.0,0.0,-145.01953,57.74414,155.55542
1768029218779,-0.85595703,-0.29833984,-0.43701172,-0.61035156,-0.79345703,0.61035156,0.0,0.0,0.0,-144.91516,57.76062,155.6543
1768029218866,-0.8515625,-0.2998047,-0.43115234,-1.0375977,-1.0375977,1.8920898,0.0,0.0,0.0,-144.91516,57.76062,155.6543
1768029218877,-0.8515625,-0.2998047,-0.43115234,-1.0375977,-1.0375977,1.8920898,0.0,0.0,0.0,-145.10742,57.9364,155.52795
1768029218965,-0.84765625,-0.2998047,-0.43310547,-1.159668,0.24414062,0.61035156,0.0,0.0,0.0,-145.10742,57.9364,155.52795
1768029218977,-0.84765625,-0.2998047,-0.43310547,-1.159668,0.24414062,0.61035156,0.0,0.0,0.0,-145.38757,58.046265,155.35217
1768029219065,-0.8544922,-0.29003906,-0.43798828,-0.4272461,0.6713867,-0.18310547,0.0,0.0,0.0,-145.38757,58.046265,155.35217
1768029219076,-0.8544922,-0.29003906,-0.43798828,-0.4272461,0.6713867,-0.18310547,0.0,0.0,0.0,-145.51392,57.941895,155.29724
1768029219165,-0.85546875,-0.2944336,-0.4428711,-2.1972656,2.1362305,-0.24414062,0.0,0.0,0.0,-145.51392,57.941895,155.29724
1768029219177,-0.85546875,-0.2944336,-0.4428711,-2.1972656,2.1362305,-0.24414062,0.0,0.0,0.0,-145.65125,57.86499,155.20935
1768029219264,-0.8510742,-0.29541016,-0.44628906,-1.7089844,0.6713867,-0.7324219,0.0,0.0,0.0,-145.65125,57.86499,155.20935
1768029219276,-0.8510742,-0.29541016,-0.44628906,-1.7089844,0.6713867,-0.7324219,0.0,0.0,0.0,-145.88196,57.788086,155.14893
1768029219364,-0.8486328,-0.2939453,-0.4399414,-0.18310547,0.6713867,0.061035156,0.0,0.0,0.0,-145.88196,57.788086,155.14893
1768029219376,-0.8486328,-0.2939453,-0.4399414,-0.18310547,0.6713867,0.061035156,0.0,0.0,0.0,-146.0138,57.634277,155.05554
1768029219464,-0.84472656,-0.29248047,-0.44189453,0.061035156,1.8310547,-0.12207031,0.0,0.0,0.0,-146.0138,57.634277,155.05554
1768029219475,-0.84472656,-0.29248047,-0.44189453,0.061035156,1.8310547,-0.12207031,0.0,0.0,0.0,-146.12366,57.56836,154.95667
1768029219564,-0.8491211,-0.29248047,-0.4423828,0.5493164,0.12207031,0.0,0.0,0.0,0.0,-146.12366,57.56836,154.95667
1768029219575,-0.8491211,-0.29248047,-0.4423828,0.5493164,0.12207031,0.0,0.0,0.0,0.0,-146.15112,57.524414,154.89075
1768029219663,-0.8544922,-0.2919922,-0.44970703,0.4272461,-1.5869141,0.91552734,0.0,0.0,0.0,-146.15112,57.524414,154.89075
1768029219675,-0.8544922,-0.2919922,-0.44970703,0.4272461,-1.5869141,0.91552734,0.0,0.0,0.0,-146.10718,57.612305,154.87427
1768029219763,-0.85009766,-0.29492188,-0.4423828,-0.48828125,-0.12207031,0.79345703,0.0,0.0,0.0,-146.10718,57.612305,154.87427
1768029219775,-0.85009766,-0.29492188,-0.4423828,-0.48828125,-0.12207031,0.79345703,0.0,0.0,0.0,-146.12366,57.722168,154.8468
1768029219863,-0.85546875,-0.29345703,-0.4428711,1.4648438,0.30517578,1.5869141,0.0,0.0,0.0,-146.12366,57.722168,154.8468
1768029219874,-0.85546875,-0.29345703,-0.4428711,1.4648438,0.30517578,1.5869141,0.0,0.0,0.0,-146.4972,57.843018,154.74243
1768029219962,-0.8574219,-0.296875,-0.45507812,-0.24414062,-0.5493164,-0.36621094,0.0,0.0,0.0,-146.4972,57.843018,154.74243
1768029219974,-0.8574219,-0.296875,-0.45507812,-0.24414062,-0.5493164,-0.36621094,0.0,0.0,0.0,-146.4917,58.013306,154.682
1768029220062,-0.8466797,-0.2944336,-0.43798828,1.3427734,-2.0141602,0.30517578,0.0,0.0,0.0,-146.4917,58.013306,154.682
1768029220074,-0.8466797,-0.2944336,-0.43798828,1.3427734,-2.0141602,0.30517578,0.0,0.0,0.0,-146.20056,58.068237,154.82483
1768029220162,-0.8569336,-0.2861328,-0.4482422,-1.0375977,-1.3427734,0.9765625,0.0,0.0,0.0,-146.20056,58.068237,154.82483
1768029220174,-0.8569336,-0.2861328,-0.4482422,-1.0375977,-1.3427734,0.9765625,0.0,0.0,0.0,-146.21704,58.117676,154.80835
1768029220262,-0.85253906,-0.28955078,-0.44091797,-0.36621094,1.7089844,-0.4272461,0.0,0.0,0.0,-146.21704,58.117676,154.80835
1768029220273,-0.85253906,-0.28955078,-0.44091797,-0.36621094,1.7089844,-0.4272461,0.0,0.0,0.0,-146.28845,58.14514,154.7644
1768029220361,-0.8520508,-0.28955078,-0.44091797,-0.36621094,0.6713867,-0.12207031,0.0,0.0,0.0,-146.28845,58.14514,154.7644
1768029220373,-0.8520508,-0.28955078,-0.44091797,-0.36621094,0.6713867,-0.12207031,0.0,0.0,0.0,-146.37085,58.03528,154.70947
1768029220461,-0.8544922,-0.2841797,-0.4399414,0.30517578,0.24414062,0.12207031,0.0,0.0,0.0,-146.37085,58.03528,154.70947
1768029220472,-0.8544922,-0.2841797,-0.4399414,0.30517578,0.24414062,0.12207031,0.0,0.0,0.0,-146.44775,57.996826,154.64905
1768029220561,-0.8535156,-0.28808594,-0.43945312,0.24414062,0.48828125,-0.12207031,0.0,0.0,0.0,-146.44775,57.996826,154.64905
1768029220572,-0.8535156,-0.28808594,-0.43945312,0.24414062,0.48828125,-0.12207031,0.0,0.0,0.0,-146.44775,57.974854,154.63257
1768029220660,-0.8540039,-0.2915039,-0.44140625,-0.36621094,0.24414062,0.061035156,0.0,0.0,0.0,-146.44775,57.974854,154.63257
1768029220672,-0.8540039,-0.2915039,-0.44140625,-0.36621094,0.24414062,0.061035156,0.0,0.0,0.0,-146.44775,57.96936,154.62708
1768029220760,-0.85302734,-0.2861328,-0.43896484,-0.24414062,-0.12207031,0.12207031,0.0,0.0,0.0,-146.44775,57.96936,154.62708
1768029220772,-0.85302734,-0.2861328,-0.43896484,-0.24414062,-0.12207031,0.12207031,0.0,0.0,0.0,-146.51917,57.947388,154.57214
1768029220860,-0.8535156,-0.28564453,-0.44091797,-0.79345703,1.6479492,-0.36621094,0.0,0.0,0.0,-146.51917,57.947388,154.57214
1768029220871,-0.8535156,-0.28564453,-0.44091797,-0.79345703,1.6479492,-0.36621094,0.0,0.0,0.0,-146.56311,57.89795,154.51721
1768029220960,-0.85546875,-0.28564453,-0.45263672,-1.6479492,0.0,-0.18310547,0.0,0.0,0.0,-146.56311,57.89795,154.51721
1768029220971,-0.85546875,-0.28564453,-0.45263672,-1.6479492,0.0,-0.18310547,0.0,0.0,0.0,-146.651,57.908936,154.49524
1768029221059,-0.8491211,-0.28320312,-0.43408203,-0.12207031,0.79345703,0.0,0.0,0.0,0.0,-146.651,57.908936,154.49524
1768029221071,-0.8491211,-0.28320312,-0.43408203,-0.12207031,0.79345703,0.0,0.0,0.0,0.0,-146.83228,57.782593,154.40735
1768029221159,-0.85253906,-0.2836914,-0.4423828,-0.30517578,0.79345703,-0.12207031,0.0,0.0,0.0,-146.83228,57.782593,154.40735
1768029221171,-0.85253906,-0.2836914,-0.4423828,-0.30517578,0.79345703,-0.12207031,0.0,0.0,0.0,-146.92566,57.74414,154.35791
1768029221259,-0.85058594,-0.2836914,-0.453125,-0.12207031,2.1362305,-0.5493164,0.0,0.0,0.0,-146.92566,57.74414,154.35791
1768029221271,-0.85058594,-0.2836914,-0.453125,-0.12207031,2.1362305,-0.5493164,0.0,0.0,0.0,-147.052,57.645264,154.29199
1768029221358,-0.8496094,-0.28515625,-0.45214844,-1.159668,0.6713867,0.0,0.0,0.0,0.0,-147.052,57.645264,154.29199
1768029221371,-0.8496094,-0.28515625,-0.45214844,-1.159668,0.6713867,0.0,0.0,0.0,0.0,-147.22778,57.50244,154.17664
1768029221458,-0.8457031,-0.2836914,-0.44873047,-0.48828125,0.9765625,-0.061035156,0.0,0.0,0.0,-147.22778,57.50244,154.17664
1768029221470,-0.8457031,-0.2836914,-0.44873047,-0.48828125,0.9765625,-0.061035156,0.0,0.0,0.0,-147.39807,57.420044,154.08325
1768029221558,-0.84375,-0.2861328,-0.4453125,0.18310547,0.24414062,0.0,0.0,0.0,0.0,-147.39807,57.420044,154.08325
1768029221570,-0.84375,-0.2861328,-0.4453125,0.18310547,0.24414062,0.0,0.0,0.0,0.0,-147.46399,57.403564,154.03381
1768029221658,-0.85546875,-0.28125,-0.44384766,1.4648438,-2.1362305,1.2817383,0.0,0.0,0.0,-147.46399,57.403564,154.03381
1768029221669,-0.85546875,-0.28125,-0.44384766,1.4648438,-2.1362305,1.2817383,0.0,0.0,0.0,-147.33765,57.46399,154.11621
1768029221757,-0.84765625,-0.2783203,-0.44580078,-0.4272461,-1.5258789,1.0375977,0.0,0.0,0.0,-147.33765,57.46399,154.11621
1768029221769,-0.84765625,-0.2783203,-0.44580078,-0.4272461,-1.5258789,1.0375977,0.0,0.0,0.0,-147.30469,57.678223,154.11072
1768029221857,-0.84765625,-0.28759766,-0.45263672,-1.2817383,-1.4648438,0.36621094,0.0,0.0,0.0,-147.30469,57.678223,154.11072
1768029221868,-0.84765625,-0.28759766,-0.45263672,-1.2817383,-1.4648438,0.36621094,0.0,0.0,0.0,-147.25525,57.91992,154.17664
1768029221957,-0.85302734,-0.28173828,-0.44335938,-0.30517578,0.18310547,-0.4272461,0.0,0.0,0.0,-147.25525,57.91992,154.17664
1768029221968,-0.85302734,-0.28173828,-0.44335938,-0.30517578,0.18310547,-0.4272461,0.0,0.0,0.0,-147.20032,57.941895,154.24805
1768029222056,-0.85546875,-0.28222656,-0.44384766,-0.18310547,0.48828125,0.12207031,0.0,0.0,0.0,-147.20032,57.941895,154.24805
1768029222068,-0.85546875,-0.28222656,-0.44384766,-0.18310547,0.48828125,0.12207031,0.0,0.0,0.0,-147.22229,57.875977,154.21509
1768029222156,-0.8496094,-0.28173828,-0.44921875,0.18310547,0.18310547,0.0,0.0,0.0,0.0,-147.22229,57.875977,154.21509
1768029222167,-0.8496094,-0.28173828,-0.44921875,0.18310547,0.18310547,0.0,0.0,0.0,0.0,-147.24426,57.86499,154.19861
1768029222256,-0.85253906,-0.28320312,-0.44677734,-0.061035156,-0.36621094,0.18310547,0.0,0.0,0.0,-147.24426,57.86499,154.19861
1768029222267,-0.85253906,-0.28320312,-0.44677734,-0.061035156,-0.36621094,0.18310547,0.0,0.0,0.0,-147.24426,57.870483,154.19312
1768029222355,-0.8515625,-0.28271484,-0.44628906,-0.30517578,0.0,0.0,0.0,0.0,0.0,-147.24426,57.870483,154.19312
1768029222367,-0.8515625,-0.28271484,-0.44628906,-0.30517578,0.0,0.0,0.0,0.0,0.0,-147.23877,57.892456,154.21509
1768029222455,-0.85253906,-0.2841797,-0.44580078,-0.6713867,-0.48828125,0.061035156,0.0,0.0,0.0,-147.23877,57.892456,154.21509
1768029222467,-0.85253906,-0.2841797,-0.44580078,-0.6713867,-0.48828125,0.061035156,0.0,0.0,0.0,-147.23328,57.91992,154.25354
1768029222555,-0.8515625,-0.27978516,-0.44189453,-1.0986328,-1.8310547,0.61035156,0.0,0.0,0.0,-147.23328,57.91992,154.25354
1768029222566,-0.8515625,-0.27978516,-0.44189453,-1.0986328,-1.8310547,0.61035156,0.0,0.0,0.0,-147.24426,58.0188,154.30847
1768029222655,-0.8544922,-0.2734375,-0.44140625,-2.1972656,1.2817383,-0.12207031,0.0,0.0,0.0,-147.24426,58.0188,154.30847
1768029222666,-0.8544922,-0.2734375,-0.44140625,-2.1972656,1.2817383,-0.12207031,0.0,0.0,0.0,-147.3706,58.013306,154.27002
1768029222754,-0.8588867,-0.2734375,-0.45410156,-6.591797,-6.1035156,0.8544922,0.0,0.0,0.0,-147.3706,58.013306,154.27002
1768029222766,-0.8588867,-0.2734375,-0.45410156,-6.591797,-6.1035156,0.8544922,0.0,0.0,0.0,-147.65625,58.458252,154.53918
1768029222854,-0.8598633,-0.28710938,-0.43652344,-1.159668,-3.7841797,1.7700195,0.0,0.0,0.0,-147.65625,58.458252,154.53918
1768029222865,-0.8598633,-0.28710938,-0.43652344,-1.159668,-3.7841797,1.7700195,0.0,0.0,0.0,-147.73865,58.95813,154.69849
1768029222954,-0.8647461,-0.2783203,-0.44580078,0.18310547,0.12207031,-1.4648438,0.0,0.0,0.0,-147.73865,58.95813,154.69849
1768029222966,-0.8647461,-0.2783203,-0.44580078,0.18310547,0.12207031,-1.4648438,0.0,0.0,0.0,-147.67822,59.024048,154.74792
1768029223053,-0.86572266,-0.26367188,-0.4345703,0.12207031,0.18310547,-0.61035156,0.0,0.0,0.0,-147.67822,59.024048,154.74792
1768029223065,-0.86572266,-0.26367188,-0.4345703,0.12207031,0.18310547,-0.61035156,0.0,0.0,0.0,-147.56287,58.930664,154.86328
1768029223153,-0.8652344,-0.2680664,-0.4399414,-0.48828125,0.24414062,0.6713867,0.0,0.0,0.0,-147.56287,58.930664,154.86328
1768029223165,-0.8652344,-0.2680664,-0.4399414,-0.48828125,0.24414062,0.6713867,0.0,0.0,0.0,-147.63977,58.952637,154.80835
1768029223253,-0.8623047,-0.27148438,-0.42871094,-0.8544922,0.48828125,0.6713867,0.0,0.0,0.0,-147.63977,58.952637,154.80835
1768029223265,-0.8623047,-0.27148438,-0.42871094,-0.8544922,0.48828125,0.6713867,0.0,0.0,0.0,-147.82104,58.985596,154.66003
1768029223353,-0.8676758,-0.26757812,-0.4399414,-0.48828125,0.48828125,-0.24414062,0.0,0.0,0.0,-147.82104,58.985596,154.66003
1768029223364,-0.8676758,-0.26757812,-0.4399414,-0.48828125,0.48828125,-0.24414062,0.0,0.0,0.0,-147.80457,59.172363,154.83582
1768029223452,-0.8642578,-0.26611328,-0.43554688,1.0986328,0.4272461,0.36621094,0.0,0.0,0.0,-147.80457,59.172363,154.83582
1768029223464,-0.8642578,-0.26611328,-0.43554688,1.0986328,0.4272461,0.36621094,0.0,0.0,0.0,-147.7771,59.16687,154.80286
1768029223552,-0.8666992,-0.26904297,-0.42919922,0.61035156,1.5258789,0.0,0.0,0.0,0.0,-147.7771,59.16687,154.80286
1768029223563,-0.8666992,-0.26904297,-0.42919922,0.61035156,1.5258789,0.0,0.0,0.0,0.0,-147.79358,59.16687,154.73694
1768029223652,-0.8642578,-0.2734375,-0.4243164,0.9765625,-1.7700195,0.5493164,0.0,0.0,0.0,-147.79358,59.16687,154.73694
1768029223663,-0.8642578,-0.2734375,-0.4243164,0.9765625,-1.7700195,0.5493164,0.0,0.0,0.0,-147.68372,59.27124,154.73694
