timestamp,accX,accY,accZ,gyroX,gyroY,gyroZ,magX,magY,magZ,roll,pitch,yaw
1768032403222,-0.7368164,-0.54589844,-0.40527344,1.0986328,-2.8686523,-2.8686523,0.0,0.0,0.0,-127.32605,47.48291,-123.45886
1768032403234,-0.7368164,-0.54589844,-0.40527344,1.0986328,-2.8686523,-2.8686523,0.0,0.0,0.0,-126.60095,47.49939,-122.84912
1768032403322,-0.73046875,-0.5595703,-0.40185547,0.48828125,-5.7373047,-0.18310547,0.0,0.0,0.0,-126.60095,47.49939,-122.84912
1768032403334,-0.73046875,-0.5595703,-0.40185547,0.48828125,-5.7373047,-0.18310547,0.0,0.0,0.0,-126.06262,47.63672,-122.00867
1768032403421,-0.74121094,-0.54345703,-0.390625,-4.5776367,-2.380371,2.8686523,0.0,0.0,0.0,-126.06262,47.63672,-122.00867
1768032403433,-0.74121094,-0.54345703,-0.390625,-4.5776367,-2.380371,2.8686523,0.0,0.0,0.0,-125.92529,47.98828,-121.51428
1768032403521,-0.75634766,-0.53222656,-0.38427734,-2.0141602,-3.6621094,4.1503906,0.0,0.0,0.0,-125.92529,47.98828,-121.51428
1768032403533,-0.75634766,-0.53222656,-0.38427734,-2.0141602,-3.6621094,4.1503906,0.0,0.0,0.0,-125.90881,48.40576,-121.14075
1768032403621,-0.7602539,-0.53125,-0.38916016,-2.5024414,-5.493164,2.380371,0.0,0.0,0.0,-125.90881,48.40576,-121.14075
1768032403632,-0.7602539,-0.53125,-0.38916016,-2.5024414,-5.493164,2.380371,0.0,0.0,0.0,-126.25488,48.96057,-120.60791
1768032403721,-0.8017578,-0.5419922,-0.37402344,-2.380371,-3.7231445,6.4697266,0.0,0.0,0.0,-126.25488,48.96057,-120.60791
1768032403732,-0.8017578,-0.5419922,-0.37402344,-2.380371,-3.7231445,6.4697266,0.0,0.0,0.0,-126.14502,49.400024,-119.94324
1768032403820,-0.77783203,-0.51660156,-0.37158203,-2.1362305,-1.0375977,5.3100586,0.0,0.0,0.0,-126.14502,49.400024,-119.94324
1768032403832,-0.77783203,-0.51660156,-0.37158203,-2.1362305,-1.0375977,5.3100586,0.0,0.0,0.0,-126.13403,50.05371,-119.4928
1768032403920,-0.77978516,-0.49804688,-0.3720703,-2.1362305,2.380371,0.061035156,0.0,0.0,0.0,-126.13403,50.05371,-119.4928
1768032403931,-0.77978516,-0.49804688,-0.3720703,-2.1362305,2.380371,0.061035156,0.0,0.0,0.0,-126.57898,50.224,-119.4104
1768032404020,-0.76904297,-0.49951172,-0.39453125,-1.0986328,-0.8544922,1.5869141,0.0,0.0,0.0,-126.57898,50.224,-119.4104
1768032404031,-0.76904297,-0.49951172,-0.39453125,-1.0986328,-0.8544922,1.5869141,0.0,0.0,0.0,-126.8811,50.152588,-119.190674
1768032404119,-0.7734375,-0.51123047,-0.38183594,1.5869141,-2.6245117,-0.61035156,0.0,0.0,0.0,-126.8811,50.152588,-119.190674
1768032404131,-0.7734375,-0.51123047,-0.38183594,1.5869141,-2.6245117,-0.61035156,0.0,0.0,0.0,-126.65039,50.300903,-118.75122
1768032404219,-0.7788086,-0.5048828,-0.37695312,0.5493164,-1.0375977,-0.36621094,0.0,0.0,0.0,-126.65039,50.300903,-118.75122
1768032404231,-0.7788086,-0.5048828,-0.37695312,0.5493164,-1.0375977,-0.36621094,0.0,0.0,0.0,-126.3208,50.372314,-118.19092
1768032404319,-0.77197266,-0.51220703,-0.375,-1.2817383,-1.3427734,-0.61035156,0.0,0.0,0.0,-126.3208,50.372314,-118.19092
1768032404330,-0.77197266,-0.51220703,-0.375,-1.2817383,-1.3427734,-0.61035156,0.0,0.0,0.0,-126.22742,50.388794,-117.69653
1768032404418,-0.7753906,-0.51416016,-0.38330078,-0.79345703,0.0,-0.30517578,0.0,0.0,0.0,-126.22742,50.388794,-117.69653
1768032404430,-0.7753906,-0.51416016,-0.38330078,-0.79345703,0.0,-0.30517578,0.0,0.0,0.0,-126.22742,50.36682,-117.26807
1768032404518,-0.7753906,-0.50878906,-0.3803711,-0.91552734,1.3427734,-0.18310547,0.0,0.0,0.0,-126.22742,50.36682,-117.26807
1768032404530,-0.7753906,-0.50878906,-0.3803711,-0.91552734,1.3427734,-0.18310547,0.0,0.0,0.0,-126.38672,50.333862,-117.03186
1768032404618,-0.77001953,-0.5053711,-0.38476562,-0.48828125,1.6479492,-0.91552734,0.0,0.0,0.0,-126.38672,50.333862,-117.03186
1768032404630,-0.77001953,-0.5053711,-0.38476562,-0.48828125,1.6479492,-0.91552734,0.0,0.0,0.0,-126.56799,50.19104,-116.850586
1768032404718,-0.77246094,-0.51220703,-0.38720703,0.48828125,1.5869141,-0.8544922,0.0,0.0,0.0,-126.56799,50.19104,-116.850586
1768032404729,-0.77246094,-0.51220703,-0.38720703,0.48828125,1.5869141,-0.8544922,0.0,0.0,0.0,-126.65039,50.03174,-116.674805
1768032404818,-0.7705078,-0.5097656,-0.39257812,-1.159668,0.7324219,-0.36621094,0.0,0.0,0.0,-126.65039,50.03174,-116.674805
1768032404829,-0.7705078,-0.5097656,-0.39257812,-1.159668,0.7324219,-0.36621094,0.0,0.0,0.0,-126.79321,49.899902,-116.53198
1768032404918,-0.76171875,-0.51123047,-0.3881836,0.36621094,0.6713867,-0.36621094,0.0,0.0,0.0,-126.79321,49.899902,-116.53198
1768032404929,-0.76171875,-0.51123047,-0.3881836,0.36621094,0.6713867,-0.36621094,0.0,0.0,0.0,-126.84265,49.81201,-116.33423
1768032405017,-0.76708984,-0.5131836,-0.39160156,1.4038086,1.5258789,-1.5869141,0.0,0.0,0.0,-126.84265,49.81201,-116.33423
1768032405028,-0.76708984,-0.5131836,-0.39160156,1.4038086,1.5258789,-1.5869141,0.0,0.0,0.0,-126.80969,49.66919,-116.16943
1768032405116,-0.7607422,-0.51660156,-0.39208984,1.2817383,0.6713867,-1.159668,0.0,0.0,0.0,-126.80969,49.66919,-116.16943
1768032405128,-0.7607422,-0.51660156,-0.39208984,1.2817383,0.6713867,-1.159668,0.0,0.0,0.0,-126.73279,49.4989,-116.032104
1768032405216,-0.765625,-0.51904297,-0.390625,0.7324219,0.061035156,-1.0375977,0.0,0.0,0.0,-126.73279,49.4989,-116.032104
1768032405228,-0.765625,-0.51904297,-0.390625,0.7324219,0.061035156,-1.0375977,0.0,0.0,0.0,-126.61194,49.416504,-115.75195
1768032405316,-0.76171875,-0.51708984,-0.39501953,-0.18310547,0.4272461,-0.7324219,0.0,0.0,0.0,-126.61194,49.416504,-115.75195
1768032405327,-0.76171875,-0.51708984,-0.39501953,-0.18310547,0.4272461,-0.7324219,0.0,0.0,0.0,-126.52954,49.312134,-115.493774
1768032405416,-0.76123047,-0.52197266,-0.390625,0.12207031,-0.6713867,-0.061035156,0.0,0.0,0.0,-126.52954,49.312134,-115.493774
1768032405427,-0.76123047,-0.52197266,-0.390625,0.12207031,-0.6713867,-0.061035156,0.0,0.0,0.0,-126.46362,49.328613,-115.252075
1768032405515,-0.7602539,-0.5205078,-0.39013672,-0.18310547,-0.24414062,-0.061035156,0.0,0.0,0.0,-126.46362,49.328613,-115.252075
1768032405527,-0.7602539,-0.5205078,-0.39013672,-0.18310547,-0.24414062,-0.061035156,0.0,0.0,0.0,-126.37024,49.3396,-114.97742
1768032405615,-0.75927734,-0.5229492,-0.38867188,0.36621094,-1.3427734,0.24414062,0.0,0.0,0.0,-126.37024,49.3396,-114.97742
1768032405627,-0.75927734,-0.5229492,-0.38867188,0.36621094,-1.3427734,0.24414062,0.0,0.0,0.0,-126.25488,49.39453,-114.6698
1768032405715,-0.765625,-0.51953125,-0.38427734,-0.18310547,-1.0375977,0.7324219,0.0,0.0,0.0,-126.25488,49.39453,-114.6698
1768032405726,-0.765625,-0.51953125,-0.38427734,-0.18310547,-1.0375977,0.7324219,0.0,0.0,0.0,-126.12305,49.509888,-114.33472
1768032405815,-0.7651367,-0.5185547,-0.38378906,-2.0141602,-0.36621094,1.3427734,0.0,0.0,0.0,-126.12305,49.509888,-114.33472
1768032405826,-0.7651367,-0.5185547,-0.38378906,-2.0141602,-0.36621094,1.3427734,0.0,0.0,0.0,-126.18347,49.647217,-114.104004
1768032405914,-0.76660156,-0.50927734,-0.3935547,-0.6713867,0.79345703,-0.24414062,0.0,0.0,0.0,-126.18347,49.647217,-114.104004
1768032405926,-0.76660156,-0.50927734,-0.3935547,-0.6713867,0.79345703,-0.24414062,0.0,0.0,0.0,-126.397705,49.63623,-113.95569
1768032406014,-0.76220703,-0.5214844,-0.38867188,0.48828125,0.061035156,0.48828125,0.0,0.0,0.0,-126.397705,49.63623,-113.95569
1768032406025,-0.76220703,-0.5214844,-0.38867188,0.48828125,0.061035156,0.48828125,0.0,0.0,0.0,-126.44714,49.63623,-113.88428
1768032406114,-0.7626953,-0.51171875,-0.3876953,-2.8686523,1.4648438,1.0375977,0.0,0.0,0.0,-126.44714,49.63623,-113.88428
1768032406125,-0.7626953,-0.51171875,-0.3876953,-2.8686523,1.4648438,1.0375977,0.0,0.0,0.0,-126.62842,49.625244,-113.84033
1768032406214,-0.7636719,-0.5102539,-0.39160156,-0.9765625,1.953125,-0.18310547,0.0,0.0,0.0,-126.62842,49.625244,-113.84033
1768032406225,-0.7636719,-0.5102539,-0.39160156,-0.9765625,1.953125,-0.18310547,0.0,0.0,0.0,-127.00195,49.559326,-113.9447
1768032406313,-0.76464844,-0.51171875,-0.39941406,-1.0986328,1.2817383,0.061035156,0.0,0.0,0.0,-127.00195,49.559326,-113.9447
1768032406325,-0.76464844,-0.51171875,-0.39941406,-1.0986328,1.2817383,0.061035156,0.0,0.0,0.0,-127.34253,49.46045,-114.04907
1768032406413,-0.7602539,-0.51123047,-0.40234375,-0.91552734,0.48828125,0.91552734,0.0,0.0,0.0,-127.34253,49.46045,-114.04907
1768032406425,-0.7602539,-0.51123047,-0.40234375,-0.91552734,0.48828125,0.91552734,0.0,0.0,0.0,-127.51831,49.44397,-114.09302
1768032406513,-0.7675781,-0.5053711,-0.40234375,-1.6479492,1.3427734,2.8076172,0.0,0.0,0.0,-127.51831,49.44397,-114.09302
1768032406524,-0.7675781,-0.5053711,-0.40234375,-1.6479492,1.3427734,2.8076172,0.0,0.0,0.0,-127.86438,49.526367,-114.3512
1768032406612,-0.76660156,-0.50439453,-0.41748047,-0.7324219,2.5634766,0.6713867,0.0,0.0,0.0,-127.86438,49.526367,-114.3512
1768032406624,-0.76660156,-0.50439453,-0.41748047,-0.7324219,2.5634766,0.6713867,0.0,0.0,0.0,-128.32031,49.46045,-114.74121
1768032406712,-0.7631836,-0.5029297,-0.4111328,-0.79345703,0.79345703,-0.24414062,0.0,0.0,0.0,-128.32031,49.46045,-114.74121
1768032406723,-0.7631836,-0.5029297,-0.4111328,-0.79345703,0.79345703,-0.24414062,0.0,0.0,0.0,-128.54553,49.389038,-114.94446
1768032406812,-0.76220703,-0.5078125,-0.41357422,0.36621094,-0.18310547,-0.48828125,0.0,0.0,0.0,-128.54553,49.389038,-114.94446
1768032406823,-0.76220703,-0.5078125,-0.41357422,0.36621094,-0.18310547,-0.48828125,0.0,0.0,0.0,-128.52356,49.345093,-114.971924
1768032406911,-0.7636719,-0.5058594,-0.40722656,-0.8544922,0.18310547,0.18310547,0.0,0.0,0.0,-128.52356,49.345093,-114.971924
1768032406923,-0.7636719,-0.5058594,-0.40722656,-0.8544922,0.18310547,0.18310547,0.0,0.0,0.0,-128.50708,49.3396,-114.9884
1768032407011,-0.7680664,-0.50146484,-0.41015625,-2.746582,2.2583008,0.12207031,0.0,0.0,0.0,-128.50708,49.3396,-114.9884
1768032407023,-0.7680664,-0.50146484,-0.41015625,-2.746582,2.2583008,0.12207031,0.0,0.0,0.0,-128.79272,49.317627,-115.17517
1768032407111,-0.7597656,-0.50097656,-0.42041016,-1.7089844,1.5869141,0.061035156,0.0,0.0,0.0,-128.79272,49.317627,-115.17517
1768032407124,-0.7597656,-0.50097656,-0.42041016,-1.7089844,1.5869141,0.061035156,0.0,0.0,0.0,-129.16626,49.20227,-115.460815
1768032407211,-0.75634766,-0.49804688,-0.41992188,-0.79345703,1.2207031,-0.61035156,0.0,0.0,0.0,-129.16626,49.20227,-115.460815
1768032407224,-0.75634766,-0.49804688,-0.41992188,-0.79345703,1.2207031,-0.61035156,0.0,0.0,0.0,-129.3695,49.05945,-115.64209
1768032407311,-0.7583008,-0.50146484,-0.4243164,-1.159668,2.1362305,-0.12207031,0.0,0.0,0.0,-129.3695,49.05945,-115.64209
1768032407323,-0.7583008,-0.50146484,-0.4243164,-1.159668,2.1362305,-0.12207031,0.0,0.0,0.0,-129.59473,48.949585,-115.8728
1768032407410,-0.75341797,-0.4951172,-0.42919922,0.24414062,2.9296875,-1.5869141,0.0,0.0,0.0,-129.59473,48.949585,-115.8728
1768032407422,-0.75341797,-0.4951172,-0.42919922,0.24414062,2.9296875,-1.5869141,0.0,0.0,0.0,-129.84741,48.685913,-116.21887
1768032407510,-0.74316406,-0.50683594,-0.42822266,3.2348633,0.6713867,-2.319336,0.0,0.0,0.0,-129.84741,48.685913,-116.21887
1768032407521,-0.74316406,-0.50683594,-0.42822266,3.2348633,0.6713867,-2.319336,0.0,0.0,0.0,-129.68811,48.40576,-116.378174
1768032407610,-0.75097656,-0.51123047,-0.42871094,1.8920898,-0.61035156,-1.8310547,0.0,0.0,0.0,-129.68811,48.40576,-116.378174
1768032407622,-0.75097656,-0.51123047,-0.42871094,1.8920898,-0.61035156,-1.8310547,0.0,0.0,0.0,-129.375,48.273926,-116.30127
1768032407709,-0.74609375,-0.5136719,-0.42626953,2.380371,-0.61035156,-1.8920898,0.0,0.0,0.0,-129.375,48.273926,-116.30127
1768032407721,-0.74609375,-0.5136719,-0.42626953,2.380371,-0.61035156,-1.8920898,0.0,0.0,0.0,-128.98499,48.147583,-116.14746
1768032407809,-0.75,-0.51464844,-0.421875,1.0375977,-0.8544922,-0.36621094,0.0,0.0,0.0,-128.98499,48.147583,-116.14746
1768032407820,-0.75,-0.51464844,-0.421875,1.0375977,-0.8544922,-0.36621094,0.0,0.0,0.0,-128.68286,48.10913,-116.015625
1768032407909,-0.7504883,-0.5180664,-0.41455078,0.0,0.12207031,-0.4272461,0.0,0.0,0.0,-128.68286,48.10913,-116.015625
1768032407920,-0.7504883,-0.5180664,-0.41455078,0.0,0.12207031,-0.4272461,0.0,0.0,0.0,-128.51257,48.103638,-115.96069
1768032408008,-0.7475586,-0.5185547,-0.42236328,-0.6713867,0.36621094,0.7324219,0.0,0.0,0.0,-128.51257,48.103638,-115.96069
1768032408020,-0.7475586,-0.5185547,-0.42236328,-0.6713867,0.36621094,0.7324219,0.0,0.0,0.0,-128.59497,48.103638,-116.0376
1768032408108,-0.74609375,-0.51708984,-0.42285156,-2.1362305,1.5258789,0.79345703,0.0,0.0,0.0,-128.59497,48.103638,-116.0376
1768032408120,-0.74609375,-0.51708984,-0.42285156,-2.1362305,1.5258789,0.79345703,0.0,0.0,0.0,-128.86963,48.07617,-116.224365
1768032408208,-0.7451172,-0.5107422,-0.43115234,-2.1972656,1.5869141,1.8310547,0.0,0.0,0.0,-128.86963,48.07617,-116.224365
1768032408219,-0.7451172,-0.5107422,-0.43115234,-2.1972656,1.5869141,1.8310547,0.0,0.0,0.0,-129.31458,48.059692,-116.53198
1768032408308,-0.74658203,-0.5102539,-0.43164062,-2.6855469,1.8920898,3.112793,0.0,0.0,0.0,-129.31458,48.059692,-116.53198
1768032408319,-0.74658203,-0.5102539,-0.43164062,-2.6855469,1.8920898,3.112793,0.0,0.0,0.0,-129.80347,48.103638,-116.96045
1768032408407,-0.74853516,-0.5019531,-0.44335938,-3.4179688,2.2583008,3.3569336,0.0,0.0,0.0,-129.80347,48.103638,-116.96045
1768032408419,-0.74853516,-0.5019531,-0.44335938,-3.4179688,2.2583008,3.3569336,0.0,0.0,0.0,-130.40771,48.19153,-117.542725
1768032408507,-0.75439453,-0.49316406,-0.4428711,-1.7700195,1.2207031,3.90625,0.0,0.0,0.0,-130.40771,48.19153,-117.542725
1768032408518,-0.75439453,-0.49316406,-0.4428711,-1.7700195,1.2207031,3.90625,0.0,0.0,0.0,-131.0669,48.356323,-118.2074
1768032408607,-0.7524414,-0.49023438,-0.4482422,-2.746582,1.5869141,2.746582,0.0,0.0,0.0,-131.0669,48.356323,-118.2074
1768032408618,-0.7524414,-0.49023438,-0.4482422,-2.746582,1.5869141,2.746582,0.0,0.0,0.0,-131.50085,48.482666,-118.75122
1768032408706,-0.75146484,-0.48535156,-0.44873047,-3.4179688,1.5258789,2.5634766,0.0,0.0,0.0,-131.50085,48.482666,-118.75122
1768032408719,-0.75146484,-0.48535156,-0.44873047,-3.4179688,1.5258789,2.5634766,0.0,0.0,0.0,-132.09961,48.570557,-119.30054
1768032408806,-0.7573242,-0.47998047,-0.4555664,-1.7700195,1.2207031,1.7089844,0.0,0.0,0.0,-132.09961,48.570557,-119.30054
1768032408818,-0.7573242,-0.47998047,-0.4555664,-1.7700195,1.2207031,1.7089844,0.0,0.0,0.0,-132.6709,48.62549,-119.86084
1768032408906,-0.75390625,-0.4736328,-0.45410156,-1.5869141,1.159668,0.36621094,0.0,0.0,0.0,-132.6709,48.62549,-119.86084
1768032408917,-0.75390625,-0.4736328,-0.45410156,-1.5869141,1.159668,0.36621094,0.0,0.0,0.0,-132.96753,48.619995,-120.305786
1768032409006,-0.7578125,-0.47705078,-0.45703125,-0.12207031,0.061035156,0.6713867,0.0,0.0,0.0,-132.96753,48.619995,-120.305786
1768032409017,-0.7578125,-0.47705078,-0.45703125,-0.12207031,0.061035156,0.6713867,0.0,0.0,0.0,-133.13232,48.641968,-120.6958
1768032409105,-0.7529297,-0.48046875,-0.4580078,1.0375977,0.18310547,-0.9765625,0.0,0.0,0.0,-133.13232,48.641968,-120.6958
1768032409117,-0.7529297,-0.48046875,-0.4580078,1.0375977,0.18310547,-0.9765625,0.0,0.0,0.0,-133.10486,48.62549,-120.981445
1768032409205,-0.7578125,-0.47460938,-0.46289062,-0.4272461,0.0,0.6713867,0.0,0.0,0.0,-133.10486,48.62549,-120.981445
1768032409217,-0.7578125,-0.47460938,-0.46289062,-0.4272461,0.0,0.6713867,0.0,0.0,0.0,-133.22021,48.64746,-121.27258
1768032409305,-0.75439453,-0.47851562,-0.45751953,0.4272461,-0.061035156,0.061035156,0.0,0.0,0.0,-133.22021,48.64746,-121.27258
1768032409316,-0.75439453,-0.47851562,-0.45751953,0.4272461,-0.061035156,0.061035156,0.0,0.0,0.0,-133.22571,48.66394,-121.57471
1768032409404,-0.7578125,-0.47460938,-0.4633789,-0.36621094,0.18310547,0.0,0.0,0.0,0.0,-133.22571,48.66394,-121.57471
1768032409416,-0.7578125,-0.47460938,-0.4633789,-0.36621094,0.18310547,0.0,0.0,0.0,0.0,-133.26416,48.652954,-121.84387
1768032409504,-0.75683594,-0.47021484,-0.45703125,-0.7324219,0.0,0.61035156,0.0,0.0,0.0,-133.26416,48.652954,-121.84387
1768032409516,-0.75683594,-0.47021484,-0.45703125,-0.7324219,0.0,0.61035156,0.0,0.0,0.0,-133.38501,48.685913,-122.12402
1768032409604,-0.7558594,-0.47509766,-0.45947266,0.061035156,-0.48828125,0.0,0.0,0.0,0.0,-133.38501,48.685913,-122.12402
1768032409618,-0.7558594,-0.47509766,-0.45947266,0.061035156,-0.48828125,0.0,0.0,0.0,0.0,-133.37952,48.6969,-122.33276
1768032409704,-0.7529297,-0.4741211,-0.45654297,1.2817383,-1.5258789,0.0,0.0,0.0,0.0,-133.37952,48.6969,-122.33276
1768032409719,-0.7529297,-0.4741211,-0.45654297,1.2817383,-1.5258789,0.0,0.0,0.0,0.0,-133.21472,48.78479,-122.420654
1768032409803,-0.75634766,-0.47509766,-0.45458984,0.9765625,-0.61035156,-0.48828125,0.0,0.0,0.0,-133.21472,48.78479,-122.420654
1768032409815,-0.75634766,-0.47509766,-0.45458984,0.9765625,-0.61035156,-0.48828125,0.0,0.0,0.0,-133.05542,48.828735,-122.45911
1768032409904,-0.7529297,-0.47558594,-0.4555664,-0.7324219,-0.30517578,-0.61035156,0.0,0.0,0.0,-133.05542,48.828735,-122.45911
1768032409915,-0.7529297,-0.47558594,-0.4555664,-0.7324219,-0.30517578,-0.61035156,0.0,0.0,0.0,-132.995,48.790283,-122.49756
1768032410003,-0.7553711,-0.47558594,-0.45263672,0.0,0.61035156,-0.18310547,0.0,0.0,0.0,-132.995,48.790283,-122.49756
1768032410015,-0.7553711,-0.47558594,-0.45263672,0.0,0.61035156,-0.18310547,0.0,0.0,0.0,-133.06091,48.790283,-122.6239
1768032410103,-0.7504883,-0.47460938,-0.45751953,-0.8544922,1.0986328,0.0,0.0,0.0,0.0,-133.06091,48.790283,-122.6239
1768032410115,-0.7504883,-0.47460938,-0.45751953,-0.8544922,1.0986328,0.0,0.0,0.0,0.0,-133.1543,48.707886,-122.805176
1768032410202,-0.75341797,-0.47607422,-0.4580078,-1.0375977,1.0375977,0.4272461,0.0,0.0,0.0,-133.1543,48.707886,-122.805176
1768032410214,-0.75341797,-0.47607422,-0.4580078,-1.0375977,1.0375977,0.4272461,0.0,0.0,0.0,-133.33557,48.658447,-123.01941
1768032410302,-0.7553711,-0.47021484,-0.4609375,-3.0517578,2.5634766,0.18310547,0.0,0.0,0.0,-133.33557,48.658447,-123.01941
1768032410314,-0.7553711,-0.47021484,-0.4609375,-3.0517578,2.5634766,0.18310547,0.0,0.0,0.0,-133.65417,48.55957,-123.33252
1768032410402,-0.7441406,-0.4736328,-0.46289062,-3.112793,2.746582,0.61035156,0.0,0.0,0.0,-133.65417,48.55957,-123.33252
1768032410414,-0.7441406,-0.4736328,-0.46289062,-3.112793,2.746582,0.61035156,0.0,0.0,0.0,-134.12659,48.378296,-123.79944
1768032410502,-0.7519531,-0.46826172,-0.47460938,-4.272461,2.6245117,2.319336,0.0,0.0,0.0,-134.12659,48.378296,-123.79944
1768032410513,-0.7519531,-0.46826172,-0.47460938,-4.272461,2.6245117,2.319336,0.0,0.0,0.0,-134.93408,48.290405,-124.44214
1768032410601,-0.74658203,-0.45898438,-0.4794922,-4.211426,1.8310547,3.7841797,0.0,0.0,0.0,-134.93408,48.290405,-124.44214
1768032410613,-0.74658203,-0.45898438,-0.4794922,-4.211426,1.8310547,3.7841797,0.0,0.0,0.0,-135.7251,48.35083,-125.1947
1768032410701,-0.75146484,-0.44726562,-0.4892578,-5.126953,1.4038086,4.8217773,0.0,0.0,0.0,-135.7251,48.35083,-125.1947
1768032410712,-0.75146484,-0.44726562,-0.4892578,-5.126953,1.4038086,4.8217773,0.0,0.0,0.0,-136.66443,48.52112,-126.10657
1768032410801,-0.7524414,-0.44482422,-0.48876953,-4.4555664,1.6479492,4.0283203,0.0,0.0,0.0,-136.66443,48.52112,-126.10657
1768032410812,-0.7524414,-0.44482422,-0.48876953,-4.4555664,1.6479492,4.0283203,0.0,0.0,0.0,-137.5653,48.71338,-127.073364
1768032410900,-0.75634766,-0.4243164,-0.49853516,-4.638672,1.6479492,4.333496,0.0,0.0,0.0,-137.5653,48.71338,-127.073364
1768032410912,-0.75634766,-0.4243164,-0.49853516,-4.638672,1.6479492,4.333496,0.0,0.0,0.0,-138.42773,48.883667,-128.0127
1768032411000,-0.7583008,-0.421875,-0.50097656,-3.3569336,2.1972656,3.2958984,0.0,0.0,0.0,-138.42773,48.883667,-128.0127
1768032411012,-0.7583008,-0.421875,-0.50097656,-3.3569336,2.1972656,3.2958984,0.0,0.0,0.0,-139.28467,48.96057,-129.00146
1768032411100,-0.7597656,-0.4194336,-0.5102539,-5.493164,0.5493164,2.8076172,0.0,0.0,0.0,-139.28467,48.96057,-129.00146
1768032411111,-0.7597656,-0.4194336,-0.5102539,-5.493164,0.5493164,2.8076172,0.0,0.0,0.0,-140.08118,49.02649,-129.82544
1768032411200,-0.75683594,-0.4008789,-0.5185547,-2.9907227,-0.18310547,2.380371,0.0,0.0,0.0,-140.08118,49.02649,-129.82544
1768032411211,-0.75683594,-0.4008789,-0.5185547,-2.9907227,-0.18310547,2.380371,0.0,0.0,0.0,-140.75134,49.14734,-130.53406
1768032411299,-0.7680664,-0.39160156,-0.5239258,-0.18310547,-1.2207031,1.8920898,0.0,0.0,0.0,-140.75134,49.14734,-130.53406
1768032411311,-0.7680664,-0.39160156,-0.5239258,-0.18310547,-1.2207031,1.8920898,0.0,0.0,0.0,-141.09741,49.26819,-131.20972
1768032411399,-0.76464844,-0.40185547,-0.50927734,0.0,-1.2207031,0.36621094,0.0,0.0,0.0,-141.09741,49.26819,-131.20972
1768032411410,-0.76464844,-0.40185547,-0.50927734,0.0,-1.2207031,0.36621094,0.0,0.0,0.0,-141.11938,49.432983,-131.68213
1768032411499,-0.76660156,-0.39746094,-0.51416016,0.91552734,-0.36621094,-1.159668,0.0,0.0,0.0,-141.11938,49.432983,-131.68213
1768032411510,-0.76660156,-0.39746094,-0.51416016,0.91552734,-0.36621094,-1.159668,0.0,0.0,0.0,-140.96008,49.46045,-131.9403
1768032411598,-0.76660156,-0.40576172,-0.50634766,1.8920898,0.4272461,-1.7700195,0.0,0.0,0.0,-140.96008,49.46045,-131.9403
1768032411610,-0.76660156,-0.40576172,-0.50634766,1.8920898,0.4272461,-1.7700195,0.0,0.0,0.0,-140.69641,49.37805,-132.1875
1768032411698,-0.75927734,-0.41748047,-0.51123047,2.1972656,1.0375977,-3.2958984,0.0,0.0,0.0,-140.69641,49.37805,-132.1875
1768032411710,-0.75927734,-0.41748047,-0.51123047,2.1972656,1.0375977,-3.2958984,0.0,0.0,0.0,-140.47119,49.13086,-132.37976
1768032411798,-0.7578125,-0.4111328,-0.51464844,1.8310547,0.6713867,-2.9907227,0.0,0.0,0.0,-140.47119,49.13086,-132.37976
1768032411809,-0.7578125,-0.4111328,-0.51464844,1.8310547,0.6713867,-2.9907227,0.0,0.0,0.0,-140.10864,48.87268,-132.38525
1768032411898,-0.7553711,-0.42871094,-0.50683594,3.6621094,0.48828125,-4.4555664,0.0,0.0,0.0,-140.10864,48.87268,-132.38525
1768032411909,-0.7553711,-0.42871094,-0.50683594,3.6621094,0.48828125,-4.4555664,0.0,0.0,0.0,-139.61426,48.581543,-132.37976
1768032411997,-0.74902344,-0.42529297,-0.51171875,0.8544922,1.159668,-3.6621094,0.0,0.0,0.0,-139.61426,48.581543,-132.37976
1768032412009,-0.74902344,-0.42529297,-0.51171875,0.8544922,1.159668,-3.6621094,0.0,0.0,0.0,-139.0979,48.268433,-132.20947
1768032412097,-0.75146484,-0.43798828,-0.50390625,2.6855469,1.7089844,-3.4179688,0.0,0.0,0.0,-139.0979,48.268433,-132.20947
1768032412108,-0.75146484,-0.43798828,-0.50390625,2.6855469,1.7089844,-3.4179688,0.0,0.0,0.0,-138.82874,47.982788,-132.24792
1768032412197,-0.7392578,-0.43652344,-0.51220703,0.9765625,1.8310547,-3.2348633,0.0,0.0,0.0,-138.82874,47.982788,-132.24792
1768032412208,-0.7392578,-0.43652344,-0.51220703,0.9765625,1.8310547,-3.2348633,0.0,0.0,0.0,-138.51562,47.642212,-132.30286
1768032412296,-0.7338867,-0.44873047,-0.5083008,1.2817383,0.36621094,-1.4648438,0.0,0.0,0.0,-138.51562,47.642212,-132.30286
1768032412308,-0.7338867,-0.44873047,-0.5083008,1.2817383,0.36621094,-1.4648438,0.0,0.0,0.0,-138.26843,47.406006,-132.39624
1768032412396,-0.7363281,-0.4404297,-0.5126953,1.2207031,-1.4648438,-1.7089844,0.0,0.0,0.0,-138.26843,47.406006,-132.39624
1768032412408,-0.7363281,-0.4404297,-0.5126953,1.2207031,-1.4648438,-1.7089844,0.0,0.0,0.0,-137.99927,47.34558,-132.36877
1768032412496,-0.73779297,-0.4506836,-0.5107422,2.4414062,-2.380371,-1.4648438,0.0,0.0,0.0,-137.99927,47.34558,-132.36877
1768032412507,-0.73779297,-0.4506836,-0.5107422,2.4414062,-2.380371,-1.4648438,0.0,0.0,0.0,-137.59277,47.37854,-132.28088
1768032412596,-0.73779297,-0.45214844,-0.5019531,0.8544922,-2.6245117,-1.159668,0.0,0.0,0.0,-137.59277,47.37854,-132.28088
1768032412607,-0.73779297,-0.45214844,-0.5019531,0.8544922,-2.6245117,-1.159668,0.0,0.0,0.0,-137.18628,47.48291,-132.1051
1768032412695,-0.7397461,-0.45117188,-0.49365234,0.9765625,-2.1362305,0.24414062,0.0,0.0,0.0,-137.18628,47.48291,-132.1051
1768032412707,-0.7397461,-0.45117188,-0.49365234,0.9765625,-2.1362305,0.24414062,0.0,0.0,0.0,-136.91162,47.58728,-132.04468
1768032412795,-0.7421875,-0.45654297,-0.4946289,0.30517578,-2.380371,0.24414062,0.0,0.0,0.0,-136.91162,47.58728,-132.04468
1768032412807,-0.7421875,-0.45654297,-0.4946289,0.30517578,-2.380371,0.24414062,0.0,0.0,0.0,-136.65894,47.752075,-131.96777
1768032412895,-0.74658203,-0.45410156,-0.49316406,2.0141602,-1.4648438,1.2817383,0.0,0.0,0.0,-136.65894,47.752075,-131.96777
1768032412906,-0.74658203,-0.45410156,-0.49316406,2.0141602,-1.4648438,1.2817383,0.0,0.0,0.0,-136.49414,47.938843,-131.90735
1768032412994,-0.75,-0.453125,-0.49023438,-1.3427734,-0.91552734,1.4648438,0.0,0.0,0.0,-136.49414,47.938843,-131.90735
1768032413006,-0.75,-0.453125,-0.49023438,-1.3427734,-0.91552734,1.4648438,0.0,0.0,0.0,-136.39526,48.07617,-131.9513
1768032413094,-0.75439453,-0.4506836,-0.4897461,-0.48828125,0.5493164,1.2817383,0.0,0.0,0.0,-136.39526,48.07617,-131.9513
1768032413106,-0.75439453,-0.4506836,-0.4897461,-0.48828125,0.5493164,1.2817383,0.0,0.0,0.0,-136.73035,48.164062,-132.17102
1768032413194,-0.74853516,-0.44335938,-0.4897461,-1.0986328,0.61035156,0.9765625,0.0,0.0,0.0,-136.73035,48.164062,-132.17102
1768032413205,-0.74853516,-0.44335938,-0.4897461,-1.0986328,0.61035156,0.9765625,0.0,0.0,0.0,-136.87866,48.19702,-132.30286
1768032413294,-0.75097656,-0.44726562,-0.48632812,-0.5493164,0.4272461,0.8544922,0.0,0.0,0.0,-136.87866,48.19702,-132.30286
1768032413305,-0.75097656,-0.44726562,-0.48632812,-0.5493164,0.4272461,0.8544922,0.0,0.0,0.0,-137.0929,48.2135,-132.48962
1768032413393,-0.7504883,-0.44580078,-0.4946289,-1.8920898,2.4414062,1.0986328,0.0,0.0,0.0,-137.0929,48.2135,-132.48962
1768032413405,-0.7504883,-0.44580078,-0.4946289,-1.8920898,2.4414062,1.0986328,0.0,0.0,0.0,-137.43896,48.164062,-132.75879
1768032413493,-0.74560547,-0.4399414,-0.50390625,-1.8310547,2.0141602,1.3427734,0.0,0.0,0.0,-137.43896,48.164062,-132.75879
1768032413505,-0.74560547,-0.4399414,-0.50390625,-1.8310547,2.0141602,1.3427734,0.0,0.0,0.0,-137.8949,48.059692,-133.1543
1768032413593,-0.74609375,-0.44433594,-0.50439453,-0.5493164,0.061035156,1.4648438,0.0,0.0,0.0,-137.8949,48.059692,-133.1543
1768032413604,-0.74609375,-0.44433594,-0.50439453,-0.5493164,0.061035156,1.4648438,0.0,0.0,0.0,-138.23547,48.081665,-133.49487
1768032413692,-0.7524414,-0.42773438,-0.5019531,-1.7089844,1.5869141,1.0375977,0.0,0.0,0.0,-138.23547,48.081665,-133.49487
1768032413704,-0.7524414,-0.42773438,-0.5019531,-1.7089844,1.5869141,1.0375977,0.0,0.0,0.0,-138.57056,48.103638,-133.81348
1768032413792,-0.74902344,-0.43652344,-0.5107422,-0.6713867,1.7700195,0.30517578,0.0,0.0,0.0,-138.57056,48.103638,-133.81348
1768032413804,-0.74902344,-0.43652344,-0.5107422,-0.6713867,1.7700195,0.30517578,0.0,0.0,0.0,-138.78479,48.015747,-134.1156
1768032413892,-0.74560547,-0.43066406,-0.51171875,-0.48828125,1.0375977,0.6713867,0.0,0.0,0.0,-138.78479,48.015747,-134.1156
1768032413904,-0.74560547,-0.43066406,-0.51171875,-0.48828125,1.0375977,0.6713867,0.0,0.0,0.0,-138.98804,47.94983,-134.39575
1768032413992,-0.7480469,-0.4296875,-0.5136719,-1.7700195,1.5258789,0.9765625,0.0,0.0,0.0,-138.98804,47.94983,-134.39575
1768032414003,-0.7480469,-0.4296875,-0.5136719,-1.7700195,1.5258789,0.9765625,0.0,0.0,0.0,-139.23523,47.905884,-134.73083
1768032414091,-0.7426758,-0.43066406,-0.51171875,-0.79345703,1.159668,1.2817383,0.0,0.0,0.0,-139.23523,47.905884,-134.73083
1768032414103,-0.7426758,-0.43066406,-0.51171875,-0.79345703,1.159668,1.2817383,0.0,0.0,0.0,-139.54834,47.872925,-135.13184
1768032414191,-0.74560547,-0.42236328,-0.52001953,-1.8920898,2.0751953,1.4648438,0.0,0.0,0.0,-139.54834,47.872925,-135.13184
1768032414202,-0.74560547,-0.42236328,-0.52001953,-1.8920898,2.0751953,1.4648438,0.0,0.0,0.0,-139.97131,47.834473,-135.61523
1768032414296,-0.7421875,-0.42138672,-0.5258789,-1.159668,1.7700195,1.2207031,0.0,0.0,0.0,-139.97131,47.834473,-135.61523
1768032414302,-0.7421875,-0.42138672,-0.5258789,-1.159668,1.7700195,1.2207031,0.0,0.0,0.0,-140.3833,47.768555,-136.13159
1768032414390,-0.7441406,-0.41601562,-0.52490234,-1.2207031,0.91552734,1.3427734,0.0,0.0,0.0,-140.3833,47.768555,-136.13159
1768032414402,-0.7441406,-0.41601562,-0.52490234,-1.2207031,0.91552734,1.3427734,0.0,0.0,0.0,-140.7074,47.752075,-136.604
1768032414490,-0.74365234,-0.41552734,-0.5283203,-1.5869141,0.36621094,1.4648438,0.0,0.0,0.0,-140.7074,47.752075,-136.604
1768032414502,-0.74365234,-0.41552734,-0.5283203,-1.5869141,0.36621094,1.4648438,0.0,0.0,0.0,-140.96008,47.801514,-136.98303
1768032414590,-0.75146484,-0.41748047,-0.53808594,-1.7700195,-0.4272461,1.7089844,0.0,0.0,0.0,-140.96008,47.801514,-136.98303
1768032414601,-0.75146484,-0.41748047,-0.53808594,-1.7700195,-0.4272461,1.7089844,0.0,0.0,0.0,-141.28967,47.889404,-137.37854
1768032414690,-0.74902344,-0.40527344,-0.52685547,-1.6479492,-1.2207031,2.0141602,0.0,0.0,0.0,-141.28967,47.889404,-137.37854
1768032414701,-0.74902344,-0.40527344,-0.52685547,-1.6479492,-1.2207031,2.0141602,0.0,0.0,0.0,-141.55884,48.09265,-137.71362
1768032414790,-0.75,-0.39990234,-0.52783203,-0.91552734,-0.24414062,2.2583008,0.0,0.0,0.0,-141.55884,48.09265,-137.71362
1768032414801,-0.75,-0.39990234,-0.52783203,-0.91552734,-0.24414062,2.2583008,0.0,0.0,0.0,-141.78406,48.235474,-138.07617
1768032414889,-0.74902344,-0.39941406,-0.53271484,-0.18310547,-0.9765625,1.953125,0.0,0.0,0.0,-141.78406,48.235474,-138.07617
1768032414901,-0.74902344,-0.39941406,-0.53271484,-0.18310547,-0.9765625,1.953125,0.0,0.0,0.0,-142.00378,48.43872,-138.41675
1768032414989,-0.75634766,-0.40478516,-0.52734375,2.4414062,-1.6479492,0.91552734,0.0,0.0,0.0,-142.00378,48.43872,-138.41675
1768032415000,-0.75634766,-0.40478516,-0.52734375,2.4414062,-1.6479492,0.91552734,0.0,0.0,0.0,-141.93787,48.68042,-138.65295
1768032415088,-0.75439453,-0.39794922,-0.5229492,2.1362305,-3.112793,0.48828125,0.0,0.0,0.0,-141.93787,48.68042,-138.65295
1768032415100,-0.75439453,-0.39794922,-0.5229492,2.1362305,-3.112793,0.48828125,0.0,0.0,0.0,-141.60828,48.867188,-138.68042
1768032415188,-0.7602539,-0.39941406,-0.51708984,1.4648438,-2.6855469,0.0,0.0,0.0,0.0,-141.60828,48.867188,-138.68042
1768032415200,-0.7602539,-0.39941406,-0.51708984,1.4648438,-2.6855469,0.0,0.0,0.0,0.0,-141.30615,49.075928,-138.66394
1768032415288,-0.7661133,-0.3984375,-0.5107422,2.0141602,-2.5024414,-0.30517578,0.0,0.0,0.0,-141.30615,49.075928,-138.66394
1768032415299,-0.7661133,-0.3984375,-0.5107422,2.0141602,-2.5024414,-0.30517578,0.0,0.0,0.0,-140.9436,49.295654,-138.54309
1768032415388,-0.76220703,-0.41210938,-0.5048828,3.2348633,-3.1738281,-0.4272461,0.0,0.0,0.0,-140.9436,49.295654,-138.54309
1768032415399,-0.76220703,-0.41210938,-0.5048828,3.2348633,-3.1738281,-0.4272461,0.0,0.0,0.0,-140.44373,49.42749,-138.40576
1768032415487,-0.76708984,-0.4116211,-0.5,3.8452148,-7.080078,0.4272461,0.0,0.0,0.0,-140.44373,49.42749,-138.40576
1768032415499,-0.76708984,-0.4116211,-0.5,3.8452148,-7.080078,0.4272461,0.0,0.0,0.0,-139.80103,49.784546,-138.0597
1768032415587,-0.78027344,-0.41259766,-0.4819336,5.6152344,-7.9345703,-0.12207031,0.0,0.0,0.0,-139.80103,49.784546,-138.0597
1768032415599,-0.78027344,-0.41259766,-0.4819336,5.6152344,-7.9345703,-0.12207031,0.0,0.0,0.0,-138.82874,50.36682,-137.47742
1768032415687,-0.78466797,-0.40576172,-0.4555664,3.9672852,-3.6621094,1.2817383,0.0,0.0,0.0,-138.82874,50.36682,-137.47742
1768032415698,-0.78466797,-0.40576172,-0.4555664,3.9672852,-3.6621094,1.2817383,0.0,0.0,0.0,-137.7356,50.77881,-136.82922
1768032415786,-0.7807617,-0.42626953,-0.4560547,-5.432129,-4.5166016,4.638672,0.0,0.0,0.0,-137.7356,50.77881,-136.82922
1768032415798,-0.7807617,-0.42626953,-0.4560547,-5.432129,-4.5166016,4.638672,0.0,0.0,0.0,-138.09265,51.33911,-136.82373
1768032415886,-0.7885742,-0.4013672,-0.4741211,-0.6713867,-12.573242,1.4648438,0.0,0.0,0.0,-138.09265,51.33911,-136.82373
1768032415898,-0.7885742,-0.4013672,-0.4741211,-0.6713867,-12.573242,1.4648438,0.0,0.0,0.0,-138.09814,52.08069,-136.21399
1768032415986,-0.7993164,-0.41210938,-0.43652344,10.7421875,-17.028809,-1.4648438,0.0,0.0,0.0,-138.09814,52.08069,-136.21399
1768032415998,-0.7993164,-0.41210938,-0.43652344,10.7421875,-17.028809,-1.4648438,0.0,0.0,0.0,-136.30188,53.184814,-134.42322
1768032416086,-0.82177734,-0.42822266,-0.3959961,0.79345703,-10.986328,-5.126953,0.0,0.0,0.0,-136.30188,53.184814,-134.42322
1768032416097,-0.82177734,-0.42822266,-0.3959961,0.79345703,-10.986328,-5.126953,0.0,0.0,0.0,-134.12659,53.805542,-132.24792
1768032416185,-0.8173828,-0.42041016,-0.41015625,0.5493164,-4.272461,-4.5166016,0.0,0.0,0.0,-134.12659,53.805542,-132.24792
1768032416197,-0.8173828,-0.42041016,-0.41015625,0.5493164,-4.272461,-4.5166016,0.0,0.0,0.0,-132.97852,53.948364,-130.2649
1768032416285,-0.7963867,-0.42626953,-0.39648438,5.004883,-0.18310547,-5.9814453,0.0,0.0,0.0,-132.97852,53.948364,-130.2649
1768032416297,-0.7963867,-0.42626953,-0.39648438,5.004883,-0.18310547,-5.9814453,0.0,0.0,0.0,-132.09961,53.778076,-129.02893
1768032416385,-0.75341797,-0.43945312,-0.41015625,28.198242,0.91552734,-4.5166016,0.0,0.0,0.0,-132.09961,53.778076,-129.02893
1768032416397,-0.75341797,-0.43945312,-0.41015625,28.198242,0.91552734,-4.5166016,0.0,0.0,0.0,-130.99548,52.212524,-128.45764
1768032416484,-0.7832031,-0.48388672,-0.38671875,17.089844,-18.127441,3.1738281,0.0,0.0,0.0,-130.99548,52.212524,-128.45764
1768032416496,-0.7832031,-0.48388672,-0.38671875,17.089844,-18.127441,3.1738281,0.0,0.0,0.0,-128.52356,52.575073,-127.194214
1768032416584,-0.80322266,-0.44970703,-0.3383789,13.793945,-29.174805,2.1362305,0.0,0.0,0.0,-128.52356,52.575073,-127.194214
1768032416596,-0.80322266,-0.44970703,-0.3383789,13.793945,-29.174805,2.1362305,0.0,0.0,0.0,-125.079346,54.107666,-124.0686
1768032416684,-0.8515625,-0.54345703,-0.25634766,17.578125,-37.719727,7.6904297,0.0,0.0,0.0,-125.079346,54.107666,-124.0686
1768032416695,-0.8515625,-0.54345703,-0.25634766,17.578125,-37.719727,7.6904297,0.0,0.0,0.0,-120.234375,56.40381,-119.42139
1768032416784,-0.8120117,-0.484375,-0.17578125,10.314941,-32.470703,19.89746,0.0,0.0,0.0,-120.234375,56.40381,-119.42139
1768032416795,-0.8120117,-0.484375,-0.17578125,10.314941,-32.470703,19.89746,0.0,0.0,0.0,-114.87305,58.74939,-114.505005
1768032416883,-0.88964844,-0.47021484,-0.19726562,-13.977051,1.5258789,9.887695,0.0,0.0,0.0,-114.87305,58.74939,-114.505005
1768032416895,-0.88964844,-0.47021484,-0.19726562,-13.977051,1.5258789,9.887695,0.0,0.0,0.0,-113.36243,61.589355,-111.99463
1768032416983,-0.9550781,-0.39697266,-0.10546875,21.850586,-5.79834,-0.79345703,0.0,0.0,0.0,-113.36243,61.589355,-111.99463
1768032416995,-0.9550781,-0.39697266,-0.10546875,21.850586,-5.79834,-0.79345703,0.0,0.0,0.0,-112.74719,61.869507,-111.901245
1768032417083,-0.9145508,-0.43359375,-0.16455078,12.6953125,-11.962891,-4.211426,0.0,0.0,0.0,-112.74719,61.869507,-111.901245
1768032417094,-0.9145508,-0.43359375,-0.16455078,12.6953125,-11.962891,-4.211426,0.0,0.0,0.0,-108.26477,62.182617,-108.42407
1768032417182,-0.90771484,-0.4819336,-0.12646484,15.991211,3.6010742,-5.1879883,0.0,0.0,0.0,-108.26477,62.182617,-108.42407
1768032417194,-0.90771484,-0.4819336,-0.12646484,15.991211,3.6010742,-5.1879883,0.0,0.0,0.0,-105.58411,62.319946,-106.60034
1768032417282,-0.87939453,-0.42626953,-0.1171875,-35.15625,22.705078,-3.479004,0.0,0.0,0.0,-105.58411,62.319946,-106.60034
1768032417294,-0.87939453,-0.42626953,-0.1171875,-35.15625,22.705078,-3.479004,0.0,0.0,0.0,-107.34192,61.78711,-107.8363
1768032417382,-0.9169922,-0.4501953,-0.1821289,-27.58789,37.65869,-18.249512,0.0,0.0,0.0,-107.34192,61.78711,-107.8363
1768032417394,-0.9169922,-0.4501953,-0.1821289,-27.58789,37.65869,-18.249512,0.0,0.0,0.0,-114.55994,59.80957,-112.51648
1768032417482,-0.84716797,-0.5097656,-0.22167969,-24.169922,40.83252,-18.981934,0.0,0.0,0.0,-114.55994,59.80957,-112.51648
1768032417493,-0.84716797,-0.5097656,-0.22167969,-24.169922,40.83252,-18.981934,0.0,0.0,0.0,-120.684814,56.343384,-117.734985
1768032417581,-0.85253906,-0.625,-0.48632812,-10.498047,31.00586,-7.751465,0.0,0.0,0.0,-120.684814,56.343384,-117.734985
1768032417593,-0.85253906,-0.625,-0.48632812,-10.498047,31.00586,-7.751465,0.0,0.0,0.0,-126.28235,53.481445,-121.57471
1768032417681,-0.77001953,-0.51220703,-0.42285156,-16.418457,25.939941,-7.1411133,0.0,0.0,0.0,-126.28235,53.481445,-121.57471
1768032417692,-0.77001953,-0.51220703,-0.42285156,-16.418457,25.939941,-7.1411133,0.0,0.0,0.0,-129.7815,51.37207,-124.70032
1768032417781,-0.76171875,-0.48046875,-0.4453125,-11.352539,18.798828,-4.0893555,0.0,0.0,0.0,-129.7815,51.37207,-124.70032
1768032417792,-0.76171875,-0.48046875,-0.4453125,-11.352539,18.798828,-4.0893555,0.0,0.0,0.0,-132.47314,49.614258,-126.77124
1768032417880,-0.75,-0.46191406,-0.47998047,-14.282227,13.427734,-5.004883,0.0,0.0,0.0,-132.47314,49.614258,-126.77124
1768032417892,-0.75,-0.46191406,-0.47998047,-14.282227,13.427734,-5.004883,0.0,0.0,0.0,-134.9231,48.433228,-128.20496
1768032417980,-0.7368164,-0.4716797,-0.47216797,-4.0893555,6.652832,-5.92041,0.0,0.0,0.0,-134.9231,48.433228,-128.20496
1768032417992,-0.7368164,-0.4716797,-0.47216797,-4.0893555,6.652832,-5.92041,0.0,0.0,0.0,-135.79102,47.406006,-128.67737
1768032418080,-0.73095703,-0.4663086,-0.51708984,-16.845703,0.6713867,-1.0986328,0.0,0.0,0.0,-135.79102,47.406006,-128.67737
1768032418091,-0.73095703,-0.4663086,-0.51708984,-16.845703,0.6713867,-1.0986328,0.0,0.0,0.0,-136.87866,47.01599,-128.58398
1768032418180,-0.7211914,-0.40771484,-0.55566406,7.6904297,0.24414062,-0.9765625,0.0,0.0,0.0,-136.87866,47.01599,-128.58398
1768032418191,-0.7211914,-0.40771484,-0.55566406,7.6904297,0.24414062,-0.9765625,0.0,0.0,0.0,-137.70813,46.922607,-128.88062
1768032418279,-0.7270508,-0.49658203,-0.4921875,0.0,-0.79345703,5.432129,0.0,0.0,0.0,-137.70813,46.922607,-128.88062
1768032418291,-0.7270508,-0.49658203,-0.4921875,0.0,-0.79345703,5.432129,0.0,0.0,0.0,-137.58728,47.191772,-129.28162
1768032418379,-0.7167969,-0.4423828,-0.49951172,2.1362305,-3.540039,2.746582,0.0,0.0,0.0,-137.58728,47.191772,-129.28162
1768032418391,-0.7167969,-0.4423828,-0.49951172,2.1362305,-3.540039,2.746582,0.0,0.0,0.0,-137.005,47.581787,-129.2926
1768032418479,-0.74560547,-0.44628906,-0.49169922,-7.1411133,-11.962891,14.343262,0.0,0.0,0.0,-137.005,47.581787,-129.2926
1768032418490,-0.74560547,-0.44628906,-0.49169922,-7.1411133,-11.962891,14.343262,0.0,0.0,0.0,-137.70264,48.707886,-129.776
1768032418579,-0.7861328,-0.4663086,-0.48095703,11.291504,-39.489746,15.625,0.0,0.0,0.0,-137.70264,48.707886,-129.776
1768032418591,-0.7861328,-0.4663086,-0.48095703,11.291504,-39.489746,15.625,0.0,0.0,0.0,-136.31836,51.56433,-128.47961
1768032418678,-0.8618164,-0.42822266,-0.40478516,5.493164,-37.231445,54.80957,0.0,0.0,0.0,-136.31836,51.56433,-128.47961
1768032418689,-0.8618164,-0.42822266,-0.40478516,5.493164,-37.231445,54.80957,0.0,0.0,0.0,-136.38428,57.01355,-128.58398
1768032418778,-0.84716797,-0.29003906,-0.3413086,-4.5776367,-32.592773,41.68701,0.0,0.0,0.0,-136.38428,57.01355,-128.58398
1768032418789,-0.84716797,-0.29003906,-0.3413086,-4.5776367,-32.592773,41.68701,0.0,0.0,0.0,-139.83948,62.5177,-133.5498
1768032418878,-0.96240234,-0.28320312,-0.30517578,-11.962891,-47.058105,7.9956055,0.0,0.0,0.0,-139.83948,62.5177,-133.5498
1768032418889,-0.96240234,-0.28320312,-0.30517578,-11.962891,-47.058105,7.9956055,0.0,0.0,0.0,-138.79028,66.71997,-130.69885
1768032418977,-0.9038086,-0.19091797,-0.25830078,-7.6293945,-35.52246,-5.7373047,0.0,0.0,0.0,-138.79028,66.71997,-130.69885
1768032418989,-0.9038086,-0.19091797,-0.25830078,-7.6293945,-35.52246,-5.7373047,0.0,0.0,0.0,-132.5116,69.505005,-122.32178
1768032419077,-0.9296875,-0.25390625,-0.1772461,-8.239746,-20.568848,5.3100586,0.0,0.0,0.0,-132.5116,69.505005,-122.32178
1768032419088,-0.9296875,-0.25390625,-0.1772461,-8.239746,-20.568848,5.3100586,0.0,0.0,0.0,-128.18298,70.982666,-116.54846
1768032419177,-0.9609375,-0.21679688,-0.18115234,-11.962891,-14.526367,-2.4414062,0.0,0.0,0.0,-128.18298,70.982666,-116.54846
1768032419188,-0.9609375,-0.21679688,-0.18115234,-11.962891,-14.526367,-2.4414062,0.0,0.0,0.0,-126.381226,71.96594,-113.43384
1768032419276,-0.9555664,-0.24853516,-0.13867188,-7.6904297,-24.902344,6.7749023,0.0,0.0,0.0,-126.381226,71.96594,-113.43384
1768032419288,-0.9555664,-0.24853516,-0.13867188,-7.6904297,-24.902344,6.7749023,0.0,0.0,0.0,-123.826904,73.39966,-109.610596
1768032419376,-0.96875,-0.20800781,-0.09814453,7.751465,-22.155762,-1.2817383,0.0,0.0,0.0,-123.826904,73.39966,-109.610596
1768032419387,-0.96875,-0.20800781,-0.09814453,7.751465,-22.155762,-1.2817383,0.0,0.0,0.0,-115.74097,74.72351,-101.35437
1768032419476,-0.94384766,-0.22998047,-0.044921875,6.5307617,-20.263672,17.76123,0.0,0.0,0.0,-115.74097,74.72351,-101.35437
1768032419487,-0.94384766,-0.22998047,-0.044921875,6.5307617,-20.263672,17.76123,0.0,0.0,0.0,-109.81384,76.27258,-96.25122
1768032419576,-0.9916992,-0.18017578,-0.0029296875,-5.004883,-19.836426,23.864746,0.0,0.0,0.0,-109.81384,76.27258,-96.25122
1768032419587,-0.9916992,-0.18017578,-0.0029296875,-5.004883,-19.836426,23.864746,0.0,0.0,0.0,-103.10669,79.10156,-89.21997
1768032419675,-0.99902344,-0.14111328,-0.0034179688,-9.70459,-6.7749023,6.652832,0.0,0.0,0.0,-103.10669,79.10156,-89.21997
1768032419687,-0.99902344,-0.14111328,-0.0034179688,-9.70459,-6.7749023,6.652832,0.0,0.0,0.0,-98.4375,80.79346,-84.226685
1768032419775,-0.99560547,-0.1694336,-0.015625,-21.911621,-16.784668,13.305664,0.0,0.0,0.0,-98.4375,80.79346,-84.226685
1768032419786,-0.99560547,-0.1694336,-0.015625,-21.911621,-16.784668,13.305664,0.0,0.0,0.0,-95.27893,81.73828,-79.45862
1768032419875,-0.9902344,-0.09472656,0.060058594,6.5307617,-33.203125,0.12207031,0.0,0.0,0.0,-95.27893,81.73828,-79.45862
1768032419886,-0.9902344,-0.09472656,0.060058594,6.5307617,-33.203125,0.12207031,0.0,0.0,0.0,-74.02588,82.32605,-57.139893
1768032419974,-0.99609375,-0.12890625,0.091796875,11.413574,-2.0751953,-7.9956055,0.0,0.0,0.0,-74.02588,82.32605,-57.139893
1768032419986,-0.99609375,-0.12890625,0.091796875,11.413574,-2.0751953,-7.9956055,0.0,0.0,0.0,-62.682495,81.18347,-46.917114
1768032420074,-0.9921875,-0.106933594,0.092285156,9.033203,16.662598,0.30517578,0.0,0.0,0.0,-62.682495,81.18347,-46.917114
1768032420086,-0.9921875,-0.106933594,0.092285156,9.033203,16.662598,0.30517578,0.0,0.0,0.0,-66.68152,81.25488,-52.668457
1768032420174,-0.9980469,-0.13867188,0.05126953,1.2207031,24.719238,-5.3710938,0.0,0.0,0.0,-66.68152,81.25488,-52.668457
1768032420185,-0.9980469,-0.13867188,0.05126953,1.2207031,24.719238,-5.3710938,0.0,0.0,0.0,-79.51355,81.66687,-67.769165
1768032420274,-0.9897461,-0.15771484,-0.008300781,-7.9345703,16.662598,0.7324219,0.0,0.0,0.0,-79.51355,81.66687,-67.769165
1768032420285,-0.9897461,-0.15771484,-0.008300781,-7.9345703,16.662598,0.7324219,0.0,0.0,0.0,-93.51013,81.414185,-82.75452
1768032420373,-0.9941406,-0.14648438,-0.005859375,1.7700195,11.291504,-2.6245117,0.0,0.0,0.0,-93.51013,81.414185,-82.75452
1768032420385,-0.9941406,-0.14648438,-0.005859375,1.7700195,11.291504,-2.6245117,0.0,0.0,0.0,-100.096436,81.09558,-90.60974
1768032420473,-1.0126953,-0.16015625,-0.032226562,-0.61035156,3.7231445,-7.6904297,0.0,0.0,0.0,-100.096436,81.09558,-90.60974
1768032420485,-1.0126953,-0.16015625,-0.032226562,-0.61035156,3.7231445,-7.6904297,0.0,0.0,0.0,-103.496704,80.49133,-94.729614
1768032420573,-0.984375,-0.13671875,-0.047851562,5.859375,5.92041,-14.404297,0.0,0.0,0.0,-103.496704,80.49133,-94.729614
1768032420584,-0.984375,-0.13671875,-0.047851562,5.859375,5.92041,-14.404297,0.0,0.0,0.0,-104.93042,79.541016,-97.03125
1768032420672,-0.98779297,-0.20800781,-0.044921875,4.8217773,0.5493164,-31.49414,0.0,0.0,0.0,-104.93042,79.541016,-97.03125
1768032420684,-0.98779297,-0.20800781,-0.044921875,4.8217773,0.5493164,-31.49414,0.0,0.0,0.0,-103.40332,77.4646,-96.05347
1768032420772,-0.9555664,-0.27441406,-0.051757812,14.770508,-0.7324219,-25.024414,0.0,0.0,0.0,-103.40332,77.4646,-96.05347
1768032420784,-0.9555664,-0.27441406,-0.051757812,14.770508,-0.7324219,-25.024414,0.0,0.0,0.0,-100.909424,74.679565,-94.15283
1768032420872,-0.97558594,-0.30859375,-0.03173828,14.404297,-5.554199,-19.714355,0.0,0.0,0.0,-100.909424,74.679565,-94.15283
1768032420884,-0.97558594,-0.30859375,-0.03173828,14.404297,-5.554199,-19.714355,0.0,0.0,0.0,-96.86096,72.84485,-91.23047
1768032420972,-0.94091797,-0.14355469,-0.03857422,43.09082,9.460449,8.972168,0.0,0.0,0.0,-96.86096,72.84485,-91.23047
1768032420983,-0.94091797,-0.14355469,-0.03857422,43.09082,9.460449,8.972168,0.0,0.0,0.0,-93.6145,71.49902,-91.14258
1768032421071,-0.89697266,-0.4189453,-0.12402344,61.21826,56.152344,18.981934,0.0,0.0,0.0,-93.6145,71.49902,-91.14258
1768032421083,-0.89697266,-0.4189453,-0.12402344,61.21826,56.152344,18.981934,0.0,0.0,0.0,-100.10742,74.53674,-102.71118
1768032421171,-0.96435547,-0.15820312,0.051757812,-25.45166,-4.760742,-15.869141,0.0,0.0,0.0,-100.10742,74.53674,-102.71118
1768032421183,-0.96435547,-0.15820312,0.051757812,-25.45166,-4.760742,-15.869141,0.0,0.0,0.0,-105.92468,70.83984,-116.916504
1768032421271,-0.9135742,-0.6669922,-0.032714844,22.094727,0.8544922,-23.010254,0.0,0.0,0.0,-105.92468,70.83984,-116.916504
1768032421282,-0.9135742,-0.6669922,-0.032714844,22.094727,0.8544922,-23.010254,0.0,0.0,0.0,-107.22107,70.3125,-116.28479
1768032421370,-0.90771484,-0.33154297,-0.07910156,5.432129,1.2817383,-9.338379,0.0,0.0,0.0,-107.22107,70.3125,-116.28479
1768032421382,-0.90771484,-0.33154297,-0.07910156,5.432129,1.2817383,-9.338379,0.0,0.0,0.0,-102.8595,68.53821,-114.4281
1768032421470,-0.9370117,-0.35742188,-0.034179688,5.6762695,6.1035156,-8.972168,0.0,0.0,0.0,-102.8595,68.53821,-114.4281
1768032421482,-0.9370117,-0.35742188,-0.034179688,5.6762695,6.1035156,-8.972168,0.0,0.0,0.0,-103.38135,67.35718,-115.49927
1768032421570,-0.9921875,-0.36669922,-0.07128906,-18.554688,-10.559082,-17.578125,0.0,0.0,0.0,-103.38135,67.35718,-115.49927
1768032421582,-0.9921875,-0.36669922,-0.07128906,-18.554688,-10.559082,-17.578125,0.0,0.0,0.0,-101.447754,66.16516,-114.58191
1768032421670,-0.8251953,-0.33007812,-0.19824219,-33.996582,-15.136719,3.90625,0.0,0.0,0.0,-101.447754,66.16516,-114.58191
1768032421681,-0.8251953,-0.33007812,-0.19824219,-33.996582,-15.136719,3.90625,0.0,0.0,0.0,-102.2113,65.93445,-111.676025
1768032421769,-0.92626953,-0.45166016,-0.05078125,-12.023926,-12.390137,4.5776367,0.0,0.0,0.0,-102.2113,65.93445,-111.676025
1768032421781,-0.92626953,-0.45166016,-0.05078125,-12.023926,-12.390137,4.5776367,0.0,0.0,0.0,-101.760864,67.06604,-109.121704
1768032421869,-0.9633789,-0.42041016,-0.11621094,-51.879883,-29.052734,24.780273,0.0,0.0,0.0,-101.760864,67.06604,-109.121704
1768032421880,-0.9633789,-0.42041016,-0.11621094,-51.879883,-29.052734,24.780273,0.0,0.0,0.0,-100.43701,68.28003,-104.28772
1768032421969,-0.9536133,-0.26367188,-0.040527344,-25.512695,-13.061523,1.0375977,0.0,0.0,0.0,-100.43701,68.28003,-104.28772
1768032421980,-0.9536133,-0.26367188,-0.040527344,-25.512695,-13.061523,1.0375977,0.0,0.0,0.0,-99.470215,69.246826,-100.755615
1768032422068,-0.9448242,-0.37646484,-0.060546875,-32.53174,-20.996094,-0.79345703,0.0,0.0,0.0,-99.470215,69.246826,-100.755615
1768032422080,-0.9448242,-0.37646484,-0.060546875,-32.53174,-20.996094,-0.79345703,0.0,0.0,0.0,-97.58057,70.043335,-96.432495
1768032422168,-0.9301758,-0.4267578,-0.015625,-1.0986328,-6.8359375,-22.033691,0.0,0.0,0.0,-97.58057,70.043335,-96.432495
1768032422180,-0.9301758,-0.4267578,-0.015625,-1.0986328,-6.8359375,-22.033691,0.0,0.0,0.0,-94.21326,68.85132,-92.0874
1768032422268,-0.9501953,-0.2084961,0.029296875,10.620117,10.986328,-4.8828125,0.0,0.0,0.0,-94.21326,68.85132,-92.0874
1768032422279,-0.9501953,-0.2084961,0.029296875,10.620117,10.986328,-4.8828125,0.0,0.0,0.0,-93.05969,67.214355,-93.32886
1768032422367,-0.89990234,-0.35302734,0.0390625,11.84082,2.0751953,9.887695,0.0,0.0,0.0,-93.05969,67.214355,-93.32886
1768032422379,-0.89990234,-0.35302734,0.0390625,11.84082,2.0751953,9.887695,0.0,0.0,0.0,-94.88342,67.37915,-96.427
1768032422467,-0.9614258,-0.3388672,-0.049316406,3.3569336,-5.3100586,12.390137,0.0,0.0,0.0,-94.88342,67.37915,-96.427
1768032422479,-0.9614258,-0.3388672,-0.049316406,3.3569336,-5.3100586,12.390137,0.0,0.0,0.0,-93.757324,68.81836,-94.823
1768032422567,-0.91259766,-0.2421875,-0.053222656,14.465332,9.765625,6.8359375,0.0,0.0,0.0,-93.757324,68.81836,-94.823
1768032422579,-0.91259766,-0.2421875,-0.053222656,14.465332,9.765625,6.8359375,0.0,0.0,0.0,-94.04297,70.08728,-94.350586
1768032422667,-0.92822266,-0.3569336,-0.03857422,-4.8217773,11.108398,5.493164,0.0,0.0,0.0,-94.04297,70.08728,-94.350586
1768032422678,-0.92822266,-0.3569336,-0.03857422,-4.8217773,11.108398,5.493164,0.0,0.0,0.0,-97.76184,70.57068,-98.201294
1768032422766,-0.96533203,-0.2607422,-0.061523438,33.691406,5.92041,13.000488,0.0,0.0,0.0,-97.76184,70.57068,-98.201294
1768032422778,-0.96533203,-0.2607422,-0.061523438,33.691406,5.92041,13.000488,0.0,0.0,0.0,-98.915405,70.98816,-100.9314
1768032422866,-0.9423828,-0.33544922,-0.0625,-28.442383,-5.859375,18.981934,0.0,0.0,0.0,-98.915405,70.98816,-100.9314
1768032422878,-0.9423828,-0.33544922,-0.0625,-28.442383,-5.859375,18.981934,0.0,0.0,0.0,-99.558105,73.03162,-100.70618
1768032422966,-0.9511719,-0.24707031,-0.09667969,8.422852,-8.850098,-15.441895,0.0,0.0,0.0,-99.558105,73.03162,-100.70618
1768032422977,-0.9511719,-0.24707031,-0.09667969,8.422852,-8.850098,-15.441895,0.0,0.0,0.0,-97.75635,73.125,-97.14661
1768032423066,-0.93310547,-0.4038086,0.03466797,-27.09961,12.268066,8.544922,0.0,0.0,0.0,-97.75635,73.125,-97.14661
1768032423078,-0.93310547,-0.4038086,0.03466797,-27.09961,12.268066,8.544922,0.0,0.0,0.0,-92.43347,72.25159,-95.130615
1768032423165,-0.96435547,-0.28955078,-0.0859375,-0.12207031,24.108887,6.164551,0.0,0.0,0.0,-92.43347,72.25159,-95.130615
1768032423177,-0.96435547,-0.28955078,-0.0859375,-0.12207031,24.108887,6.164551,0.0,0.0,0.0,-100.08545,72.004395,-102.72766
1768032423265,-0.9506836,-0.32861328,-0.044921875,-5.493164,4.4555664,6.0424805,0.0,0.0,0.0,-100.08545,72.004395,-102.72766
1768032423277,-0.9506836,-0.32861328,-0.044921875,-5.493164,4.4555664,6.0424805,0.0,0.0,0.0,-104.60632,72.333984,-107.61658
1768032423365,-0.9873047,-0.23828125,-0.099609375,13.85498,6.5307617,5.859375,0.0,0.0,0.0,-104.60632,72.333984,-107.61658
1768032423376,-0.9873047,-0.23828125,-0.099609375,13.85498,6.5307617,5.859375,0.0,0.0,0.0,-106.34216,72.84485,-110.09949
1768032423464,-0.9428711,-0.30419922,-0.08300781,3.7231445,-5.432129,-3.7231445,0.0,0.0,0.0,-106.34216,72.84485,-110.09949
1768032423476,-0.9428711,-0.30419922,-0.08300781,3.7231445,-5.432129,-3.7231445,0.0,0.0,0.0,-106.18286,72.82837,-111.90674
1768032423564,-1.0512695,-0.28515625,-0.088378906,60.97412,-20.996094,-39.18457,0.0,0.0,0.0,-106.18286,72.82837,-111.90674
1768032423576,-1.0512695,-0.28515625,-0.088378906,60.97412,-20.996094,-39.18457,0.0,0.0,0.0,-97.73987,71.41113,-105.17761
1768032423664,-0.8676758,-0.35839844,-0.020019531,17.028809,38.69629,-27.22168,0.0,0.0,0.0,-97.73987,71.41113,-105.17761
1768032423675,-0.8676758,-0.35839844,-0.020019531,17.028809,38.69629,-27.22168,0.0,0.0,0.0,-97.34436,67.368164,-109.346924
1768032423764,-0.91259766,-0.4038086,-0.052246094,-75.805664,-4.0283203,15.014648,0.0,0.0,0.0,-97.34436,67.368164,-109.346924
1768032423775,-0.91259766,-0.4038086,-0.052246094,-75.805664,-4.0283203,15.014648,0.0,0.0,0.0,-100.70068,67.3407,-109.91272
1768032423863,-0.93847656,-0.32421875,-0.08691406,-17.8833,-3.1738281,7.6293945,0.0,0.0,0.0,-100.70068,67.3407,-109.91272
1768032423875,-0.93847656,-0.32421875,-0.08691406,-17.8833,-3.1738281,7.6293945,0.0,0.0,0.0,-104.82056,68.499756,-109.63257
1768032423963,-0.93896484,-0.4868164,-0.140625,-121.45996,-34.729004,53.03955,0.0,0.0,0.0,-104.82056,68.499756,-109.63257
1768032423975,-0.93896484,-0.4868164,-0.140625,-121.45996,-34.729004,53.03955,0.0,0.0,0.0,-108.63281,71.257324,-107.006836
1768032424063,-0.98291016,-0.22021484,-0.07470703,-46.691895,-18.554688,23.376465,0.0,0.0,0.0,-108.63281,71.257324,-107.006836
1768032424074,-0.98291016,-0.22021484,-0.07470703,-46.691895,-18.554688,23.376465,0.0,0.0,0.0,-115.04883,75.79468,-105.31494
1768032424163,-0.9873047,-0.14697266,-0.10595703,-9.94873,9.58252,7.6293945,0.0,0.0,0.0,-115.04883,75.79468,-105.31494
1768032424174,-0.9873047,-0.14697266,-0.10595703,-9.94873,9.58252,7.6293945,0.0,0.0,0.0,-121.31653,77.074585,-109.6051
1768032424262,-0.9785156,-0.16308594,-0.1328125,-12.023926,8.239746,4.8828125,0.0,0.0,0.0,-121.31653,77.074585,-109.6051
1768032424274,-0.9785156,-0.16308594,-0.1328125,-12.023926,8.239746,4.8828125,0.0,0.0,0.0,-126.864624,77.091064,-114.31824
1768032424362,-0.9379883,-0.13330078,-0.16552734,-0.7324219,2.6855469,3.8452148,0.0,0.0,0.0,-126.864624,77.091064,-114.31824
1768032424374,-0.9379883,-0.13330078,-0.16552734,-0.7324219,2.6855469,3.8452148,0.0,0.0,0.0,-130.48462,77.01965,-117.663574
1768032424462,-1.003418,-0.1796875,-0.14501953,5.065918,3.479004,-13.366699,0.0,0.0,0.0,-130.48462,77.01965,-117.663574
1768032424473,-1.003418,-0.1796875,-0.14501953,5.065918,3.479004,-13.366699,0.0,0.0,0.0,-130.13855,76.87134,-117.81738
1768032424561,-0.9663086,-0.18554688,-0.13867188,-0.24414062,-7.2021484,-7.446289,0.0,0.0,0.0,-130.13855,76.87134,-117.81738
1768032424573,-0.9663086,-0.18554688,-0.13867188,-0.24414062,-7.2021484,-7.446289,0.0,0.0,0.0,-125.13428,76.00342,-113.04932
1768032424661,-0.98291016,-0.20898438,-0.11230469,1.7700195,-3.6010742,-10.559082,0.0,0.0,0.0,-125.13428,76.00342,-113.04932
1768032424673,-0.98291016,-0.20898438,-0.11230469,1.7700195,-3.6010742,-10.559082,0.0,0.0,0.0,-121.36047,75.64636,-109.18762
1768032424761,-0.9741211,-0.22949219,-0.12158203,5.065918,3.6621094,-10.192871,0.0,0.0,0.0,-121.36047,75.64636,-109.18762
1768032424772,-0.9741211,-0.22949219,-0.12158203,5.065918,3.6621094,-10.192871,0.0,0.0,0.0,-119.04785,74.88281,-107.17163
1768032424860,-0.97314453,-0.24023438,-0.140625,1.7700195,8.972168,-7.385254,0.0,0.0,0.0,-119.04785,74.88281,-107.17163
1768032424872,-0.97314453,-0.24023438,-0.140625,1.7700195,8.972168,-7.385254,0.0,0.0,0.0,-118.95996,73.99841,-107.18262
1768032424960,-0.9667969,-0.24414062,-0.1381836,-1.0375977,7.8125,2.6855469,0.0,0.0,0.0,-118.95996,73.99841,-107.18262
1768032424972,-0.9667969,-0.24414062,-0.1381836,-1.0375977,7.8125,2.6855469,0.0,0.0,0.0,-120.60242,73.498535,-108.79761
1768032425060,-0.9609375,-0.23632812,-0.1616211,-1.953125,1.5869141,7.751465,0.0,0.0,0.0,-120.60242,73.498535,-108.79761
1768032425072,-0.9609375,-0.23632812,-0.1616211,-1.953125,1.5869141,7.751465,0.0,0.0,0.0,-122.88208,73.75122,-111.049805
1768032425160,-0.9667969,-0.21191406,-0.14892578,-2.5024414,-2.5024414,8.666992,0.0,0.0,0.0,-122.88208,73.75122,-111.049805
1768032425171,-0.9667969,-0.21191406,-0.14892578,-2.5024414,-2.5024414,8.666992,0.0,0.0,0.0,-124.33777,74.47632,-112.1759
1768032425259,-0.9716797,-0.19921875,-0.15332031,5.432129,4.3945312,1.3427734,0.0,0.0,0.0,-124.33777,74.47632,-112.1759
1768032425271,-0.9716797,-0.19921875,-0.15332031,5.432129,4.3945312,1.3427734,0.0,0.0,0.0,-125.64514,74.82239,-113.53821
1768032425359,-0.9765625,-0.16748047,-0.1484375,-2.380371,-3.3569336,4.0893555,0.0,0.0,0.0,-125.64514,74.82239,-113.53821
1768032425371,-0.9765625,-0.16748047,-0.1484375,-2.380371,-3.3569336,4.0893555,0.0,0.0,0.0,-126.77673,75.355225,-114.55444
1768032425459,-0.97216797,-0.21142578,-0.15478516,0.91552734,-0.61035156,-5.859375,0.0,0.0,0.0,-126.77673,75.355225,-114.55444
1768032425471,-0.97216797,-0.21142578,-0.15478516,0.91552734,-0.61035156,-5.859375,0.0,0.0,0.0,-125.79346,75.24536,-113.48877
1768032425559,-0.97558594,-0.21044922,-0.14892578,-1.5869141,-0.12207031,2.380371,0.0,0.0,0.0,-125.79346,75.24536,-113.48877
1768032425570,-0.97558594,-0.21044922,-0.14892578,-1.5869141,-0.12207031,2.380371,0.0,0.0,0.0,-125.183716,75.06958,-112.70325
1768032425658,-0.97265625,-0.19873047,-0.15283203,-2.9907227,0.91552734,4.8217773,0.0,0.0,0.0,-125.183716,75.06958,-112.70325
1768032425670,-0.97265625,-0.19873047,-0.15283203,-2.9907227,0.91552734,4.8217773,0.0,0.0,0.0,-126.51306,75.38269,-113.84033
1768032425758,-0.9604492,-0.18652344,-0.14794922,4.333496,7.019043,-9.399414,0.0,0.0,0.0,-126.51306,75.38269,-113.84033
1768032425769,-0.9604492,-0.18652344,-0.14794922,4.333496,7.019043,-9.399414,0.0,0.0,0.0,-127.23816,75.16846,-114.57092
1768032425858,-0.9404297,-0.23535156,-0.19335938,27.404785,15.869141,-26.306152,0.0,0.0,0.0,-127.23816,75.16846,-114.57092
1768032425869,-0.9404297,-0.23535156,-0.19335938,27.404785,15.869141,-26.306152,0.0,0.0,0.0,-125.16174,73.14697,-113.8678
1768032425957,-0.93066406,-0.2788086,-0.21044922,26.245117,9.216309,-11.352539,0.0,0.0,0.0,-125.16174,73.14697,-113.8678
1768032425969,-0.93066406,-0.2788086,-0.21044922,26.245117,9.216309,-11.352539,0.0,0.0,0.0,-121.70654,69.906006,-112.31323
1768032426057,-0.9428711,-0.28759766,-0.17480469,-6.713867,-2.6855469,8.117676,0.0,0.0,0.0,-121.70654,69.906006,-112.31323
1768032426069,-0.9428711,-0.28759766,-0.17480469,-6.713867,-2.6855469,8.117676,0.0,0.0,0.0,-122.09656,70.598145,-112.4176
1768032426157,-0.9477539,-0.2553711,-0.1694336,-4.0893555,-4.8828125,4.0893555,0.0,0.0,0.0,-122.09656,70.598145,-112.4176
1768032426168,-0.9477539,-0.2553711,-0.1694336,-4.0893555,-4.8828125,4.0893555,0.0,0.0,0.0,-121.9812,71.224365,-111.80786
1768032426256,-0.95703125,-0.26367188,-0.1586914,-0.8544922,2.4414062,-2.6855469,0.0,0.0,0.0,-121.9812,71.224365,-111.80786
1768032426268,-0.95703125,-0.26367188,-0.1586914,-0.8544922,2.4414062,-2.6855469,0.0,0.0,0.0,-122.211914,71.32324,-111.450806
1768032426356,-0.96972656,-0.2861328,-0.17138672,28.808594,2.380371,-12.390137,0.0,0.0,0.0,-122.211914,71.32324,-111.450806
1768032426368,-0.96972656,-0.2861328,-0.17138672,28.808594,2.380371,-12.390137,0.0,0.0,0.0,-120.476074,70.548706,-110.84656
1768032426456,-1.0478516,-0.3076172,-0.1850586,23.19336,1.0375977,-8.117676,0.0,0.0,0.0,-120.476074,70.548706,-110.84656
1768032426467,-1.0478516,-0.3076172,-0.1850586,23.19336,1.0375977,-8.117676,0.0,0.0,0.0,-120.6134,69.86755,-111.68152
1768032426556,-0.92333984,-0.2763672,-0.14550781,-1.8310547,-39.0625,-14.282227,0.0,0.0,0.0,-120.6134,69.86755,-111.68152
1768032426567,-0.92333984,-0.2763672,-0.14550781,-1.8310547,-39.0625,-14.282227,0.0,0.0,0.0,-113.065796,69.971924,-104.80408
1768032426660,-0.93896484,-0.29003906,-0.08105469,23.010254,-18.859863,-4.4555664,0.0,0.0,0.0,-113.065796,69.971924,-104.80408
1768032426667,-0.93896484,-0.29003906,-0.08105469,23.010254,-18.859863,-4.4555664,0.0,0.0,0.0,-102.49695,70.010376,-95.69092
1768032426755,-0.95996094,-0.38720703,-0.021484375,5.2490234,-15.258789,-4.8828125,0.0,0.0,0.0,-102.49695,70.010376,-95.69092
1768032426767,-0.95996094,-0.38720703,-0.021484375,5.2490234,-15.258789,-4.8828125,0.0,0.0,0.0,-99.8822,70.45532,-92.90588
1768032426855,-0.9379883,-0.40185547,-0.0859375,-20.324707,-40.222168,-8.544922,0.0,0.0,0.0,-99.8822,70.45532,-92.90588
1768032426866,-0.9379883,-0.40185547,-0.0859375,-20.324707,-40.222168,-8.544922,0.0,0.0,0.0,-90.32959,70.3949,-81.27136
1768032426955,-0.9189453,-0.27148438,0.091796875,10.864258,-21.30127,-9.521484,0.0,0.0,0.0,-90.32959,70.3949,-81.27136
1768032426966,-0.9189453,-0.27148438,0.091796875,10.864258,-21.30127,-9.521484,0.0,0.0,0.0,-83.012695,68.829346,-73.19641
1768032427054,-0.92871094,-0.31835938,0.076660156,1.2817383,-3.6621094,-9.033203,0.0,0.0,0.0,-83.012695,68.829346,-73.19641
1768032427066,-0.92871094,-0.31835938,0.076660156,1.2817383,-3.6621094,-9.033203,0.0,0.0,0.0,-78.86536,67.91748,-69.70276
1768032427154,-0.91064453,-0.35986328,0.10205078,6.652832,23.986816,-9.521484,0.0,0.0,0.0,-78.86536,67.91748,-69.70276
1768032427165,-0.91064453,-0.35986328,0.10205078,6.652832,23.986816,-9.521484,0.0,0.0,0.0,-81.70532,67.28577,-73.097534
1768032427254,-0.90722656,-0.40478516,0.083496094,-1.5869141,22.766113,1.3427734,0.0,0.0,0.0,-81.70532,67.28577,-73.097534
1768032427266,-0.90722656,-0.40478516,0.083496094,-1.5869141,22.766113,1.3427734,0.0,0.0,0.0,-87.06116,67.099,-79.80469
1768032427353,-0.8901367,-0.36914062,-0.005859375,-4.760742,11.230469,-4.0283203,0.0,0.0,0.0,-87.06116,67.099,-79.80469
1768032427365,-0.8901367,-0.36914062,-0.005859375,-4.760742,11.230469,-4.0283203,0.0,0.0,0.0,-90.34607,66.30249,-83.77075
1768032427453,-0.97558594,-0.38720703,-0.05859375,9.58252,-1.7700195,-7.385254,0.0,0.0,0.0,-90.34607,66.30249,-83.77075
1768032427465,-0.97558594,-0.38720703,-0.05859375,9.58252,-1.7700195,-7.385254,0.0,0.0,0.0,-90.88989,65.95093,-84.32007
1768032427553,-0.9091797,-0.43066406,-9.765625E-4,8.728027,29.47998,0.7324219,0.0,0.0,0.0,-90.88989,65.95093,-84.32007
1768032427564,-0.9091797,-0.43066406,-9.765625E-4,8.728027,29.47998,0.7324219,0.0,0.0,0.0,-93.88367,65.703735,-88.42346
1768032427653,-0.8671875,-0.4140625,-0.061523438,-11.291504,7.3242188,2.1362305,0.0,0.0,0.0,-93.88367,65.703735,-88.42346
1768032427664,-0.8671875,-0.4140625,-0.061523438,-11.291504,7.3242188,2.1362305,0.0,0.0,0.0,-97.73987,65.91797,-91.94458
1768032427752,-0.88378906,-0.44335938,-0.018066406,-12.084961,16.052246,3.4179688,0.0,0.0,0.0,-97.73987,65.91797,-91.94458
1768032427764,-0.88378906,-0.44335938,-0.018066406,-12.084961,16.052246,3.4179688,0.0,0.0,0.0,-102.09595,66.35742,-95.66345
1768032427852,-0.89404297,-0.38232422,-0.1328125,-2.1362305,23.620605,-5.2490234,0.0,0.0,0.0,-102.09595,66.35742,-95.66345
1768032427863,-0.89404297,-0.38232422,-0.1328125,-2.1362305,23.620605,-5.2490234,0.0,0.0,0.0,-106.13342,65.56641,-100.26123
1768032427952,-0.95166016,-0.41015625,-0.18603516,-1.2817383,46.38672,-6.3476562,0.0,0.0,0.0,-106.13342,65.56641,-100.26123
1768032427963,-0.95166016,-0.41015625,-0.18603516,-1.2817383,46.38672,-6.3476562,0.0,0.0,0.0,-112.73071,63.951416,-108.078
1768032428051,-0.9892578,-0.39013672,-0.26171875,-0.8544922,70.495605,-14.465332,0.0,0.0,0.0,-112.73071,63.951416,-108.078
1768032428063,-0.9892578,-0.39013672,-0.26171875,-0.8544922,70.495605,-14.465332,0.0,0.0,0.0,-121.52527,60.100708,-118.37219
1768032428151,-0.8334961,-0.42919922,-0.36572266,3.112793,55.908203,-10.131836,0.0,0.0,0.0,-121.52527,60.100708,-118.37219
1768032428163,-0.8334961,-0.42919922,-0.36572266,3.112793,55.908203,-10.131836,0.0,0.0,0.0,-127.666626,55.288696,-126.364746
1768032428251,-0.7709961,-0.5131836,-0.46191406,-9.094238,43.762207,-14.6484375,0.0,0.0,0.0,-127.666626,55.288696,-126.364746
1768032428262,-0.7709961,-0.5131836,-0.46191406,-9.094238,43.762207,-14.6484375,0.0,0.0,0.0,-131.88538,51.38855,-130.94055
1768032428351,-0.72216797,-0.48095703,-0.5283203,-12.451172,18.066406,-14.587402,0.0,0.0,0.0,-131.88538,51.38855,-130.94055
1768032428362,-0.72216797,-0.48095703,-0.5283203,-12.451172,18.066406,-14.587402,0.0,0.0,0.0,-134.48914,48.57605,-133.26965
1768032428450,-0.70214844,-0.4819336,-0.50878906,-5.554199,9.643555,-9.765625,0.0,0.0,0.0,-134.48914,48.57605,-133.26965
1768032428462,-0.70214844,-0.4819336,-0.50878906,-5.554199,9.643555,-9.765625,0.0,0.0,0.0,-135.31311,46.708374,-133.89587
1768032428550,-0.70947266,-0.48876953,-0.50439453,29.35791,5.065918,-17.700195,0.0,0.0,0.0,-135.31311,46.708374,-133.89587
1768032428562,-0.70947266,-0.48876953,-0.50439453,29.35791,5.065918,-17.700195,0.0,0.0,0.0,-133.46191,45.03296,-133.42346
1768032428650,-0.6821289,-0.50878906,-0.5004883,-2.8076172,-6.713867,-6.4697266,0.0,0.0,0.0,-133.46191,45.03296,-133.42346
1768032428661,-0.6821289,-0.50878906,-0.5004883,-2.8076172,-6.713867,-6.4697266,0.0,0.0,0.0,-132.3523,44.730835,-132.57202
1768032428749,-0.7553711,-0.65234375,-0.62158203,-32.287598,-5.126953,0.24414062,0.0,0.0,0.0,-132.3523,44.730835,-132.57202
1768032428761,-0.7553711,-0.65234375,-0.62158203,-32.287598,-5.126953,0.24414062,0.0,0.0,0.0,-133.62671,45.164795,-132.1051
1768032428849,-0.6982422,-0.52441406,-0.53222656,-11.413574,-11.535645,8.544922,0.0,0.0,0.0,-133.62671,45.164795,-132.1051
1768032428861,-0.6982422,-0.52441406,-0.53222656,-11.413574,-11.535645,8.544922,0.0,0.0,0.0,-135.38452,45.549316,-131.85242
1768032428949,-0.73583984,-0.47851562,-0.5024414,-11.108398,-8.7890625,4.5166016,0.0,0.0,0.0,-135.38452,45.549316,-131.85242
1768032428960,-0.73583984,-0.47851562,-0.5024414,-11.108398,-8.7890625,4.5166016,0.0,0.0,0.0,-135.95032,46.483154,-131.33057
1768032429049,-0.71191406,-0.49267578,-0.5029297,9.58252,-1.4648438,-8.972168,0.0,0.0,0.0,-135.95032,46.483154,-131.33057
1768032429060,-0.71191406,-0.49267578,-0.5029297,9.58252,-1.4648438,-8.972168,0.0,0.0,0.0,-135.1593,46.625977,-130.73181
1768032429148,-0.7260742,-0.5102539,-0.49902344,3.479004,2.0141602,-1.6479492,0.0,0.0,0.0,-135.1593,46.625977,-130.73181
1768032429160,-0.7260742,-0.5102539,-0.49902344,3.479004,2.0141602,-1.6479492,0.0,0.0,0.0,-134.1925,46.19751,-130.40222
1768032429248,-0.7158203,-0.49414062,-0.4873047,-1.5258789,0.8544922,-0.91552734,0.0,0.0,0.0,-134.1925,46.19751,-130.40222
1768032429259,-0.7158203,-0.49414062,-0.4873047,-1.5258789,0.8544922,-0.91552734,0.0,0.0,0.0,-134.05518,46.0437,-130.64392
1768032429348,-0.7211914,-0.47802734,-0.49902344,7.751465,2.9296875,-2.4414062,0.0,0.0,0.0,-134.05518,46.0437,-130.64392
1768032429359,-0.7211914,-0.47802734,-0.49902344,7.751465,2.9296875,-2.4414062,0.0,0.0,0.0,-133.8739,45.71411,-130.60547
1768032429448,-0.70996094,-0.4794922,-0.5131836,0.7324219,0.36621094,-0.7324219,0.0,0.0,0.0,-133.8739,45.71411,-130.60547
1768032429459,-0.70996094,-0.4794922,-0.5131836,0.7324219,0.36621094,-0.7324219,0.0,0.0,0.0,-133.40149,45.411987,-130.64392
1768032429548,-0.70410156,-0.51708984,-0.49169922,9.094238,1.4038086,0.30517578,0.0,0.0,0.0,-133.40149,45.411987,-130.64392
1768032429559,-0.70410156,-0.51708984,-0.49169922,9.094238,1.4038086,0.30517578,0.0,0.0,0.0,-133.16528,45.335083,-130.91858
1768032429647,-0.71191406,-0.52783203,-0.48779297,2.0141602,-0.8544922,1.8310547,0.0,0.0,0.0,-133.16528,45.335083,-130.91858
1768032429658,-0.71191406,-0.52783203,-0.48779297,2.0141602,-0.8544922,1.8310547,0.0,0.0,0.0,-132.59949,45.351562,-131.1383
1768032429747,-0.7163086,-0.50927734,-0.4970703,-0.61035156,-1.7089844,2.0751953,0.0,0.0,0.0,-132.59949,45.351562,-131.1383
1768032429758,-0.7163086,-0.50927734,-0.4970703,-0.61035156,-1.7089844,2.0751953,0.0,0.0,0.0,-132.6654,45.55481,-131.35254
1768032429846,-0.71533203,-0.50927734,-0.49121094,-0.061035156,-0.061035156,1.3427734,0.0,0.0,0.0,-132.6654,45.55481,-131.35254
1768032429858,-0.71533203,-0.50927734,-0.49121094,-0.061035156,-0.061035156,1.3427734,0.0,0.0,0.0,-132.95654,45.69763,-131.63818
1768032429946,-0.71728516,-0.5073242,-0.48242188,-3.2348633,-0.9765625,1.2207031,0.0,0.0,0.0,-132.95654,45.69763,-131.63818
1768032429958,-0.71728516,-0.5073242,-0.48242188,-3.2348633,-0.9765625,1.2207031,0.0,0.0,0.0,-133.20923,45.758057,-131.85791
1768032430046,-0.7207031,-0.50341797,-0.50097656,-1.5258789,-2.8686523,-1.2207031,0.0,0.0,0.0,-133.20923,45.758057,-131.85791
1768032430058,-0.7207031,-0.50341797,-0.50097656,-1.5258789,-2.8686523,-1.2207031,0.0,0.0,0.0,-133.4674,45.862427,-131.77002
1768032430145,-0.7138672,-0.50097656,-0.50634766,-1.3427734,-2.1362305,0.0,0.0,0.0,0.0,-133.4674,45.862427,-131.77002
1768032430157,-0.7138672,-0.50097656,-0.50634766,-1.3427734,-2.1362305,0.0,0.0,0.0,0.0,-133.50586,45.911865,-131.6272
1768032430245,-0.7207031,-0.49609375,-0.48535156,-2.1972656,-4.1503906,0.36621094,0.0,0.0,0.0,-133.50586,45.911865,-131.6272
1768032430257,-0.7207031,-0.49609375,-0.48535156,-2.1972656,-4.1503906,0.36621094,0.0,0.0,0.0,-133.53882,46.087646,-131.44592
1768032430345,-0.72802734,-0.48876953,-0.48095703,-4.760742,-5.3710938,2.2583008,0.0,0.0,0.0,-133.53882,46.087646,-131.44592
1768032430356,-0.72802734,-0.48876953,-0.48095703,-4.760742,-5.3710938,2.2583008,0.0,0.0,0.0,-133.68164,46.46118,-131.19873
1768032430445,-0.7270508,-0.4897461,-0.48828125,-0.7324219,-2.4414062,3.2348633,0.0,0.0,0.0,-133.68164,46.46118,-131.19873
1768032430456,-0.7270508,-0.4897461,-0.48828125,-0.7324219,-2.4414062,3.2348633,0.0,0.0,0.0,-134.06067,46.906128,-131.18225
1768032430544,-0.7314453,-0.4663086,-0.4897461,-0.79345703,-4.3945312,4.1503906,0.0,0.0,0.0,-134.06067,46.906128,-131.18225
1768032430556,-0.7314453,-0.4663086,-0.4897461,-0.79345703,-4.3945312,4.1503906,0.0,0.0,0.0,-134.12659,47.340088,-131.16028
1768032430644,-0.74658203,-0.46533203,-0.46826172,-1.5258789,-3.479004,4.5166016,0.0,0.0,0.0,-134.12659,47.340088,-131.16028
1768032430656,-0.74658203,-0.46533203,-0.46826172,-1.5258789,-3.479004,4.5166016,0.0,0.0,0.0,-134.42871,47.94983,-131.36353
1768032430744,-0.7470703,-0.46142578,-0.46875,-1.2207031,-4.272461,2.6855469,0.0,0.0,0.0,-134.42871,47.94983,-131.36353
1768032430755,-0.7470703,-0.46142578,-0.46875,-1.2207031,-4.272461,2.6855469,0.0,0.0,0.0,-134.54956,48.449707,-131.33057
1768032430843,-0.7504883,-0.4638672,-0.47070312,5.6762695,-1.3427734,-0.91552734,0.0,0.0,0.0,-134.54956,48.449707,-131.33057
1768032430855,-0.7504883,-0.4638672,-0.47070312,5.6762695,-1.3427734,-0.91552734,0.0,0.0,0.0,-134.0387,48.57605,-131.09985
1768032430943,-0.7558594,-0.47509766,-0.4609375,3.2958984,0.4272461,-3.479004,0.0,0.0,0.0,-134.0387,48.57605,-131.09985
1768032430955,-0.7558594,-0.47509766,-0.4609375,3.2958984,0.4272461,-3.479004,0.0,0.0,0.0,-133.35205,48.40027,-130.77576
1768032431043,-0.7451172,-0.4819336,-0.46142578,3.540039,3.6621094,-3.2348633,0.0,0.0,0.0,-133.35205,48.40027,-130.77576
1768032431054,-0.7451172,-0.4819336,-0.46142578,3.540039,3.6621094,-3.2348633,0.0,0.0,0.0,-132.9895,47.977295,-130.75378
1768032431143,-0.74072266,-0.4873047,-0.4663086,2.0751953,3.112793,-1.953125,0.0,0.0,0.0,-132.9895,47.977295,-130.75378
1768032431154,-0.74072266,-0.4873047,-0.4663086,2.0751953,3.112793,-1.953125,0.0,0.0,0.0,-132.86865,47.565308,-130.91309
1768032431242,-0.73583984,-0.49560547,-0.46972656,0.7324219,0.7324219,0.0,0.0,0.0,0.0,-132.86865,47.565308,-130.91309
1768032431254,-0.73583984,-0.49560547,-0.46972656,0.7324219,0.7324219,0.0,0.0,0.0,0.0,-132.94006,47.384033,-131.1383
1768032431342,-0.73876953,-0.48632812,-0.46972656,0.6713867,0.30517578,0.24414062,0.0,0.0,0.0,-132.94006,47.384033,-131.1383
1768032431354,-0.73876953,-0.48632812,-0.46972656,0.6713867,0.30517578,0.24414062,0.0,0.0,0.0,-133.00049,47.36206,-131.24817
1768032431442,-0.7373047,-0.49658203,-0.47216797,0.7324219,-0.4272461,1.2207031,0.0,0.0,0.0,-133.00049,47.36206,-131.24817
1768032431453,-0.7373047,-0.49658203,-0.47216797,0.7324219,-0.4272461,1.2207031,0.0,0.0,0.0,-132.97302,47.384033,-131.3855
1768032431541,-0.7314453,-0.49365234,-0.4663086,-0.4272461,-1.6479492,-0.36621094,0.0,0.0,0.0,-132.97302,47.384033,-131.3855
1768032431553,-0.7314453,-0.49365234,-0.4663086,-0.4272461,-1.6479492,-0.36621094,0.0,0.0,0.0,-132.92358,47.46643,-131.33057
1768032431641,-0.7294922,-0.48583984,-0.46289062,5.92041,-2.1972656,-2.380371,0.0,0.0,0.0,-132.92358,47.46643,-131.33057
1768032431653,-0.7294922,-0.48583984,-0.46289062,5.92041,-2.1972656,-2.380371,0.0,0.0,0.0,-132.44019,47.477417,-130.98999
1768032431741,-0.7441406,-0.5029297,-0.44384766,-1.4648438,-3.0517578,-2.0141602,0.0,0.0,0.0,-132.44019,47.477417,-130.98999
1768032431753,-0.7441406,-0.5029297,-0.44384766,-1.4648438,-3.0517578,-2.0141602,0.0,0.0,0.0,-131.9403,47.510376,-130.51208
1768032431841,-0.73876953,-0.4921875,-0.45703125,0.79345703,0.79345703,-0.9765625,0.0,0.0,0.0,-131.9403,47.510376,-130.51208
1768032431852,-0.73876953,-0.4921875,-0.45703125,0.79345703,0.79345703,-0.9765625,0.0,0.0,0.0,-131.77002,47.444458,-130.28137
1768032431940,-0.74072266,-0.5024414,-0.44677734,0.0,0.5493164,0.8544922,0.0,0.0,0.0,-131.77002,47.444458,-130.28137
1768032431952,-0.74072266,-0.5024414,-0.44677734,0.0,0.5493164,0.8544922,0.0,0.0,0.0,-131.80847,47.334595,-130.42969
1768032432040,-0.7348633,-0.49853516,-0.4560547,2.1362305,0.7324219,-0.8544922,0.0,0.0,0.0,-131.80847,47.334595,-130.42969
1768032432052,-0.7348633,-0.49853516,-0.4560547,2.1362305,0.7324219,-0.8544922,0.0,0.0,0.0,-131.7865,47.301636,-130.49011
1768032432140,-0.73828125,-0.5058594,-0.45214844,1.7089844,-0.24414062,-0.8544922,0.0,0.0,0.0,-131.7865,47.301636,-130.49011
1768032432151,-0.73828125,-0.5058594,-0.45214844,1.7089844,-0.24414062,-0.8544922,0.0,0.0,0.0,-131.47888,47.20276,-130.43518
1768032432240,-0.73828125,-0.50439453,-0.4501953,1.2817383,-1.0986328,-0.91552734,0.0,0.0,0.0,-131.47888,47.20276,-130.43518
1768032432251,-0.73828125,-0.50439453,-0.4501953,1.2817383,-1.0986328,-0.91552734,0.0,0.0,0.0,-131.2207,47.197266,-130.30334
1768032432340,-0.7402344,-0.51123047,-0.44726562,-0.30517578,0.30517578,-1.5869141,0.0,0.0,0.0,-131.2207,47.197266,-130.30334
1768032432351,-0.7402344,-0.51123047,-0.44726562,-0.30517578,0.30517578,-1.5869141,0.0,0.0,0.0,-131.00098,47.13684,-130.16602
1768032432439,-0.7348633,-0.50878906,-0.45263672,0.7324219,0.18310547,-2.319336,0.0,0.0,0.0,-131.00098,47.13684,-130.16602
1768032432450,-0.7348633,-0.50878906,-0.45263672,0.7324219,0.18310547,-2.319336,0.0,0.0,0.0,-130.79224,46.99951,-129.98474
1768032432539,-0.73339844,-0.5161133,-0.4428711,1.6479492,0.61035156,-2.746582,0.0,0.0,0.0,-130.79224,46.99951,-129.98474
1768032432550,-0.73339844,-0.5161133,-0.4428711,1.6479492,0.61035156,-2.746582,0.0,0.0,0.0,-130.47363,46.7688,-129.776
1768032432638,-0.7265625,-0.5229492,-0.4506836,0.061035156,1.2207031,-1.4648438,0.0,0.0,0.0,-130.47363,46.7688,-129.776
1768032432650,-0.7265625,-0.5229492,-0.4506836,0.061035156,1.2207031,-1.4648438,0.0,0.0,0.0,-130.28687,46.56006,-129.6991
1768032432738,-0.7294922,-0.52441406,-0.4501953,-1.953125,2.1362305,0.30517578,0.0,0.0,0.0,-130.28687,46.56006,-129.6991
1768032432749,-0.7294922,-0.52441406,-0.4501953,-1.953125,2.1362305,0.30517578,0.0,0.0,0.0,-130.44617,46.40625,-129.86938
1768032432838,-0.7246094,-0.51953125,-0.45458984,-1.159668,1.4038086,0.30517578,0.0,0.0,0.0,-130.44617,46.40625,-129.86938
1768032432849,-0.7246094,-0.51953125,-0.45458984,-1.159668,1.4038086,0.30517578,0.0,0.0,0.0,-130.63843,46.312866,-130.05615
1768032432937,-0.7236328,-0.52246094,-0.4555664,-0.18310547,0.91552734,0.36621094,0.0,0.0,0.0,-130.63843,46.312866,-130.05615
1768032432949,-0.7236328,-0.52246094,-0.4555664,-0.18310547,0.91552734,0.36621094,0.0,0.0,0.0,-130.75378,46.235962,-130.21545
1768032433037,-0.72558594,-0.52001953,-0.45898438,-0.18310547,0.30517578,1.0986328,0.0,0.0,0.0,-130.75378,46.235962,-130.21545
1768032433049,-0.72558594,-0.52001953,-0.45898438,-0.18310547,0.30517578,1.0986328,0.0,0.0,0.0,-130.84167,46.241455,-130.36377
1768032433137,-0.71972656,-0.515625,-0.45166016,-0.9765625,-0.36621094,1.4648438,0.0,0.0,0.0,-130.84167,46.241455,-130.36377
1768032433149,-0.71972656,-0.515625,-0.45166016,-0.9765625,-0.36621094,1.4648438,0.0,0.0,0.0,-131.05042,46.2854,-130.52856
1768032433237,-0.7260742,-0.5136719,-0.46191406,-1.7700195,-1.0986328,0.7324219,0.0,0.0,0.0,-131.05042,46.2854,-130.52856
1768032433248,-0.7260742,-0.5136719,-0.46191406,-1.7700195,-1.0986328,0.7324219,0.0,0.0,0.0,-131.23169,46.384277,-130.52856
1768032433337,-0.7294922,-0.5131836,-0.45410156,-0.7324219,0.24414062,0.0,0.0,0.0,0.0,-131.23169,46.384277,-130.52856
1768032433348,-0.7294922,-0.5131836,-0.45410156,-0.7324219,0.24414062,0.0,0.0,0.0,0.0,-131.2976,46.428223,-130.51208
1768032433436,-0.7285156,-0.50439453,-0.46191406,-0.8544922,0.5493164,0.061035156,0.0,0.0,0.0,-131.2976,46.428223,-130.51208
1768032433448,-0.7285156,-0.50439453,-0.46191406,-0.8544922,0.5493164,0.061035156,0.0,0.0,0.0,-131.42944,46.40625,-130.5835
1768032433536,-0.734375,-0.51660156,-0.46875,-0.12207031,1.4038086,-0.30517578,0.0,0.0,0.0,-131.42944,46.40625,-130.5835
1768032433547,-0.734375,-0.51660156,-0.46875,-0.12207031,1.4038086,-0.30517578,0.0,0.0,0.0,-131.55579,46.367798,-130.67688
1768032433636,-0.7158203,-0.51708984,-0.4584961,2.1362305,-0.30517578,-3.6010742,0.0,0.0,0.0,-131.55579,46.367798,-130.67688
1768032433647,-0.7158203,-0.51708984,-0.4584961,2.1362305,-0.30517578,-3.6010742,0.0,0.0,0.0,-131.33057,46.1261,-130.6604
1768032433735,-0.72265625,-0.5239258,-0.45654297,2.8686523,-0.36621094,-4.272461,0.0,0.0,0.0,-131.33057,46.1261,-130.6604
1768032433747,-0.72265625,-0.5239258,-0.45654297,2.8686523,-0.36621094,-4.272461,0.0,0.0,0.0,-130.8197,45.840454,-130.23193
1768032433835,-0.7163086,-0.53759766,-0.4633789,4.5776367,0.79345703,-5.126953,0.0,0.0,0.0,-130.8197,45.840454,-130.23193
1768032433846,-0.7163086,-0.53759766,-0.4633789,4.5776367,0.79345703,-5.126953,0.0,0.0,0.0,-130.20447,45.4834,-129.81995
1768032433935,-0.7084961,-0.5390625,-0.45703125,5.92041,1.5258789,-5.859375,0.0,0.0,0.0,-130.20447,45.4834,-129.81995
1768032433946,-0.7084961,-0.5390625,-0.45703125,5.92041,1.5258789,-5.859375,0.0,0.0,0.0,-129.54529,45.010986,-129.48486
1768032434034,-0.7080078,-0.5546875,-0.46044922,5.554199,1.7089844,-4.5776367,0.0,0.0,0.0,-129.54529,45.010986,-129.48486
1768032434046,-0.7080078,-0.5546875,-0.46044922,5.554199,1.7089844,-4.5776367,0.0,0.0,0.0,-128.83667,44.44519,-129.25964
1768032434134,-0.6948242,-0.5678711,-0.44140625,9.155273,1.7700195,-6.0424805,0.0,0.0,0.0,-128.83667,44.44519,-129.25964
1768032434146,-0.6948242,-0.5678711,-0.44140625,9.155273,1.7700195,-6.0424805,0.0,0.0,0.0,-128.06213,43.983765,-129.03992
1768032434234,-0.6694336,-0.60058594,-0.43945312,9.094238,-1.5869141,-6.591797,0.0,0.0,0.0,-128.06213,43.983765,-129.03992
1768032434246,-0.6694336,-0.60058594,-0.43945312,9.094238,-1.5869141,-6.591797,0.0,0.0,0.0,-126.70532,43.43445,-128.4851
1768032434333,-0.6821289,-0.5932617,-0.4272461,-3.90625,-5.126953,3.479004,0.0,0.0,0.0,-126.70532,43.43445,-128.4851
1768032434345,-0.6821289,-0.5932617,-0.4272461,-3.90625,-5.126953,3.479004,0.0,0.0,0.0,-125.98572,43.467407,-127.91931
1768032434433,-0.7133789,-0.56347656,-0.42089844,2.6245117,-0.061035156,3.540039,0.0,0.0,0.0,-125.98572,43.467407,-127.91931
1768032434445,-0.7133789,-0.56347656,-0.42089844,2.6245117,-0.061035156,3.540039,0.0,0.0,0.0,-126.051636,43.840942,-127.97424
1768032434533,-0.70166016,-0.5761719,-0.42773438,1.953125,0.48828125,-2.746582,0.0,0.0,0.0,-126.051636,43.840942,-127.97424
1768032434545,-0.70166016,-0.5761719,-0.42773438,1.953125,0.48828125,-2.746582,0.0,0.0,0.0,-125.82092,43.824463,-127.88086
1768032434633,-0.68310547,-0.5996094,-0.42529297,2.319336,1.159668,-5.2490234,0.0,0.0,0.0,-125.82092,43.824463,-127.88086
1768032434644,-0.68310547,-0.5996094,-0.42529297,2.319336,1.159668,-5.2490234,0.0,0.0,0.0,-125.31006,43.346558,-127.595215
1768032434732,-0.6850586,-0.6010742,-0.4169922,6.8359375,2.380371,-2.5634766,0.0,0.0,0.0,-125.31006,43.346558,-127.595215
1768032434744,-0.6850586,-0.6010742,-0.4169922,6.8359375,2.380371,-2.5634766,0.0,0.0,0.0,-124.799194,42.956543,-127.55127
1768032434832,-0.6713867,-0.60253906,-0.3984375,0.24414062,0.9765625,-0.36621094,0.0,0.0,0.0,-124.799194,42.956543,-127.55127
1768032434844,-0.6713867,-0.60253906,-0.3984375,0.24414062,0.9765625,-0.36621094,0.0,0.0,0.0,-124.38721,42.69287,-127.72705
1768032434932,-0.6689453,-0.60595703,-0.421875,0.0,0.5493164,-0.24414062,0.0,0.0,0.0,-124.38721,42.69287,-127.72705
1768032434943,-0.6689453,-0.60595703,-0.421875,0.0,0.5493164,-0.24414062,0.0,0.0,0.0,-124.35974,42.648926,-127.84241
1768032435032,-0.67871094,-0.6171875,-0.41748047,0.0,-1.3427734,-1.4038086,0.0,0.0,0.0,-124.35974,42.648926,-127.84241
1768032435043,-0.67871094,-0.6171875,-0.41748047,0.0,-1.3427734,-1.4038086,0.0,0.0,0.0,-124.35974,42.599487,-127.716064
1768032435131,-0.67871094,-0.6064453,-0.4194336,1.0375977,-1.2207031,-1.7700195,0.0,0.0,0.0,-124.35974,42.599487,-127.716064
1768032435143,-0.67871094,-0.6064453,-0.4194336,1.0375977,-1.2207031,-1.7700195,0.0,0.0,0.0,-124.14551,42.57202,-127.42493
1768032435231,-0.6821289,-0.61035156,-0.41308594,0.30517578,0.9765625,-2.319336,0.0,0.0,0.0,-124.14551,42.57202,-127.42493
1768032435242,-0.6821289,-0.61035156,-0.41308594,0.30517578,0.9765625,-2.319336,0.0,0.0,0.0,-123.97522,42.374268,-127.27661
1768032435331,-0.6738281,-0.609375,-0.42773438,-2.8076172,2.4414062,-0.91552734,0.0,0.0,0.0,-123.97522,42.374268,-127.27661
1768032435342,-0.6738281,-0.609375,-0.42773438,-2.8076172,2.4414062,-0.91552734,0.0,0.0,0.0,-124.24988,42.11609,-127.34253
1768032435430,-0.6699219,-0.6171875,-0.42529297,-1.7700195,3.3569336,-1.3427734,0.0,0.0,0.0,-124.24988,42.11609,-127.34253
1768032435442,-0.6699219,-0.6171875,-0.42529297,-1.7700195,3.3569336,-1.3427734,0.0,0.0,0.0,-124.63989,41.852417,-127.578735
1768032435530,-0.66259766,-0.6123047,-0.43066406,0.4272461,1.2207031,-0.91552734,0.0,0.0,0.0,-124.63989,41.852417,-127.578735
1768032435542,-0.66259766,-0.6123047,-0.43066406,0.4272461,1.2207031,-0.91552734,0.0,0.0,0.0,-124.63989,41.59973,-127.70508
1768032435630,-0.66552734,-0.609375,-0.4326172,-1.7089844,2.1362305,-0.48828125,0.0,0.0,0.0,-124.63989,41.59973,-127.70508
1768032435641,-0.66552734,-0.609375,-0.4326172,-1.7089844,2.1362305,-0.48828125,0.0,0.0,0.0,-124.799194,41.47888,-127.82593
1768032435730,-0.6513672,-0.6118164,-0.43554688,-2.2583008,2.0141602,-0.61035156,0.0,0.0,0.0,-124.799194,41.47888,-127.82593
1768032435741,-0.6513672,-0.6118164,-0.43554688,-2.2583008,2.0141602,-0.61035156,0.0,0.0,0.0,-125.15625,41.259155,-128.02917
1768032435829,-0.6582031,-0.6098633,-0.43359375,-6.8359375,-4.272461,1.3427734,0.0,0.0,0.0,-125.15625,41.259155,-128.02917
1768032435841,-0.6582031,-0.6098633,-0.43359375,-6.8359375,-4.272461,1.3427734,0.0,0.0,0.0,-125.5188,41.341553,-127.84241
1768032435929,-0.67578125,-0.5986328,-0.4321289,1.0986328,-4.760742,0.91552734,0.0,0.0,0.0,-125.5188,41.341553,-127.84241
1768032435941,-0.67578125,-0.5986328,-0.4321289,1.0986328,-4.760742,0.91552734,0.0,0.0,0.0,-125.49133,41.69861,-127.48535
1768032436029,-0.68847656,-0.60253906,-0.4267578,-2.9296875,-9.521484,4.272461,0.0,0.0,0.0,-125.49133,41.69861,-127.48535
1768032436040,-0.68847656,-0.60253906,-0.4267578,-2.9296875,-9.521484,4.272461,0.0,0.0,0.0,-124.81018,42.17102,-126.864624
1768032436128,-0.6777344,-0.60546875,-0.42871094,-6.652832,-13.73291,8.361816,0.0,0.0,0.0,-124.81018,42.17102,-126.864624
1768032436140,-0.6777344,-0.60546875,-0.42871094,-6.652832,-13.73291,8.361816,0.0,0.0,0.0,-124.887085,43.357544,-126.02417
1768032436228,-0.70410156,-0.58691406,-0.4189453,-3.90625,-11.474609,13.122559,0.0,0.0,0.0,-124.887085,43.357544,-126.02417
1768032436240,-0.70410156,-0.58691406,-0.4189453,-3.90625,-11.474609,13.122559,0.0,0.0,0.0,-124.991455,44.86267,-125.458374
1768032436328,-0.71777344,-0.5698242,-0.39794922,-8.483887,-11.108398,8.666992,0.0,0.0,0.0,-124.991455,44.86267,-125.458374
1768032436340,-0.71777344,-0.5698242,-0.39794922,-8.483887,-11.108398,8.666992,0.0,0.0,0.0,-125.15076,46.21399,-124.98596
1768032436428,-0.75341797,-0.5385742,-0.38964844,-4.333496,-2.6855469,8.666992,0.0,0.0,0.0,-125.15076,46.21399,-124.98596
1768032436439,-0.75341797,-0.5385742,-0.38964844,-4.333496,-2.6855469,8.666992,0.0,0.0,0.0,-125.667114,47.125854,-125.007935
1768032436527,-0.7402344,-0.53515625,-0.3798828,4.1503906,-8.422852,8.850098,0.0,0.0,0.0,-125.667114,47.125854,-125.007935
1768032436539,-0.7402344,-0.53515625,-0.3798828,4.1503906,-8.422852,8.850098,0.0,0.0,0.0,-125.95825,48.30139,-125.21118
1768032436627,-0.76416016,-0.5151367,-0.39013672,5.554199,-10.437012,2.2583008,0.0,0.0,0.0,-125.95825,48.30139,-125.21118
1768032436639,-0.76416016,-0.5151367,-0.39013672,5.554199,-10.437012,2.2583008,0.0,0.0,0.0,-124.782715,49.246216,-124.35425
1768032436727,-0.7739258,-0.5332031,-0.32958984,7.3242188,-14.587402,0.5493164,0.0,0.0,0.0,-124.782715,49.246216,-124.35425
1768032436739,-0.7739258,-0.5332031,-0.32958984,7.3242188,-14.587402,0.5493164,0.0,0.0,0.0,-122.7063,49.921875,-122.77771
1768032436827,-0.77783203,-0.52978516,-0.34765625,15.014648,-11.230469,-4.5166016,0.0,0.0,0.0,-122.7063,49.921875,-122.77771
1768032436838,-0.77783203,-0.52978516,-0.34765625,15.014648,-11.230469,-4.5166016,0.0,0.0,0.0,-120.805664,50.421753,-121.311035
1768032436926,-0.76171875,-0.5595703,-0.28076172,11.108398,-16.601562,-1.4648438,0.0,0.0,0.0,-120.805664,50.421753,-121.311035
1768032436938,-0.76171875,-0.5595703,-0.28076172,11.108398,-16.601562,-1.4648438,0.0,0.0,0.0,-117.53723,50.718384,-119.28955
1768032437026,-0.80078125,-0.5839844,-0.25976562,17.578125,-12.512207,-2.6245117,0.0,0.0,0.0,-117.53723,50.718384,-119.28955
1768032437037,-0.80078125,-0.5839844,-0.25976562,17.578125,-12.512207,-2.6245117,0.0,0.0,0.0,-114.5105,51.119385,-117.65259
1768032437126,-0.78564453,-0.5703125,-0.21923828,-0.18310547,-19.226074,3.1738281,0.0,0.0,0.0,-114.5105,51.119385,-117.65259
1768032437137,-0.78564453,-0.5703125,-0.21923828,-0.18310547,-19.226074,3.1738281,0.0,0.0,0.0,-111.75842,51.696167,-115.460815
1768032437225,-0.7915039,-0.5498047,-0.19189453,3.90625,-15.380859,-2.6245117,0.0,0.0,0.0,-111.75842,51.696167,-115.460815
1768032437237,-0.7915039,-0.5498047,-0.19189453,3.90625,-15.380859,-2.6245117,0.0,0.0,0.0,-109.67651,52.234497,-112.68677
1768032437325,-0.7973633,-0.59472656,-0.18652344,0.5493164,-13.793945,2.4414062,0.0,0.0,0.0,-109.67651,52.234497,-112.68677
1768032437337,-0.7973633,-0.59472656,-0.18652344,0.5493164,-13.793945,2.4414062,0.0,0.0,0.0,-107.88025,52.65747,-110.928955
1768032437425,-0.7973633,-0.56884766,-0.1508789,1.5258789,-10.070801,3.8452148,0.0,0.0,0.0,-107.88025,52.65747,-110.928955
1768032437436,-0.7973633,-0.56884766,-0.1508789,1.5258789,-10.070801,3.8452148,0.0,0.0,0.0,-106.259766,53.272705,-109.01184
1768032437525,-0.8178711,-0.5727539,-0.12695312,-2.380371,-7.8125,4.0283203,0.0,0.0,0.0,-106.259766,53.272705,-109.01184
1768032437536,-0.8178711,-0.5727539,-0.12695312,-2.380371,-7.8125,4.0283203,0.0,0.0,0.0,-105.10071,53.876953,-107.66052
1768032437624,-0.8203125,-0.5595703,-0.13916016,-2.1362305,-4.3945312,5.432129,0.0,0.0,0.0,-105.10071,53.876953,-107.66052
1768032437636,-0.8203125,-0.5595703,-0.13916016,-2.1362305,-4.3945312,5.432129,0.0,0.0,0.0,-104.644775,54.519653,-106.875
1768032437724,-0.828125,-0.55615234,-0.1328125,-10.009766,-4.1503906,5.9814453,0.0,0.0,0.0,-104.644775,54.519653,-106.875
1768032437735,-0.828125,-0.55615234,-0.1328125,-10.009766,-4.1503906,5.9814453,0.0,0.0,0.0,-104.65027,55.2063,-106.3147
1768032437824,-0.82910156,-0.52978516,-0.1508789,-7.2631836,-2.746582,7.080078,0.0,0.0,0.0,-104.65027,55.2063,-106.3147
1768032437835,-0.82910156,-0.52978516,-0.1508789,-7.2631836,-2.746582,7.080078,0.0,0.0,0.0,-105.232544,56.013794,-105.95764
1768032437923,-0.84277344,-0.51708984,-0.14160156,5.554199,0.5493164,1.2817383,0.0,0.0,0.0,-105.232544,56.013794,-105.95764
1768032437935,-0.84277344,-0.51708984,-0.14160156,5.554199,0.5493164,1.2817383,0.0,0.0,0.0,-105.38086,56.497192,-106.1499
1768032438023,-0.8286133,-0.5361328,-0.13134766,8.483887,-0.4272461,2.380371,0.0,0.0,0.0,-105.38086,56.497192,-106.1499
1768032438035,-0.8286133,-0.5361328,-0.13134766,8.483887,-0.4272461,2.380371,0.0,0.0,0.0,-104.58435,56.68396,-106.21582
1768032438123,-0.82373047,-0.52001953,-0.12011719,5.92041,-1.7700195,1.6479492,0.0,0.0,0.0,-104.58435,56.68396,-106.21582
1768032438134,-0.82373047,-0.52001953,-0.12011719,5.92041,-1.7700195,1.6479492,0.0,0.0,0.0,-103.430786,56.82129,-105.99609
1768032438223,-0.8618164,-0.52783203,-0.12158203,1.0986328,-0.91552734,-1.0375977,0.0,0.0,0.0,-103.430786,56.82129,-105.99609
1768032438234,-0.8618164,-0.52783203,-0.12158203,1.0986328,-0.91552734,-1.0375977,0.0,0.0,0.0,-103.029785,57.01355,-105.73242
1768032438322,-0.83691406,-0.5126953,-0.10205078,0.0,-5.004883,-4.0283203,0.0,0.0,0.0,-103.029785,57.01355,-105.73242
1768032438334,-0.83691406,-0.5126953,-0.10205078,0.0,-5.004883,-4.0283203,0.0,0.0,0.0,-102.54089,57.019043,-105.320435
1768032438422,-0.8125,-0.5708008,-0.1640625,11.047363,6.164551,5.004883,0.0,0.0,0.0,-102.54089,57.019043,-105.320435
1768032438434,-0.8125,-0.5708008,-0.1640625,11.047363,6.164551,5.004883,0.0,0.0,0.0,-101.99707,56.975098,-104.71619
1768032438522,-0.859375,-0.49658203,-0.111816406,1.7700195,-0.6713867,8.544922,0.0,0.0,0.0,-101.99707,56.975098,-104.71619
1768032438534,-0.859375,-0.49658203,-0.111816406,1.7700195,-0.6713867,8.544922,0.0,0.0,0.0,-101.42578,57.540894,-105.545654
1768032438622,-0.8730469,-0.47070312,-0.08691406,6.4086914,0.48828125,-1.0375977,0.0,0.0,0.0,-101.42578,57.540894,-105.545654
1768032438633,-0.8730469,-0.47070312,-0.08691406,6.4086914,0.48828125,-1.0375977,0.0,0.0,0.0,-101.16211,57.74414,-105.89172
1768032438721,-0.84472656,-0.54345703,-0.09765625,0.91552734,-8.178711,3.1738281,0.0,0.0,0.0,-101.16211,57.74414,-105.89172
1768032438733,-0.84472656,-0.54345703,-0.09765625,0.91552734,-8.178711,3.1738281,0.0,0.0,0.0,-100.13489,57.91992,-105.22156
1768032438821,-0.8520508,-0.53222656,-0.06689453,5.493164,-9.033203,0.24414062,0.0,0.0,0.0,-100.13489,57.91992,-105.22156
1768032438833,-0.8520508,-0.53222656,-0.06689453,5.493164,-9.033203,0.24414062,0.0,0.0,0.0,-98.53638,58.28247,-103.66699
1768032438921,-0.8378906,-0.5053711,-0.07373047,-2.4414062,-5.859375,-1.2817383,0.0,0.0,0.0,-98.53638,58.28247,-103.66699
1768032438932,-0.8378906,-0.5053711,-0.07373047,-2.4414062,-5.859375,-1.2817383,0.0,0.0,0.0,-97.08069,58.101196,-102.12341
1768032439020,-0.8588867,-0.53466797,-0.025390625,3.2958984,-4.272461,-0.61035156,0.0,0.0,0.0,-97.08069,58.101196,-102.12341
1768032439032,-0.8588867,-0.53466797,-0.025390625,3.2958984,-4.272461,-0.61035156,0.0,0.0,0.0,-95.85571,58.183594,-100.88745
1768032439120,-0.8725586,-0.5175781,-0.048339844,-2.8686523,3.7841797,9.460449,0.0,0.0,0.0,-95.85571,58.183594,-100.88745
1768032439132,-0.8725586,-0.5175781,-0.048339844,-2.8686523,3.7841797,9.460449,0.0,0.0,0.0,-96.35559,58.754883,-101.552124
1768032439220,-0.88720703,-0.5004883,-0.036132812,4.5776367,-18.127441,-4.3945312,0.0,0.0,0.0,-96.35559,58.754883,-101.552124
1768032439231,-0.88720703,-0.5004883,-0.036132812,4.5776367,-18.127441,-4.3945312,0.0,0.0,0.0,-94.070435,59.089966,-98.69568
1768032439320,-0.86572266,-0.49365234,-0.025390625,13.793945,-14.099121,-6.652832,0.0,0.0,0.0,-94.070435,59.089966,-98.69568
1768032439331,-0.86572266,-0.49365234,-0.025390625,13.793945,-14.099121,-6.652832,0.0,0.0,0.0,-90.75256,58.892212,-95.701904
1768032439419,-0.8647461,-0.5288086,0.0146484375,26.123047,-17.150879,-9.338379,0.0,0.0,0.0,-90.75256,58.892212,-95.701904
1768032439431,-0.8647461,-0.5288086,0.0146484375,26.123047,-17.150879,-9.338379,0.0,0.0,0.0,-86.36902,58.04077,-92.77405
1768032439519,-0.85791016,-0.5292969,0.078125,25.512695,-14.160156,-5.7373047,0.0,0.0,0.0,-86.36902,58.04077,-92.77405
1768032439531,-0.85791016,-0.5292969,0.078125,25.512695,-14.160156,-5.7373047,0.0,0.0,0.0,-81.40869,57.08496,-89.98352
1768032439619,-0.80810547,-0.55615234,0.1743164,22.827148,-19.348145,-4.211426,0.0,0.0,0.0,-81.40869,57.08496,-89.98352
1768032439630,-0.80810547,-0.55615234,0.1743164,22.827148,-19.348145,-4.211426,0.0,0.0,0.0,-76.569214,56.47522,-87.13257
1768032439718,-0.84521484,-0.53466797,0.15673828,26.306152,-3.0517578,-7.3242188,0.0,0.0,0.0,-76.569214,56.47522,-87.13257
1768032439730,-0.84521484,-0.53466797,0.15673828,26.306152,-3.0517578,-7.3242188,0.0,0.0,0.0,-73.37219,55.645752,-85.63843
1768032439818,-0.8183594,-0.53515625,0.2133789,11.352539,-10.7421875,-2.8076172,0.0,0.0,0.0,-73.37219,55.645752,-85.63843
1768032439830,-0.8183594,-0.53515625,0.2133789,11.352539,-10.7421875,-2.8076172,0.0,0.0,0.0,-71.13098,55.08545,-85.23193
1768032439918,-0.81933594,-0.5854492,0.24658203,4.0283203,-7.9345703,-2.1972656,0.0,0.0,0.0,-71.13098,55.08545,-85.23193
1768032439929,-0.81933594,-0.5854492,0.24658203,4.0283203,-7.9345703,-2.1972656,0.0,0.0,0.0,-69.20288,54.624023,-83.50159
1768032440018,-0.8334961,-0.53564453,0.22314453,4.5776367,-9.70459,0.30517578,0.0,0.0,0.0,-69.20288,54.624023,-83.50159
1768032440029,-0.8334961,-0.53564453,0.22314453,4.5776367,-9.70459,0.30517578,0.0,0.0,0.0,-67.80762,54.12964,-82.11182
1768032440117,-0.8310547,-0.5332031,0.24609375,13.122559,-0.24414062,-5.004883,0.0,0.0,0.0,-67.80762,54.12964,-82.11182
1768032440129,-0.8310547,-0.5332031,0.24609375,13.122559,-0.24414062,-5.004883,0.0,0.0,0.0,-66.64856,53.849487,-81.57898
1768032440217,-0.81884766,-0.51904297,0.24267578,19.348145,2.5024414,-6.8969727,0.0,0.0,0.0,-66.64856,53.849487,-81.57898
1768032440229,-0.81884766,-0.51904297,0.24267578,19.348145,2.5024414,-6.8969727,0.0,0.0,0.0,-65.54993,53.36609,-82.22717
1768032440317,-0.78759766,-0.5600586,0.2553711,25.146484,25.57373,-7.6293945,0.0,0.0,0.0,-65.54993,53.36609,-82.22717
1768032440328,-0.78759766,-0.5600586,0.2553711,25.146484,25.57373,-7.6293945,0.0,0.0,0.0,-65.34119,53.38806,-84.79248
1768032440416,-0.7807617,-0.5698242,0.2709961,6.958008,19.89746,-0.36621094,0.0,0.0,0.0,-65.34119,53.38806,-84.79248
1768032440428,-0.7807617,-0.5698242,0.2709961,6.958008,19.89746,-0.36621094,0.0,0.0,0.0,-67.01111,53.865967,-88.950806
1768032440516,-0.80566406,-0.5161133,0.22460938,2.1972656,14.831543,4.333496,0.0,0.0,0.0,-67.01111,53.865967,-88.950806
1768032440528,-0.80566406,-0.5161133,0.22460938,2.1972656,14.831543,4.333496,0.0,0.0,0.0,-68.60962,54.58557,-91.25244
1768032440616,-0.8144531,-0.5332031,0.2163086,-1.0375977,20.019531,3.2348633,0.0,0.0,0.0,-68.60962,54.58557,-91.25244
1768032440627,-0.8144531,-0.5332031,0.2163086,-1.0375977,20.019531,3.2348633,0.0,0.0,0.0,-70.45532,55.69519,-94.05945
1768032440716,-0.9169922,-0.49951172,0.13183594,0.4272461,25.878906,3.9672852,0.0,0.0,0.0,-70.45532,55.69519,-94.05945
1768032440727,-0.9169922,-0.49951172,0.13183594,0.4272461,25.878906,3.9672852,0.0,0.0,0.0,-73.8501,56.793823,-98.17383
1768032440815,-0.83984375,-0.50634766,0.12597656,4.4555664,35.52246,6.4697266,0.0,0.0,0.0,-73.8501,56.793823,-98.17383
1768032440827,-0.83984375,-0.50634766,0.12597656,4.4555664,35.52246,6.4697266,0.0,0.0,0.0,-77.65137,58.062744,-103.150635
1768032440915,-0.85009766,-0.5732422,0.11035156,-27.893066,18.371582,4.760742,0.0,0.0,0.0,-77.65137,58.062744,-103.150635
1768032440927,-0.85009766,-0.5732422,0.11035156,-27.893066,18.371582,4.760742,0.0,0.0,0.0,-82.42493,59.21631,-107.64404
1768032441015,-0.8354492,-0.50878906,0.07910156,-44.98291,12.390137,-5.004883,0.0,0.0,0.0,-82.42493,59.21631,-107.64404
1768032441026,-0.8354492,-0.50878906,0.07910156,-44.98291,12.390137,-5.004883,0.0,0.0,0.0,-88.637695,59.227295,-111.18164
1768032441114,-0.87060547,-0.4428711,-0.00390625,-61.21826,-22.033691,-6.713867,0.0,0.0,0.0,-88.637695,59.227295,-111.18164
1768032441126,-0.87060547,-0.4428711,-0.00390625,-61.21826,-22.033691,-6.713867,0.0,0.0,0.0,-92.85095,58.639526,-109.83032
1768032441214,-0.88671875,-0.48779297,-0.095703125,-70.92285,5.79834,12.756348,0.0,0.0,0.0,-92.85095,58.639526,-109.83032
1768032441226,-0.88671875,-0.48779297,-0.095703125,-70.92285,5.79834,12.756348,0.0,0.0,0.0,-99.62952,59.837036,-109.48425
1768032441314,-0.8432617,-0.5283203,-0.1821289,-54.382324,-11.657715,-15.930176,0.0,0.0,0.0,-99.62952,59.837036,-109.48425
1768032441325,-0.8432617,-0.5283203,-0.1821289,-54.382324,-11.657715,-15.930176,0.0,0.0,0.0,-104.50195,60.342407,-107.924194
1768032441414,-0.8745117,-0.35302734,-0.14501953,-8.544922,-3.112793,-13.366699,0.0,0.0,0.0,-104.50195,60.342407,-107.924194
1768032441426,-0.8745117,-0.35302734,-0.14501953,-8.544922,-3.112793,-13.366699,0.0,0.0,0.0,-105.50171,58.47473,-106.49597
1768032441513,-0.83447266,-0.51464844,-0.17089844,-0.48828125,2.319336,0.48828125,0.0,0.0,0.0,-105.50171,58.47473,-106.49597
1768032441525,-0.83447266,-0.51464844,-0.17089844,-0.48828125,2.319336,0.48828125,0.0,0.0,0.0,-105.60608,58.584595,-106.00159
1768032441613,-0.8305664,-0.48046875,-0.15283203,4.3945312,3.2958984,-4.699707,0.0,0.0,0.0,-105.60608,58.584595,-106.00159
1768032441625,-0.8305664,-0.48046875,-0.15283203,4.3945312,3.2958984,-4.699707,0.0,0.0,0.0,-105.60608,58.04077,-106.605835
1768032441713,-0.8486328,-0.48339844,-0.13671875,3.2348633,-0.061035156,-1.5258789,0.0,0.0,0.0,-105.60608,58.04077,-106.605835
1768032441724,-0.8486328,-0.48339844,-0.13671875,3.2348633,-0.061035156,-1.5258789,0.0,0.0,0.0,-105.47974,57.9364,-106.380615
1768032441812,-0.8378906,-0.51123047,-0.1459961,-2.1972656,-1.159668,-0.48828125,0.0,0.0,0.0,-105.47974,57.9364,-106.380615
1768032441824,-0.8378906,-0.51123047,-0.1459961,-2.1972656,-1.159668,-0.48828125,0.0,0.0,0.0,-105.3479,57.859497,-106.364136
1768032441912,-0.8618164,-0.52441406,-0.16113281,1.8920898,-0.061035156,-1.8920898,0.0,0.0,0.0,-105.3479,57.859497,-106.364136
1768032441924,-0.8618164,-0.52441406,-0.16113281,1.8920898,-0.061035156,-1.8920898,0.0,0.0,0.0,-105.15015,57.782593,-106.02905
1768032442012,-0.8227539,-0.5048828,-0.14501953,2.319336,-1.0986328,-0.18310547,0.0,0.0,0.0,-105.15015,57.782593,-106.02905
1768032442023,-0.8227539,-0.5048828,-0.14501953,2.319336,-1.0986328,-0.18310547,0.0,0.0,0.0,-105.095215,57.716675,-105.94116
1768032442112,-0.85498047,-0.52246094,-0.14794922,-7.080078,-4.211426,3.112793,0.0,0.0,0.0,-105.095215,57.716675,-105.94116
1768032442123,-0.85498047,-0.52246094,-0.14794922,-7.080078,-4.211426,3.112793,0.0,0.0,0.0,-104.92493,57.974854,-105.29297
1768032442211,-0.8540039,-0.50634766,-0.15673828,-0.79345703,-5.92041,0.6713867,0.0,0.0,0.0,-104.92493,57.974854,-105.29297
1768032442223,-0.8540039,-0.50634766,-0.15673828,-0.79345703,-5.92041,0.6713867,0.0,0.0,0.0,-104.52942,58.271484,-104.37561
1768032442311,-0.85253906,-0.49658203,-0.11328125,4.0893555,-3.8452148,-1.4038086,0.0,0.0,0.0,-104.52942,58.271484,-104.37561
1768032442322,-0.85253906,-0.49658203,-0.11328125,4.0893555,-3.8452148,-1.4038086,0.0,0.0,0.0,-103.551636,58.31543,-103.48572
1768032442411,-0.8496094,-0.50146484,-0.11621094,-1.159668,-2.746582,-1.7700195,0.0,0.0,0.0,-103.551636,58.31543,-103.48572
1768032442423,-0.8496094,-0.50146484,-0.11621094,-1.159668,-2.746582,-1.7700195,0.0,0.0,0.0,-102.64526,58.238525,-102.628784
1768032442511,-0.85253906,-0.52441406,-0.11816406,5.2490234,-0.6713867,-3.6010742,0.0,0.0,0.0,-102.64526,58.238525,-102.628784
1768032442522,-0.85253906,-0.52441406,-0.11816406,5.2490234,-0.6713867,-3.6010742,0.0,0.0,0.0,-101.98059,57.98584,-102.23328
1768032442610,-0.8359375,-0.52001953,-0.09082031,6.8969727,2.1972656,-3.4179688,0.0,0.0,0.0,-101.98059,57.98584,-102.23328
1768032442622,-0.8359375,-0.52001953,-0.09082031,6.8969727,2.1972656,-3.4179688,0.0,0.0,0.0,-101.35986,57.546387,-102.299194
1768032442710,-0.85058594,-0.52490234,-0.12109375,3.4179688,5.065918,-5.065918,0.0,0.0,0.0,-101.35986,57.546387,-102.299194
1768032442721,-0.85058594,-0.52490234,-0.12109375,3.4179688,5.065918,-5.065918,0.0,0.0,0.0,-101.38733,57.17285,-102.595825
1768032442810,-0.8359375,-0.5473633,-0.12792969,6.0424805,4.638672,-6.164551,0.0,0.0,0.0,-101.38733,57.17285,-102.595825
1768032442821,-0.8359375,-0.5473633,-0.12792969,6.0424805,4.638672,-6.164551,0.0,0.0,0.0,-101.42578,56.51367,-103.30444
1768032442909,-0.83496094,-0.55029297,-0.10205078,4.4555664,2.6855469,-4.4555664,0.0,0.0,0.0,-101.42578,56.51367,-103.30444
1768032442921,-0.83496094,-0.55029297,-0.10205078,4.4555664,2.6855469,-4.4555664,0.0,0.0,0.0,-101.173096,55.805054,-103.7439
1768032443009,-0.81689453,-0.55322266,-0.111328125,6.164551,2.6245117,-6.164551,0.0,0.0,0.0,-101.173096,55.805054,-103.7439
1768032443020,-0.81689453,-0.55322266,-0.111328125,6.164551,2.6245117,-6.164551,0.0,0.0,0.0,-100.82703,55.283203,-103.88672
1768032443109,-0.81933594,-0.5527344,-0.104003906,3.7841797,4.0283203,-5.2490234,0.0,0.0,0.0,-100.82703,55.283203,-103.88672
1768032443120,-0.81933594,-0.5527344,-0.104003906,3.7841797,4.0283203,-5.2490234,0.0,0.0,0.0,-100.58533,54.63501,-104.3042
1768032443208,-0.8027344,-0.57470703,-0.10107422,-3.479004,0.30517578,-2.5024414,0.0,0.0,0.0,-100.58533,54.63501,-104.3042
1768032443220,-0.8027344,-0.57470703,-0.10107422,-3.479004,0.30517578,-2.5024414,0.0,0.0,0.0,-100.71716,54.239502,-104.53491
1768032443308,-0.8129883,-0.5756836,-0.11767578,-2.2583008,-0.48828125,-2.6245117,0.0,0.0,0.0,-100.71716,54.239502,-104.53491
1768032443320,-0.8129883,-0.5756836,-0.11767578,-2.2583008,-0.48828125,-2.6245117,0.0,0.0,0.0,-100.77759,53.997803,-104.17236
1768032443408,-0.8149414,-0.022949219,0.12597656,-23.55957,-16.967773,32.714844,0.0,0.0,0.0,-100.77759,53.997803,-104.17236
1768032443419,-0.8149414,-0.022949219,0.12597656,-23.55957,-16.967773,32.714844,0.0,0.0,0.0,-100.684204,54.854736,-103.62854
1768032443508,-0.76123047,-0.6582031,-0.09472656,22.766113,13.305664,-5.2490234,0.0,0.0,0.0,-100.684204,54.854736,-103.62854
1768032443520,-0.76123047,-0.6582031,-0.09472656,22.766113,13.305664,-5.2490234,0.0,0.0,0.0,-99.662476,57.073975,-104.07349
1768032443607,-0.8364258,-0.5498047,-0.088378906,-3.1738281,-2.4414062,-1.2207031,0.0,0.0,0.0,-99.662476,57.073975,-104.07349
1768032443619,-0.8364258,-0.5498047,-0.088378906,-3.1738281,-2.4414062,-1.2207031,0.0,0.0,0.0,-99.3219,57.22229,-103.87573
1768032443707,-0.84228516,-0.50097656,-0.07861328,-0.9765625,-5.92041,5.3100586,0.0,0.0,0.0,-99.3219,57.22229,-103.87573
1768032443719,-0.84228516,-0.50097656,-0.07861328,-0.9765625,-5.92041,5.3100586,0.0,0.0,0.0,-98.778076,57.200317,-103.48572
1768032443807,-0.8535156,-0.5444336,-0.07910156,-7.2021484,-3.4179688,6.958008,0.0,0.0,0.0,-98.778076,57.200317,-103.48572
1768032443818,-0.8535156,-0.5444336,-0.07910156,-7.2021484,-3.4179688,6.958008,0.0,0.0,0.0,-98.69568,57.821045,-102.97485
1768032443907,-0.86376953,-0.56152344,-0.11669922,-13.793945,4.699707,8.911133,0.0,0.0,0.0,-98.69568,57.821045,-102.97485
1768032443918,-0.86376953,-0.56152344,-0.11669922,-13.793945,4.699707,8.911133,0.0,0.0,0.0,-100.17883,58.705444,-103.029785
1768032444006,-0.8520508,-0.42041016,-0.08544922,-4.9438477,-0.8544922,0.36621094,0.0,0.0,0.0,-100.17883,58.705444,-103.029785
1768032444018,-0.8520508,-0.42041016,-0.08544922,-4.9438477,-0.8544922,0.36621094,0.0,0.0,0.0,-100.739136,58.54065,-103.26599
1768032444106,-0.8564453,-0.5083008,-0.11035156,2.9296875,4.638672,-0.61035156,0.0,0.0,0.0,-100.739136,58.54065,-103.26599
1768032444117,-0.8564453,-0.5083008,-0.11035156,2.9296875,4.638672,-0.61035156,0.0,0.0,0.0,-101.1676,58.771362,-103.881226
1768032444206,-0.86328125,-0.49951172,-0.099609375,-1.0375977,2.9907227,0.7324219,0.0,0.0,0.0,-101.1676,58.771362,-103.881226
1768032444217,-0.86328125,-0.49951172,-0.099609375,-1.0375977,2.9907227,0.7324219,0.0,0.0,0.0,-101.64551,58.87024,-104.243774
1768032444305,-0.86083984,-0.5209961,-0.107421875,-8.300781,3.90625,3.2958984,0.0,0.0,0.0,-101.64551,58.87024,-104.243774
1768032444317,-0.86083984,-0.5209961,-0.107421875,-8.300781,3.90625,3.2958984,0.0,0.0,0.0,-102.6178,59.04602,-104.90845
1768032444405,-0.8598633,-0.48779297,-0.1303711,-8.605957,1.4038086,4.699707,0.0,0.0,0.0,-102.6178,59.04602,-104.90845
1768032444417,-0.8598633,-0.48779297,-0.1303711,-8.605957,1.4038086,4.699707,0.0,0.0,0.0,-103.897705,59.27124,-105.63904
1768032444505,-0.8647461,-0.4873047,-0.13671875,-6.164551,-0.30517578,3.4179688,0.0,0.0,0.0,-103.897705,59.27124,-105.63904
1768032444516,-0.8647461,-0.4873047,-0.13671875,-6.164551,-0.30517578,3.4179688,0.0,0.0,0.0,-104.8645,59.677734,-105.76538
1768032444605,-0.87158203,-0.48779297,-0.1328125,-7.3242188,-4.0283203,3.90625,0.0,0.0,0.0,-104.8645,59.677734,-105.76538
1768032444616,-0.87158203,-0.48779297,-0.1328125,-7.3242188,-4.0283203,3.90625,0.0,0.0,0.0,-105.29846,60.073242,-105.45776
1768032444704,-0.8540039,-0.47070312,-0.12451172,-6.0424805,5.6152344,-4.3945312,0.0,0.0,0.0,-105.29846,60.073242,-105.45776
1768032444716,-0.8540039,-0.47070312,-0.12451172,-6.0424805,5.6152344,-4.3945312,0.0,0.0,0.0,-105.930176,59.743652,-105.45227
1768032444804,-0.8754883,-0.46484375,-0.14941406,-6.4697266,-2.4414062,5.2490234,0.0,0.0,0.0,-105.930176,59.743652,-105.45227
1768032444815,-0.8754883,-0.46484375,-0.14941406,-6.4697266,-2.4414062,5.2490234,0.0,0.0,0.0,-106.74866,60.216064,-105.99609
1768032444904,-0.86865234,-0.48828125,-0.14257812,-8.056641,-5.2490234,1.159668,0.0,0.0,0.0,-106.74866,60.216064,-105.99609
1768032444915,-0.86865234,-0.48828125,-0.14257812,-8.056641,-5.2490234,1.159668,0.0,0.0,0.0,-107.06726,60.671997,-105.47974
1768032445003,-0.8779297,-0.45117188,-0.15185547,2.0141602,-4.5166016,-6.713867,0.0,0.0,0.0,-107.06726,60.671997,-105.47974
1768032445015,-0.8779297,-0.45117188,-0.15185547,2.0141602,-4.5166016,-6.713867,0.0,0.0,0.0,-106.23779,60.457764,-104.16138
1768032445103,-0.8701172,-0.47607422,-0.13720703,5.2490234,-5.6762695,-5.1879883,0.0,0.0,0.0,-106.23779,60.457764,-104.16138
1768032445115,-0.8701172,-0.47607422,-0.13720703,5.2490234,-5.6762695,-5.1879883,0.0,0.0,0.0,-104.72717,59.941406,-102.892456
1768032445203,-0.8515625,-0.49267578,-0.12158203,-1.953125,-5.7373047,-11.413574,0.0,0.0,0.0,-104.72717,59.941406,-102.892456
1768032445214,-0.8515625,-0.49267578,-0.12158203,-1.953125,-5.7373047,-11.413574,0.0,0.0,0.0,-103.287964,59.27124,-101.62903
1768032445303,-0.8613281,-0.50439453,-0.118652344,3.6621094,-3.479004,-8.911133,0.0,0.0,0.0,-103.287964,59.27124,-101.62903
1768032445314,-0.8613281,-0.50439453,-0.118652344,3.6621094,-3.479004,-8.911133,0.0,0.0,0.0,-102.34863,58.61206,-100.83801
1768032445402,-0.8510742,-0.48583984,-0.06298828,9.155273,-6.713867,-4.4555664,0.0,0.0,0.0,-102.34863,58.61206,-100.83801
1768032445414,-0.8510742,-0.48583984,-0.06298828,9.155273,-6.713867,-4.4555664,0.0,0.0,0.0,-100.62927,58.007812,-99.76135
1768032445502,-0.7602539,-0.5307617,-0.04345703,-7.385254,-17.39502,3.6010742,0.0,0.0,0.0,-100.62927,58.007812,-99.76135
1768032445514,-0.7602539,-0.5307617,-0.04345703,-7.385254,-17.39502,3.6010742,0.0,0.0,0.0,-98.90991,57.43103,-98.83301
1768032445602,-0.8496094,-0.5317383,-0.07763672,-7.507324,-7.9956055,-3.0517578,0.0,0.0,0.0,-98.90991,57.43103,-98.83301
1768032445614,-0.8496094,-0.5317383,-0.07763672,-7.507324,-7.9956055,-3.0517578,0.0,0.0,0.0,-98.135376,57.529907,-96.93787
1768032445701,-0.8300781,-0.52978516,-0.071777344,-3.6621094,-5.004883,-7.9345703,0.0,0.0,0.0,-98.135376,57.529907,-96.93787
1768032445713,-0.8300781,-0.52978516,-0.071777344,-3.6621094,-5.004883,-7.9345703,0.0,0.0,0.0,-97.55859,57.090454,-95.57556
1768032445801,-0.83251953,-0.5175781,-0.06201172,5.79834,2.6245117,-10.986328,0.0,0.0,0.0,-97.55859,57.090454,-95.57556
1768032445813,-0.83251953,-0.5175781,-0.06201172,5.79834,2.6245117,-10.986328,0.0,0.0,0.0,-97.300415,56.239014,-95.27893
1768032445901,-0.8227539,-0.58740234,-0.051757812,3.6010742,8.056641,-13.916016,0.0,0.0,0.0,-97.300415,56.239014,-95.27893
1768032445912,-0.8227539,-0.58740234,-0.051757812,3.6010742,8.056641,-13.916016,0.0,0.0,0.0,-97.35535,55.129395,-96.328125
1768032446000,-0.77441406,-0.5961914,-0.048339844,-3.9672852,10.314941,-11.657715,0.0,0.0,0.0,-97.35535,55.129395,-96.328125
1768032446013,-0.77441406,-0.5961914,-0.048339844,-3.9672852,10.314941,-11.657715,0.0,0.0,0.0,-99.13513,54.085693,-97.72339
1768032446100,-0.796875,-0.5957031,-0.123046875,-31.49414,0.36621094,-5.3710938,0.0,0.0,0.0,-99.13513,54.085693,-97.72339
1768032446112,-0.796875,-0.5957031,-0.123046875,-31.49414,0.36621094,-5.3710938,0.0,0.0,0.0,-100.579834,52.965088,-97.90466
1768032446200,-0.9399414,-0.79785156,-0.15332031,-78.85742,7.751465,-41.19873,0.0,0.0,0.0,-100.579834,52.965088,-97.90466
1768032446211,-0.9399414,-0.79785156,-0.15332031,-78.85742,7.751465,-41.19873,0.0,0.0,0.0,-106.32019,51.98181,-99.052734
1768032446300,-0.6738281,-0.64941406,-0.2998047,-28.015137,17.700195,-108.27637,0.0,0.0,0.0,-106.32019,51.98181,-99.052734
1768032446311,-0.6738281,-0.64941406,-0.2998047,-28.015137,17.700195,-108.27637,0.0,0.0,0.0,-107.13318,41.709595,-93.87268
1768032446399,-0.6269531,-0.9428711,-0.2705078,-30.029297,-36.865234,-84.8999,0.0,0.0,0.0,-107.13318,41.709595,-93.87268
1768032446411,-0.6269531,-0.9428711,-0.2705078,-30.029297,-36.865234,-84.8999,0.0,0.0,0.0,-107.440796,32.16797,-90.01648
1768032446499,-0.44580078,-0.8808594,-0.1381836,113.52539,-46.569824,-151.06201,0.0,0.0,0.0,-107.440796,32.16797,-90.01648
1768032446511,-0.44580078,-0.8808594,-0.1381836,113.52539,-46.569824,-151.06201,0.0,0.0,0.0,-100.54138,23.296509,-81.77673
1768032446599,-0.18847656,-0.79541016,0.13232422,97.10693,-135.98633,-28.625488,0.0,0.0,0.0,-100.54138,23.296509,-81.77673
1768032446610,-0.18847656,-0.79541016,0.13232422,97.10693,-135.98633,-28.625488,0.0,0.0,0.0,-88.13782,16.452026,-72.108765
1768032446699,-0.46289062,-0.9277344,-0.21777344,-4.760742,-22.827148,18.066406,0.0,0.0,0.0,-88.13782,16.452026,-72.108765
1768032446710,-0.46289062,-0.9277344,-0.21777344,-4.760742,-22.827148,18.066406,0.0,0.0,0.0,-80.90881,15.650024,-58.546143
1768032446798,-0.234375,-1.0161133,0.024414062,-53.16162,120.42236,8.117676,0.0,0.0,0.0,-80.90881,15.650024,-58.546143
1768032446810,-0.234375,-1.0161133,0.024414062,-53.16162,120.42236,8.117676,0.0,0.0,0.0,-86.363525,16.6333,-66.10474
1768032446898,-0.23876953,-0.9501953,0.1015625,-10.864258,44.555664,-14.709473,0.0,0.0,0.0,-86.363525,16.6333,-66.10474
1768032446910,-0.23876953,-0.9501953,0.1015625,-10.864258,44.555664,-14.709473,0.0,0.0,0.0,-91.483154,16.85852,-74.26758
1768032446998,-0.2758789,-0.9511719,0.068359375,-3.4179688,2.6245117,4.4555664,0.0,0.0,0.0,-91.483154,16.85852,-74.26758
1768032447010,-0.2758789,-0.9511719,0.068359375,-3.4179688,2.6245117,4.4555664,0.0,0.0,0.0,-92.647705,15.699463,-77.547
1768032447097,-0.25585938,-0.98095703,-0.08984375,-5.92041,-1.8310547,11.535645,0.0,0.0,0.0,-92.647705,15.699463,-77.547
1768032447109,-0.25585938,-0.98095703,-0.08984375,-5.92041,-1.8310547,11.535645,0.0,0.0,0.0,-92.84546,16.380615,-77.404175
1768032447197,-0.24560547,-0.95654297,0.0063476562,4.5166016,0.12207031,-2.9296875,0.0,0.0,0.0,-92.84546,16.380615,-77.404175
1768032447209,-0.24560547,-0.95654297,0.0063476562,4.5166016,0.12207031,-2.9296875,0.0,0.0,0.0,-91.6864,16.89148,-77.53052
1768032447297,-0.27929688,-0.96972656,-0.025878906,-3.112793,-7.385254,3.7841797,0.0,0.0,0.0,-91.6864,16.89148,-77.53052
1768032447308,-0.27929688,-0.96972656,-0.025878906,-3.112793,-7.385254,3.7841797,0.0,0.0,0.0,-91.30188,16.66626,-77.23938
1768032447397,-0.23779297,-0.9433594,0.020996094,4.699707,-12.756348,-12.634277,0.0,0.0,0.0,-91.30188,16.66626,-77.23938
1768032447408,-0.23779297,-0.9433594,0.020996094,4.699707,-12.756348,-12.634277,0.0,0.0,0.0,-90.92285,15.897217,-76.2616
1768032447496,-0.22558594,-0.94140625,0.06738281,5.554199,-15.380859,-5.92041,0.0,0.0,0.0,-90.92285,15.897217,-76.2616
1768032447508,-0.22558594,-0.94140625,0.06738281,5.554199,-15.380859,-5.92041,0.0,0.0,0.0,-89.818726,15.342407,-74.67407
1768032447596,-0.26611328,-1.1015625,-0.1586914,45.959473,2.9296875,-33.813477,0.0,0.0,0.0,-89.818726,15.342407,-74.67407
1768032447608,-0.26611328,-1.1015625,-0.1586914,45.959473,2.9296875,-33.813477,0.0,0.0,0.0,-87.73132,14.216309,-72.63611
1768032447696,-0.20410156,-0.9399414,0.09277344,13.916016,-0.4272461,-12.939453,0.0,0.0,0.0,-87.73132,14.216309,-72.63611
1768032447707,-0.20410156,-0.9399414,0.09277344,13.916016,-0.4272461,-12.939453,0.0,0.0,0.0,-86.09436,13.293457,-72.23511
1768032447795,-0.19384766,-0.9477539,0.09716797,3.4179688,-3.90625,-11.474609,0.0,0.0,0.0,-86.09436,13.293457,-72.23511
1768032447807,-0.19384766,-0.9477539,0.09716797,3.4179688,-3.90625,-11.474609,0.0,0.0,0.0,-86.02295,12.090454,-72.97119
1768032447895,-0.2548828,-1.0146484,0.075683594,10.7421875,-15.014648,-1.7089844,0.0,0.0,0.0,-86.02295,12.090454,-72.97119
1768032447907,-0.2548828,-1.0146484,0.075683594,10.7421875,-15.014648,-1.7089844,0.0,0.0,0.0,-84.79797,11.68396,-71.44409
1768032447995,-0.12548828,-0.99853516,0.08496094,21.911621,-9.765625,-6.225586,0.0,0.0,0.0,-84.79797,11.68396,-71.44409
1768032448006,-0.12548828,-0.99853516,0.08496094,21.911621,-9.765625,-6.225586,0.0,0.0,0.0,-82.073364,10.535889,-70.09827
1768032448095,-0.13964844,-0.93896484,0.13085938,34.606934,-3.90625,-7.446289,0.0,0.0,0.0,-82.073364,10.535889,-70.09827
1768032448106,-0.13964844,-0.93896484,0.13085938,34.606934,-3.90625,-7.446289,0.0,0.0,0.0,-79.28284,9.464722,-69.40613
1768032448194,-0.04736328,-0.9863281,0.19189453,13.000488,1.6479492,-10.681152,0.0,0.0,0.0,-79.28284,9.464722,-69.40613
1768032448206,-0.04736328,-0.9863281,0.19189453,13.000488,1.6479492,-10.681152,0.0,0.0,0.0,-78.56323,8.063965,-71.18591
1768032448295,-0.079589844,-0.93896484,0.25830078,-2.9907227,-2.0141602,-3.2348633,0.0,0.0,0.0,-78.56323,8.063965,-71.18591
1768032448306,-0.079589844,-0.93896484,0.25830078,-2.9907227,-2.0141602,-3.2348633,0.0,0.0,0.0,-77.975464,7.300415,-70.911255
1768032448394,-0.09277344,-0.9707031,0.21826172,-0.4272461,1.5258789,4.760742,0.0,0.0,0.0,-77.975464,7.300415,-70.911255
1768032448406,-0.09277344,-0.9707031,0.21826172,-0.4272461,1.5258789,4.760742,0.0,0.0,0.0,-78.09082,7.3883057,-70.82886
1768032448494,-0.12548828,-0.9951172,0.19726562,-1.5258789,-4.9438477,8.666992,0.0,0.0,0.0,-78.09082,7.3883057,-70.82886
1768032448506,-0.12548828,-0.9951172,0.19726562,-1.5258789,-4.9438477,8.666992,0.0,0.0,0.0,-78.36548,7.8826904,-70.48828
1768032448593,-0.15576172,-0.98876953,0.21923828,7.5683594,-9.155273,1.159668,0.0,0.0,0.0,-78.36548,7.8826904,-70.48828
1768032448605,-0.15576172,-0.98876953,0.21923828,7.5683594,-9.155273,1.159668,0.0,0.0,0.0,-77.91504,7.970581,-69.44458
1768032448693,-0.1328125,-0.9604492,0.21240234,4.5776367,3.8452148,-4.0893555,0.0,0.0,0.0,-77.91504,7.970581,-69.44458
1768032448704,-0.1328125,-0.9604492,0.21240234,4.5776367,3.8452148,-4.0893555,0.0,0.0,0.0,-77.34924,7.6464844,-69.29077
1768032448793,-0.08691406,-0.9472656,0.2578125,1.159668,-3.4179688,1.7089844,0.0,0.0,0.0,-77.34924,7.6464844,-69.29077
1768032448804,-0.08691406,-0.9472656,0.2578125,1.159668,-3.4179688,1.7089844,0.0,0.0,0.0,-77.18445,7.5805664,-69.52698
1768032448892,-0.12402344,-0.96972656,0.21826172,-5.9814453,1.2817383,0.061035156,0.0,0.0,0.0,-77.18445,7.5805664,-69.52698
1768032448904,-0.12402344,-0.96972656,0.21826172,-5.9814453,1.2817383,0.061035156,0.0,0.0,0.0,-77.316284,7.564087,-69.30725
1768032448992,-0.114746094,-0.98046875,0.20263672,-3.6621094,4.0283203,-1.7700195,0.0,0.0,0.0,-77.316284,7.564087,-69.30725
1768032449004,-0.114746094,-0.98046875,0.20263672,-3.6621094,4.0283203,-1.7700195,0.0,0.0,0.0,-77.84363,7.492676,-69.73572
1768032449092,-0.11230469,-0.97265625,0.19726562,-1.5258789,0.12207031,-0.36621094,0.0,0.0,0.0,-77.84363,7.492676,-69.73572
1768032449103,-0.11230469,-0.97265625,0.19726562,-1.5258789,0.12207031,-0.36621094,0.0,0.0,0.0,-78.06885,7.3443604,-69.906006
1768032449192,-0.118652344,-0.9716797,0.19726562,-1.6479492,1.4648438,0.36621094,0.0,0.0,0.0,-78.06885,7.3443604,-69.906006
1768032449203,-0.118652344,-0.9716797,0.19726562,-1.6479492,1.4648438,0.36621094,0.0,0.0,0.0,-78.25012,7.3498535,-69.94995
1768032449291,-0.1274414,-0.96435547,0.20507812,-0.6713867,0.12207031,1.0375977,0.0,0.0,0.0,-78.25012,7.3498535,-69.94995
1768032449303,-0.1274414,-0.96435547,0.20507812,-0.6713867,0.12207031,1.0375977,0.0,0.0,0.0,-78.32703,7.3114014,-70.05432
1768032449391,-0.100097656,-0.9716797,0.1953125,-1.3427734,-0.91552734,1.159668,0.0,0.0,0.0,-78.32703,7.3114014,-70.05432
1768032449402,-0.100097656,-0.9716797,0.1953125,-1.3427734,-0.91552734,1.159668,0.0,0.0,0.0,-78.37097,7.404785,-70.00488
1768032449491,-0.122558594,-0.96728516,0.19921875,-0.91552734,0.24414062,4.699707,0.0,0.0,0.0,-78.37097,7.404785,-70.00488
1768032449502,-0.122558594,-0.96728516,0.19921875,-0.91552734,0.24414062,4.699707,0.0,0.0,0.0,-78.47534,7.668457,-69.87854
1768032449590,-0.1328125,-0.9667969,0.18603516,-0.61035156,2.6855469,3.479004,0.0,0.0,0.0,-78.47534,7.668457,-69.87854
1768032449602,-0.1328125,-0.9667969,0.18603516,-0.61035156,2.6855469,3.479004,0.0,0.0,0.0,-78.5907,7.998047,-69.9884
1768032449690,-0.14013672,-0.9633789,0.19921875,-0.061035156,2.746582,1.4648438,0.0,0.0,0.0,-78.5907,7.998047,-69.9884
1768032449702,-0.14013672,-0.9633789,0.19921875,-0.061035156,2.746582,1.4648438,0.0,0.0,0.0,-78.62366,8.217773,-70.19165
1768032449790,-0.13476562,-0.9736328,0.18701172,-0.36621094,4.3945312,2.0751953,0.0,0.0,0.0,-78.62366,8.217773,-70.19165
1768032449801,-0.13476562,-0.9736328,0.18701172,-0.36621094,4.3945312,2.0751953,0.0,0.0,0.0,-78.72803,8.481445,-70.35095
1768032449890,-0.14257812,-0.97265625,0.19433594,-1.0375977,0.0,3.6010742,0.0,0.0,0.0,-78.72803,8.481445,-70.35095
1768032449901,-0.14257812,-0.97265625,0.19433594,-1.0375977,0.0,3.6010742,0.0,0.0,0.0,-78.80493,8.761597,-70.60364
1768032449989,-0.16064453,-0.9736328,0.18115234,-3.6010742,-3.479004,4.5166016,0.0,0.0,0.0,-78.80493,8.761597,-70.60364
1768032450001,-0.16064453,-0.9736328,0.18115234,-3.6010742,-3.479004,4.5166016,0.0,0.0,0.0,-78.95325,9.085693,-70.252075
1768032450089,-0.15625,-0.97216797,0.1875,-3.4179688,0.30517578,-0.48828125,0.0,0.0,0.0,-78.95325,9.085693,-70.252075
1768032450101,-0.15625,-0.97216797,0.1875,-3.4179688,0.30517578,-0.48828125,0.0,0.0,0.0,-79.18945,9.217529,-70.059814
1768032450189,-0.1508789,-0.9663086,0.16015625,-2.8686523,1.5869141,-0.18310547,0.0,0.0,0.0,-79.18945,9.217529,-70.059814
1768032450200,-0.1508789,-0.9663086,0.16015625,-2.8686523,1.5869141,-0.18310547,0.0,0.0,0.0,-79.61792,9.085693,-70.21912
1768032450288,-0.15283203,-0.9819336,0.16699219,-6.3476562,-0.9765625,8.544922,0.0,0.0,0.0,-79.61792,9.085693,-70.21912
1768032450300,-0.15283203,-0.9819336,0.16699219,-6.3476562,-0.9765625,8.544922,0.0,0.0,0.0,-79.958496,9.503174,-70.18616
1768032450388,-0.203125,-0.9628906,0.16748047,-19.226074,-9.521484,5.1879883,0.0,0.0,0.0,-79.958496,9.503174,-70.18616
1768032450400,-0.203125,-0.9628906,0.16748047,-19.226074,-9.521484,5.1879883,0.0,0.0,0.0,-81.15051,10.288696,-69.49951
1768032450488,-0.15625,-0.9902344,0.14990234,-12.390137,-4.760742,-3.4179688,0.0,0.0,0.0,-81.15051,10.288696,-69.49951
1768032450499,-0.15625,-0.9902344,0.14990234,-12.390137,-4.760742,-3.4179688,0.0,0.0,0.0,-82.42493,10.233765,-68.82385
1768032450587,-0.17138672,-0.9941406,0.088378906,-10.620117,-1.4038086,-2.9296875,0.0,0.0,0.0,-82.42493,10.233765,-68.82385
1768032450599,-0.17138672,-0.9941406,0.088378906,-10.620117,-1.4038086,-2.9296875,0.0,0.0,0.0,-83.655396,9.887695,-68.43933
1768032450687,-0.1665039,-0.9716797,0.07861328,-20.202637,2.5024414,-0.30517578,0.0,0.0,0.0,-83.655396,9.887695,-68.43933
1768032450699,-0.1665039,-0.9716797,0.07861328,-20.202637,2.5024414,-0.30517578,0.0,0.0,0.0,-84.83093,9.563599,-68.57117
1768032450787,-0.17285156,-0.9873047,0.030273438,-11.047363,4.3945312,-4.1503906,0.0,0.0,0.0,-84.83093,9.563599,-68.57117
1768032450798,-0.17285156,-0.9873047,0.030273438,-11.047363,4.3945312,-4.1503906,0.0,0.0,0.0,-86.74805,9.415283,-68.85681
1768032450887,-0.14257812,-0.9819336,0.0390625,-6.1035156,1.5869141,-3.540039,0.0,0.0,0.0,-86.74805,9.415283,-68.85681
1768032450898,-0.14257812,-0.9819336,0.0390625,-6.1035156,1.5869141,-3.540039,0.0,0.0,0.0,-87.48413,9.074707,-69.30725
1768032450987,-0.15234375,-0.9975586,0.024414062,-11.108398,3.1738281,-1.2817383,0.0,0.0,0.0,-87.48413,9.074707,-69.30725
1768032450998,-0.15234375,-0.9975586,0.024414062,-11.108398,3.1738281,-1.2817383,0.0,0.0,0.0,-88.38501,8.8220215,-69.49951
1768032451086,-0.14550781,-0.98291016,0.0014648438,-6.0424805,3.7231445,0.36621094,0.0,0.0,0.0,-88.38501,8.8220215,-69.49951
1768032451098,-0.14550781,-0.98291016,0.0014648438,-6.0424805,3.7231445,0.36621094,0.0,0.0,0.0,-89.15405,8.684692,-69.8291
1768032451186,-0.1430664,-0.9897461,0.0107421875,-6.652832,-0.12207031,0.36621094,0.0,0.0,0.0,-89.15405,8.684692,-69.8291
1768032451197,-0.1430664,-0.9897461,0.0107421875,-6.652832,-0.12207031,0.36621094,0.0,0.0,0.0,-89.70337,8.701172,-70.03235
1768032451286,-0.1459961,-0.9926758,-0.019042969,-8.483887,-0.79345703,1.6479492,0.0,0.0,0.0,-89.70337,8.701172,-70.03235
1768032451297,-0.1459961,-0.9926758,-0.019042969,-8.483887,-0.79345703,1.6479492,0.0,0.0,0.0,-90.46692,8.800049,-69.91699
1768032451385,-0.14892578,-0.9946289,-0.032226562,-5.126953,1.7089844,1.4038086,0.0,0.0,0.0,-90.46692,8.800049,-69.91699
1768032451397,-0.14892578,-0.9946289,-0.032226562,-5.126953,1.7089844,1.4038086,0.0,0.0,0.0,-91.08765,8.87146,-69.96094
1768032451485,-0.15332031,-0.98535156,-0.049804688,-4.3945312,0.7324219,1.5258789,0.0,0.0,0.0,-91.08765,8.87146,-69.96094
1768032451497,-0.15332031,-0.98535156,-0.049804688,-4.3945312,0.7324219,1.5258789,0.0,0.0,0.0,-91.59851,8.948364,-70.08179
1768032451585,-0.1538086,-0.9838867,-0.04736328,-4.4555664,0.48828125,0.6713867,0.0,0.0,0.0,-91.59851,8.948364,-70.08179
1768032451596,-0.1538086,-0.9838867,-0.04736328,-4.4555664,0.48828125,0.6713867,0.0,0.0,0.0,-92.13684,9.052734,-70.19165
1768032451684,-0.15478516,-0.99072266,-0.056640625,-1.6479492,-1.2207031,0.48828125,0.0,0.0,0.0,-92.13684,9.052734,-70.19165
1768032451696,-0.15478516,-0.99072266,-0.056640625,-1.6479492,-1.2207031,0.48828125,0.0,0.0,0.0,-92.38953,9.047241,-70.08728
1768032451784,-0.16308594,-0.98535156,-0.046875,-4.8217773,-1.5869141,1.7700195,0.0,0.0,0.0,-92.38953,9.047241,-70.08728
1768032451795,-0.16308594,-0.98535156,-0.046875,-4.8217773,-1.5869141,1.7700195,0.0,0.0,0.0,-92.631226,9.168091,-69.89502
1768032451884,-0.15332031,-0.9941406,-0.06347656,-11.352539,2.5024414,1.3427734,0.0,0.0,0.0,-92.631226,9.168091,-69.89502
