timestamp,accX,accY,accZ,gyroX,gyroY,gyroZ,magX,magY,magZ,roll,pitch,yaw
1765589665364,-0.93310547,0.29345703,-0.21533203,0.7324219,-0.36621094,0.0,0.0,0.0,0.0,126.62842,68.50525,-160.72449
1765589665376,-0.93310547,0.29345703,-0.21533203,0.7324219,-0.36621094,0.0,0.0,0.0,0.0,126.65588,68.499756,-160.69153
1765589665463,-0.93652344,0.29589844,-0.21923828,-0.36621094,0.48828125,0.0,0.0,0.0,0.0,126.65588,68.499756,-160.69153
1765589665475,-0.93652344,0.29589844,-0.21923828,-0.36621094,0.48828125,0.0,0.0,0.0,0.0,126.68335,68.49426,-160.69153
1765589665563,-0.93310547,0.2915039,-0.21679688,0.0,0.0,0.0,0.0,0.0,0.0,126.68335,68.49426,-160.69153
1765589665575,-0.93310547,0.2915039,-0.21679688,0.0,0.0,0.0,0.0,0.0,0.0,126.73279,68.47778,-160.62561
1765589665663,-0.93408203,0.29296875,-0.21484375,0.0,0.30517578,0.0,0.0,0.0,0.0,126.73279,68.47778,-160.62561
1765589665675,-0.93408203,0.29296875,-0.21484375,0.0,0.30517578,0.0,0.0,0.0,0.0,126.743774,68.47778,-160.65857
1765589665763,-0.9355469,0.2915039,-0.21875,0.61035156,-0.7324219,-0.24414062,0.0,0.0,0.0,126.743774,68.47778,-160.65857
1765589665774,-0.9355469,0.2915039,-0.21875,0.61035156,-0.7324219,-0.24414062,0.0,0.0,0.0,126.82617,68.48877,-160.5597
1765589665862,-0.93652344,0.29248047,-0.21142578,0.24414062,0.79345703,0.061035156,0.0,0.0,0.0,126.82617,68.48877,-160.5597
1765589665874,-0.93652344,0.29248047,-0.21142578,0.24414062,0.79345703,0.061035156,0.0,0.0,0.0,126.95801,68.47778,-160.51575
1765589665962,-0.9355469,0.2919922,-0.21484375,1.4038086,-1.0986328,0.48828125,0.0,0.0,0.0,126.95801,68.47778,-160.51575
1765589665974,-0.9355469,0.2919922,-0.21484375,1.4038086,-1.0986328,0.48828125,0.0,0.0,0.0,126.87561,68.51074,-160.69153
1765589666062,-0.9272461,0.296875,-0.22314453,0.30517578,1.0986328,0.24414062,0.0,0.0,0.0,126.87561,68.51074,-160.69153
1765589666073,-0.9272461,0.296875,-0.22314453,0.30517578,1.0986328,0.24414062,0.0,0.0,0.0,126.82068,68.48877,-160.99365
1765589666162,-0.9379883,0.2915039,-0.21728516,-0.9765625,0.30517578,-0.4272461,0.0,0.0,0.0,126.82068,68.48877,-160.99365
1765589666173,-0.9379883,0.2915039,-0.21728516,-0.9765625,0.30517578,-0.4272461,0.0,0.0,0.0,127.00195,68.43384,-160.72449
1765589666261,-0.9350586,0.29589844,-0.21484375,0.5493164,-0.24414062,0.12207031,0.0,0.0,0.0,127.00195,68.43384,-160.72449
1765589666273,-0.9350586,0.29589844,-0.21484375,0.5493164,-0.24414062,0.12207031,0.0,0.0,0.0,127.01843,68.444824,-160.77393
1765589666361,-0.9345703,0.29638672,-0.2163086,-0.061035156,-0.30517578,0.0,0.0,0.0,0.0,127.01843,68.444824,-160.77393
1765589666372,-0.9345703,0.29638672,-0.2163086,-0.061035156,-0.30517578,0.0,0.0,0.0,0.0,126.903076,68.4668,-160.91125
1765589666461,-0.9345703,0.29296875,-0.21582031,0.36621094,-0.5493164,0.30517578,0.0,0.0,0.0,126.903076,68.4668,-160.91125
1765589666472,-0.9345703,0.29296875,-0.21582031,0.36621094,-0.5493164,0.30517578,0.0,0.0,0.0,126.78772,68.47229,-161.00464
1765589666560,-0.9355469,0.2939453,-0.21777344,0.0,0.0,0.24414062,0.0,0.0,0.0,126.78772,68.47229,-161.00464
1765589666572,-0.9355469,0.2939453,-0.21777344,0.0,0.0,0.24414062,0.0,0.0,0.0,126.69983,68.47229,-161.12549
1765589666660,-0.93359375,0.2915039,-0.21679688,-0.48828125,-0.12207031,-0.24414062,0.0,0.0,0.0,126.69983,68.47229,-161.12549
1765589666672,-0.93359375,0.2915039,-0.21679688,-0.48828125,-0.12207031,-0.24414062,0.0,0.0,0.0,126.68884,68.47778,-161.08154
1765589666760,-0.93359375,0.29882812,-0.2109375,0.18310547,-0.24414062,0.12207031,0.0,0.0,0.0,126.68884,68.47778,-161.08154
1765589666771,-0.93359375,0.29882812,-0.2109375,0.18310547,-0.24414062,0.12207031,0.0,0.0,0.0,126.61194,68.49426,-161.2024
1765589666859,-0.9355469,0.2919922,-0.21728516,-0.24414062,0.0,-0.18310547,0.0,0.0,0.0,126.61194,68.49426,-161.2024
1765589666871,-0.9355469,0.2919922,-0.21728516,-0.24414062,0.0,-0.18310547,0.0,0.0,0.0,126.622925,68.47778,-161.10901
1765589666959,-0.93603516,0.29589844,-0.20898438,0.0,-0.4272461,0.12207031,0.0,0.0,0.0,126.622925,68.47778,-161.10901
1765589666971,-0.93603516,0.29589844,-0.20898438,0.0,-0.4272461,0.12207031,0.0,0.0,0.0,126.54053,68.49426,-161.2024
1765589667059,-0.9355469,0.2939453,-0.21289062,0.30517578,-0.36621094,0.12207031,0.0,0.0,0.0,126.54053,68.49426,-161.2024
1765589667071,-0.9355469,0.2939453,-0.21289062,0.30517578,-0.36621094,0.12207031,0.0,0.0,0.0,126.46362,68.499756,-161.23535
1765589667159,-0.93115234,0.29638672,-0.21240234,-0.48828125,0.061035156,0.0,0.0,0.0,0.0,126.46362,68.499756,-161.23535
1765589667170,-0.93115234,0.29638672,-0.21240234,-0.48828125,0.061035156,0.0,0.0,0.0,0.0,126.37024,68.50525,-161.34521
1765589667259,-0.9394531,0.29345703,-0.2084961,0.24414062,-0.7324219,0.12207031,0.0,0.0,0.0,126.37024,68.50525,-161.34521
1765589667270,-0.9394531,0.29345703,-0.2084961,0.24414062,-0.7324219,0.12207031,0.0,0.0,0.0,126.37024,68.49426,-161.29028
1765589667358,-0.9316406,0.29541016,-0.20751953,-0.5493164,-0.7324219,-0.12207031,0.0,0.0,0.0,126.37024,68.49426,-161.29028
1765589667370,-0.9316406,0.29541016,-0.20751953,-0.5493164,-0.7324219,-0.12207031,0.0,0.0,0.0,126.02417,68.57666,-161.6803
1765589667458,-0.9379883,0.28857422,-0.21484375,1.0986328,-0.8544922,0.061035156,0.0,0.0,0.0,126.02417,68.57666,-161.6803
1765589667469,-0.9379883,0.28857422,-0.21484375,1.0986328,-0.8544922,0.061035156,0.0,0.0,0.0,125.94177,68.620605,-161.64185
1765589667558,-0.9316406,0.30029297,-0.21044922,-1.3427734,3.2348633,-0.18310547,0.0,0.0,0.0,125.94177,68.620605,-161.64185
1765589667569,-0.9316406,0.30029297,-0.21044922,-1.3427734,3.2348633,-0.18310547,0.0,0.0,0.0,126.25488,68.48877,-161.46057
1765589667657,-0.94384766,0.29638672,-0.21191406,0.0,-2.6245117,-0.061035156,0.0,0.0,0.0,126.25488,68.48877,-161.46057
1765589667669,-0.94384766,0.29638672,-0.21191406,0.0,-2.6245117,-0.061035156,0.0,0.0,0.0,126.221924,68.516235,-161.32324
1765589667757,-0.92871094,0.29248047,-0.21826172,-0.18310547,-0.12207031,-0.061035156,0.0,0.0,0.0,126.221924,68.516235,-161.32324
1765589667769,-0.92871094,0.29248047,-0.21826172,-0.18310547,-0.12207031,-0.061035156,0.0,0.0,0.0,125.95276,68.59314,-161.56494
1765589667857,-0.93652344,0.29296875,-0.20361328,-0.7324219,-0.4272461,-0.48828125,0.0,0.0,0.0,125.95276,68.59314,-161.56494
1765589667868,-0.93652344,0.29296875,-0.20361328,-0.7324219,-0.4272461,-0.48828125,0.0,0.0,0.0,125.930786,68.59863,-161.6034
1765589667956,-0.94091797,0.29882812,-0.21386719,-0.6713867,-1.5258789,-0.30517578,0.0,0.0,0.0,125.930786,68.59863,-161.6034
1765589667968,-0.94091797,0.29882812,-0.21386719,-0.6713867,-1.5258789,-0.30517578,0.0,0.0,0.0,125.72754,68.69751,-161.80664
1765589668056,-0.9326172,0.29345703,-0.19970703,-1.4648438,1.5258789,-0.18310547,0.0,0.0,0.0,125.72754,68.69751,-161.80664
1765589668068,-0.9326172,0.29345703,-0.19970703,-1.4648438,1.5258789,-0.18310547,0.0,0.0,0.0,125.80994,68.653564,-161.75171
1765589668156,-0.94433594,0.29345703,-0.20214844,0.6713867,-0.7324219,0.061035156,0.0,0.0,0.0,125.80994,68.653564,-161.75171
1765589668167,-0.94433594,0.29345703,-0.20214844,0.6713867,-0.7324219,0.061035156,0.0,0.0,0.0,125.875854,68.653564,-161.62537
1765589668256,-0.9296875,0.29541016,-0.20898438,0.18310547,0.61035156,0.12207031,0.0,0.0,0.0,125.875854,68.653564,-161.62537
1765589668267,-0.9296875,0.29541016,-0.20898438,0.18310547,0.61035156,0.12207031,0.0,0.0,0.0,125.57373,68.75244,-161.98792
1765589668355,-0.9350586,0.29638672,-0.2084961,0.061035156,0.061035156,0.0,0.0,0.0,0.0,125.57373,68.75244,-161.98792
1765589668367,-0.9350586,0.29638672,-0.2084961,0.061035156,0.061035156,0.0,0.0,0.0,0.0,125.650635,68.71948,-161.93848
1765589668455,-0.9370117,0.29589844,-0.20800781,0.9765625,-1.0986328,0.36621094,0.0,0.0,0.0,125.650635,68.71948,-161.93848
1765589668466,-0.9370117,0.29589844,-0.20800781,0.9765625,-1.0986328,0.36621094,0.0,0.0,0.0,125.62317,68.71948,-161.99341
1765589668555,-0.94189453,0.2993164,-0.2006836,-0.18310547,-0.8544922,0.30517578,0.0,0.0,0.0,125.62317,68.71948,-161.99341
1765589668566,-0.94189453,0.2993164,-0.2006836,-0.18310547,-0.8544922,0.30517578,0.0,0.0,0.0,125.37598,68.73047,-162.30103
1765589668655,-0.9301758,0.28857422,-0.21533203,-0.48828125,2.380371,0.18310547,0.0,0.0,0.0,125.37598,68.73047,-162.30103
1765589668666,-0.9301758,0.28857422,-0.21533203,-0.48828125,2.380371,0.18310547,0.0,0.0,0.0,125.55176,68.670044,-162.05383
1765589668754,-0.9404297,0.2998047,-0.20263672,-3.2958984,3.8452148,-0.6713867,0.0,0.0,0.0,125.55176,68.670044,-162.05383
1765589668766,-0.9404297,0.2998047,-0.20263672,-3.2958984,3.8452148,-0.6713867,0.0,0.0,0.0,125.83191,68.60962,-161.77368
1765589668854,-0.9238281,0.2998047,-0.21826172,-0.6713867,0.4272461,-0.30517578,0.0,0.0,0.0,125.83191,68.60962,-161.77368
1765589668865,-0.9238281,0.2998047,-0.21826172,-0.6713867,0.4272461,-0.30517578,0.0,0.0,0.0,125.64514,68.64807,-161.85608
1765589668954,-0.93847656,0.29052734,-0.21533203,2.8686523,-1.953125,0.30517578,0.0,0.0,0.0,125.64514,68.64807,-161.85608
1765589668965,-0.93847656,0.29052734,-0.21533203,2.8686523,-1.953125,0.30517578,0.0,0.0,0.0,125.92529,68.58765,-161.46057
1765589669053,-0.9394531,0.296875,-0.21142578,-0.36621094,1.0375977,-0.48828125,0.0,0.0,0.0,125.92529,68.58765,-161.46057
1765589669065,-0.9394531,0.296875,-0.21142578,-0.36621094,1.0375977,-0.48828125,0.0,0.0,0.0,126.21643,68.52173,-161.25732
1765589669153,-0.9399414,0.29833984,-0.20507812,-1.3427734,0.36621094,-0.61035156,0.0,0.0,0.0,126.21643,68.52173,-161.25732
1765589669165,-0.9399414,0.29833984,-0.20507812,-1.3427734,0.36621094,-0.61035156,0.0,0.0,0.0,126.31531,68.532715,-161.10901
1765589669253,-0.9370117,0.29492188,-0.21484375,2.1362305,-1.4648438,0.61035156,0.0,0.0,0.0,126.31531,68.532715,-161.10901
1765589669264,-0.9370117,0.29492188,-0.21484375,2.1362305,-1.4648438,0.61035156,0.0,0.0,0.0,126.14502,68.604126,-161.23535
1765589669352,-0.93603516,0.28955078,-0.21582031,-0.18310547,1.2207031,-0.18310547,0.0,0.0,0.0,126.14502,68.604126,-161.23535
1765589669364,-0.93603516,0.28955078,-0.21582031,-0.18310547,1.2207031,-0.18310547,0.0,0.0,0.0,126.44165,68.516235,-160.97717
1765589669452,-0.94091797,0.29785156,-0.20410156,-0.79345703,-0.24414062,-0.4272461,0.0,0.0,0.0,126.44165,68.516235,-160.97717
1765589669464,-0.94091797,0.29785156,-0.20410156,-0.79345703,-0.24414062,-0.4272461,0.0,0.0,0.0,126.55701,68.49426,-160.96619
1765589669552,-0.9321289,0.2939453,-0.21484375,0.24414062,1.159668,0.30517578,0.0,0.0,0.0,126.55701,68.49426,-160.96619
1765589669563,-0.9321289,0.2939453,-0.21484375,0.24414062,1.159668,0.30517578,0.0,0.0,0.0,126.44165,68.549194,-161.0376
1765589669652,-0.93066406,0.29003906,-0.21484375,2.746582,-0.4272461,0.24414062,0.0,0.0,0.0,126.44165,68.549194,-161.0376
1765589669663,-0.93066406,0.29003906,-0.21484375,2.746582,-0.4272461,0.24414062,0.0,0.0,0.0,126.54053,68.516235,-161.04309
1765589669751,-0.9355469,0.3022461,-0.21289062,0.36621094,-0.12207031,-0.5493164,0.0,0.0,0.0,126.54053,68.516235,-161.04309
1765589669763,-0.9355469,0.3022461,-0.21289062,0.36621094,-0.12207031,-0.5493164,0.0,0.0,0.0,126.75476,68.52722,-160.92773
1765589669851,-0.94189453,0.29638672,-0.20703125,-0.4272461,-0.5493164,0.12207031,0.0,0.0,0.0,126.75476,68.52722,-160.92773
1765589669863,-0.94189453,0.29638672,-0.20703125,-0.4272461,-0.5493164,0.12207031,0.0,0.0,0.0,126.74927,68.532715,-160.82886
1765589669951,-0.9194336,0.28857422,-0.2265625,-2.0141602,2.9296875,-0.7324219,0.0,0.0,0.0,126.74927,68.532715,-160.82886
1765589669962,-0.9194336,0.28857422,-0.2265625,-2.0141602,2.9296875,-0.7324219,0.0,0.0,0.0,126.60095,68.549194,-160.93872
1765589670051,-0.93896484,0.2915039,-0.2109375,-1.4038086,-0.36621094,-1.0375977,0.0,0.0,0.0,126.60095,68.549194,-160.93872
1765589670062,-0.93896484,0.2915039,-0.2109375,-1.4038086,-0.36621094,-1.0375977,0.0,0.0,0.0,126.848145,68.532715,-160.62012
1765589670150,-0.92578125,0.29345703,-0.2163086,2.5024414,-0.6713867,0.91552734,0.0,0.0,0.0,126.848145,68.532715,-160.62012
1765589670162,-0.92578125,0.29345703,-0.2163086,2.5024414,-0.6713867,0.91552734,0.0,0.0,0.0,126.66687,68.620605,-160.77942
1765589670250,-0.93603516,0.28955078,-0.22314453,0.061035156,0.61035156,0.12207031,0.0,0.0,0.0,126.66687,68.620605,-160.77942
1765589670261,-0.93603516,0.28955078,-0.22314453,0.061035156,0.61035156,0.12207031,0.0,0.0,0.0,126.82068,68.51074,-160.6366
1765589670350,-0.9379883,0.29296875,-0.2084961,-0.61035156,-0.36621094,-0.48828125,0.0,0.0,0.0,126.82068,68.51074,-160.6366
1765589670362,-0.9379883,0.29296875,-0.2084961,-0.61035156,-0.36621094,-0.48828125,0.0,0.0,0.0,126.89758,68.499756,-160.5542
1765589670449,-0.9316406,0.2919922,-0.21582031,0.36621094,1.7089844,0.12207031,0.0,0.0,0.0,126.89758,68.499756,-160.5542
1765589670461,-0.9316406,0.2919922,-0.21582031,0.36621094,1.7089844,0.12207031,0.0,0.0,0.0,127.09534,68.4613,-160.36743
1765589670549,-0.93310547,0.296875,-0.21923828,0.0,0.8544922,-0.12207031,0.0,0.0,0.0,127.09534,68.4613,-160.36743
1765589670561,-0.93310547,0.296875,-0.21923828,0.0,0.8544922,-0.12207031,0.0,0.0,0.0,127.26013,68.43384,-160.21362
1765589670649,-0.9355469,0.2919922,-0.21875,-0.061035156,-0.7324219,0.0,0.0,0.0,0.0,127.26013,68.43384,-160.21362
1765589670660,-0.9355469,0.2919922,-0.21875,-0.061035156,-0.7324219,0.0,0.0,0.0,0.0,127.22717,68.43384,-160.20813
1765589670749,-0.9355469,0.2915039,-0.2163086,-0.12207031,-0.36621094,0.0,0.0,0.0,0.0,127.22717,68.43384,-160.20813
1765589670760,-0.9355469,0.2915039,-0.2163086,-0.12207031,-0.36621094,0.0,0.0,0.0,0.0,127.161255,68.444824,-160.27405
1765589670848,-0.9370117,0.29492188,-0.2211914,-0.18310547,0.061035156,0.0,0.0,0.0,0.0,127.161255,68.444824,-160.27405
1765589670860,-0.9370117,0.29492188,-0.2211914,-0.18310547,0.061035156,0.0,0.0,0.0,0.0,127.09534,68.47229,-160.37292
1765589670948,-0.93359375,0.28857422,-0.21972656,-0.7324219,0.36621094,-0.24414062,0.0,0.0,0.0,127.09534,68.47229,-160.37292
1765589670959,-0.93359375,0.28857422,-0.21972656,-0.7324219,0.36621094,-0.24414062,0.0,0.0,0.0,127.13379,68.4613,-160.28503
1765589671048,-0.9355469,0.296875,-0.21386719,0.61035156,-0.4272461,0.12207031,0.0,0.0,0.0,127.13379,68.4613,-160.28503
1765589671059,-0.9355469,0.296875,-0.21386719,0.61035156,-0.4272461,0.12207031,0.0,0.0,0.0,127.073364,68.48328,-160.42786
1765589671147,-0.9350586,0.29296875,-0.2211914,-0.24414062,0.18310547,-0.061035156,0.0,0.0,0.0,127.073364,68.48328,-160.42786
1765589671159,-0.9350586,0.29296875,-0.2211914,-0.24414062,0.18310547,-0.061035156,0.0,0.0,0.0,127.11731,68.4613,-160.35095
1765589671247,-0.93896484,0.2919922,-0.21289062,0.12207031,0.24414062,0.0,0.0,0.0,0.0,127.11731,68.4613,-160.35095
1765589671259,-0.93896484,0.2919922,-0.21289062,0.12207031,0.24414062,0.0,0.0,0.0,0.0,127.18323,68.45032,-160.3125
1765589671347,-0.93408203,0.29492188,-0.22070312,0.18310547,-0.12207031,0.0,0.0,0.0,0.0,127.18323,68.45032,-160.3125
1765589671358,-0.93408203,0.29492188,-0.22070312,0.18310547,-0.12207031,0.0,0.0,0.0,0.0,127.144775,68.45581,-160.40588
1765589671447,-0.93603516,0.2919922,-0.21972656,-0.8544922,0.24414062,-0.30517578,0.0,0.0,0.0,127.144775,68.45581,-160.40588
1765589671459,-0.93603516,0.2919922,-0.21972656,-0.8544922,0.24414062,-0.30517578,0.0,0.0,0.0,127.16675,68.45581,-160.32898
1765589671546,-0.93359375,0.2939453,-0.21582031,0.4272461,-0.48828125,0.12207031,0.0,0.0,0.0,127.16675,68.45581,-160.32898
1765589671558,-0.93359375,0.2939453,-0.21582031,0.4272461,-0.48828125,0.12207031,0.0,0.0,0.0,127.161255,68.47229,-160.36743
1765589671646,-0.93652344,0.29101562,-0.2163086,-0.6713867,0.24414062,-0.18310547,0.0,0.0,0.0,127.161255,68.47229,-160.36743
1765589671658,-0.93652344,0.29101562,-0.2163086,-0.6713867,0.24414062,-0.18310547,0.0,0.0,0.0,127.11182,68.47778,-160.3949
1765589671746,-0.93359375,0.29248047,-0.21582031,0.48828125,-0.36621094,0.061035156,0.0,0.0,0.0,127.11182,68.47778,-160.3949
1765589671757,-0.93359375,0.29248047,-0.21582031,0.48828125,-0.36621094,0.061035156,0.0,0.0,0.0,127.08984,68.48877,-160.43335
1765589671845,-0.93310547,0.2915039,-0.21435547,0.12207031,-0.30517578,0.0,0.0,0.0,0.0,127.08984,68.48877,-160.43335
1765589671857,-0.93310547,0.2915039,-0.21435547,0.12207031,-0.30517578,0.0,0.0,0.0,0.0,127.03491,68.499756,-160.51575
1765589671948,-0.93408203,0.29345703,-0.20996094,0.24414062,0.61035156,0.0,0.0,0.0,0.0,127.03491,68.499756,-160.51575
1765589671957,-0.93408203,0.29345703,-0.20996094,0.24414062,0.61035156,0.0,0.0,0.0,0.0,127.073364,68.48877,-160.49377
1765589672045,-0.9345703,0.29248047,-0.21875,0.7324219,-0.4272461,0.0,0.0,0.0,0.0,127.073364,68.48877,-160.49377
1765589672057,-0.9345703,0.29248047,-0.21875,0.7324219,-0.4272461,0.0,0.0,0.0,0.0,127.06787,68.48877,-160.51025
1765589672145,-0.93408203,0.29003906,-0.2163086,-0.24414062,0.4272461,0.0,0.0,0.0,0.0,127.06787,68.48877,-160.51025
1765589672157,-0.93408203,0.29003906,-0.2163086,-0.24414062,0.4272461,0.0,0.0,0.0,0.0,127.08435,68.47778,-160.48279
1765589672244,-0.9355469,0.29492188,-0.21582031,0.0,0.24414062,0.0,0.0,0.0,0.0,127.08435,68.47778,-160.48279
1765589672256,-0.9355469,0.29492188,-0.21582031,0.0,0.24414062,0.0,0.0,0.0,0.0,127.09534,68.47778,-160.49927
1765589672344,-0.93359375,0.2919922,-0.21728516,0.36621094,-0.48828125,0.0,0.0,0.0,0.0,127.09534,68.47778,-160.49927
1765589672356,-0.93359375,0.2919922,-0.21728516,0.36621094,-0.48828125,0.0,0.0,0.0,0.0,127.0459,68.48877,-160.54321
1765589672444,-0.9355469,0.2919922,-0.21582031,-0.36621094,0.24414062,0.0,0.0,0.0,0.0,127.0459,68.48877,-160.54321
1765589672455,-0.9355469,0.2919922,-0.21582031,-0.36621094,0.24414062,0.0,0.0,0.0,0.0,127.073364,68.47229,-160.50476
1765589672544,-0.9345703,0.29296875,-0.2163086,0.0,0.18310547,0.0,0.0,0.0,0.0,127.073364,68.47229,-160.50476
1765589672555,-0.9345703,0.29296875,-0.2163086,0.0,0.18310547,0.0,0.0,0.0,0.0,127.06787,68.47778,-160.52673
1765589672643,-0.93359375,0.29345703,-0.2163086,0.061035156,-0.061035156,0.0,0.0,0.0,0.0,127.06787,68.47778,-160.52673
1765589672656,-0.93359375,0.29345703,-0.2163086,0.061035156,-0.061035156,0.0,0.0,0.0,0.0,127.073364,68.47229,-160.51025
1765589672743,-0.9355469,0.2915039,-0.21777344,-0.18310547,0.0,0.0,0.0,0.0,0.0,127.073364,68.47229,-160.51025
1765589672755,-0.9355469,0.2915039,-0.21777344,-0.18310547,0.0,0.0,0.0,0.0,0.0,127.05139,68.4668,-160.52124
1765589672843,-0.9350586,0.29101562,-0.22070312,0.0,-0.5493164,0.0,0.0,0.0,0.0,127.05139,68.4668,-160.52124
1765589672855,-0.9350586,0.29101562,-0.22070312,0.0,-0.5493164,0.0,0.0,0.0,0.0,127.02942,68.47229,-160.5597
1765589672942,-0.93603516,0.29248047,-0.21728516,-0.30517578,0.18310547,0.0,0.0,0.0,0.0,127.02942,68.47229,-160.5597
1765589672954,-0.93603516,0.29248047,-0.21728516,-0.30517578,0.18310547,0.0,0.0,0.0,0.0,127.01294,68.47778,-160.60364
1765589673042,-0.93359375,0.29248047,-0.20800781,-0.7324219,0.48828125,0.0,0.0,0.0,0.0,127.01294,68.47778,-160.60364
1765589673054,-0.93359375,0.29248047,-0.20800781,-0.7324219,0.48828125,0.0,0.0,0.0,0.0,127.0459,68.4613,-160.5542
1765589673142,-0.9345703,0.2944336,-0.21435547,0.12207031,0.061035156,0.0,0.0,0.0,0.0,127.0459,68.4613,-160.5542
1765589673153,-0.9345703,0.2944336,-0.21435547,0.12207031,0.061035156,0.0,0.0,0.0,0.0,127.01294,68.47229,-160.59814
1765589673242,-0.9345703,0.29052734,-0.21777344,0.061035156,0.0,0.0,0.0,0.0,0.0,127.01294,68.47229,-160.59814
1765589673253,-0.9345703,0.29052734,-0.21777344,0.061035156,0.0,0.0,0.0,0.0,0.0,127.06238,68.45581,-160.53772
1765589673341,-0.93603516,0.29296875,-0.21289062,-0.4272461,0.5493164,0.0,0.0,0.0,0.0,127.06238,68.45581,-160.53772
1765589673353,-0.93603516,0.29296875,-0.21289062,-0.4272461,0.5493164,0.0,0.0,0.0,0.0,127.10083,68.444824,-160.50476
1765589673441,-0.9326172,0.2944336,-0.21826172,-0.061035156,0.18310547,0.0,0.0,0.0,0.0,127.10083,68.444824,-160.50476
1765589673453,-0.9326172,0.2944336,-0.21826172,-0.061035156,0.18310547,0.0,0.0,0.0,0.0,127.06787,68.45581,-160.5487
1765589673541,-0.9350586,0.2915039,-0.21728516,0.0,0.30517578,0.0,0.0,0.0,0.0,127.06787,68.45581,-160.5487
1765589673552,-0.9350586,0.2915039,-0.21728516,0.0,0.30517578,0.0,0.0,0.0,0.0,127.128296,68.43384,-160.4773
1765589673641,-0.93603516,0.29296875,-0.21533203,0.4272461,0.5493164,0.0,0.0,0.0,0.0,127.128296,68.43384,-160.4773
1765589673652,-0.93603516,0.29296875,-0.21533203,0.4272461,0.5493164,0.0,0.0,0.0,0.0,127.22717,68.411865,-160.40039
1765589673740,-0.9345703,0.2944336,-0.21826172,0.48828125,0.0,0.0,0.0,0.0,0.0,127.22717,68.411865,-160.40039
1765589673752,-0.9345703,0.2944336,-0.21826172,0.48828125,0.0,0.0,0.0,0.0,0.0,127.30957,68.40088,-160.36194
1765589673840,-0.93310547,0.2915039,-0.22070312,0.0,0.061035156,0.0,0.0,0.0,0.0,127.30957,68.40088,-160.36194
1765589673852,-0.93310547,0.2915039,-0.22070312,0.0,0.061035156,0.0,0.0,0.0,0.0,127.337036,68.395386,-160.33447
1765589673940,-0.9350586,0.29101562,-0.22167969,-0.24414062,0.0,0.0,0.0,0.0,0.0,127.337036,68.395386,-160.33447
1765589673951,-0.9350586,0.29101562,-0.22167969,-0.24414062,0.0,0.0,0.0,0.0,0.0,127.369995,68.3844,-160.307
1765589674039,-0.93310547,0.29052734,-0.21972656,0.30517578,-0.12207031,0.0,0.0,0.0,0.0,127.369995,68.3844,-160.307
1765589674051,-0.93310547,0.29052734,-0.21972656,0.30517578,-0.12207031,0.0,0.0,0.0,0.0,127.38098,68.3844,-160.318
1765589674139,-0.93359375,0.2939453,-0.21240234,0.061035156,0.18310547,0.0,0.0,0.0,0.0,127.38098,68.3844,-160.318
1765589674151,-0.93359375,0.2939453,-0.21240234,0.061035156,0.18310547,0.0,0.0,0.0,0.0,127.41394,68.3844,-160.32349
1765589674239,-0.9350586,0.29345703,-0.22021484,-0.061035156,-0.18310547,0.0,0.0,0.0,0.0,127.41394,68.3844,-160.32349
1765589674251,-0.9350586,0.29345703,-0.22021484,-0.061035156,-0.18310547,0.0,0.0,0.0,0.0,127.38098,68.38989,-160.34546
1765589674339,-0.9316406,0.29101562,-0.21923828,-0.061035156,-0.061035156,0.0,0.0,0.0,0.0,127.38098,68.38989,-160.34546
1765589674350,-0.9316406,0.29101562,-0.21923828,-0.061035156,-0.061035156,0.0,0.0,0.0,0.0,127.33154,68.40088,-160.3949
1765589674438,-0.9375,0.29248047,-0.21435547,-0.36621094,0.61035156,0.0,0.0,0.0,0.0,127.33154,68.40088,-160.3949
1765589674450,-0.9375,0.29248047,-0.21435547,-0.36621094,0.61035156,0.0,0.0,0.0,0.0,127.35901,68.3844,-160.36194
1765589674538,-0.93115234,0.29248047,-0.22314453,-0.12207031,0.0,0.0,0.0,0.0,0.0,127.35901,68.3844,-160.36194
1765589674550,-0.93115234,0.29248047,-0.22314453,-0.12207031,0.0,0.0,0.0,0.0,0.0,127.33154,68.395386,-160.38391
1765589674638,-0.9326172,0.29101562,-0.2211914,-0.18310547,0.18310547,0.0,0.0,0.0,0.0,127.33154,68.395386,-160.38391
1765589674649,-0.9326172,0.29101562,-0.2211914,-0.18310547,0.18310547,0.0,0.0,0.0,0.0,127.353516,68.37891,-160.34546
1765589674742,-0.93408203,0.29248047,-0.2211914,0.061035156,0.18310547,0.0,0.0,0.0,0.0,127.353516,68.37891,-160.34546
1765589674749,-0.93408203,0.29248047,-0.2211914,0.061035156,0.18310547,0.0,0.0,0.0,0.0,127.38098,68.36792,-160.32349
1765589674837,-0.9345703,0.2915039,-0.21972656,-0.12207031,0.0,0.0,0.0,0.0,0.0,127.38098,68.36792,-160.32349
1765589674849,-0.9345703,0.2915039,-0.21972656,-0.12207031,0.0,0.0,0.0,0.0,0.0,127.40845,68.35693,-160.29602
1765589674937,-0.93408203,0.29296875,-0.21826172,-0.061035156,0.12207031,0.0,0.0,0.0,0.0,127.40845,68.35693,-160.29602
1765589674949,-0.93408203,0.29296875,-0.21826172,-0.061035156,0.12207031,0.0,0.0,0.0,0.0,127.41943,68.35144,-160.27405
1765589675037,-0.93310547,0.29052734,-0.22265625,-0.061035156,-0.061035156,0.0,0.0,0.0,0.0,127.41943,68.35144,-160.27405
1765589675048,-0.93310547,0.29052734,-0.22265625,-0.061035156,-0.061035156,0.0,0.0,0.0,0.0,127.42493,68.34595,-160.24658
1765589675136,-0.9350586,0.2915039,-0.22460938,-0.6713867,0.79345703,0.0,0.0,0.0,0.0,127.42493,68.34595,-160.24658
1765589675148,-0.9350586,0.2915039,-0.22460938,-0.6713867,0.79345703,0.0,0.0,0.0,0.0,127.48535,68.323975,-160.16418
1765589675236,-0.9326172,0.29248047,-0.21972656,-0.48828125,0.30517578,0.0,0.0,0.0,0.0,127.48535,68.323975,-160.16418
1765589675247,-0.9326172,0.29248047,-0.21972656,-0.48828125,0.30517578,0.0,0.0,0.0,0.0,127.55676,68.302,-160.0708
1765589675336,-0.93408203,0.29248047,-0.21923828,0.0,0.12207031,0.0,0.0,0.0,0.0,127.55676,68.302,-160.0708
1765589675347,-0.93408203,0.29248047,-0.21923828,0.0,0.12207031,0.0,0.0,0.0,0.0,127.578735,68.29651,-160.03784
1765589675435,-0.93408203,0.29345703,-0.22265625,-0.30517578,0.36621094,0.0,0.0,0.0,0.0,127.578735,68.29651,-160.03784
1765589675447,-0.93408203,0.29345703,-0.22265625,-0.30517578,0.36621094,0.0,0.0,0.0,0.0,127.62268,68.28003,-159.96643
1765589675535,-0.93652344,0.29248047,-0.21826172,-0.6713867,0.36621094,0.0,0.0,0.0,0.0,127.62268,68.28003,-159.96643
1765589675547,-0.93652344,0.29248047,-0.21826172,-0.6713867,0.36621094,0.0,0.0,0.0,0.0,127.64465,68.26355,-159.90051
1765589675635,-0.93310547,0.2939453,-0.22460938,-0.36621094,0.061035156,0.0,0.0,0.0,0.0,127.64465,68.26355,-159.90051
1765589675646,-0.93310547,0.2939453,-0.22460938,-0.36621094,0.061035156,0.0,0.0,0.0,0.0,127.58972,68.28003,-159.94446
1765589675735,-0.9345703,0.2919922,-0.22363281,-0.36621094,0.0,0.0,0.0,0.0,0.0,127.58972,68.28003,-159.94446
1765589675746,-0.9345703,0.2919922,-0.22363281,-0.36621094,0.0,0.0,0.0,0.0,0.0,127.61719,68.26904,-159.88953
1765589675834,-0.9316406,0.29492188,-0.21972656,-0.061035156,-0.18310547,0.0,0.0,0.0,0.0,127.61719,68.26904,-159.88953
1765589675846,-0.9316406,0.29492188,-0.21972656,-0.061035156,-0.18310547,0.0,0.0,0.0,0.0,127.57324,68.28552,-159.94446
1765589675934,-0.9345703,0.2944336,-0.22021484,0.061035156,-0.18310547,0.0,0.0,0.0,0.0,127.57324,68.28552,-159.94446
1765589675946,-0.9345703,0.2944336,-0.22021484,0.061035156,-0.18310547,0.0,0.0,0.0,0.0,127.54578,68.28552,-159.94995
1765589676034,-0.9326172,0.2915039,-0.22021484,-0.5493164,0.24414062,-0.30517578,0.0,0.0,0.0,127.54578,68.28552,-159.94995
1765589676045,-0.9326172,0.2915039,-0.22021484,-0.5493164,0.24414062,-0.30517578,0.0,0.0,0.0,127.54028,68.29651,-159.92798
1765589676134,-0.9345703,0.28955078,-0.22314453,-0.36621094,0.0,-0.061035156,0.0,0.0,0.0,127.54028,68.29651,-159.92798
1765589676145,-0.9345703,0.28955078,-0.22314453,-0.36621094,0.0,-0.061035156,0.0,0.0,0.0,127.53479,68.307495,-159.906
1765589676233,-0.9326172,0.2915039,-0.2241211,-0.36621094,0.0,0.0,0.0,0.0,0.0,127.53479,68.307495,-159.906
1765589676245,-0.9326172,0.2915039,-0.2241211,-0.36621094,0.0,0.0,0.0,0.0,0.0,127.50183,68.31848,-159.93896
1765589676333,-0.93310547,0.2919922,-0.2163086,-0.61035156,0.36621094,0.0,0.0,0.0,0.0,127.50183,68.31848,-159.93896
1765589676344,-0.93310547,0.2919922,-0.2163086,-0.61035156,0.36621094,0.0,0.0,0.0,0.0,127.578735,68.29651,-159.84558
1765589676433,-0.9345703,0.29345703,-0.21875,0.061035156,0.18310547,0.0,0.0,0.0,0.0,127.578735,68.29651,-159.84558
1765589676444,-0.9345703,0.29345703,-0.21875,0.061035156,0.18310547,0.0,0.0,0.0,0.0,127.578735,68.29651,-159.85107
1765589676532,-0.93310547,0.2919922,-0.22265625,0.24414062,0.18310547,0.061035156,0.0,0.0,0.0,127.578735,68.29651,-159.85107
1765589676544,-0.93310547,0.2919922,-0.22265625,0.24414062,0.18310547,0.061035156,0.0,0.0,0.0,127.63367,68.28552,-159.79065
1765589676632,-0.93603516,0.2939453,-0.21728516,-0.6713867,0.61035156,0.0,0.0,0.0,0.0,127.63367,68.28552,-159.79065
1765589676644,-0.93603516,0.2939453,-0.21728516,-0.6713867,0.61035156,0.0,0.0,0.0,0.0,127.683105,68.26355,-159.71924
1765589676732,-0.9326172,0.2939453,-0.2241211,0.12207031,0.0,0.0,0.0,0.0,0.0,127.683105,68.26355,-159.71924
1765589676743,-0.9326172,0.2939453,-0.2241211,0.12207031,0.0,0.0,0.0,0.0,0.0,127.65015,68.28003,-159.76868
1765589676831,-0.9345703,0.29101562,-0.22216797,-0.18310547,-0.061035156,0.0,0.0,0.0,0.0,127.65015,68.28003,-159.76868
1765589676843,-0.9345703,0.29101562,-0.22216797,-0.18310547,-0.061035156,0.0,0.0,0.0,0.0,127.67761,68.26904,-159.71375
1765589676931,-0.9345703,0.29345703,-0.21972656,-0.12207031,0.18310547,0.0,0.0,0.0,0.0,127.67761,68.26904,-159.71375
1765589676943,-0.9345703,0.29345703,-0.21972656,-0.12207031,0.18310547,0.0,0.0,0.0,0.0,127.67761,68.26904,-159.71924
1765589677031,-0.93310547,0.29296875,-0.22216797,0.12207031,0.0,0.0,0.0,0.0,0.0,127.67761,68.26904,-159.71924
1765589677042,-0.93310547,0.29296875,-0.22216797,0.12207031,0.0,0.0,0.0,0.0,0.0,127.683105,68.274536,-159.71375
1765589677131,-0.9345703,0.29248047,-0.22265625,-0.18310547,0.12207031,0.0,0.0,0.0,0.0,127.683105,68.274536,-159.71375
1765589677142,-0.9345703,0.29248047,-0.22265625,-0.18310547,0.12207031,0.0,0.0,0.0,0.0,127.69409,68.26904,-159.68628
1765589677230,-0.93408203,0.2915039,-0.22021484,0.061035156,0.24414062,0.0,0.0,0.0,0.0,127.69409,68.26904,-159.68628
1765589677242,-0.93408203,0.2915039,-0.22021484,0.061035156,0.24414062,0.0,0.0,0.0,0.0,127.70508,68.26355,-159.6753
1765589677330,-0.9321289,0.2939453,-0.21826172,0.24414062,-0.18310547,0.0,0.0,0.0,0.0,127.70508,68.26355,-159.6753
1765589677342,-0.9321289,0.2939453,-0.21826172,0.24414062,-0.18310547,0.0,0.0,0.0,0.0,127.72705,68.274536,-159.69177
1765589677430,-0.93603516,0.29248047,-0.21777344,0.4272461,0.18310547,0.0,0.0,0.0,0.0,127.72705,68.274536,-159.69177
1765589677441,-0.93603516,0.29248047,-0.21777344,0.4272461,0.18310547,0.0,0.0,0.0,0.0,127.76001,68.26355,-159.65332
1765589677530,-0.9316406,0.2915039,-0.22509766,0.5493164,-0.9765625,0.0,0.0,0.0,0.0,127.76001,68.26355,-159.65332
1765589677541,-0.9316406,0.2915039,-0.22509766,0.5493164,-0.9765625,0.0,0.0,0.0,0.0,127.67212,68.29651,-159.76318
1765589677632,-0.9345703,0.2915039,-0.2211914,-0.18310547,-0.061035156,0.0,0.0,0.0,0.0,127.67212,68.29651,-159.76318
1765589677641,-0.9345703,0.2915039,-0.2211914,-0.18310547,-0.061035156,0.0,0.0,0.0,0.0,127.61719,68.31299,-159.82361
1765589677729,-0.93408203,0.29296875,-0.21972656,0.36621094,-0.36621094,0.0,0.0,0.0,0.0,127.61719,68.31299,-159.82361
1765589677740,-0.93408203,0.29296875,-0.21972656,0.36621094,-0.36621094,0.0,0.0,0.0,0.0,127.562256,68.33496,-159.90051
1765589677829,-0.93408203,0.2919922,-0.21875,0.48828125,-0.61035156,0.0,0.0,0.0,0.0,127.562256,68.33496,-159.90051
1765589677840,-0.93408203,0.2919922,-0.21875,0.48828125,-0.61035156,0.0,0.0,0.0,0.0,127.54028,68.340454,-159.91699
1765589677928,-0.93359375,0.29248047,-0.21972656,-0.24414062,-0.061035156,0.0,0.0,0.0,0.0,127.54028,68.340454,-159.91699
1765589677940,-0.93359375,0.29248047,-0.21972656,-0.24414062,-0.061035156,0.0,0.0,0.0,0.0,127.46887,68.35693,-159.9884
1765589678028,-0.93310547,0.2939453,-0.22070312,0.12207031,-0.61035156,0.0,0.0,0.0,0.0,127.46887,68.35693,-159.9884
1765589678040,-0.93310547,0.2939453,-0.22070312,0.12207031,-0.61035156,0.0,0.0,0.0,0.0,127.38098,68.3844,-160.09827
1765589678128,-0.9345703,0.2919922,-0.21679688,0.061035156,-0.6713867,0.0,0.0,0.0,0.0,127.38098,68.3844,-160.09827
1765589678139,-0.9345703,0.2919922,-0.21679688,0.061035156,-0.6713867,0.0,0.0,0.0,0.0,127.30957,68.395386,-160.16418
1765589678228,-0.93310547,0.29248047,-0.21826172,-0.61035156,-0.36621094,0.0,0.0,0.0,0.0,127.30957,68.395386,-160.16418
1765589678239,-0.93310547,0.29248047,-0.21826172,-0.61035156,-0.36621094,0.0,0.0,0.0,0.0,127.177734,68.428345,-160.28503
1765589678327,-0.9345703,0.29248047,-0.2163086,-0.061035156,-0.4272461,0.0,0.0,0.0,0.0,127.177734,68.428345,-160.28503
1765589678339,-0.9345703,0.29248047,-0.2163086,-0.061035156,-0.4272461,0.0,0.0,0.0,0.0,127.056885,68.45581,-160.3949
1765589678427,-0.9345703,0.29541016,-0.2163086,-0.36621094,0.18310547,0.0,0.0,0.0,0.0,127.056885,68.45581,-160.3949
1765589678438,-0.9345703,0.29541016,-0.2163086,-0.36621094,0.18310547,0.0,0.0,0.0,0.0,127.00745,68.4668,-160.44983
1765589678527,-0.93310547,0.2939453,-0.20947266,0.6713867,-0.48828125,0.0,0.0,0.0,0.0,127.00745,68.4668,-160.44983
1765589678538,-0.93310547,0.2939453,-0.20947266,0.6713867,-0.48828125,0.0,0.0,0.0,0.0,127.040405,68.45032,-160.40588
1765589678627,-0.93896484,0.29296875,-0.21582031,-0.36621094,0.61035156,-0.12207031,0.0,0.0,0.0,127.040405,68.45032,-160.40588
1765589678638,-0.93896484,0.29296875,-0.21582031,-0.36621094,0.61035156,-0.12207031,0.0,0.0,0.0,127.08435,68.444824,-160.33997
1765589678726,-0.93115234,0.2939453,-0.21484375,-0.4272461,0.79345703,-0.12207031,0.0,0.0,0.0,127.08435,68.444824,-160.33997
1765589678738,-0.93115234,0.2939453,-0.21484375,-0.4272461,0.79345703,-0.12207031,0.0,0.0,0.0,127.09534,68.45032,-160.33447
1765589678826,-0.9326172,0.29248047,-0.21533203,0.24414062,0.24414062,0.0,0.0,0.0,0.0,127.09534,68.45032,-160.33447
1765589678837,-0.9326172,0.29248047,-0.21533203,0.24414062,0.24414062,0.0,0.0,0.0,0.0,127.15576,68.444824,-160.2301
1765589678926,-0.93652344,0.29101562,-0.22265625,-0.79345703,0.79345703,-0.24414062,0.0,0.0,0.0,127.15576,68.444824,-160.2301
1765589678937,-0.93652344,0.29101562,-0.22265625,-0.79345703,0.79345703,-0.24414062,0.0,0.0,0.0,127.282104,68.395386,-160.04883
1765589679025,-0.9326172,0.29541016,-0.21826172,-0.18310547,-0.061035156,0.0,0.0,0.0,0.0,127.282104,68.395386,-160.04883
1765589679037,-0.9326172,0.29541016,-0.21826172,-0.18310547,-0.061035156,0.0,0.0,0.0,0.0,127.32056,68.395386,-159.9884
1765589679125,-0.9345703,0.29345703,-0.21875,-0.061035156,0.0,0.0,0.0,0.0,0.0,127.32056,68.395386,-159.9884
1765589679137,-0.9345703,0.29345703,-0.21875,-0.061035156,0.0,0.0,0.0,0.0,0.0,127.29309,68.40088,-159.97192
1765589679226,-0.93408203,0.29101562,-0.21728516,-0.12207031,-0.18310547,-0.12207031,0.0,0.0,0.0,127.29309,68.40088,-159.97192
1765589679236,-0.93408203,0.29101562,-0.21728516,-0.12207031,-0.18310547,-0.12207031,0.0,0.0,0.0,127.27661,68.40088,-159.96094
1765589679325,-0.9326172,0.28955078,-0.21972656,0.0,-0.061035156,0.0,0.0,0.0,0.0,127.27661,68.40088,-159.96094
1765589679336,-0.9326172,0.28955078,-0.21972656,0.0,-0.061035156,0.0,0.0,0.0,0.0,127.22168,68.411865,-160.01587
1765589679424,-0.9345703,0.29101562,-0.2163086,0.91552734,-1.5869141,0.0,0.0,0.0,0.0,127.22168,68.411865,-160.01587
1765589679436,-0.9345703,0.29101562,-0.2163086,0.91552734,-1.5869141,0.0,0.0,0.0,0.0,127.11731,68.4613,-160.18616
1765589679524,-0.9326172,0.29736328,-0.21826172,0.5493164,-0.7324219,0.48828125,0.0,0.0,0.0,127.11731,68.4613,-160.18616
1765589679535,-0.9326172,0.29736328,-0.21826172,0.5493164,-0.7324219,0.48828125,0.0,0.0,0.0,126.85364,68.50525,-160.58716
1765589679624,-0.9355469,0.29248047,-0.21142578,-1.7089844,0.7324219,-0.48828125,0.0,0.0,0.0,126.85364,68.50525,-160.58716
1765589679635,-0.9355469,0.29248047,-0.21142578,-1.7089844,0.7324219,-0.48828125,0.0,0.0,0.0,126.95801,68.47229,-160.38391
1765589679723,-0.9370117,0.29589844,-0.20996094,1.6479492,-2.0751953,0.91552734,0.0,0.0,0.0,126.95801,68.47229,-160.38391
1765589679735,-0.9370117,0.29589844,-0.20996094,1.6479492,-2.0751953,0.91552734,0.0,0.0,0.0,126.67786,68.516235,-160.76294
1765589679823,-0.9321289,0.2944336,-0.21191406,-0.4272461,0.5493164,0.0,0.0,0.0,0.0,126.67786,68.516235,-160.76294
1765589679834,-0.9321289,0.2944336,-0.21191406,-0.4272461,0.5493164,0.0,0.0,0.0,0.0,126.57898,68.52173,-160.86182
1765589679923,-0.9375,0.29833984,-0.2084961,-0.4272461,-0.61035156,0.4272461,0.0,0.0,0.0,126.57898,68.52173,-160.86182
1765589679934,-0.9375,0.29833984,-0.2084961,-0.4272461,-0.61035156,0.4272461,0.0,0.0,0.0,126.45813,68.51074,-160.97168
1765589680023,-0.93408203,0.29003906,-0.21289062,-1.3427734,-0.9765625,-0.061035156,0.0,0.0,0.0,126.45813,68.51074,-160.97168
1765589680034,-0.93408203,0.29003906,-0.21289062,-1.3427734,-0.9765625,-0.061035156,0.0,0.0,0.0,126.18347,68.549194,-161.09802
1765589680122,-0.93310547,0.29785156,-0.21044922,-1.159668,-0.6713867,-0.48828125,0.0,0.0,0.0,126.18347,68.549194,-161.09802
1765589680134,-0.93310547,0.29785156,-0.21044922,-1.159668,-0.6713867,-0.48828125,0.0,0.0,0.0,125.875854,68.637085,-161.3617
1765589680222,-0.93896484,0.29541016,-0.20361328,-2.1362305,0.24414062,-0.7324219,0.0,0.0,0.0,125.875854,68.637085,-161.3617
1765589680233,-0.93896484,0.29541016,-0.20361328,-2.1362305,0.24414062,-0.7324219,0.0,0.0,0.0,125.875854,68.66455,-161.15845
1765589680322,-0.9379883,0.2939453,-0.20263672,0.18310547,-0.79345703,0.30517578,0.0,0.0,0.0,125.875854,68.66455,-161.15845
1765589680333,-0.9379883,0.2939453,-0.20263672,0.18310547,-0.79345703,0.30517578,0.0,0.0,0.0,125.70557,68.71399,-161.26282
1765589680421,-0.9326172,0.2915039,-0.20507812,0.5493164,-0.18310547,0.4272461,0.0,0.0,0.0,125.70557,68.71399,-161.26282
1765589680433,-0.9326172,0.2915039,-0.20507812,0.5493164,-0.18310547,0.4272461,0.0,0.0,0.0,125.48035,68.73596,-161.521
1765589680521,-0.93652344,0.29541016,-0.20507812,0.18310547,-0.7324219,-0.18310547,0.0,0.0,0.0,125.48035,68.73596,-161.521
1765589680533,-0.93652344,0.29541016,-0.20507812,0.18310547,-0.7324219,-0.18310547,0.0,0.0,0.0,125.392456,68.75244,-161.62537
1765589680621,-0.93603516,0.29638672,-0.20947266,-0.24414062,0.36621094,0.061035156,0.0,0.0,0.0,125.392456,68.75244,-161.62537
1765589680633,-0.93603516,0.29638672,-0.20947266,-0.24414062,0.36621094,0.061035156,0.0,0.0,0.0,125.337524,68.76343,-161.66382
1765589680721,-0.9379883,0.2919922,-0.20703125,-0.061035156,-0.4272461,-0.061035156,0.0,0.0,0.0,125.337524,68.76343,-161.66382
1765589680732,-0.9379883,0.2919922,-0.20703125,-0.061035156,-0.4272461,-0.061035156,0.0,0.0,0.0,125.408936,68.75244,-161.51001
1765589680820,-0.9375,0.29833984,-0.2006836,0.0,0.061035156,0.18310547,0.0,0.0,0.0,125.408936,68.75244,-161.51001
1765589680832,-0.9375,0.29833984,-0.2006836,0.0,0.061035156,0.18310547,0.0,0.0,0.0,125.288086,68.774414,-161.69678
1765589680920,-0.9375,0.29882812,-0.20458984,-0.5493164,-0.24414062,0.18310547,0.0,0.0,0.0,125.288086,68.774414,-161.69678
1765589680932,-0.9375,0.29882812,-0.20458984,-0.5493164,-0.24414062,0.18310547,0.0,0.0,0.0,125.25513,68.75244,-161.70227
1765589681020,-0.9394531,0.29052734,-0.19873047,-1.4038086,1.6479492,-0.48828125,0.0,0.0,0.0,125.25513,68.75244,-161.70227
1765589681031,-0.9394531,0.29052734,-0.19873047,-1.4038086,1.6479492,-0.48828125,0.0,0.0,0.0,125.304565,68.724976,-161.57593
1765589681119,-0.9291992,0.296875,-0.20507812,2.5634766,-2.1972656,0.5493164,0.0,0.0,0.0,125.304565,68.724976,-161.57593
1765589681131,-0.9291992,0.296875,-0.20507812,2.5634766,-2.1972656,0.5493164,0.0,0.0,0.0,125.06836,68.80737,-161.92749
1765589681219,-0.94921875,0.29345703,-0.20751953,-0.91552734,-1.2207031,-0.5493164,0.0,0.0,0.0,125.06836,68.80737,-161.92749
1765589681231,-0.94921875,0.29345703,-0.20751953,-0.91552734,-1.2207031,-0.5493164,0.0,0.0,0.0,124.98047,68.84033,-161.90552
1765589681319,-0.9223633,0.31103516,-0.20410156,2.5024414,1.7700195,1.5258789,0.0,0.0,0.0,124.98047,68.84033,-161.90552
1765589681331,-0.9223633,0.31103516,-0.20410156,2.5024414,1.7700195,1.5258789,0.0,0.0,0.0,124.920044,68.829346,-162.21863
1765589681419,-0.953125,0.28955078,-0.19824219,-0.5493164,-2.746582,0.0,0.0,0.0,0.0,124.920044,68.829346,-162.21863
1765589681430,-0.953125,0.28955078,-0.19824219,-0.5493164,-2.746582,0.0,0.0,0.0,0.0,125.13428,68.670044,-161.88354
1765589681518,-0.93896484,0.29296875,-0.19580078,-0.61035156,0.9765625,-0.061035156,0.0,0.0,0.0,125.13428,68.670044,-161.88354
1765589681530,-0.93896484,0.29296875,-0.19580078,-0.61035156,0.9765625,-0.061035156,0.0,0.0,0.0,124.78821,68.80737,-162.09229
1765589681618,-0.9296875,0.29833984,-0.2055664,-1.2207031,1.7700195,-0.4272461,0.0,0.0,0.0,124.78821,68.80737,-162.09229
1765589681630,-0.9296875,0.29833984,-0.2055664,-1.2207031,1.7700195,-0.4272461,0.0,0.0,0.0,124.645386,68.85132,-162.2406
1765589681718,-0.9379883,0.29882812,-0.20996094,0.8544922,1.5258789,-0.24414062,0.0,0.0,0.0,124.645386,68.85132,-162.2406
1765589681729,-0.9379883,0.29882812,-0.20996094,0.8544922,1.5258789,-0.24414062,0.0,0.0,0.0,125.1178,68.757935,-161.77368
1765589681817,-0.953125,0.28759766,-0.19189453,-1.0986328,-2.9907227,-0.7324219,0.0,0.0,0.0,125.1178,68.757935,-161.77368
1765589681829,-0.953125,0.28759766,-0.19189453,-1.0986328,-2.9907227,-0.7324219,0.0,0.0,0.0,125.1947,68.80737,-161.5155
1765589681917,-0.92089844,0.30517578,-0.20605469,2.746582,0.30517578,1.0986328,0.0,0.0,0.0,125.1947,68.80737,-161.5155
1765589681929,-0.92089844,0.30517578,-0.20605469,2.746582,0.30517578,1.0986328,0.0,0.0,0.0,124.62891,68.95569,-162.33398
1765589682017,-0.93408203,0.28955078,-0.21191406,-0.18310547,2.9907227,-0.30517578,0.0,0.0,0.0,124.62891,68.95569,-162.33398
1765589682029,-0.93408203,0.28955078,-0.21191406,-0.18310547,2.9907227,-0.30517578,0.0,0.0,0.0,125.29358,68.757935,-161.66931
1765589682117,-0.94189453,0.29638672,-0.18701172,-0.61035156,0.0,-0.12207031,0.0,0.0,0.0,125.29358,68.757935,-161.66931
1765589682128,-0.94189453,0.29638672,-0.18701172,-0.61035156,0.0,-0.12207031,0.0,0.0,0.0,125.48584,68.73596,-161.53748
1765589682216,-0.93066406,0.2993164,-0.21044922,1.7089844,-0.6713867,0.61035156,0.0,0.0,0.0,125.48584,68.73596,-161.53748
1765589682228,-0.93066406,0.2993164,-0.21044922,1.7089844,-0.6713867,0.61035156,0.0,0.0,0.0,125.26062,68.75244,-161.82861
1765589682316,-0.9345703,0.29296875,-0.21142578,0.18310547,0.61035156,0.0,0.0,0.0,0.0,125.26062,68.75244,-161.82861
1765589682328,-0.9345703,0.29296875,-0.21142578,0.18310547,0.61035156,0.0,0.0,0.0,0.0,125.529785,68.670044,-161.48804
1765589682416,-0.93896484,0.29833984,-0.20263672,0.24414062,0.24414062,0.12207031,0.0,0.0,0.0,125.529785,68.670044,-161.48804
1765589682427,-0.93896484,0.29833984,-0.20263672,0.24414062,0.24414062,0.12207031,0.0,0.0,0.0,125.61218,68.637085,-161.48254
1765589682515,-0.93359375,0.29882812,-0.20703125,0.0,-0.48828125,0.0,0.0,0.0,0.0,125.61218,68.637085,-161.48254
1765589682527,-0.93359375,0.29882812,-0.20703125,0.0,-0.48828125,0.0,0.0,0.0,0.0,125.562744,68.64807,-161.54846
1765589682615,-0.9350586,0.2944336,-0.20800781,-0.36621094,0.0,-0.061035156,0.0,0.0,0.0,125.562744,68.64807,-161.54846
1765589682627,-0.9350586,0.2944336,-0.20800781,-0.36621094,0.0,-0.061035156,0.0,0.0,0.0,125.50232,68.65906,-161.55396
1765589682715,-0.93359375,0.2998047,-0.20410156,0.12207031,-0.48828125,-0.12207031,0.0,0.0,0.0,125.50232,68.65906,-161.55396
1765589682726,-0.93359375,0.2998047,-0.20410156,0.12207031,-0.48828125,-0.12207031,0.0,0.0,0.0,125.41443,68.68652,-161.6748
1765589682815,-0.9375,0.29638672,-0.19921875,0.18310547,-0.12207031,0.0,0.0,0.0,0.0,125.41443,68.68652,-161.6748
1765589682826,-0.9375,0.29638672,-0.19921875,0.18310547,-0.12207031,0.0,0.0,0.0,0.0,125.40344,68.68652,-161.63086
1765589682914,-0.9355469,0.29492188,-0.21044922,-0.30517578,0.0,0.0,0.0,0.0,0.0,125.40344,68.68652,-161.63086
1765589682926,-0.9355469,0.29492188,-0.21044922,-0.30517578,0.0,0.0,0.0,0.0,0.0,125.34851,68.69751,-161.64185
1765589683014,-0.93359375,0.29541016,-0.20507812,0.18310547,0.4272461,0.0,0.0,0.0,0.0,125.34851,68.69751,-161.64185
1765589683026,-0.93359375,0.29541016,-0.20507812,0.18310547,0.4272461,0.0,0.0,0.0,0.0,125.34851,68.69202,-161.62537
1765589683114,-0.93652344,0.29736328,-0.20214844,-0.18310547,0.4272461,0.0,0.0,0.0,0.0,125.34851,68.69202,-161.62537
1765589683125,-0.93652344,0.29736328,-0.20214844,-0.18310547,0.4272461,0.0,0.0,0.0,0.0,125.392456,68.68103,-161.60889
1765589683213,-0.9350586,0.296875,-0.20898438,0.18310547,0.0,0.0,0.0,0.0,0.0,125.392456,68.68103,-161.60889
1765589683225,-0.9350586,0.296875,-0.20898438,0.18310547,0.0,0.0,0.0,0.0,0.0,125.425415,68.670044,-161.55396
1765589683313,-0.9345703,0.29541016,-0.20751953,0.12207031,0.30517578,0.0,0.0,0.0,0.0,125.425415,68.670044,-161.55396
1765589683325,-0.9345703,0.29541016,-0.20751953,0.12207031,0.30517578,0.0,0.0,0.0,0.0,125.48035,68.653564,-161.48804
1765589683413,-0.93603516,0.29785156,-0.20654297,-0.30517578,0.12207031,0.0,0.0,0.0,0.0,125.48035,68.653564,-161.48804
1765589683424,-0.93603516,0.29785156,-0.20654297,-0.30517578,0.12207031,0.0,0.0,0.0,0.0,125.49133,68.64807,-161.46057
1765589683513,-0.93359375,0.29589844,-0.20605469,-0.12207031,0.30517578,0.0,0.0,0.0,0.0,125.49133,68.64807,-161.46057
1765589683524,-0.93359375,0.29589844,-0.20605469,-0.12207031,0.30517578,0.0,0.0,0.0,0.0,125.54077,68.6261,-161.38916
1765589683612,-0.9379883,0.296875,-0.20751953,0.18310547,0.48828125,0.0,0.0,0.0,0.0,125.54077,68.6261,-161.38916
1765589683624,-0.9379883,0.296875,-0.20751953,0.18310547,0.48828125,0.0,0.0,0.0,0.0,125.62866,68.59863,-161.2793
1765589683712,-0.93359375,0.29492188,-0.20898438,0.5493164,0.0,0.0,0.0,0.0,0.0,125.62866,68.59863,-161.2793
1765589683723,-0.93359375,0.29492188,-0.20898438,0.5493164,0.0,0.0,0.0,0.0,0.0,125.67261,68.59314,-161.22986
1765589683812,-0.93652344,0.29638672,-0.21533203,-0.18310547,0.5493164,0.0,0.0,0.0,0.0,125.67261,68.59314,-161.22986
1765589683823,-0.93652344,0.29638672,-0.21533203,-0.18310547,0.5493164,0.0,0.0,0.0,0.0,125.71655,68.57666,-161.18042
1765589683911,-0.9345703,0.29345703,-0.21289062,-0.24414062,0.061035156,0.0,0.0,0.0,0.0,125.71655,68.57666,-161.18042
1765589683923,-0.9345703,0.29345703,-0.21289062,-0.24414062,0.061035156,0.0,0.0,0.0,0.0,125.79895,68.5437,-161.04309
1765589684011,-0.93652344,0.296875,-0.20703125,-0.4272461,0.12207031,0.0,0.0,0.0,0.0,125.79895,68.5437,-161.04309
1765589684022,-0.93652344,0.296875,-0.20703125,-0.4272461,0.12207031,0.0,0.0,0.0,0.0,125.79346,68.5437,-161.0376
1765589684111,-0.9345703,0.296875,-0.2133789,-0.061035156,-0.12207031,0.0,0.0,0.0,0.0,125.79346,68.5437,-161.0376
1765589684122,-0.9345703,0.296875,-0.2133789,-0.061035156,-0.12207031,0.0,0.0,0.0,0.0,125.76599,68.549194,-161.05408
1765589684210,-0.93847656,0.29492188,-0.20410156,-0.18310547,0.061035156,0.0,0.0,0.0,0.0,125.76599,68.549194,-161.05408
1765589684222,-0.93847656,0.29492188,-0.20410156,-0.18310547,0.061035156,0.0,0.0,0.0,0.0,125.83191,68.52722,-160.9607
1765589684310,-0.9345703,0.29785156,-0.20898438,-0.18310547,0.0,0.0,0.0,0.0,0.0,125.83191,68.52722,-160.9607
1765589684322,-0.9345703,0.29785156,-0.20898438,-0.18310547,0.0,0.0,0.0,0.0,0.0,125.755005,68.55469,-161.04309
1765589684410,-0.93652344,0.2944336,-0.21044922,0.0,-0.18310547,0.0,0.0,0.0,0.0,125.755005,68.55469,-161.04309
1765589684421,-0.93652344,0.2944336,-0.21044922,0.0,-0.18310547,0.0,0.0,0.0,0.0,125.722046,68.55469,-161.04858
1765589684510,-0.9355469,0.29589844,-0.20751953,-0.061035156,0.12207031,0.0,0.0,0.0,0.0,125.722046,68.55469,-161.04858
1765589684521,-0.9355469,0.29589844,-0.20751953,-0.061035156,0.12207031,0.0,0.0,0.0,0.0,125.73303,68.55469,-161.04309
1765589684609,-0.93408203,0.29638672,-0.20800781,0.0,0.061035156,0.0,0.0,0.0,0.0,125.73303,68.55469,-161.04309
1765589684621,-0.93408203,0.29638672,-0.20800781,0.0,0.061035156,0.0,0.0,0.0,0.0,125.738525,68.55469,-161.0376
1765589684709,-0.93652344,0.29541016,-0.20800781,0.0,0.12207031,0.0,0.0,0.0,0.0,125.738525,68.55469,-161.0376
1765589684721,-0.93652344,0.29541016,-0.20800781,0.0,0.12207031,0.0,0.0,0.0,0.0,125.77698,68.5437,-160.98267
1765589684809,-0.9355469,0.296875,-0.20703125,0.0,-0.36621094,0.0,0.0,0.0,0.0,125.77698,68.5437,-160.98267
1765589684820,-0.9355469,0.296875,-0.20703125,0.0,-0.36621094,0.0,0.0,0.0,0.0,125.76599,68.55469,-160.99915
1765589684909,-0.9375,0.29638672,-0.2055664,0.30517578,0.8544922,0.0,0.0,0.0,0.0,125.76599,68.55469,-160.99915
1765589684920,-0.9375,0.29638672,-0.2055664,0.30517578,0.8544922,0.0,0.0,0.0,0.0,125.82092,68.53821,-160.94421
1765589685008,-0.93359375,0.2944336,-0.21386719,0.36621094,-0.24414062,0.0,0.0,0.0,0.0,125.82092,68.53821,-160.94421
1765589685020,-0.93359375,0.2944336,-0.21386719,0.36621094,-0.24414062,0.0,0.0,0.0,0.0,125.842896,68.532715,-160.90576
1765589685108,-0.93603516,0.2944336,-0.21044922,-0.30517578,0.36621094,0.0,0.0,0.0,0.0,125.842896,68.532715,-160.90576
1765589685120,-0.93603516,0.2944336,-0.21044922,-0.30517578,0.36621094,0.0,0.0,0.0,0.0,125.86487,68.52722,-160.86182
1765589685208,-0.9370117,0.296875,-0.2109375,-0.18310547,0.24414062,0.0,0.0,0.0,0.0,125.86487,68.52722,-160.86182
1765589685219,-0.9370117,0.296875,-0.2109375,-0.18310547,0.24414062,0.0,0.0,0.0,0.0,125.892334,68.52173,-160.83984
1765589685308,-0.9350586,0.2939453,-0.20947266,0.48828125,-0.5493164,0.0,0.0,0.0,0.0,125.892334,68.52173,-160.83984
1765589685319,-0.9350586,0.2939453,-0.20947266,0.48828125,-0.5493164,0.0,0.0,0.0,0.0,125.892334,68.52173,-160.82336
1765589685407,-0.9355469,0.2944336,-0.2109375,0.0,0.30517578,0.0,0.0,0.0,0.0,125.892334,68.52173,-160.82336
1765589685419,-0.9355469,0.2944336,-0.2109375,0.0,0.30517578,0.0,0.0,0.0,0.0,125.9198,68.52173,-160.7959
1765589685507,-0.9350586,0.29541016,-0.21044922,0.0,0.0,0.0,0.0,0.0,0.0,125.9198,68.52173,-160.7959
1765589685518,-0.9350586,0.29541016,-0.21044922,0.0,0.0,0.0,0.0,0.0,0.0,125.930786,68.52173,-160.7904
1765589685606,-0.93359375,0.296875,-0.21044922,0.061035156,-0.18310547,0.0,0.0,0.0,0.0,125.930786,68.52173,-160.7904
1765589685618,-0.93359375,0.296875,-0.21044922,0.061035156,-0.18310547,0.0,0.0,0.0,0.0,125.92529,68.52722,-160.80139
1765589685706,-0.9350586,0.2939453,-0.21044922,-0.061035156,0.0,0.0,0.0,0.0,0.0,125.92529,68.52722,-160.80139
1765589685718,-0.9350586,0.2939453,-0.21044922,-0.061035156,0.0,0.0,0.0,0.0,0.0,125.92529,68.52173,-160.78491
1765589685806,-0.93652344,0.29638672,-0.2084961,-0.24414062,0.18310547,0.0,0.0,0.0,0.0,125.92529,68.52173,-160.78491
1765589685818,-0.93652344,0.29638672,-0.2084961,-0.24414062,0.18310547,0.0,0.0,0.0,0.0,125.9198,68.52173,-160.78491
1765589685906,-0.9350586,0.29882812,-0.20800781,0.061035156,-0.24414062,0.0,0.0,0.0,0.0,125.9198,68.52173,-160.78491
1765589685917,-0.9350586,0.29882812,-0.20800781,0.061035156,-0.24414062,0.0,0.0,0.0,0.0,125.90332,68.532715,-160.80688
1765589686005,-0.93652344,0.29541016,-0.2109375,0.48828125,0.36621094,0.0,0.0,0.0,0.0,125.90332,68.532715,-160.80688
1765589686017,-0.93652344,0.29541016,-0.2109375,0.48828125,0.36621094,0.0,0.0,0.0,0.0,125.9198,68.52722,-160.7904
1765589686105,-0.93408203,0.29345703,-0.2163086,0.5493164,-0.36621094,0.0,0.0,0.0,0.0,125.9198,68.52722,-160.7904
1765589686117,-0.93408203,0.29345703,-0.2163086,0.5493164,-0.36621094,0.0,0.0,0.0,0.0,125.95825,68.516235,-160.72998
1765589686205,-0.9355469,0.2944336,-0.20996094,-0.18310547,0.4272461,0.0,0.0,0.0,0.0,125.95825,68.516235,-160.72998
1765589686216,-0.9355469,0.2944336,-0.20996094,-0.18310547,0.4272461,0.0,0.0,0.0,0.0,125.980225,68.51074,-160.70801
1765589686305,-0.9350586,0.29638672,-0.21191406,0.0,0.18310547,0.0,0.0,0.0,0.0,125.980225,68.51074,-160.70801
1765589686317,-0.9350586,0.29638672,-0.21191406,0.0,0.18310547,0.0,0.0,0.0,0.0,126.00769,68.51074,-160.68054
1765589686404,-0.93603516,0.29345703,-0.21142578,0.48828125,-0.48828125,0.0,0.0,0.0,0.0,126.00769,68.51074,-160.68054
1765589686416,-0.93603516,0.29345703,-0.21142578,0.48828125,-0.48828125,0.0,0.0,0.0,0.0,126.06262,68.49426,-160.60913
1765589686504,-0.9355469,0.29492188,-0.21289062,-0.18310547,0.5493164,0.0,0.0,0.0,0.0,126.06262,68.49426,-160.60913
1765589686516,-0.9355469,0.29492188,-0.21289062,-0.18310547,0.5493164,0.0,0.0,0.0,0.0,126.09009,68.49426,-160.59814
1765589686604,-0.9350586,0.29541016,-0.21240234,0.30517578,0.0,0.0,0.0,0.0,0.0,126.09009,68.49426,-160.59814
1765589686616,-0.9350586,0.29541016,-0.21240234,0.30517578,0.0,0.0,0.0,0.0,0.0,126.13953,68.48328,-160.5597
1765589686703,-0.9350586,0.29541016,-0.21044922,0.36621094,-0.18310547,0.0,0.0,0.0,0.0,126.13953,68.48328,-160.5597
1765589686715,-0.9350586,0.29541016,-0.21044922,0.36621094,-0.18310547,0.0,0.0,0.0,0.0,126.18347,68.48328,-160.53223
1765589686803,-0.93408203,0.29492188,-0.21191406,0.12207031,0.0,0.0,0.0,0.0,0.0,126.18347,68.48328,-160.53223
1765589686815,-0.93408203,0.29492188,-0.21191406,0.12207031,0.0,0.0,0.0,0.0,0.0,126.17798,68.48877,-160.5542
1765589686903,-0.93603516,0.2944336,-0.21191406,0.12207031,-0.24414062,0.0,0.0,0.0,0.0,126.17798,68.48877,-160.5542
1765589686914,-0.93603516,0.2944336,-0.21191406,0.12207031,-0.24414062,0.0,0.0,0.0,0.0,126.1615,68.49426,-160.57068
1765589687003,-0.9345703,0.296875,-0.2109375,0.24414062,-0.18310547,0.0,0.0,0.0,0.0,126.1615,68.49426,-160.57068
1765589687014,-0.9345703,0.296875,-0.2109375,0.24414062,-0.18310547,0.0,0.0,0.0,0.0,126.12854,68.50525,-160.62012
1765589687102,-0.93652344,0.29589844,-0.21728516,-0.24414062,0.0,0.0,0.0,0.0,0.0,126.12854,68.50525,-160.62012
1765589687114,-0.93652344,0.29589844,-0.21728516,-0.24414062,0.0,0.0,0.0,0.0,0.0,126.07361,68.52173,-160.68054
1765589687202,-0.9316406,0.29296875,-0.21435547,0.0,-0.4272461,0.0,0.0,0.0,0.0,126.07361,68.52173,-160.68054
1765589687214,-0.9316406,0.29296875,-0.21435547,0.0,-0.4272461,0.0,0.0,0.0,0.0,126.0791,68.516235,-160.66406
1765589687302,-0.9370117,0.2939453,-0.20898438,-0.061035156,0.061035156,0.0,0.0,0.0,0.0,126.0791,68.516235,-160.66406
1765589687313,-0.9370117,0.2939453,-0.20898438,-0.061035156,0.061035156,0.0,0.0,0.0,0.0,126.068115,68.52173,-160.68604
1765589687401,-0.9326172,0.29589844,-0.21533203,-0.36621094,0.18310547,0.0,0.0,0.0,0.0,126.068115,68.52173,-160.68604
1765589687413,-0.9326172,0.29589844,-0.21533203,-0.36621094,0.18310547,0.0,0.0,0.0,0.0,126.0791,68.52173,-160.67505
1765589687501,-0.93603516,0.2939453,-0.20947266,0.12207031,-0.061035156,0.0,0.0,0.0,0.0,126.0791,68.52173,-160.67505
1765589687513,-0.93603516,0.2939453,-0.20947266,0.12207031,-0.061035156,0.0,0.0,0.0,0.0,126.13403,68.49426,-160.58167
1765589687601,-0.93603516,0.29589844,-0.21044922,-0.5493164,0.8544922,0.0,0.0,0.0,0.0,126.13403,68.49426,-160.58167
1765589687612,-0.93603516,0.29589844,-0.21044922,-0.5493164,0.8544922,0.0,0.0,0.0,0.0,126.156006,68.48877,-160.56519
1765589687701,-0.93408203,0.2944336,-0.21484375,0.24414062,-0.061035156,0.0,0.0,0.0,0.0,126.156006,68.48877,-160.56519
1765589687712,-0.93408203,0.2944336,-0.21484375,0.24414062,-0.061035156,0.0,0.0,0.0,0.0,126.21094,68.47229,-160.49927
1765589687800,-0.9345703,0.29638672,-0.2109375,-0.5493164,0.36621094,0.0,0.0,0.0,0.0,126.21094,68.47229,-160.49927
1765589687812,-0.9345703,0.29638672,-0.2109375,-0.5493164,0.36621094,0.0,0.0,0.0,0.0,126.23291,68.4613,-160.45532
1765589687900,-0.93408203,0.29589844,-0.2133789,0.061035156,-0.18310547,0.0,0.0,0.0,0.0,126.23291,68.4613,-160.45532
1765589687912,-0.93408203,0.29589844,-0.2133789,0.061035156,-0.18310547,0.0,0.0,0.0,0.0,126.2384,68.45581,-160.42236
1765589688000,-0.9345703,0.29492188,-0.21191406,-0.4272461,0.0,0.0,0.0,0.0,0.0,126.2384,68.45581,-160.42236
1765589688011,-0.9345703,0.29492188,-0.21191406,-0.4272461,0.0,0.0,0.0,0.0,0.0,126.19995,68.45581,-160.41687
1765589688099,-0.9345703,0.29589844,-0.21044922,0.4272461,-0.5493164,0.0,0.0,0.0,0.0,126.19995,68.45581,-160.41687
1765589688111,-0.9345703,0.29589844,-0.21044922,0.4272461,-0.5493164,0.0,0.0,0.0,0.0,126.12854,68.47229,-160.48828
1765589688199,-0.93603516,0.29589844,-0.21533203,-0.061035156,0.061035156,0.0,0.0,0.0,0.0,126.12854,68.47229,-160.48828
1765589688211,-0.93603516,0.29589844,-0.21533203,-0.061035156,0.061035156,0.0,0.0,0.0,0.0,126.09558,68.48328,-160.51025
1765589688299,-0.9345703,0.29248047,-0.21728516,-0.36621094,0.18310547,0.0,0.0,0.0,0.0,126.09558,68.48328,-160.51025
1765589688311,-0.9345703,0.29248047,-0.21728516,-0.36621094,0.18310547,0.0,0.0,0.0,0.0,126.14502,68.45581,-160.40039
1765589688399,-0.9350586,0.29736328,-0.20947266,-0.24414062,0.0,0.0,0.0,0.0,0.0,126.14502,68.45581,-160.40039
1765589688410,-0.9350586,0.29736328,-0.20947266,-0.24414062,0.0,0.0,0.0,0.0,0.0,126.10657,68.47778,-160.4718
1765589688498,-0.9350586,0.29638672,-0.21533203,0.18310547,-0.30517578,0.0,0.0,0.0,0.0,126.10657,68.47778,-160.4718
1765589688510,-0.9350586,0.29638672,-0.21533203,0.18310547,-0.30517578,0.0,0.0,0.0,0.0,126.11755,68.47229,-160.42786
1765589688598,-0.9375,0.2944336,-0.20703125,-0.12207031,-0.24414062,0.0,0.0,0.0,0.0,126.11755,68.47229,-160.42786
1765589688610,-0.9375,0.2944336,-0.20703125,-0.12207031,-0.24414062,0.0,0.0,0.0,0.0,126.11206,68.4668,-160.41138
1765589688698,-0.93408203,0.29638672,-0.21044922,-0.18310547,0.18310547,0.0,0.0,0.0,0.0,126.11206,68.4668,-160.41138
1765589688709,-0.93408203,0.29638672,-0.21044922,-0.18310547,0.18310547,0.0,0.0,0.0,0.0,126.04614,68.49426,-160.48828
1765589688797,-0.9345703,0.29492188,-0.21289062,0.0,-0.18310547,0.0,0.0,0.0,0.0,126.04614,68.49426,-160.48828
1765589688809,-0.9345703,0.29492188,-0.21289062,0.0,-0.18310547,0.0,0.0,0.0,0.0,126.04614,68.49426,-160.4773
1765589688897,-0.93603516,0.29541016,-0.20947266,0.061035156,-0.12207031,0.0,0.0,0.0,0.0,126.04614,68.49426,-160.4773
1765589688909,-0.93603516,0.29541016,-0.20947266,0.061035156,-0.12207031,0.0,0.0,0.0,0.0,126.04614,68.49426,-160.48279
1765589688997,-0.93408203,0.29589844,-0.2109375,-0.061035156,0.0,0.0,0.0,0.0,0.0,126.04614,68.49426,-160.48279
1765589689008,-0.93408203,0.29589844,-0.2109375,-0.061035156,0.0,0.0,0.0,0.0,0.0,126.01868,68.50525,-160.50476
1765589689096,-0.9350586,0.29541016,-0.20947266,0.18310547,-0.18310547,0.0,0.0,0.0,0.0,126.01868,68.50525,-160.50476
1765589689108,-0.9350586,0.29541016,-0.20947266,0.18310547,-0.18310547,0.0,0.0,0.0,0.0,126.01868,68.50525,-160.49377
1765589689196,-0.9350586,0.29785156,-0.2084961,0.18310547,-0.48828125,0.0,0.0,0.0,0.0,126.01868,68.50525,-160.49377
1765589689208,-0.9350586,0.29785156,-0.2084961,0.18310547,-0.48828125,0.0,0.0,0.0,0.0,125.98572,68.52173,-160.5542
1765589689296,-0.93603516,0.29589844,-0.21142578,0.18310547,0.30517578,0.0,0.0,0.0,0.0,125.98572,68.52173,-160.5542
1765589689307,-0.93603516,0.29589844,-0.21142578,0.18310547,0.30517578,0.0,0.0,0.0,0.0,125.963745,68.52722,-160.57068
1765589689396,-0.9350586,0.29296875,-0.21582031,0.30517578,-0.7324219,0.0,0.0,0.0,0.0,125.963745,68.52722,-160.57068
1765589689407,-0.9350586,0.29296875,-0.21582031,0.30517578,-0.7324219,0.0,0.0,0.0,0.0,125.94177,68.52722,-160.5597
1765589689495,-0.9355469,0.29492188,-0.20947266,-0.30517578,0.24414062,0.0,0.0,0.0,0.0,125.94177,68.52722,-160.5597
1765589689507,-0.9355469,0.29492188,-0.20947266,-0.30517578,0.24414062,0.0,0.0,0.0,0.0,125.88684,68.5437,-160.62561
1765589689595,-0.9355469,0.29736328,-0.21191406,-0.18310547,-0.4272461,0.0,0.0,0.0,0.0,125.88684,68.5437,-160.62561
1765589689607,-0.9355469,0.29736328,-0.21191406,-0.18310547,-0.4272461,0.0,0.0,0.0,0.0,125.842896,68.55469,-160.65857
1765589689695,-0.93652344,0.2939453,-0.20703125,-0.36621094,-0.36621094,0.0,0.0,0.0,0.0,125.842896,68.55469,-160.65857
1765589689706,-0.93652344,0.2939453,-0.20703125,-0.36621094,-0.36621094,0.0,0.0,0.0,0.0,125.76599,68.565674,-160.70251
1765589689795,-0.9355469,0.2919922,-0.20605469,0.9765625,-0.7324219,0.5493164,0.0,0.0,0.0,125.76599,68.565674,-160.70251
1765589689806,-0.9355469,0.2919922,-0.20605469,0.9765625,-0.7324219,0.5493164,0.0,0.0,0.0,125.66162,68.60962,-160.83435
1765589689894,-0.93115234,0.30859375,-0.2109375,0.79345703,-1.0986328,1.159668,0.0,0.0,0.0,125.66162,68.60962,-160.83435
1765589689906,-0.93115234,0.30859375,-0.2109375,0.79345703,-1.0986328,1.159668,0.0,0.0,0.0,125.31006,68.604126,-161.46606
1765589689994,-0.93847656,0.28955078,-0.203125,-0.18310547,0.0,0.0,0.0,0.0,0.0,125.31006,68.604126,-161.46606
1765589690006,-0.93847656,0.28955078,-0.203125,-0.18310547,0.0,0.0,0.0,0.0,0.0,125.354004,68.532715,-161.35071
1765589690094,-0.93603516,0.29833984,-0.20507812,-1.0986328,0.6713867,-0.4272461,0.0,0.0,0.0,125.354004,68.532715,-161.35071
1765589690105,-0.93603516,0.29833984,-0.20507812,-1.0986328,0.6713867,-0.4272461,0.0,0.0,0.0,125.37048,68.55469,-161.3617
1765589690193,-0.9326172,0.29541016,-0.20361328,-0.24414062,0.0,-0.6713867,0.0,0.0,0.0,125.37048,68.55469,-161.3617
1765589690206,-0.9326172,0.29541016,-0.20361328,-0.24414062,0.0,-0.6713867,0.0,0.0,0.0,125.37598,68.61511,-161.31775
1765589690293,-0.9355469,0.29541016,-0.20751953,0.30517578,-0.18310547,0.061035156,0.0,0.0,0.0,125.37598,68.61511,-161.31775
1765589690305,-0.9355469,0.29541016,-0.20751953,0.30517578,-0.18310547,0.061035156,0.0,0.0,0.0,125.45288,68.64807,-161.25183
1765589690393,-0.9375,0.29785156,-0.20605469,1.3427734,-0.7324219,0.5493164,0.0,0.0,0.0,125.45288,68.64807,-161.25183
1765589690404,-0.9375,0.29785156,-0.20605469,1.3427734,-0.7324219,0.5493164,0.0,0.0,0.0,125.41992,68.64807,-161.42212
1765589690493,-0.9370117,0.29101562,-0.20654297,-0.7324219,0.0,-0.24414062,0.0,0.0,0.0,125.41992,68.64807,-161.42212
1765589690504,-0.9370117,0.29101562,-0.20654297,-0.7324219,0.0,-0.24414062,0.0,0.0,0.0,125.32654,68.637085,-161.54297
1765589690592,-0.9355469,0.30029297,-0.20166016,1.0375977,-0.5493164,0.0,0.0,0.0,0.0,125.32654,68.637085,-161.54297
1765589690604,-0.9355469,0.30029297,-0.20166016,1.0375977,-0.5493164,0.0,0.0,0.0,0.0,125.2771,68.68652,-161.66931
1765589690692,-0.93408203,0.3017578,-0.20605469,-0.61035156,0.4272461,0.24414062,0.0,0.0,0.0,125.2771,68.68652,-161.66931
1765589690704,-0.93408203,0.3017578,-0.20605469,-0.61035156,0.4272461,0.24414062,0.0,0.0,0.0,125.200195,68.670044,-161.80664
1765589690792,-0.93896484,0.28515625,-0.20654297,-0.48828125,0.061035156,-0.48828125,0.0,0.0,0.0,125.200195,68.670044,-161.80664
1765589690804,-0.93896484,0.28515625,-0.20654297,-0.48828125,0.061035156,-0.48828125,0.0,0.0,0.0,125.20569,68.66455,-161.60889
1765589690891,-0.93115234,0.2993164,-0.20458984,-0.6713867,0.12207031,-0.30517578,0.0,0.0,0.0,125.20569,68.66455,-161.60889
1765589690903,-0.93115234,0.2993164,-0.20458984,-0.6713867,0.12207031,-0.30517578,0.0,0.0,0.0,125.1947,68.69751,-161.68579
1765589690991,-0.93896484,0.2944336,-0.20410156,0.24414062,-0.5493164,0.0,0.0,0.0,0.0,125.1947,68.69751,-161.68579
1765589691003,-0.93896484,0.2944336,-0.20410156,0.24414062,-0.5493164,0.0,0.0,0.0,0.0,125.23865,68.68652,-161.57043
1765589691091,-0.93603516,0.29638672,-0.20361328,-0.91552734,-0.30517578,0.0,0.0,0.0,0.0,125.23865,68.68652,-161.57043
1765589691103,-0.93603516,0.29638672,-0.20361328,-0.91552734,-0.30517578,0.0,0.0,0.0,0.0,125.18921,68.69202,-161.5979
1765589691190,-0.93603516,0.29785156,-0.20800781,-1.8310547,0.36621094,-0.18310547,0.0,0.0,0.0,125.18921,68.69202,-161.5979
1765589691202,-0.93603516,0.29785156,-0.20800781,-1.8310547,0.36621094,-0.18310547,0.0,0.0,0.0,124.974976,68.73047,-161.7572
1765589691290,-0.9394531,0.30126953,-0.20507812,-2.5634766,0.4272461,-1.8920898,0.0,0.0,0.0,124.974976,68.73047,-161.7572
1765589691302,-0.9394531,0.30126953,-0.20507812,-2.5634766,0.4272461,-1.8920898,0.0,0.0,0.0,125.00244,68.79089,-161.58691
1765589691390,-0.92333984,0.28759766,-0.19238281,-2.1362305,2.6245117,-1.2207031,0.0,0.0,0.0,125.00244,68.79089,-161.58691
1765589691401,-0.92333984,0.28759766,-0.19238281,-2.1362305,2.6245117,-1.2207031,0.0,0.0,0.0,125.23865,68.85681,-161.04858
1765589691490,-0.9526367,0.28808594,-0.19238281,1.5869141,3.0517578,1.4038086,0.0,0.0,0.0,125.23865,68.85681,-161.04858
1765589691501,-0.9526367,0.28808594,-0.19238281,1.5869141,3.0517578,1.4038086,0.0,0.0,0.0,125.76599,68.670044,-160.34546
1765589691589,-0.92871094,0.3022461,-0.21777344,3.4179688,-1.2817383,0.9765625,0.0,0.0,0.0,125.76599,68.670044,-160.34546
1765589691605,-0.92871094,0.3022461,-0.21777344,3.4179688,-1.2817383,0.9765625,0.0,0.0,0.0,126.11755,68.57117,-160.24109
1765589691689,-0.93603516,0.2866211,-0.21582031,-0.30517578,1.0986328,-0.7324219,0.0,0.0,0.0,126.11755,68.57117,-160.24109
1765589691700,-0.93603516,0.2866211,-0.21582031,-0.30517578,1.0986328,-0.7324219,0.0,0.0,0.0,126.27136,68.56018,-160.16968
1765589691789,-0.9375,0.3022461,-0.21142578,0.0,0.79345703,0.0,0.0,0.0,0.0,126.27136,68.56018,-160.16968
1765589691800,-0.9375,0.3022461,-0.21142578,0.0,0.79345703,0.0,0.0,0.0,0.0,126.44714,68.549194,-160.11475
1765589691888,-0.93359375,0.29248047,-0.2133789,0.79345703,-0.79345703,0.5493164,0.0,0.0,0.0,126.44714,68.549194,-160.11475
1765589691900,-0.93359375,0.29248047,-0.2133789,0.79345703,-0.79345703,0.5493164,0.0,0.0,0.0,126.42517,68.532715,-160.18066
1765589691988,-0.9379883,0.29589844,-0.2109375,-0.36621094,0.061035156,0.18310547,0.0,0.0,0.0,126.42517,68.532715,-160.18066
1765589692000,-0.9379883,0.29589844,-0.2109375,-0.36621094,0.061035156,0.18310547,0.0,0.0,0.0,126.309814,68.51074,-160.35645
1765589692088,-0.93359375,0.2939453,-0.21533203,-2.6245117,0.8544922,-1.0986328,0.0,0.0,0.0,126.309814,68.51074,-160.35645
1765589692099,-0.93359375,0.2939453,-0.21533203,-2.6245117,0.8544922,-1.0986328,0.0,0.0,0.0,126.29883,68.52722,-160.22461
1765589692188,-0.9350586,0.29589844,-0.21142578,0.4272461,-1.2207031,0.12207031,0.0,0.0,0.0,126.29883,68.52722,-160.22461
1765589692199,-0.9350586,0.29589844,-0.21142578,0.4272461,-1.2207031,0.12207031,0.0,0.0,0.0,126.23291,68.58765,-160.30151
1765589692287,-0.93652344,0.29589844,-0.20751953,-0.12207031,-0.79345703,0.24414062,0.0,0.0,0.0,126.23291,68.58765,-160.30151
1765589692299,-0.93652344,0.29589844,-0.20751953,-0.12207031,-0.79345703,0.24414062,0.0,0.0,0.0,126.01868,68.604126,-160.53772
1765589692387,-0.9272461,0.28955078,-0.20947266,-0.30517578,0.0,-0.18310547,0.0,0.0,0.0,126.01868,68.604126,-160.53772
1765589692398,-0.9272461,0.28955078,-0.20947266,-0.30517578,0.0,-0.18310547,0.0,0.0,0.0,125.859375,68.620605,-160.6311
1765589692487,-0.9370117,0.2919922,-0.21142578,0.12207031,-0.12207031,0.12207031,0.0,0.0,0.0,125.859375,68.620605,-160.6311
1765589692498,-0.9370117,0.2919922,-0.21142578,0.12207031,-0.12207031,0.12207031,0.0,0.0,0.0,125.930786,68.604126,-160.58716
1765589692586,-0.92626953,0.29296875,-0.22460938,-2.6855469,0.18310547,-0.4272461,0.0,0.0,0.0,125.930786,68.604126,-160.58716
1765589692598,-0.92626953,0.29296875,-0.22460938,-2.6855469,0.18310547,-0.4272461,0.0,0.0,0.0,125.81543,68.61511,-160.69153
1765589692686,-0.9453125,0.29492188,-0.19384766,2.1972656,-2.746582,0.4272461,0.0,0.0,0.0,125.81543,68.61511,-160.69153
1765589692698,-0.9453125,0.29492188,-0.19384766,2.1972656,-2.746582,0.4272461,0.0,0.0,0.0,125.392456,68.741455,-161.15845
1765589692786,-0.93603516,0.2939453,-0.21777344,0.61035156,-0.79345703,-0.30517578,0.0,0.0,0.0,125.392456,68.741455,-161.15845
1765589692797,-0.93603516,0.2939453,-0.21777344,0.61035156,-0.79345703,-0.30517578,0.0,0.0,0.0,125.36499,68.71399,-161.17493
1765589692886,-0.9375,0.30273438,-0.2006836,-1.5258789,-1.0375977,-0.24414062,0.0,0.0,0.0,125.36499,68.71399,-161.17493
1765589692897,-0.9375,0.30273438,-0.2006836,-1.5258789,-1.0375977,-0.24414062,0.0,0.0,0.0,125.1947,68.74695,-161.32324
1765589692985,-0.93652344,0.30029297,-0.1928711,1.4648438,-2.0751953,0.24414062,0.0,0.0,0.0,125.1947,68.74695,-161.32324
1765589692997,-0.93652344,0.30029297,-0.1928711,1.4648438,-2.0751953,0.24414062,0.0,0.0,0.0,124.678345,68.87329,-161.90002
1765589693085,-0.9370117,0.28466797,-0.19970703,-2.1972656,0.5493164,-0.24414062,0.0,0.0,0.0,124.678345,68.87329,-161.90002
1765589693097,-0.9370117,0.28466797,-0.19970703,-2.1972656,0.5493164,-0.24414062,0.0,0.0,0.0,124.40369,68.95569,-162.04834
1765589693185,-0.9370117,0.3022461,-0.18847656,0.061035156,-1.0986328,-0.12207031,0.0,0.0,0.0,124.40369,68.95569,-162.04834
1765589693196,-0.9370117,0.3022461,-0.18847656,0.061035156,-1.0986328,-0.12207031,0.0,0.0,0.0,123.99719,69.054565,-162.61963
1765589693284,-0.93603516,0.2866211,-0.20800781,0.24414062,-1.0986328,0.0,0.0,0.0,0.0,123.99719,69.054565,-162.61963
1765589693296,-0.93603516,0.2866211,-0.20800781,0.24414062,-1.0986328,0.0,0.0,0.0,0.0,123.94226,69.06555,-162.50427
1765589693384,-0.93066406,0.29736328,-0.19189453,-0.7324219,0.36621094,-0.24414062,0.0,0.0,0.0,123.94226,69.06555,-162.50427
1765589693396,-0.93066406,0.29736328,-0.19189453,-0.7324219,0.36621094,-0.24414062,0.0,0.0,0.0,123.826904,69.09851,-162.76794
1765589693484,-0.9423828,0.3017578,-0.18847656,0.12207031,-0.79345703,0.61035156,0.0,0.0,0.0,123.826904,69.09851,-162.76794
1765589693495,-0.9423828,0.3017578,-0.18847656,0.12207031,-0.79345703,0.61035156,0.0,0.0,0.0,123.92578,69.07654,-162.65808
1765589693584,-0.9238281,0.28076172,-0.19580078,-0.48828125,0.30517578,-0.12207031,0.0,0.0,0.0,123.92578,69.07654,-162.65808
1765589693595,-0.9238281,0.28076172,-0.19580078,-0.48828125,0.30517578,-0.12207031,0.0,0.0,0.0,123.59619,69.142456,-162.94922
1765589693683,-0.94628906,0.30566406,-0.18408203,2.8686523,-3.2348633,0.79345703,0.0,0.0,0.0,123.59619,69.142456,-162.94922
1765589693695,-0.94628906,0.30566406,-0.18408203,2.8686523,-3.2348633,0.79345703,0.0,0.0,0.0,123.49182,69.19739,-163.2898
1765589693783,-0.93066406,0.28857422,-0.19628906,-1.5869141,3.479004,-0.12207031,0.0,0.0,0.0,123.49182,69.19739,-163.2898
1765589693794,-0.93066406,0.28857422,-0.19628906,-1.5869141,3.479004,-0.12207031,0.0,0.0,0.0,123.49182,69.175415,-163.2898
1765589693883,-0.94189453,0.30371094,-0.18261719,-1.4648438,0.5493164,-0.7324219,0.0,0.0,0.0,123.49182,69.175415,-163.2898
1765589693894,-0.94189453,0.30371094,-0.18261719,-1.4648438,0.5493164,-0.7324219,0.0,0.0,0.0,123.689575,69.12048,-163.13599
1765589693982,-0.9350586,0.29296875,-0.20751953,4.211426,-4.4555664,1.5258789,0.0,0.0,0.0,123.689575,69.12048,-163.13599
1765589693994,-0.9350586,0.29296875,-0.20751953,4.211426,-4.4555664,1.5258789,0.0,0.0,0.0,123.42041,69.16992,-163.41064
1765589694082,-0.9345703,0.29248047,-0.19384766,-2.9296875,3.112793,-0.9765625,0.0,0.0,0.0,123.42041,69.16992,-163.41064
1765589694093,-0.9345703,0.29248047,-0.19384766,-2.9296875,3.112793,-0.9765625,0.0,0.0,0.0,123.47534,69.13696,-163.32825
1765589694182,-0.94433594,0.29882812,-0.18017578,0.79345703,-1.2817383,-0.12207031,0.0,0.0,0.0,123.47534,69.13696,-163.32825
1765589694193,-0.94433594,0.29882812,-0.18017578,0.79345703,-1.2817383,-0.12207031,0.0,0.0,0.0,123.722534,69.104004,-163.07007
1765589694281,-0.9399414,0.29736328,-0.19384766,2.5024414,-2.4414062,0.6713867,0.0,0.0,0.0,123.722534,69.104004,-163.07007
1765589694293,-0.9399414,0.29736328,-0.19384766,2.5024414,-2.4414062,0.6713867,0.0,0.0,0.0,123.42041,69.19739,-163.42712
1765589694381,-0.9428711,0.29345703,-0.19335938,-0.91552734,2.5024414,-0.18310547,0.0,0.0,0.0,123.42041,69.19739,-163.42712
1765589694393,-0.9428711,0.29345703,-0.19335938,-0.91552734,2.5024414,-0.18310547,0.0,0.0,0.0,123.63464,69.104004,-163.2898
1765589694481,-0.94189453,0.2998047,-0.18457031,0.061035156,-1.8310547,-0.4272461,0.0,0.0,0.0,123.63464,69.104004,-163.2898
1765589694492,-0.94189453,0.2998047,-0.18457031,0.061035156,-1.8310547,-0.4272461,0.0,0.0,0.0,123.69507,69.1095,-163.31177
1765589694581,-0.9355469,0.29736328,-0.18359375,0.0,1.4648438,0.12207031,0.0,0.0,0.0,123.69507,69.1095,-163.31177
1765589694592,-0.9355469,0.29736328,-0.18359375,0.0,1.4648438,0.12207031,0.0,0.0,0.0,123.59619,69.13147,-163.42712
1765589694680,-0.9404297,0.29638672,-0.1928711,0.24414062,0.36621094,0.061035156,0.0,0.0,0.0,123.59619,69.13147,-163.42712
1765589694692,-0.9404297,0.29638672,-0.1928711,0.24414062,0.36621094,0.061035156,0.0,0.0,0.0,123.689575,69.1095,-163.30627
1765589694780,-0.93896484,0.29589844,-0.19091797,0.7324219,-0.6713867,0.18310547,0.0,0.0,0.0,123.689575,69.1095,-163.30627
1765589694791,-0.93896484,0.29589844,-0.19091797,0.7324219,-0.6713867,0.18310547,0.0,0.0,0.0,123.56323,69.13147,-163.47656
1765589694880,-0.93847656,0.296875,-0.19140625,-0.30517578,0.8544922,-0.12207031,0.0,0.0,0.0,123.56323,69.13147,-163.47656
1765589694891,-0.93847656,0.296875,-0.19140625,-0.30517578,0.8544922,-0.12207031,0.0,0.0,0.0,123.57971,69.12048,-163.49304
1765589694979,-0.93408203,0.29541016,-0.19433594,0.6713867,-0.24414062,0.12207031,0.0,0.0,0.0,123.57971,69.12048,-163.49304
1765589694991,-0.93408203,0.29541016,-0.19433594,0.6713867,-0.24414062,0.12207031,0.0,0.0,0.0,123.59619,69.11499,-163.48206
1765589695079,-0.93847656,0.29589844,-0.1928711,0.0,0.0,-0.18310547,0.0,0.0,0.0,123.59619,69.11499,-163.48206
1765589695091,-0.93847656,0.29589844,-0.1928711,0.0,0.0,-0.18310547,0.0,0.0,0.0,123.6676,69.104004,-163.41614
1765589695179,-0.94091797,0.2939453,-0.19189453,-0.36621094,0.36621094,-0.24414062,0.0,0.0,0.0,123.6676,69.104004,-163.41614
1765589695190,-0.94091797,0.2939453,-0.19189453,-0.36621094,0.36621094,-0.24414062,0.0,0.0,0.0,123.722534,69.1095,-163.33374
1765589695279,-0.9375,0.29736328,-0.19189453,-0.30517578,0.24414062,0.0,0.0,0.0,0.0,123.722534,69.1095,-163.33374
1765589695290,-0.9375,0.29736328,-0.19189453,-0.30517578,0.24414062,0.0,0.0,0.0,0.0,123.72803,69.11499,-163.35022
1765589695378,-0.94140625,0.2939453,-0.19238281,0.4272461,-0.18310547,0.0,0.0,0.0,0.0,123.72803,69.11499,-163.35022
1765589695390,-0.94140625,0.2939453,-0.19238281,0.4272461,-0.18310547,0.0,0.0,0.0,0.0,123.71704,69.11499,-163.33374
1765589695478,-0.9379883,0.2993164,-0.19140625,-0.30517578,0.4272461,-0.061035156,0.0,0.0,0.0,123.71704,69.11499,-163.33374
1765589695490,-0.9379883,0.2993164,-0.19140625,-0.30517578,0.4272461,-0.061035156,0.0,0.0,0.0,123.64563,69.13696,-163.45459
1765589695578,-0.9355469,0.29589844,-0.19873047,0.36621094,-0.36621094,0.4272461,0.0,0.0,0.0,123.64563,69.13696,-163.45459
1765589695590,-0.9355469,0.29589844,-0.19873047,0.36621094,-0.36621094,0.4272461,0.0,0.0,0.0,123.66211,69.13147,-163.41064
1765589695677,-0.9375,0.29345703,-0.19677734,-0.18310547,0.061035156,-0.061035156,0.0,0.0,0.0,123.66211,69.13147,-163.41064
1765589695691,-0.9375,0.29345703,-0.19677734,-0.18310547,0.061035156,-0.061035156,0.0,0.0,0.0,123.673096,69.11499,-163.41064
1765589695777,-0.9375,0.29638672,-0.19189453,-0.18310547,0.36621094,-0.061035156,0.0,0.0,0.0,123.673096,69.11499,-163.41064
1765589695789,-0.9375,0.29638672,-0.19189453,-0.18310547,0.36621094,-0.061035156,0.0,0.0,0.0,123.69507,69.11499,-163.39417
1765589695877,-0.93847656,0.29785156,-0.19628906,0.30517578,-0.24414062,0.0,0.0,0.0,0.0,123.69507,69.11499,-163.39417
1765589695889,-0.93847656,0.29785156,-0.19628906,0.30517578,-0.24414062,0.0,0.0,0.0,0.0,123.777466,69.09851,-163.2898
1765589695976,-0.94140625,0.29492188,-0.19091797,0.0,-0.18310547,0.0,0.0,0.0,0.0,123.777466,69.09851,-163.2898
1765589695988,-0.94140625,0.29492188,-0.19091797,0.0,-0.18310547,0.0,0.0,0.0,0.0,123.826904,69.07654,-163.19641
1765589696076,-0.9394531,0.296875,-0.19384766,-0.4272461,0.5493164,-0.12207031,0.0,0.0,0.0,123.826904,69.07654,-163.19641
1765589696088,-0.9394531,0.296875,-0.19384766,-0.4272461,0.5493164,-0.12207031,0.0,0.0,0.0,123.793945,69.087524,-163.26233
1765589696176,-0.9375,0.29638672,-0.19726562,0.0,-0.12207031,0.0,0.0,0.0,0.0,123.793945,69.087524,-163.26233
1765589696187,-0.9375,0.29638672,-0.19726562,0.0,-0.12207031,0.0,0.0,0.0,0.0,123.793945,69.08203,-163.25684
1765589696276,-0.9404297,0.29589844,-0.19238281,-0.061035156,0.061035156,0.0,0.0,0.0,0.0,123.793945,69.08203,-163.25684
1765589696287,-0.9404297,0.29589844,-0.19238281,-0.061035156,0.061035156,0.0,0.0,0.0,0.0,123.826904,69.071045,-163.22388
1765589696375,-0.93847656,0.296875,-0.19140625,-0.24414062,0.4272461,0.0,0.0,0.0,0.0,123.826904,69.071045,-163.22388
1765589696387,-0.93847656,0.296875,-0.19140625,-0.24414062,0.4272461,0.0,0.0,0.0,0.0,123.8324,69.071045,-163.24036
1765589696475,-0.93896484,0.29492188,-0.19628906,0.24414062,-0.18310547,0.0,0.0,0.0,0.0,123.8324,69.071045,-163.24036
1765589696486,-0.93896484,0.29492188,-0.19628906,0.24414062,-0.18310547,0.0,0.0,0.0,0.0,123.82141,69.071045,-163.25684
1765589696575,-0.93896484,0.3017578,-0.19335938,0.12207031,-0.36621094,0.0,0.0,0.0,0.0,123.82141,69.071045,-163.25684
1765589696586,-0.93896484,0.3017578,-0.19335938,0.12207031,-0.36621094,0.0,0.0,0.0,0.0,123.79944,69.087524,-163.32275
1765589696674,-0.93896484,0.29785156,-0.19433594,0.48828125,0.061035156,0.0,0.0,0.0,0.0,123.79944,69.087524,-163.32275
1765589696686,-0.93896484,0.29785156,-0.19433594,0.48828125,0.061035156,0.0,0.0,0.0,0.0,123.8324,69.07654,-163.30627
1765589696774,-0.9375,0.29345703,-0.19873047,0.0,-0.18310547,0.0,0.0,0.0,0.0,123.8324,69.07654,-163.30627
1765589696786,-0.9375,0.29345703,-0.19873047,0.0,-0.18310547,0.0,0.0,0.0,0.0,123.80493,69.06555,-163.30627
1765589696874,-0.9379883,0.2944336,-0.1953125,-0.30517578,0.36621094,0.0,0.0,0.0,0.0,123.80493,69.06555,-163.30627
1765589696886,-0.9379883,0.2944336,-0.1953125,-0.30517578,0.36621094,0.0,0.0,0.0,0.0,123.777466,69.071045,-163.33374
1765589696974,-0.9379883,0.296875,-0.1953125,0.0,0.061035156,0.0,0.0,0.0,0.0,123.777466,69.071045,-163.33374
1765589696985,-0.9379883,0.296875,-0.1953125,0.0,0.061035156,0.0,0.0,0.0,0.0,123.826904,69.06006,-163.29529
1765589697073,-0.9404297,0.29541016,-0.19384766,0.8544922,-0.79345703,0.0,0.0,0.0,0.0,123.826904,69.06006,-163.29529
1765589697086,-0.9404297,0.29541016,-0.19384766,0.8544922,-0.79345703,0.0,0.0,0.0,0.0,123.86536,69.054565,-163.27332
1765589697173,-0.93896484,0.29589844,-0.19628906,-0.5493164,0.6713867,0.0,0.0,0.0,0.0,123.86536,69.054565,-163.27332
1765589697186,-0.93896484,0.29589844,-0.19628906,-0.5493164,0.6713867,0.0,0.0,0.0,0.0,123.86536,69.04907,-163.27881
1765589697273,-0.93603516,0.29638672,-0.1953125,-0.18310547,0.18310547,0.0,0.0,0.0,0.0,123.86536,69.04907,-163.27881
1765589697284,-0.93603516,0.29638672,-0.1953125,-0.18310547,0.18310547,0.0,0.0,0.0,0.0,123.86536,69.04907,-163.27332
1765589697372,-0.93847656,0.29638672,-0.19335938,0.18310547,-0.30517578,0.0,0.0,0.0,0.0,123.86536,69.04907,-163.27332
1765589697385,-0.93847656,0.29638672,-0.19335938,0.18310547,-0.30517578,0.0,0.0,0.0,0.0,123.87634,69.04358,-163.26233
1765589697472,-0.9399414,0.29589844,-0.19482422,-0.36621094,0.30517578,0.0,0.0,0.0,0.0,123.87634,69.04358,-163.26233
1765589697484,-0.9399414,0.29589844,-0.19482422,-0.36621094,0.30517578,0.0,0.0,0.0,0.0,123.88733,69.03259,-163.22937
1765589697572,-0.9375,0.29589844,-0.19482422,0.18310547,0.0,0.0,0.0,0.0,0.0,123.88733,69.03259,-163.22937
1765589697583,-0.9375,0.29589844,-0.19482422,0.18310547,0.0,0.0,0.0,0.0,0.0,123.90381,69.0271,-163.21838
1765589697672,-0.9404297,0.29589844,-0.1899414,-0.7324219,0.7324219,-0.48828125,0.0,0.0,0.0,123.90381,69.0271,-163.21838
1765589697683,-0.9404297,0.29589844,-0.1899414,-0.7324219,0.7324219,-0.48828125,0.0,0.0,0.0,123.931274,69.03259,-163.17993
1765589697771,-0.93847656,0.30126953,-0.19042969,0.4272461,0.18310547,0.061035156,0.0,0.0,0.0,123.931274,69.03259,-163.17993
1765589697783,-0.93847656,0.30126953,-0.19042969,0.4272461,0.18310547,0.061035156,0.0,0.0,0.0,123.96423,69.0271,-163.2019
1765589697871,-0.9355469,0.29248047,-0.1977539,0.061035156,-0.12207031,-0.12207031,0.0,0.0,0.0,123.96423,69.0271,-163.2019
1765589697883,-0.9355469,0.29248047,-0.1977539,0.061035156,-0.12207031,-0.12207031,0.0,0.0,0.0,124.002686,69.02161,-163.10852
1765589697971,-0.9370117,0.2939453,-0.19482422,0.5493164,0.5493164,0.18310547,0.0,0.0,0.0,124.002686,69.02161,-163.10852
1765589697982,-0.9370117,0.2939453,-0.19482422,0.5493164,0.5493164,0.18310547,0.0,0.0,0.0,124.06311,69.01062,-163.09204
1765589698070,-0.9370117,0.29736328,-0.19824219,0.12207031,0.061035156,0.061035156,0.0,0.0,0.0,124.06311,69.01062,-163.09204
1765589698082,-0.9370117,0.29736328,-0.19824219,0.12207031,0.061035156,0.061035156,0.0,0.0,0.0,124.11804,68.98865,-163.06458
1765589698170,-0.93603516,0.2939453,-0.19677734,0.6713867,-0.48828125,0.24414062,0.0,0.0,0.0,124.11804,68.98865,-163.06458
1765589698182,-0.93603516,0.2939453,-0.19677734,0.6713867,-0.48828125,0.24414062,0.0,0.0,0.0,124.16199,68.97217,-163.03162
1765589698270,-0.93603516,0.29736328,-0.19726562,-0.12207031,0.5493164,-0.12207031,0.0,0.0,0.0,124.16199,68.97217,-163.03162
1765589698281,-0.93603516,0.29736328,-0.19726562,-0.12207031,0.5493164,-0.12207031,0.0,0.0,0.0,124.156494,68.97217,-163.08655
1765589698369,-0.9379883,0.29345703,-0.1977539,0.36621094,-0.18310547,0.0,0.0,0.0,0.0,124.156494,68.97217,-163.08655
1765589698381,-0.9379883,0.29345703,-0.1977539,0.36621094,-0.18310547,0.0,0.0,0.0,0.0,124.2334,68.95569,-162.99316
1765589698469,-0.9370117,0.29589844,-0.1953125,0.12207031,0.12207031,0.0,0.0,0.0,0.0,124.2334,68.95569,-162.99316
1765589698481,-0.9370117,0.29589844,-0.1953125,0.12207031,0.12207031,0.0,0.0,0.0,0.0,124.27734,68.950195,-162.98767
1765589698569,-0.93603516,0.29492188,-0.19873047,0.0,0.0,0.0,0.0,0.0,0.0,124.27734,68.950195,-162.98767
1765589698581,-0.93603516,0.29492188,-0.19873047,0.0,0.0,0.0,0.0,0.0,0.0,124.260864,68.95569,-163.00964
1765589698669,-0.9379883,0.2944336,-0.20166016,0.0,-0.48828125,0.0,0.0,0.0,0.0,124.260864,68.95569,-163.00964
1765589698680,-0.9379883,0.2944336,-0.20166016,0.0,-0.48828125,0.0,0.0,0.0,0.0,124.244385,68.95569,-163.03162
1765589698768,-0.9375,0.29541016,-0.20410156,-0.4272461,0.4272461,0.0,0.0,0.0,0.0,124.244385,68.95569,-163.03162
1765589698780,-0.9375,0.29541016,-0.20410156,-0.4272461,0.4272461,0.0,0.0,0.0,0.0,124.23889,68.96118,-163.06458
1765589698868,-0.93408203,0.29589844,-0.1977539,-0.61035156,0.061035156,0.0,0.0,0.0,0.0,124.23889,68.96118,-163.06458
1765589698880,-0.93408203,0.29589844,-0.1977539,-0.61035156,0.061035156,0.0,0.0,0.0,0.0,124.260864,68.950195,-163.03162
1765589698968,-0.93847656,0.29541016,-0.19677734,0.12207031,-0.18310547,0.0,0.0,0.0,0.0,124.260864,68.950195,-163.03162
1765589698979,-0.93847656,0.29541016,-0.19677734,0.12207031,-0.18310547,0.0,0.0,0.0,0.0,124.29932,68.933716,-162.97668
1765589699068,-0.9379883,0.29736328,-0.20019531,-0.5493164,0.4272461,0.0,0.0,0.0,0.0,124.29932,68.933716,-162.97668
1765589699079,-0.9379883,0.29736328,-0.20019531,-0.5493164,0.4272461,0.0,0.0,0.0,0.0,124.365234,68.92273,-162.92175
1765589699167,-0.9375,0.29785156,-0.1928711,-0.18310547,0.18310547,0.0,0.0,0.0,0.0,124.365234,68.92273,-162.92175
1765589699179,-0.9375,0.29785156,-0.1928711,-0.18310547,0.18310547,0.0,0.0,0.0,0.0,124.40369,68.91174,-162.87231
1765589699267,-0.9370117,0.29638672,-0.19970703,-0.24414062,0.4272461,0.0,0.0,0.0,0.0,124.40369,68.91174,-162.87231
1765589699279,-0.9370117,0.29638672,-0.19970703,-0.24414062,0.4272461,0.0,0.0,0.0,0.0,124.41467,68.90076,-162.81738
1765589699367,-0.93603516,0.29589844,-0.20166016,0.12207031,-0.061035156,0.0,0.0,0.0,0.0,124.41467,68.90076,-162.81738
1765589699378,-0.93603516,0.29589844,-0.20166016,0.12207031,-0.061035156,0.0,0.0,0.0,0.0,124.469604,68.88428,-162.73499
1765589699467,-0.9399414,0.29541016,-0.1977539,-0.4272461,0.12207031,0.0,0.0,0.0,0.0,124.469604,68.88428,-162.73499
1765589699478,-0.9399414,0.29541016,-0.1977539,-0.4272461,0.12207031,0.0,0.0,0.0,0.0,124.486084,68.87329,-162.69653
1765589699566,-0.93847656,0.29833984,-0.19970703,-0.6713867,-0.18310547,0.0,0.0,0.0,0.0,124.486084,68.87329,-162.69653
1765589699578,-0.93847656,0.29833984,-0.19970703,-0.6713867,-0.18310547,0.0,0.0,0.0,0.0,124.420166,68.88428,-162.74048
1765589699666,-0.93603516,0.29541016,-0.19970703,-0.4272461,-0.7324219,-0.30517578,0.0,0.0,0.0,124.420166,68.88428,-162.74048
1765589699677,-0.93603516,0.29541016,-0.19970703,-0.4272461,-0.7324219,-0.30517578,0.0,0.0,0.0,124.25537,68.91724,-162.86682
1765589699765,-0.92822266,0.2915039,-0.19042969,0.18310547,-0.5493164,0.0,0.0,0.0,0.0,124.25537,68.91724,-162.86682
1765589699777,-0.92822266,0.2915039,-0.19042969,0.18310547,-0.5493164,0.0,0.0,0.0,0.0,124.107056,68.97766,-163.02612
1765589699865,-0.95751953,0.30029297,-0.18115234,0.91552734,1.8920898,0.91552734,0.0,0.0,0.0,124.107056,68.97766,-163.02612
1765589699877,-0.95751953,0.30029297,-0.18115234,0.91552734,1.8920898,0.91552734,0.0,0.0,0.0,124.35425,68.91724,-162.8064
1765589699965,-0.93066406,0.29736328,-0.20947266,0.9765625,0.18310547,0.36621094,0.0,0.0,0.0,124.35425,68.91724,-162.8064
1765589699976,-0.93066406,0.29736328,-0.20947266,0.9765625,0.18310547,0.36621094,0.0,0.0,0.0,124.35425,68.84033,-162.92725
1765589700065,-0.93603516,0.30029297,-0.20703125,1.5258789,-0.48828125,0.4272461,0.0,0.0,0.0,124.35425,68.84033,-162.92725
1765589700076,-0.93603516,0.30029297,-0.20703125,1.5258789,-0.48828125,0.4272461,0.0,0.0,0.0,124.39819,68.845825,-163.03711
1765589700164,-0.9379883,0.29785156,-0.2006836,-1.3427734,-0.30517578,-0.5493164,0.0,0.0,0.0,124.39819,68.845825,-163.03711
1765589700176,-0.9379883,0.29785156,-0.2006836,-1.3427734,-0.30517578,-0.5493164,0.0,0.0,0.0,124.436646,68.83484,-163.09204
1765589700264,-0.9355469,0.29492188,-0.19335938,-0.4272461,-1.0986328,0.0,0.0,0.0,0.0,124.436646,68.83484,-163.09204
1765589700276,-0.9355469,0.29492188,-0.19335938,-0.4272461,-1.0986328,0.0,0.0,0.0,0.0,124.20593,68.90625,-163.2843
1765589700364,-0.9379883,0.29492188,-0.19335938,0.0,0.12207031,-0.061035156,0.0,0.0,0.0,124.20593,68.90625,-163.2843
1765589700375,-0.9379883,0.29492188,-0.19335938,0.0,0.12207031,-0.061035156,0.0,0.0,0.0,124.10156,68.92822,-163.35022
1765589700464,-0.9379883,0.2944336,-0.19824219,0.0,0.0,-0.12207031,0.0,0.0,0.0,124.10156,68.92822,-163.35022
1765589700475,-0.9379883,0.2944336,-0.19824219,0.0,0.0,-0.12207031,0.0,0.0,0.0,124.10156,68.93921,-163.33374
1765589700563,-0.9375,0.29785156,-0.19482422,0.12207031,0.12207031,0.061035156,0.0,0.0,0.0,124.10156,68.93921,-163.33374
1765589700575,-0.9375,0.29785156,-0.19482422,0.12207031,0.12207031,0.061035156,0.0,0.0,0.0,124.11804,68.9447,-163.32825
1765589700663,-0.9355469,0.296875,-0.19726562,0.0,0.0,0.0,0.0,0.0,0.0,124.11804,68.9447,-163.32825
1765589700674,-0.9355469,0.296875,-0.19726562,0.0,0.0,0.0,0.0,0.0,0.0,124.14551,68.93921,-163.30627
1765589700763,-0.9370117,0.29589844,-0.19921875,-0.12207031,-0.12207031,0.0,0.0,0.0,0.0,124.14551,68.93921,-163.30627
1765589700774,-0.9370117,0.29589844,-0.19921875,-0.12207031,-0.12207031,0.0,0.0,0.0,0.0,124.11255,68.93921,-163.32825
1765589700863,-0.9379883,0.29589844,-0.19384766,0.48828125,-0.5493164,0.0,0.0,0.0,0.0,124.11255,68.93921,-163.32825
1765589700874,-0.9379883,0.29589844,-0.19384766,0.48828125,-0.5493164,0.0,0.0,0.0,0.0,124.0686,68.95569,-163.39417
1765589700963,-0.9370117,0.29785156,-0.18798828,-0.8544922,0.9765625,-0.30517578,0.0,0.0,0.0,124.0686,68.95569,-163.39417
1765589700974,-0.9370117,0.29785156,-0.18798828,-0.8544922,0.9765625,-0.30517578,0.0,0.0,0.0,124.107056,68.950195,-163.35571
1765589701062,-0.9375,0.29785156,-0.19628906,0.36621094,-0.24414062,0.0,0.0,0.0,0.0,124.107056,68.950195,-163.35571
1765589701074,-0.9375,0.29785156,-0.19628906,0.36621094,-0.24414062,0.0,0.0,0.0,0.0,124.08508,68.96118,-163.35571
1765589701161,-0.93652344,0.29296875,-0.19726562,0.12207031,0.18310547,-0.061035156,0.0,0.0,0.0,124.08508,68.96118,-163.35571
1765589701173,-0.93652344,0.29296875,-0.19726562,0.12207031,0.18310547,-0.061035156,0.0,0.0,0.0,124.156494,68.950195,-163.23486
1765589701261,-0.93896484,0.29492188,-0.19384766,-0.5493164,0.91552734,-0.061035156,0.0,0.0,0.0,124.156494,68.950195,-163.23486
1765589701273,-0.93896484,0.29492188,-0.19384766,-0.5493164,0.91552734,-0.061035156,0.0,0.0,0.0,124.227905,68.933716,-163.14697
1765589701361,-0.93603516,0.29833984,-0.19677734,0.48828125,-0.36621094,0.24414062,0.0,0.0,0.0,124.227905,68.933716,-163.14697
1765589701373,-0.93603516,0.29833984,-0.19677734,0.48828125,-0.36621094,0.24414062,0.0,0.0,0.0,124.18396,68.9447,-163.22388
1765589701461,-0.93603516,0.29541016,-0.19726562,0.0,0.0,0.0,0.0,0.0,0.0,124.18396,68.9447,-163.22388
1765589701472,-0.93603516,0.29541016,-0.19726562,0.0,0.0,0.0,0.0,0.0,0.0,124.20044,68.933716,-163.19641
1765589701560,-0.9394531,0.29541016,-0.19580078,-0.18310547,0.18310547,-0.061035156,0.0,0.0,0.0,124.20044,68.933716,-163.19641
1765589701572,-0.9394531,0.29541016,-0.19580078,-0.18310547,0.18310547,-0.061035156,0.0,0.0,0.0,124.22241,68.933716,-163.14697
1765589701660,-0.9370117,0.296875,-0.19726562,-0.18310547,0.0,-0.061035156,0.0,0.0,0.0,124.22241,68.933716,-163.14697
1765589701672,-0.9370117,0.296875,-0.19726562,-0.18310547,0.0,-0.061035156,0.0,0.0,0.0,124.19495,68.9447,-163.16895
1765589701760,-0.93896484,0.29345703,-0.19824219,-0.18310547,0.12207031,-0.12207031,0.0,0.0,0.0,124.19495,68.9447,-163.16895
1765589701772,-0.93896484,0.29345703,-0.19824219,-0.18310547,0.12207031,-0.12207031,0.0,0.0,0.0,124.20044,68.95569,-163.11401
1765589701859,-0.9375,0.29345703,-0.19824219,0.061035156,-0.12207031,0.0,0.0,0.0,0.0,124.20044,68.95569,-163.11401
1765589701871,-0.9375,0.29345703,-0.19824219,0.061035156,-0.12207031,0.0,0.0,0.0,0.0,124.19495,68.96118,-163.14148
1765589701959,-0.93896484,0.29492188,-0.20166016,0.12207031,0.0,0.0,0.0,0.0,0.0,124.19495,68.96118,-163.14148
1765589701971,-0.93896484,0.29492188,-0.20166016,0.12207031,0.0,0.0,0.0,0.0,0.0,124.21692,68.966675,-163.13599
1765589702059,-0.93652344,0.29541016,-0.1953125,-1.159668,0.36621094,0.0,0.0,0.0,0.0,124.21692,68.966675,-163.13599
1765589702071,-0.93652344,0.29541016,-0.1953125,-1.159668,0.36621094,0.0,0.0,0.0,0.0,124.24988,68.950195,-163.08655
1765589702159,-0.93652344,0.29833984,-0.1953125,0.0,0.0,0.0,0.0,0.0,0.0,124.24988,68.950195,-163.08655
1765589702170,-0.93652344,0.29833984,-0.1953125,0.0,0.0,0.0,0.0,0.0,0.0,124.22241,68.96118,-163.1305
1765589702258,-0.9375,0.29541016,-0.19726562,0.18310547,-0.12207031,0.0,0.0,0.0,0.0,124.22241,68.96118,-163.1305
1765589702270,-0.9375,0.29541016,-0.19726562,0.18310547,-0.12207031,0.0,0.0,0.0,0.0,124.24988,68.950195,-163.08655
1765589702358,-0.94140625,0.2939453,-0.19433594,-0.12207031,0.061035156,0.0,0.0,0.0,0.0,124.24988,68.950195,-163.08655
1765589702370,-0.94140625,0.2939453,-0.19433594,-0.12207031,0.061035156,0.0,0.0,0.0,0.0,124.28284,68.93921,-163.02612
1765589702458,-0.9370117,0.29785156,-0.19921875,-0.30517578,0.79345703,0.0,0.0,0.0,0.0,124.28284,68.93921,-163.02612
1765589702469,-0.9370117,0.29785156,-0.19921875,-0.30517578,0.79345703,0.0,0.0,0.0,0.0,124.27185,68.950195,-163.07007
1765589702557,-0.93603516,0.29589844,-0.19873047,0.0,0.30517578,0.0,0.0,0.0,0.0,124.27185,68.950195,-163.07007
1765589702569,-0.93603516,0.29589844,-0.19873047,0.0,0.30517578,0.0,0.0,0.0,0.0,124.348755,68.92822,-162.97119
1765589702657,-0.9399414,0.29785156,-0.19824219,0.30517578,0.0,0.0,0.0,0.0,0.0,124.348755,68.92822,-162.97119
1765589702669,-0.9399414,0.29785156,-0.19824219,0.30517578,0.0,0.0,0.0,0.0,0.0,124.40918,68.91724,-162.91077
1765589702757,-0.9375,0.29785156,-0.1977539,0.18310547,0.30517578,0.0,0.0,0.0,0.0,124.40918,68.91724,-162.91077
1765589702769,-0.9375,0.29785156,-0.1977539,0.18310547,0.30517578,0.0,0.0,0.0,0.0,124.45862,68.90625,-162.85583
1765589702857,-0.93603516,0.2944336,-0.1977539,0.18310547,0.30517578,0.0,0.0,0.0,0.0,124.45862,68.90625,-162.85583
1765589702869,-0.93603516,0.2944336,-0.1977539,0.18310547,0.30517578,0.0,0.0,0.0,0.0,124.51904,68.88428,-162.77893
1765589702956,-0.9370117,0.29492188,-0.19970703,0.5493164,0.12207031,0.0,0.0,0.0,0.0,124.51904,68.88428,-162.77893
1765589702968,-0.9370117,0.29492188,-0.19970703,0.5493164,0.12207031,0.0,0.0,0.0,0.0,124.57947,68.87329,-162.71301
1765589703056,-0.93896484,0.296875,-0.20654297,-0.12207031,0.48828125,0.0,0.0,0.0,0.0,124.57947,68.87329,-162.71301
1765589703068,-0.93896484,0.296875,-0.20654297,-0.12207031,0.48828125,0.0,0.0,0.0,0.0,124.61792,68.8678,-162.68555
1765589703156,-0.9355469,0.29345703,-0.20263672,0.0,-0.12207031,0.0,0.0,0.0,0.0,124.61792,68.8678,-162.68555
1765589703167,-0.9355469,0.29345703,-0.20263672,0.0,-0.12207031,0.0,0.0,0.0,0.0,124.68933,68.845825,-162.58667
1765589703256,-0.93847656,0.29589844,-0.20019531,0.0,0.12207031,0.0,0.0,0.0,0.0,124.68933,68.845825,-162.58667
1765589703267,-0.93847656,0.29589844,-0.20019531,0.0,0.12207031,0.0,0.0,0.0,0.0,124.70581,68.845825,-162.58118
1765589703355,-0.93359375,0.29785156,-0.20410156,0.18310547,0.061035156,0.0,0.0,0.0,0.0,124.70581,68.845825,-162.58118
1765589703367,-0.93359375,0.29785156,-0.20410156,0.18310547,0.061035156,0.0,0.0,0.0,0.0,124.74426,68.84033,-162.5592
1765589703455,-0.94091797,0.29492188,-0.19580078,0.061035156,0.18310547,0.0,0.0,0.0,0.0,124.74426,68.84033,-162.5592
1765589703466,-0.94091797,0.29492188,-0.19580078,0.061035156,0.18310547,0.0,0.0,0.0,0.0,124.82666,68.80737,-162.44385
1765589703555,-0.9370117,0.29736328,-0.20458984,0.0,0.5493164,0.0,0.0,0.0,0.0,124.82666,68.80737,-162.44385
1765589703566,-0.9370117,0.29736328,-0.20458984,0.0,0.5493164,0.0,0.0,0.0,0.0,124.84314,68.81836,-162.45483
1765589703654,-0.93310547,0.29638672,-0.2055664,-0.061035156,0.30517578,0.0,0.0,0.0,0.0,124.84314,68.81836,-162.45483
1765589703666,-0.93310547,0.29638672,-0.2055664,-0.061035156,0.30517578,0.0,0.0,0.0,0.0,124.91455,68.79639,-162.37793
1765589703754,-0.9345703,0.29589844,-0.203125,0.36621094,0.24414062,0.0,0.0,0.0,0.0,124.91455,68.79639,-162.37793
1765589703766,-0.9345703,0.29589844,-0.203125,0.36621094,0.24414062,0.0,0.0,0.0,0.0,124.98047,68.774414,-162.30103
1765589703854,-0.9345703,0.2944336,-0.20605469,-0.18310547,-0.061035156,0.0,0.0,0.0,0.0,124.98047,68.774414,-162.30103
1765589703865,-0.9345703,0.2944336,-0.20605469,-0.18310547,-0.061035156,0.0,0.0,0.0,0.0,125.02991,68.75244,-162.22412
1765589703954,-0.9379883,0.29541016,-0.20458984,-0.4272461,-0.30517578,0.0,0.0,0.0,0.0,125.02991,68.75244,-162.22412
1765589703965,-0.9379883,0.29541016,-0.20458984,-0.4272461,-0.30517578,0.0,0.0,0.0,0.0,124.99695,68.75244,-162.22412
1765589704053,-0.9379883,0.29833984,-0.20214844,-0.4272461,-0.18310547,-0.36621094,0.0,0.0,0.0,124.99695,68.75244,-162.22412
1765589704065,-0.9379883,0.29833984,-0.20214844,-0.4272461,-0.18310547,-0.36621094,0.0,0.0,0.0,124.90906,68.77991,-162.30103
1765589704153,-0.9326172,0.2939453,-0.19726562,-0.18310547,0.061035156,-0.12207031,0.0,0.0,0.0,124.90906,68.77991,-162.30103
1765589704165,-0.9326172,0.2939453,-0.19726562,-0.18310547,0.061035156,-0.12207031,0.0,0.0,0.0,124.82117,68.80737,-162.35046
1765589704253,-0.94433594,0.29296875,-0.20166016,1.6479492,0.61035156,0.36621094,0.0,0.0,0.0,124.82117,68.80737,-162.35046
1765589704264,-0.94433594,0.29296875,-0.20166016,1.6479492,0.61035156,0.36621094,0.0,0.0,0.0,125.079346,68.76343,-162.08679
1765589704353,-0.9316406,0.29296875,-0.20947266,-0.61035156,0.61035156,-0.24414062,0.0,0.0,0.0,125.079346,68.76343,-162.08679
1765589704364,-0.9316406,0.29296875,-0.20947266,-0.61035156,0.61035156,-0.24414062,0.0,0.0,0.0,125.20569,68.71948,-161.98242
1765589704452,-0.9355469,0.29541016,-0.20898438,0.30517578,0.48828125,0.0,0.0,0.0,0.0,125.20569,68.71948,-161.98242
1765589704464,-0.9355469,0.29541016,-0.20898438,0.30517578,0.48828125,0.0,0.0,0.0,0.0,125.233154,68.74695,-161.95496
1765589704552,-0.93359375,0.29589844,-0.20605469,0.30517578,-0.5493164,0.24414062,0.0,0.0,0.0,125.233154,68.74695,-161.95496
1765589704563,-0.93359375,0.29589844,-0.20605469,0.30517578,-0.5493164,0.24414062,0.0,0.0,0.0,125.32654,68.68652,-161.88904
1765589704652,-0.9370117,0.2944336,-0.20117188,0.0,-0.8544922,0.0,0.0,0.0,0.0,125.32654,68.68652,-161.88904
1765589704663,-0.9370117,0.2944336,-0.20117188,0.0,-0.8544922,0.0,0.0,0.0,0.0,125.21118,68.71399,-161.98242
1765589704751,-0.9345703,0.29492188,-0.20800781,0.061035156,-0.61035156,0.061035156,0.0,0.0,0.0,125.21118,68.71399,-161.98242
1765589704763,-0.9345703,0.29492188,-0.20800781,0.061035156,-0.61035156,0.061035156,0.0,0.0,0.0,125.04089,68.75244,-162.16919
1765589704851,-0.9370117,0.29541016,-0.20263672,-0.36621094,-0.18310547,-0.18310547,0.0,0.0,0.0,125.04089,68.75244,-162.16919
1765589704863,-0.9370117,0.29541016,-0.20263672,-0.36621094,-0.18310547,-0.18310547,0.0,0.0,0.0,124.958496,68.774414,-162.25159
1765589704951,-0.9370117,0.29638672,-0.20166016,-0.061035156,-0.4272461,0.12207031,0.0,0.0,0.0,124.958496,68.774414,-162.25159
1765589704962,-0.9370117,0.29638672,-0.20166016,-0.061035156,-0.4272461,0.12207031,0.0,0.0,0.0,124.8761,68.79639,-162.32849
1765589705050,-0.9375,0.29589844,-0.19970703,-0.4272461,0.0,0.0,0.0,0.0,0.0,124.8761,68.79639,-162.32849
1765589705062,-0.9375,0.29589844,-0.19970703,-0.4272461,0.0,0.0,0.0,0.0,0.0,124.82117,68.80737,-162.36694
1765589705150,-0.9355469,0.29882812,-0.19970703,0.24414062,-0.5493164,0.0,0.0,0.0,0.0,124.82117,68.80737,-162.36694
1765589705162,-0.9355469,0.29882812,-0.19970703,0.24414062,-0.5493164,0.0,0.0,0.0,0.0,124.76074,68.829346,-162.44934
1765589705250,-0.93896484,0.29736328,-0.19628906,0.0,0.4272461,0.0,0.0,0.0,0.0,124.76074,68.829346,-162.44934
1765589705261,-0.93896484,0.29736328,-0.19628906,0.0,0.4272461,0.0,0.0,0.0,0.0,124.76074,68.82385,-162.44385
1765589705349,-0.93603516,0.29492188,-0.20458984,0.61035156,-0.48828125,0.0,0.0,0.0,0.0,124.76074,68.82385,-162.44385
1765589705361,-0.93603516,0.29492188,-0.20458984,0.61035156,-0.48828125,0.0,0.0,0.0,0.0,124.73328,68.82385,-162.44385
1765589705449,-0.9379883,0.29638672,-0.20263672,-0.061035156,0.061035156,0.0,0.0,0.0,0.0,124.73328,68.82385,-162.44385
1765589705461,-0.9379883,0.29638672,-0.20263672,-0.061035156,0.061035156,0.0,0.0,0.0,0.0,124.7168,68.829346,-162.46033
1765589705549,-0.9370117,0.29541016,-0.20214844,-0.061035156,0.24414062,0.0,0.0,0.0,0.0,124.7168,68.829346,-162.46033
1765589705560,-0.9370117,0.29541016,-0.20214844,-0.061035156,0.24414062,0.0,0.0,0.0,0.0,124.73877,68.82385,-162.43286
1765589705649,-0.9375,0.29638672,-0.20019531,0.4272461,-0.48828125,0.0,0.0,0.0,0.0,124.73877,68.82385,-162.43286
1765589705660,-0.9375,0.29638672,-0.20019531,0.4272461,-0.48828125,0.0,0.0,0.0,0.0,124.72778,68.82385,-162.43286
1765589705748,-0.9370117,0.29589844,-0.2006836,-0.36621094,0.4272461,0.0,0.0,0.0,0.0,124.72778,68.82385,-162.43286
1765589705760,-0.9370117,0.29589844,-0.2006836,-0.36621094,0.4272461,0.0,0.0,0.0,0.0,124.749756,68.81287,-162.38892
1765589705848,-0.93652344,0.29541016,-0.20214844,0.36621094,0.0,0.0,0.0,0.0,0.0,124.749756,68.81287,-162.38892
1765589705860,-0.93652344,0.29541016,-0.20214844,0.36621094,0.0,0.0,0.0,0.0,0.0,124.782715,68.80737,-162.36145
1765589705948,-0.93652344,0.29736328,-0.20214844,0.0,-0.061035156,0.0,0.0,0.0,0.0,124.782715,68.80737,-162.36145
1765589705959,-0.93652344,0.29736328,-0.20214844,0.0,-0.061035156,0.0,0.0,0.0,0.0,124.77173,68.81287,-162.38892
1765589706047,-0.93603516,0.29541016,-0.20214844,-0.24414062,0.0,0.0,0.0,0.0,0.0,124.77173,68.81287,-162.38892
1765589706059,-0.93603516,0.29541016,-0.20214844,-0.24414062,0.0,0.0,0.0,0.0,0.0,124.74426,68.81287,-162.38892
1765589706147,-0.9370117,0.29541016,-0.19970703,-0.18310547,0.0,0.0,0.0,0.0,0.0,124.74426,68.81287,-162.38892
1765589706159,-0.9370117,0.29541016,-0.19970703,-0.18310547,0.0,0.0,0.0,0.0,0.0,124.72229,68.81287,-162.3999
1765589706247,-0.93603516,0.29541016,-0.1977539,-0.12207031,0.0,0.0,0.0,0.0,0.0,124.72229,68.81287,-162.3999
1765589706259,-0.93603516,0.29541016,-0.1977539,-0.12207031,0.0,0.0,0.0,0.0,0.0,124.694824,68.81836,-162.42188
1765589706347,-0.9379883,0.296875,-0.19384766,0.0,0.6713867,0.0,0.0,0.0,0.0,124.694824,68.81836,-162.42188
1765589706358,-0.9379883,0.296875,-0.19384766,0.0,0.6713867,0.0,0.0,0.0,0.0,124.766235,68.80188,-162.35596
1765589706446,-0.93603516,0.29785156,-0.203125,0.61035156,-0.36621094,0.0,0.0,0.0,0.0,124.766235,68.80188,-162.35596
1765589706458,-0.93603516,0.29785156,-0.203125,0.61035156,-0.36621094,0.0,0.0,0.0,0.0,124.75525,68.81287,-162.37244
1765589706546,-0.9355469,0.29492188,-0.20166016,0.061035156,0.12207031,0.0,0.0,0.0,0.0,124.75525,68.81287,-162.37244
1765589706558,-0.9355469,0.29492188,-0.20166016,0.061035156,0.12207031,0.0,0.0,0.0,0.0,124.77722,68.80188,-162.33948
1765589706646,-0.9394531,0.29785156,-0.1977539,-0.4272461,0.61035156,0.0,0.0,0.0,0.0,124.77722,68.80188,-162.33948
1765589706657,-0.9394531,0.29785156,-0.1977539,-0.4272461,0.61035156,0.0,0.0,0.0,0.0,124.80469,68.79639,-162.30652
1765589706745,-0.9350586,0.29638672,-0.20166016,0.48828125,-0.30517578,0.0,0.0,0.0,0.0,124.80469,68.79639,-162.30652
1765589706757,-0.9350586,0.29638672,-0.20166016,0.48828125,-0.30517578,0.0,0.0,0.0,0.0,124.76074,68.80737,-162.33948
1765589706845,-0.9375,0.29541016,-0.20117188,0.18310547,0.36621094,0.0,0.0,0.0,0.0,124.76074,68.80737,-162.33948
1765589706857,-0.9375,0.29541016,-0.20117188,0.18310547,0.36621094,0.0,0.0,0.0,0.0,124.84314,68.77991,-162.22961
1765589706945,-0.9370117,0.29589844,-0.20117188,0.30517578,0.24414062,0.0,0.0,0.0,0.0,124.84314,68.77991,-162.22961
1765589706956,-0.9370117,0.29589844,-0.20117188,0.30517578,0.24414062,0.0,0.0,0.0,0.0,124.920044,68.76892,-162.1637
1765589707045,-0.93603516,0.29589844,-0.20214844,0.18310547,0.12207031,0.0,0.0,0.0,0.0,124.920044,68.76892,-162.1637
1765589707056,-0.93603516,0.29589844,-0.20214844,0.18310547,0.12207031,0.0,0.0,0.0,0.0,124.953,68.76892,-162.14722
1765589707144,-0.93603516,0.29589844,-0.203125,-0.061035156,-0.061035156,0.0,0.0,0.0,0.0,124.953,68.76892,-162.14722
1765589707156,-0.93603516,0.29589844,-0.203125,-0.061035156,-0.061035156,0.0,0.0,0.0,0.0,124.958496,68.76343,-162.15271
1765589707244,-0.9370117,0.29736328,-0.20263672,0.12207031,-0.12207031,0.0,0.0,0.0,0.0,124.958496,68.76343,-162.15271
1765589707255,-0.9370117,0.29736328,-0.20263672,0.12207031,-0.12207031,0.0,0.0,0.0,0.0,124.92554,68.774414,-162.21863
1765589707344,-0.9350586,0.296875,-0.20214844,0.061035156,0.0,0.0,0.0,0.0,0.0,124.92554,68.774414,-162.21863
1765589707355,-0.9350586,0.296875,-0.20214844,0.061035156,0.0,0.0,0.0,0.0,0.0,124.94751,68.774414,-162.2351
1765589707443,-0.9428711,0.29882812,-0.19677734,0.0,0.8544922,0.0,0.0,0.0,0.0,124.94751,68.774414,-162.2351
1765589707455,-0.9428711,0.29882812,-0.19677734,0.0,0.8544922,0.0,0.0,0.0,0.0,125.04639,68.741455,-162.13623
1765589707543,-0.93310547,0.29492188,-0.20898438,0.0,0.4272461,0.0,0.0,0.0,0.0,125.04639,68.741455,-162.13623
1765589707555,-0.93310547,0.29492188,-0.20898438,0.0,0.4272461,0.0,0.0,0.0,0.0,125.07385,68.73047,-162.11975
1765589707643,-0.93359375,0.2939453,-0.203125,0.6713867,0.36621094,0.0,0.0,0.0,0.0,125.07385,68.73047,-162.11975
1765589707654,-0.93359375,0.2939453,-0.203125,0.6713867,0.36621094,0.0,0.0,0.0,0.0,125.16724,68.708496,-162.05383
1765589707743,-0.9370117,0.296875,-0.20361328,-0.061035156,0.5493164,0.0,0.0,0.0,0.0,125.16724,68.708496,-162.05383
1765589707754,-0.9370117,0.296875,-0.20361328,-0.061035156,0.5493164,0.0,0.0,0.0,0.0,125.2771,68.68652,-161.97693
1765589707842,-0.93359375,0.29296875,-0.20947266,-0.12207031,0.061035156,0.0,0.0,0.0,0.0,125.2771,68.68652,-161.97693
1765589707854,-0.93359375,0.29296875,-0.20947266,-0.12207031,0.061035156,0.0,0.0,0.0,0.0,125.29907,68.670044,-161.93298
1765589707942,-0.9350586,0.29736328,-0.20751953,-0.061035156,0.061035156,0.0,0.0,0.0,0.0,125.29907,68.670044,-161.93298
1765589707954,-0.9350586,0.29736328,-0.20751953,-0.061035156,0.061035156,0.0,0.0,0.0,0.0,125.31555,68.670044,-161.93848
1765589708042,-0.93603516,0.2944336,-0.2084961,-0.30517578,-0.061035156,0.0,0.0,0.0,0.0,125.31555,68.670044,-161.93848
1765589708053,-0.93603516,0.2944336,-0.2084961,-0.30517578,-0.061035156,0.0,0.0,0.0,0.0,125.29907,68.66455,-161.94946
1765589708141,-0.9355469,0.29785156,-0.20507812,-0.12207031,0.24414062,0.0,0.0,0.0,0.0,125.29907,68.66455,-161.94946
1765589708153,-0.9355469,0.29785156,-0.20507812,-0.12207031,0.24414062,0.0,0.0,0.0,0.0,125.31555,68.66455,-161.97693
1765589708241,-0.9370117,0.29638672,-0.20605469,0.61035156,-0.18310547,0.0,0.0,0.0,0.0,125.31555,68.66455,-161.97693
1765589708253,-0.9370117,0.29638672,-0.20605469,0.61035156,-0.18310547,0.0,0.0,0.0,0.0,125.31555,68.65906,-161.96594
1765589708341,-0.93408203,0.29492188,-0.20703125,0.12207031,-0.12207031,0.0,0.0,0.0,0.0,125.31555,68.65906,-161.96594
1765589708352,-0.93408203,0.29492188,-0.20703125,0.12207031,-0.12207031,0.0,0.0,0.0,0.0,125.28259,68.670044,-162.01538
1765589708440,-0.93896484,0.29589844,-0.2109375,-0.30517578,0.24414062,0.0,0.0,0.0,0.0,125.28259,68.670044,-162.01538
1765589708452,-0.93896484,0.29589844,-0.2109375,-0.30517578,0.24414062,0.0,0.0,0.0,0.0,125.304565,68.653564,-161.98242
1765589708540,-0.93408203,0.29296875,-0.21142578,-0.6713867,0.18310547,0.0,0.0,0.0,0.0,125.304565,68.653564,-161.98242
1765589708552,-0.93408203,0.29296875,-0.21142578,-0.6713867,0.18310547,0.0,0.0,0.0,0.0,125.288086,68.64807,-161.97144
1765589708640,-0.93652344,0.29589844,-0.20605469,-0.061035156,0.061035156,0.0,0.0,0.0,0.0,125.288086,68.64807,-161.97144
1765589708652,-0.93652344,0.29589844,-0.20605469,-0.061035156,0.061035156,0.0,0.0,0.0,0.0,125.28259,68.64807,-161.97144
1765589708740,-0.93603516,0.29833984,-0.20800781,0.0,-0.18310547,0.0,0.0,0.0,0.0,125.28259,68.64807,-161.97144
1765589708751,-0.93603516,0.29833984,-0.20800781,0.0,-0.18310547,0.0,0.0,0.0,0.0,125.34302,68.637085,-161.92749
1765589708839,-0.9375,0.29492188,-0.20166016,-0.48828125,-0.7324219,0.0,0.0,0.0,0.0,125.34302,68.637085,-161.92749
1765589708852,-0.9375,0.29492188,-0.20166016,-0.48828125,-0.7324219,0.0,0.0,0.0,0.0,125.2771,68.64258,-161.93848
1765589708939,-0.93603516,0.29882812,-0.2055664,0.18310547,-0.061035156,0.0,0.0,0.0,0.0,125.2771,68.64258,-161.93848
1765589708951,-0.93603516,0.29882812,-0.2055664,0.18310547,-0.061035156,0.0,0.0,0.0,0.0,125.1178,68.68652,-162.11975
1765589709039,-0.9350586,0.29492188,-0.20605469,-0.12207031,-0.18310547,0.0,0.0,0.0,0.0,125.1178,68.68652,-162.11975
1765589709050,-0.9350586,0.29492188,-0.20605469,-0.12207031,-0.18310547,0.0,0.0,0.0,0.0,125.12329,68.68103,-162.09229
1765589709138,-0.93603516,0.2939453,-0.20263672,-0.24414062,-0.30517578,0.0,0.0,0.0,0.0,125.12329,68.68103,-162.09229
1765589709150,-0.93603516,0.2939453,-0.20263672,-0.24414062,-0.30517578,0.0,0.0,0.0,0.0,125.05188,68.69202,-162.14172
1765589709238,-0.9345703,0.29638672,-0.20507812,0.36621094,-1.3427734,0.0,0.0,0.0,0.0,125.05188,68.69202,-162.14172
1765589709250,-0.9345703,0.29638672,-0.20507812,0.36621094,-1.3427734,0.0,0.0,0.0,0.0,124.8761,68.74695,-162.36145
1765589709338,-0.9394531,0.2993164,-0.19921875,-0.8544922,-0.4272461,-0.5493164,0.0,0.0,0.0,124.8761,68.74695,-162.36145
1765589709349,-0.9394531,0.2993164,-0.19921875,-0.8544922,-0.4272461,-0.5493164,0.0,0.0,0.0,124.73877,68.80737,-162.4768
1765589709438,-0.9370117,0.29589844,-0.19970703,-0.18310547,-0.91552734,0.12207031,0.0,0.0,0.0,124.73877,68.80737,-162.4768
1765589709449,-0.9370117,0.29589844,-0.19970703,-0.18310547,-0.91552734,0.12207031,0.0,0.0,0.0,124.552,68.85681,-162.61963
1765589709537,-0.93896484,0.2998047,-0.19384766,0.48828125,0.18310547,0.0,0.0,0.0,0.0,124.552,68.85681,-162.61963
1765589709549,-0.93896484,0.2998047,-0.19384766,0.48828125,0.18310547,0.0,0.0,0.0,0.0,124.49158,68.8678,-162.75146
1765589709637,-0.9375,0.29248047,-0.20263672,0.12207031,-0.36621094,-0.061035156,0.0,0.0,0.0,124.49158,68.8678,-162.75146
1765589709648,-0.9375,0.29248047,-0.20263672,0.12207031,-0.36621094,-0.061035156,0.0,0.0,0.0,124.50256,68.87329,-162.6471
1765589709737,-0.93652344,0.29638672,-0.19921875,0.12207031,-0.30517578,0.24414062,0.0,0.0,0.0,124.50256,68.87329,-162.6471
1765589709748,-0.93652344,0.29638672,-0.19921875,0.12207031,-0.30517578,0.24414062,0.0,0.0,0.0,124.365234,68.90076,-162.82837
1765589709836,-0.9375,0.30029297,-0.19970703,-0.24414062,0.4272461,-0.24414062,0.0,0.0,0.0,124.365234,68.90076,-162.82837
1765589709848,-0.9375,0.30029297,-0.19970703,-0.24414062,0.4272461,-0.24414062,0.0,0.0,0.0,124.365234,68.90625,-162.86133
1765589709936,-0.93847656,0.2915039,-0.19726562,0.48828125,-0.6713867,0.18310547,0.0,0.0,0.0,124.365234,68.90625,-162.86133
1765589709948,-0.93847656,0.2915039,-0.19726562,0.48828125,-0.6713867,0.18310547,0.0,0.0,0.0,124.3927,68.89526,-162.76245
1765589710036,-0.9379883,0.296875,-0.19824219,-0.24414062,0.24414062,-0.061035156,0.0,0.0,0.0,124.3927,68.89526,-162.76245
1765589710047,-0.9379883,0.296875,-0.19824219,-0.24414062,0.24414062,-0.061035156,0.0,0.0,0.0,124.35974,68.90076,-162.85034
1765589710136,-0.9355469,0.29589844,-0.19921875,-0.12207031,0.12207031,-0.061035156,0.0,0.0,0.0,124.35974,68.90076,-162.85034
1765589710147,-0.9355469,0.29589844,-0.19921875,-0.12207031,0.12207031,-0.061035156,0.0,0.0,0.0,124.365234,68.90625,-162.86133
1765589710235,-0.93847656,0.29785156,-0.19580078,0.12207031,-0.061035156,0.0,0.0,0.0,0.0,124.365234,68.90625,-162.86133
1765589710247,-0.93847656,0.29785156,-0.19580078,0.12207031,-0.061035156,0.0,0.0,0.0,0.0,124.37622,68.90625,-162.8833
1765589710335,-0.9370117,0.29492188,-0.2006836,-0.12207031,-0.36621094,-0.061035156,0.0,0.0,0.0,124.37622,68.90625,-162.8833
1765589710347,-0.9370117,0.29492188,-0.2006836,-0.12207031,-0.36621094,-0.061035156,0.0,0.0,0.0,124.332275,68.91174,-162.91077
1765589710435,-0.93847656,0.29541016,-0.19921875,-0.18310547,0.18310547,0.0,0.0,0.0,0.0,124.332275,68.91174,-162.91077
1765589710446,-0.93847656,0.29541016,-0.19921875,-0.18310547,0.18310547,0.0,0.0,0.0,0.0,124.32129,68.91174,-162.93274
1765589710534,-0.93603516,0.296875,-0.1953125,-0.061035156,0.0,0.0,0.0,0.0,0.0,124.32129,68.91174,-162.93274
1765589710546,-0.93603516,0.296875,-0.1953125,-0.061035156,0.0,0.0,0.0,0.0,0.0,124.315796,68.92273,-162.97668
1765589710634,-0.9370117,0.29882812,-0.19091797,0.0,0.36621094,0.0,0.0,0.0,0.0,124.315796,68.92273,-162.97668
1765589710646,-0.9370117,0.29882812,-0.19091797,0.0,0.36621094,0.0,0.0,0.0,0.0,124.348755,68.91724,-162.97119
1765589710734,-0.9375,0.296875,-0.19677734,0.18310547,-0.18310547,0.0,0.0,0.0,0.0,124.348755,68.91724,-162.97119
1765589710745,-0.9375,0.296875,-0.19677734,0.18310547,-0.18310547,0.0,0.0,0.0,0.0,124.32678,68.91724,-162.98767
1765589710834,-0.93652344,0.2944336,-0.19677734,0.30517578,0.0,0.0,0.0,0.0,0.0,124.32678,68.91724,-162.98767
1765589710845,-0.93652344,0.2944336,-0.19677734,0.30517578,0.0,0.0,0.0,0.0,0.0,124.34326,68.91174,-162.95471
1765589710933,-0.9379883,0.29638672,-0.1953125,-0.61035156,0.8544922,0.0,0.0,0.0,0.0,124.34326,68.91174,-162.95471
1765589710945,-0.9379883,0.29638672,-0.1953125,-0.61035156,0.8544922,0.0,0.0,0.0,0.0,124.35974,68.90625,-162.92175
1765589711033,-0.9355469,0.29638672,-0.19921875,0.5493164,-0.48828125,0.0,0.0,0.0,0.0,124.35974,68.90625,-162.92175
1765589711044,-0.9355469,0.29638672,-0.19921875,0.5493164,-0.48828125,0.0,0.0,0.0,0.0,124.315796,68.91724,-162.9602
1765589711133,-0.9379883,0.2944336,-0.19677734,-0.061035156,0.061035156,0.0,0.0,0.0,0.0,124.315796,68.91724,-162.9602
1765589711144,-0.9379883,0.2944336,-0.19677734,-0.061035156,0.061035156,0.0,0.0,0.0,0.0,124.34326,68.91174,-162.92175
1765589711232,-0.9370117,0.29736328,-0.19677734,0.0,0.12207031,0.0,0.0,0.0,0.0,124.34326,68.91174,-162.92175
1765589711244,-0.9370117,0.29736328,-0.19677734,0.0,0.12207031,0.0,0.0,0.0,0.0,124.33777,68.91174,-162.93274
1765589711332,-0.9355469,0.29785156,-0.19824219,0.0,-0.12207031,0.0,0.0,0.0,0.0,124.33777,68.91174,-162.93274
1765589711344,-0.9355469,0.29785156,-0.19824219,0.0,-0.12207031,0.0,0.0,0.0,0.0,124.30481,68.92273,-162.9602
1765589711432,-0.93896484,0.29492188,-0.19921875,-0.12207031,0.0,0.0,0.0,0.0,0.0,124.30481,68.92273,-162.9602
1765589711444,-0.93896484,0.29492188,-0.19921875,-0.12207031,0.0,0.0,0.0,0.0,0.0,124.29382,68.91724,-162.94373
1765589711532,-0.9375,0.29589844,-0.19873047,-0.36621094,0.12207031,0.0,0.0,0.0,0.0,124.29382,68.91724,-162.94373
1765589711543,-0.9375,0.29589844,-0.19873047,-0.36621094,0.12207031,0.0,0.0,0.0,0.0,124.28833,68.91724,-162.94922
1765589711631,-0.9355469,0.29638672,-0.19726562,0.0,-0.12207031,0.0,0.0,0.0,0.0,124.28833,68.91724,-162.94922
1765589711643,-0.9355469,0.29638672,-0.19726562,0.0,-0.12207031,0.0,0.0,0.0,0.0,124.24988,68.92822,-163.00964
1765589711731,-0.93652344,0.296875,-0.19042969,-0.30517578,0.36621094,0.0,0.0,0.0,0.0,124.24988,68.92822,-163.00964
1765589711742,-0.93652344,0.296875,-0.19042969,-0.30517578,0.36621094,0.0,0.0,0.0,0.0,124.28833,68.91724,-162.97668
1765589711831,-0.93847656,0.29638672,-0.1953125,0.12207031,-0.061035156,0.0,0.0,0.0,0.0,124.28833,68.91724,-162.97668
1765589711842,-0.93847656,0.29638672,-0.1953125,0.12207031,-0.061035156,0.0,0.0,0.0,0.0,124.260864,68.92273,-162.98767
1765589711930,-0.93603516,0.2944336,-0.19677734,0.24414062,0.0,0.0,0.0,0.0,0.0,124.260864,68.92273,-162.98767
1765589711942,-0.93603516,0.2944336,-0.19677734,0.24414062,0.0,0.0,0.0,0.0,0.0,124.260864,68.92822,-162.99866
1765589712030,-0.9404297,0.29638672,-0.19140625,-0.5493164,0.9765625,0.0,0.0,0.0,0.0,124.260864,68.92822,-162.99866
1765589712042,-0.9404297,0.29638672,-0.19140625,-0.5493164,0.9765625,0.0,0.0,0.0,0.0,124.30481,68.91174,-162.94373
1765589712130,-0.9370117,0.29833984,-0.19824219,0.48828125,0.0,0.30517578,0.0,0.0,0.0,124.30481,68.91174,-162.94373
1765589712142,-0.9370117,0.29833984,-0.19824219,0.48828125,0.0,0.30517578,0.0,0.0,0.0,124.3103,68.91724,-162.95471
1765589712230,-0.9370117,0.29638672,-0.19921875,0.18310547,0.30517578,0.061035156,0.0,0.0,0.0,124.3103,68.91724,-162.95471
1765589712242,-0.9370117,0.29638672,-0.19921875,0.18310547,0.30517578,0.061035156,0.0,0.0,0.0,124.35974,68.89526,-162.92725
1765589712329,-0.9379883,0.29541016,-0.19921875,0.12207031,0.30517578,0.0,0.0,0.0,0.0,124.35974,68.89526,-162.92725
1765589712341,-0.9379883,0.29541016,-0.19921875,0.12207031,0.30517578,0.0,0.0,0.0,0.0,124.40369,68.88428,-162.89429
1765589712429,-0.9375,0.29785156,-0.19824219,0.12207031,0.0,0.0,0.0,0.0,0.0,124.40369,68.88428,-162.89429
1765589712441,-0.9375,0.29785156,-0.19824219,0.12207031,0.0,0.0,0.0,0.0,0.0,124.453125,68.87329,-162.87231
1765589712529,-0.9370117,0.29589844,-0.19970703,-0.24414062,0.0,-0.061035156,0.0,0.0,0.0,124.453125,68.87329,-162.87231
1765589712540,-0.9370117,0.29589844,-0.19970703,-0.24414062,0.0,-0.061035156,0.0,0.0,0.0,124.44763,68.87329,-162.86133
1765589712628,-0.9370117,0.29589844,-0.19921875,0.12207031,-0.30517578,0.061035156,0.0,0.0,0.0,124.44763,68.87329,-162.86133
1765589712640,-0.9370117,0.29589844,-0.19921875,0.12207031,-0.30517578,0.061035156,0.0,0.0,0.0,124.38721,68.89526,-162.93823
1765589712728,-0.9350586,0.29638672,-0.19873047,0.24414062,-0.24414062,0.0,0.0,0.0,0.0,124.38721,68.89526,-162.93823
1765589712740,-0.9350586,0.29638672,-0.19873047,0.24414062,-0.24414062,0.0,0.0,0.0,0.0,124.35974,68.90625,-163.00964
1765589712828,-0.93652344,0.29736328,-0.1899414,0.18310547,0.79345703,0.0,0.0,0.0,0.0,124.35974,68.90625,-163.00964
1765589712839,-0.93652344,0.29736328,-0.1899414,0.18310547,0.79345703,0.0,0.0,0.0,0.0,124.44763,68.88428,-162.93823
1765589712928,-0.93652344,0.29785156,-0.2006836,-0.24414062,0.6713867,0.0,0.0,0.0,0.0,124.44763,68.88428,-162.93823
1765589712939,-0.93652344,0.29785156,-0.2006836,-0.24414062,0.6713867,0.0,0.0,0.0,0.0,124.50256,68.87329,-162.89429
1765589713027,-0.9326172,0.29589844,-0.19970703,0.18310547,0.4272461,0.0,0.0,0.0,0.0,124.50256,68.87329,-162.89429
1765589713039,-0.9326172,0.29589844,-0.19970703,0.18310547,0.4272461,0.0,0.0,0.0,0.0,124.56848,68.85132,-162.82837
1765589713127,-0.9375,0.29541016,-0.19970703,-0.12207031,0.36621094,0.0,0.0,0.0,0.0,124.56848,68.85132,-162.82837
1765589713139,-0.9375,0.29541016,-0.19970703,-0.12207031,0.36621094,0.0,0.0,0.0,0.0,124.645386,68.829346,-162.74048
1765589713227,-0.9345703,0.296875,-0.20263672,0.0,-0.18310547,0.0,0.0,0.0,0.0,124.645386,68.829346,-162.74048
1765589713238,-0.9345703,0.296875,-0.20263672,0.0,-0.18310547,0.0,0.0,0.0,0.0,124.66736,68.81836,-162.724
1765589713327,-0.93652344,0.29589844,-0.20117188,-0.061035156,0.24414062,0.0,0.0,0.0,0.0,124.66736,68.81836,-162.724
1765589713338,-0.93652344,0.29589844,-0.20117188,-0.061035156,0.24414062,0.0,0.0,0.0,0.0,124.70581,68.80737,-162.66357
1765589713426,-0.9375,0.296875,-0.20117188,-0.061035156,0.0,0.0,0.0,0.0,0.0,124.70581,68.80737,-162.66357
1765589713438,-0.9375,0.296875,-0.20117188,-0.061035156,0.0,0.0,0.0,0.0,0.0,124.68933,68.80737,-162.68005
1765589713526,-0.9375,0.29541016,-0.19970703,-0.061035156,-0.12207031,0.0,0.0,0.0,0.0,124.68933,68.80737,-162.68005
1765589713539,-0.9375,0.29541016,-0.19970703,-0.061035156,-0.12207031,0.0,0.0,0.0,0.0,124.68384,68.80737,-162.65259
1765589713626,-0.9375,0.29492188,-0.2006836,-0.061035156,0.061035156,0.0,0.0,0.0,0.0,124.68384,68.80737,-162.65259
1765589713637,-0.9375,0.29492188,-0.2006836,-0.061035156,0.061035156,0.0,0.0,0.0,0.0,124.66736,68.80737,-162.6416
1765589713725,-0.9370117,0.2939453,-0.20361328,-0.061035156,-0.12207031,0.0,0.0,0.0,0.0,124.66736,68.80737,-162.6416
1765589713737,-0.9370117,0.2939453,-0.20361328,-0.061035156,-0.12207031,0.0,0.0,0.0,0.0,124.66736,68.80737,-162.63611
1765589713825,-0.93847656,0.29589844,-0.20605469,-0.18310547,0.4272461,0.0,0.0,0.0,0.0,124.66736,68.80737,-162.63611
1765589713836,-0.93847656,0.29589844,-0.20605469,-0.18310547,0.4272461,0.0,0.0,0.0,0.0,124.7113,68.79639,-162.59216
1765589713925,-0.93310547,0.29492188,-0.2006836,-0.30517578,0.18310547,0.0,0.0,0.0,0.0,124.7113,68.79639,-162.59216
1765589713936,-0.93310547,0.29492188,-0.2006836,-0.30517578,0.18310547,0.0,0.0,0.0,0.0,124.766235,68.77991,-162.52075
1765589714024,-0.93847656,0.29589844,-0.20019531,-0.4272461,0.061035156,0.0,0.0,0.0,0.0,124.766235,68.77991,-162.52075
1765589714036,-0.93847656,0.29589844,-0.20019531,-0.4272461,0.061035156,0.0,0.0,0.0,0.0,124.766235,68.77991,-162.52625
1765589714124,-0.9379883,0.29833984,-0.20166016,0.0,-0.061035156,0.0,0.0,0.0,0.0,124.766235,68.77991,-162.52625
1765589714136,-0.9379883,0.29833984,-0.20166016,0.0,-0.061035156,0.0,0.0,0.0,0.0,124.7937,68.774414,-162.50427
1765589714224,-0.93896484,0.296875,-0.19677734,-0.5493164,0.18310547,0.0,0.0,0.0,0.0,124.7937,68.774414,-162.50427
1765589714235,-0.93896484,0.296875,-0.19677734,-0.5493164,0.18310547,0.0,0.0,0.0,0.0,124.78821,68.774414,-162.4878
1765589714324,-0.9355469,0.296875,-0.20263672,-0.24414062,0.36621094,0.0,0.0,0.0,0.0,124.78821,68.774414,-162.4878
1765589714335,-0.9355469,0.296875,-0.20263672,-0.24414062,0.36621094,0.0,0.0,0.0,0.0,124.74426,68.79089,-162.54272
1765589714423,-0.9350586,0.29589844,-0.20263672,0.0,-0.061035156,0.0,0.0,0.0,0.0,124.74426,68.79089,-162.54272
1765589714435,-0.9350586,0.29589844,-0.20263672,0.0,-0.061035156,0.0,0.0,0.0,0.0,124.766235,68.77991,-162.51526
1765589714523,-0.9370117,0.296875,-0.20117188,-0.30517578,0.061035156,0.0,0.0,0.0,0.0,124.766235,68.77991,-162.51526
1765589714534,-0.9370117,0.296875,-0.20117188,-0.30517578,0.061035156,0.0,0.0,0.0,0.0,124.766235,68.77991,-162.50977
1765589714623,-0.93603516,0.296875,-0.20263672,0.0,0.12207031,0.0,0.0,0.0,0.0,124.766235,68.77991,-162.50977
1765589714634,-0.93603516,0.296875,-0.20263672,0.0,0.12207031,0.0,0.0,0.0,0.0,124.75525,68.77991,-162.52075
1765589714722,-0.9370117,0.29589844,-0.20117188,0.36621094,-0.12207031,0.0,0.0,0.0,0.0,124.75525,68.77991,-162.52075
1765589714734,-0.9370117,0.29589844,-0.20117188,0.36621094,-0.12207031,0.0,0.0,0.0,0.0,124.7937,68.774414,-162.49329
1765589714822,-0.9370117,0.30078125,-0.20117188,0.12207031,-0.91552734,0.0,0.0,0.0,0.0,124.7937,68.774414,-162.49329
1765589714834,-0.9370117,0.30078125,-0.20117188,0.12207031,-0.91552734,0.0,0.0,0.0,0.0,124.70032,68.80737,-162.61414
1765589714922,-0.93847656,0.29736328,-0.20019531,-0.18310547,-0.061035156,-0.061035156,0.0,0.0,0.0,124.70032,68.80737,-162.61414
1765589714933,-0.93847656,0.29736328,-0.20019531,-0.18310547,-0.061035156,-0.061035156,0.0,0.0,0.0,124.590454,68.83484,-162.69104
1765589715022,-0.9345703,0.2919922,-0.2055664,0.36621094,-0.9765625,0.061035156,0.0,0.0,0.0,124.590454,68.83484,-162.69104
1765589715033,-0.9345703,0.2919922,-0.2055664,0.36621094,-0.9765625,0.061035156,0.0,0.0,0.0,124.51904,68.85132,-162.72949
1765589715121,-0.93847656,0.296875,-0.19628906,-0.7324219,0.5493164,-0.30517578,0.0,0.0,0.0,124.51904,68.85132,-162.72949
1765589715133,-0.93847656,0.296875,-0.19628906,-0.7324219,0.5493164,-0.30517578,0.0,0.0,0.0,124.44214,68.88428,-162.83936
1765589715221,-0.93652344,0.296875,-0.20166016,0.5493164,-0.48828125,0.061035156,0.0,0.0,0.0,124.44214,68.88428,-162.83936
1765589715233,-0.93652344,0.296875,-0.20166016,0.5493164,-0.48828125,0.061035156,0.0,0.0,0.0,124.49158,68.88428,-162.75696
1765589715321,-0.93896484,0.2944336,-0.1953125,0.061035156,-0.36621094,0.0,0.0,0.0,0.0,124.49158,68.88428,-162.75696
1765589715332,-0.93896484,0.2944336,-0.1953125,0.061035156,-0.36621094,0.0,0.0,0.0,0.0,124.453125,68.89526,-162.78442
1765589715420,-0.9375,0.29638672,-0.19970703,-0.12207031,0.36621094,0.0,0.0,0.0,0.0,124.453125,68.89526,-162.78442
1765589715432,-0.9375,0.29638672,-0.19970703,-0.12207031,0.36621094,0.0,0.0,0.0,0.0,124.40918,68.90076,-162.83936
1765589715520,-0.9375,0.296875,-0.20019531,-0.061035156,-0.061035156,0.0,0.0,0.0,0.0,124.40918,68.90076,-162.83936
1765589715532,-0.9375,0.296875,-0.20019531,-0.061035156,-0.061035156,0.0,0.0,0.0,0.0,124.40918,68.90076,-162.85034
1765589715620,-0.9379883,0.29589844,-0.1977539,-0.061035156,-0.12207031,0.0,0.0,0.0,0.0,124.40918,68.90076,-162.85034
1765589715632,-0.9379883,0.29589844,-0.1977539,-0.061035156,-0.12207031,0.0,0.0,0.0,0.0,124.37622,68.91174,-162.8833
1765589715719,-0.9379883,0.296875,-0.19824219,-0.48828125,0.18310547,0.0,0.0,0.0,0.0,124.37622,68.91174,-162.8833
1765589715731,-0.9379883,0.296875,-0.19824219,-0.48828125,0.18310547,0.0,0.0,0.0,0.0,124.34326,68.91724,-162.90527
1765589715819,-0.9370117,0.29638672,-0.19628906,0.0,0.061035156,0.0,0.0,0.0,0.0,124.34326,68.91724,-162.90527
1765589715831,-0.9370117,0.29638672,-0.19628906,0.0,0.061035156,0.0,0.0,0.0,0.0,124.348755,68.91724,-162.89429
1765589715919,-0.9370117,0.29785156,-0.19482422,0.12207031,-0.24414062,0.0,0.0,0.0,0.0,124.348755,68.91724,-162.89429
1765589715931,-0.9370117,0.29785156,-0.19482422,0.12207031,-0.24414062,0.0,0.0,0.0,0.0,124.35425,68.92273,-162.90527
1765589716019,-0.9394531,0.29736328,-0.19628906,0.18310547,0.61035156,0.0,0.0,0.0,0.0,124.35425,68.92273,-162.90527
1765589716030,-0.9394531,0.29736328,-0.19628906,0.18310547,0.61035156,0.0,0.0,0.0,0.0,124.365234,68.92273,-162.89978
1765589716118,-0.9355469,0.29492188,-0.203125,0.79345703,-0.7324219,0.0,0.0,0.0,0.0,124.365234,68.92273,-162.89978
