timestamp,accX,accY,accZ,gyroX,gyroY,gyroZ,magX,magY,magZ,roll,pitch,yaw
1766812999596,-0.9482422,0.18701172,-0.27294922,0.061035156,0.0,-0.18310547,0.0,0.0,0.0,145.86548,70.6366,-112.70874
1766812999607,-0.9482422,0.18701172,-0.27294922,0.061035156,0.0,-0.18310547,0.0,0.0,0.0,145.849,70.64209,-112.70874
1766812999695,-0.94628906,0.18945312,-0.2705078,-0.18310547,0.0,-0.18310547,0.0,0.0,0.0,145.849,70.64209,-112.70874
1766812999706,-0.94628906,0.18945312,-0.2705078,-0.18310547,0.0,-0.18310547,0.0,0.0,0.0,145.89294,70.64209,-112.65381
1766812999794,-0.9482422,0.18896484,-0.2705078,0.0,-0.061035156,0.0,0.0,0.0,0.0,145.89294,70.64209,-112.65381
1766812999806,-0.9482422,0.18896484,-0.2705078,0.0,-0.061035156,0.0,0.0,0.0,0.0,145.88196,70.64209,-112.63733
1766812999895,-0.9477539,0.18554688,-0.2758789,0.30517578,0.36621094,-0.061035156,0.0,0.0,0.0,145.88196,70.64209,-112.63733
1766812999906,-0.9477539,0.18554688,-0.2758789,0.30517578,0.36621094,-0.061035156,0.0,0.0,0.0,145.93689,70.6311,-112.58789
1766812999994,-0.94921875,0.18701172,-0.2709961,0.0,0.24414062,0.0,0.0,0.0,0.0,145.93689,70.6311,-112.58789
1766813000005,-0.94921875,0.18701172,-0.2709961,0.0,0.24414062,0.0,0.0,0.0,0.0,145.9259,70.62561,-112.59888
1766813000094,-0.9472656,0.19189453,-0.2734375,0.12207031,0.061035156,-0.24414062,0.0,0.0,0.0,145.9259,70.62561,-112.59888
1766813000105,-0.9472656,0.19189453,-0.2734375,0.12207031,0.061035156,-0.24414062,0.0,0.0,0.0,146.0138,70.6311,-112.50549
1766813000193,-0.94628906,0.18554688,-0.27392578,0.061035156,-0.061035156,-0.061035156,0.0,0.0,0.0,146.0138,70.6311,-112.50549
1766813000205,-0.94628906,0.18554688,-0.27392578,0.061035156,-0.061035156,-0.061035156,0.0,0.0,0.0,146.01929,70.62561,-112.48901
1766813000293,-0.9482422,0.18701172,-0.27294922,-0.30517578,-0.24414062,-0.12207031,0.0,0.0,0.0,146.01929,70.62561,-112.48901
1766813000304,-0.9482422,0.18701172,-0.27294922,-0.30517578,-0.24414062,-0.12207031,0.0,0.0,0.0,145.98633,70.653076,-112.51099
1766813000393,-0.9482422,0.19091797,-0.27001953,0.18310547,0.18310547,-0.18310547,0.0,0.0,0.0,145.98633,70.653076,-112.51099
1766813000404,-0.9482422,0.19091797,-0.27001953,0.18310547,0.18310547,-0.18310547,0.0,0.0,0.0,146.04126,70.64209,-112.439575
1766813000492,-0.9482422,0.18798828,-0.27441406,-0.4272461,0.0,0.6713867,0.0,0.0,0.0,146.04126,70.64209,-112.439575
1766813000504,-0.9482422,0.18798828,-0.27441406,-0.4272461,0.0,0.6713867,0.0,0.0,0.0,145.88745,70.614624,-112.55493
1766813000592,-0.94628906,0.18945312,-0.27246094,-0.6713867,0.0,0.30517578,0.0,0.0,0.0,145.88745,70.614624,-112.55493
1766813000604,-0.94628906,0.18945312,-0.27246094,-0.6713867,0.0,0.30517578,0.0,0.0,0.0,145.76111,70.57617,-112.64282
1766813000692,-0.9453125,0.1928711,-0.27148438,-0.7324219,0.18310547,0.5493164,0.0,0.0,0.0,145.76111,70.57617,-112.64282
1766813000703,-0.9453125,0.1928711,-0.27148438,-0.7324219,0.18310547,0.5493164,0.0,0.0,0.0,145.62378,70.53223,-112.71973
1766813000792,-0.94628906,0.18798828,-0.2758789,-0.12207031,0.4272461,0.48828125,0.0,0.0,0.0,145.62378,70.53223,-112.71973
1766813000803,-0.94628906,0.18798828,-0.2758789,-0.12207031,0.4272461,0.48828125,0.0,0.0,0.0,145.48645,70.48279,-112.802124
1766813000891,-0.9506836,0.19384766,-0.27246094,-0.4272461,0.79345703,0.24414062,0.0,0.0,0.0,145.48645,70.48279,-112.802124
1766813000903,-0.9506836,0.19384766,-0.27246094,-0.4272461,0.79345703,0.24414062,0.0,0.0,0.0,145.31616,70.444336,-112.93396
1766813000991,-0.9458008,0.19580078,-0.2734375,-0.24414062,0.0,0.5493164,0.0,0.0,0.0,145.31616,70.444336,-112.93396
1766813001003,-0.9458008,0.19580078,-0.2734375,-0.24414062,0.0,0.5493164,0.0,0.0,0.0,145.21179,70.389404,-112.9834
1766813001091,-0.94677734,0.19433594,-0.27441406,-0.4272461,0.0,0.30517578,0.0,0.0,0.0,145.21179,70.389404,-112.9834
1766813001103,-0.94677734,0.19433594,-0.27441406,-0.4272461,0.0,0.30517578,0.0,0.0,0.0,145.05798,70.35095,-113.09326
1766813001190,-0.9433594,0.19628906,-0.27294922,-0.91552734,0.0,0.36621094,0.0,0.0,0.0,145.05798,70.35095,-113.09326
1766813001202,-0.9433594,0.19628906,-0.27294922,-0.91552734,0.0,0.36621094,0.0,0.0,0.0,144.92065,70.32349,-113.170166
1766813001290,-0.9448242,0.19921875,-0.27246094,-0.7324219,0.4272461,0.4272461,0.0,0.0,0.0,144.92065,70.32349,-113.170166
1766813001302,-0.9448242,0.19921875,-0.27246094,-0.7324219,0.4272461,0.4272461,0.0,0.0,0.0,144.78882,70.29053,-113.236084
1766813001390,-0.94189453,0.20117188,-0.2685547,0.18310547,0.24414062,0.36621094,0.0,0.0,0.0,144.78882,70.29053,-113.236084
1766813001402,-0.94189453,0.20117188,-0.2685547,0.18310547,0.24414062,0.36621094,0.0,0.0,0.0,144.66797,70.2301,-113.29651
1766813001489,-0.94384766,0.19189453,-0.2763672,-0.24414062,0.12207031,-0.24414062,0.0,0.0,0.0,144.66797,70.2301,-113.29651
1766813001502,-0.94384766,0.19189453,-0.2763672,-0.24414062,0.12207031,-0.24414062,0.0,0.0,0.0,144.62952,70.21912,-113.307495
1766813001589,-0.94433594,0.20019531,-0.27246094,0.12207031,-0.12207031,-0.79345703,0.0,0.0,0.0,144.62952,70.21912,-113.307495
1766813001601,-0.94433594,0.20019531,-0.27246094,0.12207031,-0.12207031,-0.79345703,0.0,0.0,0.0,144.7284,70.235596,-113.19214
1766813001689,-0.9428711,0.20019531,-0.2680664,0.0,-0.91552734,-0.30517578,0.0,0.0,0.0,144.7284,70.235596,-113.19214
1766813001700,-0.9428711,0.20019531,-0.2680664,0.0,-0.91552734,-0.30517578,0.0,0.0,0.0,144.8053,70.26306,-113.07678
1766813001789,-0.9433594,0.1928711,-0.27734375,-0.18310547,0.24414062,-0.5493164,0.0,0.0,0.0,144.8053,70.26306,-113.07678
1766813001800,-0.9433594,0.1928711,-0.27734375,-0.18310547,0.24414062,-0.5493164,0.0,0.0,0.0,144.86572,70.30151,-112.99988
1766813001888,-0.9482422,0.19238281,-0.27490234,-1.4648438,-0.18310547,-0.61035156,0.0,0.0,0.0,144.86572,70.30151,-112.99988
1766813001900,-0.9482422,0.19238281,-0.27490234,-1.4648438,-0.18310547,-0.61035156,0.0,0.0,0.0,144.91516,70.339966,-112.86804
1766813001988,-0.9433594,0.20507812,-0.27246094,-1.8310547,0.0,-0.12207031,0.0,0.0,0.0,144.91516,70.339966,-112.86804
1766813001999,-0.9433594,0.20507812,-0.27246094,-1.8310547,0.0,-0.12207031,0.0,0.0,0.0,144.8053,70.34546,-112.79663
1766813002088,-0.9448242,0.20703125,-0.2705078,0.0,-0.061035156,-0.5493164,0.0,0.0,0.0,144.8053,70.34546,-112.79663
1766813002099,-0.9448242,0.20703125,-0.2705078,0.0,-0.061035156,-0.5493164,0.0,0.0,0.0,144.76685,70.356445,-112.71423
1766813002187,-0.94433594,0.1977539,-0.26757812,1.3427734,-0.7324219,-0.7324219,0.0,0.0,0.0,144.76685,70.356445,-112.71423
1766813002199,-0.94433594,0.1977539,-0.26757812,1.3427734,-0.7324219,-0.7324219,0.0,0.0,0.0,144.9591,70.38391,-112.51648
1766813002287,-0.9501953,0.18701172,-0.27490234,1.2817383,-0.24414062,-0.61035156,0.0,0.0,0.0,144.9591,70.38391,-112.51648
1766813002299,-0.9501953,0.18701172,-0.27490234,1.2817383,-0.24414062,-0.61035156,0.0,0.0,0.0,145.14587,70.45532,-112.423096
1766813002387,-0.94433594,0.19140625,-0.27392578,0.79345703,0.0,-0.6713867,0.0,0.0,0.0,145.14587,70.45532,-112.423096
1766813002398,-0.94433594,0.19140625,-0.27392578,0.79345703,0.0,-0.6713867,0.0,0.0,0.0,145.39856,70.477295,-112.263794
1766813002486,-0.9472656,0.19433594,-0.26660156,0.30517578,0.18310547,-0.24414062,0.0,0.0,0.0,145.39856,70.477295,-112.263794
1766813002498,-0.9472656,0.19433594,-0.26660156,0.30517578,0.18310547,-0.24414062,0.0,0.0,0.0,145.6018,70.49927,-112.109985
1766813002586,-0.94433594,0.18798828,-0.27197266,0.6713867,-0.91552734,0.4272461,0.0,0.0,0.0,145.6018,70.49927,-112.109985
1766813002598,-0.94433594,0.18798828,-0.27197266,0.6713867,-0.91552734,0.4272461,0.0,0.0,0.0,145.51941,70.50476,-112.23633
1766813002686,-0.9448242,0.18457031,-0.2758789,-0.91552734,-0.061035156,-0.48828125,0.0,0.0,0.0,145.51941,70.50476,-112.23633
1766813002697,-0.9448242,0.18457031,-0.2758789,-0.91552734,-0.061035156,-0.48828125,0.0,0.0,0.0,145.54138,70.48828,-112.214355
1766813002786,-0.94628906,0.2084961,-0.2626953,0.18310547,-0.30517578,-0.24414062,0.0,0.0,0.0,145.54138,70.48828,-112.214355
1766813002797,-0.94628906,0.2084961,-0.2626953,0.18310547,-0.30517578,-0.24414062,0.0,0.0,0.0,145.6128,70.50476,-112.11548
1766813002885,-0.94873047,0.1821289,-0.28076172,0.24414062,-0.61035156,0.5493164,0.0,0.0,0.0,145.6128,70.50476,-112.11548
1766813002897,-0.94873047,0.1821289,-0.28076172,0.24414062,-0.61035156,0.5493164,0.0,0.0,0.0,145.46997,70.51575,-112.214355
1766813002985,-0.94384766,0.19042969,-0.27685547,-0.5493164,0.36621094,-0.5493164,0.0,0.0,0.0,145.46997,70.51575,-112.214355
1766813002997,-0.94384766,0.19042969,-0.27685547,-0.5493164,0.36621094,-0.5493164,0.0,0.0,0.0,145.40405,70.50476,-112.302246
1766813003085,-0.94433594,0.20410156,-0.25927734,0.4272461,-0.30517578,-0.30517578,0.0,0.0,0.0,145.40405,70.50476,-112.302246
1766813003097,-0.94433594,0.20410156,-0.25927734,0.4272461,-0.30517578,-0.30517578,0.0,0.0,0.0,145.6018,70.52124,-112.08252
1766813003184,-0.94433594,0.18115234,-0.27783203,0.18310547,-0.36621094,0.4272461,0.0,0.0,0.0,145.6018,70.52124,-112.08252
1766813003196,-0.94433594,0.18115234,-0.27783203,0.18310547,-0.36621094,0.4272461,0.0,0.0,0.0,145.45349,70.53223,-112.214355
1766813003284,-0.94873047,0.19140625,-0.27197266,-0.48828125,0.24414062,-0.61035156,0.0,0.0,0.0,145.45349,70.53223,-112.214355
1766813003296,-0.94873047,0.19140625,-0.27197266,-0.48828125,0.24414062,-0.61035156,0.0,0.0,0.0,145.49194,70.53772,-112.1814
1766813003384,-0.9433594,0.1953125,-0.2734375,0.18310547,-0.18310547,0.12207031,0.0,0.0,0.0,145.49194,70.53772,-112.1814
1766813003396,-0.9433594,0.1953125,-0.2734375,0.18310547,-0.18310547,0.12207031,0.0,0.0,0.0,145.6073,70.53223,-112.04956
1766813003483,-0.9482422,0.18945312,-0.27294922,0.48828125,0.24414062,0.0,0.0,0.0,0.0,145.6073,70.53223,-112.04956
1766813003495,-0.9482422,0.18945312,-0.27294922,0.48828125,0.24414062,0.0,0.0,0.0,0.0,145.48096,70.54321,-112.15393
1766813003584,-0.9477539,0.19091797,-0.27392578,0.24414062,0.18310547,-0.18310547,0.0,0.0,0.0,145.48096,70.54321,-112.15393
1766813003595,-0.9477539,0.19091797,-0.27392578,0.24414062,0.18310547,-0.18310547,0.0,0.0,0.0,145.57983,70.53772,-112.07703
1766813003683,-0.9453125,0.19042969,-0.27294922,-0.061035156,-0.36621094,-0.12207031,0.0,0.0,0.0,145.57983,70.53772,-112.07703
1766813003694,-0.9453125,0.19042969,-0.27294922,-0.061035156,-0.36621094,-0.12207031,0.0,0.0,0.0,145.62378,70.548706,-112.022095
1766813003785,-0.9482422,0.19238281,-0.27392578,-0.61035156,0.0,0.8544922,0.0,0.0,0.0,145.62378,70.548706,-112.022095
1766813003794,-0.9482422,0.19238281,-0.27392578,-0.61035156,0.0,0.8544922,0.0,0.0,0.0,145.51941,70.53772,-112.109985
1766813003883,-0.94091797,0.19726562,-0.2709961,-0.24414062,0.061035156,0.30517578,0.0,0.0,0.0,145.51941,70.53772,-112.109985
1766813003894,-0.94091797,0.19726562,-0.2709961,-0.24414062,0.061035156,0.30517578,0.0,0.0,0.0,145.3656,70.477295,-112.23633
1766813003982,-0.95166016,0.19140625,-0.27392578,-0.12207031,0.0,0.48828125,0.0,0.0,0.0,145.3656,70.477295,-112.23633
1766813003993,-0.95166016,0.19140625,-0.27392578,-0.12207031,0.0,0.48828125,0.0,0.0,0.0,145.18433,70.460815,-112.36267
1766813004082,-0.94091797,0.19677734,-0.27246094,-0.79345703,-0.24414062,0.7324219,0.0,0.0,0.0,145.18433,70.460815,-112.36267
1766813004093,-0.94091797,0.19677734,-0.27246094,-0.79345703,-0.24414062,0.7324219,0.0,0.0,0.0,144.97559,70.41687,-112.53296
1766813004181,-0.9501953,0.19726562,-0.27392578,-0.48828125,0.24414062,0.30517578,0.0,0.0,0.0,144.97559,70.41687,-112.53296
1766813004193,-0.9501953,0.19726562,-0.27392578,-0.48828125,0.24414062,0.30517578,0.0,0.0,0.0,144.78882,70.38391,-112.65381
1766813004281,-0.94091797,0.19970703,-0.27001953,-0.36621094,-0.7324219,1.0375977,0.0,0.0,0.0,144.78882,70.38391,-112.65381
1766813004293,-0.94091797,0.19970703,-0.27001953,-0.36621094,-0.7324219,1.0375977,0.0,0.0,0.0,144.60754,70.339966,-112.79663
1766813004381,-0.9453125,0.19482422,-0.27294922,-0.18310547,0.6713867,0.36621094,0.0,0.0,0.0,144.60754,70.339966,-112.79663
1766813004392,-0.9453125,0.19482422,-0.27294922,-0.18310547,0.6713867,0.36621094,0.0,0.0,0.0,144.43176,70.3125,-112.95593
1766813004480,-0.9448242,0.203125,-0.27001953,-0.5493164,0.0,0.48828125,0.0,0.0,0.0,144.43176,70.3125,-112.95593
1766813004492,-0.9448242,0.203125,-0.27001953,-0.5493164,0.0,0.48828125,0.0,0.0,0.0,144.26697,70.268555,-113.07678
1766813004580,-0.94677734,0.20214844,-0.2705078,-0.7324219,0.12207031,0.48828125,0.0,0.0,0.0,144.26697,70.268555,-113.07678
1766813004592,-0.94677734,0.20214844,-0.2705078,-0.7324219,0.12207031,0.48828125,0.0,0.0,0.0,144.10767,70.235596,-113.15918
1766813004680,-0.94384766,0.20361328,-0.27197266,-0.5493164,0.0,0.48828125,0.0,0.0,0.0,144.10767,70.235596,-113.15918
1766813004691,-0.94384766,0.20361328,-0.27197266,-0.5493164,0.0,0.48828125,0.0,0.0,0.0,143.9209,70.20264,-113.28552
1766813004779,-0.94433594,0.20263672,-0.2709961,-0.4272461,0.12207031,0.36621094,0.0,0.0,0.0,143.9209,70.20264,-113.28552
1766813004791,-0.94433594,0.20263672,-0.2709961,-0.4272461,0.12207031,0.36621094,0.0,0.0,0.0,143.80005,70.164185,-113.36243
1766813004879,-0.9433594,0.20605469,-0.2705078,-0.36621094,0.18310547,0.18310547,0.0,0.0,0.0,143.80005,70.164185,-113.36243
1766813004891,-0.9433594,0.20605469,-0.2705078,-0.36621094,0.18310547,0.18310547,0.0,0.0,0.0,143.70667,70.12573,-113.40088
1766813004979,-0.94091797,0.20947266,-0.26757812,-0.12207031,0.18310547,0.24414062,0.0,0.0,0.0,143.70667,70.12573,-113.40088
1766813004991,-0.94091797,0.20947266,-0.26757812,-0.12207031,0.18310547,0.24414062,0.0,0.0,0.0,143.61877,70.08728,-113.42285
1766813005079,-0.94189453,0.19873047,-0.2709961,0.12207031,0.061035156,-0.18310547,0.0,0.0,0.0,143.61877,70.08728,-113.42285
1766813005090,-0.94189453,0.19873047,-0.2709961,0.12207031,0.061035156,-0.18310547,0.0,0.0,0.0,143.64075,70.08179,-113.38989
1766813005178,-0.9482422,0.20507812,-0.2685547,0.0,0.12207031,-0.91552734,0.0,0.0,0.0,143.64075,70.08179,-113.38989
1766813005190,-0.9482422,0.20507812,-0.2685547,0.0,0.12207031,-0.91552734,0.0,0.0,0.0,143.66821,70.12573,-113.35693
1766813005278,-0.9423828,0.20751953,-0.2709961,0.36621094,-0.18310547,-0.79345703,0.0,0.0,0.0,143.66821,70.12573,-113.35693
1766813005290,-0.9423828,0.20751953,-0.2709961,0.36621094,-0.18310547,-0.79345703,0.0,0.0,0.0,143.90442,70.1532,-113.10974
1766813005378,-0.9448242,0.19970703,-0.27392578,0.12207031,-0.061035156,-0.91552734,0.0,0.0,0.0,143.90442,70.1532,-113.10974
1766813005390,-0.9448242,0.19970703,-0.27392578,0.12207031,-0.061035156,-0.91552734,0.0,0.0,0.0,144.09668,70.19165,-112.901
1766813005477,-0.9448242,0.20166016,-0.26904297,0.18310547,-0.48828125,-0.7324219,0.0,0.0,0.0,144.09668,70.19165,-112.901
1766813005490,-0.9448242,0.20166016,-0.26904297,0.18310547,-0.48828125,-0.7324219,0.0,0.0,0.0,144.26147,70.25757,-112.736206
1766813005577,-0.9433594,0.20263672,-0.2705078,0.4272461,-0.18310547,-0.9765625,0.0,0.0,0.0,144.26147,70.25757,-112.736206
1766813005589,-0.9433594,0.20263672,-0.2705078,0.4272461,-0.18310547,-0.9765625,0.0,0.0,0.0,144.37683,70.3125,-112.60986
1766813005677,-0.94677734,0.19677734,-0.27001953,0.5493164,-0.5493164,-0.7324219,0.0,0.0,0.0,144.37683,70.3125,-112.60986
1766813005688,-0.94677734,0.19677734,-0.27001953,0.5493164,-0.5493164,-0.7324219,0.0,0.0,0.0,144.5581,70.372925,-112.42859
1766813005777,-0.9428711,0.1977539,-0.27197266,0.061035156,-0.36621094,-0.5493164,0.0,0.0,0.0,144.5581,70.372925,-112.42859
1766813005788,-0.9428711,0.1977539,-0.27197266,0.061035156,-0.36621094,-0.5493164,0.0,0.0,0.0,144.6405,70.43335,-112.36267
1766813005876,-0.9506836,0.19335938,-0.27197266,0.12207031,-0.12207031,-0.5493164,0.0,0.0,0.0,144.6405,70.43335,-112.36267
1766813005888,-0.9506836,0.19335938,-0.27197266,0.12207031,-0.12207031,-0.5493164,0.0,0.0,0.0,144.7229,70.477295,-112.263794
1766813005976,-0.94433594,0.19726562,-0.27148438,0.18310547,-0.061035156,-0.24414062,0.0,0.0,0.0,144.7229,70.477295,-112.263794
1766813005987,-0.94433594,0.19726562,-0.27148438,0.18310547,-0.061035156,-0.24414062,0.0,0.0,0.0,144.84924,70.493774,-112.142944
1766813006076,-0.94677734,0.19238281,-0.27148438,0.5493164,0.24414062,-0.5493164,0.0,0.0,0.0,144.84924,70.493774,-112.142944
1766813006087,-0.94677734,0.19238281,-0.27148438,0.5493164,0.24414062,-0.5493164,0.0,0.0,0.0,144.89868,70.52124,-112.099
1766813006176,-0.9453125,0.19580078,-0.2709961,0.18310547,-0.24414062,-0.36621094,0.0,0.0,0.0,144.89868,70.52124,-112.099
1766813006190,-0.9453125,0.19580078,-0.2709961,0.18310547,-0.24414062,-0.36621094,0.0,0.0,0.0,145.047,70.54321,-111.96167
1766813006275,-0.94921875,0.1928711,-0.27246094,0.061035156,-0.061035156,-0.36621094,0.0,0.0,0.0,145.047,70.54321,-111.96167
1766813006287,-0.94921875,0.1928711,-0.27246094,0.061035156,-0.061035156,-0.36621094,0.0,0.0,0.0,145.10193,70.565186,-111.89026
1766813006375,-0.9448242,0.19433594,-0.26953125,0.0,-0.36621094,-0.12207031,0.0,0.0,0.0,145.10193,70.565186,-111.89026
1766813006387,-0.9448242,0.19433594,-0.26953125,0.0,-0.36621094,-0.12207031,0.0,0.0,0.0,145.1294,70.581665,-111.8573
1766813006475,-0.9482422,0.19238281,-0.27001953,0.12207031,0.24414062,-0.24414062,0.0,0.0,0.0,145.1294,70.581665,-111.8573
1766813006487,-0.9482422,0.19238281,-0.27001953,0.12207031,0.24414062,-0.24414062,0.0,0.0,0.0,145.16235,70.59265,-111.813354
1766813006574,-0.94677734,0.19189453,-0.27148438,0.18310547,-0.061035156,-0.18310547,0.0,0.0,0.0,145.16235,70.59265,-111.813354
1766813006586,-0.94677734,0.19189453,-0.27148438,0.18310547,-0.061035156,-0.18310547,0.0,0.0,0.0,145.18982,70.59265,-111.7749
1766813006674,-0.9458008,0.19335938,-0.26904297,-0.18310547,0.0,-0.12207031,0.0,0.0,0.0,145.18982,70.59265,-111.7749
1766813006685,-0.9458008,0.19335938,-0.26904297,-0.18310547,0.0,-0.12207031,0.0,0.0,0.0,145.21179,70.59265,-111.73645
1766813006774,-0.94628906,0.1928711,-0.2709961,0.12207031,-0.12207031,-0.18310547,0.0,0.0,0.0,145.21179,70.59265,-111.73645
1766813006785,-0.94628906,0.1928711,-0.2709961,0.12207031,-0.12207031,-0.18310547,0.0,0.0,0.0,145.2063,70.59265,-111.73096
1766813006873,-0.9448242,0.1953125,-0.26904297,0.18310547,-0.48828125,0.0,0.0,0.0,0.0,145.2063,70.59265,-111.73096
1766813006885,-0.9448242,0.1953125,-0.26904297,0.18310547,-0.48828125,0.0,0.0,0.0,0.0,145.22278,70.59265,-111.71448
1766813006973,-0.94384766,0.19140625,-0.26904297,0.48828125,-0.9765625,-0.7324219,0.0,0.0,0.0,145.22278,70.59265,-111.71448
1766813006984,-0.94384766,0.19140625,-0.26904297,0.48828125,-0.9765625,-0.7324219,0.0,0.0,0.0,145.21729,70.6366,-111.73645
1766813007073,-0.9501953,0.19140625,-0.26904297,0.061035156,-0.61035156,0.0,0.0,0.0,0.0,145.21729,70.6366,-111.73645
1766813007084,-0.9501953,0.19140625,-0.26904297,0.061035156,-0.61035156,0.0,0.0,0.0,0.0,145.08545,70.72449,-111.87378
1766813007172,-0.94628906,0.19140625,-0.26708984,0.061035156,-0.12207031,-0.18310547,0.0,0.0,0.0,145.08545,70.72449,-111.87378
1766813007184,-0.94628906,0.19140625,-0.26708984,0.061035156,-0.12207031,-0.18310547,0.0,0.0,0.0,145.05798,70.73547,-111.90674
1766813007272,-0.9482422,0.18945312,-0.26757812,-0.061035156,-0.12207031,-0.30517578,0.0,0.0,0.0,145.05798,70.73547,-111.90674
1766813007284,-0.9482422,0.18945312,-0.26757812,-0.061035156,-0.12207031,-0.30517578,0.0,0.0,0.0,145.08545,70.75745,-111.87927
1766813007372,-0.94970703,0.19091797,-0.27001953,0.0,0.30517578,0.061035156,0.0,0.0,0.0,145.08545,70.75745,-111.87927
1766813007383,-0.94970703,0.19091797,-0.27001953,0.0,0.30517578,0.061035156,0.0,0.0,0.0,145.17334,70.75195,-111.80237
1766813007471,-0.9477539,0.19335938,-0.265625,-0.30517578,0.4272461,0.18310547,0.0,0.0,0.0,145.17334,70.75195,-111.80237
1766813007483,-0.9477539,0.19335938,-0.265625,-0.30517578,0.4272461,0.18310547,0.0,0.0,0.0,145.2063,70.70801,-111.74744
1766813007571,-0.9472656,0.19335938,-0.265625,-0.8544922,0.0,0.48828125,0.0,0.0,0.0,145.2063,70.70801,-111.74744
1766813007583,-0.9472656,0.19335938,-0.265625,-0.8544922,0.0,0.48828125,0.0,0.0,0.0,145.00305,70.68054,-111.86279
1766813007671,-0.9472656,0.19433594,-0.26660156,-0.7324219,0.36621094,0.36621094,0.0,0.0,0.0,145.00305,70.68054,-111.86279
1766813007682,-0.9472656,0.19433594,-0.26660156,-0.7324219,0.36621094,0.36621094,0.0,0.0,0.0,144.86023,70.62561,-111.934204
1766813007771,-0.9448242,0.19824219,-0.26513672,-0.61035156,-0.36621094,0.5493164,0.0,0.0,0.0,144.86023,70.62561,-111.934204
1766813007782,-0.9448242,0.19824219,-0.26513672,-0.61035156,-0.36621094,0.5493164,0.0,0.0,0.0,144.7174,70.565186,-112.01111
1766813007870,-0.9423828,0.19824219,-0.26708984,-0.5493164,0.24414062,0.5493164,0.0,0.0,0.0,144.7174,70.565186,-112.01111
1766813007882,-0.9423828,0.19824219,-0.26708984,-0.5493164,0.24414062,0.5493164,0.0,0.0,0.0,144.63501,70.510254,-112.038574
1766813007970,-0.94677734,0.19677734,-0.2705078,-0.36621094,0.18310547,0.36621094,0.0,0.0,0.0,144.63501,70.510254,-112.038574
1766813007981,-0.94677734,0.19677734,-0.2705078,-0.36621094,0.18310547,0.36621094,0.0,0.0,0.0,144.47571,70.46631,-112.13745
1766813008070,-0.9448242,0.19824219,-0.27001953,-0.79345703,0.061035156,0.4272461,0.0,0.0,0.0,144.47571,70.46631,-112.13745
1766813008081,-0.9448242,0.19824219,-0.27001953,-0.79345703,0.061035156,0.4272461,0.0,0.0,0.0,144.3274,70.42786,-112.214355
1766813008169,-0.94677734,0.19921875,-0.2685547,-0.7324219,0.12207031,0.36621094,0.0,0.0,0.0,144.3274,70.42786,-112.214355
1766813008181,-0.94677734,0.19921875,-0.2685547,-0.7324219,0.12207031,0.36621094,0.0,0.0,0.0,144.17358,70.3949,-112.302246
1766813008269,-0.9448242,0.2006836,-0.26953125,-0.4272461,0.30517578,0.48828125,0.0,0.0,0.0,144.17358,70.3949,-112.302246
1766813008280,-0.9448242,0.2006836,-0.26953125,-0.4272461,0.30517578,0.48828125,0.0,0.0,0.0,144.06372,70.34546,-112.351685
1766813008369,-0.9433594,0.20166016,-0.2685547,-0.36621094,0.12207031,0.36621094,0.0,0.0,0.0,144.06372,70.34546,-112.351685
1766813008380,-0.9433594,0.20166016,-0.2685547,-0.36621094,0.12207031,0.36621094,0.0,0.0,0.0,143.93188,70.29602,-112.423096
1766813008469,-0.94140625,0.20166016,-0.2680664,-0.24414062,0.12207031,-0.061035156,0.0,0.0,0.0,143.93188,70.29602,-112.423096
1766813008480,-0.94140625,0.20166016,-0.2680664,-0.24414062,0.12207031,-0.061035156,0.0,0.0,0.0,143.89343,70.27405,-112.4176
1766813008568,-0.94433594,0.203125,-0.26757812,0.0,-0.061035156,-0.4272461,0.0,0.0,0.0,143.89343,70.27405,-112.4176
1766813008580,-0.94433594,0.203125,-0.26757812,0.0,-0.061035156,-0.4272461,0.0,0.0,0.0,143.94836,70.27954,-112.3407
1766813008668,-0.9453125,0.20214844,-0.26757812,0.4272461,-0.7324219,-0.6713867,0.0,0.0,0.0,143.94836,70.27954,-112.3407
1766813008679,-0.9453125,0.20214844,-0.26757812,0.4272461,-0.7324219,-0.6713867,0.0,0.0,0.0,143.97583,70.32349,-112.30774
1766813008768,-0.9423828,0.20214844,-0.26904297,0.18310547,-0.48828125,-0.7324219,0.0,0.0,0.0,143.97583,70.32349,-112.30774
1766813008779,-0.9423828,0.20214844,-0.26904297,0.18310547,-0.48828125,-0.7324219,0.0,0.0,0.0,144.17908,70.36194,-112.109985
1766813008867,-0.94677734,0.19824219,-0.26904297,0.36621094,-0.36621094,-0.8544922,0.0,0.0,0.0,144.17908,70.36194,-112.109985
1766813008879,-0.94677734,0.19824219,-0.26904297,0.36621094,-0.36621094,-0.8544922,0.0,0.0,0.0,144.34387,70.42236,-111.96167
1766813008967,-0.9448242,0.19873047,-0.2680664,0.4272461,-0.30517578,-0.61035156,0.0,0.0,0.0,144.34387,70.42236,-111.96167
1766813008979,-0.9448242,0.19873047,-0.2680664,0.4272461,-0.30517578,-0.61035156,0.0,0.0,0.0,144.45374,70.477295,-111.8573
1766813009067,-0.9477539,0.19628906,-0.2680664,0.12207031,-0.36621094,-0.48828125,0.0,0.0,0.0,144.45374,70.477295,-111.8573
1766813009078,-0.9477539,0.19628906,-0.2680664,0.12207031,-0.36621094,-0.48828125,0.0,0.0,0.0,144.4867,70.51575,-111.80786
1766813009166,-0.94628906,0.19580078,-0.26904297,0.18310547,-0.061035156,-0.6713867,0.0,0.0,0.0,144.4867,70.51575,-111.80786
1766813009178,-0.94628906,0.19580078,-0.26904297,0.18310547,-0.061035156,-0.6713867,0.0,0.0,0.0,144.61853,70.5542,-111.68152
1766813009266,-0.9453125,0.19628906,-0.26757812,0.30517578,0.0,-0.4272461,0.0,0.0,0.0,144.61853,70.5542,-111.68152
1766813009278,-0.9453125,0.19628906,-0.26757812,0.30517578,0.0,-0.4272461,0.0,0.0,0.0,144.75586,70.57617,-111.5387
1766813009366,-0.94921875,0.19580078,-0.26757812,0.12207031,-0.24414062,-0.061035156,0.0,0.0,0.0,144.75586,70.57617,-111.5387
1766813009377,-0.94921875,0.19580078,-0.26757812,0.12207031,-0.24414062,-0.061035156,0.0,0.0,0.0,144.74487,70.59265,-111.52771
1766813009465,-0.9448242,0.19482422,-0.27148438,-0.24414062,0.36621094,0.18310547,0.0,0.0,0.0,144.74487,70.59265,-111.52771
1766813009477,-0.9448242,0.19482422,-0.27148438,-0.24414062,0.36621094,0.18310547,0.0,0.0,0.0,144.7998,70.5542,-111.46179
1766813009565,-0.9506836,0.19482422,-0.26757812,-0.61035156,0.0,0.48828125,0.0,0.0,0.0,144.7998,70.5542,-111.46179
1766813009577,-0.9506836,0.19482422,-0.26757812,-0.61035156,0.0,0.48828125,0.0,0.0,0.0,144.59106,70.53223,-111.63208
1766813009665,-0.94433594,0.1977539,-0.2709961,-0.12207031,0.0,0.48828125,0.0,0.0,0.0,144.59106,70.53223,-111.63208
1766813009676,-0.94433594,0.1977539,-0.2709961,-0.12207031,0.0,0.48828125,0.0,0.0,0.0,144.53613,70.48279,-111.66504
1766813009765,-0.94628906,0.19677734,-0.2705078,-0.7324219,0.0,0.36621094,0.0,0.0,0.0,144.53613,70.48279,-111.66504
1766813009776,-0.94628906,0.19677734,-0.2705078,-0.7324219,0.0,0.36621094,0.0,0.0,0.0,144.37134,70.444336,-111.780396
1766813009864,-0.94384766,0.20214844,-0.26757812,-0.6713867,0.061035156,0.48828125,0.0,0.0,0.0,144.37134,70.444336,-111.780396
1766813009876,-0.94384766,0.20214844,-0.26757812,-0.6713867,0.061035156,0.48828125,0.0,0.0,0.0,144.20105,70.41138,-111.89026
1766813009964,-0.9472656,0.19873047,-0.2705078,-0.5493164,0.0,0.30517578,0.0,0.0,0.0,144.20105,70.41138,-111.89026
1766813009976,-0.9472656,0.19873047,-0.2705078,-0.5493164,0.0,0.30517578,0.0,0.0,0.0,144.04175,70.37842,-111.98364
1766813010064,-0.9448242,0.203125,-0.26904297,-0.79345703,0.36621094,0.48828125,0.0,0.0,0.0,144.04175,70.37842,-111.98364
1766813010075,-0.9448242,0.203125,-0.26904297,-0.79345703,0.36621094,0.48828125,0.0,0.0,0.0,143.95386,70.32349,-112.005615
1766813010163,-0.9428711,0.203125,-0.27001953,-0.18310547,0.18310547,0.24414062,0.0,0.0,0.0,143.95386,70.32349,-112.005615
1766813010175,-0.9428711,0.203125,-0.27001953,-0.18310547,0.18310547,0.24414062,0.0,0.0,0.0,143.78906,70.27405,-112.099
1766813010263,-0.94433594,0.2006836,-0.26953125,0.12207031,-0.061035156,-0.061035156,0.0,0.0,0.0,143.78906,70.27405,-112.099
1766813010275,-0.94433594,0.2006836,-0.26953125,0.12207031,-0.061035156,-0.061035156,0.0,0.0,0.0,143.71765,70.24658,-112.12097
1766813010363,-0.9399414,0.20361328,-0.26953125,-0.30517578,-0.30517578,-0.24414062,0.0,0.0,0.0,143.71765,70.24658,-112.12097
1766813010374,-0.9399414,0.20361328,-0.26953125,-0.30517578,-0.30517578,-0.24414062,0.0,0.0,0.0,143.79456,70.252075,-112.03308
1766813010462,-0.9453125,0.20361328,-0.26953125,0.48828125,0.5493164,-0.6713867,0.0,0.0,0.0,143.79456,70.252075,-112.03308
1766813010474,-0.9453125,0.20361328,-0.26953125,0.48828125,0.5493164,-0.6713867,0.0,0.0,0.0,143.81104,70.29602,-111.99463
1766813010562,-0.94384766,0.20166016,-0.26953125,0.7324219,0.12207031,-0.48828125,0.0,0.0,0.0,143.81104,70.29602,-111.99463
1766813010574,-0.94384766,0.20166016,-0.26953125,0.7324219,0.12207031,-0.48828125,0.0,0.0,0.0,143.90442,70.30701,-111.89575
1766813010662,-0.94677734,0.19921875,-0.2734375,-0.061035156,-0.6713867,-0.8544922,0.0,0.0,0.0,143.90442,70.30701,-111.89575
1766813010673,-0.94677734,0.19921875,-0.2734375,-0.061035156,-0.6713867,-0.8544922,0.0,0.0,0.0,144.03076,70.36194,-111.7749
1766813010762,-0.9472656,0.2006836,-0.26757812,0.0,-0.30517578,-0.61035156,0.0,0.0,0.0,144.03076,70.36194,-111.7749
1766813010774,-0.9472656,0.2006836,-0.26757812,0.0,-0.30517578,-0.61035156,0.0,0.0,0.0,144.10767,70.444336,-111.676025
1766813010861,-0.9472656,0.19824219,-0.26757812,-0.18310547,-0.24414062,-0.36621094,0.0,0.0,0.0,144.10767,70.444336,-111.676025
1766813010873,-0.9472656,0.19824219,-0.26757812,-0.18310547,-0.24414062,-0.36621094,0.0,0.0,0.0,144.10767,70.4718,-111.64307
1766813010961,-0.9453125,0.20019531,-0.265625,0.0,-0.18310547,-0.24414062,0.0,0.0,0.0,144.10767,70.4718,-111.64307
1766813010972,-0.9453125,0.20019531,-0.265625,0.0,-0.18310547,-0.24414062,0.0,0.0,0.0,144.11316,70.48279,-111.6156
1766813011061,-0.94384766,0.19873047,-0.2680664,0.5493164,-0.12207031,-0.48828125,0.0,0.0,0.0,144.11316,70.48279,-111.6156
1766813011072,-0.94384766,0.19873047,-0.2680664,0.5493164,-0.12207031,-0.48828125,0.0,0.0,0.0,144.22302,70.49927,-111.51123
1766813011160,-0.9472656,0.19628906,-0.2685547,0.5493164,-0.24414062,-0.7324219,0.0,0.0,0.0,144.22302,70.49927,-111.51123
1766813011172,-0.9472656,0.19628906,-0.2685547,0.5493164,-0.24414062,-0.7324219,0.0,0.0,0.0,144.34937,70.53223,-111.40686
1766813011260,-0.9453125,0.19824219,-0.26708984,0.48828125,-0.48828125,-0.48828125,0.0,0.0,0.0,144.34937,70.53223,-111.40686
1766813011272,-0.9453125,0.19824219,-0.26708984,0.48828125,-0.48828125,-0.48828125,0.0,0.0,0.0,144.52515,70.55969,-111.258545
1766813011360,-0.9453125,0.19677734,-0.265625,0.5493164,-0.24414062,-0.61035156,0.0,0.0,0.0,144.52515,70.55969,-111.258545
1766813011371,-0.9453125,0.19677734,-0.265625,0.5493164,-0.24414062,-0.61035156,0.0,0.0,0.0,144.65149,70.59265,-111.14868
1766813011460,-0.9472656,0.19482422,-0.26953125,0.48828125,-0.12207031,-0.4272461,0.0,0.0,0.0,144.65149,70.59265,-111.14868
1766813011471,-0.9472656,0.19482422,-0.26953125,0.48828125,-0.12207031,-0.4272461,0.0,0.0,0.0,144.77783,70.62012,-111.04431
1766813011559,-0.94677734,0.19238281,-0.27001953,0.0,-0.061035156,-0.4272461,0.0,0.0,0.0,144.77783,70.62012,-111.04431
1766813011571,-0.94677734,0.19238281,-0.27001953,0.0,-0.061035156,-0.4272461,0.0,0.0,0.0,144.87122,70.6366,-110.95093
1766813011659,-0.9477539,0.19335938,-0.26904297,0.061035156,0.0,-0.36621094,0.0,0.0,0.0,144.87122,70.6366,-110.95093
1766813011671,-0.9477539,0.19335938,-0.26904297,0.061035156,0.0,-0.36621094,0.0,0.0,0.0,144.92065,70.65857,-110.8905
1766813011759,-0.94873047,0.1928711,-0.265625,0.30517578,0.24414062,0.0,0.0,0.0,0.0,144.92065,70.65857,-110.8905
1766813011770,-0.94873047,0.1928711,-0.265625,0.30517578,0.24414062,0.0,0.0,0.0,0.0,144.99207,70.65857,-110.808105
1766813011859,-0.9477539,0.19335938,-0.27001953,-0.061035156,0.061035156,0.24414062,0.0,0.0,0.0,144.99207,70.65857,-110.808105
1766813011870,-0.9477539,0.19335938,-0.27001953,-0.061035156,0.061035156,0.24414062,0.0,0.0,0.0,144.91516,70.62012,-110.86853
1766813011958,-0.9482422,0.1953125,-0.26708984,-0.48828125,-0.061035156,0.36621094,0.0,0.0,0.0,144.91516,70.62012,-110.86853
1766813011969,-0.9482422,0.1953125,-0.26708984,-0.48828125,-0.061035156,0.36621094,0.0,0.0,0.0,144.84924,70.598145,-110.895996
1766813012058,-0.94628906,0.1953125,-0.26611328,-0.4272461,0.24414062,0.36621094,0.0,0.0,0.0,144.84924,70.598145,-110.895996
1766813012069,-0.94628906,0.1953125,-0.26611328,-0.4272461,0.24414062,0.36621094,0.0,0.0,0.0,144.74487,70.5542,-110.96741
1766813012157,-0.94433594,0.19628906,-0.26953125,-0.48828125,-0.48828125,0.6713867,0.0,0.0,0.0,144.74487,70.5542,-110.96741
1766813012169,-0.94433594,0.19628906,-0.26953125,-0.48828125,-0.48828125,0.6713867,0.0,0.0,0.0,144.56909,70.510254,-111.09375
1766813012257,-0.9428711,0.19873047,-0.2680664,-0.30517578,0.4272461,0.30517578,0.0,0.0,0.0,144.56909,70.510254,-111.09375
1766813012269,-0.9428711,0.19873047,-0.2680664,-0.30517578,0.4272461,0.30517578,0.0,0.0,0.0,144.49768,70.460815,-111.1322
1766813012357,-0.94628906,0.19921875,-0.26953125,-0.4272461,0.061035156,0.4272461,0.0,0.0,0.0,144.49768,70.460815,-111.1322
1766813012368,-0.94628906,0.19921875,-0.26953125,-0.4272461,0.061035156,0.4272461,0.0,0.0,0.0,144.34387,70.42236,-111.242065
1766813012456,-0.94433594,0.1977539,-0.2709961,-0.61035156,0.18310547,0.36621094,0.0,0.0,0.0,144.34387,70.42236,-111.242065
1766813012468,-0.94433594,0.1977539,-0.2709961,-0.61035156,0.18310547,0.36621094,0.0,0.0,0.0,144.21204,70.38391,-111.30798
1766813012556,-0.9458008,0.2006836,-0.27001953,-0.5493164,0.18310547,0.30517578,0.0,0.0,0.0,144.21204,70.38391,-111.30798
1766813012568,-0.9458008,0.2006836,-0.27001953,-0.5493164,0.18310547,0.30517578,0.0,0.0,0.0,144.06921,70.35095,-111.39038
1766813012656,-0.94384766,0.20214844,-0.27001953,-0.4272461,0.30517578,0.4272461,0.0,0.0,0.0,144.06921,70.35095,-111.39038
1766813012667,-0.94384766,0.20214844,-0.27001953,-0.4272461,0.30517578,0.4272461,0.0,0.0,0.0,143.95386,70.29602,-111.450806
1766813012756,-0.9433594,0.20263672,-0.27001953,-0.36621094,0.061035156,0.061035156,0.0,0.0,0.0,143.95386,70.29602,-111.450806
1766813012767,-0.9433594,0.20263672,-0.27001953,-0.36621094,0.061035156,0.061035156,0.0,0.0,0.0,143.83301,70.26306,-111.51123
1766813012855,-0.94140625,0.203125,-0.2680664,0.0,0.0,-0.24414062,0.0,0.0,0.0,143.83301,70.26306,-111.51123
1766813012868,-0.94140625,0.203125,-0.2680664,0.0,0.0,-0.24414062,0.0,0.0,0.0,143.844,70.26306,-111.467285
1766813012955,-0.9458008,0.20117188,-0.2680664,0.18310547,0.12207031,-0.61035156,0.0,0.0,0.0,143.844,70.26306,-111.467285
1766813012966,-0.9458008,0.20117188,-0.2680664,0.18310547,0.12207031,-0.61035156,0.0,0.0,0.0,143.95935,70.29602,-111.34094
1766813013055,-0.94921875,0.2006836,-0.2680664,0.061035156,-0.12207031,-0.18310547,0.0,0.0,0.0,143.95935,70.29602,-111.34094
1766813013066,-0.94921875,0.2006836,-0.2680664,0.061035156,-0.12207031,-0.18310547,0.0,0.0,0.0,143.93738,70.3125,-111.362915
1766813013155,-0.9428711,0.20214844,-0.2709961,-0.12207031,-0.4272461,-0.18310547,0.0,0.0,0.0,143.93738,70.3125,-111.362915
1766813013166,-0.9428711,0.20214844,-0.2709961,-0.12207031,-0.4272461,-0.18310547,0.0,0.0,0.0,143.98682,70.3125,-111.297
1766813013254,-0.9477539,0.19824219,-0.2680664,-0.24414062,-0.24414062,-0.7324219,0.0,0.0,0.0,143.98682,70.3125,-111.297
1766813013266,-0.9477539,0.19824219,-0.2680664,-0.24414062,-0.24414062,-0.7324219,0.0,0.0,0.0,144.04724,70.356445,-111.20911
1766813013354,-0.94189453,0.20361328,-0.2680664,0.18310547,0.24414062,0.12207031,0.0,0.0,0.0,144.04724,70.356445,-111.20911
1766813013365,-0.94189453,0.20361328,-0.2680664,0.18310547,0.24414062,0.12207031,0.0,0.0,0.0,144.19556,70.32349,-111.04431
1766813013454,-0.94384766,0.2006836,-0.27539062,0.061035156,-0.12207031,-0.7324219,0.0,0.0,0.0,144.19556,70.32349,-111.04431
1766813013465,-0.94384766,0.2006836,-0.27539062,0.061035156,-0.12207031,-0.7324219,0.0,0.0,0.0,144.26697,70.31799,-110.96741
1766813013553,-0.9501953,0.2006836,-0.2709961,0.30517578,0.30517578,0.9765625,0.0,0.0,0.0,144.26697,70.31799,-110.96741
1766813013565,-0.9501953,0.2006836,-0.2709961,0.30517578,0.30517578,0.9765625,0.0,0.0,0.0,144.22302,70.27405,-111.02234
1766813013653,-0.9428711,0.19970703,-0.27246094,-0.6713867,0.30517578,0.30517578,0.0,0.0,0.0,144.22302,70.27405,-111.02234
1766813013665,-0.9428711,0.19970703,-0.27246094,-0.6713867,0.30517578,0.30517578,0.0,0.0,0.0,144.15161,70.22461,-111.14319
1766813013753,-0.9433594,0.20263672,-0.2709961,-0.48828125,-0.91552734,-0.12207031,0.0,0.0,0.0,144.15161,70.22461,-111.14319
1766813013764,-0.9433594,0.20263672,-0.2709961,-0.48828125,-0.91552734,-0.12207031,0.0,0.0,0.0,144.1626,70.2301,-111.121216
1766813013852,-0.9472656,0.19433594,-0.2763672,0.24414062,1.8310547,-1.0375977,0.0,0.0,0.0,144.1626,70.2301,-111.121216
1766813013864,-0.9472656,0.19433594,-0.2763672,0.24414062,1.8310547,-1.0375977,0.0,0.0,0.0,144.54163,70.20264,-110.753174
1766813013952,-0.94677734,0.20458984,-0.26953125,0.8544922,0.36621094,-0.8544922,0.0,0.0,0.0,144.54163,70.20264,-110.753174
1766813013964,-0.94677734,0.20458984,-0.26953125,0.8544922,0.36621094,-0.8544922,0.0,0.0,0.0,144.8822,70.19165,-110.42908
1766813014052,-0.9482422,0.19580078,-0.28125,1.8920898,0.6713867,-1.2817383,0.0,0.0,0.0,144.8822,70.19165,-110.42908
1766813014064,-0.9482422,0.19580078,-0.28125,1.8920898,0.6713867,-1.2817383,0.0,0.0,0.0,145.38757,70.180664,-110.0116
1766813014151,-0.94433594,0.19140625,-0.2788086,-0.30517578,0.0,0.4272461,0.0,0.0,0.0,145.38757,70.180664,-110.0116
1766813014163,-0.94433594,0.19140625,-0.2788086,-0.30517578,0.0,0.4272461,0.0,0.0,0.0,145.59631,70.147705,-109.82483
1766813014251,-0.9370117,0.20458984,-0.2734375,1.8920898,-0.12207031,0.6713867,0.0,0.0,0.0,145.59631,70.147705,-109.82483
1766813014264,-0.9370117,0.20458984,-0.2734375,1.8920898,-0.12207031,0.6713867,0.0,0.0,0.0,145.61829,70.0708,-109.868774
1766813014351,-0.9404297,0.18603516,-0.28710938,0.061035156,-0.91552734,-1.5869141,0.0,0.0,0.0,145.61829,70.0708,-109.868774
1766813014362,-0.9404297,0.18603516,-0.28710938,0.061035156,-0.91552734,-1.5869141,0.0,0.0,0.0,145.80505,70.10925,-109.77539
1766813014452,-0.94384766,0.18847656,-0.27783203,-2.6245117,-1.5258789,-0.6713867,0.0,0.0,0.0,145.80505,70.10925,-109.77539
1766813014462,-0.94384766,0.18847656,-0.27783203,-2.6245117,-1.5258789,-0.6713867,0.0,0.0,0.0,145.92041,70.22461,-109.6051
1766813014550,-0.9433594,0.19628906,-0.2734375,-1.6479492,0.061035156,-0.91552734,0.0,0.0,0.0,145.92041,70.22461,-109.6051
1766813014562,-0.9433594,0.19628906,-0.2734375,-1.6479492,0.061035156,-0.91552734,0.0,0.0,0.0,145.78857,70.29053,-109.5282
1766813014650,-0.953125,0.18652344,-0.28076172,-3.0517578,-1.4648438,-0.6713867,0.0,0.0,0.0,145.78857,70.29053,-109.5282
1766813014661,-0.953125,0.18652344,-0.28076172,-3.0517578,-1.4648438,-0.6713867,0.0,0.0,0.0,145.5304,70.41687,-109.55017
1766813014750,-0.93408203,0.19384766,-0.27978516,-2.319336,-0.36621094,-0.7324219,0.0,0.0,0.0,145.5304,70.41687,-109.55017
1766813014762,-0.93408203,0.19384766,-0.27978516,-2.319336,-0.36621094,-0.7324219,0.0,0.0,0.0,145.31067,70.48279,-109.51172
1766813014850,-0.9458008,0.21191406,-0.25,-1.5869141,-1.2207031,-0.36621094,0.0,0.0,0.0,145.31067,70.48279,-109.51172
1766813014861,-0.9458008,0.21191406,-0.25,-1.5869141,-1.2207031,-0.36621094,0.0,0.0,0.0,144.7284,70.598145,-109.78638
1766813014949,-0.95410156,0.19580078,-0.27197266,0.48828125,0.12207031,0.12207031,0.0,0.0,0.0,144.7284,70.598145,-109.78638
1766813014961,-0.95410156,0.19580078,-0.27197266,0.48828125,0.12207031,0.12207031,0.0,0.0,0.0,144.61304,70.62561,-109.83032
1766813015049,-0.9526367,0.20263672,-0.28222656,-1.4038086,1.5258789,1.2817383,0.0,0.0,0.0,144.61304,70.62561,-109.83032
1766813015060,-0.9526367,0.20263672,-0.28222656,-1.4038086,1.5258789,1.2817383,0.0,0.0,0.0,144.45374,70.48828,-109.87427
1766813015148,-0.92871094,0.20751953,-0.26953125,-1.2207031,-1.953125,1.3427734,0.0,0.0,0.0,144.45374,70.48828,-109.87427
1766813015160,-0.92871094,0.20751953,-0.26953125,-1.2207031,-1.953125,1.3427734,0.0,0.0,0.0,143.93188,70.36743,-110.26428
1766813015248,-0.94970703,0.19677734,-0.25683594,0.5493164,-2.6245117,-0.24414062,0.0,0.0,0.0,143.93188,70.36743,-110.26428
1766813015260,-0.94970703,0.19677734,-0.25683594,0.5493164,-2.6245117,-0.24414062,0.0,0.0,0.0,143.5968,70.50476,-110.65979
1766813015348,-0.9555664,0.18457031,-0.26953125,-1.7089844,-0.061035156,1.7089844,0.0,0.0,0.0,143.5968,70.50476,-110.65979
1766813015359,-0.9555664,0.18457031,-0.26953125,-1.7089844,-0.061035156,1.7089844,0.0,0.0,0.0,143.24524,70.54321,-111.0553
1766813015448,-0.93408203,0.20947266,-0.25097656,1.5258789,2.1362305,2.8686523,0.0,0.0,0.0,143.24524,70.54321,-111.0553
1766813015459,-0.93408203,0.20947266,-0.25097656,1.5258789,2.1362305,2.8686523,0.0,0.0,0.0,143.0365,70.29602,-111.30798
1766813015547,-0.9477539,0.20410156,-0.28173828,-0.24414062,-1.5258789,0.8544922,0.0,0.0,0.0,143.0365,70.29602,-111.30798
1766813015559,-0.9477539,0.20410156,-0.28173828,-0.24414062,-1.5258789,0.8544922,0.0,0.0,0.0,142.67944,70.15869,-111.725464
1766813015647,-0.9267578,0.21044922,-0.27197266,2.319336,-2.5024414,-3.6621094,0.0,0.0,0.0,142.67944,70.15869,-111.725464
1766813015658,-0.9267578,0.21044922,-0.27197266,2.319336,-2.5024414,-3.6621094,0.0,0.0,0.0,143.1189,70.372925,-111.6156
1766813015747,-0.91503906,0.2084961,-0.24072266,0.6713867,-4.211426,-2.8076172,0.0,0.0,0.0,143.1189,70.372925,-111.6156
1766813015758,-0.91503906,0.2084961,-0.24072266,0.6713867,-4.211426,-2.8076172,0.0,0.0,0.0,143.38806,70.64209,-111.23657
1766813015846,-0.98828125,0.1665039,-0.2548828,-0.061035156,0.30517578,0.0,0.0,0.0,0.0,143.38806,70.64209,-111.23657
1766813015858,-0.98828125,0.1665039,-0.2548828,-0.061035156,0.30517578,0.0,0.0,0.0,0.0,142.83875,70.96069,-111.588135
1766813015946,-0.93652344,0.19970703,-0.2705078,0.6713867,0.12207031,-1.5258789,0.0,0.0,0.0,142.83875,70.96069,-111.588135
1766813015958,-0.93652344,0.19970703,-0.2705078,0.6713867,0.12207031,-1.5258789,0.0,0.0,0.0,143.06396,70.98816,-111.58264
1766813016046,-0.9355469,0.22802734,-0.23291016,-0.91552734,-3.2958984,2.2583008,0.0,0.0,0.0,143.06396,70.98816,-111.58264
1766813016057,-0.9355469,0.22802734,-0.23291016,-0.91552734,-3.2958984,2.2583008,0.0,0.0,0.0,143.30566,71.07605,-111.49475
1766813016145,-0.96240234,0.20410156,-0.25195312,0.61035156,2.0751953,0.91552734,0.0,0.0,0.0,143.30566,71.07605,-111.49475
1766813016157,-0.96240234,0.20410156,-0.25195312,0.61035156,2.0751953,0.91552734,0.0,0.0,0.0,142.16858,71.07056,-112.42859
1766813016245,-0.93115234,0.18066406,-0.28466797,-1.7089844,-1.3427734,-1.2207031,0.0,0.0,0.0,142.16858,71.07056,-112.42859
1766813016257,-0.93115234,0.18066406,-0.28466797,-1.7089844,-1.3427734,-1.2207031,0.0,0.0,0.0,142.16858,71.015625,-112.31323
1766813016345,-0.9433594,0.19189453,-0.23925781,-4.760742,-1.7089844,-3.1738281,0.0,0.0,0.0,142.16858,71.015625,-112.31323
1766813016356,-0.9433594,0.19189453,-0.23925781,-4.760742,-1.7089844,-3.1738281,0.0,0.0,0.0,142.50366,71.257324,-111.692505
1766813016445,-0.9716797,0.22167969,-0.23535156,-0.61035156,-0.4272461,-0.12207031,0.0,0.0,0.0,142.50366,71.257324,-111.692505
1766813016456,-0.9716797,0.22167969,-0.23535156,-0.61035156,-0.4272461,-0.12207031,0.0,0.0,0.0,141.96533,71.54846,-111.97266
1766813016544,-0.9477539,0.20996094,-0.24609375,2.0141602,2.2583008,-0.79345703,0.0,0.0,0.0,141.96533,71.54846,-111.97266
1766813016556,-0.9477539,0.20996094,-0.24609375,2.0141602,2.2583008,-0.79345703,0.0,0.0,0.0,142.26746,71.42212,-111.555176
1766813016644,-0.95996094,0.1796875,-0.25195312,1.5258789,-1.159668,-0.36621094,0.0,0.0,0.0,142.26746,71.42212,-111.555176
1766813016656,-0.95996094,0.1796875,-0.25195312,1.5258789,-1.159668,-0.36621094,0.0,0.0,0.0,142.65198,71.39465,-111.23108
1766813016744,-0.9526367,0.19140625,-0.25585938,-0.36621094,0.18310547,0.12207031,0.0,0.0,0.0,142.65198,71.39465,-111.23108
1766813016755,-0.9526367,0.19140625,-0.25585938,-0.36621094,0.18310547,0.12207031,0.0,0.0,0.0,142.77283,71.38367,-111.170654
1766813016844,-0.9433594,0.21240234,-0.24414062,1.5869141,0.0,-0.79345703,0.0,0.0,0.0,142.77283,71.38367,-111.170654
1766813016855,-0.9433594,0.21240234,-0.24414062,1.5869141,0.0,-0.79345703,0.0,0.0,0.0,142.62451,71.3562,-111.329956
1766813016943,-0.95703125,0.18310547,-0.24951172,1.0986328,-0.91552734,0.0,0.0,0.0,0.0,142.62451,71.3562,-111.329956
1766813016954,-0.95703125,0.18310547,-0.24951172,1.0986328,-0.91552734,0.0,0.0,0.0,0.0,142.83875,71.42212,-111.15967
1766813017043,-0.95751953,0.18603516,-0.25927734,-0.91552734,0.12207031,0.5493164,0.0,0.0,0.0,142.83875,71.42212,-111.15967
1766813017054,-0.95751953,0.18603516,-0.25927734,-0.91552734,0.12207031,0.5493164,0.0,0.0,0.0,142.65747,71.416626,-111.395874
1766813017143,-0.9428711,0.21044922,-0.23876953,0.91552734,-0.18310547,0.24414062,0.0,0.0,0.0,142.65747,71.416626,-111.395874
1766813017154,-0.9428711,0.21044922,-0.23876953,0.91552734,-0.18310547,0.24414062,0.0,0.0,0.0,142.72888,71.37268,-111.362915
1766813017242,-0.9511719,0.18652344,-0.2602539,0.18310547,0.5493164,0.61035156,0.0,0.0,0.0,142.72888,71.37268,-111.362915
1766813017254,-0.9511719,0.18652344,-0.2602539,0.18310547,0.5493164,0.61035156,0.0,0.0,0.0,142.4762,71.35071,-111.56616
1766813017342,-0.9506836,0.19726562,-0.24804688,0.36621094,0.36621094,0.0,0.0,0.0,0.0,142.4762,71.35071,-111.56616
1766813017353,-0.9506836,0.19726562,-0.24804688,0.36621094,0.36621094,0.0,0.0,0.0,0.0,142.36084,71.31775,-111.676025
1766813017442,-0.94873047,0.20507812,-0.25683594,-0.48828125,-1.7700195,-0.30517578,0.0,0.0,0.0,142.36084,71.31775,-111.676025
1766813017453,-0.94873047,0.20507812,-0.25683594,-0.48828125,-1.7700195,-0.30517578,0.0,0.0,0.0,142.10815,71.38367,-111.92871
1766813017541,-0.9609375,0.1899414,-0.2368164,0.6713867,3.112793,-0.24414062,0.0,0.0,0.0,142.10815,71.38367,-111.92871
1766813017553,-0.9609375,0.1899414,-0.2368164,0.6713867,3.112793,-0.24414062,0.0,0.0,0.0,142.03674,71.38367,-111.95068
1766813017641,-0.94970703,0.21044922,-0.25048828,2.0751953,1.953125,1.159668,0.0,0.0,0.0,142.03674,71.38367,-111.95068
1766813017653,-0.94970703,0.21044922,-0.25048828,2.0751953,1.953125,1.159668,0.0,0.0,0.0,142.49268,71.18042,-111.59912
1766813017741,-0.94140625,0.20898438,-0.25878906,3.0517578,2.380371,1.2817383,0.0,0.0,0.0,142.49268,71.18042,-111.59912
1766813017752,-0.94140625,0.20898438,-0.25878906,3.0517578,2.380371,1.2817383,0.0,0.0,0.0,143.08044,70.894775,-111.24756
1766813017841,-0.9526367,0.2006836,-0.26367188,4.5776367,0.24414062,-0.30517578,0.0,0.0,0.0,143.08044,70.894775,-111.24756
1766813017852,-0.9526367,0.2006836,-0.26367188,4.5776367,0.24414062,-0.30517578,0.0,0.0,0.0,143.2782,70.75745,-111.30798
1766813017940,-0.93603516,0.1821289,-0.26611328,-0.9765625,-0.24414062,-0.30517578,0.0,0.0,0.0,143.2782,70.75745,-111.30798
1766813017952,-0.93603516,0.1821289,-0.26611328,-0.9765625,-0.24414062,-0.30517578,0.0,0.0,0.0,143.81104,70.7959,-111.01135
1766813018040,-0.94921875,0.19628906,-0.26611328,0.061035156,2.1972656,-1.8310547,0.0,0.0,0.0,143.81104,70.7959,-111.01135
1766813018051,-0.94921875,0.19628906,-0.26611328,0.061035156,2.1972656,-1.8310547,0.0,0.0,0.0,144.31091,70.74646,-110.4895
1766813018140,-0.9472656,0.19091797,-0.25976562,0.61035156,-0.5493164,-0.48828125,0.0,0.0,0.0,144.31091,70.74646,-110.4895
1766813018151,-0.9472656,0.19091797,-0.25976562,0.61035156,-0.5493164,-0.48828125,0.0,0.0,0.0,144.70093,70.790405,-110.093994
1766813018239,-0.93652344,0.19042969,-0.27148438,-0.7324219,1.2817383,-0.5493164,0.0,0.0,0.0,144.70093,70.790405,-110.093994
1766813018251,-0.93652344,0.19042969,-0.27148438,-0.7324219,1.2817383,-0.5493164,0.0,0.0,0.0,144.78882,70.70801,-109.94568
1766813018339,-0.96191406,0.18701172,-0.27441406,2.1972656,0.8544922,-1.6479492,0.0,0.0,0.0,144.78882,70.70801,-109.94568
1766813018351,-0.96191406,0.18701172,-0.27441406,2.1972656,0.8544922,-1.6479492,0.0,0.0,0.0,145.33264,70.702515,-109.401855
1766813018439,-0.9316406,0.18945312,-0.27929688,-1.8920898,-2.0141602,-0.7324219,0.0,0.0,0.0,145.33264,70.702515,-109.401855
1766813018450,-0.9316406,0.18945312,-0.27929688,-1.8920898,-2.0141602,-0.7324219,0.0,0.0,0.0,145.62378,70.74097,-109.19861
1766813018538,-0.95458984,0.17822266,-0.26708984,-1.7089844,-0.30517578,-0.61035156,0.0,0.0,0.0,145.62378,70.74097,-109.19861
1766813018550,-0.95458984,0.17822266,-0.26708984,-1.7089844,-0.30517578,-0.61035156,0.0,0.0,0.0,145.70618,70.90576,-109.09424
1766813018638,-0.93847656,0.18066406,-0.2734375,-3.9672852,-1.0375977,0.48828125,0.0,0.0,0.0,145.70618,70.90576,-109.09424
1766813018650,-0.93847656,0.18066406,-0.2734375,-3.9672852,-1.0375977,0.48828125,0.0,0.0,0.0,145.29968,70.93323,-109.27551
1766813018738,-0.94970703,0.1977539,-0.25830078,-4.8217773,-3.3569336,-1.5258789,0.0,0.0,0.0,145.29968,70.93323,-109.27551
1766813018750,-0.94970703,0.1977539,-0.25830078,-4.8217773,-3.3569336,-1.5258789,0.0,0.0,0.0,144.67896,71.12549,-109.51721
1766813018838,-0.9589844,0.1953125,-0.25830078,-1.5869141,-1.0986328,0.0,0.0,0.0,0.0,144.67896,71.12549,-109.51721
1766813018849,-0.9589844,0.1953125,-0.25830078,-1.5869141,-1.0986328,0.0,0.0,0.0,0.0,144.49768,71.361694,-109.48425
1766813018938,-0.9511719,0.19824219,-0.24804688,0.4272461,-2.5024414,-0.12207031,0.0,0.0,0.0,144.49768,71.361694,-109.48425
1766813018949,-0.9511719,0.19824219,-0.24804688,0.4272461,-2.5024414,-0.12207031,0.0,0.0,0.0,144.0802,71.47156,-109.87427
1766813019037,-0.95703125,0.17236328,-0.265625,-0.7324219,0.30517578,0.0,0.0,0.0,0.0,144.0802,71.47156,-109.87427
1766813019048,-0.95703125,0.17236328,-0.265625,-0.7324219,0.30517578,0.0,0.0,0.0,0.0,144.05823,71.520996,-109.87427
1766813019137,-0.9501953,0.18164062,-0.24902344,-2.746582,0.061035156,0.6713867,0.0,0.0,0.0,144.05823,71.520996,-109.87427
1766813019148,-0.9501953,0.18164062,-0.24902344,-2.746582,0.061035156,0.6713867,0.0,0.0,0.0,143.93188,71.50452,-109.91272
1766813019236,-0.95214844,0.18554688,-0.25195312,-2.5634766,-0.36621094,-0.5493164,0.0,0.0,0.0,143.93188,71.50452,-109.91272
1766813019248,-0.95214844,0.18554688,-0.25195312,-2.5634766,-0.36621094,-0.5493164,0.0,0.0,0.0,143.63525,71.53198,-109.96765
1766813019336,-0.95458984,0.21484375,-0.24316406,0.18310547,-0.4272461,-0.4272461,0.0,0.0,0.0,143.63525,71.53198,-109.96765
1766813019348,-0.95458984,0.21484375,-0.24316406,0.18310547,-0.4272461,-0.4272461,0.0,0.0,0.0,143.69019,71.58142,-109.77539
1766813019436,-0.9526367,0.1977539,-0.25,3.0517578,3.3569336,0.0,0.0,0.0,0.0,143.69019,71.58142,-109.77539
1766813019447,-0.9526367,0.1977539,-0.25,3.0517578,3.3569336,0.0,0.0,0.0,0.0,143.92639,71.47705,-109.49524
1766813019536,-0.953125,0.18603516,-0.25878906,3.1738281,0.18310547,2.6245117,0.0,0.0,0.0,143.92639,71.47705,-109.49524
1766813019547,-0.953125,0.18603516,-0.25878906,3.1738281,0.18310547,2.6245117,0.0,0.0,0.0,144.06372,71.30127,-109.555664
1766813019635,-0.9477539,0.16845703,-0.2763672,-0.91552734,2.9907227,-0.18310547,0.0,0.0,0.0,144.06372,71.30127,-109.555664
1766813019647,-0.9477539,0.16845703,-0.2763672,-0.91552734,2.9907227,-0.18310547,0.0,0.0,0.0,144.05823,71.09802,-109.74243
1766813019735,-0.94921875,0.1850586,-0.27148438,-3.1738281,-0.18310547,-1.0375977,0.0,0.0,0.0,144.05823,71.09802,-109.74243
1766813019747,-0.94921875,0.1850586,-0.27148438,-3.1738281,-0.18310547,-1.0375977,0.0,0.0,0.0,144.43726,71.015625,-109.32495
1766813019835,-0.9375,0.20996094,-0.2524414,-2.9296875,-1.159668,-0.18310547,0.0,0.0,0.0,144.43726,71.015625,-109.32495
1766813019846,-0.9375,0.20996094,-0.2524414,-2.9296875,-1.159668,-0.18310547,0.0,0.0,0.0,144.47021,71.04309,-109.06128
1766813019934,-0.9506836,0.19140625,-0.25878906,-1.7089844,-2.1972656,0.8544922,0.0,0.0,0.0,144.47021,71.04309,-109.06128
1766813019946,-0.9506836,0.19140625,-0.25878906,-1.7089844,-2.1972656,0.8544922,0.0,0.0,0.0,143.64624,71.19141,-109.65454
1766813020034,-0.9501953,0.1899414,-0.25390625,-2.8076172,-0.79345703,0.61035156,0.0,0.0,0.0,143.64624,71.19141,-109.65454
1766813020046,-0.9501953,0.1899414,-0.25390625,-2.8076172,-0.79345703,0.61035156,0.0,0.0,0.0,142.66296,71.30127,-110.35217
1766813020134,-0.95410156,0.2055664,-0.24316406,-2.9907227,-1.8920898,0.0,0.0,0.0,0.0,142.66296,71.30127,-110.35217
1766813020145,-0.95410156,0.2055664,-0.24316406,-2.9907227,-1.8920898,0.0,0.0,0.0,0.0,142.05322,71.38367,-110.720215
1766813020234,-0.9472656,0.20410156,-0.23925781,-2.319336,-1.2207031,0.36621094,0.0,0.0,0.0,142.05322,71.38367,-110.720215
1766813020245,-0.9472656,0.20410156,-0.23925781,-2.319336,-1.2207031,0.36621094,0.0,0.0,0.0,141.2732,71.47156,-111.18713
1766813020333,-0.9589844,0.19335938,-0.23925781,-3.1738281,-1.2817383,0.4272461,0.0,0.0,0.0,141.2732,71.47156,-111.18713
1766813020345,-0.9589844,0.19335938,-0.23925781,-3.1738281,-1.2817383,0.4272461,0.0,0.0,0.0,140.79529,71.55945,-111.450806
1766813020433,-0.94873047,0.21044922,-0.24951172,0.61035156,2.1972656,-0.36621094,0.0,0.0,0.0,140.79529,71.55945,-111.450806
1766813020444,-0.94873047,0.21044922,-0.24951172,0.61035156,2.1972656,-0.36621094,0.0,0.0,0.0,141.28967,71.482544,-110.92346
1766813020533,-0.9458008,0.21826172,-0.23339844,3.4179688,0.91552734,-0.79345703,0.0,0.0,0.0,141.28967,71.482544,-110.92346
1766813020544,-0.9458008,0.21826172,-0.23339844,3.4179688,0.91552734,-0.79345703,0.0,0.0,0.0,141.52039,71.40015,-110.687256
1766813020632,-0.9536133,0.18896484,-0.25732422,3.540039,2.4414062,-0.7324219,0.0,0.0,0.0,141.52039,71.40015,-110.687256
1766813020644,-0.9536133,0.18896484,-0.25732422,3.540039,2.4414062,-0.7324219,0.0,0.0,0.0,142.2345,71.33423,-110.181885
1766813020732,-0.95458984,0.19433594,-0.25146484,2.8686523,1.7089844,-0.7324219,0.0,0.0,0.0,142.2345,71.33423,-110.181885
1766813020744,-0.95458984,0.19433594,-0.25146484,2.8686523,1.7089844,-0.7324219,0.0,0.0,0.0,143.05298,71.21887,-109.54468
1766813020832,-0.96875,0.21191406,-0.2368164,0.6713867,3.1738281,6.1035156,0.0,0.0,0.0,143.05298,71.21887,-109.54468
1766813020843,-0.96875,0.21191406,-0.2368164,0.6713867,3.1738281,6.1035156,0.0,0.0,0.0,142.89368,70.90027,-109.79187
1766813020932,-0.90185547,0.18408203,-0.28271484,-0.9765625,-2.6855469,0.5493164,0.0,0.0,0.0,142.89368,70.90027,-109.79187
1766813020943,-0.90185547,0.18408203,-0.28271484,-0.9765625,-2.6855469,0.5493164,0.0,0.0,0.0,142.26746,70.4718,-110.53894
1766813021031,-0.96777344,0.20507812,-0.2529297,-0.12207031,1.4648438,-1.6479492,0.0,0.0,0.0,142.26746,70.4718,-110.53894
1766813021043,-0.96777344,0.20507812,-0.2529297,-0.12207031,1.4648438,-1.6479492,0.0,0.0,0.0,142.43225,70.686035,-110.3302
1766813021131,-0.94189453,0.21826172,-0.25048828,-0.061035156,-0.24414062,2.5634766,0.0,0.0,0.0,142.43225,70.686035,-110.3302
1766813021142,-0.94189453,0.21826172,-0.25048828,-0.061035156,-0.24414062,2.5634766,0.0,0.0,0.0,142.0697,70.55969,-110.736694
1766813021231,-0.9243164,0.20458984,-0.27685547,1.5869141,1.8920898,-0.36621094,0.0,0.0,0.0,142.0697,70.55969,-110.736694
1766813021242,-0.9243164,0.20458984,-0.27685547,1.5869141,1.8920898,-0.36621094,0.0,0.0,0.0,142.12463,70.41687,-110.71472
1766813021331,-0.9760742,0.21435547,-0.24267578,-1.4038086,1.5869141,-1.7700195,0.0,0.0,0.0,142.12463,70.41687,-110.71472
1766813021342,-0.9760742,0.21435547,-0.24267578,-1.4038086,1.5869141,-1.7700195,0.0,0.0,0.0,141.93237,70.62561,-110.76416
1766813021430,-0.9506836,0.2084961,-0.2705078,1.5869141,0.6713867,2.4414062,0.0,0.0,0.0,141.93237,70.62561,-110.76416
1766813021442,-0.9506836,0.2084961,-0.2705078,1.5869141,0.6713867,2.4414062,0.0,0.0,0.0,142.17407,70.3949,-110.57739
1766813021530,-0.9091797,0.203125,-0.2836914,-1.0986328,-1.7089844,-1.2207031,0.0,0.0,0.0,142.17407,70.3949,-110.57739
1766813021541,-0.9091797,0.203125,-0.2836914,-1.0986328,-1.7089844,-1.2207031,0.0,0.0,0.0,142.43774,70.30151,-110.37964
1766813021629,-0.96777344,0.20800781,-0.24853516,-0.36621094,-2.8686523,-3.2348633,0.0,0.0,0.0,142.43774,70.30151,-110.37964
1766813021641,-0.96777344,0.20800781,-0.24853516,-0.36621094,-2.8686523,-3.2348633,0.0,0.0,0.0,142.52014,70.718994,-110.23132
1766813021729,-0.9482422,0.19726562,-0.2602539,1.4648438,1.4648438,-0.61035156,0.0,0.0,0.0,142.52014,70.718994,-110.23132
1766813021741,-0.9482422,0.19726562,-0.2602539,1.4648438,1.4648438,-0.61035156,0.0,0.0,0.0,142.99255,70.86182,-109.835815
1766813021829,-0.95996094,0.2241211,-0.24951172,-2.8076172,3.1738281,4.8217773,0.0,0.0,0.0,142.99255,70.86182,-109.835815
1766813021841,-0.95996094,0.2241211,-0.24951172,-2.8076172,3.1738281,4.8217773,0.0,0.0,0.0,142.7124,70.59265,-109.96765
1766813021929,-0.9423828,0.20507812,-0.2529297,-2.1972656,1.6479492,4.8828125,0.0,0.0,0.0,142.7124,70.59265,-109.96765
1766813021940,-0.9423828,0.20507812,-0.2529297,-2.1972656,1.6479492,4.8828125,0.0,0.0,0.0,141.5039,70.02136,-111.02783
1766813022028,-0.95166016,0.17382812,-0.26660156,-3.7841797,-7.385254,-4.3945312,0.0,0.0,0.0,141.5039,70.02136,-111.02783
1766813022040,-0.95166016,0.17382812,-0.26660156,-3.7841797,-7.385254,-4.3945312,0.0,0.0,0.0,141.5149,70.30151,-111.11572
1766813022128,-0.94921875,0.24853516,-0.25390625,2.380371,3.540039,1.2207031,0.0,0.0,0.0,141.5149,70.30151,-111.11572
1766813022140,-0.94921875,0.24853516,-0.25390625,2.380371,3.540039,1.2207031,0.0,0.0,0.0,142.32239,70.35095,-110.23682
1766813022228,-0.9345703,0.21826172,-0.25585938,0.12207031,-2.1972656,0.5493164,0.0,0.0,0.0,142.32239,70.35095,-110.23682
1766813022239,-0.9345703,0.21826172,-0.25585938,0.12207031,-2.1972656,0.5493164,0.0,0.0,0.0,141.76208,70.24658,-110.78613
1766813022327,-0.9370117,0.19677734,-0.2890625,2.8686523,2.0751953,-2.1972656,0.0,0.0,0.0,141.76208,70.24658,-110.78613
1766813022339,-0.9370117,0.19677734,-0.2890625,2.8686523,2.0751953,-2.1972656,0.0,0.0,0.0,142.44324,70.24658,-110.20935
1766813022427,-0.94140625,0.19921875,-0.27539062,-1.2817383,-0.79345703,-2.4414062,0.0,0.0,0.0,142.44324,70.24658,-110.20935
1766813022439,-0.94140625,0.19921875,-0.27539062,-1.2817383,-0.79345703,-2.4414062,0.0,0.0,0.0,142.92664,70.41138,-109.78638
1766813022527,-0.9589844,0.22070312,-0.2319336,-0.6713867,-0.5493164,-3.112793,0.0,0.0,0.0,142.92664,70.41138,-109.78638
1766813022539,-0.9589844,0.22070312,-0.2319336,-0.6713867,-0.5493164,-3.112793,0.0,0.0,0.0,143.23425,70.75745,-109.4458
1766813022627,-0.9428711,0.19677734,-0.28320312,2.5024414,-1.8310547,0.4272461,0.0,0.0,0.0,143.23425,70.75745,-109.4458
1766813022638,-0.9428711,0.19677734,-0.28320312,2.5024414,-1.8310547,0.4272461,0.0,0.0,0.0,143.66821,70.77942,-108.97339
1766813022726,-0.96435547,0.20166016,-0.2578125,-3.0517578,1.7700195,1.7089844,0.0,0.0,0.0,143.66821,70.77942,-108.97339
1766813022738,-0.96435547,0.20166016,-0.2578125,-3.0517578,1.7700195,1.7089844,0.0,0.0,0.0,143.26172,70.83984,-109.313965
1766813022826,-0.9716797,0.2319336,-0.25683594,-3.90625,-0.18310547,14.953613,0.0,0.0,0.0,143.26172,70.83984,-109.313965
1766813022838,-0.9716797,0.2319336,-0.25683594,-3.90625,-0.18310547,14.953613,0.0,0.0,0.0,141.04248,70.252075,-111.20361
1766813022926,-0.9067383,0.1928711,-0.2919922,0.061035156,1.5869141,0.7324219,0.0,0.0,0.0,141.04248,70.252075,-111.20361
1766813022938,-0.9067383,0.1928711,-0.2919922,0.061035156,1.5869141,0.7324219,0.0,0.0,0.0,139.62524,69.625854,-112.60986
1766813023025,-0.94091797,0.22802734,-0.27246094,-0.061035156,-1.7700195,-6.164551,0.0,0.0,0.0,139.62524,69.625854,-112.60986
1766813023038,-0.94091797,0.22802734,-0.27246094,-0.061035156,-1.7700195,-6.164551,0.0,0.0,0.0,141.01501,69.834595,-111.571655
1766813023125,-0.9560547,0.21826172,-0.2626953,2.0751953,-1.0375977,-1.3427734,0.0,0.0,0.0,141.01501,69.834595,-111.571655
1766813023137,-0.9560547,0.21826172,-0.2626953,2.0751953,-1.0375977,-1.3427734,0.0,0.0,0.0,141.77307,70.08179,-110.791626
1766813023225,-0.92529297,0.20166016,-0.27294922,2.8686523,-1.4038086,-6.164551,0.0,0.0,0.0,141.77307,70.08179,-110.791626
1766813023237,-0.92529297,0.20166016,-0.27294922,2.8686523,-1.4038086,-6.164551,0.0,0.0,0.0,142.41028,70.372925,-110.41809
1766813023325,-0.96728516,0.2084961,-0.24951172,-2.319336,-2.0751953,-3.9672852,0.0,0.0,0.0,142.41028,70.372925,-110.41809
1766813023337,-0.96728516,0.2084961,-0.24951172,-2.319336,-2.0751953,-3.9672852,0.0,0.0,0.0,143.65173,70.83435,-109.105225
1766813023424,-0.9477539,0.2055664,-0.25146484,0.7324219,-1.4038086,0.36621094,0.0,0.0,0.0,143.65173,70.83435,-109.105225
1766813023436,-0.9477539,0.2055664,-0.25146484,0.7324219,-1.4038086,0.36621094,0.0,0.0,0.0,143.5144,70.982666,-109.05029
1766813023524,-0.9501953,0.18798828,-0.26416016,0.24414062,-0.4272461,-0.79345703,0.0,0.0,0.0,143.5144,70.982666,-109.05029
1766813023535,-0.9501953,0.18798828,-0.26416016,0.24414062,-0.4272461,-0.79345703,0.0,0.0,0.0,143.3551,71.048584,-109.18213
1766813023624,-0.94921875,0.19482422,-0.2553711,-0.79345703,-0.36621094,-0.12207031,0.0,0.0,0.0,143.3551,71.048584,-109.18213
1766813023635,-0.94921875,0.19482422,-0.2553711,-0.79345703,-0.36621094,-0.12207031,0.0,0.0,0.0,143.45398,71.07605,-109.06677
1766813023723,-0.9482422,0.20117188,-0.25195312,-0.48828125,-1.6479492,-0.5493164,0.0,0.0,0.0,143.45398,71.07605,-109.06677
1766813023735,-0.9482422,0.20117188,-0.25195312,-0.48828125,-1.6479492,-0.5493164,0.0,0.0,0.0,143.25623,71.14746,-109.2041
1766813023823,-0.9609375,0.1928711,-0.2524414,0.48828125,0.9765625,0.0,0.0,0.0,0.0,143.25623,71.14746,-109.2041
1766813023835,-0.9609375,0.1928711,-0.2524414,0.48828125,0.9765625,0.0,0.0,0.0,0.0,143.1189,71.21887,-109.281006
1766813023923,-0.94384766,0.19580078,-0.25976562,0.0,1.2817383,0.24414062,0.0,0.0,0.0,143.1189,71.21887,-109.281006
1766813023934,-0.94384766,0.19580078,-0.25976562,0.0,1.2817383,0.24414062,0.0,0.0,0.0,143.31665,71.103516,-109.105225
1766813024023,-0.953125,0.19726562,-0.2553711,0.36621094,0.8544922,-0.36621094,0.0,0.0,0.0,143.31665,71.103516,-109.105225
1766813024034,-0.953125,0.19726562,-0.2553711,0.36621094,0.8544922,-0.36621094,0.0,0.0,0.0,143.38257,71.06506,-109.017334
1766813024122,-0.94677734,0.20166016,-0.2602539,-0.18310547,0.36621094,0.7324219,0.0,0.0,0.0,143.38257,71.06506,-109.017334
1766813024134,-0.94677734,0.20166016,-0.2602539,-0.18310547,0.36621094,0.7324219,0.0,0.0,0.0,143.45947,71.01013,-108.912964
1766813024222,-0.9550781,0.1928711,-0.2631836,-0.30517578,-0.36621094,0.061035156,0.0,0.0,0.0,143.45947,71.01013,-108.912964
1766813024234,-0.9550781,0.1928711,-0.2631836,-0.30517578,-0.36621094,0.061035156,0.0,0.0,0.0,143.25073,70.98816,-109.09424
1766813024322,-0.9477539,0.19677734,-0.26123047,-1.4038086,0.48828125,0.5493164,0.0,0.0,0.0,143.25073,70.98816,-109.09424
1766813024333,-0.9477539,0.19677734,-0.26123047,-1.4038086,0.48828125,0.5493164,0.0,0.0,0.0,143.12439,70.96069,-109.176636
1766813024421,-0.94628906,0.21142578,-0.25146484,-0.61035156,0.0,0.5493164,0.0,0.0,0.0,143.12439,70.96069,-109.176636
1766813024433,-0.94628906,0.21142578,-0.25146484,-0.61035156,0.0,0.5493164,0.0,0.0,0.0,142.93762,70.90027,-109.24805
1766813024521,-0.95654297,0.1928711,-0.26416016,-0.18310547,0.061035156,0.91552734,0.0,0.0,0.0,142.93762,70.90027,-109.24805
1766813024533,-0.95654297,0.1928711,-0.26416016,-0.18310547,0.061035156,0.91552734,0.0,0.0,0.0,142.69043,70.84534,-109.451294
1766813024621,-0.9379883,0.20507812,-0.25976562,-0.7324219,1.0375977,0.4272461,0.0,0.0,0.0,142.69043,70.84534,-109.451294
1766813024632,-0.9379883,0.20507812,-0.25976562,-0.7324219,1.0375977,0.4272461,0.0,0.0,0.0,142.6355,70.75745,-109.48425
1766813024721,-0.9482422,0.21679688,-0.24951172,-0.24414062,0.0,0.79345703,0.0,0.0,0.0,142.6355,70.75745,-109.48425
1766813024732,-0.9482422,0.21679688,-0.24951172,-0.24414062,0.0,0.79345703,0.0,0.0,0.0,142.51465,70.653076,-109.51172
1766813024820,-0.94433594,0.18847656,-0.26611328,0.5493164,0.0,0.4272461,0.0,0.0,0.0,142.51465,70.653076,-109.51172
1766813024832,-0.94433594,0.18847656,-0.26611328,0.5493164,0.0,0.4272461,0.0,0.0,0.0,142.35535,70.614624,-109.6875
1766813024920,-0.9501953,0.20361328,-0.2548828,-1.2817383,0.061035156,-0.30517578,0.0,0.0,0.0,142.35535,70.614624,-109.6875
1766813024932,-0.9501953,0.20361328,-0.2548828,-1.2817383,0.061035156,-0.30517578,0.0,0.0,0.0,142.36633,70.60364,-109.6875
1766813025020,-0.9370117,0.22021484,-0.2529297,0.8544922,-0.12207031,-0.7324219,0.0,0.0,0.0,142.36633,70.60364,-109.6875
1766813025031,-0.9370117,0.22021484,-0.2529297,0.8544922,-0.12207031,-0.7324219,0.0,0.0,0.0,142.54211,70.60913,-109.46228
1766813025119,-0.9526367,0.2006836,-0.26123047,0.9765625,-1.0986328,-0.8544922,0.0,0.0,0.0,142.54211,70.60913,-109.46228
1766813025131,-0.9526367,0.2006836,-0.26123047,0.9765625,-1.0986328,-0.8544922,0.0,0.0,0.0,142.69043,70.67505,-109.31946
1766813025219,-0.95947266,0.1796875,-0.2763672,0.061035156,-0.4272461,-0.61035156,0.0,0.0,0.0,142.69043,70.67505,-109.31946
1766813025231,-0.95947266,0.1796875,-0.2763672,0.061035156,-0.4272461,-0.61035156,0.0,0.0,0.0,142.7179,70.773926,-109.37439
1766813025319,-0.9428711,0.21972656,-0.24707031,-1.3427734,0.18310547,-1.159668,0.0,0.0,0.0,142.7179,70.773926,-109.37439
1766813025331,-0.9428711,0.21972656,-0.24707031,-1.3427734,0.18310547,-1.159668,0.0,0.0,0.0,143.15186,70.7959,-108.92395
1766813025419,-0.9482422,0.20703125,-0.2548828,1.953125,-0.48828125,-0.30517578,0.0,0.0,0.0,143.15186,70.7959,-108.92395
1766813025431,-0.9482422,0.20703125,-0.2548828,1.953125,-0.48828125,-0.30517578,0.0,0.0,0.0,143.15186,70.86731,-108.89099
1766813025518,-0.95410156,0.1821289,-0.27539062,0.0,0.061035156,-0.30517578,0.0,0.0,0.0,143.15186,70.86731,-108.89099
1766813025531,-0.95410156,0.1821289,-0.27539062,0.0,0.061035156,-0.30517578,0.0,0.0,0.0,143.20679,70.88928,-108.8855
1766813025618,-0.9423828,0.20898438,-0.24902344,0.0,-0.48828125,-0.36621094,0.0,0.0,0.0,143.20679,70.88928,-108.8855
1766813025629,-0.9423828,0.20898438,-0.24902344,0.0,-0.48828125,-0.36621094,0.0,0.0,0.0,143.29468,70.894775,-108.79761
1766813025718,-0.95703125,0.18310547,-0.26416016,-0.9765625,0.061035156,-0.12207031,0.0,0.0,0.0,143.29468,70.894775,-108.79761
1766813025729,-0.95703125,0.18310547,-0.26416016,-0.9765625,0.061035156,-0.12207031,0.0,0.0,0.0,143.2727,70.94971,-108.75366
1766813025817,-0.9448242,0.21582031,-0.24804688,-0.061035156,-0.24414062,-0.61035156,0.0,0.0,0.0,143.2727,70.94971,-108.75366
1766813025829,-0.9448242,0.21582031,-0.24804688,-0.061035156,-0.24414062,-0.61035156,0.0,0.0,0.0,143.24524,70.93323,-108.75366
1766813025917,-0.95996094,0.19238281,-0.26757812,1.3427734,0.061035156,-0.7324219,0.0,0.0,0.0,143.24524,70.93323,-108.75366
1766813025929,-0.95996094,0.19238281,-0.26757812,1.3427734,0.061035156,-0.7324219,0.0,0.0,0.0,143.42102,70.97717,-108.60535
1766813026017,-0.9423828,0.19677734,-0.25878906,-0.48828125,0.061035156,-0.18310547,0.0,0.0,0.0,143.42102,70.97717,-108.60535
1766813026028,-0.9423828,0.19677734,-0.25878906,-0.48828125,0.061035156,-0.18310547,0.0,0.0,0.0,143.60779,70.93872,-108.44055
1766813026117,-0.95410156,0.19238281,-0.25927734,0.12207031,-0.30517578,-0.18310547,0.0,0.0,0.0,143.60779,70.93872,-108.44055
1766813026128,-0.95410156,0.19238281,-0.25927734,0.12207031,-0.30517578,-0.18310547,0.0,0.0,0.0,143.63525,70.97717,-108.39111
1766813026216,-0.9472656,0.19677734,-0.2626953,-0.4272461,0.0,-0.12207031,0.0,0.0,0.0,143.63525,70.97717,-108.39111
1766813026228,-0.9472656,0.19677734,-0.2626953,-0.4272461,0.0,-0.12207031,0.0,0.0,0.0,143.65173,70.96619,-108.38562
1766813026316,-0.9482422,0.20214844,-0.25341797,0.24414062,0.061035156,-0.24414062,0.0,0.0,0.0,143.65173,70.96619,-108.38562
1766813026327,-0.9482422,0.20214844,-0.25341797,0.24414062,0.061035156,-0.24414062,0.0,0.0,0.0,143.6792,70.97168,-108.31421
1766813026416,-0.9501953,0.18896484,-0.26513672,0.18310547,0.0,0.061035156,0.0,0.0,0.0,143.6792,70.97168,-108.31421
1766813026427,-0.9501953,0.18896484,-0.26513672,0.18310547,0.0,0.061035156,0.0,0.0,0.0,143.71216,70.96619,-108.28674
1766813026515,-0.9458008,0.19580078,-0.25976562,-0.12207031,0.0,-0.18310547,0.0,0.0,0.0,143.71216,70.96619,-108.28674
1766813026527,-0.9458008,0.19580078,-0.25976562,-0.12207031,0.0,-0.18310547,0.0,0.0,0.0,143.72864,70.9552,-108.27576
1766813026615,-0.94921875,0.19677734,-0.2548828,-0.24414062,0.0,0.0,0.0,0.0,0.0,143.72864,70.9552,-108.27576
1766813026627,-0.94921875,0.19677734,-0.2548828,-0.24414062,0.0,0.0,0.0,0.0,0.0,143.73962,70.96069,-108.237305
1766813026715,-0.95166016,0.19628906,-0.2578125,0.0,-0.48828125,0.0,0.0,0.0,0.0,143.73962,70.96069,-108.237305
1766813026726,-0.95166016,0.19628906,-0.2578125,0.0,-0.48828125,0.0,0.0,0.0,0.0,143.63525,70.96619,-108.325195
1766813026815,-0.94873047,0.19580078,-0.2626953,0.24414062,0.12207031,-0.30517578,0.0,0.0,0.0,143.63525,70.96619,-108.325195
1766813026826,-0.94873047,0.19580078,-0.2626953,0.24414062,0.12207031,-0.30517578,0.0,0.0,0.0,143.7616,70.96069,-108.220825
1766813026914,-0.94873047,0.19580078,-0.26123047,-0.061035156,0.0,-0.18310547,0.0,0.0,0.0,143.7616,70.96069,-108.220825
1766813026926,-0.94873047,0.19580078,-0.26123047,-0.061035156,0.0,-0.18310547,0.0,0.0,0.0,143.80554,70.9552,-108.17139
1766813027014,-0.9477539,0.19384766,-0.26123047,-0.24414062,-0.18310547,-0.18310547,0.0,0.0,0.0,143.80554,70.9552,-108.17139
1766813027025,-0.9477539,0.19384766,-0.26123047,-0.24414062,-0.18310547,-0.18310547,0.0,0.0,0.0,143.82202,70.96069,-108.132935
1766813027114,-0.95166016,0.20019531,-0.25830078,-0.24414062,0.0,0.18310547,0.0,0.0,0.0,143.82202,70.96069,-108.132935
1766813027125,-0.95166016,0.20019531,-0.25830078,-0.24414062,0.0,0.18310547,0.0,0.0,0.0,143.80554,70.96619,-108.116455
1766813027213,-0.9477539,0.19677734,-0.26220703,-0.18310547,0.061035156,0.30517578,0.0,0.0,0.0,143.80554,70.96619,-108.116455
1766813027225,-0.9477539,0.19677734,-0.26220703,-0.18310547,0.061035156,0.30517578,0.0,0.0,0.0,143.69019,70.92224,-108.19336
1766813027313,-0.94873047,0.19677734,-0.26123047,-0.5493164,0.061035156,0.7324219,0.0,0.0,0.0,143.69019,70.92224,-108.19336
1766813027325,-0.94873047,0.19677734,-0.26123047,-0.5493164,0.061035156,0.7324219,0.0,0.0,0.0,143.5144,70.88379,-108.31421
1766813027413,-0.9472656,0.19921875,-0.26220703,-0.7324219,0.48828125,0.6713867,0.0,0.0,0.0,143.5144,70.88379,-108.31421
1766813027425,-0.9472656,0.19921875,-0.26220703,-0.7324219,0.48828125,0.6713867,0.0,0.0,0.0,143.37158,70.81238,-108.40759
1766813027512,-0.94873047,0.20214844,-0.26171875,-0.5493164,0.061035156,0.48828125,0.0,0.0,0.0,143.37158,70.81238,-108.40759
1766813027524,-0.94873047,0.20214844,-0.26171875,-0.5493164,0.061035156,0.48828125,0.0,0.0,0.0,143.1189,70.74646,-108.57788
1766813027612,-0.9423828,0.20507812,-0.25976562,-0.6713867,-0.5493164,0.7324219,0.0,0.0,0.0,143.1189,70.74646,-108.57788
1766813027624,-0.9423828,0.20507812,-0.25976562,-0.6713867,-0.5493164,0.7324219,0.0,0.0,0.0,142.98157,70.686035,-108.66577
1766813027712,-0.9423828,0.20410156,-0.2607422,-0.18310547,0.4272461,0.5493164,0.0,0.0,0.0,142.98157,70.686035,-108.66577
1766813027724,-0.9423828,0.20410156,-0.2607422,-0.18310547,0.4272461,0.5493164,0.0,0.0,0.0,142.88269,70.6366,-108.73718
1766813027812,-0.94677734,0.203125,-0.2626953,-0.4272461,0.30517578,0.4272461,0.0,0.0,0.0,142.88269,70.6366,-108.73718
1766813027823,-0.94677734,0.203125,-0.2626953,-0.4272461,0.30517578,0.4272461,0.0,0.0,0.0,142.72888,70.57617,-108.85254
1766813027911,-0.94433594,0.20751953,-0.26171875,-0.4272461,0.061035156,0.30517578,0.0,0.0,0.0,142.72888,70.57617,-108.85254
1766813027923,-0.94433594,0.20751953,-0.26171875,-0.4272461,0.061035156,0.30517578,0.0,0.0,0.0,142.61902,70.53223,-108.90747
1766813028011,-0.94433594,0.20507812,-0.2607422,-0.4272461,0.061035156,0.0,0.0,0.0,0.0,142.61902,70.53223,-108.90747
1766813028022,-0.94433594,0.20507812,-0.2607422,-0.4272461,0.061035156,0.0,0.0,0.0,0.0,142.52563,70.50476,-108.94043
1766813028111,-0.94433594,0.20605469,-0.26171875,-0.18310547,-0.061035156,-0.30517578,0.0,0.0,0.0,142.52563,70.50476,-108.94043
1766813028122,-0.94433594,0.20605469,-0.26171875,-0.18310547,-0.061035156,-0.30517578,0.0,0.0,0.0,142.52563,70.49927,-108.90198
1766813028210,-0.9448242,0.20800781,-0.2607422,0.18310547,0.0,-0.6713867,0.0,0.0,0.0,142.52563,70.49927,-108.90198
1766813028222,-0.9448242,0.20800781,-0.2607422,0.18310547,0.0,-0.6713867,0.0,0.0,0.0,142.60803,70.52124,-108.79761
1766813028310,-0.9453125,0.20410156,-0.26220703,0.61035156,-0.18310547,-0.79345703,0.0,0.0,0.0,142.60803,70.52124,-108.79761
1766813028322,-0.9453125,0.20410156,-0.26220703,0.61035156,-0.18310547,-0.79345703,0.0,0.0,0.0,142.78381,70.565186,-108.61633
1766813028410,-0.9477539,0.20117188,-0.26367188,0.48828125,-0.4272461,-0.91552734,0.0,0.0,0.0,142.78381,70.565186,-108.61633
1766813028422,-0.9477539,0.20117188,-0.26367188,0.48828125,-0.4272461,-0.91552734,0.0,0.0,0.0,142.92664,70.62012,-108.48999
1766813028510,-0.9453125,0.20605469,-0.25927734,0.18310547,-0.91552734,-0.6713867,0.0,0.0,0.0,142.92664,70.62012,-108.48999
1766813028521,-0.9453125,0.20605469,-0.25927734,0.18310547,-0.91552734,-0.6713867,0.0,0.0,0.0,143.031,70.67505,-108.39661
1766813028609,-0.9433594,0.19873047,-0.26171875,0.5493164,-0.4272461,-0.9765625,0.0,0.0,0.0,143.031,70.67505,-108.39661
1766813028621,-0.9433594,0.19873047,-0.26171875,0.5493164,-0.4272461,-0.9765625,0.0,0.0,0.0,143.21777,70.73547,-108.220825
1766813028709,-0.9506836,0.20166016,-0.2607422,0.061035156,-0.061035156,-0.6713867,0.0,0.0,0.0,143.21777,70.73547,-108.220825
1766813028720,-0.9506836,0.20166016,-0.2607422,0.061035156,-0.061035156,-0.6713867,0.0,0.0,0.0,143.33313,70.806885,-108.10547
1766813028809,-0.9482422,0.20019531,-0.2602539,0.8544922,-0.061035156,-0.48828125,0.0,0.0,0.0,143.33313,70.806885,-108.10547
1766813028820,-0.9482422,0.20019531,-0.2602539,0.8544922,-0.061035156,-0.48828125,0.0,0.0,0.0,143.44849,70.823364,-107.979126
1766813028908,-0.9477539,0.19580078,-0.26220703,0.18310547,0.0,-0.36621094,0.0,0.0,0.0,143.44849,70.823364,-107.979126
1766813028920,-0.9477539,0.19580078,-0.26220703,0.18310547,0.0,-0.36621094,0.0,0.0,0.0,143.50891,70.84534,-107.92969
1766813029008,-0.94970703,0.19677734,-0.26123047,0.18310547,0.061035156,-0.36621094,0.0,0.0,0.0,143.50891,70.84534,-107.92969
1766813029020,-0.94970703,0.19677734,-0.26123047,0.18310547,0.061035156,-0.36621094,0.0,0.0,0.0,143.5968,70.85632,-107.8418
1766813029108,-0.9472656,0.19824219,-0.2607422,0.061035156,0.0,-0.18310547,0.0,0.0,0.0,143.5968,70.85632,-107.8418
1766813029119,-0.9472656,0.19824219,-0.2607422,0.061035156,0.0,-0.18310547,0.0,0.0,0.0,143.64075,70.86182,-107.79236
1766813029207,-0.9482422,0.19628906,-0.26123047,0.0,0.0,-0.18310547,0.0,0.0,0.0,143.64075,70.86182,-107.79236
1766813029219,-0.9482422,0.19628906,-0.26123047,0.0,0.0,-0.18310547,0.0,0.0,0.0,143.6737,70.86182,-107.74292
1766813029307,-0.94921875,0.19677734,-0.26220703,0.0,0.0,-0.061035156,0.0,0.0,0.0,143.6737,70.86182,-107.74292
1766813029319,-0.94921875,0.19677734,-0.26220703,0.0,0.0,-0.061035156,0.0,0.0,0.0,143.6847,70.86182,-107.72095
1766813029407,-0.9472656,0.19580078,-0.26513672,0.18310547,0.18310547,-0.061035156,0.0,0.0,0.0,143.6847,70.86182,-107.72095
1766813029418,-0.9472656,0.19580078,-0.26513672,0.18310547,0.18310547,-0.061035156,0.0,0.0,0.0,143.74512,70.85083,-107.65503
1766813029507,-0.9477539,0.19628906,-0.26123047,0.30517578,0.4272461,-0.30517578,0.0,0.0,0.0,143.74512,70.85083,-107.65503
1766813029519,-0.9477539,0.19628906,-0.26123047,0.30517578,0.4272461,-0.30517578,0.0,0.0,0.0,143.74512,70.85632,-107.649536
1766813029607,-0.9482422,0.19726562,-0.26220703,0.18310547,0.0,-0.24414062,0.0,0.0,0.0,143.74512,70.85632,-107.649536
1766813029619,-0.9482422,0.19726562,-0.26220703,0.18310547,0.0,-0.24414062,0.0,0.0,0.0,143.844,70.86182,-107.55615
1766813029706,-0.9482422,0.1953125,-0.2626953,0.061035156,-0.061035156,-0.12207031,0.0,0.0,0.0,143.844,70.86182,-107.55615
1766813029719,-0.9482422,0.1953125,-0.2626953,0.061035156,-0.061035156,-0.12207031,0.0,0.0,0.0,143.86597,70.86731,-107.52319
1766813029806,-0.94921875,0.19482422,-0.2631836,-0.12207031,-0.12207031,-0.18310547,0.0,0.0,0.0,143.86597,70.86731,-107.52319
1766813029817,-0.94921875,0.19482422,-0.2631836,-0.12207031,-0.12207031,-0.18310547,0.0,0.0,0.0,143.86047,70.88379,-107.5177
1766813029905,-0.94873047,0.19677734,-0.26171875,0.0,0.0,-0.12207031,0.0,0.0,0.0,143.86047,70.88379,-107.5177
1766813029917,-0.94873047,0.19677734,-0.26171875,0.0,0.0,-0.12207031,0.0,0.0,0.0,143.89893,70.878296,-107.46826
1766813030005,-0.9482422,0.19580078,-0.26220703,0.061035156,0.0,-0.12207031,0.0,0.0,0.0,143.89893,70.878296,-107.46826
1766813030017,-0.9482422,0.19580078,-0.26220703,0.061035156,0.0,-0.12207031,0.0,0.0,0.0,143.90991,70.8728,-107.44629
1766813030105,-0.9482422,0.19482422,-0.26123047,0.0,0.0,0.0,0.0,0.0,0.0,143.90991,70.8728,-107.44629
1766813030116,-0.9482422,0.19482422,-0.26123047,0.0,0.0,0.0,0.0,0.0,0.0,143.92639,70.86731,-107.41882
1766813030205,-0.9482422,0.19482422,-0.26367188,-0.061035156,0.0,0.0,0.0,0.0,0.0,143.92639,70.86731,-107.41882
1766813030216,-0.9482422,0.19482422,-0.26367188,-0.061035156,0.0,0.0,0.0,0.0,0.0,143.9209,70.85632,-107.41882
1766813030304,-0.94873047,0.19433594,-0.2626953,0.061035156,0.30517578,0.0,0.0,0.0,0.0,143.9209,70.85632,-107.41882
1766813030316,-0.94873047,0.19433594,-0.2626953,0.061035156,0.30517578,0.0,0.0,0.0,0.0,143.93188,70.84534,-107.40784
1766813030404,-0.95214844,0.19384766,-0.26220703,-0.12207031,0.30517578,0.0,0.0,0.0,0.0,143.93188,70.84534,-107.40784
1766813030416,-0.95214844,0.19384766,-0.26220703,-0.12207031,0.30517578,0.0,0.0,0.0,0.0,143.89343,70.83984,-107.42432
1766813030504,-0.94677734,0.19921875,-0.26171875,0.18310547,0.18310547,-0.18310547,0.0,0.0,0.0,143.89343,70.83984,-107.42432
1766813030515,-0.94677734,0.19921875,-0.26171875,0.18310547,0.18310547,-0.18310547,0.0,0.0,0.0,143.9978,70.823364,-107.31445
1766813030603,-0.9511719,0.19238281,-0.2709961,-0.36621094,-0.061035156,-0.12207031,0.0,0.0,0.0,143.9978,70.823364,-107.31445
1766813030615,-0.9511719,0.19238281,-0.2709961,-0.36621094,-0.061035156,-0.12207031,0.0,0.0,0.0,143.9209,70.84534,-107.36389
1766813030703,-0.95214844,0.203125,-0.25732422,0.0,-0.4272461,0.061035156,0.0,0.0,0.0,143.9209,70.84534,-107.36389
1766813030715,-0.95214844,0.203125,-0.25732422,0.0,-0.4272461,0.061035156,0.0,0.0,0.0,143.94287,70.85632,-107.31445
1766813030803,-0.94921875,0.18945312,-0.26904297,-0.4272461,-0.30517578,0.48828125,0.0,0.0,0.0,143.94287,70.85632,-107.31445
1766813030814,-0.94921875,0.18945312,-0.26904297,-0.4272461,-0.30517578,0.48828125,0.0,0.0,0.0,143.81104,70.83984,-107.41882
1766813030903,-0.9501953,0.1977539,-0.26171875,-1.5258789,-0.30517578,0.24414062,0.0,0.0,0.0,143.81104,70.83984,-107.41882
1766813030914,-0.9501953,0.1977539,-0.26171875,-1.5258789,-0.30517578,0.24414062,0.0,0.0,0.0,143.60779,70.823364,-107.53967
1766813031002,-0.94433594,0.20507812,-0.25390625,-0.4272461,-0.12207031,0.7324219,0.0,0.0,0.0,143.60779,70.823364,-107.53967
1766813031014,-0.94433594,0.20507812,-0.25390625,-0.4272461,-0.12207031,0.7324219,0.0,0.0,0.0,143.50891,70.76843,-107.578125
1766813031102,-0.9472656,0.1977539,-0.26171875,-0.61035156,-0.36621094,0.6713867,0.0,0.0,0.0,143.50891,70.76843,-107.578125
1766813031114,-0.9472656,0.1977539,-0.26171875,-0.61035156,-0.36621094,0.6713867,0.0,0.0,0.0,143.2013,70.72998,-107.83081
1766813031202,-0.9477539,0.19677734,-0.2607422,-0.7324219,0.48828125,0.4272461,0.0,0.0,0.0,143.2013,70.72998,-107.83081
1766813031213,-0.9477539,0.19677734,-0.2607422,-0.7324219,0.48828125,0.4272461,0.0,0.0,0.0,143.1189,70.686035,-107.874756
1766813031301,-0.9506836,0.2055664,-0.2578125,-0.9765625,0.0,0.30517578,0.0,0.0,0.0,143.1189,70.686035,-107.874756
1766813031313,-0.9506836,0.2055664,-0.2578125,-0.9765625,0.0,0.30517578,0.0,0.0,0.0,142.94312,70.653076,-107.99011
1766813031401,-0.9472656,0.20654297,-0.25976562,-0.24414062,-0.18310547,0.79345703,0.0,0.0,0.0,142.94312,70.653076,-107.99011
1766813031413,-0.9472656,0.20654297,-0.25976562,-0.24414062,-0.18310547,0.79345703,0.0,0.0,0.0,142.82776,70.58716,-108.03955
1766813031501,-0.9482422,0.19921875,-0.265625,-0.48828125,0.061035156,0.4272461,0.0,0.0,0.0,142.82776,70.58716,-108.03955
1766813031513,-0.9482422,0.19921875,-0.265625,-0.48828125,0.061035156,0.4272461,0.0,0.0,0.0,142.65198,70.548706,-108.18787
1766813031601,-0.9433594,0.2109375,-0.25732422,-0.91552734,0.0,0.30517578,0.0,0.0,0.0,142.65198,70.548706,-108.18787
1766813031612,-0.9433594,0.2109375,-0.25732422,-0.91552734,0.0,0.30517578,0.0,0.0,0.0,142.52014,70.510254,-108.25928
1766813031700,-0.9482422,0.20751953,-0.26416016,-0.30517578,0.24414062,0.36621094,0.0,0.0,0.0,142.52014,70.510254,-108.25928
1766813031712,-0.9482422,0.20751953,-0.26416016,-0.30517578,0.24414062,0.36621094,0.0,0.0,0.0,142.37183,70.48279,-108.33618
1766813031800,-0.94189453,0.20800781,-0.26171875,-0.24414062,0.061035156,0.12207031,0.0,0.0,0.0,142.37183,70.48279,-108.33618
1766813031812,-0.94189453,0.20800781,-0.26171875,-0.24414062,0.061035156,0.12207031,0.0,0.0,0.0,142.27844,70.42786,-108.38013
1766813031900,-0.9506836,0.20654297,-0.25976562,0.30517578,0.24414062,-0.48828125,0.0,0.0,0.0,142.27844,70.42786,-108.38013
1766813031911,-0.9506836,0.20654297,-0.25976562,0.30517578,0.24414062,-0.48828125,0.0,0.0,0.0,142.26196,70.444336,-108.36365
1766813032000,-0.94091797,0.20751953,-0.26220703,0.061035156,-0.18310547,-0.7324219,0.0,0.0,0.0,142.26196,70.444336,-108.36365
1766813032011,-0.94091797,0.20751953,-0.26220703,0.061035156,-0.18310547,-0.7324219,0.0,0.0,0.0,142.45422,70.444336,-108.16589
1766813032099,-0.94677734,0.20605469,-0.26464844,0.8544922,0.061035156,-0.8544922,0.0,0.0,0.0,142.45422,70.444336,-108.16589
1766813032111,-0.94677734,0.20605469,-0.26464844,0.8544922,0.061035156,-0.8544922,0.0,0.0,0.0,142.68494,70.50476,-107.96265
1766813032199,-0.9501953,0.20019531,-0.26367188,1.2207031,0.0,-1.7089844,0.0,0.0,0.0,142.68494,70.50476,-107.96265
1766813032211,-0.9501953,0.20019531,-0.26367188,1.2207031,0.0,-1.7089844,0.0,0.0,0.0,142.89368,70.59265,-107.79785
1766813032298,-0.94628906,0.20361328,-0.2626953,0.24414062,-0.36621094,-0.79345703,0.0,0.0,0.0,142.89368,70.59265,-107.79785
1766813032310,-0.94628906,0.20361328,-0.2626953,0.24414062,-0.36621094,-0.79345703,0.0,0.0,0.0,143.25073,70.66406,-107.490234
1766813032398,-0.94921875,0.20019531,-0.26464844,0.61035156,-0.30517578,-0.8544922,0.0,0.0,0.0,143.25073,70.66406,-107.490234
1766813032410,-0.94921875,0.20019531,-0.26464844,0.61035156,-0.30517578,-0.8544922,0.0,0.0,0.0,143.41553,70.72998,-107.34741
1766813032498,-0.9482422,0.19824219,-0.26220703,0.12207031,-0.12207031,-0.5493164,0.0,0.0,0.0,143.41553,70.72998,-107.34741
1766813032509,-0.9482422,0.19824219,-0.26220703,0.12207031,-0.12207031,-0.5493164,0.0,0.0,0.0,143.53088,70.773926,-107.232056
1766813032598,-0.94921875,0.19921875,-0.26171875,0.4272461,-0.18310547,-0.61035156,0.0,0.0,0.0,143.53088,70.773926,-107.232056
1766813032609,-0.94921875,0.19921875,-0.26171875,0.4272461,-0.18310547,-0.61035156,0.0,0.0,0.0,143.66821,70.806885,-107.09473
1766813032697,-0.9477539,0.19628906,-0.26220703,0.0,-0.12207031,-0.24414062,0.0,0.0,0.0,143.66821,70.806885,-107.09473
1766813032709,-0.9477539,0.19628906,-0.26220703,0.0,-0.12207031,-0.24414062,0.0,0.0,0.0,143.73962,70.81787,-107.01782
1766813032797,-0.9477539,0.19726562,-0.26220703,-0.12207031,0.061035156,-0.6713867,0.0,0.0,0.0,143.73962,70.81787,-107.01782
1766813032808,-0.9477539,0.19726562,-0.26220703,-0.12207031,0.061035156,-0.6713867,0.0,0.0,0.0,143.844,70.82886,-106.902466
1766813032897,-0.9482422,0.19873047,-0.26171875,0.9765625,0.061035156,-0.061035156,0.0,0.0,0.0,143.844,70.82886,-106.902466
1766813032909,-0.9482422,0.19873047,-0.26171875,0.9765625,0.061035156,-0.061035156,0.0,0.0,0.0,143.97583,70.83435,-106.77063
1766813032997,-0.9477539,0.18945312,-0.2685547,0.36621094,0.0,-0.12207031,0.0,0.0,0.0,143.97583,70.83435,-106.77063
1766813033008,-0.9477539,0.18945312,-0.2685547,0.36621094,0.0,-0.12207031,0.0,0.0,0.0,144.05273,70.83435,-106.73218
1766813033096,-0.94677734,0.19433594,-0.26220703,0.30517578,0.5493164,-0.18310547,0.0,0.0,0.0,144.05273,70.83435,-106.73218
1766813033108,-0.94677734,0.19433594,-0.26220703,0.30517578,0.5493164,-0.18310547,0.0,0.0,0.0,144.04175,70.83435,-106.75415
1766813033196,-0.94628906,0.19921875,-0.26367188,0.18310547,0.0,-0.36621094,0.0,0.0,0.0,144.04175,70.83435,-106.75415
1766813033207,-0.94628906,0.19921875,-0.26367188,0.18310547,0.0,-0.36621094,0.0,0.0,0.0,144.15161,70.83435,-106.65527
1766813033296,-0.94921875,0.19384766,-0.26367188,0.0,0.0,-0.24414062,0.0,0.0,0.0,144.15161,70.83435,-106.65527
1766813033307,-0.94921875,0.19384766,-0.26367188,0.0,0.0,-0.24414062,0.0,0.0,0.0,144.1626,70.83435,-106.61133
1766813033395,-0.9482422,0.19335938,-0.26416016,-0.6713867,-0.18310547,-0.30517578,0.0,0.0,0.0,144.1626,70.83435,-106.61133
1766813033407,-0.9482422,0.19335938,-0.26416016,-0.6713867,-0.18310547,-0.30517578,0.0,0.0,0.0,144.17358,70.85083,-106.56738
1766813033495,-0.9482422,0.19873047,-0.2607422,0.061035156,0.0,-0.24414062,0.0,0.0,0.0,144.17358,70.85083,-106.56738
1766813033507,-0.9482422,0.19873047,-0.2607422,0.061035156,0.0,-0.24414062,0.0,0.0,0.0,144.21753,70.86182,-106.49048
1766813033595,-0.9482422,0.1928711,-0.265625,0.061035156,-0.12207031,0.0,0.0,0.0,0.0,144.21753,70.86182,-106.49048
1766813033606,-0.9482422,0.1928711,-0.265625,0.061035156,-0.12207031,0.0,0.0,0.0,0.0,144.18457,70.86182,-106.501465
1766813033694,-0.94970703,0.19091797,-0.2626953,-0.18310547,0.061035156,-0.79345703,0.0,0.0,0.0,144.18457,70.86182,-106.501465
1766813033706,-0.94970703,0.19091797,-0.2626953,-0.18310547,0.061035156,-0.79345703,0.0,0.0,0.0,144.27246,70.8728,-106.3916
1766813033794,-0.94140625,0.20654297,-0.25830078,1.0375977,0.0,0.4272461,0.0,0.0,0.0,144.27246,70.8728,-106.3916
1766813033806,-0.94140625,0.20654297,-0.25830078,1.0375977,0.0,0.4272461,0.0,0.0,0.0,144.3219,70.83984,-106.35864
1766813033894,-0.953125,0.18554688,-0.27001953,0.6713867,-0.18310547,0.061035156,0.0,0.0,0.0,144.3219,70.83984,-106.35864
1766813033905,-0.953125,0.18554688,-0.27001953,0.6713867,-0.18310547,0.061035156,0.0,0.0,0.0,144.43726,70.84534,-106.28723
1766813033993,-0.9506836,0.18701172,-0.26904297,-0.12207031,0.9765625,0.061035156,0.0,0.0,0.0,144.43726,70.84534,-106.28723
1766813034005,-0.9506836,0.18701172,-0.26904297,-0.12207031,0.9765625,0.061035156,0.0,0.0,0.0,144.37134,70.81787,-106.40259
1766813034093,-0.94970703,0.20751953,-0.25878906,-0.30517578,0.24414062,0.30517578,0.0,0.0,0.0,144.37134,70.81787,-106.40259
1766813034105,-0.94970703,0.20751953,-0.25878906,-0.30517578,0.24414062,0.30517578,0.0,0.0,0.0,144.35486,70.77942,-106.37512
1766813034193,-0.94873047,0.19189453,-0.2709961,0.12207031,-0.18310547,0.79345703,0.0,0.0,0.0,144.35486,70.77942,-106.37512
1766813034204,-0.94873047,0.19189453,-0.2709961,0.12207031,-0.18310547,0.79345703,0.0,0.0,0.0,144.09119,70.74097,-106.57837
1766813034292,-0.9482422,0.19384766,-0.26660156,-1.2817383,0.0,0.30517578,0.0,0.0,0.0,144.09119,70.74097,-106.57837
1766813034304,-0.9482422,0.19384766,-0.26660156,-1.2817383,0.0,0.30517578,0.0,0.0,0.0,143.89893,70.70801,-106.743164
1766813034392,-0.94677734,0.20117188,-0.2626953,-1.0986328,0.18310547,0.30517578,0.0,0.0,0.0,143.89893,70.70801,-106.743164
1766813034404,-0.94677734,0.20117188,-0.2626953,-1.0986328,0.18310547,0.30517578,0.0,0.0,0.0,143.82202,70.66406,-106.73218
1766813034492,-0.9482422,0.20458984,-0.26220703,-0.48828125,0.0,0.79345703,0.0,0.0,0.0,143.82202,70.66406,-106.73218
1766813034503,-0.9482422,0.20458984,-0.26220703,-0.48828125,0.0,0.79345703,0.0,0.0,0.0,143.55835,70.62012,-106.89697
1766813034592,-0.94628906,0.2006836,-0.265625,-0.30517578,0.24414062,0.7324219,0.0,0.0,0.0,143.55835,70.62012,-106.89697
1766813034603,-0.94628906,0.2006836,-0.265625,-0.30517578,0.24414062,0.7324219,0.0,0.0,0.0,143.33862,70.55969,-107.072754
1766813034691,-0.9482422,0.20166016,-0.26660156,-0.7324219,0.24414062,0.48828125,0.0,0.0,0.0,143.33862,70.55969,-107.072754
1766813034703,-0.9482422,0.20166016,-0.26660156,-0.7324219,0.24414062,0.48828125,0.0,0.0,0.0,143.15735,70.49927,-107.1936
1766813034791,-0.94091797,0.2084961,-0.2626953,-0.4272461,-0.24414062,0.61035156,0.0,0.0,0.0,143.15735,70.49927,-107.1936
1766813034803,-0.94091797,0.2084961,-0.2626953,-0.4272461,-0.24414062,0.61035156,0.0,0.0,0.0,143.08044,70.444336,-107.23755
1766813034891,-0.9428711,0.20605469,-0.26416016,0.18310547,0.5493164,0.4272461,0.0,0.0,0.0,143.08044,70.444336,-107.23755
1766813034902,-0.9428711,0.20605469,-0.26416016,0.18310547,0.5493164,0.4272461,0.0,0.0,0.0,142.97607,70.3949,-107.30896
1766813034991,-0.94433594,0.20361328,-0.26708984,0.0,0.30517578,0.12207031,0.0,0.0,0.0,142.97607,70.3949,-107.30896
1766813035002,-0.94433594,0.20361328,-0.26708984,0.0,0.30517578,0.12207031,0.0,0.0,0.0,142.86072,70.356445,-107.39685
1766813035090,-0.9423828,0.20605469,-0.26513672,-0.18310547,0.0,-0.36621094,0.0,0.0,0.0,142.86072,70.356445,-107.39685
1766813035102,-0.9423828,0.20605469,-0.26513672,-0.18310547,0.0,-0.36621094,0.0,0.0,0.0,142.89368,70.34546,-107.34192
1766813035190,-0.9453125,0.2055664,-0.26513672,0.30517578,-0.12207031,-0.79345703,0.0,0.0,0.0,142.89368,70.34546,-107.34192
1766813035201,-0.9453125,0.2055664,-0.26513672,0.30517578,-0.12207031,-0.79345703,0.0,0.0,0.0,142.99255,70.37842,-107.22656
1766813035290,-0.9448242,0.20361328,-0.26464844,0.36621094,-0.061035156,-0.7324219,0.0,0.0,0.0,142.99255,70.37842,-107.22656
1766813035301,-0.9448242,0.20361328,-0.26464844,0.36621094,-0.061035156,-0.7324219,0.0,0.0,0.0,143.15735,70.42236,-107.05078
1766813035389,-0.94384766,0.2006836,-0.26708984,0.0,-0.5493164,-0.6713867,0.0,0.0,0.0,143.15735,70.42236,-107.05078
1766813035401,-0.94384766,0.2006836,-0.26708984,0.0,-0.5493164,-0.6713867,0.0,0.0,0.0,143.24524,70.4718,-106.9574
1766813035489,-0.9472656,0.20214844,-0.26416016,-0.7324219,-0.36621094,-1.159668,0.0,0.0,0.0,143.24524,70.4718,-106.9574
1766813035500,-0.9472656,0.20214844,-0.26416016,-0.7324219,-0.36621094,-1.159668,0.0,0.0,0.0,143.29468,70.565186,-106.84204
1766813035589,-0.9477539,0.20996094,-0.25439453,1.3427734,0.0,-0.79345703,0.0,0.0,0.0,143.29468,70.565186,-106.84204
1766813035600,-0.9477539,0.20996094,-0.25439453,1.3427734,0.0,-0.79345703,0.0,0.0,0.0,143.46497,70.6311,-106.66626
1766813035688,-0.94677734,0.19628906,-0.26464844,0.5493164,-0.6713867,-0.5493164,0.0,0.0,0.0,143.46497,70.6311,-106.66626
1766813035700,-0.94677734,0.19628906,-0.26464844,0.5493164,-0.6713867,-0.5493164,0.0,0.0,0.0,143.64075,70.669556,-106.54541
1766813035788,-0.9482422,0.19580078,-0.265625,0.48828125,0.0,-0.79345703,0.0,0.0,0.0,143.64075,70.669556,-106.54541
1766813035800,-0.9482422,0.19580078,-0.265625,0.48828125,0.0,-0.79345703,0.0,0.0,0.0,143.77808,70.70801,-106.42456
1766813035888,-0.94628906,0.20166016,-0.2607422,0.0,0.0,-0.5493164,0.0,0.0,0.0,143.77808,70.70801,-106.42456
1766813035899,-0.94628906,0.20166016,-0.2607422,0.0,0.0,-0.5493164,0.0,0.0,0.0,143.95935,70.72449,-106.24878
1766813035988,-0.94873047,0.19580078,-0.265625,0.24414062,-0.5493164,-0.18310547,0.0,0.0,0.0,143.95935,70.72449,-106.24878
1766813035999,-0.94873047,0.19580078,-0.265625,0.24414062,-0.5493164,-0.18310547,0.0,0.0,0.0,143.96484,70.75745,-106.22131
1766813036087,-0.94873047,0.19628906,-0.26513672,0.0,0.18310547,-0.36621094,0.0,0.0,0.0,143.96484,70.75745,-106.22131
1766813036100,-0.94873047,0.19628906,-0.26513672,0.0,0.18310547,-0.36621094,0.0,0.0,0.0,143.97034,70.773926,-106.204834
1766813036187,-0.9472656,0.19726562,-0.2626953,-0.12207031,0.0,-0.30517578,0.0,0.0,0.0,143.97034,70.773926,-106.204834
1766813036199,-0.9472656,0.19726562,-0.2626953,-0.12207031,0.0,-0.30517578,0.0,0.0,0.0,144.05273,70.78491,-106.100464
1766813036287,-0.9482422,0.19482422,-0.26367188,0.0,-0.061035156,-0.12207031,0.0,0.0,0.0,144.05273,70.78491,-106.100464
1766813036299,-0.9482422,0.19482422,-0.26367188,0.0,-0.061035156,-0.12207031,0.0,0.0,0.0,144.09119,70.790405,-106.04004
1766813036386,-0.94677734,0.19482422,-0.26416016,-0.24414062,0.0,-0.18310547,0.0,0.0,0.0,144.09119,70.790405,-106.04004
1766813036398,-0.94677734,0.19482422,-0.26416016,-0.24414062,0.0,-0.18310547,0.0,0.0,0.0,144.12415,70.790405,-105.99609
1766813036486,-0.94970703,0.19335938,-0.25927734,-0.30517578,-0.5493164,-0.18310547,0.0,0.0,0.0,144.12415,70.790405,-105.99609
1766813036498,-0.94970703,0.19335938,-0.25927734,-0.30517578,-0.5493164,-0.18310547,0.0,0.0,0.0,144.06372,70.80139,-106.00159
1766813036586,-0.9453125,0.20019531,-0.25732422,-0.12207031,-0.30517578,-0.12207031,0.0,0.0,0.0,144.06372,70.80139,-106.00159
1766813036597,-0.9453125,0.20019531,-0.25732422,-0.12207031,-0.30517578,-0.12207031,0.0,0.0,0.0,144.12415,70.790405,-105.95764
1766813036685,-0.94628906,0.18945312,-0.2709961,0.18310547,-0.30517578,-0.24414062,0.0,0.0,0.0,144.12415,70.790405,-105.95764
1766813036697,-0.94628906,0.18945312,-0.2709961,0.18310547,-0.30517578,-0.24414062,0.0,0.0,0.0,144.21204,70.790405,-105.88623
1766813036785,-0.94970703,0.19482422,-0.2631836,-0.36621094,0.0,-0.061035156,0.0,0.0,0.0,144.21204,70.790405,-105.88623
1766813036797,-0.94970703,0.19482422,-0.2631836,-0.36621094,0.0,-0.061035156,0.0,0.0,0.0,144.21753,70.80139,-105.88074
1766813036885,-0.9448242,0.19873047,-0.26171875,-0.18310547,-0.4272461,-0.24414062,0.0,0.0,0.0,144.21753,70.80139,-105.88074
1766813036896,-0.9448242,0.19873047,-0.26171875,-0.18310547,-0.4272461,-0.24414062,0.0,0.0,0.0,144.20105,70.806885,-105.86426
1766813036985,-0.953125,0.18945312,-0.26513672,-0.30517578,0.24414062,-0.30517578,0.0,0.0,0.0,144.20105,70.806885,-105.86426
1766813036996,-0.953125,0.18945312,-0.26513672,-0.30517578,0.24414062,-0.30517578,0.0,0.0,0.0,144.17908,70.83435,-105.8313
1766813037084,-0.94873047,0.19873047,-0.2626953,-0.36621094,0.36621094,-1.0375977,0.0,0.0,0.0,144.17908,70.83435,-105.8313
1766813037096,-0.94873047,0.19873047,-0.2626953,-0.36621094,0.36621094,-1.0375977,0.0,0.0,0.0,144.29993,70.83435,-105.666504
1766813037184,-0.9472656,0.19433594,-0.2631836,-0.24414062,-0.24414062,0.36621094,0.0,0.0,0.0,144.29993,70.83435,-105.666504
1766813037195,-0.9472656,0.19433594,-0.2631836,-0.24414062,-0.24414062,0.36621094,0.0,0.0,0.0,144.4812,70.81787,-105.45227
1766813037284,-0.9501953,0.19140625,-0.2680664,0.36621094,0.24414062,-0.4272461,0.0,0.0,0.0,144.4812,70.81787,-105.45227
1766813037295,-0.9501953,0.19140625,-0.2680664,0.36621094,0.24414062,-0.4272461,0.0,0.0,0.0,144.49768,70.81787,-105.4303
1766813037383,-0.94873047,0.19482422,-0.2626953,-0.061035156,0.12207031,0.7324219,0.0,0.0,0.0,144.49768,70.81787,-105.4303
1766813037395,-0.94873047,0.19482422,-0.2626953,-0.061035156,0.12207031,0.7324219,0.0,0.0,0.0,144.42627,70.78491,-105.48523
1766813037483,-0.94628906,0.20019531,-0.26416016,0.12207031,-0.91552734,0.8544922,0.0,0.0,0.0,144.42627,70.78491,-105.48523
1766813037495,-0.94628906,0.20019531,-0.26416016,0.12207031,-0.91552734,0.8544922,0.0,0.0,0.0,144.23401,70.74646,-105.704956
1766813037583,-0.9458008,0.19238281,-0.27001953,-0.12207031,0.48828125,0.8544922,0.0,0.0,0.0,144.23401,70.74646,-105.704956
1766813037594,-0.9458008,0.19238281,-0.27001953,-0.12207031,0.48828125,0.8544922,0.0,0.0,0.0,144.04175,70.669556,-105.90271
1766813037683,-0.9477539,0.20214844,-0.26416016,-0.61035156,0.12207031,0.48828125,0.0,0.0,0.0,144.04175,70.669556,-105.90271
1766813037694,-0.9477539,0.20214844,-0.26416016,-0.61035156,0.12207031,0.48828125,0.0,0.0,0.0,143.82751,70.62012,-106.07849
1766813037782,-0.9453125,0.19335938,-0.26757812,-1.2817383,-0.5493164,0.91552734,0.0,0.0,0.0,143.82751,70.62012,-106.07849
1766813037794,-0.9453125,0.19335938,-0.26757812,-1.2817383,-0.5493164,0.91552734,0.0,0.0,0.0,143.60779,70.58716,-106.22681
1766813037882,-0.94677734,0.20654297,-0.2631836,-0.9765625,0.12207031,0.18310547,0.0,0.0,0.0,143.60779,70.58716,-106.22681
1766813037893,-0.94677734,0.20654297,-0.2631836,-0.9765625,0.12207031,0.18310547,0.0,0.0,0.0,143.30017,70.57617,-106.44104
1766813037982,-0.9482422,0.20263672,-0.26123047,-0.5493164,0.4272461,0.8544922,0.0,0.0,0.0,143.30017,70.57617,-106.44104
1766813037993,-0.9482422,0.20263672,-0.26123047,-0.5493164,0.4272461,0.8544922,0.0,0.0,0.0,143.2013,70.51575,-106.45752
1766813038081,-0.9448242,0.20751953,-0.26660156,-0.30517578,0.36621094,0.30517578,0.0,0.0,0.0,143.2013,70.51575,-106.45752
1766813038093,-0.9448242,0.20751953,-0.26660156,-0.30517578,0.36621094,0.30517578,0.0,0.0,0.0,143.031,70.460815,-106.58386
1766813038181,-0.9448242,0.20117188,-0.2626953,-0.18310547,0.24414062,0.5493164,0.0,0.0,0.0,143.031,70.460815,-106.58386
1766813038193,-0.9448242,0.20117188,-0.2626953,-0.18310547,0.24414062,0.5493164,0.0,0.0,0.0,142.8772,70.389404,-106.66626
1766813038281,-0.9428711,0.20263672,-0.265625,-1.2207031,0.36621094,0.18310547,0.0,0.0,0.0,142.8772,70.389404,-106.66626
1766813038292,-0.9428711,0.20263672,-0.265625,-1.2207031,0.36621094,0.18310547,0.0,0.0,0.0,142.81677,70.35095,-106.68823
1766813038381,-0.94677734,0.21240234,-0.26123047,-0.24414062,-0.12207031,-0.61035156,0.0,0.0,0.0,142.81677,70.35095,-106.68823
1766813038392,-0.94677734,0.21240234,-0.26123047,-0.24414062,-0.12207031,-0.61035156,0.0,0.0,0.0,142.7893,70.36194,-106.64429
1766813038480,-0.94189453,0.21435547,-0.2602539,0.91552734,-0.36621094,-0.48828125,0.0,0.0,0.0,142.7893,70.36194,-106.64429
1766813038493,-0.94189453,0.21435547,-0.2602539,0.91552734,-0.36621094,-0.48828125,0.0,0.0,0.0,142.94861,70.36743,-106.46301
1766813038580,-0.9458008,0.19873047,-0.2680664,1.0375977,-0.36621094,-0.7324219,0.0,0.0,0.0,142.94861,70.36743,-106.46301
1766813038592,-0.9458008,0.19873047,-0.2680664,1.0375977,-0.36621094,-0.7324219,0.0,0.0,0.0,143.06946,70.41138,-106.38611
1766813038680,-0.9448242,0.19824219,-0.2685547,0.0,-0.061035156,-1.0986328,0.0,0.0,0.0,143.06946,70.41138,-106.38611
1766813038691,-0.9448242,0.19824219,-0.2685547,0.0,-0.061035156,-1.0986328,0.0,0.0,0.0,143.34412,70.477295,-106.155396
1766813038779,-0.94921875,0.2133789,-0.25683594,1.3427734,-0.4272461,-0.79345703,0.0,0.0,0.0,143.34412,70.477295,-106.155396
1766813038791,-0.94921875,0.2133789,-0.25683594,1.3427734,-0.4272461,-0.79345703,0.0,0.0,0.0,143.52539,70.55969,-105.9906
1766813038879,-0.94433594,0.19042969,-0.2705078,0.61035156,-0.36621094,-0.5493164,0.0,0.0,0.0,143.52539,70.55969,-105.9906
1766813038891,-0.94433594,0.19042969,-0.2705078,0.61035156,-0.36621094,-0.5493164,0.0,0.0,0.0,143.62976,70.60913,-105.930176
1766813038979,-0.95166016,0.19726562,-0.26464844,-0.4272461,0.0,-0.8544922,0.0,0.0,0.0,143.62976,70.60913,-105.930176
1766813038990,-0.95166016,0.19726562,-0.26464844,-0.4272461,0.0,-0.8544922,0.0,0.0,0.0,143.82202,70.669556,-105.7489
1766813039078,-0.9448242,0.20507812,-0.26171875,-0.18310547,0.0,-0.24414062,0.0,0.0,0.0,143.82202,70.669556,-105.7489
1766813039090,-0.9448242,0.20507812,-0.26171875,-0.18310547,0.0,-0.24414062,0.0,0.0,0.0,143.87695,70.68054,-105.64453
1766813039178,-0.95166016,0.19628906,-0.26513672,0.9765625,0.18310547,-0.36621094,0.0,0.0,0.0,143.87695,70.68054,-105.64453
1766813039190,-0.95166016,0.19628906,-0.26513672,0.9765625,0.18310547,-0.36621094,0.0,0.0,0.0,143.90991,70.69153,-105.59509
1766813039278,-0.9482422,0.1899414,-0.2705078,-0.5493164,0.12207031,-0.24414062,0.0,0.0,0.0,143.90991,70.69153,-105.59509
1766813039289,-0.9482422,0.1899414,-0.2705078,-0.5493164,0.12207031,-0.24414062,0.0,0.0,0.0,143.95935,70.69153,-105.56213
1766813039378,-0.94677734,0.20361328,-0.2607422,0.0,0.12207031,-0.8544922,0.0,0.0,0.0,143.95935,70.69153,-105.56213
1766813039389,-0.94677734,0.20361328,-0.2607422,0.0,0.12207031,-0.8544922,0.0,0.0,0.0,144.14062,70.70801,-105.3479
1766813039477,-0.9472656,0.19482422,-0.26611328,0.18310547,0.0,-0.5493164,0.0,0.0,0.0,144.14062,70.70801,-105.3479
1766813039489,-0.9472656,0.19482422,-0.26611328,0.18310547,0.0,-0.5493164,0.0,0.0,0.0,144.2395,70.72998,-105.20508
1766813039577,-0.9511719,0.19970703,-0.2602539,1.0375977,-0.061035156,-0.30517578,0.0,0.0,0.0,144.2395,70.72998,-105.20508
1766813039589,-0.9511719,0.19970703,-0.2602539,1.0375977,-0.061035156,-0.30517578,0.0,0.0,0.0,144.3219,70.76294,-105.13367
1766813039677,-0.94628906,0.18261719,-0.2763672,-0.4272461,-0.12207031,-0.24414062,0.0,0.0,0.0,144.3219,70.76294,-105.13367
1766813039688,-0.94628906,0.18261719,-0.2763672,-0.4272461,-0.12207031,-0.24414062,0.0,0.0,0.0,144.38782,70.76843,-105.10071
1766813039776,-0.94921875,0.19970703,-0.2578125,-0.4272461,-0.12207031,-0.061035156,0.0,0.0,0.0,144.38782,70.76843,-105.10071
1766813039788,-0.94921875,0.19970703,-0.2578125,-0.4272461,-0.12207031,-0.061035156,0.0,0.0,0.0,144.3988,70.76294,-105.04578
1766813039876,-0.94384766,0.19238281,-0.2705078,-1.5258789,0.0,-0.61035156,0.0,0.0,0.0,144.3988,70.76294,-105.04578
1766813039888,-0.94384766,0.19238281,-0.2705078,-1.5258789,0.0,-0.61035156,0.0,0.0,0.0,144.44275,70.76843,-104.9469
1766813039976,-0.9536133,0.2006836,-0.25878906,-0.5493164,-0.7324219,0.061035156,0.0,0.0,0.0,144.44275,70.76843,-104.9469
1766813039987,-0.9536133,0.2006836,-0.25878906,-0.5493164,-0.7324219,0.061035156,0.0,0.0,0.0,144.27795,70.80139,-104.96338
1766813040076,-0.9423828,0.19189453,-0.27001953,0.18310547,0.0,0.4272461,0.0,0.0,0.0,144.27795,70.80139,-104.96338
1766813040087,-0.9423828,0.19189453,-0.27001953,0.18310547,0.0,0.4272461,0.0,0.0,0.0,144.34937,70.7959,-104.93042
1766813040175,-0.95214844,0.19726562,-0.25927734,0.79345703,0.36621094,-0.24414062,0.0,0.0,0.0,144.34937,70.7959,-104.93042
1766813040187,-0.95214844,0.19726562,-0.25927734,0.79345703,0.36621094,-0.24414062,0.0,0.0,0.0,144.33838,70.80139,-104.96338
1766813040275,-0.95214844,0.19482422,-0.26660156,1.5869141,0.48828125,-0.4272461,0.0,0.0,0.0,144.33838,70.80139,-104.96338
1766813040287,-0.95214844,0.19482422,-0.26660156,1.5869141,0.48828125,-0.4272461,0.0,0.0,0.0,144.42627,70.80139,-104.89746
1766813040375,-0.94628906,0.19189453,-0.26708984,-0.24414062,-0.18310547,0.8544922,0.0,0.0,0.0,144.42627,70.80139,-104.89746
1766813040387,-0.94628906,0.19189453,-0.26708984,-0.24414062,-0.18310547,0.8544922,0.0,0.0,0.0,144.3274,70.75195,-105.01282
1766813040474,-0.94433594,0.20019531,-0.25976562,-0.36621094,-0.061035156,0.61035156,0.0,0.0,0.0,144.3274,70.75195,-105.01282
1766813040486,-0.94433594,0.20019531,-0.25976562,-0.36621094,-0.061035156,0.61035156,0.0,0.0,0.0,144.15161,70.72998,-105.20508
1766813040575,-0.9458008,0.19726562,-0.2709961,-0.6713867,0.0,0.79345703,0.0,0.0,0.0,144.15161,70.72998,-105.20508
1766813040586,-0.9458008,0.19726562,-0.2709961,-0.6713867,0.0,0.79345703,0.0,0.0,0.0,143.9209,70.67505,-105.39734
1766813040674,-0.9477539,0.20214844,-0.2631836,-0.8544922,-0.24414062,0.48828125,0.0,0.0,0.0,143.9209,70.67505,-105.39734
1766813040686,-0.9477539,0.20214844,-0.2631836,-0.8544922,-0.24414062,0.48828125,0.0,0.0,0.0,143.85498,70.62561,-105.43579
1766813040774,-0.94433594,0.19824219,-0.26708984,0.0,0.30517578,0.91552734,0.0,0.0,0.0,143.85498,70.62561,-105.43579
1766813040785,-0.94433594,0.19824219,-0.26708984,0.0,0.30517578,0.91552734,0.0,0.0,0.0,143.64624,70.55969,-105.62805
1766813040873,-0.94628906,0.19921875,-0.26904297,-1.7089844,0.0,0.24414062,0.0,0.0,0.0,143.64624,70.55969,-105.62805
1766813040885,-0.94628906,0.19921875,-0.26904297,-1.7089844,0.0,0.24414062,0.0,0.0,0.0,143.41553,70.49927,-105.79834
1766813040973,-0.9428711,0.2055664,-0.2626953,-1.159668,0.061035156,0.91552734,0.0,0.0,0.0,143.41553,70.49927,-105.79834
1766813040984,-0.9428711,0.2055664,-0.2626953,-1.159668,0.061035156,0.91552734,0.0,0.0,0.0,143.31665,70.45532,-105.79285
1766813041073,-0.9506836,0.20898438,-0.2626953,0.36621094,0.5493164,0.30517578,0.0,0.0,0.0,143.31665,70.45532,-105.79285
1766813041084,-0.9506836,0.20898438,-0.2626953,0.36621094,0.5493164,0.30517578,0.0,0.0,0.0,142.94861,70.444336,-106.083984
1766813041172,-0.94628906,0.19970703,-0.26953125,0.12207031,0.061035156,0.48828125,0.0,0.0,0.0,142.94861,70.444336,-106.083984
1766813041184,-0.94628906,0.19970703,-0.26953125,0.12207031,0.061035156,0.48828125,0.0,0.0,0.0,142.89917,70.37842,-106.13342
1766813041272,-0.9428711,0.20751953,-0.26660156,-0.7324219,0.24414062,0.0,0.0,0.0,0.0,142.89917,70.37842,-106.13342
1766813041284,-0.9428711,0.20751953,-0.26660156,-0.7324219,0.24414062,0.0,0.0,0.0,0.0,142.84973,70.34546,-106.16089
1766813041372,-0.94140625,0.2109375,-0.26123047,0.061035156,-0.12207031,-0.18310547,0.0,0.0,0.0,142.84973,70.34546,-106.16089
1766813041383,-0.94140625,0.2109375,-0.26123047,0.061035156,-0.12207031,-0.18310547,0.0,0.0,0.0,142.8717,70.32898,-106.09497
1766813041472,-0.94628906,0.20214844,-0.26660156,0.8544922,0.18310547,-0.24414062,0.0,0.0,0.0,142.8717,70.32898,-106.09497
1766813041483,-0.94628906,0.20214844,-0.26660156,0.8544922,0.18310547,-0.24414062,0.0,0.0,0.0,142.91016,70.33447,-106.04553
1766813041571,-0.9423828,0.2006836,-0.27148438,-0.7324219,-0.30517578,-0.48828125,0.0,0.0,0.0,142.91016,70.33447,-106.04553
1766813041583,-0.9423828,0.2006836,-0.27148438,-0.7324219,-0.30517578,-0.48828125,0.0,0.0,0.0,142.99255,70.339966,-105.96863
1766813041671,-0.9448242,0.2109375,-0.2607422,0.5493164,0.0,-0.8544922,0.0,0.0,0.0,142.99255,70.339966,-105.96863
1766813041682,-0.9448242,0.2109375,-0.2607422,0.5493164,0.0,-0.8544922,0.0,0.0,0.0,143.1958,70.37842,-105.754395
1766813041771,-0.9482422,0.19873047,-0.26953125,0.36621094,-0.4272461,-0.48828125,0.0,0.0,0.0,143.1958,70.37842,-105.754395
1766813041782,-0.9482422,0.19873047,-0.26953125,0.36621094,-0.4272461,-0.48828125,0.0,0.0,0.0,143.2013,70.42786,-105.73242
1766813041870,-0.9433594,0.20117188,-0.26757812,0.0,-0.061035156,-0.5493164,0.0,0.0,0.0,143.2013,70.42786,-105.73242
1766813041882,-0.9433594,0.20117188,-0.26757812,0.0,-0.061035156,-0.5493164,0.0,0.0,0.0,143.38257,70.46631,-105.56763
1766813041970,-0.94677734,0.20214844,-0.26513672,0.48828125,0.18310547,-1.159668,0.0,0.0,0.0,143.38257,70.46631,-105.56763
1766813041981,-0.94677734,0.20214844,-0.26513672,0.48828125,0.18310547,-1.159668,0.0,0.0,0.0,143.52539,70.54321,-105.424805
1766813042070,-0.95166016,0.20410156,-0.26464844,0.61035156,0.061035156,-0.79345703,0.0,0.0,0.0,143.52539,70.54321,-105.424805
1766813042081,-0.95166016,0.20410156,-0.26464844,0.61035156,0.061035156,-0.79345703,0.0,0.0,0.0,143.63525,70.60913,-105.28198
1766813042170,-0.94433594,0.1977539,-0.26660156,0.36621094,-0.36621094,-0.48828125,0.0,0.0,0.0,143.63525,70.60913,-105.28198
1766813042181,-0.94433594,0.1977539,-0.26660156,0.36621094,-0.36621094,-0.48828125,0.0,0.0,0.0,143.75061,70.6311,-105.17761
1766813042269,-0.9501953,0.19873047,-0.26220703,0.18310547,0.12207031,-0.4272461,0.0,0.0,0.0,143.75061,70.6311,-105.17761
1766813042281,-0.9501953,0.19873047,-0.26220703,0.18310547,0.12207031,-0.4272461,0.0,0.0,0.0,143.78906,70.66406,-105.11719
1766813042369,-0.9472656,0.19726562,-0.26464844,0.30517578,0.0,-0.18310547,0.0,0.0,0.0,143.78906,70.66406,-105.11719
1766813042380,-0.9472656,0.19726562,-0.26464844,0.30517578,0.0,-0.18310547,0.0,0.0,0.0,143.9209,70.66406,-105.007324
1766813042468,-0.9453125,0.19677734,-0.26660156,-0.5493164,-0.30517578,0.0,0.0,0.0,0.0,143.9209,70.66406,-105.007324
1766813042480,-0.9453125,0.19677734,-0.26660156,-0.5493164,-0.30517578,0.0,0.0,0.0,0.0,143.93738,70.653076,-104.98535
1766813042568,-0.94677734,0.20214844,-0.2631836,0.30517578,0.061035156,-0.48828125,0.0,0.0,0.0,143.93738,70.653076,-104.98535
1766813042580,-0.94677734,0.20214844,-0.2631836,0.30517578,0.061035156,-0.48828125,0.0,0.0,0.0,144.01428,70.669556,-104.89197
1766813042668,-0.94970703,0.19384766,-0.26611328,0.0,-0.061035156,0.0,0.0,0.0,0.0,144.01428,70.669556,-104.89197
1766813042679,-0.94970703,0.19384766,-0.26611328,0.0,-0.061035156,0.0,0.0,0.0,0.0,143.97583,70.67505,-104.89746
1766813042768,-0.9458008,0.19482422,-0.26953125,-0.18310547,0.18310547,-0.061035156,0.0,0.0,0.0,143.97583,70.67505,-104.89746
1766813042779,-0.9458008,0.19482422,-0.26953125,-0.18310547,0.18310547,-0.061035156,0.0,0.0,0.0,144.06372,70.65857,-104.81506
1766813042867,-0.9453125,0.20166016,-0.2626953,0.0,0.24414062,-0.24414062,0.0,0.0,0.0,144.06372,70.65857,-104.81506
1766813042879,-0.9453125,0.20166016,-0.2626953,0.0,0.24414062,-0.24414062,0.0,0.0,0.0,144.04175,70.65857,-104.80408
1766813042967,-0.9472656,0.19677734,-0.26611328,0.36621094,-0.18310547,0.0,0.0,0.0,0.0,144.04175,70.65857,-104.80408
1766813042978,-0.9472656,0.19677734,-0.26611328,0.36621094,-0.18310547,0.0,0.0,0.0,0.0,144.12415,70.65857,-104.72717
1766813043067,-0.9477539,0.19384766,-0.2705078,-0.18310547,0.0,-0.24414062,0.0,0.0,0.0,144.12415,70.65857,-104.72717
1766813043078,-0.9477539,0.19384766,-0.2705078,-0.18310547,0.0,-0.24414062,0.0,0.0,0.0,144.13513,70.65857,-104.71619
1766813043167,-0.9482422,0.19970703,-0.26171875,-0.061035156,0.061035156,-0.12207031,0.0,0.0,0.0,144.13513,70.65857,-104.71619
1766813043178,-0.9482422,0.19970703,-0.26171875,-0.061035156,0.061035156,-0.12207031,0.0,0.0,0.0,144.16809,70.66406,-104.65027
1766813043266,-0.9433594,0.19580078,-0.27197266,-0.24414062,-0.24414062,0.0,0.0,0.0,0.0,144.16809,70.66406,-104.65027
1766813043278,-0.9433594,0.19580078,-0.27197266,-0.24414062,-0.24414062,0.0,0.0,0.0,0.0,144.19006,70.64209,-104.61182
1766813043366,-0.94628906,0.20019531,-0.2631836,0.30517578,0.12207031,-0.18310547,0.0,0.0,0.0,144.19006,70.64209,-104.61182
1766813043377,-0.94628906,0.20019531,-0.2631836,0.30517578,0.12207031,-0.18310547,0.0,0.0,0.0,144.21753,70.64209,-104.56787
1766813043466,-0.94628906,0.19677734,-0.26708984,0.24414062,-0.18310547,-0.30517578,0.0,0.0,0.0,144.21753,70.64209,-104.56787
1766813043477,-0.94628906,0.19677734,-0.26708984,0.24414062,-0.18310547,-0.30517578,0.0,0.0,0.0,144.245,70.653076,-104.540405
1766813043565,-0.94873047,0.19482422,-0.26757812,0.30517578,0.0,-0.30517578,0.0,0.0,0.0,144.245,70.653076,-104.540405
1766813043577,-0.94873047,0.19482422,-0.26757812,0.30517578,0.0,-0.30517578,0.0,0.0,0.0,144.26697,70.669556,-104.50745
1766813043665,-0.94628906,0.19628906,-0.2680664,0.48828125,0.061035156,-0.12207031,0.0,0.0,0.0,144.26697,70.669556,-104.50745
1766813043676,-0.94628906,0.19628906,-0.2680664,0.48828125,0.061035156,-0.12207031,0.0,0.0,0.0,144.37683,70.67505,-104.41406
1766813043765,-0.9472656,0.19384766,-0.26611328,0.24414062,0.30517578,-0.18310547,0.0,0.0,0.0,144.37683,70.67505,-104.41406
1766813043776,-0.9472656,0.19384766,-0.26611328,0.24414062,0.30517578,-0.18310547,0.0,0.0,0.0,144.34387,70.68054,-104.44153
1766813043864,-0.94628906,0.1977539,-0.26708984,0.0,0.0,-0.24414062,0.0,0.0,0.0,144.34387,70.68054,-104.44153
1766813043876,-0.94628906,0.1977539,-0.26708984,0.0,0.0,-0.24414062,0.0,0.0,0.0,144.49768,70.68054,-104.30969
1766813043964,-0.9472656,0.19335938,-0.26757812,-0.061035156,-0.18310547,0.061035156,0.0,0.0,0.0,144.49768,70.68054,-104.30969
1766813043976,-0.9472656,0.19335938,-0.26757812,-0.061035156,-0.18310547,0.061035156,0.0,0.0,0.0,144.45374,70.686035,-104.32617
1766813044064,-0.9506836,0.19384766,-0.26953125,-1.0375977,-0.18310547,0.18310547,0.0,0.0,0.0,144.45374,70.686035,-104.32617
1766813044075,-0.9506836,0.19384766,-0.26953125,-1.0375977,-0.18310547,0.18310547,0.0,0.0,0.0,144.35486,70.69702,-104.39758
1766813044163,-0.9482422,0.19726562,-0.26757812,-1.5258789,-0.18310547,0.5493164,0.0,0.0,0.0,144.35486,70.69702,-104.39758
1766813044175,-0.9482422,0.19726562,-0.26757812,-1.5258789,-0.18310547,0.5493164,0.0,0.0,0.0,144.14612,70.669556,-104.51294
1766813044263,-0.9448242,0.20410156,-0.2626953,-0.12207031,0.24414062,0.5493164,0.0,0.0,0.0,144.14612,70.669556,-104.51294
1766813044275,-0.9448242,0.20410156,-0.2626953,-0.12207031,0.24414062,0.5493164,0.0,0.0,0.0,143.98132,70.62012,-104.60632
1766813044363,-0.94921875,0.19873047,-0.2680664,-0.91552734,0.061035156,0.4272461,0.0,0.0,0.0,143.98132,70.62012,-104.60632
1766813044374,-0.94921875,0.19873047,-0.2680664,-0.91552734,0.061035156,0.4272461,0.0,0.0,0.0,143.7561,70.581665,-104.74365
1766813044463,-0.9477539,0.19921875,-0.26953125,-0.8544922,0.12207031,0.61035156,0.0,0.0,0.0,143.7561,70.581665,-104.74365
1766813044474,-0.9477539,0.19921875,-0.26953125,-0.8544922,0.12207031,0.61035156,0.0,0.0,0.0,143.56384,70.52673,-104.869995
1766813044562,-0.9433594,0.20654297,-0.26416016,-0.9765625,0.061035156,0.30517578,0.0,0.0,0.0,143.56384,70.52673,-104.869995
1766813044574,-0.9433594,0.20654297,-0.26416016,-0.9765625,0.061035156,0.30517578,0.0,0.0,0.0,143.49792,70.48828,-104.853516
1766813044662,-0.9453125,0.20507812,-0.26416016,0.4272461,0.4272461,0.36621094,0.0,0.0,0.0,143.49792,70.48828,-104.853516
1766813044673,-0.9453125,0.20507812,-0.26416016,0.4272461,0.4272461,0.36621094,0.0,0.0,0.0,143.22876,70.4718,-105.05127
1766813044762,-0.9453125,0.19921875,-0.26904297,-0.79345703,0.0,0.9765625,0.0,0.0,0.0,143.22876,70.4718,-105.05127
1766813044773,-0.9453125,0.19921875,-0.26904297,-0.79345703,0.0,0.9765625,0.0,0.0,0.0,143.05847,70.42236,-105.21057
1766813044861,-0.94970703,0.20458984,-0.26611328,-0.7324219,0.36621094,0.18310547,0.0,0.0,0.0,143.05847,70.42236,-105.21057
1766813044873,-0.94970703,0.20458984,-0.26611328,-0.7324219,0.36621094,0.18310547,0.0,0.0,0.0,142.90466,70.389404,-105.303955
1766813044961,-0.9404297,0.21142578,-0.26367188,-0.9765625,-0.12207031,0.36621094,0.0,0.0,0.0,142.90466,70.389404,-105.303955
1766813044973,-0.9404297,0.21142578,-0.26367188,-0.9765625,-0.12207031,0.36621094,0.0,0.0,0.0,142.78381,70.33447,-105.3479
1766813045061,-0.94433594,0.2055664,-0.26513672,0.0,0.18310547,-0.18310547,0.0,0.0,0.0,142.78381,70.33447,-105.3479
1766813045072,-0.94433594,0.2055664,-0.26513672,0.0,0.18310547,-0.18310547,0.0,0.0,0.0,142.72888,70.32898,-105.34241
1766813045161,-0.94384766,0.20898438,-0.2631836,0.36621094,0.061035156,-0.6713867,0.0,0.0,0.0,142.72888,70.32898,-105.34241
1766813045172,-0.94384766,0.20898438,-0.2631836,0.36621094,0.061035156,-0.6713867,0.0,0.0,0.0,142.80579,70.34546,-105.232544
1766813045260,-0.9453125,0.20214844,-0.26660156,0.24414062,-0.30517578,-0.9765625,0.0,0.0,0.0,142.80579,70.34546,-105.232544
1766813045272,-0.9453125,0.20214844,-0.26660156,0.24414062,-0.30517578,-0.9765625,0.0,0.0,0.0,142.93762,70.389404,-105.078735
1766813045360,-0.94873047,0.20410156,-0.26757812,0.061035156,0.0,-0.5493164,0.0,0.0,0.0,142.93762,70.389404,-105.078735
1766813045371,-0.94873047,0.20410156,-0.26757812,0.061035156,0.0,-0.5493164,0.0,0.0,0.0,143.05298,70.44983,-104.96887
1766813045460,-0.9428711,0.21044922,-0.2607422,0.9765625,-0.48828125,-0.91552734,0.0,0.0,0.0,143.05298,70.44983,-104.96887
1766813045471,-0.9428711,0.21044922,-0.2607422,0.9765625,-0.48828125,-0.91552734,0.0,0.0,0.0,143.28918,70.477295,-104.765625
1766813045559,-0.9433594,0.19824219,-0.26660156,0.6713867,-0.12207031,-0.8544922,0.0,0.0,0.0,143.28918,70.477295,-104.765625
1766813045571,-0.9433594,0.19824219,-0.26660156,0.6713867,-0.12207031,-0.8544922,0.0,0.0,0.0,143.50891,70.52124,-104.56787
1766813045659,-0.94921875,0.20019531,-0.26611328,0.91552734,0.061035156,-0.8544922,0.0,0.0,0.0,143.50891,70.52124,-104.56787
1766813045671,-0.94921875,0.20019531,-0.26611328,0.91552734,0.061035156,-0.8544922,0.0,0.0,0.0,143.69568,70.57068,-104.41406
1766813045759,-0.9458008,0.19824219,-0.265625,0.12207031,-0.061035156,-0.48828125,0.0,0.0,0.0,143.69568,70.57068,-104.41406
1766813045770,-0.9458008,0.19824219,-0.265625,0.12207031,-0.061035156,-0.48828125,0.0,0.0,0.0,143.90442,70.59265,-104.227295
1766813045859,-0.9482422,0.19921875,-0.26416016,0.61035156,-0.18310547,-0.36621094,0.0,0.0,0.0,143.90442,70.59265,-104.227295
1766813045870,-0.9482422,0.19921875,-0.26416016,0.61035156,-0.18310547,-0.36621094,0.0,0.0,0.0,143.96484,70.6311,-104.17786
1766813045958,-0.9472656,0.19384766,-0.2680664,0.0,0.0,-0.4272461,0.0,0.0,0.0,143.96484,70.6311,-104.17786
1766813045971,-0.9472656,0.19384766,-0.2680664,0.0,0.0,-0.4272461,0.0,0.0,0.0,144.01978,70.653076,-104.122925
1766813046058,-0.9472656,0.19921875,-0.2626953,-0.18310547,-0.12207031,-0.24414062,0.0,0.0,0.0,144.01978,70.653076,-104.122925
1766813046069,-0.9472656,0.19921875,-0.2626953,-0.18310547,-0.12207031,-0.24414062,0.0,0.0,0.0,144.06372,70.66406,-104.05151
1766813046158,-0.9458008,0.1977539,-0.26513672,-0.12207031,-0.18310547,-0.24414062,0.0,0.0,0.0,144.06372,70.66406,-104.05151
1766813046169,-0.9458008,0.1977539,-0.26513672,-0.12207031,-0.18310547,-0.24414062,0.0,0.0,0.0,144.10217,70.67505,-103.99109
1766813046257,-0.9477539,0.19628906,-0.26611328,0.30517578,0.061035156,-0.061035156,0.0,0.0,0.0,144.10217,70.67505,-103.99109
1766813046269,-0.9477539,0.19628906,-0.26611328,0.30517578,0.061035156,-0.061035156,0.0,0.0,0.0,144.14612,70.68054,-103.94165
1766813046357,-0.9472656,0.1953125,-0.26904297,0.0,0.061035156,-0.12207031,0.0,0.0,0.0,144.14612,70.68054,-103.94165
1766813046369,-0.9472656,0.1953125,-0.26904297,0.0,0.061035156,-0.12207031,0.0,0.0,0.0,144.19006,70.68054,-103.897705
1766813046457,-0.9433594,0.19433594,-0.26367188,0.12207031,0.24414062,-0.12207031,0.0,0.0,0.0,144.19006,70.68054,-103.897705
1766813046468,-0.9433594,0.19433594,-0.26367188,0.12207031,0.24414062,-0.12207031,0.0,0.0,0.0,144.19556,70.669556,-103.87573
1766813046557,-0.9482422,0.1977539,-0.265625,-0.6713867,-0.18310547,-0.4272461,0.0,0.0,0.0,144.19556,70.669556,-103.87573
1766813046568,-0.9482422,0.1977539,-0.265625,-0.6713867,-0.18310547,-0.4272461,0.0,0.0,0.0,144.27795,70.69153,-103.760376
1766813046656,-0.94677734,0.19824219,-0.26367188,0.48828125,-0.36621094,-0.18310547,0.0,0.0,0.0,144.27795,70.69153,-103.760376
1766813046668,-0.94677734,0.19824219,-0.26367188,0.48828125,-0.36621094,-0.18310547,0.0,0.0,0.0,144.27795,70.702515,-103.73291
1766813046756,-0.9506836,0.19189453,-0.265625,0.0,-0.24414062,-0.061035156,0.0,0.0,0.0,144.27795,70.702515,-103.73291
1766813046767,-0.9506836,0.19189453,-0.265625,0.0,-0.24414062,-0.061035156,0.0,0.0,0.0,144.25049,70.73547,-103.760376
1766813046856,-0.9453125,0.19482422,-0.26660156,0.0,-0.061035156,-0.061035156,0.0,0.0,0.0,144.25049,70.73547,-103.760376
1766813046867,-0.9453125,0.19482422,-0.26660156,0.0,-0.061035156,-0.061035156,0.0,0.0,0.0,144.30542,70.72998,-103.72742
1766813046955,-0.9472656,0.19677734,-0.26367188,-0.061035156,-0.061035156,0.0,0.0,0.0,0.0,144.30542,70.72998,-103.72742
1766813046967,-0.9472656,0.19677734,-0.26367188,-0.061035156,-0.061035156,0.0,0.0,0.0,0.0,144.30542,70.72449,-103.71094
1766813047055,-0.94677734,0.19384766,-0.265625,-0.30517578,-0.061035156,0.061035156,0.0,0.0,0.0,144.30542,70.72449,-103.71094
1766813047067,-0.94677734,0.19384766,-0.265625,-0.30517578,-0.061035156,0.061035156,0.0,0.0,0.0,144.29443,70.72449,-103.71643
1766813047155,-0.94970703,0.19482422,-0.26611328,0.0,-0.12207031,-0.18310547,0.0,0.0,0.0,144.29443,70.72449,-103.71643
1766813047167,-0.94970703,0.19482422,-0.26611328,0.0,-0.12207031,-0.18310547,0.0,0.0,0.0,144.22302,70.72998,-103.760376
1766813047254,-0.94677734,0.1953125,-0.265625,0.0,0.18310547,0.0,0.0,0.0,0.0,144.22302,70.72998,-103.760376
1766813047266,-0.94677734,0.1953125,-0.265625,0.0,0.18310547,0.0,0.0,0.0,0.0,144.2395,70.718994,-103.72742
1766813047354,-0.9428711,0.19726562,-0.26416016,-0.24414062,0.12207031,0.0,0.0,0.0,0.0,144.2395,70.718994,-103.72742
1766813047366,-0.9428711,0.19726562,-0.26416016,-0.24414062,0.12207031,0.0,0.0,0.0,0.0,144.25049,70.702515,-103.705444
1766813047454,-0.9477539,0.19726562,-0.26367188,0.24414062,0.0,-0.4272461,0.0,0.0,0.0,144.25049,70.702515,-103.705444
1766813047465,-0.9477539,0.19726562,-0.26367188,0.24414062,0.0,-0.4272461,0.0,0.0,0.0,144.34937,70.718994,-103.59009
1766813047554,-0.94433594,0.19433594,-0.265625,0.18310547,-0.30517578,-0.061035156,0.0,0.0,0.0,144.34937,70.718994,-103.59009
1766813047565,-0.94433594,0.19433594,-0.265625,0.18310547,-0.30517578,-0.061035156,0.0,0.0,0.0,144.36035,70.718994,-103.57361
1766813047653,-0.9511719,0.19238281,-0.26611328,-0.24414062,-0.24414062,0.0,0.0,0.0,0.0,144.36035,70.718994,-103.57361
1766813047665,-0.9511719,0.19238281,-0.26611328,-0.24414062,-0.24414062,0.0,0.0,0.0,0.0,144.29993,70.74646,-103.62854
1766813047753,-0.94873047,0.19677734,-0.26611328,-0.18310547,0.0,0.061035156,0.0,0.0,0.0,144.29993,70.74646,-103.62854
1766813047764,-0.94873047,0.19677734,-0.26611328,-0.18310547,0.0,0.061035156,0.0,0.0,0.0,144.28345,70.74097,-103.63403
1766813047853,-0.94873047,0.1977539,-0.26367188,-0.18310547,0.0,0.18310547,0.0,0.0,0.0,144.28345,70.74097,-103.63403
1766813047864,-0.94873047,0.1977539,-0.26367188,-0.18310547,0.0,0.18310547,0.0,0.0,0.0,144.14062,70.7135,-103.72742
1766813047952,-0.9477539,0.1953125,-0.26464844,-0.061035156,0.061035156,0.48828125,0.0,0.0,0.0,144.14062,70.7135,-103.72742
1766813047964,-0.9477539,0.1953125,-0.26464844,-0.061035156,0.061035156,0.48828125,0.0,0.0,0.0,144.05273,70.686035,-103.793335
1766813048052,-0.9477539,0.1928711,-0.26953125,-0.9765625,0.18310547,0.5493164,0.0,0.0,0.0,144.05273,70.686035,-103.793335
1766813048064,-0.9477539,0.1928711,-0.26953125,-0.9765625,0.18310547,0.5493164,0.0,0.0,0.0,143.94287,70.64209,-103.87573
1766813048152,-0.94628906,0.19970703,-0.26464844,-0.36621094,0.4272461,0.48828125,0.0,0.0,0.0,143.94287,70.64209,-103.87573
1766813048163,-0.94628906,0.19970703,-0.26464844,-0.36621094,0.4272461,0.48828125,0.0,0.0,0.0,143.82751,70.58716,-103.91968
1766813048252,-0.94970703,0.203125,-0.26220703,-0.12207031,0.5493164,0.30517578,0.0,0.0,0.0,143.82751,70.58716,-103.91968
1766813048264,-0.94970703,0.203125,-0.26220703,-0.12207031,0.5493164,0.30517578,0.0,0.0,0.0,143.60779,70.55969,-104.07898
1766813048351,-0.94677734,0.19921875,-0.2680664,0.061035156,0.0,0.36621094,0.0,0.0,0.0,143.60779,70.55969,-104.07898
1766813048363,-0.94677734,0.19921875,-0.2680664,0.061035156,0.0,0.36621094,0.0,0.0,0.0,143.52539,70.510254,-104.12842
1766813048451,-0.9458008,0.2006836,-0.2680664,-0.79345703,0.061035156,0.24414062,0.0,0.0,0.0,143.52539,70.510254,-104.12842
1766813048462,-0.9458008,0.2006836,-0.2680664,-0.79345703,0.061035156,0.24414062,0.0,0.0,0.0,143.41003,70.477295,-104.20532
1766813048551,-0.94628906,0.20654297,-0.2626953,-0.7324219,-0.12207031,0.36621094,0.0,0.0,0.0,143.41003,70.477295,-104.20532
1766813048562,-0.94628906,0.20654297,-0.2626953,-0.7324219,-0.12207031,0.36621094,0.0,0.0,0.0,143.29468,70.45532,-104.25476
1766813048650,-0.9453125,0.20166016,-0.26708984,-0.61035156,0.12207031,0.5493164,0.0,0.0,0.0,143.29468,70.45532,-104.25476
1766813048662,-0.9453125,0.20166016,-0.26708984,-0.61035156,0.12207031,0.5493164,0.0,0.0,0.0,143.15735,70.41687,-104.33716
