timestamp,accX,accY,accZ,gyroX,gyroY,gyroZ,magX,magY,magZ,roll,pitch,yaw
1765589545301,-0.94970703,0.2861328,-0.15185547,-0.12207031,0.0,0.0,0.0,0.0,0.0,118.45459,70.84534,-168.78845
1765589545313,-0.94970703,0.2861328,-0.15185547,-0.12207031,0.0,0.0,0.0,0.0,0.0,118.4436,70.83984,-168.79944
1765589545401,-0.94970703,0.28808594,-0.14990234,-0.24414062,0.061035156,0.0,0.0,0.0,0.0,118.4436,70.83984,-168.79944
1765589545413,-0.94970703,0.28808594,-0.14990234,-0.24414062,0.061035156,0.0,0.0,0.0,0.0,118.4491,70.83984,-168.78845
1765589545502,-0.94921875,0.28759766,-0.15136719,-0.12207031,0.0,0.0,0.0,0.0,0.0,118.4491,70.83984,-168.78845
1765589545513,-0.94921875,0.28759766,-0.15136719,-0.12207031,0.0,0.0,0.0,0.0,0.0,118.41614,70.83984,-168.82141
1765589545600,-0.94873047,0.29052734,-0.15283203,0.0,0.18310547,0.0,0.0,0.0,0.0,118.41614,70.83984,-168.82141
1765589545612,-0.94873047,0.29052734,-0.15283203,0.0,0.18310547,0.0,0.0,0.0,0.0,118.39966,70.84534,-168.85437
1765589545700,-0.94970703,0.29052734,-0.15136719,0.0,0.4272461,0.0,0.0,0.0,0.0,118.39966,70.84534,-168.85437
1765589545712,-0.94970703,0.29052734,-0.15136719,0.0,0.4272461,0.0,0.0,0.0,0.0,118.43811,70.83984,-168.8324
1765589545800,-0.94677734,0.2890625,-0.1538086,0.0,-0.18310547,-0.061035156,0.0,0.0,0.0,118.43811,70.83984,-168.8324
1765589545811,-0.94677734,0.2890625,-0.1538086,0.0,-0.18310547,-0.061035156,0.0,0.0,0.0,118.427124,70.85083,-168.82141
1765589545900,-0.94677734,0.2861328,-0.15332031,-0.12207031,0.12207031,0.0,0.0,0.0,0.0,118.427124,70.85083,-168.82141
1765589545911,-0.94677734,0.2861328,-0.15332031,-0.12207031,0.12207031,0.0,0.0,0.0,0.0,118.43811,70.85083,-168.80493
1765589546000,-0.94921875,0.28808594,-0.15283203,-0.12207031,0.24414062,0.0,0.0,0.0,0.0,118.43811,70.85083,-168.80493
1765589546011,-0.94921875,0.28808594,-0.15283203,-0.12207031,0.24414062,0.0,0.0,0.0,0.0,118.465576,70.84534,-168.78296
1765589546099,-0.94628906,0.28759766,-0.15136719,0.061035156,-0.18310547,0.061035156,0.0,0.0,0.0,118.465576,70.84534,-168.78296
1765589546111,-0.94628906,0.28759766,-0.15136719,0.061035156,-0.18310547,0.061035156,0.0,0.0,0.0,118.45459,70.84534,-168.78845
1765589546199,-0.9477539,0.28710938,-0.15283203,0.0,0.0,0.0,0.0,0.0,0.0,118.45459,70.84534,-168.78845
1765589546210,-0.9477539,0.28710938,-0.15283203,0.0,0.0,0.0,0.0,0.0,0.0,118.4491,70.84534,-168.79944
1765589546299,-0.94677734,0.28759766,-0.15332031,-0.061035156,0.12207031,0.0,0.0,0.0,0.0,118.4491,70.84534,-168.79944
1765589546310,-0.94677734,0.28759766,-0.15332031,-0.061035156,0.12207031,0.0,0.0,0.0,0.0,118.465576,70.83984,-168.78845
1765589546398,-0.9501953,0.28857422,-0.15185547,-0.12207031,-0.061035156,0.0,0.0,0.0,0.0,118.465576,70.83984,-168.78845
1765589546410,-0.9501953,0.28857422,-0.15185547,-0.12207031,-0.061035156,0.0,0.0,0.0,0.0,118.482056,70.82886,-168.76099
1765589546498,-0.9477539,0.28710938,-0.15332031,0.0,-0.30517578,0.0,0.0,0.0,0.0,118.482056,70.82886,-168.76099
1765589546510,-0.9477539,0.28710938,-0.15332031,0.0,-0.30517578,0.0,0.0,0.0,0.0,118.43262,70.83435,-168.80493
1765589546598,-0.94873047,0.2866211,-0.1538086,-0.30517578,-0.061035156,0.0,0.0,0.0,0.0,118.43262,70.83435,-168.80493
1765589546609,-0.94873047,0.2866211,-0.1538086,-0.30517578,-0.061035156,0.0,0.0,0.0,0.0,118.42163,70.83435,-168.81042
1765589546697,-0.94873047,0.2866211,-0.15234375,0.48828125,-0.4272461,0.0,0.0,0.0,0.0,118.42163,70.83435,-168.81042
1765589546709,-0.94873047,0.2866211,-0.15234375,0.48828125,-0.4272461,0.0,0.0,0.0,0.0,118.38867,70.83984,-168.85437
1765589546797,-0.9482422,0.28466797,-0.1484375,-0.5493164,0.4272461,0.0,0.0,0.0,0.0,118.38867,70.83984,-168.85437
1765589546809,-0.9482422,0.28466797,-0.1484375,-0.5493164,0.4272461,0.0,0.0,0.0,0.0,118.45459,70.823364,-168.77197
1765589546897,-0.94921875,0.28759766,-0.1508789,-0.24414062,0.12207031,0.0,0.0,0.0,0.0,118.45459,70.823364,-168.77197
1765589546908,-0.94921875,0.28759766,-0.1508789,-0.24414062,0.12207031,0.0,0.0,0.0,0.0,118.410645,70.82886,-168.82141
1765589546997,-0.94628906,0.28515625,-0.15136719,-0.061035156,0.24414062,0.0,0.0,0.0,0.0,118.410645,70.82886,-168.82141
1765589547008,-0.94628906,0.28515625,-0.15136719,-0.061035156,0.24414062,0.0,0.0,0.0,0.0,118.43262,70.823364,-168.79944
1765589547096,-0.9511719,0.28564453,-0.14794922,-0.4272461,0.24414062,0.0,0.0,0.0,0.0,118.43262,70.823364,-168.79944
1765589547108,-0.9511719,0.28564453,-0.14794922,-0.4272461,0.24414062,0.0,0.0,0.0,0.0,118.46008,70.81787,-168.75
1765589547196,-0.9472656,0.28857422,-0.15332031,-0.12207031,0.0,0.0,0.0,0.0,0.0,118.46008,70.81787,-168.75
1765589547208,-0.9472656,0.28857422,-0.15332031,-0.12207031,0.0,0.0,0.0,0.0,0.0,118.394165,70.82886,-168.81042
1765589547296,-0.9472656,0.2866211,-0.15185547,-0.18310547,0.061035156,0.0,0.0,0.0,0.0,118.394165,70.82886,-168.81042
1765589547307,-0.9472656,0.2866211,-0.15185547,-0.18310547,0.061035156,0.0,0.0,0.0,0.0,118.39966,70.823364,-168.79395
1765589547395,-0.94970703,0.28857422,-0.15136719,0.0,0.061035156,0.0,0.0,0.0,0.0,118.39966,70.823364,-168.79395
1765589547407,-0.94970703,0.28857422,-0.15136719,0.0,0.061035156,0.0,0.0,0.0,0.0,118.40515,70.823364,-168.78296
1765589547495,-0.9477539,0.28808594,-0.15234375,-0.12207031,0.0,0.0,0.0,0.0,0.0,118.40515,70.823364,-168.78296
1765589547507,-0.9477539,0.28808594,-0.15234375,-0.12207031,0.0,0.0,0.0,0.0,0.0,118.40515,70.823364,-168.78845
1765589547595,-0.94970703,0.28710938,-0.1508789,-0.061035156,0.061035156,0.0,0.0,0.0,0.0,118.40515,70.823364,-168.78845
1765589547606,-0.94970703,0.28710938,-0.1508789,-0.061035156,0.061035156,0.0,0.0,0.0,0.0,118.38318,70.823364,-168.79395
1765589547695,-0.94677734,0.2890625,-0.15283203,0.18310547,0.12207031,0.0,0.0,0.0,0.0,118.38318,70.823364,-168.79395
1765589547706,-0.94677734,0.2890625,-0.15283203,0.18310547,0.12207031,0.0,0.0,0.0,0.0,118.3667,70.82886,-168.82141
1765589547794,-0.94873047,0.29052734,-0.15478516,0.12207031,0.061035156,0.0,0.0,0.0,0.0,118.3667,70.82886,-168.82141
1765589547806,-0.94873047,0.29052734,-0.15478516,0.12207031,0.061035156,0.0,0.0,0.0,0.0,118.37219,70.82886,-168.83789
1765589547894,-0.9453125,0.2866211,-0.15576172,0.36621094,-0.8544922,0.30517578,0.0,0.0,0.0,118.37219,70.82886,-168.83789
1765589547906,-0.9453125,0.2866211,-0.15576172,0.36621094,-0.8544922,0.30517578,0.0,0.0,0.0,118.37219,70.823364,-168.81592
1765589547994,-0.9501953,0.28759766,-0.15136719,0.0,-0.24414062,-0.12207031,0.0,0.0,0.0,118.37219,70.823364,-168.81592
1765589548005,-0.9501953,0.28759766,-0.15136719,0.0,-0.24414062,-0.12207031,0.0,0.0,0.0,118.31726,70.81787,-168.88184
1765589548094,-0.94873047,0.2890625,-0.15429688,-0.5493164,-0.24414062,-0.18310547,0.0,0.0,0.0,118.31726,70.81787,-168.88184
1765589548105,-0.94873047,0.2890625,-0.15429688,-0.5493164,-0.24414062,-0.18310547,0.0,0.0,0.0,118.289795,70.83435,-168.89282
1765589548193,-0.94921875,0.28857422,-0.14746094,-0.24414062,-0.5493164,0.18310547,0.0,0.0,0.0,118.289795,70.83435,-168.89282
1765589548205,-0.94921875,0.28857422,-0.14746094,-0.24414062,-0.5493164,0.18310547,0.0,0.0,0.0,118.19641,70.84534,-168.93677
1765589548293,-0.9482422,0.28759766,-0.1484375,0.0,0.0,0.061035156,0.0,0.0,0.0,118.19641,70.84534,-168.93677
1765589548305,-0.9482422,0.28759766,-0.1484375,0.0,0.0,0.061035156,0.0,0.0,0.0,118.064575,70.83984,-169.05762
1765589548393,-0.94677734,0.28857422,-0.15136719,0.061035156,0.0,-0.12207031,0.0,0.0,0.0,118.064575,70.83984,-169.05762
1765589548404,-0.94677734,0.28857422,-0.15136719,0.061035156,0.0,-0.12207031,0.0,0.0,0.0,118.081055,70.83984,-169.02466
1765589548492,-0.9472656,0.2890625,-0.15185547,-0.24414062,0.24414062,0.18310547,0.0,0.0,0.0,118.081055,70.83984,-169.02466
1765589548505,-0.9472656,0.2890625,-0.15185547,-0.24414062,0.24414062,0.18310547,0.0,0.0,0.0,118.125,70.83435,-168.97522
1765589548592,-0.94921875,0.28857422,-0.15332031,0.4272461,0.30517578,0.30517578,0.0,0.0,0.0,118.125,70.83435,-168.97522
1765589548604,-0.94921875,0.28857422,-0.15332031,0.4272461,0.30517578,0.30517578,0.0,0.0,0.0,118.2074,70.77942,-168.89282
1765589548692,-0.94970703,0.28857422,-0.15039062,-0.061035156,-0.061035156,-0.18310547,0.0,0.0,0.0,118.2074,70.77942,-168.89282
1765589548703,-0.94970703,0.28857422,-0.15039062,-0.061035156,-0.061035156,-0.18310547,0.0,0.0,0.0,118.25134,70.76843,-168.87085
1765589548792,-0.94921875,0.2890625,-0.14892578,0.30517578,-0.061035156,-0.24414062,0.0,0.0,0.0,118.25134,70.76843,-168.87085
1765589548803,-0.94921875,0.2890625,-0.14892578,0.30517578,-0.061035156,-0.24414062,0.0,0.0,0.0,118.23486,70.7959,-168.89282
1765589548891,-0.94970703,0.28808594,-0.14550781,-0.061035156,1.5258789,-0.30517578,0.0,0.0,0.0,118.23486,70.7959,-168.89282
1765589548903,-0.94970703,0.28808594,-0.14550781,-0.061035156,1.5258789,-0.30517578,0.0,0.0,0.0,118.42163,70.76843,-168.71155
1765589548991,-0.9458008,0.29003906,-0.15478516,0.48828125,0.30517578,0.12207031,0.0,0.0,0.0,118.42163,70.76843,-168.71155
1765589549003,-0.9458008,0.29003906,-0.15478516,0.48828125,0.30517578,0.12207031,0.0,0.0,0.0,118.61389,70.74646,-168.55225
1765589549091,-0.9506836,0.28710938,-0.1508789,0.18310547,0.36621094,-0.061035156,0.0,0.0,0.0,118.61389,70.74646,-168.55225
1765589549102,-0.9506836,0.28710938,-0.1508789,0.18310547,0.36621094,-0.061035156,0.0,0.0,0.0,118.7677,70.718994,-168.45337
1765589549191,-0.9472656,0.28710938,-0.15527344,-0.061035156,0.8544922,-0.061035156,0.0,0.0,0.0,118.7677,70.718994,-168.45337
1765589549202,-0.9472656,0.28710938,-0.15527344,-0.061035156,0.8544922,-0.061035156,0.0,0.0,0.0,118.75122,70.72998,-168.5138
1765589549290,-0.94628906,0.28759766,-0.15478516,0.7324219,-0.24414062,0.12207031,0.0,0.0,0.0,118.75122,70.72998,-168.5138
1765589549302,-0.94628906,0.28759766,-0.15478516,0.7324219,-0.24414062,0.12207031,0.0,0.0,0.0,118.8501,70.7135,-168.45886
1765589549390,-0.94873047,0.28955078,-0.15576172,0.0,0.24414062,0.061035156,0.0,0.0,0.0,118.8501,70.7135,-168.45886
1765589549401,-0.94873047,0.28955078,-0.15576172,0.0,0.24414062,0.061035156,0.0,0.0,0.0,118.89404,70.70801,-168.44238
1765589549490,-0.9472656,0.28564453,-0.15673828,-0.4272461,-0.12207031,0.0,0.0,0.0,0.0,118.89404,70.70801,-168.44238
1765589549502,-0.9472656,0.28564453,-0.15673828,-0.4272461,-0.12207031,0.0,0.0,0.0,0.0,118.83362,70.7135,-168.51929
1765589549591,-0.9472656,0.2841797,-0.15478516,-0.5493164,-0.24414062,-0.4272461,0.0,0.0,0.0,118.83362,70.7135,-168.51929
1765589549601,-0.9472656,0.2841797,-0.15478516,-0.5493164,-0.24414062,-0.4272461,0.0,0.0,0.0,118.78418,70.76294,-168.52478
1765589549689,-0.94433594,0.2866211,-0.15722656,0.36621094,-0.36621094,0.0,0.0,0.0,0.0,118.78418,70.76294,-168.52478
1765589549701,-0.94433594,0.2866211,-0.15722656,0.36621094,-0.36621094,0.0,0.0,0.0,0.0,118.707275,70.78491,-168.60718
1765589549789,-0.94628906,0.2915039,-0.15234375,1.159668,-0.18310547,0.36621094,0.0,0.0,0.0,118.707275,70.78491,-168.60718
1765589549801,-0.94628906,0.2915039,-0.15234375,1.159668,-0.18310547,0.36621094,0.0,0.0,0.0,118.70178,70.76843,-168.70056
1765589549888,-0.9506836,0.2866211,-0.15429688,0.30517578,0.12207031,-0.61035156,0.0,0.0,0.0,118.70178,70.76843,-168.70056
1765589549900,-0.9506836,0.2866211,-0.15429688,0.30517578,0.12207031,-0.61035156,0.0,0.0,0.0,118.77319,70.77942,-168.69507
1765589549988,-0.94189453,0.2890625,-0.16064453,0.48828125,0.30517578,-0.061035156,0.0,0.0,0.0,118.77319,70.77942,-168.69507
1765589550000,-0.94189453,0.2890625,-0.16064453,0.48828125,0.30517578,-0.061035156,0.0,0.0,0.0,118.94348,70.790405,-168.57971
1765589550088,-0.9536133,0.28808594,-0.15429688,0.24414062,0.0,0.4272461,0.0,0.0,0.0,118.94348,70.790405,-168.57971
1765589550099,-0.9536133,0.28808594,-0.15429688,0.24414062,0.0,0.4272461,0.0,0.0,0.0,119.0863,70.73547,-168.4259
1765589550188,-0.9506836,0.29003906,-0.15283203,-0.5493164,-1.5869141,0.61035156,0.0,0.0,0.0,119.0863,70.73547,-168.4259
1765589550199,-0.9506836,0.29003906,-0.15283203,-0.5493164,-1.5869141,0.61035156,0.0,0.0,0.0,118.71826,70.73547,-168.82141
1765589550287,-0.9428711,0.27783203,-0.15429688,0.30517578,-0.7324219,0.12207031,0.0,0.0,0.0,118.71826,70.73547,-168.82141
1765589550299,-0.9428711,0.27783203,-0.15429688,0.30517578,-0.7324219,0.12207031,0.0,0.0,0.0,118.410645,70.74097,-169.08508
1765589550387,-0.95166016,0.2993164,-0.14990234,0.36621094,0.0,0.0,0.0,0.0,0.0,118.410645,70.74097,-169.08508
1765589550399,-0.95166016,0.2993164,-0.14990234,0.36621094,0.0,0.0,0.0,0.0,0.0,118.410645,70.76843,-169.1565
1765589550487,-0.9511719,0.29248047,-0.14550781,0.36621094,-1.5869141,0.91552734,0.0,0.0,0.0,118.410645,70.76843,-169.1565
1765589550498,-0.9511719,0.29248047,-0.14550781,0.36621094,-1.5869141,0.91552734,0.0,0.0,0.0,118.17993,70.75195,-169.40918
1765589550586,-0.9433594,0.28857422,-0.15576172,0.4272461,-0.24414062,0.24414062,0.0,0.0,0.0,118.17993,70.75195,-169.40918
1765589550598,-0.9433594,0.28857422,-0.15576172,0.4272461,-0.24414062,0.24414062,0.0,0.0,0.0,117.822876,70.74646,-169.84863
1765589550686,-0.9458008,0.2861328,-0.15234375,-0.8544922,0.61035156,-0.4272461,0.0,0.0,0.0,117.822876,70.74646,-169.84863
1765589550698,-0.9458008,0.2861328,-0.15234375,-0.8544922,0.61035156,-0.4272461,0.0,0.0,0.0,117.90527,70.72998,-169.72229
1765589550786,-0.94628906,0.29345703,-0.14794922,1.3427734,0.0,-0.30517578,0.0,0.0,0.0,117.90527,70.72998,-169.72229
1765589550798,-0.94628906,0.29345703,-0.14794922,1.3427734,0.0,-0.30517578,0.0,0.0,0.0,118.097534,70.773926,-169.50806
1765589550886,-0.94677734,0.29736328,-0.15820312,-0.6713867,0.4272461,0.061035156,0.0,0.0,0.0,118.097534,70.773926,-169.50806
1765589550897,-0.94677734,0.29736328,-0.15820312,-0.6713867,0.4272461,0.061035156,0.0,0.0,0.0,118.03162,70.77942,-169.61243
1765589550985,-0.94970703,0.2866211,-0.1484375,-0.5493164,0.12207031,-0.18310547,0.0,0.0,0.0,118.03162,70.77942,-169.61243
1765589550997,-0.94970703,0.2866211,-0.1484375,-0.5493164,0.12207031,-0.18310547,0.0,0.0,0.0,118.26782,70.7135,-169.27734
1765589551085,-0.9477539,0.28955078,-0.14990234,0.0,-0.4272461,0.0,0.0,0.0,0.0,118.26782,70.7135,-169.27734
1765589551097,-0.9477539,0.28955078,-0.14990234,0.0,-0.4272461,0.0,0.0,0.0,0.0,118.125,70.72998,-169.3872
1765589551185,-0.94677734,0.28955078,-0.15576172,-0.18310547,0.36621094,-0.12207031,0.0,0.0,0.0,118.125,70.72998,-169.3872
1765589551196,-0.94677734,0.28955078,-0.15576172,-0.18310547,0.36621094,-0.12207031,0.0,0.0,0.0,118.15796,70.74646,-169.33228
1765589551285,-0.95214844,0.28808594,-0.1484375,0.24414062,-0.30517578,0.12207031,0.0,0.0,0.0,118.15796,70.74646,-169.33228
1765589551296,-0.95214844,0.28808594,-0.1484375,0.24414062,-0.30517578,0.12207031,0.0,0.0,0.0,118.289795,70.72998,-169.18396
1765589551384,-0.9472656,0.29101562,-0.15234375,-0.18310547,-0.18310547,0.0,0.0,0.0,0.0,118.289795,70.72998,-169.18396
1765589551396,-0.9472656,0.29101562,-0.15234375,-0.18310547,-0.18310547,0.0,0.0,0.0,0.0,118.185425,70.73547,-169.3103
1765589551484,-0.94433594,0.28857422,-0.15332031,-0.12207031,0.0,0.0,0.0,0.0,0.0,118.185425,70.73547,-169.3103
1765589551496,-0.94433594,0.28857422,-0.15332031,-0.12207031,0.0,0.0,0.0,0.0,0.0,118.15796,70.72998,-169.3158
1765589551584,-0.94921875,0.29052734,-0.14990234,0.0,0.061035156,-0.12207031,0.0,0.0,0.0,118.15796,70.72998,-169.3158
1765589551595,-0.94921875,0.29052734,-0.14990234,0.0,0.061035156,-0.12207031,0.0,0.0,0.0,118.17993,70.72998,-169.28833
1765589551683,-0.94873047,0.2915039,-0.14990234,-0.18310547,0.0,0.0,0.0,0.0,0.0,118.17993,70.72998,-169.28833
1765589551695,-0.94873047,0.2915039,-0.14990234,-0.18310547,0.0,0.0,0.0,0.0,0.0,118.185425,70.72998,-169.28284
1765589551786,-0.94384766,0.28515625,-0.15136719,0.12207031,-0.48828125,0.0,0.0,0.0,0.0,118.185425,70.72998,-169.28284
1765589551795,-0.94384766,0.28515625,-0.15136719,0.12207031,-0.48828125,0.0,0.0,0.0,0.0,118.08655,70.73547,-169.34875
1765589551883,-0.94677734,0.2915039,-0.15820312,0.48828125,0.18310547,0.0,0.0,0.0,0.0,118.08655,70.73547,-169.34875
1765589551895,-0.94677734,0.2915039,-0.15820312,0.48828125,0.18310547,0.0,0.0,0.0,0.0,118.10303,70.73547,-169.35974
1765589551983,-0.9511719,0.2866211,-0.14697266,-0.4272461,-0.48828125,-0.061035156,0.0,0.0,0.0,118.10303,70.73547,-169.35974
1765589551994,-0.9511719,0.2866211,-0.14697266,-0.4272461,-0.48828125,-0.061035156,0.0,0.0,0.0,118.256836,70.7135,-169.18945
1765589552082,-0.94873047,0.2890625,-0.15136719,-0.12207031,0.061035156,0.061035156,0.0,0.0,0.0,118.256836,70.7135,-169.18945
1765589552094,-0.94873047,0.2890625,-0.15136719,-0.12207031,0.061035156,0.061035156,0.0,0.0,0.0,118.081055,70.74097,-169.35974
1765589552184,-0.9448242,0.29101562,-0.1538086,0.061035156,0.0,-0.24414062,0.0,0.0,0.0,118.081055,70.74097,-169.35974
1765589552193,-0.9448242,0.29101562,-0.1538086,0.061035156,0.0,-0.24414062,0.0,0.0,0.0,118.125,70.73547,-169.3103
1765589552282,-0.9536133,0.2890625,-0.14453125,-0.061035156,0.12207031,0.0,0.0,0.0,0.0,118.125,70.73547,-169.3103
1765589552293,-0.9536133,0.2890625,-0.14453125,-0.061035156,0.12207031,0.0,0.0,0.0,0.0,118.23486,70.72998,-169.17847
1765589552382,-0.9472656,0.29052734,-0.15283203,-0.4272461,0.0,-0.18310547,0.0,0.0,0.0,118.23486,70.72998,-169.17847
1765589552393,-0.9472656,0.29052734,-0.15283203,-0.4272461,0.0,-0.18310547,0.0,0.0,0.0,118.13599,70.73547,-169.28833
1765589552481,-0.9458008,0.28808594,-0.15185547,-0.4272461,-0.30517578,-0.9765625,0.0,0.0,0.0,118.13599,70.73547,-169.28833
1765589552493,-0.9458008,0.28808594,-0.15185547,-0.4272461,-0.30517578,-0.9765625,0.0,0.0,0.0,118.14148,70.78491,-169.21143
1765589552581,-0.953125,0.28808594,-0.1484375,0.8544922,0.061035156,0.4272461,0.0,0.0,0.0,118.14148,70.78491,-169.21143
1765589552593,-0.953125,0.28808594,-0.1484375,0.8544922,0.061035156,0.4272461,0.0,0.0,0.0,118.24036,70.806885,-169.11255
1765589552681,-0.9501953,0.2915039,-0.15136719,0.24414062,-0.48828125,0.0,0.0,0.0,0.0,118.24036,70.806885,-169.11255
1765589552692,-0.9501953,0.2915039,-0.15136719,0.24414062,-0.48828125,0.0,0.0,0.0,0.0,118.19641,70.76294,-169.26086
1765589552780,-0.9511719,0.28759766,-0.14990234,-0.18310547,0.12207031,0.0,0.0,0.0,0.0,118.19641,70.76294,-169.26086
1765589552792,-0.9511719,0.28759766,-0.14990234,-0.18310547,0.12207031,0.0,0.0,0.0,0.0,118.152466,70.76843,-169.27734
1765589552880,-0.9477539,0.29296875,-0.15039062,-0.24414062,-0.12207031,0.0,0.0,0.0,0.0,118.152466,70.76843,-169.27734
1765589552892,-0.9477539,0.29296875,-0.15039062,-0.24414062,-0.12207031,0.0,0.0,0.0,0.0,118.152466,70.76843,-169.28833
1765589552980,-0.94970703,0.2939453,-0.14794922,0.0,0.9765625,-0.24414062,0.0,0.0,0.0,118.152466,70.76843,-169.28833
1765589552991,-0.94970703,0.2939453,-0.14794922,0.0,0.9765625,-0.24414062,0.0,0.0,0.0,118.14148,70.77942,-169.32678
1765589553080,-0.9482422,0.28710938,-0.15234375,0.18310547,0.36621094,0.12207031,0.0,0.0,0.0,118.14148,70.77942,-169.32678
1765589553092,-0.9482422,0.28710938,-0.15234375,0.18310547,0.36621094,0.12207031,0.0,0.0,0.0,118.22937,70.76294,-169.22241
1765589553179,-0.94628906,0.28857422,-0.15185547,1.0375977,0.79345703,0.061035156,0.0,0.0,0.0,118.22937,70.76294,-169.22241
1765589553191,-0.94628906,0.28857422,-0.15185547,1.0375977,0.79345703,0.061035156,0.0,0.0,0.0,118.394165,70.74646,-169.10706
1765589553279,-0.94873047,0.2915039,-0.15527344,0.4272461,1.0375977,0.0,0.0,0.0,0.0,118.394165,70.74646,-169.10706
1765589553291,-0.94873047,0.2915039,-0.15527344,0.4272461,1.0375977,0.0,0.0,0.0,0.0,118.71826,70.702515,-168.84338
1765589553379,-0.94677734,0.2919922,-0.15478516,0.7324219,-0.061035156,0.061035156,0.0,0.0,0.0,118.71826,70.702515,-168.84338
1765589553390,-0.94677734,0.2919922,-0.15478516,0.7324219,-0.061035156,0.061035156,0.0,0.0,0.0,118.927,70.66406,-168.68408
1765589553478,-0.9472656,0.28710938,-0.15527344,0.24414062,0.61035156,0.0,0.0,0.0,0.0,118.927,70.66406,-168.68408
1765589553490,-0.9472656,0.28710938,-0.15527344,0.24414062,0.61035156,0.0,0.0,0.0,0.0,118.99292,70.653076,-168.65662
1765589553578,-0.9472656,0.28857422,-0.15917969,0.61035156,0.18310547,0.0,0.0,0.0,0.0,118.99292,70.653076,-168.65662
1765589553590,-0.9472656,0.28857422,-0.15917969,0.61035156,0.18310547,0.0,0.0,0.0,0.0,119.10278,70.64209,-168.59619
1765589553678,-0.94628906,0.28857422,-0.15820312,0.18310547,-0.061035156,0.0,0.0,0.0,0.0,119.10278,70.64209,-168.59619
1765589553690,-0.94628906,0.28857422,-0.15820312,0.18310547,-0.061035156,0.0,0.0,0.0,0.0,119.16321,70.6366,-168.55774
1765589553778,-0.94628906,0.28759766,-0.15966797,-0.48828125,-0.18310547,0.0,0.0,0.0,0.0,119.16321,70.6366,-168.55774
1765589553789,-0.94628906,0.28759766,-0.15966797,-0.48828125,-0.18310547,0.0,0.0,0.0,0.0,119.13025,70.6366,-168.56323
1765589553877,-0.94873047,0.28808594,-0.1586914,-0.18310547,-0.36621094,0.0,0.0,0.0,0.0,119.13025,70.6366,-168.56323
1765589553889,-0.94873047,0.28808594,-0.1586914,-0.18310547,-0.36621094,0.0,0.0,0.0,0.0,119.08081,70.6366,-168.5907
1765589553977,-0.94628906,0.28564453,-0.15966797,0.24414062,0.0,0.0,0.0,0.0,0.0,119.08081,70.6366,-168.5907
1765589553989,-0.94628906,0.28564453,-0.15966797,0.24414062,0.0,0.0,0.0,0.0,0.0,119.05884,70.64209,-168.61267
1765589554077,-0.9448242,0.28710938,-0.15429688,-0.5493164,0.36621094,0.0,0.0,0.0,0.0,119.05884,70.64209,-168.61267
1765589554088,-0.9448242,0.28710938,-0.15429688,-0.5493164,0.36621094,0.0,0.0,0.0,0.0,119.16321,70.62012,-168.48083
1765589554177,-0.9501953,0.28955078,-0.15625,-0.5493164,0.4272461,0.0,0.0,0.0,0.0,119.16321,70.62012,-168.48083
1765589554188,-0.9501953,0.28955078,-0.15625,-0.5493164,0.4272461,0.0,0.0,0.0,0.0,119.18518,70.614624,-168.44238
1765589554277,-0.9458008,0.28710938,-0.15722656,-0.061035156,0.48828125,0.0,0.0,0.0,0.0,119.18518,70.614624,-168.44238
1765589554288,-0.9458008,0.28710938,-0.15722656,-0.061035156,0.48828125,0.0,0.0,0.0,0.0,119.25659,70.598145,-168.35449
1765589554376,-0.94921875,0.28857422,-0.15625,-0.61035156,0.61035156,0.0,0.0,0.0,0.0,119.25659,70.598145,-168.35449
1765589554387,-0.94921875,0.28857422,-0.15625,-0.61035156,0.61035156,0.0,0.0,0.0,0.0,119.295044,70.58716,-168.29956
1765589554476,-0.94677734,0.28857422,-0.16064453,-0.4272461,0.0,0.0,0.0,0.0,0.0,119.295044,70.58716,-168.29956
1765589554487,-0.94677734,0.28857422,-0.16064453,-0.4272461,0.0,0.0,0.0,0.0,0.0,119.23462,70.58716,-168.33252
1765589554575,-0.94677734,0.28759766,-0.15722656,0.0,0.0,0.12207031,0.0,0.0,0.0,119.23462,70.58716,-168.33252
1765589554587,-0.94677734,0.28759766,-0.15722656,0.0,0.0,0.12207031,0.0,0.0,0.0,119.229126,70.598145,-168.31604
1765589554675,-0.94921875,0.28808594,-0.15771484,-0.48828125,-0.061035156,-0.061035156,0.0,0.0,0.0,119.229126,70.598145,-168.31604
1765589554687,-0.94921875,0.28808594,-0.15771484,-0.48828125,-0.061035156,-0.061035156,0.0,0.0,0.0,119.190674,70.598145,-168.32703
1765589554775,-0.9453125,0.29003906,-0.15820312,-0.30517578,-0.24414062,-0.18310547,0.0,0.0,0.0,119.190674,70.598145,-168.32703
1765589554786,-0.9453125,0.29003906,-0.15820312,-0.30517578,-0.24414062,-0.18310547,0.0,0.0,0.0,119.124756,70.62561,-168.37646
1765589554875,-0.94384766,0.28759766,-0.15576172,-0.061035156,-0.48828125,-0.061035156,0.0,0.0,0.0,119.124756,70.62561,-168.37646
1765589554886,-0.94384766,0.28759766,-0.15576172,-0.061035156,-0.48828125,-0.061035156,0.0,0.0,0.0,119.0094,70.64758,-168.46436
1765589554975,-0.94873047,0.29003906,-0.15136719,0.18310547,0.30517578,0.0,0.0,0.0,0.0,119.0094,70.64758,-168.46436
1765589554986,-0.94873047,0.29003906,-0.15136719,0.18310547,0.30517578,0.0,0.0,0.0,0.0,118.99292,70.65857,-168.49731
1765589555074,-0.94433594,0.29003906,-0.16015625,0.0,0.0,-0.12207031,0.0,0.0,0.0,118.99292,70.65857,-168.49731
1765589555085,-0.94433594,0.29003906,-0.16015625,0.0,0.0,-0.12207031,0.0,0.0,0.0,118.948975,70.653076,-168.5907
1765589555174,-0.94677734,0.28759766,-0.1616211,0.0,-0.6713867,-0.061035156,0.0,0.0,0.0,118.948975,70.653076,-168.5907
1765589555185,-0.94677734,0.28759766,-0.1616211,0.0,-0.6713867,-0.061035156,0.0,0.0,0.0,118.99841,70.669556,-168.5138
1765589555273,-0.94628906,0.28710938,-0.15478516,-0.48828125,-0.4272461,-0.30517578,0.0,0.0,0.0,118.99841,70.669556,-168.5138
1765589555285,-0.94628906,0.28710938,-0.15478516,-0.48828125,-0.4272461,-0.30517578,0.0,0.0,0.0,118.948975,70.686035,-168.53577
1765589555373,-0.9458008,0.2866211,-0.15527344,-0.30517578,-0.30517578,0.0,0.0,0.0,0.0,118.948975,70.686035,-168.53577
1765589555385,-0.9458008,0.2866211,-0.15527344,-0.30517578,-0.30517578,0.0,0.0,0.0,0.0,118.82263,70.70801,-168.61267
1765589555473,-0.9536133,0.2861328,-0.14892578,0.8544922,0.0,0.4272461,0.0,0.0,0.0,118.82263,70.70801,-168.61267
1765589555485,-0.9536133,0.2861328,-0.14892578,0.8544922,0.0,0.4272461,0.0,0.0,0.0,118.88855,70.69153,-168.56873
1765589555573,-0.94677734,0.29052734,-0.16015625,-0.061035156,0.24414062,0.0,0.0,0.0,0.0,118.88855,70.69153,-168.56873
1765589555584,-0.94677734,0.29052734,-0.16015625,-0.061035156,0.24414062,0.0,0.0,0.0,0.0,118.861084,70.68054,-168.64563
1765589555672,-0.94677734,0.29003906,-0.15917969,0.18310547,0.061035156,0.0,0.0,0.0,0.0,118.861084,70.68054,-168.64563
1765589555684,-0.94677734,0.29003906,-0.15917969,0.18310547,0.061035156,0.0,0.0,0.0,0.0,118.916016,70.68054,-168.5907
1765589555772,-0.9477539,0.28955078,-0.15625,-0.12207031,-0.12207031,0.0,0.0,0.0,0.0,118.916016,70.68054,-168.5907
1765589555784,-0.9477539,0.28955078,-0.15625,-0.12207031,-0.12207031,0.0,0.0,0.0,0.0,118.916016,70.66406,-168.59619
1765589555872,-0.94677734,0.28759766,-0.15429688,-0.36621094,-0.36621094,-0.12207031,0.0,0.0,0.0,118.916016,70.66406,-168.59619
1765589555884,-0.94677734,0.28759766,-0.15429688,-0.36621094,-0.36621094,-0.12207031,0.0,0.0,0.0,118.80615,70.686035,-168.6731
1765589555972,-0.9472656,0.28857422,-0.15332031,-0.18310547,-0.061035156,-0.061035156,0.0,0.0,0.0,118.80615,70.686035,-168.6731
1765589555983,-0.9472656,0.28857422,-0.15332031,-0.18310547,-0.061035156,-0.061035156,0.0,0.0,0.0,118.77319,70.69702,-168.68958
1765589556071,-0.9482422,0.28955078,-0.15136719,-0.30517578,-0.12207031,0.0,0.0,0.0,0.0,118.77319,70.69702,-168.68958
1765589556083,-0.9482422,0.28955078,-0.15136719,-0.30517578,-0.12207031,0.0,0.0,0.0,0.0,118.73474,70.70801,-168.71704
1765589556171,-0.9501953,0.29052734,-0.15185547,0.12207031,0.91552734,0.0,0.0,0.0,0.0,118.73474,70.70801,-168.71704
1765589556183,-0.9501953,0.29052734,-0.15185547,0.12207031,0.91552734,0.0,0.0,0.0,0.0,118.75122,70.702515,-168.71704
1765589556271,-0.9448242,0.29052734,-0.16015625,0.0,-0.061035156,0.0,0.0,0.0,0.0,118.75122,70.702515,-168.71704
1765589556282,-0.9448242,0.29052734,-0.16015625,0.0,-0.061035156,0.0,0.0,0.0,0.0,118.78967,70.69702,-168.69507
1765589556370,-0.94677734,0.28759766,-0.15478516,0.0,0.061035156,0.0,0.0,0.0,0.0,118.78967,70.69702,-168.69507
1765589556382,-0.94677734,0.28759766,-0.15478516,0.0,0.061035156,0.0,0.0,0.0,0.0,118.80066,70.69153,-168.6731
1765589556470,-0.9477539,0.29052734,-0.15527344,-0.36621094,0.24414062,0.0,0.0,0.0,0.0,118.80066,70.69153,-168.6731
1765589556482,-0.9477539,0.29052734,-0.15527344,-0.36621094,0.24414062,0.0,0.0,0.0,0.0,118.80615,70.686035,-168.66211
1765589556570,-0.94677734,0.28808594,-0.1538086,0.4272461,-0.48828125,0.0,0.0,0.0,0.0,118.80615,70.686035,-168.66211
1765589556582,-0.94677734,0.28808594,-0.1538086,0.4272461,-0.48828125,0.0,0.0,0.0,0.0,118.77869,70.69153,-168.68958
1765589556670,-0.9482422,0.28857422,-0.15527344,-0.12207031,0.12207031,0.0,0.0,0.0,0.0,118.77869,70.69153,-168.68958
1765589556681,-0.9482422,0.28857422,-0.15527344,-0.12207031,0.12207031,0.0,0.0,0.0,0.0,118.7677,70.69153,-168.70605
1765589556770,-0.9477539,0.28857422,-0.15673828,-0.24414062,0.24414062,0.0,0.0,0.0,0.0,118.7677,70.69153,-168.70605
1765589556781,-0.9477539,0.28857422,-0.15673828,-0.24414062,0.24414062,0.0,0.0,0.0,0.0,118.77869,70.686035,-168.6731
1765589556869,-0.9472656,0.28857422,-0.15527344,0.061035156,-0.12207031,0.0,0.0,0.0,0.0,118.77869,70.686035,-168.6731
1765589556881,-0.9472656,0.28857422,-0.15527344,0.061035156,-0.12207031,0.0,0.0,0.0,0.0,118.77869,70.68054,-168.66211
1765589556969,-0.9482422,0.28710938,-0.15527344,0.0,0.36621094,0.0,0.0,0.0,0.0,118.77869,70.68054,-168.66211
1765589556980,-0.9482422,0.28710938,-0.15527344,0.0,0.36621094,0.0,0.0,0.0,0.0,118.80066,70.67505,-168.62915
1765589557068,-0.94970703,0.28808594,-0.15429688,0.30517578,0.8544922,0.0,0.0,0.0,0.0,118.80066,70.67505,-168.62915
1765589557080,-0.94970703,0.28808594,-0.15429688,0.30517578,0.8544922,0.0,0.0,0.0,0.0,119.0094,70.6366,-168.43689
1765589557168,-0.94677734,0.28759766,-0.15820312,0.5493164,0.12207031,0.12207031,0.0,0.0,0.0,119.0094,70.6366,-168.43689
1765589557180,-0.94677734,0.28759766,-0.15820312,0.5493164,0.12207031,0.12207031,0.0,0.0,0.0,119.11926,70.62012,-168.38196
1765589557268,-0.94873047,0.28955078,-0.15185547,-0.18310547,0.91552734,0.0,0.0,0.0,0.0,119.11926,70.62012,-168.38196
1765589557280,-0.94873047,0.28955078,-0.15185547,-0.18310547,0.91552734,0.0,0.0,0.0,0.0,119.23462,70.59265,-168.31055
1765589557368,-0.94677734,0.2939453,-0.15966797,-0.79345703,0.36621094,-0.48828125,0.0,0.0,0.0,119.23462,70.59265,-168.31055
1765589557379,-0.94677734,0.2939453,-0.15966797,-0.79345703,0.36621094,-0.48828125,0.0,0.0,0.0,119.21265,70.598145,-168.3435
1765589557467,-0.94677734,0.28759766,-0.15820312,0.30517578,0.0,0.0,0.0,0.0,0.0,119.21265,70.598145,-168.3435
1765589557479,-0.94677734,0.28759766,-0.15820312,0.30517578,0.0,0.0,0.0,0.0,0.0,119.2511,70.60364,-168.28308
1765589557567,-0.94677734,0.28857422,-0.15722656,0.30517578,0.6713867,0.0,0.0,0.0,0.0,119.2511,70.60364,-168.28308
1765589557579,-0.94677734,0.28857422,-0.15722656,0.30517578,0.6713867,0.0,0.0,0.0,0.0,119.28406,70.59265,-168.29407
1765589557667,-0.9448242,0.28955078,-0.16015625,0.061035156,0.061035156,-0.12207031,0.0,0.0,0.0,119.28406,70.59265,-168.29407
1765589557678,-0.9448242,0.28955078,-0.16015625,0.061035156,0.061035156,-0.12207031,0.0,0.0,0.0,119.366455,70.58716,-168.24463
1765589557766,-0.94677734,0.28759766,-0.15917969,0.18310547,0.0,0.061035156,0.0,0.0,0.0,119.366455,70.58716,-168.24463
1765589557778,-0.94677734,0.28759766,-0.15917969,0.18310547,0.0,0.061035156,0.0,0.0,0.0,119.43237,70.59265,-168.1842
1765589557866,-0.94384766,0.28955078,-0.16015625,0.12207031,-0.4272461,0.0,0.0,0.0,0.0,119.43237,70.59265,-168.1842
1765589557878,-0.94384766,0.28955078,-0.16015625,0.12207031,-0.4272461,0.0,0.0,0.0,0.0,119.38843,70.58716,-168.25562
1765589557966,-0.94433594,0.29052734,-0.16113281,-0.48828125,-0.12207031,-0.5493164,0.0,0.0,0.0,119.38843,70.58716,-168.25562
1765589557978,-0.94433594,0.29052734,-0.16113281,-0.48828125,-0.12207031,-0.5493164,0.0,0.0,0.0,119.333496,70.614624,-168.30505
1765589558066,-0.9433594,0.28564453,-0.1586914,0.061035156,0.061035156,-0.12207031,0.0,0.0,0.0,119.333496,70.614624,-168.30505
1765589558077,-0.9433594,0.28564453,-0.1586914,0.061035156,0.061035156,-0.12207031,0.0,0.0,0.0,119.32251,70.64758,-168.2666
1765589558165,-0.94433594,0.29003906,-0.16113281,0.061035156,0.24414062,0.0,0.0,0.0,0.0,119.32251,70.64758,-168.2666
1765589558177,-0.94433594,0.29003906,-0.16113281,0.061035156,0.24414062,0.0,0.0,0.0,0.0,119.39392,70.62012,-168.1897
1765589558265,-0.95214844,0.28808594,-0.16015625,-0.30517578,-0.36621094,-0.061035156,0.0,0.0,0.0,119.39392,70.62012,-168.1897
1765589558277,-0.95214844,0.28808594,-0.16015625,-0.30517578,-0.36621094,-0.061035156,0.0,0.0,0.0,119.382935,70.6366,-168.1897
1765589558365,-0.9423828,0.28564453,-0.16308594,0.24414062,-0.12207031,0.0,0.0,0.0,0.0,119.382935,70.6366,-168.1897
1765589558376,-0.9423828,0.28564453,-0.16308594,0.24414062,-0.12207031,0.0,0.0,0.0,0.0,119.43237,70.62561,-168.12378
1765589558464,-0.94873047,0.29003906,-0.1586914,-0.12207031,-0.061035156,-0.18310547,0.0,0.0,0.0,119.43237,70.62561,-168.12378
1765589558476,-0.94873047,0.29003906,-0.1586914,-0.12207031,-0.061035156,-0.18310547,0.0,0.0,0.0,119.45984,70.6311,-168.09631
1765589558564,-0.94628906,0.28857422,-0.16064453,-0.18310547,-0.24414062,0.0,0.0,0.0,0.0,119.45984,70.6311,-168.09631
1765589558576,-0.94628906,0.28857422,-0.16064453,-0.18310547,-0.24414062,0.0,0.0,0.0,0.0,119.42688,70.6366,-168.09082
1765589558664,-0.9472656,0.2890625,-0.15478516,-0.36621094,-0.5493164,0.0,0.0,0.0,0.0,119.42688,70.6366,-168.09082
1765589558676,-0.9472656,0.2890625,-0.15478516,-0.36621094,-0.5493164,0.0,0.0,0.0,0.0,119.34448,70.6366,-168.12378
1765589558764,-0.94970703,0.28808594,-0.15673828,-0.61035156,0.0,-0.24414062,0.0,0.0,0.0,119.34448,70.6366,-168.12378
1765589558775,-0.94970703,0.28808594,-0.15673828,-0.61035156,0.0,-0.24414062,0.0,0.0,0.0,119.25659,70.65857,-168.15674
1765589558863,-0.9477539,0.28759766,-0.15820312,-0.36621094,-0.30517578,0.0,0.0,0.0,0.0,119.25659,70.65857,-168.15674
1765589558875,-0.9477539,0.28759766,-0.15820312,-0.36621094,-0.30517578,0.0,0.0,0.0,0.0,119.13025,70.686035,-168.2721
1765589558963,-0.94873047,0.2890625,-0.15673828,-0.12207031,-0.061035156,-0.30517578,0.0,0.0,0.0,119.13025,70.686035,-168.2721
1765589558975,-0.94873047,0.2890625,-0.15673828,-0.12207031,-0.061035156,-0.30517578,0.0,0.0,0.0,119.06433,70.70801,-168.32703
1765589559063,-0.9482422,0.2841797,-0.15527344,-0.061035156,-0.6713867,0.0,0.0,0.0,0.0,119.06433,70.70801,-168.32703
1765589559074,-0.9482422,0.2841797,-0.15527344,-0.061035156,-0.6713867,0.0,0.0,0.0,0.0,118.99841,70.72449,-168.32703
1765589559163,-0.94970703,0.28759766,-0.15722656,-0.48828125,-0.36621094,0.0,0.0,0.0,0.0,118.99841,70.72449,-168.32703
1765589559174,-0.94970703,0.28759766,-0.15722656,-0.48828125,-0.36621094,0.0,0.0,0.0,0.0,118.916016,70.74097,-168.41492
1765589559262,-0.94677734,0.28466797,-0.15722656,0.061035156,-0.36621094,0.0,0.0,0.0,0.0,118.916016,70.74097,-168.41492
1765589559274,-0.94677734,0.28466797,-0.15722656,0.061035156,-0.36621094,0.0,0.0,0.0,0.0,118.89404,70.74646,-168.4259
1765589559362,-0.94873047,0.2841797,-0.15185547,-0.30517578,0.12207031,-0.061035156,0.0,0.0,0.0,118.89404,70.74646,-168.4259
1765589559374,-0.94873047,0.2841797,-0.15185547,-0.30517578,0.12207031,-0.061035156,0.0,0.0,0.0,118.95996,70.74646,-168.31604
1765589559462,-0.9477539,0.2861328,-0.1538086,-0.30517578,0.12207031,-0.12207031,0.0,0.0,0.0,118.95996,70.74646,-168.31604
1765589559473,-0.9477539,0.2861328,-0.1538086,-0.30517578,0.12207031,-0.12207031,0.0,0.0,0.0,118.91052,70.75745,-168.36548
1765589559561,-0.9448242,0.28466797,-0.15429688,0.12207031,0.12207031,0.0,0.0,0.0,0.0,118.91052,70.75745,-168.36548
1765589559573,-0.9448242,0.28466797,-0.15429688,0.12207031,0.12207031,0.0,0.0,0.0,0.0,118.932495,70.75745,-168.33252
1765589559661,-0.95166016,0.28759766,-0.1508789,-0.61035156,0.18310547,0.0,0.0,0.0,0.0,118.932495,70.75745,-168.33252
1765589559673,-0.95166016,0.28759766,-0.1508789,-0.61035156,0.18310547,0.0,0.0,0.0,0.0,118.932495,70.75195,-168.31604
1765589559761,-0.94873047,0.28710938,-0.15478516,0.0,0.061035156,0.0,0.0,0.0,0.0,118.932495,70.75195,-168.31604
1765589559772,-0.94873047,0.28710938,-0.15478516,0.0,0.061035156,0.0,0.0,0.0,0.0,118.88306,70.75745,-168.35999
1765589559860,-0.9482422,0.28808594,-0.15576172,0.061035156,0.0,0.0,0.0,0.0,0.0,118.88306,70.75745,-168.35999
1765589559872,-0.9482422,0.28808594,-0.15576172,0.061035156,0.0,0.0,0.0,0.0,0.0,118.90503,70.75745,-168.33252
1765589559960,-0.94873047,0.2866211,-0.15527344,-0.061035156,0.0,0.0,0.0,0.0,0.0,118.90503,70.75745,-168.33252
1765589559972,-0.94873047,0.2866211,-0.15527344,-0.061035156,0.0,0.0,0.0,0.0,0.0,118.88855,70.75195,-168.33252
1765589560060,-0.9472656,0.28710938,-0.15527344,-0.061035156,0.0,0.0,0.0,0.0,0.0,118.88855,70.75195,-168.33252
1765589560072,-0.9472656,0.28710938,-0.15527344,-0.061035156,0.0,0.0,0.0,0.0,0.0,118.88855,70.75195,-168.33252
1765589560160,-0.94970703,0.2866211,-0.15283203,0.0,-0.061035156,0.0,0.0,0.0,0.0,118.88855,70.75195,-168.33252
1765589560171,-0.94970703,0.2866211,-0.15283203,0.0,-0.061035156,0.0,0.0,0.0,0.0,118.89404,70.74646,-168.31604
1765589560259,-0.94677734,0.2890625,-0.1538086,-0.30517578,0.18310547,0.0,0.0,0.0,0.0,118.89404,70.74646,-168.31604
1765589560271,-0.94677734,0.2890625,-0.1538086,-0.30517578,0.18310547,0.0,0.0,0.0,0.0,118.87207,70.75195,-168.33801
1765589560359,-0.94970703,0.28857422,-0.15332031,0.0,0.79345703,0.0,0.0,0.0,0.0,118.87207,70.75195,-168.33801
1765589560371,-0.94970703,0.28857422,-0.15332031,0.0,0.79345703,0.0,0.0,0.0,0.0,118.89404,70.74646,-168.31604
1765589560459,-0.9472656,0.29003906,-0.15673828,0.36621094,-0.061035156,0.0,0.0,0.0,0.0,118.89404,70.74646,-168.31604
1765589560470,-0.9472656,0.29003906,-0.15673828,0.36621094,-0.061035156,0.0,0.0,0.0,0.0,118.97644,70.72998,-168.25012
1765589560559,-0.94921875,0.28710938,-0.1538086,0.48828125,0.0,0.0,0.0,0.0,0.0,118.97644,70.72998,-168.25012
1765589560570,-0.94921875,0.28710938,-0.1538086,0.48828125,0.0,0.0,0.0,0.0,0.0,119.00391,70.72998,-168.2666
1765589560658,-0.9511719,0.2866211,-0.15722656,0.0,0.36621094,0.0,0.0,0.0,0.0,119.00391,70.72998,-168.2666
1765589560670,-0.9511719,0.2866211,-0.15722656,0.0,0.36621094,0.0,0.0,0.0,0.0,119.06433,70.718994,-168.23914
1765589560758,-0.94384766,0.2890625,-0.15527344,0.7324219,0.0,0.0,0.0,0.0,0.0,119.06433,70.718994,-168.23914
1765589560770,-0.94384766,0.2890625,-0.15527344,0.7324219,0.0,0.0,0.0,0.0,0.0,119.141235,70.718994,-168.23914
1765589560858,-0.94921875,0.28710938,-0.15722656,-0.36621094,0.4272461,0.0,0.0,0.0,0.0,119.141235,70.718994,-168.23914
1765589560869,-0.94921875,0.28710938,-0.15722656,-0.36621094,0.4272461,0.0,0.0,0.0,0.0,119.15222,70.7135,-168.23914
1765589560957,-0.94628906,0.28955078,-0.16015625,0.12207031,-0.36621094,0.0,0.0,0.0,0.0,119.15222,70.7135,-168.23914
1765589560969,-0.94628906,0.28955078,-0.16015625,0.12207031,-0.36621094,0.0,0.0,0.0,0.0,119.11926,70.718994,-168.28308
1765589561057,-0.94677734,0.2861328,-0.15576172,0.0,0.0,0.0,0.0,0.0,0.0,119.11926,70.718994,-168.28308
1765589561069,-0.94677734,0.2861328,-0.15576172,0.0,0.0,0.0,0.0,0.0,0.0,119.14673,70.70801,-168.2666
1765589561157,-0.9511719,0.28759766,-0.15576172,-0.5493164,-0.18310547,0.0,0.0,0.0,0.0,119.14673,70.70801,-168.2666
1765589561169,-0.9511719,0.28759766,-0.15576172,-0.5493164,-0.18310547,0.0,0.0,0.0,0.0,119.08081,70.7135,-168.31604
1765589561257,-0.94384766,0.29101562,-0.15917969,0.24414062,0.12207031,0.0,0.0,0.0,0.0,119.08081,70.7135,-168.31604
1765589561268,-0.94384766,0.29101562,-0.15917969,0.24414062,0.12207031,0.0,0.0,0.0,0.0,118.93799,70.702515,-168.48633
1765589561356,-0.9482422,0.28955078,-0.16210938,0.0,0.7324219,-0.30517578,0.0,0.0,0.0,118.93799,70.702515,-168.48633
1765589561368,-0.9482422,0.28955078,-0.16210938,0.0,0.7324219,-0.30517578,0.0,0.0,0.0,119.08081,70.69153,-168.35449
1765589561456,-0.9458008,0.2836914,-0.16113281,0.30517578,0.12207031,-0.18310547,0.0,0.0,0.0,119.08081,70.69153,-168.35449
1765589561468,-0.9458008,0.2836914,-0.16113281,0.30517578,0.12207031,-0.18310547,0.0,0.0,0.0,119.39392,70.669556,-168.01392
1765589561556,-0.94628906,0.28564453,-0.16210938,0.0,0.36621094,-0.24414062,0.0,0.0,0.0,119.39392,70.669556,-168.01392
1765589561567,-0.94628906,0.28564453,-0.16210938,0.0,0.36621094,-0.24414062,0.0,0.0,0.0,119.51477,70.65857,-167.91504
1765589561656,-0.9477539,0.2866211,-0.16113281,-0.4272461,-0.24414062,-0.30517578,0.0,0.0,0.0,119.51477,70.65857,-167.91504
1765589561667,-0.9477539,0.2866211,-0.16113281,-0.4272461,-0.24414062,-0.30517578,0.0,0.0,0.0,119.59717,70.65857,-167.80518
1765589561755,-0.94970703,0.2890625,-0.1538086,-0.30517578,-0.61035156,-0.061035156,0.0,0.0,0.0,119.59717,70.65857,-167.80518
1765589561767,-0.94970703,0.2890625,-0.1538086,-0.30517578,-0.61035156,-0.061035156,0.0,0.0,0.0,119.56421,70.686035,-167.79419
1765589561855,-0.9472656,0.2861328,-0.15820312,0.0,-0.12207031,0.0,0.0,0.0,0.0,119.56421,70.686035,-167.79419
1765589561866,-0.9472656,0.2861328,-0.15820312,0.0,-0.12207031,0.0,0.0,0.0,0.0,119.39392,70.7135,-167.95898
1765589561955,-0.94921875,0.2866211,-0.15917969,0.30517578,-0.12207031,-0.061035156,0.0,0.0,0.0,119.39392,70.7135,-167.95898
1765589561966,-0.94921875,0.2866211,-0.15917969,0.30517578,-0.12207031,-0.061035156,0.0,0.0,0.0,119.4104,70.702515,-167.96448
1765589562054,-0.9482422,0.2841797,-0.15576172,-0.24414062,0.18310547,-0.061035156,0.0,0.0,0.0,119.4104,70.702515,-167.96448
1765589562066,-0.9482422,0.2841797,-0.15576172,-0.24414062,0.18310547,-0.061035156,0.0,0.0,0.0,119.44336,70.702515,-167.92603
1765589562154,-0.9482422,0.2861328,-0.15966797,0.061035156,-0.18310547,0.0,0.0,0.0,0.0,119.44336,70.702515,-167.92603
1765589562166,-0.9482422,0.2861328,-0.15966797,0.061035156,-0.18310547,0.0,0.0,0.0,0.0,119.41589,70.702515,-167.95898
1765589562254,-0.94433594,0.28759766,-0.15771484,-0.24414062,-0.12207031,0.0,0.0,0.0,0.0,119.41589,70.702515,-167.95898
1765589562265,-0.94433594,0.28759766,-0.15771484,-0.24414062,-0.12207031,0.0,0.0,0.0,0.0,119.349976,70.70801,-168.05237
1765589562353,-0.9482422,0.28515625,-0.15429688,-0.24414062,-0.36621094,0.0,0.0,0.0,0.0,119.349976,70.70801,-168.05237
1765589562365,-0.9482422,0.28515625,-0.15429688,-0.24414062,-0.36621094,0.0,0.0,0.0,0.0,119.23462,70.718994,-168.14026
1765589562453,-0.9501953,0.28710938,-0.15039062,-0.6713867,0.8544922,0.0,0.0,0.0,0.0,119.23462,70.718994,-168.14026
1765589562465,-0.9501953,0.28710938,-0.15039062,-0.6713867,0.8544922,0.0,0.0,0.0,0.0,119.21814,70.718994,-168.14575
1765589562553,-0.9472656,0.28759766,-0.15771484,-0.36621094,0.12207031,0.0,0.0,0.0,0.0,119.21814,70.718994,-168.14575
1765589562565,-0.9472656,0.28759766,-0.15771484,-0.36621094,0.12207031,0.0,0.0,0.0,0.0,119.13025,70.72998,-168.23914
1765589562653,-0.9448242,0.2866211,-0.15625,0.061035156,0.24414062,0.0,0.0,0.0,0.0,119.13025,70.72998,-168.23914
1765589562664,-0.9448242,0.2866211,-0.15625,0.061035156,0.24414062,0.0,0.0,0.0,0.0,119.13574,70.72998,-168.24463
1765589562752,-0.94970703,0.28710938,-0.15429688,-0.18310547,0.36621094,0.0,0.0,0.0,0.0,119.13574,70.72998,-168.24463
1765589562764,-0.94970703,0.28710938,-0.15429688,-0.18310547,0.36621094,0.0,0.0,0.0,0.0,119.1687,70.718994,-168.21716
1765589562852,-0.9433594,0.2861328,-0.15771484,-0.061035156,-0.36621094,0.0,0.0,0.0,0.0,119.1687,70.718994,-168.21716
1765589562864,-0.9433594,0.2861328,-0.15771484,-0.061035156,-0.36621094,0.0,0.0,0.0,0.0,119.069824,70.73547,-168.32703
1765589562952,-0.94921875,0.28857422,-0.15332031,-0.4272461,0.12207031,-0.24414062,0.0,0.0,0.0,119.069824,70.73547,-168.32703
1765589562963,-0.94921875,0.28857422,-0.15332031,-0.4272461,0.12207031,-0.24414062,0.0,0.0,0.0,119.06433,70.74646,-168.32703
1765589563052,-0.9526367,0.29052734,-0.15478516,-0.24414062,0.061035156,-0.24414062,0.0,0.0,0.0,119.06433,70.74646,-168.32703
1765589563063,-0.9526367,0.29052734,-0.15478516,-0.24414062,0.061035156,-0.24414062,0.0,0.0,0.0,119.04785,70.75745,-168.33801
1765589563151,-0.9433594,0.2866211,-0.15625,0.36621094,-0.36621094,0.061035156,0.0,0.0,0.0,119.04785,70.75745,-168.33801
1765589563163,-0.9433594,0.2866211,-0.15625,0.36621094,-0.36621094,0.061035156,0.0,0.0,0.0,118.99292,70.76294,-168.40942
1765589563251,-0.94677734,0.2861328,-0.15234375,-0.12207031,0.4272461,0.0,0.0,0.0,0.0,118.99292,70.76294,-168.40942
1765589563263,-0.94677734,0.2861328,-0.15234375,-0.12207031,0.4272461,0.0,0.0,0.0,0.0,119.00391,70.75745,-168.40393
1765589563351,-0.94677734,0.2919922,-0.15429688,-0.12207031,0.0,0.0,0.0,0.0,0.0,119.00391,70.75745,-168.40393
1765589563362,-0.94677734,0.2919922,-0.15429688,-0.12207031,0.0,0.0,0.0,0.0,0.0,118.98193,70.76294,-168.45337
1765589563450,-0.9506836,0.29003906,-0.15576172,-0.30517578,0.36621094,0.0,0.0,0.0,0.0,118.98193,70.76294,-168.45337
1765589563462,-0.9506836,0.29003906,-0.15576172,-0.30517578,0.36621094,0.0,0.0,0.0,0.0,118.927,70.76843,-168.51929
1765589563550,-0.9448242,0.2890625,-0.15771484,-0.18310547,-0.4272461,0.0,0.0,0.0,0.0,118.927,70.76843,-168.51929
1765589563562,-0.9448242,0.2890625,-0.15771484,-0.18310547,-0.4272461,0.0,0.0,0.0,0.0,118.899536,70.76843,-168.53577
1765589563650,-0.9501953,0.28271484,-0.15332031,0.36621094,0.061035156,-0.12207031,0.0,0.0,0.0,118.899536,70.76843,-168.53577
1765589563662,-0.9501953,0.28271484,-0.15332031,0.36621094,0.061035156,-0.12207031,0.0,0.0,0.0,118.94348,70.76843,-168.44788
1765589563750,-0.94873047,0.2915039,-0.15673828,-0.30517578,0.61035156,-0.061035156,0.0,0.0,0.0,118.94348,70.76843,-168.44788
1765589563761,-0.94873047,0.2915039,-0.15673828,-0.30517578,0.61035156,-0.061035156,0.0,0.0,0.0,119.036865,70.76294,-168.39294
1765589563850,-0.94970703,0.28564453,-0.15185547,1.0375977,0.18310547,0.0,0.0,0.0,0.0,119.036865,70.76294,-168.39294
1765589563861,-0.94970703,0.28564453,-0.15185547,1.0375977,0.18310547,0.0,0.0,0.0,0.0,119.19617,70.74097,-168.23364
1765589563949,-0.9482422,0.28857422,-0.15722656,0.12207031,0.18310547,0.0,0.0,0.0,0.0,119.19617,70.74097,-168.23364
1765589563961,-0.9482422,0.28857422,-0.15722656,0.12207031,0.18310547,0.0,0.0,0.0,0.0,119.2511,70.73547,-168.23914
1765589564049,-0.9477539,0.28759766,-0.1586914,0.061035156,0.18310547,-0.061035156,0.0,0.0,0.0,119.2511,70.73547,-168.23914
1765589564060,-0.9477539,0.28759766,-0.1586914,0.061035156,0.18310547,-0.061035156,0.0,0.0,0.0,119.295044,70.72449,-168.20068
1765589564148,-0.94873047,0.28466797,-0.15722656,0.061035156,0.061035156,0.0,0.0,0.0,0.0,119.295044,70.72449,-168.20068
1765589564160,-0.94873047,0.28466797,-0.15722656,0.061035156,0.061035156,0.0,0.0,0.0,0.0,119.328,70.718994,-168.16772
1765589564248,-0.9482422,0.2866211,-0.15820312,-0.24414062,-0.12207031,0.0,0.0,0.0,0.0,119.328,70.718994,-168.16772
1765589564260,-0.9482422,0.2866211,-0.15820312,-0.24414062,-0.12207031,0.0,0.0,0.0,0.0,119.25659,70.73547,-168.25012
1765589564348,-0.9477539,0.28466797,-0.15576172,0.24414062,-0.36621094,0.30517578,0.0,0.0,0.0,119.25659,70.73547,-168.25012
1765589564359,-0.9477539,0.28466797,-0.15576172,0.24414062,-0.36621094,0.30517578,0.0,0.0,0.0,119.22363,70.73547,-168.28857
1765589564448,-0.9448242,0.28710938,-0.16259766,-0.24414062,0.12207031,0.12207031,0.0,0.0,0.0,119.22363,70.73547,-168.28857
1765589564459,-0.9448242,0.28710938,-0.16259766,-0.24414062,0.12207031,0.12207031,0.0,0.0,0.0,119.13025,70.72998,-168.42041
1765589564547,-0.94628906,0.28466797,-0.15722656,0.12207031,-0.4272461,0.0,0.0,0.0,0.0,119.13025,70.72998,-168.42041
1765589564559,-0.94628906,0.28466797,-0.15722656,0.12207031,-0.4272461,0.0,0.0,0.0,0.0,119.262085,70.7135,-168.25012
1765589564647,-0.94970703,0.28710938,-0.15625,-0.6713867,0.0,-0.36621094,0.0,0.0,0.0,119.262085,70.7135,-168.25012
1765589564658,-0.94970703,0.28710938,-0.15625,-0.6713867,0.0,-0.36621094,0.0,0.0,0.0,119.21814,70.74097,-168.2721
1765589564747,-0.94433594,0.28857422,-0.16357422,-0.48828125,0.061035156,-0.4272461,0.0,0.0,0.0,119.21814,70.74097,-168.2721
1765589564758,-0.94433594,0.28857422,-0.16357422,-0.48828125,0.061035156,-0.4272461,0.0,0.0,0.0,119.26758,70.76294,-168.19519
1765589564847,-0.94970703,0.2836914,-0.15429688,0.6713867,-0.36621094,0.36621094,0.0,0.0,0.0,119.26758,70.76294,-168.19519
1765589564858,-0.94970703,0.2836914,-0.15429688,0.6713867,-0.36621094,0.36621094,0.0,0.0,0.0,119.349976,70.74097,-168.06335
1765589564947,-0.9482422,0.2861328,-0.15673828,-0.5493164,0.4272461,-0.061035156,0.0,0.0,0.0,119.349976,70.74097,-168.06335
1765589564958,-0.9482422,0.2861328,-0.15673828,-0.5493164,0.4272461,-0.061035156,0.0,0.0,0.0,119.33899,70.73547,-168.09631
1765589565046,-0.9482422,0.2890625,-0.15771484,-0.7324219,0.36621094,-0.30517578,0.0,0.0,0.0,119.33899,70.73547,-168.09631
1765589565058,-0.9482422,0.2890625,-0.15771484,-0.7324219,0.36621094,-0.30517578,0.0,0.0,0.0,119.366455,70.74097,-168.0304
1765589565145,-0.94873047,0.28759766,-0.1586914,-0.36621094,-0.061035156,-0.30517578,0.0,0.0,0.0,119.366455,70.74097,-168.0304
1765589565157,-0.94873047,0.28759766,-0.1586914,-0.36621094,-0.061035156,-0.30517578,0.0,0.0,0.0,119.34448,70.75745,-168.00293
1765589565245,-0.9482422,0.2841797,-0.15771484,-0.6713867,-0.18310547,0.0,0.0,0.0,0.0,119.34448,70.75745,-168.00293
1765589565257,-0.9482422,0.2841797,-0.15771484,-0.6713867,-0.18310547,0.0,0.0,0.0,0.0,119.278564,70.773926,-168.0249
1765589565345,-0.9472656,0.27978516,-0.15527344,0.0,-0.7324219,-0.061035156,0.0,0.0,0.0,119.278564,70.773926,-168.0249
1765589565357,-0.9472656,0.27978516,-0.15527344,0.0,-0.7324219,-0.061035156,0.0,0.0,0.0,119.13574,70.81238,-168.16772
1765589565445,-0.9477539,0.2866211,-0.1586914,0.91552734,-0.36621094,0.6713867,0.0,0.0,0.0,119.13574,70.81238,-168.16772
1765589565456,-0.9477539,0.2866211,-0.1586914,0.91552734,-0.36621094,0.6713867,0.0,0.0,0.0,119.00391,70.81787,-168.42041
1765589565544,-0.9477539,0.28271484,-0.1538086,-0.24414062,0.0,0.0,0.0,0.0,0.0,119.00391,70.81787,-168.42041
1765589565556,-0.9477539,0.28271484,-0.1538086,-0.24414062,0.0,0.0,0.0,0.0,0.0,119.11377,70.78491,-168.29407
1765589565644,-0.94677734,0.2861328,-0.1538086,0.4272461,0.0,0.12207031,0.0,0.0,0.0,119.11377,70.78491,-168.29407
1765589565655,-0.94677734,0.2861328,-0.1538086,0.4272461,0.0,0.12207031,0.0,0.0,0.0,119.05884,70.790405,-168.37097
1765589565744,-0.9458008,0.28564453,-0.15771484,0.18310547,0.0,0.0,0.0,0.0,0.0,119.05884,70.790405,-168.37097
1765589565755,-0.9458008,0.28564453,-0.15771484,0.18310547,0.0,0.0,0.0,0.0,0.0,119.06433,70.77942,-168.39294
1765589565844,-0.9506836,0.28466797,-0.1508789,0.0,-0.061035156,0.18310547,0.0,0.0,0.0,119.06433,70.77942,-168.39294
1765589565855,-0.9506836,0.28466797,-0.1508789,0.0,-0.061035156,0.18310547,0.0,0.0,0.0,119.10828,70.76843,-168.33252
1765589565943,-0.9477539,0.28710938,-0.1586914,-0.18310547,0.0,-0.24414062,0.0,0.0,0.0,119.10828,70.76843,-168.33252
1765589565955,-0.9477539,0.28710938,-0.1586914,-0.18310547,0.0,-0.24414062,0.0,0.0,0.0,119.05884,70.773926,-168.40393
1765589566043,-0.94628906,0.28564453,-0.15673828,0.12207031,0.061035156,0.061035156,0.0,0.0,0.0,119.05884,70.773926,-168.40393
1765589566055,-0.94628906,0.28564453,-0.15673828,0.12207031,0.061035156,0.061035156,0.0,0.0,0.0,119.069824,70.78491,-168.38196
1765589566143,-0.9482422,0.28466797,-0.15478516,-0.30517578,0.061035156,-0.061035156,0.0,0.0,0.0,119.069824,70.78491,-168.38196
1765589566154,-0.9482422,0.28466797,-0.15478516,-0.30517578,0.061035156,-0.061035156,0.0,0.0,0.0,119.0863,70.773926,-168.35999
1765589566242,-0.9448242,0.2861328,-0.15576172,-0.4272461,-0.12207031,0.0,0.0,0.0,0.0,119.0863,70.773926,-168.35999
1765589566254,-0.9448242,0.2861328,-0.15576172,-0.4272461,-0.12207031,0.0,0.0,0.0,0.0,119.05884,70.78491,-168.38196
1765589566343,-0.9511719,0.2861328,-0.15478516,0.061035156,-0.061035156,0.0,0.0,0.0,0.0,119.05884,70.78491,-168.38196
1765589566353,-0.9511719,0.2861328,-0.15478516,0.061035156,-0.061035156,0.0,0.0,0.0,0.0,119.04236,70.78491,-168.38745
1765589566442,-0.9501953,0.2890625,-0.1538086,-0.061035156,-0.36621094,0.061035156,0.0,0.0,0.0,119.04236,70.78491,-168.38745
1765589566453,-0.9501953,0.2890625,-0.1538086,-0.061035156,-0.36621094,0.061035156,0.0,0.0,0.0,119.03137,70.78491,-168.4259
1765589566542,-0.94433594,0.28759766,-0.15673828,-0.24414062,0.24414062,0.0,0.0,0.0,0.0,119.03137,70.78491,-168.4259
1765589566553,-0.94433594,0.28759766,-0.15673828,-0.24414062,0.24414062,0.0,0.0,0.0,0.0,118.93799,70.7959,-168.53027
1765589566641,-0.94873047,0.2866211,-0.15673828,0.6713867,-0.5493164,0.30517578,0.0,0.0,0.0,118.93799,70.7959,-168.53027
1765589566653,-0.94873047,0.2866211,-0.15673828,0.6713867,-0.5493164,0.30517578,0.0,0.0,0.0,118.98743,70.77942,-168.49731
1765589566741,-0.94873047,0.28808594,-0.15625,-0.30517578,0.12207031,-0.12207031,0.0,0.0,0.0,118.98743,70.77942,-168.49731
1765589566753,-0.94873047,0.28808594,-0.15625,-0.30517578,0.12207031,-0.12207031,0.0,0.0,0.0,118.97644,70.773926,-168.51929
1765589566841,-0.94677734,0.29101562,-0.15917969,0.30517578,0.0,0.0,0.0,0.0,0.0,118.97644,70.773926,-168.51929
1765589566852,-0.94677734,0.29101562,-0.15917969,0.30517578,0.0,0.0,0.0,0.0,0.0,119.04785,70.773926,-168.45337
1765589566940,-0.9482422,0.2861328,-0.15283203,0.36621094,0.0,0.0,0.0,0.0,0.0,119.04785,70.773926,-168.45337
1765589566952,-0.9482422,0.2861328,-0.15283203,0.36621094,0.0,0.0,0.0,0.0,0.0,119.11377,70.75745,-168.37097
1765589567040,-0.94628906,0.28710938,-0.15722656,0.6713867,0.8544922,0.0,0.0,0.0,0.0,119.11377,70.75745,-168.37097
1765589567052,-0.94628906,0.28710938,-0.15722656,0.6713867,0.8544922,0.0,0.0,0.0,0.0,119.26758,70.72998,-168.28308
1765589567140,-0.94873047,0.28808594,-0.15917969,0.18310547,0.61035156,-0.30517578,0.0,0.0,0.0,119.26758,70.72998,-168.28308
1765589567151,-0.94873047,0.28808594,-0.15917969,0.18310547,0.61035156,-0.30517578,0.0,0.0,0.0,119.53674,70.69702,-168.04138
1765589567239,-0.94970703,0.28710938,-0.15820312,0.4272461,0.4272461,-0.12207031,0.0,0.0,0.0,119.53674,70.69702,-168.04138
1765589567251,-0.94970703,0.28710938,-0.15820312,0.4272461,0.4272461,-0.12207031,0.0,0.0,0.0,119.70703,70.686035,-167.87659
1765589567339,-0.94921875,0.2866211,-0.16308594,-0.36621094,0.36621094,-0.061035156,0.0,0.0,0.0,119.70703,70.686035,-167.87659
1765589567351,-0.94921875,0.2866211,-0.16308594,-0.36621094,0.36621094,-0.061035156,0.0,0.0,0.0,119.77295,70.686035,-167.80518
1765589567439,-0.94433594,0.2836914,-0.16064453,0.24414062,0.48828125,0.0,0.0,0.0,0.0,119.77295,70.686035,-167.80518
1765589567451,-0.94433594,0.2836914,-0.16064453,0.24414062,0.48828125,0.0,0.0,0.0,0.0,119.86633,70.669556,-167.72278
1765589567539,-0.9472656,0.2841797,-0.16113281,0.0,0.36621094,0.12207031,0.0,0.0,0.0,119.86633,70.669556,-167.72278
1765589567550,-0.9472656,0.2841797,-0.16113281,0.0,0.36621094,0.12207031,0.0,0.0,0.0,120.02014,70.6366,-167.57996
1765589567638,-0.9472656,0.28710938,-0.15673828,-0.12207031,0.91552734,0.061035156,0.0,0.0,0.0,120.02014,70.6366,-167.57996
1765589567650,-0.9472656,0.28710938,-0.15673828,-0.12207031,0.91552734,0.061035156,0.0,0.0,0.0,120.10254,70.60913,-167.52502
1765589567738,-0.94433594,0.28710938,-0.16552734,-0.61035156,0.5493164,0.0,0.0,0.0,0.0,120.10254,70.60913,-167.52502
1765589567750,-0.94433594,0.28710938,-0.16552734,-0.61035156,0.5493164,0.0,0.0,0.0,0.0,120.16846,70.59265,-167.45361
1765589567838,-0.94970703,0.2890625,-0.16210938,-0.18310547,1.2817383,0.0,0.0,0.0,0.0,120.16846,70.59265,-167.45361
1765589567850,-0.94970703,0.2890625,-0.16210938,-0.18310547,1.2817383,0.0,0.0,0.0,0.0,120.28381,70.57068,-167.34375
1765589567938,-0.9482422,0.28466797,-0.16503906,-0.30517578,1.7089844,-0.36621094,0.0,0.0,0.0,120.28381,70.57068,-167.34375
1765589567949,-0.9482422,0.28466797,-0.16503906,-0.30517578,1.7089844,-0.36621094,0.0,0.0,0.0,120.56946,70.53772,-167.00867
1765589568037,-0.93847656,0.28564453,-0.1743164,1.953125,0.8544922,-0.24414062,0.0,0.0,0.0,120.56946,70.53772,-167.00867
1765589568049,-0.93847656,0.28564453,-0.1743164,1.953125,0.8544922,-0.24414062,0.0,0.0,0.0,120.910034,70.53772,-166.8219
1765589568137,-0.9448242,0.27929688,-0.17480469,2.9296875,0.5493164,-0.24414062,0.0,0.0,0.0,120.910034,70.53772,-166.8219
1765589568149,-0.9448242,0.27929688,-0.17480469,2.9296875,0.5493164,-0.24414062,0.0,0.0,0.0,121.40442,70.48828,-166.55823
1765589568237,-0.9506836,0.28564453,-0.17285156,2.380371,-0.6713867,-0.30517578,0.0,0.0,0.0,121.40442,70.48828,-166.55823
1765589568248,-0.9506836,0.28564453,-0.17285156,2.380371,-0.6713867,-0.30517578,0.0,0.0,0.0,121.75598,70.52124,-166.43188
1765589568336,-0.9501953,0.27978516,-0.17480469,-0.6713867,1.2817383,0.0,0.0,0.0,0.0,121.75598,70.52124,-166.43188
1765589568348,-0.9501953,0.27978516,-0.17480469,-0.6713867,1.2817383,0.0,0.0,0.0,0.0,121.94824,70.477295,-166.25061
1765589568436,-0.94677734,0.28222656,-0.1743164,1.0986328,-0.79345703,0.12207031,0.0,0.0,0.0,121.94824,70.477295,-166.25061
1765589568448,-0.94677734,0.28222656,-0.1743164,1.0986328,-0.79345703,0.12207031,0.0,0.0,0.0,121.86035,70.49927,-166.44836
1765589568536,-0.9404297,0.28466797,-0.17382812,2.5634766,-2.380371,0.79345703,0.0,0.0,0.0,121.86035,70.49927,-166.44836
1765589568547,-0.9404297,0.28466797,-0.17382812,2.5634766,-2.380371,0.79345703,0.0,0.0,0.0,121.66809,70.52673,-166.81091
1765589568636,-0.94921875,0.29248047,-0.1640625,-0.7324219,1.2817383,-0.30517578,0.0,0.0,0.0,121.66809,70.52673,-166.81091
1765589568647,-0.94921875,0.29248047,-0.1640625,-0.7324219,1.2817383,-0.30517578,0.0,0.0,0.0,121.46484,70.53223,-167.16797
1765589568735,-0.94384766,0.27929688,-0.17871094,0.61035156,0.4272461,0.5493164,0.0,0.0,0.0,121.46484,70.53223,-167.16797
1765589568747,-0.94384766,0.27929688,-0.17871094,0.61035156,0.4272461,0.5493164,0.0,0.0,0.0,121.58569,70.477295,-166.90979
1765589568835,-0.9458008,0.28564453,-0.17529297,1.8310547,-2.6855469,0.48828125,0.0,0.0,0.0,121.58569,70.477295,-166.90979
1765589568847,-0.9458008,0.28564453,-0.17529297,1.8310547,-2.6855469,0.48828125,0.0,0.0,0.0,121.42639,70.48828,-167.06909
1765589568935,-0.9379883,0.2861328,-0.17529297,-0.24414062,-1.8310547,0.0,0.0,0.0,0.0,121.42639,70.48828,-167.06909
1765589568947,-0.9379883,0.2861328,-0.17529297,-0.24414062,-1.8310547,0.0,0.0,0.0,0.0,120.92102,70.55969,-167.5415
1765589569034,-0.9560547,0.28515625,-0.1586914,0.12207031,-1.8920898,0.30517578,0.0,0.0,0.0,120.92102,70.55969,-167.5415
1765589569046,-0.9560547,0.28515625,-0.1586914,0.12207031,-1.8920898,0.30517578,0.0,0.0,0.0,120.76172,70.57068,-167.57996
1765589569134,-0.94628906,0.28759766,-0.15625,0.79345703,-0.61035156,0.18310547,0.0,0.0,0.0,120.76172,70.57068,-167.57996
1765589569146,-0.94628906,0.28759766,-0.15625,0.79345703,-0.61035156,0.18310547,0.0,0.0,0.0,120.46509,70.59265,-167.89307
1765589569234,-0.9472656,0.28125,-0.16015625,0.24414062,0.18310547,0.12207031,0.0,0.0,0.0,120.46509,70.59265,-167.89307
1765589569246,-0.9472656,0.28125,-0.16015625,0.24414062,0.18310547,0.12207031,0.0,0.0,0.0,120.322266,70.60913,-168.01392
1765589569334,-0.9453125,0.2841797,-0.16455078,1.5258789,-0.18310547,0.0,0.0,0.0,0.0,120.322266,70.60913,-168.01392
1765589569345,-0.9453125,0.2841797,-0.16455078,1.5258789,-0.18310547,0.0,0.0,0.0,0.0,120.24536,70.6311,-168.17871
1765589569433,-0.94921875,0.28857422,-0.16210938,1.2207031,-0.36621094,0.061035156,0.0,0.0,0.0,120.24536,70.6311,-168.17871
1765589569445,-0.94921875,0.28857422,-0.16210938,1.2207031,-0.36621094,0.061035156,0.0,0.0,0.0,120.34424,70.64209,-168.14026
1765589569533,-0.94970703,0.29101562,-0.15966797,1.2207031,-0.79345703,-0.061035156,0.0,0.0,0.0,120.34424,70.64209,-168.14026
1765589569545,-0.94970703,0.29101562,-0.15966797,1.2207031,-0.79345703,-0.061035156,0.0,0.0,0.0,120.31128,70.66406,-168.25012
1765589569633,-0.94628906,0.28808594,-0.16699219,0.7324219,-0.24414062,0.0,0.0,0.0,0.0,120.31128,70.66406,-168.25012
1765589569644,-0.94628906,0.28808594,-0.16699219,0.7324219,-0.24414062,0.0,0.0,0.0,0.0,120.11902,70.702515,-168.5138
1765589569733,-0.94677734,0.28173828,-0.16357422,-0.36621094,-0.12207031,-0.36621094,0.0,0.0,0.0,120.11902,70.702515,-168.5138
1765589569744,-0.94677734,0.28173828,-0.16357422,-0.36621094,-0.12207031,-0.36621094,0.0,0.0,0.0,120.2948,70.68054,-168.25562
1765589569832,-0.94970703,0.28320312,-0.16064453,0.61035156,-0.18310547,0.0,0.0,0.0,0.0,120.2948,70.68054,-168.25562
1765589569844,-0.94970703,0.28320312,-0.16064453,0.61035156,-0.18310547,0.0,0.0,0.0,0.0,120.27832,70.69702,-168.22266
1765589569932,-0.94677734,0.28808594,-0.16796875,-0.4272461,0.061035156,0.0,0.0,0.0,0.0,120.27832,70.69702,-168.22266
1765589569944,-0.94677734,0.28808594,-0.16796875,-0.4272461,0.061035156,0.0,0.0,0.0,0.0,120.305786,70.69153,-168.16772
1765589570032,-0.94873047,0.28173828,-0.15722656,0.18310547,-0.30517578,0.18310547,0.0,0.0,0.0,120.305786,70.69153,-168.16772
1765589570043,-0.94873047,0.28173828,-0.15722656,0.18310547,-0.30517578,0.18310547,0.0,0.0,0.0,120.33325,70.68054,-168.05786
1765589570131,-0.9453125,0.28759766,-0.16357422,0.0,0.061035156,-0.061035156,0.0,0.0,0.0,120.33325,70.68054,-168.05786
1765589570144,-0.9453125,0.28759766,-0.16357422,0.0,0.061035156,-0.061035156,0.0,0.0,0.0,120.234375,70.68054,-168.16223
1765589570231,-0.9482422,0.2841797,-0.1640625,0.24414062,-0.12207031,0.0,0.0,0.0,0.0,120.234375,70.68054,-168.16223
1765589570243,-0.9482422,0.2841797,-0.1640625,0.24414062,-0.12207031,0.0,0.0,0.0,0.0,120.31677,70.67505,-168.01392
1765589570331,-0.94677734,0.2866211,-0.16259766,-0.4272461,0.061035156,-0.18310547,0.0,0.0,0.0,120.31677,70.67505,-168.01392
1765589570343,-0.94677734,0.2866211,-0.16259766,-0.4272461,0.061035156,-0.18310547,0.0,0.0,0.0,120.305786,70.67505,-167.98096
1765589570431,-0.9477539,0.28515625,-0.16210938,-0.79345703,0.30517578,-0.24414062,0.0,0.0,0.0,120.305786,70.67505,-167.98096
1765589570442,-0.9477539,0.28515625,-0.16210938,-0.79345703,0.30517578,-0.24414062,0.0,0.0,0.0,120.31128,70.686035,-167.87659
1765589570530,-0.9501953,0.28515625,-0.16210938,0.0,0.48828125,-0.061035156,0.0,0.0,0.0,120.31128,70.686035,-167.87659
1765589570543,-0.9501953,0.28515625,-0.16210938,0.0,0.48828125,-0.061035156,0.0,0.0,0.0,120.42114,70.669556,-167.7008
1765589570630,-0.9458008,0.2841797,-0.16503906,0.12207031,-0.12207031,-0.12207031,0.0,0.0,0.0,120.42114,70.669556,-167.7008
1765589570642,-0.9458008,0.2841797,-0.16503906,0.12207031,-0.12207031,-0.12207031,0.0,0.0,0.0,120.44861,70.68054,-167.67883
1765589570730,-0.9477539,0.28320312,-0.15771484,-0.061035156,1.2207031,-0.12207031,0.0,0.0,0.0,120.44861,70.68054,-167.67883
1765589570741,-0.9477539,0.28320312,-0.15771484,-0.061035156,1.2207031,-0.12207031,0.0,0.0,0.0,120.60791,70.64209,-167.49756
1765589570829,-0.9482422,0.28564453,-0.16552734,-0.18310547,0.4272461,0.0,0.0,0.0,0.0,120.60791,70.64209,-167.49756
1765589570841,-0.9482422,0.28564453,-0.16552734,-0.18310547,0.4272461,0.0,0.0,0.0,0.0,120.71777,70.6311,-167.3877
1765589570929,-0.9482422,0.2841797,-0.1665039,-0.061035156,0.6713867,0.0,0.0,0.0,0.0,120.71777,70.6311,-167.3877
1765589570940,-0.9482422,0.2841797,-0.1665039,-0.061035156,0.6713867,0.0,0.0,0.0,0.0,120.83313,70.62012,-167.24487
1765589571029,-0.9482422,0.28173828,-0.16796875,0.4272461,1.2817383,0.0,0.0,0.0,0.0,120.83313,70.62012,-167.24487
1765589571040,-0.9482422,0.28173828,-0.16796875,0.4272461,1.2817383,0.0,0.0,0.0,0.0,121.05835,70.581665,-167.02515
1765589571129,-0.9453125,0.28222656,-0.16845703,1.0375977,0.4272461,0.36621094,0.0,0.0,0.0,121.05835,70.581665,-167.02515
1765589571140,-0.9453125,0.28222656,-0.16845703,1.0375977,0.4272461,0.36621094,0.0,0.0,0.0,121.33301,70.53223,-166.81091
1765589571228,-0.94873047,0.28759766,-0.17236328,0.5493164,0.36621094,-0.12207031,0.0,0.0,0.0,121.33301,70.53223,-166.81091
1765589571240,-0.94873047,0.28759766,-0.17236328,0.5493164,0.36621094,-0.12207031,0.0,0.0,0.0,121.51428,70.49927,-166.70105
1765589571328,-0.9448242,0.2836914,-0.1743164,-0.12207031,0.5493164,-0.24414062,0.0,0.0,0.0,121.51428,70.49927,-166.70105
1765589571340,-0.9448242,0.2836914,-0.1743164,-0.12207031,0.5493164,-0.24414062,0.0,0.0,0.0,121.673584,70.48828,-166.51978
1765589571428,-0.94628906,0.28271484,-0.17236328,-0.36621094,0.36621094,-0.12207031,0.0,0.0,0.0,121.673584,70.48828,-166.51978
1765589571439,-0.94628906,0.28271484,-0.17236328,-0.36621094,0.36621094,-0.12207031,0.0,0.0,0.0,121.79443,70.477295,-166.37146
1765589571527,-0.9448242,0.28222656,-0.171875,-0.12207031,0.12207031,-0.24414062,0.0,0.0,0.0,121.79443,70.477295,-166.37146
1765589571539,-0.9448242,0.28222656,-0.171875,-0.12207031,0.12207031,-0.24414062,0.0,0.0,0.0,121.78894,70.48279,-166.33301
1765589571627,-0.9399414,0.2841797,-0.17236328,0.48828125,0.12207031,0.0,0.0,0.0,0.0,121.78894,70.48279,-166.33301
1765589571639,-0.9399414,0.2841797,-0.17236328,0.48828125,0.12207031,0.0,0.0,0.0,0.0,121.79443,70.48279,-166.31653
1765589571727,-0.94921875,0.28564453,-0.17382812,-0.061035156,0.36621094,0.061035156,0.0,0.0,0.0,121.79443,70.48279,-166.31653
1765589571738,-0.94921875,0.28564453,-0.17382812,-0.061035156,0.36621094,0.061035156,0.0,0.0,0.0,121.84387,70.46631,-166.26709
1765589571827,-0.94140625,0.2841797,-0.17773438,0.12207031,-0.24414062,0.0,0.0,0.0,0.0,121.84387,70.46631,-166.26709
1765589571838,-0.94140625,0.2841797,-0.17773438,0.12207031,-0.24414062,0.0,0.0,0.0,0.0,121.87134,70.45532,-166.23962
1765589571926,-0.94677734,0.28076172,-0.171875,-0.30517578,0.4272461,-0.24414062,0.0,0.0,0.0,121.87134,70.45532,-166.23962
1765589571938,-0.94677734,0.28076172,-0.171875,-0.30517578,0.4272461,-0.24414062,0.0,0.0,0.0,121.94824,70.444336,-166.10779
1765589572026,-0.94677734,0.2841797,-0.17675781,-0.30517578,0.0,0.0,0.0,0.0,0.0,121.94824,70.444336,-166.10779
1765589572038,-0.94677734,0.2841797,-0.17675781,-0.30517578,0.0,0.0,0.0,0.0,0.0,121.99219,70.43884,-166.05835
1765589572126,-0.9448242,0.28222656,-0.17285156,0.061035156,-0.5493164,0.18310547,0.0,0.0,0.0,121.99219,70.43884,-166.05835
1765589572137,-0.9448242,0.28222656,-0.17285156,0.061035156,-0.5493164,0.18310547,0.0,0.0,0.0,121.970215,70.43335,-166.05835
1765589572225,-0.9477539,0.28515625,-0.17236328,-0.18310547,0.061035156,-0.18310547,0.0,0.0,0.0,121.970215,70.43335,-166.05835
1765589572237,-0.9477539,0.28515625,-0.17236328,-0.18310547,0.061035156,-0.18310547,0.0,0.0,0.0,121.94275,70.43884,-166.07483
1765589572325,-0.9453125,0.28466797,-0.17333984,-0.30517578,0.12207031,-0.12207031,0.0,0.0,0.0,121.94275,70.43884,-166.07483
1765589572337,-0.9453125,0.28466797,-0.17333984,-0.30517578,0.12207031,-0.12207031,0.0,0.0,0.0,121.953735,70.43884,-166.04187
1765589572425,-0.9458008,0.28271484,-0.171875,-0.061035156,-0.061035156,0.0,0.0,0.0,0.0,121.953735,70.43884,-166.04187
1765589572437,-0.9458008,0.28271484,-0.171875,-0.061035156,-0.061035156,0.0,0.0,0.0,0.0,121.94275,70.444336,-166.02539
1765589572525,-0.9448242,0.28271484,-0.171875,0.0,0.0,0.0,0.0,0.0,0.0,121.94275,70.444336,-166.02539
1765589572536,-0.9448242,0.28271484,-0.171875,0.0,0.0,0.0,0.0,0.0,0.0,121.92078,70.444336,-166.04187
1765589572624,-0.9423828,0.28320312,-0.17285156,0.24414062,0.0,0.0,0.0,0.0,0.0,121.92078,70.444336,-166.04187
1765589572636,-0.9423828,0.28320312,-0.17285156,0.24414062,0.0,0.0,0.0,0.0,0.0,121.91528,70.44983,-166.06384
1765589572724,-0.9482422,0.2841797,-0.17529297,0.30517578,-0.18310547,0.0,0.0,0.0,0.0,121.91528,70.44983,-166.06384
1765589572736,-0.9482422,0.2841797,-0.17529297,0.30517578,-0.18310547,0.0,0.0,0.0,0.0,121.91528,70.45532,-166.08582
1765589572824,-0.94873047,0.28320312,-0.17285156,0.061035156,0.0,-0.12207031,0.0,0.0,0.0,121.91528,70.45532,-166.08582
1765589572835,-0.94873047,0.28320312,-0.17285156,0.061035156,0.0,-0.12207031,0.0,0.0,0.0,122.06909,70.43335,-165.9375
1765589572923,-0.9472656,0.28125,-0.17333984,0.5493164,0.12207031,-0.061035156,0.0,0.0,0.0,122.06909,70.43335,-165.9375
1765589572935,-0.9472656,0.28125,-0.17333984,0.5493164,0.12207031,-0.061035156,0.0,0.0,0.0,122.12402,70.43884,-165.88806
1765589573023,-0.9472656,0.28466797,-0.17919922,-0.30517578,-0.061035156,-0.30517578,0.0,0.0,0.0,122.12402,70.43884,-165.88806
1765589573035,-0.9472656,0.28466797,-0.17919922,-0.30517578,-0.061035156,-0.30517578,0.0,0.0,0.0,122.178955,70.444336,-165.83862
1765589573123,-0.94921875,0.28125,-0.17089844,-0.5493164,-0.4272461,0.0,0.0,0.0,0.0,122.178955,70.444336,-165.83862
1765589573134,-0.94921875,0.28125,-0.17089844,-0.5493164,-0.4272461,0.0,0.0,0.0,0.0,122.195435,70.44983,-165.7727
1765589573222,-0.9472656,0.28222656,-0.17773438,-1.953125,-1.7089844,-0.36621094,0.0,0.0,0.0,122.195435,70.44983,-165.7727
1765589573234,-0.9472656,0.28222656,-0.17773438,-1.953125,-1.7089844,-0.36621094,0.0,0.0,0.0,121.84387,70.510254,-166.0199
1765589573322,-0.9477539,0.2836914,-0.17480469,-1.159668,-2.0141602,0.061035156,0.0,0.0,0.0,121.84387,70.510254,-166.0199
1765589573334,-0.9477539,0.2836914,-0.17480469,-1.159668,-2.0141602,0.061035156,0.0,0.0,0.0,121.278076,70.60913,-166.47034
1765589573422,-0.9658203,0.29541016,-0.1772461,-4.272461,0.9765625,1.159668,0.0,0.0,0.0,121.278076,70.60913,-166.47034
1765589573433,-0.9658203,0.29541016,-0.1772461,-4.272461,0.9765625,1.159668,0.0,0.0,0.0,120.91553,70.57617,-166.61316
1765589573522,-0.96191406,0.30273438,-0.17480469,-10.070801,3.2958984,2.1362305,0.0,0.0,0.0,120.91553,70.57617,-166.61316
1765589573533,-0.96191406,0.30273438,-0.17480469,-10.070801,3.2958984,2.1362305,0.0,0.0,0.0,121.07483,70.19165,-165.8551
1765589573621,-0.97509766,0.2602539,-0.17626953,-4.8828125,1.0375977,-2.6245117,0.0,0.0,0.0,121.07483,70.19165,-165.8551
1765589573633,-0.97509766,0.2602539,-0.17626953,-4.8828125,1.0375977,-2.6245117,0.0,0.0,0.0,121.64612,70.14221,-164.60815
1765589573721,-0.92041016,0.32373047,-0.1665039,-10.009766,3.9672852,2.9296875,0.0,0.0,0.0,121.64612,70.14221,-164.60815
1765589573733,-0.92041016,0.32373047,-0.1665039,-10.009766,3.9672852,2.9296875,0.0,0.0,0.0,120.531006,70.00488,-165.27283
1765589573821,-0.9501953,0.31445312,-0.17578125,-7.2631836,-1.4648438,4.5166016,0.0,0.0,0.0,120.531006,70.00488,-165.27283
1765589573832,-0.9501953,0.31445312,-0.17578125,-7.2631836,-1.4648438,4.5166016,0.0,0.0,0.0,119.47632,69.61487,-165.6958
1765589573920,-0.93115234,0.30615234,-0.16259766,-11.352539,-0.48828125,1.0375977,0.0,0.0,0.0,119.47632,69.61487,-165.6958
1765589573932,-0.93115234,0.30615234,-0.16259766,-11.352539,-0.48828125,1.0375977,0.0,0.0,0.0,118.427124,69.279785,-166.00342
1765589574020,-0.94873047,0.27734375,-0.1430664,-2.6245117,2.5024414,4.0893555,0.0,0.0,0.0,118.427124,69.279785,-166.00342
1765589574032,-0.94873047,0.27734375,-0.1430664,-2.6245117,2.5024414,4.0893555,0.0,0.0,0.0,117.822876,69.11499,-165.87708
1765589574120,-0.9238281,0.32177734,-0.16894531,4.9438477,-2.6855469,5.432129,0.0,0.0,0.0,117.822876,69.11499,-165.87708
1765589574132,-0.9238281,0.32177734,-0.16894531,4.9438477,-2.6855469,5.432129,0.0,0.0,0.0,117.405396,68.79639,-166.64062
1765589574220,-0.91259766,0.32226562,-0.14501953,-1.7089844,1.8310547,-1.0375977,0.0,0.0,0.0,117.405396,68.79639,-166.64062
1765589574231,-0.91259766,0.32226562,-0.14501953,-1.7089844,1.8310547,-1.0375977,0.0,0.0,0.0,116.89453,68.32947,-167.65137
1765589574319,-0.9379883,0.32666016,-0.1586914,5.7373047,-3.479004,1.159668,0.0,0.0,0.0,116.89453,68.32947,-167.65137
1765589574331,-0.9379883,0.32666016,-0.1586914,5.7373047,-3.479004,1.159668,0.0,0.0,0.0,116.79016,68.41736,-167.60742
1765589574419,-0.9321289,0.33154297,-0.16308594,-2.6855469,2.0751953,-0.61035156,0.0,0.0,0.0,116.79016,68.41736,-167.60742
1765589574430,-0.9321289,0.33154297,-0.16308594,-2.6855469,2.0751953,-0.61035156,0.0,0.0,0.0,116.691284,68.35144,-168.00842
1765589574519,-0.93603516,0.3330078,-0.14892578,2.2583008,0.36621094,0.7324219,0.0,0.0,0.0,116.691284,68.35144,-168.00842
1765589574531,-0.93603516,0.3330078,-0.14892578,2.2583008,0.36621094,0.7324219,0.0,0.0,0.0,116.71326,68.3844,-168.17871
1765589574618,-0.9350586,0.32714844,-0.16992188,-0.12207031,0.0,-2.0751953,0.0,0.0,0.0,116.71326,68.3844,-168.17871
1765589574630,-0.9350586,0.32714844,-0.16992188,-0.12207031,0.0,-2.0751953,0.0,0.0,0.0,116.94397,68.444824,-168.11829
1765589574718,-0.9399414,0.33496094,-0.16992188,-0.36621094,-0.6713867,-2.4414062,0.0,0.0,0.0,116.94397,68.444824,-168.11829
1765589574730,-0.9399414,0.33496094,-0.16992188,-0.36621094,-0.6713867,-2.4414062,0.0,0.0,0.0,117.32849,68.708496,-167.92603
1765589574818,-0.92529297,0.32128906,-0.1538086,-0.48828125,2.8686523,-2.5024414,0.0,0.0,0.0,117.32849,68.708496,-167.92603
1765589574830,-0.92529297,0.32128906,-0.1538086,-0.48828125,2.8686523,-2.5024414,0.0,0.0,0.0,117.53723,68.829346,-167.7887
1765589574918,-0.94384766,0.30273438,-0.15625,4.638672,-0.91552734,-2.319336,0.0,0.0,0.0,117.53723,68.829346,-167.7887
1765589574929,-0.94384766,0.30273438,-0.15625,4.638672,-0.91552734,-2.319336,0.0,0.0,0.0,118.27881,68.97766,-167.23389
1765589575017,-0.92871094,0.30859375,-0.15917969,0.9765625,1.4038086,-2.5024414,0.0,0.0,0.0,118.27881,68.97766,-167.23389
1765589575029,-0.92871094,0.30859375,-0.15917969,0.9765625,1.4038086,-2.5024414,0.0,0.0,0.0,118.67432,69.20288,-167.2229
1765589575117,-0.92822266,0.3022461,-0.1616211,2.8686523,2.0141602,-1.8920898,0.0,0.0,0.0,118.67432,69.20288,-167.2229
1765589575129,-0.92822266,0.3022461,-0.1616211,2.8686523,2.0141602,-1.8920898,0.0,0.0,0.0,119.56421,69.25232,-166.49231
1765589575217,-0.9404297,0.30859375,-0.16992188,2.0141602,2.0751953,-3.8452148,0.0,0.0,0.0,119.56421,69.25232,-166.49231
1765589575228,-0.9404297,0.30859375,-0.16992188,2.0141602,2.0751953,-3.8452148,0.0,0.0,0.0,120.48157,69.47754,-165.87158
1765589575316,-0.9350586,0.31396484,-0.17626953,6.4697266,-0.7324219,0.0,0.0,0.0,0.0,120.48157,69.47754,-165.87158
1765589575328,-0.9350586,0.31396484,-0.17626953,6.4697266,-0.7324219,0.0,0.0,0.0,0.0,121.05286,69.63684,-165.7013
1765589575416,-0.94677734,0.30126953,-0.18603516,-2.1972656,6.4697266,-0.48828125,0.0,0.0,0.0,121.05286,69.63684,-165.7013
1765589575428,-0.94677734,0.30126953,-0.18603516,-2.1972656,6.4697266,-0.48828125,0.0,0.0,0.0,122.091064,69.384155,-164.75647
1765589575516,-0.9277344,0.28222656,-0.19824219,-1.7089844,4.699707,0.6713867,0.0,0.0,0.0,122.091064,69.384155,-164.75647
1765589575527,-0.9277344,0.28222656,-0.19824219,-1.7089844,4.699707,0.6713867,0.0,0.0,0.0,122.8656,69.03259,-163.98743
1765589575616,-0.9472656,0.30908203,-0.19921875,-1.8920898,5.004883,-0.24414062,0.0,0.0,0.0,122.8656,69.03259,-163.98743
1765589575628,-0.9472656,0.30908203,-0.19921875,-1.8920898,5.004883,-0.24414062,0.0,0.0,0.0,124.019165,68.73596,-162.67456
1765589575715,-0.9238281,0.28466797,-0.21533203,-6.5307617,6.958008,-2.4414062,0.0,0.0,0.0,124.019165,68.73596,-162.67456
1765589575727,-0.9238281,0.28466797,-0.21533203,-6.5307617,6.958008,-2.4414062,0.0,0.0,0.0,125.007935,68.48328,-161.29578
1765589575815,-0.94970703,0.29296875,-0.21289062,-0.30517578,0.12207031,-0.7324219,0.0,0.0,0.0,125.007935,68.48328,-161.29578
1765589575827,-0.94970703,0.29296875,-0.21289062,-0.30517578,0.12207031,-0.7324219,0.0,0.0,0.0,125.787964,68.4613,-160.11475
1765589575915,-0.93310547,0.2841797,-0.22509766,0.24414062,1.6479492,1.3427734,0.0,0.0,0.0,125.787964,68.4613,-160.11475
1765589575926,-0.93310547,0.2841797,-0.22509766,0.24414062,1.6479492,1.3427734,0.0,0.0,0.0,125.80994,68.40637,-160.17517
1765589576015,-0.9379883,0.29589844,-0.21484375,1.0986328,-1.4038086,0.91552734,0.0,0.0,0.0,125.80994,68.40637,-160.17517
1765589576026,-0.9379883,0.29589844,-0.21484375,1.0986328,-1.4038086,0.91552734,0.0,0.0,0.0,125.86487,68.274536,-160.40588
1765589576115,-0.9399414,0.3022461,-0.20947266,-2.8686523,0.61035156,-0.30517578,0.0,0.0,0.0,125.86487,68.274536,-160.40588
1765589576126,-0.9399414,0.3022461,-0.20947266,-2.8686523,0.61035156,-0.30517578,0.0,0.0,0.0,125.71655,68.35693,-160.65308
1765589576214,-0.94384766,0.29736328,-0.20898438,4.5776367,-1.953125,3.1738281,0.0,0.0,0.0,125.71655,68.35693,-160.65308
1765589576226,-0.94384766,0.29736328,-0.20898438,4.5776367,-1.953125,3.1738281,0.0,0.0,0.0,125.62866,68.274536,-160.93323
1765589576314,-0.9038086,0.31396484,-0.21875,-0.8544922,-0.36621094,0.0,0.0,0.0,0.0,125.62866,68.274536,-160.93323
1765589576325,-0.9038086,0.31396484,-0.21875,-0.8544922,-0.36621094,0.0,0.0,0.0,0.0,124.98047,68.26904,-162.09229
1765589576413,-0.94628906,0.28125,-0.19677734,0.48828125,0.4272461,1.5258789,0.0,0.0,0.0,124.98047,68.26904,-162.09229
1765589576425,-0.94628906,0.28125,-0.19677734,0.48828125,0.4272461,1.5258789,0.0,0.0,0.0,125.32654,68.07678,-161.4331
1765589576513,-0.9169922,0.32226562,-0.20703125,8.483887,-4.638672,1.5869141,0.0,0.0,0.0,125.32654,68.07678,-161.4331
1765589576525,-0.9169922,0.32226562,-0.20703125,8.483887,-4.638672,1.5869141,0.0,0.0,0.0,124.694824,68.170166,-162.99316
1765589576613,-0.9301758,0.30126953,-0.21191406,-4.8217773,2.319336,-0.91552734,0.0,0.0,0.0,124.694824,68.170166,-162.99316
1765589576624,-0.9301758,0.30126953,-0.21191406,-4.8217773,2.319336,-0.91552734,0.0,0.0,0.0,124.70581,68.1427,-162.78442
1765589576712,-0.93896484,0.30859375,-0.20703125,4.0283203,-3.8452148,1.4038086,0.0,0.0,0.0,124.70581,68.1427,-162.78442
1765589576724,-0.93896484,0.30859375,-0.20703125,4.0283203,-3.8452148,1.4038086,0.0,0.0,0.0,124.6344,68.08777,-162.99866
1765589576812,-0.9238281,0.3203125,-0.21386719,-3.0517578,2.1972656,-1.2817383,0.0,0.0,0.0,124.6344,68.08777,-162.99866
1765589576824,-0.9238281,0.3203125,-0.21386719,-3.0517578,2.1972656,-1.2817383,0.0,0.0,0.0,124.26636,68.15369,-163.53699
1765589576912,-0.9350586,0.29882812,-0.20361328,-3.7841797,-0.24414062,-1.5258789,0.0,0.0,0.0,124.26636,68.15369,-163.53699
1765589576923,-0.9350586,0.29882812,-0.20361328,-3.7841797,-0.24414062,-1.5258789,0.0,0.0,0.0,124.4751,68.18115,-162.8778
1765589577012,-0.9213867,0.31591797,-0.19824219,1.0986328,-0.79345703,-0.30517578,0.0,0.0,0.0,124.4751,68.18115,-162.8778
1765589577023,-0.9213867,0.31591797,-0.19824219,1.0986328,-0.79345703,-0.30517578,0.0,0.0,0.0,124.26636,68.24707,-163.14148
1765589577111,-0.9458008,0.2788086,-0.19726562,2.380371,2.1362305,0.79345703,0.0,0.0,0.0,124.26636,68.24707,-163.14148
1765589577123,-0.9458008,0.2788086,-0.19726562,2.380371,2.1362305,0.79345703,0.0,0.0,0.0,124.51904,68.23059,-162.63611
1765589577211,-0.9272461,0.32666016,-0.21191406,1.7089844,-5.126953,0.061035156,0.0,0.0,0.0,124.51904,68.23059,-162.63611
1765589577222,-0.9272461,0.32666016,-0.21191406,1.7089844,-5.126953,0.061035156,0.0,0.0,0.0,124.20593,68.25256,-163.35571
1765589577311,-0.953125,0.2944336,-0.203125,-2.1362305,3.8452148,0.24414062,0.0,0.0,0.0,124.20593,68.25256,-163.35571
1765589577322,-0.953125,0.2944336,-0.203125,-2.1362305,3.8452148,0.24414062,0.0,0.0,0.0,124.44214,68.1427,-162.86133
1765589577410,-0.93066406,0.31640625,-0.21435547,3.3569336,-2.8686523,2.4414062,0.0,0.0,0.0,124.44214,68.1427,-162.86133
1765589577422,-0.93066406,0.31640625,-0.21435547,3.3569336,-2.8686523,2.4414062,0.0,0.0,0.0,124.002686,68.2251,-163.75671
1765589577510,-0.93359375,0.31591797,-0.19628906,-3.4179688,0.8544922,-0.18310547,0.0,0.0,0.0,124.002686,68.2251,-163.75671
1765589577522,-0.93359375,0.31591797,-0.19628906,-3.4179688,0.8544922,-0.18310547,0.0,0.0,0.0,123.96423,68.082275,-163.75671
1765589577610,-0.93603516,0.31884766,-0.20263672,-1.4648438,-0.18310547,-0.8544922,0.0,0.0,0.0,123.96423,68.082275,-163.75671
1765589577621,-0.93603516,0.31884766,-0.20263672,-1.4648438,-0.18310547,-0.8544922,0.0,0.0,0.0,123.93677,68.10425,-163.62488
1765589577710,-0.94091797,0.30419922,-0.21191406,1.2207031,-0.18310547,2.0751953,0.0,0.0,0.0,123.93677,68.10425,-163.62488
1765589577721,-0.94091797,0.30419922,-0.21191406,1.2207031,-0.18310547,2.0751953,0.0,0.0,0.0,123.85437,68.10974,-163.73474
1765589577809,-0.91845703,0.31103516,-0.20703125,-2.9907227,1.4648438,-1.0986328,0.0,0.0,0.0,123.85437,68.10974,-163.73474
1765589577821,-0.91845703,0.31103516,-0.20703125,-2.9907227,1.4648438,-1.0986328,0.0,0.0,0.0,123.447876,68.13721,-164.45435
1765589577909,-0.93310547,0.3095703,-0.19677734,2.2583008,-2.6245117,0.61035156,0.0,0.0,0.0,123.447876,68.13721,-164.45435
1765589577921,-0.93310547,0.3095703,-0.19677734,2.2583008,-2.6245117,0.61035156,0.0,0.0,0.0,123.93677,68.04382,-163.83362
1765589578009,-0.9321289,0.30810547,-0.19189453,-0.5493164,4.0893555,1.159668,0.0,0.0,0.0,123.93677,68.04382,-163.83362
1765589578020,-0.9321289,0.30810547,-0.19189453,-0.5493164,4.0893555,1.159668,0.0,0.0,0.0,123.64563,68.07129,-164.28406
1765589578109,-0.91259766,0.31689453,-0.2163086,-0.61035156,-2.1972656,0.4272461,0.0,0.0,0.0,123.64563,68.07129,-164.28406
1765589578120,-0.91259766,0.31689453,-0.2163086,-0.61035156,-2.1972656,0.4272461,0.0,0.0,0.0,123.49182,67.98889,-164.3335
1765589578208,-0.94628906,0.30810547,-0.19140625,0.0,-0.12207031,-1.4648438,0.0,0.0,0.0,123.49182,67.98889,-164.3335
1765589578220,-0.94628906,0.30810547,-0.19140625,0.0,-0.12207031,-1.4648438,0.0,0.0,0.0,123.94226,67.94495,-163.70728
1765589578308,-0.92822266,0.30664062,-0.19384766,1.4648438,1.8310547,0.36621094,0.0,0.0,0.0,123.94226,67.94495,-163.70728
1765589578320,-0.92822266,0.30664062,-0.19384766,1.4648438,1.8310547,0.36621094,0.0,0.0,0.0,123.63464,68.10425,-164.23462
1765589578408,-0.9238281,0.3046875,-0.22216797,1.7089844,-3.9672852,-0.12207031,0.0,0.0,0.0,123.63464,68.10425,-164.23462
1765589578419,-0.9238281,0.3046875,-0.22216797,1.7089844,-3.9672852,-0.12207031,0.0,0.0,0.0,123.61267,68.10974,-164.30054
1765589578507,-0.9477539,0.31982422,-0.19189453,-2.6245117,1.159668,-0.5493164,0.0,0.0,0.0,123.61267,68.10974,-164.30054
1765589578519,-0.9477539,0.31982422,-0.19189453,-2.6245117,1.159668,-0.5493164,0.0,0.0,0.0,124.002686,68.08777,-164.07532
1765589578607,-0.93310547,0.31152344,-0.19335938,2.8686523,1.0375977,1.0986328,0.0,0.0,0.0,124.002686,68.08777,-164.07532
1765589578619,-0.93310547,0.31152344,-0.19335938,2.8686523,1.0375977,1.0986328,0.0,0.0,0.0,123.689575,68.170166,-164.48181
1765589578707,-0.9165039,0.31054688,-0.21582031,-0.61035156,-1.8310547,-0.91552734,0.0,0.0,0.0,123.689575,68.170166,-164.48181
1765589578718,-0.9165039,0.31054688,-0.21582031,-0.61035156,-1.8310547,-0.91552734,0.0,0.0,0.0,123.48633,68.2251,-164.70703
1765589578807,-0.9448242,0.3095703,-0.19091797,0.9765625,-0.4272461,-0.18310547,0.0,0.0,0.0,123.48633,68.2251,-164.70703
1765589578818,-0.9448242,0.3095703,-0.19091797,0.9765625,-0.4272461,-0.18310547,0.0,0.0,0.0,123.84888,68.16467,-164.20166
1765589578906,-0.93408203,0.30322266,-0.20410156,1.7089844,0.4272461,0.12207031,0.0,0.0,0.0,123.84888,68.16467,-164.20166
1765589578918,-0.93408203,0.30322266,-0.20410156,1.7089844,0.4272461,0.12207031,0.0,0.0,0.0,123.69507,68.274536,-164.5697
1765589579007,-0.9321289,0.30908203,-0.20214844,1.953125,-2.0141602,-0.18310547,0.0,0.0,0.0,123.69507,68.274536,-164.5697
1765589579018,-0.9321289,0.30908203,-0.20214844,1.953125,-2.0141602,-0.18310547,0.0,0.0,0.0,123.75549,68.274536,-164.70703
1765589579106,-0.94628906,0.30126953,-0.20019531,-2.2583008,2.8686523,-0.30517578,0.0,0.0,0.0,123.75549,68.274536,-164.70703
1765589579117,-0.94628906,0.30126953,-0.20019531,-2.2583008,2.8686523,-0.30517578,0.0,0.0,0.0,123.9093,68.291016,-164.48181
1765589579205,-0.9321289,0.31347656,-0.19824219,5.2490234,-3.2958984,1.8310547,0.0,0.0,0.0,123.9093,68.291016,-164.48181
1765589579217,-0.9321289,0.31347656,-0.19824219,5.2490234,-3.2958984,1.8310547,0.0,0.0,0.0,123.94226,68.23059,-164.63013
1765589579306,-0.9326172,0.3154297,-0.20751953,-1.8310547,1.4648438,-0.6713867,0.0,0.0,0.0,123.94226,68.23059,-164.63013
1765589579317,-0.9326172,0.3154297,-0.20751953,-1.8310547,1.4648438,-0.6713867,0.0,0.0,0.0,123.84338,68.24707,-164.77844
1765589579405,-0.9350586,0.30029297,-0.20166016,0.91552734,-0.18310547,0.061035156,0.0,0.0,0.0,123.84338,68.24707,-164.77844
1765589579417,-0.9350586,0.30029297,-0.20166016,0.91552734,-0.18310547,0.061035156,0.0,0.0,0.0,123.931274,68.219604,-164.61914
1765589579505,-0.93066406,0.32226562,-0.20654297,0.61035156,-1.3427734,0.18310547,0.0,0.0,0.0,123.931274,68.219604,-164.61914
1765589579516,-0.93066406,0.32226562,-0.20654297,0.61035156,-1.3427734,0.18310547,0.0,0.0,0.0,123.80493,68.26904,-164.93225
1765589579604,-0.9326172,0.30273438,-0.20800781,-2.8076172,1.2817383,0.0,0.0,0.0,0.0,123.80493,68.26904,-164.93225
1765589579616,-0.9326172,0.30273438,-0.20800781,-2.8076172,1.2817383,0.0,0.0,0.0,0.0,123.68408,68.19214,-164.85535
1765589579704,-0.92871094,0.31689453,-0.19921875,1.8920898,-2.0751953,0.24414062,0.0,0.0,0.0,123.68408,68.19214,-164.85535
1765589579716,-0.92871094,0.31689453,-0.19921875,1.8920898,-2.0751953,0.24414062,0.0,0.0,0.0,123.50281,68.24158,-165.23987
1765589579804,-0.93310547,0.3076172,-0.19580078,-0.061035156,0.12207031,0.061035156,0.0,0.0,0.0,123.50281,68.24158,-165.23987
1765589579815,-0.93310547,0.3076172,-0.19580078,-0.061035156,0.12207031,0.061035156,0.0,0.0,0.0,123.47534,68.203125,-165.14648
1765589579904,-0.93066406,0.3100586,-0.203125,0.5493164,-0.24414062,-0.12207031,0.0,0.0,0.0,123.47534,68.203125,-165.14648
1765589579915,-0.93066406,0.3100586,-0.203125,0.5493164,-0.24414062,-0.12207031,0.0,0.0,0.0,123.42041,68.26355,-165.23438
1765589580003,-0.9238281,0.30419922,-0.1953125,-1.4648438,1.7089844,-0.91552734,0.0,0.0,0.0,123.42041,68.26355,-165.23438
1765589580018,-0.9238281,0.30419922,-0.1953125,-1.4648438,1.7089844,-0.91552734,0.0,0.0,0.0,123.54675,68.302,-164.96521
1765589580103,-0.9296875,0.30078125,-0.19628906,1.2207031,-2.4414062,-0.9765625,0.0,0.0,0.0,123.54675,68.302,-164.96521
1765589580114,-0.9296875,0.30078125,-0.19628906,1.2207031,-2.4414062,-0.9765625,0.0,0.0,0.0,123.62366,68.38989,-164.83337
1765589580203,-0.94189453,0.30859375,-0.19482422,-2.0141602,0.8544922,-1.5258789,0.0,0.0,0.0,123.62366,68.38989,-164.83337
1765589580221,-0.94189453,0.30859375,-0.19482422,-2.0141602,0.8544922,-1.5258789,0.0,0.0,0.0,123.62366,68.53821,-164.71802
1765589580302,-0.9321289,0.29882812,-0.20214844,-1.2207031,-0.061035156,-0.18310547,0.0,0.0,0.0,123.62366,68.53821,-164.71802
1765589580314,-0.9321289,0.29882812,-0.20214844,-1.2207031,-0.061035156,-0.18310547,0.0,0.0,0.0,123.497314,68.61511,-164.6521
1765589580402,-0.9316406,0.3046875,-0.1977539,0.0,-1.2207031,0.0,0.0,0.0,0.0,123.497314,68.61511,-164.6521
1765589580414,-0.9316406,0.3046875,-0.1977539,0.0,-1.2207031,0.0,0.0,0.0,0.0,123.40393,68.6261,-164.75098
1765589580502,-0.9399414,0.29736328,-0.18945312,-1.2207031,1.8920898,0.0,0.0,0.0,0.0,123.40393,68.6261,-164.75098
1765589580514,-0.9399414,0.29736328,-0.18945312,-1.2207031,1.8920898,0.0,0.0,0.0,0.0,123.43689,68.604126,-164.60815
1765589580602,-0.9350586,0.30908203,-0.19921875,1.5869141,-2.1362305,0.4272461,0.0,0.0,0.0,123.43689,68.604126,-164.60815
1765589580613,-0.9350586,0.30908203,-0.19921875,1.5869141,-2.1362305,0.4272461,0.0,0.0,0.0,123.272095,68.60962,-164.88281
1765589580701,-0.9370117,0.30322266,-0.19873047,-1.8310547,1.4038086,-0.12207031,0.0,0.0,0.0,123.272095,68.60962,-164.88281
1765589580713,-0.9370117,0.30322266,-0.19873047,-1.8310547,1.4038086,-0.12207031,0.0,0.0,0.0,123.343506,68.58215,-164.71802
1765589580801,-0.9375,0.31103516,-0.19335938,-0.6713867,0.5493164,0.0,0.0,0.0,0.0,123.343506,68.58215,-164.71802
1765589580813,-0.9375,0.31103516,-0.19335938,-0.6713867,0.5493164,0.0,0.0,0.0,0.0,123.409424,68.565674,-164.69055
1765589580901,-0.93066406,0.3022461,-0.1977539,0.24414062,0.061035156,0.0,0.0,0.0,0.0,123.409424,68.565674,-164.69055
1765589580912,-0.93066406,0.3022461,-0.1977539,0.24414062,0.061035156,0.0,0.0,0.0,0.0,123.392944,68.57666,-164.70154
1765589581001,-0.9345703,0.30566406,-0.19873047,0.0,-0.061035156,0.061035156,0.0,0.0,0.0,123.392944,68.57666,-164.70154
1765589581012,-0.9345703,0.30566406,-0.19873047,0.0,-0.061035156,0.061035156,0.0,0.0,0.0,123.480835,68.55469,-164.62463
1765589581100,-0.9375,0.30371094,-0.19140625,-0.4272461,0.30517578,-0.18310547,0.0,0.0,0.0,123.480835,68.55469,-164.62463
1765589581112,-0.9375,0.30371094,-0.19140625,-0.4272461,0.30517578,-0.18310547,0.0,0.0,0.0,123.54675,68.55469,-164.53674
1765589581200,-0.9326172,0.3071289,-0.19824219,-0.061035156,0.36621094,0.0,0.0,0.0,0.0,123.54675,68.55469,-164.53674
1765589581212,-0.9326172,0.3071289,-0.19824219,-0.061035156,0.36621094,0.0,0.0,0.0,0.0,123.447876,68.59314,-164.69055
1765589581300,-0.9350586,0.3017578,-0.19726562,0.48828125,-0.061035156,0.12207031,0.0,0.0,0.0,123.447876,68.59314,-164.69055
1765589581312,-0.9350586,0.3017578,-0.19726562,0.48828125,-0.061035156,0.12207031,0.0,0.0,0.0,123.51929,68.57666,-164.58618
1765589581399,-0.93652344,0.30322266,-0.19482422,-0.61035156,0.48828125,0.0,0.0,0.0,0.0,123.51929,68.57666,-164.58618
1765589581411,-0.93652344,0.30322266,-0.19482422,-0.61035156,0.48828125,0.0,0.0,0.0,0.0,123.53027,68.565674,-164.58069
1765589581499,-0.9355469,0.30664062,-0.1953125,0.18310547,-0.5493164,0.0,0.0,0.0,0.0,123.53027,68.565674,-164.58069
1765589581511,-0.9355469,0.30664062,-0.1953125,0.18310547,-0.5493164,0.0,0.0,0.0,0.0,123.513794,68.57117,-164.59717
1765589581599,-0.9350586,0.30664062,-0.19873047,0.0,0.0,0.0,0.0,0.0,0.0,123.513794,68.57117,-164.59717
1765589581610,-0.9350586,0.30664062,-0.19873047,0.0,0.0,0.0,0.0,0.0,0.0,123.52478,68.56018,-164.56421
1765589581699,-0.93652344,0.3046875,-0.19921875,-0.36621094,1.0375977,-0.30517578,0.0,0.0,0.0,123.52478,68.56018,-164.56421
1765589581710,-0.93652344,0.3046875,-0.19921875,-0.36621094,1.0375977,-0.30517578,0.0,0.0,0.0,123.54126,68.55469,-164.54773
1765589581798,-0.93310547,0.3022461,-0.19970703,0.79345703,-0.6713867,0.0,0.0,0.0,0.0,123.54126,68.55469,-164.54773
1765589581810,-0.93310547,0.3022461,-0.19970703,0.79345703,-0.6713867,0.0,0.0,0.0,0.0,123.61267,68.55469,-164.46533
1765589581898,-0.9404297,0.3017578,-0.1953125,-0.12207031,1.5869141,-0.18310547,0.0,0.0,0.0,123.61267,68.55469,-164.46533
1765589581910,-0.9404297,0.3017578,-0.1953125,-0.12207031,1.5869141,-0.18310547,0.0,0.0,0.0,123.81592,68.532715,-164.26758
1765589581998,-0.9355469,0.3046875,-0.19970703,1.8920898,-1.159668,0.30517578,0.0,0.0,0.0,123.81592,68.532715,-164.26758
1765589582009,-0.9355469,0.3046875,-0.19970703,1.8920898,-1.159668,0.30517578,0.0,0.0,0.0,123.914795,68.532715,-164.29504
1765589582098,-0.9370117,0.3017578,-0.19628906,0.8544922,-0.12207031,-0.061035156,0.0,0.0,0.0,123.914795,68.532715,-164.29504
1765589582109,-0.9370117,0.3017578,-0.19628906,0.8544922,-0.12207031,-0.061035156,0.0,0.0,0.0,123.92578,68.549194,-164.37195
1765589582197,-0.9321289,0.30273438,-0.20166016,0.6713867,0.24414062,-0.30517578,0.0,0.0,0.0,123.92578,68.549194,-164.37195
1765589582209,-0.9321289,0.30273438,-0.20166016,0.6713867,0.24414062,-0.30517578,0.0,0.0,0.0,123.94226,68.57666,-164.43787
1765589582297,-0.93652344,0.30029297,-0.20019531,0.61035156,-0.48828125,0.0,0.0,0.0,0.0,123.94226,68.57666,-164.43787
1765589582308,-0.93652344,0.30029297,-0.20019531,0.61035156,-0.48828125,0.0,0.0,0.0,0.0,124.11804,68.55469,-164.25659
1765589582397,-0.93359375,0.3017578,-0.19970703,-0.79345703,1.159668,-0.36621094,0.0,0.0,0.0,124.11804,68.55469,-164.25659
1765589582409,-0.93359375,0.3017578,-0.19970703,-0.79345703,1.159668,-0.36621094,0.0,0.0,0.0,124.11255,68.57117,-164.27856
1765589582497,-0.93310547,0.3076172,-0.20166016,-0.18310547,-0.48828125,-0.48828125,0.0,0.0,0.0,124.11255,68.57117,-164.27856
1765589582508,-0.93310547,0.3076172,-0.20166016,-0.18310547,-0.48828125,-0.48828125,0.0,0.0,0.0,124.140015,68.59314,-164.21814
1765589582596,-0.93359375,0.29833984,-0.203125,0.4272461,-0.24414062,-0.12207031,0.0,0.0,0.0,124.140015,68.59314,-164.21814
1765589582608,-0.93359375,0.29833984,-0.203125,0.4272461,-0.24414062,-0.12207031,0.0,0.0,0.0,124.20044,68.604126,-164.02039
1765589582696,-0.93408203,0.3017578,-0.203125,-0.061035156,0.4272461,-0.061035156,0.0,0.0,0.0,124.20044,68.604126,-164.02039
1765589582708,-0.93408203,0.3017578,-0.203125,-0.061035156,0.4272461,-0.061035156,0.0,0.0,0.0,124.13452,68.61511,-164.14124
1765589582796,-0.9345703,0.29589844,-0.20458984,0.0,0.0,-0.18310547,0.0,0.0,0.0,124.13452,68.61511,-164.14124
1765589582807,-0.9345703,0.29589844,-0.20458984,0.0,0.0,-0.18310547,0.0,0.0,0.0,124.21692,68.604126,-163.97095
1765589582895,-0.93408203,0.3022461,-0.19921875,-0.12207031,0.36621094,0.0,0.0,0.0,0.0,124.21692,68.604126,-163.97095
1765589582907,-0.93408203,0.3022461,-0.19921875,-0.12207031,0.36621094,0.0,0.0,0.0,0.0,124.25537,68.60962,-163.95996
1765589582995,-0.9379883,0.30029297,-0.20214844,-0.061035156,0.0,-0.061035156,0.0,0.0,0.0,124.25537,68.60962,-163.95996
1765589583007,-0.9379883,0.30029297,-0.20214844,-0.061035156,0.0,-0.061035156,0.0,0.0,0.0,124.315796,68.58765,-163.83911
1765589583095,-0.93408203,0.30126953,-0.2006836,-0.061035156,-0.18310547,0.0,0.0,0.0,0.0,124.315796,68.58765,-163.83911
1765589583107,-0.93408203,0.30126953,-0.2006836,-0.061035156,-0.18310547,0.0,0.0,0.0,0.0,124.28833,68.59314,-163.83911
1765589583194,-0.93652344,0.30126953,-0.2006836,-0.8544922,0.30517578,-0.24414062,0.0,0.0,0.0,124.28833,68.59314,-163.83911
1765589583206,-0.93652344,0.30126953,-0.2006836,-0.8544922,0.30517578,-0.24414062,0.0,0.0,0.0,124.315796,68.58765,-163.75671
1765589583294,-0.93310547,0.2993164,-0.203125,0.0,0.0,0.0,0.0,0.0,0.0,124.315796,68.58765,-163.75671
1765589583306,-0.93310547,0.2993164,-0.203125,0.0,0.0,0.0,0.0,0.0,0.0,124.27734,68.60962,-163.7622
1765589583394,-0.9355469,0.30126953,-0.19970703,-1.2207031,0.4272461,-0.12207031,0.0,0.0,0.0,124.27734,68.60962,-163.7622
1765589583406,-0.9355469,0.30126953,-0.19970703,-1.2207031,0.4272461,-0.12207031,0.0,0.0,0.0,124.29382,68.604126,-163.73474
1765589583494,-0.93847656,0.2998047,-0.19726562,0.12207031,-0.61035156,0.0,0.0,0.0,0.0,124.29382,68.604126,-163.73474
1765589583505,-0.93847656,0.2998047,-0.19726562,0.12207031,-0.61035156,0.0,0.0,0.0,0.0,124.20044,68.61511,-163.7622
1765589583593,-0.9321289,0.2998047,-0.20117188,0.12207031,-0.36621094,-0.18310547,0.0,0.0,0.0,124.20044,68.61511,-163.7622
1765589583605,-0.9321289,0.2998047,-0.20117188,0.12207031,-0.36621094,-0.18310547,0.0,0.0,0.0,124.09607,68.64807,-163.88306
1765589583693,-0.9370117,0.29882812,-0.1953125,0.061035156,1.159668,0.0,0.0,0.0,0.0,124.09607,68.64807,-163.88306
1765589583705,-0.9370117,0.29882812,-0.1953125,0.061035156,1.159668,0.0,0.0,0.0,0.0,124.13452,68.6261,-163.8501
1765589583793,-0.93310547,0.3022461,-0.203125,0.79345703,-1.4648438,0.30517578,0.0,0.0,0.0,124.13452,68.6261,-163.8501
1765589583804,-0.93310547,0.3022461,-0.203125,0.79345703,-1.4648438,0.30517578,0.0,0.0,0.0,124.16199,68.620605,-163.83362
1765589583893,-0.93652344,0.3017578,-0.1977539,-1.2817383,1.3427734,0.0,0.0,0.0,0.0,124.16199,68.620605,-163.83362
1765589583904,-0.93652344,0.3017578,-0.1977539,-1.2817383,1.3427734,0.0,0.0,0.0,0.0,124.11804,68.59863,-163.87207
1765589583992,-0.93603516,0.30517578,-0.20263672,1.6479492,-0.91552734,0.30517578,0.0,0.0,0.0,124.11804,68.59863,-163.87207
1765589584004,-0.93603516,0.30517578,-0.20263672,1.6479492,-0.91552734,0.30517578,0.0,0.0,0.0,124.10156,68.60962,-163.97095
1765589584092,-0.9379883,0.2993164,-0.19677734,-1.159668,0.4272461,-0.30517578,0.0,0.0,0.0,124.10156,68.60962,-163.97095
1765589584104,-0.9379883,0.2993164,-0.19677734,-1.159668,0.4272461,-0.30517578,0.0,0.0,0.0,124.123535,68.604126,-163.85559
1765589584192,-0.9345703,0.30273438,-0.20117188,0.48828125,-0.5493164,0.0,0.0,0.0,0.0,124.123535,68.604126,-163.85559
1765589584203,-0.9345703,0.30273438,-0.20117188,0.48828125,-0.5493164,0.0,0.0,0.0,0.0,124.02466,68.6261,-163.99292
1765589584291,-0.93652344,0.30078125,-0.20214844,-0.61035156,0.24414062,0.0,0.0,0.0,0.0,124.02466,68.6261,-163.99292
1765589584303,-0.93652344,0.30078125,-0.20214844,-0.61035156,0.24414062,0.0,0.0,0.0,0.0,124.03015,68.61511,-163.97644
1765589584391,-0.9291992,0.30078125,-0.19873047,0.30517578,-1.5869141,0.18310547,0.0,0.0,0.0,124.03015,68.61511,-163.97644
1765589584403,-0.9291992,0.30078125,-0.19873047,0.30517578,-1.5869141,0.18310547,0.0,0.0,0.0,123.793945,68.64258,-164.22913
1765589584491,-0.9399414,0.30566406,-0.19042969,0.5493164,0.7324219,-0.18310547,0.0,0.0,0.0,123.793945,68.64258,-164.22913
1765589584503,-0.9399414,0.30566406,-0.19042969,0.5493164,0.7324219,-0.18310547,0.0,0.0,0.0,123.793945,68.653564,-164.2511
1765589584591,-0.93408203,0.29589844,-0.2006836,0.91552734,0.91552734,1.159668,0.0,0.0,0.0,123.793945,68.653564,-164.2511
1765589584602,-0.93408203,0.29589844,-0.2006836,0.91552734,0.91552734,1.159668,0.0,0.0,0.0,123.81592,68.61511,-164.21814
1765589584690,-0.93310547,0.3071289,-0.20800781,0.79345703,-1.7089844,0.0,0.0,0.0,0.0,123.81592,68.61511,-164.21814
1765589584702,-0.93310547,0.3071289,-0.20800781,0.79345703,-1.7089844,0.0,0.0,0.0,0.0,123.62366,68.637085,-164.61365
1765589584790,-0.9404297,0.30859375,-0.20117188,-2.5634766,1.2817383,-1.0986328,0.0,0.0,0.0,123.62366,68.637085,-164.61365
1765589584802,-0.9404297,0.30859375,-0.20117188,-2.5634766,1.2817383,-1.0986328,0.0,0.0,0.0,123.95874,68.604126,-164.1742
1765589584890,-0.9394531,0.30517578,-0.19482422,-0.48828125,0.0,-0.30517578,0.0,0.0,0.0,123.95874,68.604126,-164.1742
1765589584901,-0.9394531,0.30517578,-0.19482422,-0.48828125,0.0,-0.30517578,0.0,0.0,0.0,123.86536,68.68103,-164.28406
1765589584990,-0.9326172,0.29589844,-0.20361328,1.4038086,-1.5869141,0.6713867,0.0,0.0,0.0,123.86536,68.68103,-164.28406
1765589585001,-0.9326172,0.29589844,-0.20361328,1.4038086,-1.5869141,0.6713867,0.0,0.0,0.0,123.793945,68.66455,-164.37195
1765589585089,-0.93847656,0.2993164,-0.18945312,0.12207031,0.5493164,-0.91552734,0.0,0.0,0.0,123.793945,68.66455,-164.37195
1765589585101,-0.93847656,0.2993164,-0.18945312,0.12207031,0.5493164,-0.91552734,0.0,0.0,0.0,123.8324,68.69751,-164.4049
1765589585189,-0.9345703,0.30273438,-0.19677734,-0.12207031,0.7324219,0.24414062,0.0,0.0,0.0,123.8324,68.69751,-164.4049
1765589585201,-0.9345703,0.30273438,-0.19677734,-0.12207031,0.7324219,0.24414062,0.0,0.0,0.0,123.898315,68.73047,-164.36096
1765589585289,-0.92871094,0.2998047,-0.20361328,0.6713867,-1.2817383,0.061035156,0.0,0.0,0.0,123.898315,68.73047,-164.36096
1765589585300,-0.92871094,0.2998047,-0.20361328,0.6713867,-1.2817383,0.061035156,0.0,0.0,0.0,123.75549,68.708496,-164.51477
1765589585388,-0.9375,0.30126953,-0.19726562,-0.18310547,0.61035156,-0.24414062,0.0,0.0,0.0,123.75549,68.708496,-164.51477
1765589585400,-0.9375,0.30126953,-0.19726562,-0.18310547,0.61035156,-0.24414062,0.0,0.0,0.0,123.86536,68.68103,-164.39392
1765589585488,-0.9448242,0.2915039,-0.1928711,1.4648438,-0.12207031,1.5869141,0.0,0.0,0.0,123.86536,68.68103,-164.39392
1765589585500,-0.9448242,0.2915039,-0.1928711,1.4648438,-0.12207031,1.5869141,0.0,0.0,0.0,123.8324,68.637085,-164.46533
1765589585588,-0.92529297,0.3178711,-0.20703125,-2.5024414,-3.4179688,-2.0751953,0.0,0.0,0.0,123.8324,68.637085,-164.46533
1765589585600,-0.92529297,0.3178711,-0.20703125,-2.5024414,-3.4179688,-2.0751953,0.0,0.0,0.0,123.349,68.77991,-165.04211
1765589585688,-0.94970703,0.29736328,-0.19042969,-0.61035156,-0.6713867,0.12207031,0.0,0.0,0.0,123.349,68.77991,-165.04211
1765589585699,-0.94970703,0.29736328,-0.19042969,-0.61035156,-0.6713867,0.12207031,0.0,0.0,0.0,123.33801,68.85681,-164.75098
1765589585787,-0.9379883,0.3071289,-0.1850586,1.2817383,-0.9765625,1.3427734,0.0,0.0,0.0,123.33801,68.85681,-164.75098
1765589585799,-0.9379883,0.3071289,-0.1850586,1.2817383,-0.9765625,1.3427734,0.0,0.0,0.0,122.854614,68.88428,-165.55298
1765589585887,-0.93896484,0.2944336,-0.19238281,0.6713867,-1.5258789,0.0,0.0,0.0,0.0,122.854614,68.88428,-165.55298
1765589585899,-0.93896484,0.2944336,-0.19238281,0.6713867,-1.5258789,0.0,0.0,0.0,0.0,122.66235,68.87329,-165.72876
1765589585987,-0.93847656,0.3095703,-0.18896484,-0.6713867,0.30517578,-1.2817383,0.0,0.0,0.0,122.66235,68.87329,-165.72876
1765589585998,-0.93847656,0.3095703,-0.18896484,-0.6713867,0.30517578,-1.2817383,0.0,0.0,0.0,122.61841,68.99414,-165.80566
1765589586087,-0.9394531,0.29785156,-0.18701172,0.36621094,0.18310547,0.36621094,0.0,0.0,0.0,122.61841,68.99414,-165.80566
1765589586098,-0.9394531,0.29785156,-0.18701172,0.36621094,0.18310547,0.36621094,0.0,0.0,0.0,122.66235,69.02161,-165.66284
1765589586186,-0.93603516,0.30615234,-0.19042969,0.0,-1.5258789,0.0,0.0,0.0,0.0,122.66235,69.02161,-165.66284
1765589586199,-0.93603516,0.30615234,-0.19042969,0.0,-1.5258789,0.0,0.0,0.0,0.0,122.42615,69.01062,-165.98694
1765589586286,-0.93847656,0.29345703,-0.18457031,-1.8310547,0.7324219,-0.7324219,0.0,0.0,0.0,122.42615,69.01062,-165.98694
1765589586298,-0.93847656,0.29345703,-0.18457031,-1.8310547,0.7324219,-0.7324219,0.0,0.0,0.0,122.53052,68.99414,-165.66284
1765589586386,-0.93896484,0.30371094,-0.18457031,1.2207031,-0.7324219,0.48828125,0.0,0.0,0.0,122.53052,68.99414,-165.66284
1765589586397,-0.93896484,0.30371094,-0.18457031,1.2207031,-0.7324219,0.48828125,0.0,0.0,0.0,122.39868,69.04358,-165.83313
1765589586485,-0.9375,0.30029297,-0.18652344,-0.30517578,0.18310547,-0.24414062,0.0,0.0,0.0,122.39868,69.04358,-165.83313
1765589586497,-0.9375,0.30029297,-0.18652344,-0.30517578,0.18310547,-0.24414062,0.0,0.0,0.0,122.34924,69.054565,-165.8606
1765589586585,-0.9404297,0.30419922,-0.18408203,0.0,-0.30517578,0.18310547,0.0,0.0,0.0,122.34924,69.054565,-165.8606
1765589586597,-0.9404297,0.30419922,-0.18408203,0.0,-0.30517578,0.18310547,0.0,0.0,0.0,122.316284,69.04907,-165.91553
1765589586685,-0.9350586,0.29882812,-0.18554688,0.79345703,-0.9765625,0.24414062,0.0,0.0,0.0,122.316284,69.04907,-165.91553
1765589586696,-0.9350586,0.29882812,-0.18554688,0.79345703,-0.9765625,0.24414062,0.0,0.0,0.0,122.23938,69.00513,-165.97046
1765589586785,-0.9394531,0.30615234,-0.17871094,0.9765625,0.91552734,0.061035156,0.0,0.0,0.0,122.23938,69.00513,-165.97046
1765589586796,-0.9394531,0.30615234,-0.17871094,0.9765625,0.91552734,0.061035156,0.0,0.0,0.0,122.145996,69.04907,-166.14624
1765589586884,-0.9326172,0.30810547,-0.19091797,1.4038086,1.8920898,-0.18310547,0.0,0.0,0.0,122.145996,69.04907,-166.14624
1765589586896,-0.9326172,0.30810547,-0.19091797,1.4038086,1.8920898,-0.18310547,0.0,0.0,0.0,122.43164,68.97766,-165.89355
1765589586984,-0.94091797,0.29296875,-0.19091797,-2.0141602,0.9765625,-1.5258789,0.0,0.0,0.0,122.43164,68.97766,-165.89355
1765589586996,-0.94091797,0.29296875,-0.19091797,-2.0141602,0.9765625,-1.5258789,0.0,0.0,0.0,122.92053,68.90076,-165.1355
1765589587084,-0.9375,0.30419922,-0.18603516,0.4272461,1.159668,-0.18310547,0.0,0.0,0.0,122.92053,68.90076,-165.1355
1765589587095,-0.9375,0.30419922,-0.18603516,0.4272461,1.159668,-0.18310547,0.0,0.0,0.0,123.06885,68.9447,-164.99817
1765589587183,-0.93652344,0.296875,-0.19384766,0.36621094,1.7089844,-0.18310547,0.0,0.0,0.0,123.06885,68.9447,-164.99817
1765589587195,-0.93652344,0.296875,-0.19384766,0.36621094,1.7089844,-0.18310547,0.0,0.0,0.0,123.56323,68.845825,-164.4104
1765589587283,-0.9375,0.296875,-0.19677734,0.0,0.91552734,-0.61035156,0.0,0.0,0.0,123.56323,68.845825,-164.4104
1765589587295,-0.9375,0.296875,-0.19677734,0.0,0.91552734,-0.61035156,0.0,0.0,0.0,123.810425,68.829346,-164.15771
1765589587383,-0.9370117,0.3017578,-0.20361328,-1.159668,0.61035156,-1.0375977,0.0,0.0,0.0,123.810425,68.829346,-164.15771
1765589587394,-0.9370117,0.3017578,-0.20361328,-1.159668,0.61035156,-1.0375977,0.0,0.0,0.0,124.019165,68.862305,-163.90503
1765589587483,-0.93652344,0.29785156,-0.20263672,0.24414062,-0.7324219,-0.24414062,0.0,0.0,0.0,124.019165,68.862305,-163.90503
1765589587494,-0.93652344,0.29785156,-0.20263672,0.24414062,-0.7324219,-0.24414062,0.0,0.0,0.0,124.26636,68.81287,-163.63037
1765589587582,-0.93310547,0.2944336,-0.19091797,-2.380371,2.4414062,-1.159668,0.0,0.0,0.0,124.26636,68.81287,-163.63037
1765589587594,-0.93310547,0.2944336,-0.19091797,-2.380371,2.4414062,-1.159668,0.0,0.0,0.0,124.09607,68.92273,-163.82263
1765589587683,-0.93603516,0.2939453,-0.1977539,2.0751953,-2.746582,0.18310547,0.0,0.0,0.0,124.09607,68.92273,-163.82263
1765589587694,-0.93603516,0.2939453,-0.1977539,2.0751953,-2.746582,0.18310547,0.0,0.0,0.0,124.244385,68.92822,-163.57544
1765589587782,-0.9370117,0.2915039,-0.19726562,-0.061035156,-0.36621094,-0.5493164,0.0,0.0,0.0,124.244385,68.92822,-163.57544
1765589587793,-0.9370117,0.2915039,-0.19726562,-0.061035156,-0.36621094,-0.5493164,0.0,0.0,0.0,124.090576,68.966675,-163.73474
1765589587881,-0.9379883,0.29492188,-0.19824219,-0.18310547,0.24414062,-0.12207031,0.0,0.0,0.0,124.090576,68.966675,-163.73474
1765589587893,-0.9379883,0.29492188,-0.19824219,-0.18310547,0.24414062,-0.12207031,0.0,0.0,0.0,123.9917,69.03259,-163.87207
1765589587981,-0.9355469,0.29492188,-0.1928711,1.0375977,-0.61035156,0.91552734,0.0,0.0,0.0,123.9917,69.03259,-163.87207
1765589587993,-0.9355469,0.29492188,-0.1928711,1.0375977,-0.61035156,0.91552734,0.0,0.0,0.0,123.97522,69.02161,-163.93799
1765589588081,-0.93847656,0.2993164,-0.19335938,-0.79345703,1.159668,0.18310547,0.0,0.0,0.0,123.97522,69.02161,-163.93799
1765589588093,-0.93847656,0.2993164,-0.19335938,-0.79345703,1.159668,0.18310547,0.0,0.0,0.0,123.947754,68.95569,-164.03137
1765589588181,-0.93603516,0.29541016,-0.20458984,0.5493164,0.9765625,0.36621094,0.0,0.0,0.0,123.947754,68.95569,-164.03137
1765589588193,-0.93603516,0.29541016,-0.20458984,0.5493164,0.9765625,0.36621094,0.0,0.0,0.0,124.151,68.88428,-163.83911
1765589588280,-0.93603516,0.29833984,-0.19726562,-0.4272461,-0.061035156,0.0,0.0,0.0,0.0,124.151,68.88428,-163.83911
1765589588292,-0.93603516,0.29833984,-0.19726562,-0.4272461,-0.061035156,0.0,0.0,0.0,0.0,124.22241,68.85681,-163.78418
1765589588380,-0.9379883,0.2998047,-0.19580078,-0.061035156,-0.61035156,0.24414062,0.0,0.0,0.0,124.22241,68.85681,-163.78418
1765589588392,-0.9379883,0.2998047,-0.19580078,-0.061035156,-0.61035156,0.24414062,0.0,0.0,0.0,124.156494,68.85681,-163.83911
1765589588480,-0.9379883,0.29589844,-0.1977539,-0.61035156,0.061035156,0.6713867,0.0,0.0,0.0,124.156494,68.85681,-163.83911
1765589588491,-0.9379883,0.29589844,-0.1977539,-0.61035156,0.061035156,0.6713867,0.0,0.0,0.0,123.95874,68.80188,-163.98193
1765589588579,-0.93847656,0.2993164,-0.19726562,1.2817383,-0.79345703,0.91552734,0.0,0.0,0.0,123.95874,68.80188,-163.98193
1765589588591,-0.93847656,0.2993164,-0.19726562,1.2817383,-0.79345703,0.91552734,0.0,0.0,0.0,123.84338,68.77991,-164.1742
1765589588679,-0.9355469,0.2998047,-0.20263672,-0.4272461,0.4272461,0.4272461,0.0,0.0,0.0,123.84338,68.77991,-164.1742
1765589588692,-0.9355469,0.2998047,-0.20263672,-0.4272461,0.4272461,0.4272461,0.0,0.0,0.0,123.73352,68.76892,-164.35547
1765589588779,-0.93115234,0.30810547,-0.1928711,-1.4648438,0.0,-0.48828125,0.0,0.0,0.0,123.73352,68.76892,-164.35547
1765589588791,-0.93115234,0.30810547,-0.1928711,-1.4648438,0.0,-0.48828125,0.0,0.0,0.0,123.6676,68.76892,-164.45435
1765589588879,-0.9404297,0.29785156,-0.1928711,0.18310547,-0.12207031,0.0,0.0,0.0,0.0,123.6676,68.76892,-164.45435
1765589588890,-0.9404297,0.29785156,-0.1928711,0.18310547,-0.12207031,0.0,0.0,0.0,0.0,123.71155,68.76343,-164.28955
1765589588978,-0.93603516,0.30371094,-0.19921875,-1.0986328,0.4272461,-0.18310547,0.0,0.0,0.0,123.71155,68.76343,-164.28955
1765589588990,-0.93603516,0.30371094,-0.19921875,-1.0986328,0.4272461,-0.18310547,0.0,0.0,0.0,123.673096,68.76892,-164.34998
1765589589078,-0.9394531,0.2993164,-0.19091797,-0.36621094,0.12207031,-0.24414062,0.0,0.0,0.0,123.673096,68.76892,-164.34998
1765589589090,-0.9394531,0.2993164,-0.19091797,-0.36621094,0.12207031,-0.24414062,0.0,0.0,0.0,123.71155,68.76892,-164.2456
1765589589178,-0.93652344,0.30126953,-0.19873047,0.12207031,-0.18310547,-0.061035156,0.0,0.0,0.0,123.71155,68.76892,-164.2456
1765589589190,-0.93652344,0.30126953,-0.19873047,0.12207031,-0.18310547,-0.061035156,0.0,0.0,0.0,123.618164,68.81836,-164.34448
1765589589278,-0.9370117,0.29882812,-0.19482422,0.24414062,0.0,-0.12207031,0.0,0.0,0.0,123.618164,68.81836,-164.34448
1765589589289,-0.9370117,0.29882812,-0.19482422,0.24414062,0.0,-0.12207031,0.0,0.0,0.0,123.65662,68.80737,-164.31152
1765589589377,-0.9375,0.3017578,-0.19384766,0.061035156,-0.18310547,0.061035156,0.0,0.0,0.0,123.65662,68.80737,-164.31152
1765589589389,-0.9375,0.3017578,-0.19384766,0.061035156,-0.18310547,0.061035156,0.0,0.0,0.0,123.6676,68.80188,-164.328
1765589589477,-0.93652344,0.30029297,-0.19580078,0.24414062,-0.36621094,0.0,0.0,0.0,0.0,123.6676,68.80188,-164.328
1765589589489,-0.93652344,0.30029297,-0.19580078,0.24414062,-0.36621094,0.0,0.0,0.0,0.0,123.618164,68.80737,-164.37195
1765589589577,-0.93652344,0.3022461,-0.19628906,0.0,0.0,-0.061035156,0.0,0.0,0.0,123.618164,68.80737,-164.37195
1765589589589,-0.93652344,0.3022461,-0.19628906,0.0,0.0,-0.061035156,0.0,0.0,0.0,123.62366,68.81287,-164.34998
1765589589676,-0.9370117,0.30126953,-0.19873047,0.0,0.5493164,0.0,0.0,0.0,0.0,123.62366,68.81287,-164.34998
1765589589688,-0.9370117,0.30126953,-0.19873047,0.0,0.5493164,0.0,0.0,0.0,0.0,123.60718,68.81836,-164.38843
1765589589776,-0.93408203,0.29882812,-0.19970703,-0.061035156,-0.61035156,0.0,0.0,0.0,0.0,123.60718,68.81836,-164.38843
1765589589788,-0.93408203,0.29882812,-0.19970703,-0.061035156,-0.61035156,0.0,0.0,0.0,0.0,123.60718,68.81287,-164.38843
1765589589876,-0.9404297,0.29882812,-0.19140625,-0.24414062,0.4272461,0.0,0.0,0.0,0.0,123.60718,68.81287,-164.38843
1765589589887,-0.9404297,0.29882812,-0.19140625,-0.24414062,0.4272461,0.0,0.0,0.0,0.0,123.61267,68.79639,-164.33899
1765589589976,-0.9355469,0.3022461,-0.20166016,0.36621094,-0.48828125,0.0,0.0,0.0,0.0,123.61267,68.79639,-164.33899
1765589589987,-0.9355469,0.3022461,-0.20166016,0.36621094,-0.48828125,0.0,0.0,0.0,0.0,123.54675,68.81836,-164.42139
1765589590075,-0.9375,0.30078125,-0.19189453,-0.5493164,-0.30517578,0.0,0.0,0.0,0.0,123.54675,68.81836,-164.42139
1765589590087,-0.9375,0.30078125,-0.19189453,-0.5493164,-0.30517578,0.0,0.0,0.0,0.0,123.513794,68.81836,-164.44885
1765589590175,-0.93896484,0.3022461,-0.19384766,-0.061035156,0.24414062,0.0,0.0,0.0,0.0,123.513794,68.81836,-164.44885
1765589590187,-0.93896484,0.3022461,-0.19384766,-0.061035156,0.24414062,0.0,0.0,0.0,0.0,123.45886,68.82385,-164.50928
1765589590275,-0.9355469,0.29833984,-0.19726562,0.061035156,-0.4272461,0.0,0.0,0.0,0.0,123.45886,68.82385,-164.50928
1765589590286,-0.9355469,0.29833984,-0.19726562,0.061035156,-0.4272461,0.0,0.0,0.0,0.0,123.42041,68.829346,-164.54224
1765589590374,-0.93603516,0.30029297,-0.1928711,-0.36621094,0.24414062,0.0,0.0,0.0,0.0,123.42041,68.829346,-164.54224
1765589590386,-0.93603516,0.30029297,-0.1928711,-0.36621094,0.24414062,0.0,0.0,0.0,0.0,123.409424,68.83484,-164.5752
1765589590474,-0.93408203,0.29785156,-0.19726562,0.36621094,-0.91552734,0.0,0.0,0.0,0.0,123.409424,68.83484,-164.5752
1765589590486,-0.93408203,0.29785156,-0.19726562,0.36621094,-0.91552734,0.0,0.0,0.0,0.0,123.39844,68.82385,-164.53674
1765589590574,-0.9355469,0.30126953,-0.18847656,0.0,-0.36621094,0.12207031,0.0,0.0,0.0,123.39844,68.82385,-164.53674
1765589590586,-0.9355469,0.30126953,-0.18847656,0.0,-0.36621094,0.12207031,0.0,0.0,0.0,123.33801,68.85132,-164.61914
1765589590674,-0.9399414,0.30517578,-0.19335938,0.91552734,-0.18310547,0.0,0.0,0.0,0.0,123.33801,68.85132,-164.61914
1765589590685,-0.9399414,0.30517578,-0.19335938,0.91552734,-0.18310547,0.0,0.0,0.0,0.0,123.239136,68.8678,-164.77844
1765589590773,-0.9370117,0.296875,-0.19824219,-0.36621094,-0.5493164,-0.36621094,0.0,0.0,0.0,123.239136,68.8678,-164.77844
1765589590785,-0.9370117,0.296875,-0.19824219,-0.36621094,-0.5493164,-0.36621094,0.0,0.0,0.0,123.23364,68.88977,-164.71252
1765589590873,-0.93652344,0.2998047,-0.1875,-0.061035156,0.30517578,0.36621094,0.0,0.0,0.0,123.23364,68.88977,-164.71252
1765589590886,-0.93652344,0.2998047,-0.1875,-0.061035156,0.30517578,0.36621094,0.0,0.0,0.0,123.14026,68.90625,-164.85535
1765589590973,-0.9379883,0.29882812,-0.19580078,1.4648438,-0.9765625,0.5493164,0.0,0.0,0.0,123.14026,68.90625,-164.85535
1765589590985,-0.9379883,0.29882812,-0.19580078,1.4648438,-0.9765625,0.5493164,0.0,0.0,0.0,123.10181,68.878784,-164.95972
1765589591073,-0.9345703,0.2993164,-0.19335938,-0.8544922,-0.061035156,-0.30517578,0.0,0.0,0.0,123.10181,68.878784,-164.95972
1765589591084,-0.9345703,0.2993164,-0.19335938,-0.8544922,-0.061035156,-0.30517578,0.0,0.0,0.0,123.05237,68.88428,-165.01465
1765589591172,-0.9375,0.30566406,-0.1899414,0.30517578,0.0,0.30517578,0.0,0.0,0.0,123.05237,68.88428,-165.01465
1765589591184,-0.9375,0.30566406,-0.1899414,0.30517578,0.0,0.30517578,0.0,0.0,0.0,122.96997,68.89526,-165.13
1765589591272,-0.93603516,0.2993164,-0.19482422,-0.061035156,0.12207031,-0.061035156,0.0,0.0,0.0,122.96997,68.89526,-165.13
1765589591284,-0.93603516,0.2993164,-0.19482422,-0.061035156,0.12207031,-0.061035156,0.0,0.0,0.0,123.013916,68.85681,-165.06958
1765589591372,-0.9370117,0.30029297,-0.19091797,-0.8544922,0.24414062,-0.24414062,0.0,0.0,0.0,123.013916,68.85681,-165.06958
1765589591383,-0.9370117,0.30029297,-0.19091797,-0.8544922,0.24414062,-0.24414062,0.0,0.0,0.0,122.975464,68.88428,-165.07507
1765589591471,-0.93408203,0.30029297,-0.19238281,0.48828125,-0.4272461,0.061035156,0.0,0.0,0.0,122.975464,68.88428,-165.07507
1765589591483,-0.93408203,0.30029297,-0.19238281,0.48828125,-0.4272461,0.061035156,0.0,0.0,0.0,122.958984,68.91174,-165.09155
1765589591571,-0.93896484,0.29882812,-0.19335938,-0.79345703,0.30517578,-0.12207031,0.0,0.0,0.0,122.958984,68.91174,-165.09155
1765589591583,-0.93896484,0.29882812,-0.19335938,-0.79345703,0.30517578,-0.12207031,0.0,0.0,0.0,122.942505,68.91174,-165.11353
1765589591671,-0.9399414,0.29833984,-0.1875,-0.8544922,0.48828125,0.061035156,0.0,0.0,0.0,122.942505,68.91174,-165.11353
1765589591683,-0.9399414,0.29833984,-0.1875,-0.8544922,0.48828125,0.061035156,0.0,0.0,0.0,123.013916,68.89526,-165.00366
1765589591771,-0.9350586,0.30615234,-0.1875,-0.24414062,0.30517578,-0.12207031,0.0,0.0,0.0,123.013916,68.89526,-165.00366
1765589591782,-0.9350586,0.30615234,-0.1875,-0.24414062,0.30517578,-0.12207031,0.0,0.0,0.0,122.89856,68.92273,-165.2124
1765589591871,-0.93896484,0.29736328,-0.19628906,0.9765625,-0.6713867,0.4272461,0.0,0.0,0.0,122.89856,68.92273,-165.2124
1765589591882,-0.93896484,0.29736328,-0.19628906,0.9765625,-0.6713867,0.4272461,0.0,0.0,0.0,123.013916,68.90076,-164.99817
1765589591970,-0.9433594,0.30566406,-0.18408203,-1.953125,1.7700195,0.0,0.0,0.0,0.0,123.013916,68.90076,-164.99817
1765589591982,-0.9433594,0.30566406,-0.18408203,-1.953125,1.7700195,0.0,0.0,0.0,0.0,122.975464,68.89526,-165.12451
1765589592070,-0.9350586,0.30273438,-0.19482422,0.7324219,-0.8544922,0.18310547,0.0,0.0,0.0,122.975464,68.89526,-165.12451
1765589592081,-0.9350586,0.30273438,-0.19482422,0.7324219,-0.8544922,0.18310547,0.0,0.0,0.0,122.909546,68.90076,-165.16846
1765589592169,-0.9370117,0.29882812,-0.19482422,-0.12207031,-0.061035156,0.0,0.0,0.0,0.0,122.909546,68.90076,-165.16846
1765589592181,-0.9370117,0.29882812,-0.19482422,-0.12207031,-0.061035156,0.0,0.0,0.0,0.0,122.948,68.88428,-165.10803
1765589592269,-0.9379883,0.30273438,-0.18945312,0.061035156,-0.18310547,-0.18310547,0.0,0.0,0.0,122.948,68.88428,-165.10803
1765589592281,-0.9379883,0.30273438,-0.18945312,0.061035156,-0.18310547,-0.18310547,0.0,0.0,0.0,122.942505,68.88977,-165.1355
1765589592369,-0.9379883,0.30371094,-0.19042969,-0.061035156,0.0,0.0,0.0,0.0,0.0,122.942505,68.88977,-165.1355
1765589592380,-0.9379883,0.30371094,-0.19042969,-0.061035156,0.0,0.0,0.0,0.0,0.0,122.942505,68.89526,-165.14099
1765589592469,-0.93652344,0.30029297,-0.1928711,0.061035156,-0.18310547,0.0,0.0,0.0,0.0,122.942505,68.89526,-165.14099
1765589592481,-0.93652344,0.30029297,-0.1928711,0.061035156,-0.18310547,0.0,0.0,0.0,0.0,122.90405,68.90076,-165.15747
1765589592568,-0.9370117,0.2998047,-0.19335938,0.24414062,0.48828125,0.0,0.0,0.0,0.0,122.90405,68.90076,-165.15747
1765589592580,-0.9370117,0.2998047,-0.19335938,0.24414062,0.48828125,0.0,0.0,0.0,0.0,122.926025,68.90076,-165.15747
1765589592668,-0.9379883,0.30078125,-0.18603516,-0.30517578,0.79345703,0.0,0.0,0.0,0.0,122.926025,68.90076,-165.15747
1765589592680,-0.9379883,0.30078125,-0.18603516,-0.30517578,0.79345703,0.0,0.0,0.0,0.0,123.10181,68.85681,-164.98169
1765589592768,-0.93896484,0.30371094,-0.18798828,0.6713867,-0.061035156,0.0,0.0,0.0,0.0,123.10181,68.85681,-164.98169
1765589592779,-0.93896484,0.30371094,-0.18798828,0.6713867,-0.061035156,0.0,0.0,0.0,0.0,123.14026,68.8678,-165.02014
1765589592867,-0.9379883,0.3017578,-0.19384766,0.30517578,-0.12207031,0.0,0.0,0.0,0.0,123.14026,68.8678,-165.02014
1765589592879,-0.9379883,0.3017578,-0.19384766,0.30517578,-0.12207031,0.0,0.0,0.0,0.0,123.17322,68.862305,-164.99817
1765589592967,-0.9399414,0.2993164,-0.18798828,-0.48828125,0.9765625,0.0,0.0,0.0,0.0,123.17322,68.862305,-164.99817
1765589592980,-0.9399414,0.2993164,-0.18798828,-0.48828125,0.9765625,0.0,0.0,0.0,0.0,123.22815,68.845825,-164.92676
1765589593067,-0.93408203,0.30273438,-0.19726562,-0.18310547,0.0,0.0,0.0,0.0,0.0,123.22815,68.845825,-164.92676
1765589593080,-0.93408203,0.30273438,-0.19726562,-0.18310547,0.0,0.0,0.0,0.0,0.0,123.19519,68.862305,-164.99817
1765589593167,-0.93847656,0.29882812,-0.19580078,-0.12207031,0.12207031,0.0,0.0,0.0,0.0,123.19519,68.862305,-164.99817
1765589593178,-0.93847656,0.29882812,-0.19580078,-0.12207031,0.12207031,0.0,0.0,0.0,0.0,123.272095,68.83484,-164.88281
1765589593266,-0.9375,0.30078125,-0.19384766,0.0,0.061035156,0.0,0.0,0.0,0.0,123.272095,68.83484,-164.88281
1765589593278,-0.9375,0.30078125,-0.19384766,0.0,0.061035156,0.0,0.0,0.0,0.0,123.31604,68.829346,-164.82788
1765589593366,-0.9370117,0.2993164,-0.1953125,-0.61035156,-0.24414062,0.0,0.0,0.0,0.0,123.31604,68.829346,-164.82788
1765589593378,-0.9370117,0.2993164,-0.1953125,-0.61035156,-0.24414062,0.0,0.0,0.0,0.0,123.255615,68.83484,-164.86084
1765589593466,-0.93652344,0.29882812,-0.19726562,-0.6713867,-0.24414062,0.0,0.0,0.0,0.0,123.255615,68.83484,-164.86084
1765589593477,-0.93652344,0.29882812,-0.19726562,-0.6713867,-0.24414062,0.0,0.0,0.0,0.0,123.19519,68.845825,-164.8883
1765589593566,-0.9375,0.29736328,-0.19628906,-0.36621094,0.48828125,0.0,0.0,0.0,0.0,123.19519,68.845825,-164.8883
1765589593577,-0.9375,0.29736328,-0.19628906,-0.36621094,0.48828125,0.0,0.0,0.0,0.0,123.21167,68.84033,-164.86084
1765589593665,-0.9355469,0.30126953,-0.18847656,-1.5258789,0.30517578,-0.30517578,0.0,0.0,0.0,123.21167,68.84033,-164.86084
1765589593677,-0.9355469,0.30126953,-0.18847656,-1.5258789,0.30517578,-0.30517578,0.0,0.0,0.0,123.24463,68.83484,-164.80042
1765589593765,-0.93652344,0.30126953,-0.19140625,0.4272461,-0.4272461,0.0,0.0,0.0,0.0,123.24463,68.83484,-164.80042
1765589593777,-0.93652344,0.30126953,-0.19140625,0.4272461,-0.4272461,0.0,0.0,0.0,0.0,123.16223,68.8678,-164.86633
1765589593865,-0.9394531,0.30078125,-0.19433594,-0.30517578,0.061035156,-0.061035156,0.0,0.0,0.0,123.16223,68.8678,-164.86633
1765589593876,-0.9394531,0.30078125,-0.19433594,-0.30517578,0.061035156,-0.061035156,0.0,0.0,0.0,123.184204,68.8678,-164.8114
1765589593964,-0.9399414,0.30078125,-0.18847656,-0.6713867,0.4272461,-0.061035156,0.0,0.0,0.0,123.184204,68.8678,-164.8114
1765589593976,-0.9399414,0.30078125,-0.18847656,-0.6713867,0.4272461,-0.061035156,0.0,0.0,0.0,123.21716,68.87329,-164.76196
1765589594064,-0.9375,0.29882812,-0.19580078,-0.18310547,-0.24414062,0.0,0.0,0.0,0.0,123.21716,68.87329,-164.76196
1765589594076,-0.9375,0.29882812,-0.19580078,-0.18310547,-0.24414062,0.0,0.0,0.0,0.0,123.14026,68.88428,-164.82788
1765589594164,-0.93652344,0.30029297,-0.19238281,-0.12207031,-0.061035156,0.0,0.0,0.0,0.0,123.14026,68.88428,-164.82788
1765589594175,-0.93652344,0.30029297,-0.19238281,-0.12207031,-0.061035156,0.0,0.0,0.0,0.0,123.12927,68.88977,-164.83887
1765589594264,-0.93896484,0.30078125,-0.19140625,-0.24414062,-0.061035156,0.0,0.0,0.0,0.0,123.12927,68.88977,-164.83887
1765589594275,-0.93896484,0.30078125,-0.19140625,-0.24414062,-0.061035156,0.0,0.0,0.0,0.0,123.09631,68.89526,-164.86633
1765589594363,-0.93847656,0.30126953,-0.19238281,-0.36621094,-0.18310547,0.0,0.0,0.0,0.0,123.09631,68.89526,-164.86633
1765589594375,-0.93847656,0.30126953,-0.19238281,-0.36621094,-0.18310547,0.0,0.0,0.0,0.0,123.030396,68.90625,-164.92126
1765589594463,-0.93847656,0.29882812,-0.18945312,-0.18310547,0.12207031,0.0,0.0,0.0,0.0,123.030396,68.90625,-164.92126
1765589594474,-0.93847656,0.29882812,-0.18945312,-0.18310547,0.12207031,0.0,0.0,0.0,0.0,123.013916,68.91174,-164.92126
1765589594563,-0.93847656,0.30126953,-0.1899414,0.36621094,-0.7324219,0.0,0.0,0.0,0.0,123.013916,68.91174,-164.92126
1765589594575,-0.93847656,0.30126953,-0.1899414,0.36621094,-0.7324219,0.0,0.0,0.0,0.0,122.96997,68.92822,-164.99268
1765589594663,-0.93896484,0.30126953,-0.18847656,0.0,0.7324219,0.0,0.0,0.0,0.0,122.96997,68.92822,-164.99268
1765589594674,-0.93896484,0.30126953,-0.18847656,0.0,0.7324219,0.0,0.0,0.0,0.0,122.96448,68.92822,-164.99268
1765589594762,-0.93603516,0.2993164,-0.1953125,1.159668,-1.159668,0.0,0.0,0.0,0.0,122.96448,68.92822,-164.99268
1765589594774,-0.93603516,0.2993164,-0.1953125,1.159668,-1.159668,0.0,0.0,0.0,0.0,122.99194,68.92273,-164.94324
1765589594862,-0.9375,0.296875,-0.19042969,-0.7324219,0.7324219,0.0,0.0,0.0,0.0,122.99194,68.92273,-164.94324
1765589594873,-0.9375,0.296875,-0.19042969,-0.7324219,0.7324219,0.0,0.0,0.0,0.0,123.030396,68.91174,-164.89929
1765589594962,-0.9379883,0.3022461,-0.19189453,0.24414062,0.0,0.0,0.0,0.0,0.0,123.030396,68.91174,-164.89929
1765589594973,-0.9379883,0.3022461,-0.19189453,0.24414062,0.0,0.0,0.0,0.0,0.0,123.00842,68.92273,-164.94324
1765589595061,-0.9370117,0.29785156,-0.19042969,0.48828125,-1.0375977,0.0,0.0,0.0,0.0,123.00842,68.92273,-164.94324
1765589595073,-0.9370117,0.29785156,-0.19042969,0.48828125,-1.0375977,0.0,0.0,0.0,0.0,122.99194,68.92273,-164.93774
1765589595161,-0.93896484,0.30029297,-0.1899414,-0.5493164,0.6713867,0.0,0.0,0.0,0.0,122.99194,68.92273,-164.93774
1765589595173,-0.93896484,0.30029297,-0.1899414,-0.5493164,0.6713867,0.0,0.0,0.0,0.0,122.975464,68.92822,-164.95972
1765589595261,-0.9379883,0.30126953,-0.19189453,-0.061035156,0.061035156,0.0,0.0,0.0,0.0,122.975464,68.92822,-164.95972
1765589595273,-0.9379883,0.30126953,-0.19189453,-0.061035156,0.061035156,0.0,0.0,0.0,0.0,122.96997,68.933716,-164.9707
