timestamp,accX,accY,accZ,gyroX,gyroY,gyroZ,magX,magY,magZ,roll,pitch,yaw
1769252797847,0.45166016,0.28125,-0.828125,17.63916,-10.7421875,-10.192871,0.0,0.0,0.0,162.03735,-26.696777,-143.2782
1769252797936,0.43554688,0.26904297,-0.8144531,4.1503906,-7.1411133,-11.657715,0.0,0.0,0.0,162.03735,-26.696777,-143.2782
1769252797950,0.43554688,0.26904297,-0.8144531,4.1503906,-7.1411133,-11.657715,0.0,0.0,0.0,162.70752,-25.52124,-142.37732
1769252798035,0.40771484,0.25878906,-0.8540039,29.47998,-18.493652,-13.916016,0.0,0.0,0.0,162.70752,-25.52124,-142.37732
1769252798046,0.40771484,0.25878906,-0.8540039,29.47998,-18.493652,-13.916016,0.0,0.0,0.0,163.43811,-24.400635,-141.84998
1769252798135,0.3984375,0.31396484,-0.85791016,-14.160156,-17.150879,-9.58252,0.0,0.0,0.0,163.43811,-24.400635,-141.84998
1769252798146,0.3984375,0.31396484,-0.85791016,-14.160156,-17.150879,-9.58252,0.0,0.0,0.0,164.2456,-22.335205,-141.31165
1769252798234,0.36328125,0.34960938,-0.81103516,-16.235352,-32.287598,-16.052246,0.0,0.0,0.0,164.2456,-22.335205,-141.31165
1769252798246,0.36328125,0.34960938,-0.81103516,-16.235352,-32.287598,-16.052246,0.0,0.0,0.0,162.2461,-19.335938,-141.28418
1769252798334,0.41748047,0.33935547,-0.74902344,-7.9956055,-2.0141602,5.6762695,0.0,0.0,0.0,162.2461,-19.335938,-141.28418
1769252798346,0.41748047,0.33935547,-0.74902344,-7.9956055,-2.0141602,5.6762695,0.0,0.0,0.0,161.29028,-20.319214,-142.11365
1769252798434,0.31933594,0.43847656,-0.9511719,-25.32959,-71.22803,14.099121,0.0,0.0,0.0,161.29028,-20.319214,-142.11365
1769252798446,0.31933594,0.43847656,-0.9511719,-25.32959,-71.22803,14.099121,0.0,0.0,0.0,160.80688,-15.957642,-145.15137
1769252798533,0.35986328,0.40966797,-0.8569336,-3.2348633,-3.9672852,19.53125,0.0,0.0,0.0,160.80688,-15.957642,-145.15137
1769252798545,0.35986328,0.40966797,-0.8569336,-3.2348633,-3.9672852,19.53125,0.0,0.0,0.0,160.43335,-14.441528,-147.4585
1769252798633,0.38476562,0.3647461,-0.86328125,-83.19092,33.14209,47.790527,0.0,0.0,0.0,160.43335,-14.441528,-147.4585
1769252798645,0.38476562,0.3647461,-0.86328125,-83.19092,33.14209,47.790527,0.0,0.0,0.0,157.62085,-17.836304,-151.45752
1769252798733,0.3798828,0.39892578,-0.7631836,-66.89453,32.65381,-16.174316,0.0,0.0,0.0,157.62085,-17.836304,-151.45752
1769252798744,0.3798828,0.39892578,-0.7631836,-66.89453,32.65381,-16.174316,0.0,0.0,0.0,150.44678,-20.88501,-152.17163
1769252798833,0.25927734,0.61279297,-0.8339844,-50.41504,-35.64453,-83.49609,0.0,0.0,0.0,150.44678,-20.88501,-152.17163
1769252798844,0.25927734,0.61279297,-0.8339844,-50.41504,-35.64453,-83.49609,0.0,0.0,0.0,141.71814,-19.25354,-147.74414
1769252798932,0.15039062,0.640625,-0.81152344,-38.33008,-20.629883,-54.992676,0.0,0.0,0.0,141.71814,-19.25354,-147.74414
1769252798944,0.15039062,0.640625,-0.81152344,-38.33008,-20.629883,-54.992676,0.0,0.0,0.0,137.72461,-10.9313965,-145.83252
1769252799032,0.12597656,0.7270508,-0.65185547,-133.11768,7.751465,-9.338379,0.0,0.0,0.0,137.72461,-10.9313965,-145.83252
1769252799043,0.12597656,0.7270508,-0.65185547,-133.11768,7.751465,-9.338379,0.0,0.0,0.0,133.396,-7.498169,-143.70117
1769252799132,0.18017578,0.9160156,-0.37646484,-224.54834,139.22119,38.635254,0.0,0.0,0.0,133.396,-7.498169,-143.70117
1769252799143,0.18017578,0.9160156,-0.37646484,-224.54834,139.22119,38.635254,0.0,0.0,0.0,113.69751,-11.700439,-140.01526
1769252799231,0.22070312,1.027832,-0.061035156,-138.91602,65.06348,4.4555664,0.0,0.0,0.0,113.69751,-11.700439,-140.01526
1769252799243,0.22070312,1.027832,-0.061035156,-138.91602,65.06348,4.4555664,0.0,0.0,0.0,94.10339,-16.083984,-129.24316
1769252799331,0.14697266,0.8642578,0.3203125,-241.88232,230.46875,19.470215,0.0,0.0,0.0,94.10339,-16.083984,-129.24316
1769252799343,0.14697266,0.8642578,0.3203125,-241.88232,230.46875,19.470215,0.0,0.0,0.0,72.301025,-14.628296,-114.971924
1769252799431,-0.0053710938,0.7553711,0.5654297,-92.95654,134.70459,13.305664,0.0,0.0,0.0,72.301025,-14.628296,-114.971924
1769252799442,-0.0053710938,0.7553711,0.5654297,-92.95654,134.70459,13.305664,0.0,0.0,0.0,54.140625,-6.465454,-97.10266
1769252799531,-0.22363281,0.6855469,0.6118164,-105.651855,160.9497,0.9765625,0.0,0.0,0.0,54.140625,-6.465454,-97.10266
1769252799542,-0.22363281,0.6855469,0.6118164,-105.651855,160.9497,0.9765625,0.0,0.0,0.0,47.005005,2.5872803,-83.99048
1769252799630,-0.33984375,0.77978516,0.6923828,-26.489258,97.53418,-13.85498,0.0,0.0,0.0,47.005005,2.5872803,-83.99048
1769252799642,-0.33984375,0.77978516,0.6923828,-26.489258,97.53418,-13.85498,0.0,0.0,0.0,42.687378,13.353882,-70.08179
1769252799730,-0.47998047,0.5419922,0.6850586,-8.361816,61.401367,-19.042969,0.0,0.0,0.0,42.687378,13.353882,-70.08179
1769252799742,-0.47998047,0.5419922,0.6850586,-8.361816,61.401367,-19.042969,0.0,0.0,0.0,42.703857,20.703735,-58.64502
1769252799830,-0.5473633,0.49853516,0.5913086,-3.2958984,57.9834,-13.48877,0.0,0.0,0.0,42.703857,20.703735,-58.64502
1769252799841,-0.5473633,0.49853516,0.5913086,-3.2958984,57.9834,-13.48877,0.0,0.0,0.0,44.560547,26.004639,-52.042236
1769252799930,-0.5644531,0.6665039,0.5439453,18.676758,60.36377,-15.075684,0.0,0.0,0.0,44.560547,26.004639,-52.042236
1769252799941,-0.5644531,0.6665039,0.5439453,18.676758,60.36377,-15.075684,0.0,0.0,0.0,45.95581,31.080322,-44.527588
1769252800029,-0.65722656,0.5917969,0.51953125,-6.5307617,73.24219,-26.184082,0.0,0.0,0.0,45.95581,31.080322,-44.527588
1769252800041,-0.65722656,0.5917969,0.51953125,-6.5307617,73.24219,-26.184082,0.0,0.0,0.0,49.75708,37.095337,-33.66211
1769252800130,-0.73535156,0.5229492,0.39501953,35.339355,40.283203,-45.715332,0.0,0.0,0.0,49.75708,37.095337,-33.66211
1769252800141,-0.73535156,0.5229492,0.39501953,35.339355,40.283203,-45.715332,0.0,0.0,0.0,52.141113,44.16504,-25.12024
1769252800229,-0.8066406,0.48388672,0.3540039,-0.18310547,62.25586,-14.526367,0.0,0.0,0.0,52.141113,44.16504,-25.12024
1769252800240,-0.8066406,0.48388672,0.3540039,-0.18310547,62.25586,-14.526367,0.0,0.0,0.0,55.64026,50.042725,-19.35791
1769252800328,-0.84472656,0.3413086,0.24707031,23.986816,68.54248,-33.26416,0.0,0.0,0.0,55.64026,50.042725,-19.35791
1769252800340,-0.84472656,0.3413086,0.24707031,23.986816,68.54248,-33.26416,0.0,0.0,0.0,61.6333,54.37683,-10.717163
1769252800428,-0.8457031,0.3149414,0.15625,50.720215,10.437012,-81.4209,0.0,0.0,0.0,61.6333,54.37683,-10.717163
1769252800440,-0.8457031,0.3149414,0.15625,50.720215,10.437012,-81.4209,0.0,0.0,0.0,64.7699,62.297974,-7.163086
1769252800528,-1.0014648,0.31103516,0.09667969,6.1035156,12.512207,-0.18310547,0.0,0.0,0.0,64.7699,62.297974,-7.163086
1769252800539,-1.0014648,0.31103516,0.09667969,6.1035156,12.512207,-0.18310547,0.0,0.0,0.0,65.791626,64.79187,-1.873169
1769252800627,-0.9326172,0.34228516,0.18457031,37.04834,-15.625,0.5493164,0.0,0.0,0.0,65.791626,64.79187,-1.873169
1769252800643,-0.9326172,0.34228516,0.18457031,37.04834,-15.625,0.5493164,0.0,0.0,0.0,68.88428,63.97888,3.581543
1769252800727,-0.9453125,0.40478516,0.13964844,25.45166,-20.690918,-12.145996,0.0,0.0,0.0,68.88428,63.97888,3.581543
1769252800739,-0.9453125,0.40478516,0.13964844,25.45166,-20.690918,-12.145996,0.0,0.0,0.0,65.62683,65.928955,-0.3955078
1769252800827,-0.9770508,0.39453125,0.12011719,-4.1503906,10.009766,54.016113,0.0,0.0,0.0,65.62683,65.928955,-0.3955078
1769252800838,-0.9770508,0.39453125,0.12011719,-4.1503906,10.009766,54.016113,0.0,0.0,0.0,66.20361,64.80835,2.878418
1769252800927,-0.8828125,0.2211914,0.11425781,9.887695,-12.268066,-18.859863,0.0,0.0,0.0,66.20361,64.80835,2.878418
1769252800938,-0.8828125,0.2211914,0.11425781,9.887695,-12.268066,-18.859863,0.0,0.0,0.0,65.22583,65.703735,5.130615
1769252801026,-1.2192383,0.31103516,0.055664062,1.0375977,-11.535645,-115.66162,0.0,0.0,0.0,65.22583,65.703735,5.130615
1769252801038,-1.2192383,0.31103516,0.055664062,1.0375977,-11.535645,-115.66162,0.0,0.0,0.0,44.439697,73.948975,-12.128906
1769252801126,-0.9223633,0.08496094,0.2084961,13.000488,-4.8828125,-0.8544922,0.0,0.0,0.0,44.439697,73.948975,-12.128906
1769252801138,-0.9223633,0.08496094,0.2084961,13.000488,-4.8828125,-0.8544922,0.0,0.0,0.0,41.63269,75.4541,-10.008545
1769252801226,-0.7451172,0.025390625,0.13574219,-14.6484375,-2.8686523,-59.020996,0.0,0.0,0.0,41.63269,75.4541,-10.008545
1769252801237,-0.7451172,0.025390625,0.13574219,-14.6484375,-2.8686523,-59.020996,0.0,0.0,0.0,24.785156,77.47009,-23.615112
1769252801326,-0.28320312,0.019042969,0.14550781,-31.433105,-4.333496,-25.634766,0.0,0.0,0.0,24.785156,77.47009,-23.615112
1769252801337,-0.28320312,0.019042969,0.14550781,-31.433105,-4.333496,-25.634766,0.0,0.0,0.0,14.523926,78.66211,-27.82837
1769252801426,-2.4848633,-0.4814453,-0.25097656,-47.424316,-30.090332,169.00635,0.0,0.0,0.0,14.523926,78.66211,-27.82837
1769252801437,-2.4848633,-0.4814453,-0.25097656,-47.424316,-30.090332,169.00635,0.0,0.0,0.0,17.528687,81.99646,-22.763672
1769252801525,-1.0498047,0.080078125,0.13964844,37.475586,24.902344,-4.3945312,0.0,0.0,0.0,17.528687,81.99646,-22.763672
1769252801536,-1.0498047,0.080078125,0.13964844,37.475586,24.902344,-4.3945312,0.0,0.0,0.0,62.512207,83.95752,24.916992
1769252801625,-0.97558594,0.0073242188,0.04248047,5.1879883,2.5634766,-6.958008,0.0,0.0,0.0,62.512207,83.95752,24.916992
1769252801636,-0.97558594,0.0073242188,0.04248047,5.1879883,2.5634766,-6.958008,0.0,0.0,0.0,69.32922,84.25415,34.579468
1769252801724,-1.0244141,0.009277344,0.057617188,-15.563965,-10.009766,-0.30517578,0.0,0.0,0.0,69.32922,84.25415,34.579468
1769252801736,-1.0244141,0.009277344,0.057617188,-15.563965,-10.009766,-0.30517578,0.0,0.0,0.0,64.13269,84.58374,33.01941
1769252801824,-0.9926758,0.041503906,0.025390625,6.1035156,6.8359375,-1.8310547,0.0,0.0,0.0,64.13269,84.58374,33.01941
1769252801835,-0.9926758,0.041503906,0.025390625,6.1035156,6.8359375,-1.8310547,0.0,0.0,0.0,63.067017,84.451904,34.98047
1769252801924,-1.0004883,0.018554688,0.027832031,-1.159668,0.12207031,0.91552734,0.0,0.0,0.0,63.067017,84.451904,34.98047
1769252801936,-1.0004883,0.018554688,0.027832031,-1.159668,0.12207031,0.91552734,0.0,0.0,0.0,64.24255,84.869385,37.754517
1769252802023,-0.9975586,0.018066406,0.029785156,0.6713867,4.272461,-1.5869141,0.0,0.0,0.0,64.24255,84.869385,37.754517
1769252802035,-0.9975586,0.018066406,0.029785156,0.6713867,4.272461,-1.5869141,0.0,0.0,0.0,65.599365,85.12756,41.209717
1769252802123,-1.0063477,0.018554688,0.027832031,-3.6010742,1.7700195,0.061035156,0.0,0.0,0.0,65.599365,85.12756,41.209717
1769252802135,-1.0063477,0.018554688,0.027832031,-3.6010742,1.7700195,0.061035156,0.0,0.0,0.0,67.31323,85.41321,45.37903
1769252802223,-1.0063477,0.023925781,0.018066406,-2.5024414,5.3100586,-1.4038086,0.0,0.0,0.0,67.31323,85.41321,45.37903
1769252802234,-1.0063477,0.023925781,0.018066406,-2.5024414,5.3100586,-1.4038086,0.0,0.0,0.0,70.02136,85.78125,50.81726
1769252802323,-0.9946289,0.033691406,0.0063476562,-0.30517578,1.8310547,-0.79345703,0.0,0.0,0.0,70.02136,85.78125,50.81726
1769252802334,-0.9946289,0.033691406,0.0063476562,-0.30517578,1.8310547,-0.79345703,0.0,0.0,0.0,73.95447,86.16577,57.123413
1769252802422,-1.012207,-0.06542969,0.020996094,-2.319336,2.746582,-10.070801,0.0,0.0,0.0,73.95447,86.16577,57.123413
1769252802434,-1.012207,-0.06542969,0.020996094,-2.319336,2.746582,-10.070801,0.0,0.0,0.0,72.03735,86.71509,57.249756
1769252802522,-1.0078125,-0.06738281,0.041992188,-15.136719,-1.5258789,-17.51709,0.0,0.0,0.0,72.03735,86.71509,57.249756
1769252802533,-1.0078125,-0.06738281,0.041992188,-15.136719,-1.5258789,-17.51709,0.0,0.0,0.0,57.46399,88.2312,49.35608
1769252802622,-1.0205078,-0.045410156,-0.025390625,-28.9917,-7.5683594,-13.122559,0.0,0.0,0.0,57.46399,88.2312,49.35608
1769252802633,-1.0205078,-0.045410156,-0.025390625,-28.9917,-7.5683594,-13.122559,0.0,0.0,0.0,-15.5896,88.04993,-16.501465
1769252802721,-0.9814453,-0.08203125,0.016113281,-12.268066,6.225586,-11.352539,0.0,0.0,0.0,-15.5896,88.04993,-16.501465
1769252802733,-0.9814453,-0.08203125,0.016113281,-12.268066,6.225586,-11.352539,0.0,0.0,0.0,-50.982056,87.14905,-44.351807
1769252802821,-0.99365234,-0.07421875,-0.024902344,-15.014648,-6.286621,-11.71875,0.0,0.0,0.0,-50.982056,87.14905,-44.351807
1769252802833,-0.99365234,-0.07421875,-0.024902344,-15.014648,-6.286621,-11.71875,0.0,0.0,0.0,-62.90222,86.11633,-49.768066
1769252802921,-0.9589844,-0.016601562,0.00390625,-3.7841797,1.2207031,0.061035156,0.0,0.0,0.0,-62.90222,86.11633,-49.768066
1769252802932,-0.9589844,-0.016601562,0.00390625,-3.7841797,1.2207031,0.061035156,0.0,0.0,0.0,-64.37988,85.737305,-45.53833
1769252803020,-0.9970703,-0.017578125,-0.009277344,-3.7231445,-1.159668,5.6762695,0.0,0.0,0.0,-64.37988,85.737305,-45.53833
1769252803032,-0.9970703,-0.017578125,-0.009277344,-3.7231445,-1.159668,5.6762695,0.0,0.0,0.0,-68.80737,86.01196,-45.829468
1769252803120,-1.027832,-0.09667969,-0.044921875,11.352539,12.390137,6.713867,0.0,0.0,0.0,-68.80737,86.01196,-45.829468
1769252803132,-1.027832,-0.09667969,-0.044921875,11.352539,12.390137,6.713867,0.0,0.0,0.0,-75.459595,86.94031,-48.356323
1769252803220,-1.0141602,-0.06933594,-0.025390625,7.751465,5.065918,5.6152344,0.0,0.0,0.0,-75.459595,86.94031,-48.356323
1769252803231,-1.0141602,-0.06933594,-0.025390625,7.751465,5.065918,5.6152344,0.0,0.0,0.0,-90.4834,87.53906,-60.19409
1769252803320,-0.9921875,-0.04248047,-0.030761719,19.28711,1.4648438,-1.159668,0.0,0.0,0.0,-90.4834,87.53906,-60.19409
1769252803331,-0.9921875,-0.04248047,-0.030761719,19.28711,1.4648438,-1.159668,0.0,0.0,0.0,-75.22888,87.753296,-42.786255
1769252803419,-0.984375,-0.011230469,-0.037109375,33.63037,-4.1503906,1.6479492,0.0,0.0,0.0,-75.22888,87.753296,-42.786255
1769252803431,-0.984375,-0.011230469,-0.037109375,33.63037,-4.1503906,1.6479492,0.0,0.0,0.0,-85.061646,87.65442,-50.976562
1769252803519,-0.9716797,-0.05908203,-0.056640625,41.44287,27.648926,1.5258789,0.0,0.0,0.0,-85.061646,87.65442,-50.976562
1769252803530,-0.9716797,-0.05908203,-0.056640625,41.44287,27.648926,1.5258789,0.0,0.0,0.0,-107.369385,87.67639,-71.58142
1769252803619,-1.0537109,-0.056152344,0.044433594,-11.84082,-18.554688,11.108398,0.0,0.0,0.0,-107.369385,87.67639,-71.58142
1769252803630,-1.0537109,-0.056152344,0.044433594,-11.84082,-18.554688,11.108398,0.0,0.0,0.0,-150.96313,87.29187,-117.333984
1769252803718,-1.0004883,-0.029296875,-0.053222656,9.58252,13.48877,-6.0424805,0.0,0.0,0.0,-150.96313,87.29187,-117.333984
1769252803730,-1.0004883,-0.029296875,-0.053222656,9.58252,13.48877,-6.0424805,0.0,0.0,0.0,-170.79895,88.1543,-133.93982
1769252803818,-1.0229492,-0.068359375,-0.08154297,0.8544922,-2.0751953,-2.1972656,0.0,0.0,0.0,-170.79895,88.1543,-133.93982
1769252803830,-1.0229492,-0.068359375,-0.08154297,0.8544922,-2.0751953,-2.1972656,0.0,0.0,0.0,-162.17468,87.65442,-122.43164
1769252803918,-1.0234375,-0.040039062,-0.025878906,1.5869141,-13.977051,-1.0986328,0.0,0.0,0.0,-162.17468,87.65442,-122.43164
1769252803929,-1.0234375,-0.040039062,-0.025878906,1.5869141,-13.977051,-1.0986328,0.0,0.0,0.0,-147.98584,87.753296,-104.644775
1769252804018,-1.0102539,-0.072753906,-0.022949219,-12.817383,-28.564453,2.8686523,0.0,0.0,0.0,-147.98584,87.753296,-104.644775
1769252804030,-1.0102539,-0.072753906,-0.022949219,-12.817383,-28.564453,2.8686523,0.0,0.0,0.0,-67.961426,88.70911,-19.945679
1769252804117,-1.0087891,-0.064941406,-0.052734375,-6.652832,-6.591797,-3.540039,0.0,0.0,0.0,-67.961426,88.70911,-19.945679
1769252804129,-1.0087891,-0.064941406,-0.052734375,-6.652832,-6.591797,-3.540039,0.0,0.0,0.0,-21.011353,86.90735,32.332764
1769252804217,-0.9472656,0.048828125,0.064453125,-1.7089844,8.666992,8.7890625,0.0,0.0,0.0,-21.011353,86.90735,32.332764
1769252804229,-0.9472656,0.048828125,0.064453125,-1.7089844,8.666992,8.7890625,0.0,0.0,0.0,-49.119873,87.52258,9.30542
1769252804317,-0.9975586,-0.05029297,0.13867188,13.244629,-3.479004,-17.51709,0.0,0.0,0.0,-49.119873,87.52258,9.30542
1769252804329,-0.9975586,-0.05029297,0.13867188,13.244629,-3.479004,-17.51709,0.0,0.0,0.0,-68.323975,87.86316,-9.711914
1769252804417,-0.9423828,0.09277344,-0.032226562,13.48877,-2.1362305,-6.1035156,0.0,0.0,0.0,-68.323975,87.86316,-9.711914
1769252804428,-0.9423828,0.09277344,-0.032226562,13.48877,-2.1362305,-6.1035156,0.0,0.0,0.0,-82.35901,87.04468,-24.334717
1769252804516,-1.0249023,-0.03857422,-0.08203125,46.325684,5.3710938,-5.6152344,0.0,0.0,0.0,-82.35901,87.04468,-24.334717
1769252804527,-1.0249023,-0.03857422,-0.08203125,46.325684,5.3710938,-5.6152344,0.0,0.0,0.0,-100.5249,87.03369,-46.505127
1769252804616,-1.0229492,-0.057128906,-0.0078125,0.61035156,9.643555,11.535645,0.0,0.0,0.0,-100.5249,87.03369,-46.505127
1769252804627,-1.0229492,-0.057128906,-0.0078125,0.61035156,9.643555,11.535645,0.0,0.0,0.0,-120.94849,87.5885,-66.14319
1769252804715,-1.0014648,-0.1484375,0.020996094,-7.2021484,-10.131836,-3.0517578,0.0,0.0,0.0,-120.94849,87.5885,-66.14319
1769252804727,-1.0014648,-0.1484375,0.020996094,-7.2021484,-10.131836,-3.0517578,0.0,0.0,0.0,-133.50037,87.15454,-82.91931
1769252804815,-0.9472656,4.8828125E-4,-0.041503906,2.746582,-4.638672,-1.8310547,0.0,0.0,0.0,-133.50037,87.15454,-82.91931
1769252804827,-0.9472656,4.8828125E-4,-0.041503906,2.746582,-4.638672,-1.8310547,0.0,0.0,0.0,-126.33728,87.29736,-78.14026
1769252804915,-0.9716797,0.044921875,0.063964844,30.029297,-4.8828125,9.887695,0.0,0.0,0.0,-126.33728,87.29736,-78.14026
1769252804926,-0.9716797,0.044921875,0.063964844,30.029297,-4.8828125,9.887695,0.0,0.0,0.0,-114.906006,88.187256,-68.60962
1769252805014,-1.0634766,-0.10205078,0.016113281,14.6484375,-14.709473,6.164551,0.0,0.0,0.0,-114.906006,88.187256,-68.60962
1769252805026,-1.0634766,-0.10205078,0.016113281,14.6484375,-14.709473,6.164551,0.0,0.0,0.0,-14.342651,88.78052,31.849365
1769252805114,-1.0131836,-0.03466797,0.05419922,1.4648438,-2.5634766,9.277344,0.0,0.0,0.0,-14.342651,88.78052,31.849365
1769252805126,-1.0131836,-0.03466797,0.05419922,1.4648438,-2.5634766,9.277344,0.0,0.0,0.0,-0.91186523,87.47864,39.30359
1769252805214,-0.9975586,0.05029297,0.05126953,-5.432129,1.4038086,11.413574,0.0,0.0,0.0,-0.91186523,87.47864,39.30359
1769252805225,-0.9975586,0.05029297,0.05126953,-5.432129,1.4038086,11.413574,0.0,0.0,0.0,27.44934,87.561035,64.50073
1769252805314,-1.0019531,0.0126953125,0.041992188,-2.380371,-0.79345703,9.82666,0.0,0.0,0.0,27.44934,87.561035,64.50073
1769252805325,-1.0019531,0.0126953125,0.041992188,-2.380371,-0.79345703,9.82666,0.0,0.0,0.0,42.753296,87.14905,76.569214
1769252805413,-1.0136719,0.05517578,0.044921875,-2.9296875,1.2817383,6.8969727,0.0,0.0,0.0,42.753296,87.14905,76.569214
1769252805425,-1.0136719,0.05517578,0.044921875,-2.9296875,1.2817383,6.8969727,0.0,0.0,0.0,54.195557,86.59973,84.91882
1769252805513,-0.99902344,0.056152344,0.02734375,-0.79345703,2.380371,-1.5258789,0.0,0.0,0.0,54.195557,86.59973,84.91882
1769252805525,-0.99902344,0.056152344,0.02734375,-0.79345703,2.380371,-1.5258789,0.0,0.0,0.0,60.754395,86.52283,88.46741
1769252805613,-1.0019531,0.05908203,0.01171875,-0.30517578,2.8686523,-1.5258789,0.0,0.0,0.0,60.754395,86.52283,88.46741
1769252805624,-1.0019531,0.05908203,0.01171875,-0.30517578,2.8686523,-1.5258789,0.0,0.0,0.0,61.210327,86.676636,86.066895
1769252805713,-1.0004883,0.037597656,0.026855469,-0.48828125,-0.12207031,-2.6245117,0.0,0.0,0.0,61.210327,86.676636,86.066895
1769252805725,-1.0004883,0.037597656,0.026855469,-0.48828125,-0.12207031,-2.6245117,0.0,0.0,0.0,61.693726,86.89636,83.73779
1769252805812,-0.99316406,0.05029297,0.026855469,1.2207031,-0.30517578,0.48828125,0.0,0.0,0.0,61.693726,86.89636,83.73779
1769252805824,-0.99316406,0.05029297,0.026855469,1.2207031,-0.30517578,0.48828125,0.0,0.0,0.0,59.161377,86.94031,78.52478
1769252805912,-1.0024414,0.037597656,0.032226562,0.7324219,-0.79345703,0.061035156,0.0,0.0,0.0,59.161377,86.94031,78.52478
1769252805923,-1.0024414,0.037597656,0.032226562,0.7324219,-0.79345703,0.061035156,0.0,0.0,0.0,58.172607,86.87439,74.937744
1769252806012,-1.0024414,0.05029297,0.029785156,2.4414062,-0.4272461,0.30517578,0.0,0.0,0.0,58.172607,86.87439,74.937744
1769252806023,-1.0024414,0.05029297,0.029785156,2.4414062,-0.4272461,0.30517578,0.0,0.0,0.0,58.414307,86.71509,72.61963
1769252806111,-0.99853516,0.048339844,0.03857422,0.12207031,0.36621094,0.6713867,0.0,0.0,0.0,58.414307,86.71509,72.61963
1769252806123,-0.99853516,0.048339844,0.03857422,0.12207031,0.36621094,0.6713867,0.0,0.0,0.0,58.52417,86.676636,70.42236
1769252806211,-1.0024414,0.06298828,0.022460938,-0.6713867,0.8544922,2.2583008,0.0,0.0,0.0,58.52417,86.676636,70.42236
1769252806223,-1.0024414,0.06298828,0.022460938,-0.6713867,0.8544922,2.2583008,0.0,0.0,0.0,58.5791,86.53931,68.48877
1769252806311,-1.0053711,0.049804688,0.034179688,-1.6479492,-0.91552734,0.18310547,0.0,0.0,0.0,58.5791,86.53931,68.48877
1769252806322,-1.0053711,0.049804688,0.034179688,-1.6479492,-0.91552734,0.18310547,0.0,0.0,0.0,60.864258,86.5448,68.81287
1769252806410,-1.0004883,0.04248047,0.025878906,-0.12207031,-1.159668,-0.4272461,0.0,0.0,0.0,60.864258,86.5448,68.81287
1769252806422,-1.0004883,0.04248047,0.025878906,-0.12207031,-1.159668,-0.4272461,0.0,0.0,0.0,59.935913,86.57776,66.06079
1769252806510,-0.99853516,0.05029297,0.03564453,-0.8544922,-1.8310547,-0.5493164,0.0,0.0,0.0,59.935913,86.57776,66.06079
1769252806522,-0.99853516,0.05029297,0.03564453,-0.8544922,-1.8310547,-0.5493164,0.0,0.0,0.0,56.29944,86.5448,60.754395
1769252806610,-1.0063477,0.048828125,0.030273438,0.12207031,-0.36621094,0.18310547,0.0,0.0,0.0,56.29944,86.5448,60.754395
1769252806621,-1.0063477,0.048828125,0.030273438,0.12207031,-0.36621094,0.18310547,0.0,0.0,0.0,55.524902,86.49536,58.320923
1769252806710,-1.0009766,0.04736328,0.041503906,-0.061035156,-0.7324219,-0.18310547,0.0,0.0,0.0,55.524902,86.49536,58.320923
1769252806721,-1.0009766,0.04736328,0.041503906,-0.061035156,-0.7324219,-0.18310547,0.0,0.0,0.0,54.503174,86.43494,55.788574
1769252806809,-1.0,0.048828125,0.036132812,-0.61035156,0.4272461,0.30517578,0.0,0.0,0.0,54.503174,86.43494,55.788574
1769252806821,-1.0,0.048828125,0.036132812,-0.61035156,0.4272461,0.30517578,0.0,0.0,0.0,54.60205,86.42395,54.44275
1769252806909,-0.9980469,0.053710938,0.041992188,-0.30517578,0.30517578,0.48828125,0.0,0.0,0.0,54.60205,86.42395,54.44275
1769252806920,-0.9980469,0.053710938,0.041992188,-0.30517578,0.30517578,0.48828125,0.0,0.0,0.0,55.14038,86.37451,53.602295
1769252807009,-0.9926758,0.057617188,0.045898438,0.0,-0.24414062,0.4272461,0.0,0.0,0.0,55.14038,86.37451,53.602295
1769252807020,-0.9926758,0.057617188,0.045898438,0.0,-0.24414062,0.4272461,0.0,0.0,0.0,55.14038,86.34155,52.30591
1769252807108,-0.99853516,0.05419922,0.041503906,-0.24414062,-0.12207031,1.159668,0.0,0.0,0.0,55.14038,86.34155,52.30591
1769252807120,-0.99853516,0.05419922,0.041503906,-0.24414062,-0.12207031,1.159668,0.0,0.0,0.0,55.46997,86.28113,51.481934
1769252807208,-1.0039062,0.05419922,0.03515625,0.0,0.8544922,1.2207031,0.0,0.0,0.0,55.46997,86.28113,51.481934
1769252807220,-1.0039062,0.05419922,0.03515625,0.0,0.8544922,1.2207031,0.0,0.0,0.0,57.16736,86.19324,52.01477
1769252807308,-1.0,0.056152344,0.034179688,0.0,0.48828125,0.30517578,0.0,0.0,0.0,57.16736,86.19324,52.01477
1769252807319,-1.0,0.056152344,0.034179688,0.0,0.48828125,0.30517578,0.0,0.0,0.0,58.051758,86.16577,51.80603
1769252807408,-1.0004883,0.05517578,0.037597656,-0.061035156,0.48828125,0.5493164,0.0,0.0,0.0,58.051758,86.16577,51.80603
1769252807419,-1.0004883,0.05517578,0.037597656,-0.061035156,0.48828125,0.5493164,0.0,0.0,0.0,58.936157,86.13281,51.707153
1769252807507,-1.0024414,0.060546875,0.032226562,-0.36621094,0.0,1.159668,0.0,0.0,0.0,58.936157,86.13281,51.707153
1769252807519,-1.0024414,0.060546875,0.032226562,-0.36621094,0.0,1.159668,0.0,0.0,0.0,59.848022,86.066895,51.679688
1769252807607,-1.0019531,0.06201172,0.037597656,0.12207031,0.48828125,0.36621094,0.0,0.0,0.0,59.848022,86.066895,51.679688
1769252807618,-1.0019531,0.06201172,0.037597656,0.12207031,0.48828125,0.36621094,0.0,0.0,0.0,60.715942,85.979004,51.663208
1769252807707,-0.99609375,0.06201172,0.03466797,-0.12207031,0.48828125,0.12207031,0.0,0.0,0.0,60.715942,85.979004,51.663208
1769252807718,-0.99609375,0.06201172,0.03466797,-0.12207031,0.48828125,0.12207031,0.0,0.0,0.0,61.11145,85.95154,51.2677
1769252807806,-1.0019531,0.061035156,0.03466797,-0.36621094,0.4272461,0.24414062,0.0,0.0,0.0,61.11145,85.95154,51.2677
1769252807818,-1.0019531,0.061035156,0.03466797,-0.36621094,0.4272461,0.24414062,0.0,0.0,0.0,61.64978,85.929565,51.053467
1769252807906,-1.0004883,0.06201172,0.032226562,-0.12207031,0.5493164,0.18310547,0.0,0.0,0.0,61.64978,85.929565,51.053467
1769252807918,-1.0004883,0.06201172,0.032226562,-0.12207031,0.5493164,0.18310547,0.0,0.0,0.0,62.38037,85.91858,51.086426
1769252808006,-1.0009766,0.06347656,0.033691406,-0.18310547,0.061035156,0.24414062,0.0,0.0,0.0,62.38037,85.91858,51.086426
1769252808018,-1.0009766,0.06347656,0.033691406,-0.18310547,0.061035156,0.24414062,0.0,0.0,0.0,62.627563,85.89661,50.625
1769252808105,-1.0009766,0.063964844,0.032714844,0.061035156,-0.48828125,0.0,0.0,0.0,0.0,62.627563,85.89661,50.625
1769252808117,-1.0009766,0.063964844,0.032714844,0.061035156,-0.48828125,0.0,0.0,0.0,0.0,62.39685,85.86365,49.751587
1769252808205,-1.0009766,0.06347656,0.032226562,0.061035156,-1.0986328,-0.061035156,0.0,0.0,0.0,62.39685,85.86365,49.751587
1769252808217,-1.0009766,0.06347656,0.032226562,0.061035156,-1.0986328,-0.061035156,0.0,0.0,0.0,61.463013,85.808716,48.2135
1769252808305,-1.0019531,0.061523438,0.043945312,0.30517578,-1.0375977,0.0,0.0,0.0,0.0,61.463013,85.808716,48.2135
1769252808316,-1.0019531,0.061523438,0.043945312,0.30517578,-1.0375977,0.0,0.0,0.0,0.0,59.89746,85.737305,46.0437
1769252808405,-0.99072266,0.06738281,0.046875,0.0,0.61035156,0.0,0.0,0.0,0.0,59.89746,85.737305,46.0437
1769252808417,-0.99072266,0.06738281,0.046875,0.0,0.61035156,0.0,0.0,0.0,0.0,59.100952,85.68237,44.71985
1769252808504,-1.0097656,0.06933594,0.024902344,-1.5258789,3.6621094,0.7324219,0.0,0.0,0.0,59.100952,85.68237,44.71985
1769252808516,-1.0097656,0.06933594,0.024902344,-1.5258789,3.6621094,0.7324219,0.0,0.0,0.0,60.512695,85.68237,45.725098
1769252808604,-1.0083008,0.076171875,0.03955078,1.6479492,7.019043,-2.4414062,0.0,0.0,0.0,60.512695,85.68237,45.725098
1769252808615,-1.0083008,0.076171875,0.03955078,1.6479492,7.019043,-2.4414062,0.0,0.0,0.0,66.34094,85.95703,50.95459
1769252808704,-0.9794922,0.05126953,0.01953125,-0.5493164,2.2583008,-1.159668,0.0,0.0,0.0,66.34094,85.95703,50.95459
1769252808715,-0.9794922,0.05126953,0.01953125,-0.5493164,2.2583008,-1.159668,0.0,0.0,0.0,72.47681,86.292114,56.601562
1769252808803,-1.0068359,0.07080078,0.033203125,-0.30517578,4.0283203,-1.7700195,0.0,0.0,0.0,72.47681,86.292114,56.601562
1769252808816,-1.0068359,0.07080078,0.033203125,-0.30517578,4.0283203,-1.7700195,0.0,0.0,0.0,76.52527,86.48987,60.369873
1769252808903,-1.0009766,0.045410156,-0.0043945312,-1.2207031,0.91552734,0.12207031,0.0,0.0,0.0,76.52527,86.48987,60.369873
1769252808915,-1.0009766,0.045410156,-0.0043945312,-1.2207031,0.91552734,0.12207031,0.0,0.0,0.0,80.04639,86.59424,63.500977
1769252809003,-1.0019531,0.052734375,0.0073242188,-0.79345703,2.0141602,-1.159668,0.0,0.0,0.0,80.04639,86.59424,63.500977
1769252809014,-1.0019531,0.052734375,0.0073242188,-0.79345703,2.0141602,-1.159668,0.0,0.0,0.0,81.89209,86.66565,65.0116
1769252809103,-0.9995117,0.05859375,0.005859375,-0.61035156,0.18310547,-0.18310547,0.0,0.0,0.0,81.89209,86.66565,65.0116
1769252809114,-0.9995117,0.05859375,0.005859375,-0.61035156,0.18310547,-0.18310547,0.0,0.0,0.0,84.12781,86.72058,66.9397
1769252809202,-1.0014648,0.05078125,0.0073242188,-0.061035156,-2.319336,0.0,0.0,0.0,0.0,84.12781,86.72058,66.9397
1769252809214,-1.0014648,0.05078125,0.0073242188,-0.061035156,-2.319336,0.0,0.0,0.0,0.0,81.8042,86.71509,64.25903
1769252809302,-0.99853516,0.052734375,0.015625,-0.24414062,-3.1738281,1.0986328,0.0,0.0,0.0,81.8042,86.71509,64.25903
1769252809313,-0.99853516,0.052734375,0.015625,-0.24414062,-3.1738281,1.0986328,0.0,0.0,0.0,75.93201,86.53381,58.00232
1769252809402,-0.99853516,0.059570312,0.021484375,0.0,-2.319336,1.4648438,0.0,0.0,0.0,75.93201,86.53381,58.00232
1769252809413,-0.99853516,0.059570312,0.021484375,0.0,-2.319336,1.4648438,0.0,0.0,0.0,72.90527,86.363525,54.65149
1769252809501,-0.99853516,0.05908203,0.026367188,0.18310547,-1.5869141,1.2817383,0.0,0.0,0.0,72.90527,86.363525,54.65149
1769252809513,-0.99853516,0.05908203,0.026367188,0.18310547,-1.5869141,1.2817383,0.0,0.0,0.0,70.806885,86.17676,52.29492
1769252809601,-0.9980469,0.06201172,0.026367188,-0.061035156,-1.2207031,2.0141602,0.0,0.0,0.0,70.806885,86.17676,52.29492
1769252809613,-0.9980469,0.06201172,0.026367188,-0.061035156,-1.2207031,2.0141602,0.0,0.0,0.0,69.84009,85.96802,51.053467
1769252809701,-1.0014648,0.07128906,0.026855469,0.0,-0.061035156,1.4038086,0.0,0.0,0.0,69.84009,85.96802,51.053467
1769252809712,-1.0014648,0.07128906,0.026855469,0.0,-0.061035156,1.4038086,0.0,0.0,0.0,69.85657,85.79773,50.861206
1769252809801,-0.9995117,0.07519531,0.024414062,-0.24414062,0.12207031,0.8544922,0.0,0.0,0.0,69.85657,85.79773,50.861206
1769252809812,-0.9995117,0.07519531,0.024414062,-0.24414062,0.12207031,0.8544922,0.0,0.0,0.0,70.598145,85.704346,51.432495
1769252809900,-0.9970703,0.07324219,0.03125,-0.061035156,-0.061035156,0.30517578,0.0,0.0,0.0,70.598145,85.704346,51.432495
1769252809912,-0.9970703,0.07324219,0.03125,-0.061035156,-0.061035156,0.30517578,0.0,0.0,0.0,70.6311,85.649414,51.273193
1769252810000,-0.99853516,0.072265625,0.027832031,-0.24414062,0.4272461,0.0,0.0,0.0,0.0,70.6311,85.649414,51.273193
1769252810011,-0.99853516,0.072265625,0.027832031,-0.24414062,0.4272461,0.0,0.0,0.0,0.0,70.91675,85.63843,51.394043
1769252810100,-0.9980469,0.068847656,0.028808594,0.0,-0.6713867,-0.48828125,0.0,0.0,0.0,70.91675,85.63843,51.394043
1769252810111,-0.9980469,0.068847656,0.028808594,0.0,-0.6713867,-0.48828125,0.0,0.0,0.0,70.6311,85.62744,51.086426
1769252810199,-0.9980469,0.06982422,0.029785156,-0.12207031,0.061035156,0.061035156,0.0,0.0,0.0,70.6311,85.62744,51.086426
1769252810212,-0.9980469,0.06982422,0.029785156,-0.12207031,0.061035156,0.061035156,0.0,0.0,0.0,70.10925,85.632935,50.482178
1769252810299,-0.99902344,0.07324219,0.030273438,0.0,0.36621094,-0.30517578,0.0,0.0,0.0,70.10925,85.632935,50.482178
1769252810311,-0.99902344,0.07324219,0.030273438,0.0,0.36621094,-0.30517578,0.0,0.0,0.0,70.356445,85.649414,50.65796
1769252810399,-1.0,0.068359375,0.026367188,0.0,-0.24414062,-0.6713867,0.0,0.0,0.0,70.356445,85.649414,50.65796
1769252810410,-1.0,0.068359375,0.026367188,0.0,-0.24414062,-0.6713867,0.0,0.0,0.0,69.801636,85.69336,49.94934
1769252810499,-1.0,0.06933594,0.028808594,-0.48828125,0.24414062,0.24414062,0.0,0.0,0.0,69.801636,85.69336,49.94934
1769252810510,-1.0,0.06933594,0.028808594,-0.48828125,0.24414062,0.24414062,0.0,0.0,0.0,69.89502,85.70984,49.943848
1769252810598,-0.9975586,0.068847656,0.029296875,-0.24414062,0.0,0.4272461,0.0,0.0,0.0,69.89502,85.70984,49.943848
1769252810611,-0.9975586,0.068847656,0.029296875,-0.24414062,0.0,0.4272461,0.0,0.0,0.0,70.669556,85.68787,50.707397
1769252810698,-0.9975586,0.06933594,0.027832031,-0.061035156,0.18310547,0.24414062,0.0,0.0,0.0,70.669556,85.68787,50.707397
1769252810710,-0.9975586,0.06933594,0.027832031,-0.061035156,0.18310547,0.24414062,0.0,0.0,0.0,70.823364,85.65491,50.822754
1769252810798,-0.99902344,0.072265625,0.026367188,-0.24414062,-0.12207031,0.61035156,0.0,0.0,0.0,70.823364,85.65491,50.822754
1769252810809,-0.99902344,0.072265625,0.026367188,-0.24414062,-0.12207031,0.61035156,0.0,0.0,0.0,71.1969,85.60547,51.19629
1769252810897,-1.0,0.07080078,0.027832031,-0.12207031,-0.12207031,0.30517578,0.0,0.0,0.0,71.1969,85.60547,51.19629
1769252810909,-1.0,0.07080078,0.027832031,-0.12207031,-0.12207031,0.30517578,0.0,0.0,0.0,71.28479,85.55054,51.35559
1769252810997,-0.99902344,0.07080078,0.027832031,-0.12207031,0.18310547,0.061035156,0.0,0.0,0.0,71.28479,85.55054,51.35559
1769252811009,-0.99902344,0.07080078,0.027832031,-0.12207031,0.18310547,0.061035156,0.0,0.0,0.0,71.328735,85.528564,51.344604
1769252811097,-1.0004883,0.071777344,0.025390625,0.061035156,0.061035156,-0.12207031,0.0,0.0,0.0,71.328735,85.528564,51.344604
1769252811108,-1.0004883,0.071777344,0.025390625,0.061035156,0.061035156,-0.12207031,0.0,0.0,0.0,71.54297,85.52307,51.416016
1769252811196,-1.0009766,0.07324219,0.025390625,-0.36621094,0.0,0.12207031,0.0,0.0,0.0,71.54297,85.52307,51.416016
1769252811208,-1.0009766,0.07324219,0.025390625,-0.36621094,0.0,0.12207031,0.0,0.0,0.0,71.75171,85.53406,51.448975
1769252811296,-1.0,0.06738281,0.0234375,0.48828125,1.4648438,-0.18310547,0.0,0.0,0.0,71.75171,85.53406,51.448975
1769252811308,-1.0,0.06738281,0.0234375,0.48828125,1.4648438,-0.18310547,0.0,0.0,0.0,72.62512,85.545044,52.1521
1769252811396,-0.9970703,0.084472656,0.037109375,4.272461,8.178711,-8.300781,0.0,0.0,0.0,72.62512,85.545044,52.1521
1769252811407,-0.9970703,0.084472656,0.037109375,4.272461,8.178711,-8.300781,0.0,0.0,0.0,77.7063,85.962524,56.68396
1769252811496,-0.9741211,0.045898438,-0.016601562,2.8686523,-1.4038086,-7.8125,0.0,0.0,0.0,77.7063,85.962524,56.68396
1769252811508,-0.9741211,0.045898438,-0.016601562,2.8686523,-1.4038086,-7.8125,0.0,0.0,0.0,80.63965,86.68762,58.914185
1769252811595,-0.9897461,0.049316406,0.046875,0.36621094,-4.4555664,-3.3569336,0.0,0.0,0.0,80.63965,86.68762,58.914185
1769252811607,-0.9897461,0.049316406,0.046875,0.36621094,-4.4555664,-3.3569336,0.0,0.0,0.0,71.28479,87.127075,49.383545
1769252811695,-0.97753906,0.034179688,-0.018066406,-2.4414062,7.1411133,-1.159668,0.0,0.0,0.0,71.28479,87.127075,49.383545
1769252811706,-0.97753906,0.034179688,-0.018066406,-2.4414062,7.1411133,-1.159668,0.0,0.0,0.0,73.77319,87.51709,51.778564
1769252811795,-1.015625,0.033691406,0.020507812,-2.9296875,3.2958984,6.3476562,0.0,0.0,0.0,73.77319,87.51709,51.778564
1769252811806,-1.015625,0.033691406,0.020507812,-2.9296875,3.2958984,6.3476562,0.0,0.0,0.0,79.260864,87.20947,57.282715
1769252811894,-0.99072266,0.052246094,-9.765625E-4,-2.1972656,2.746582,2.9907227,0.0,0.0,0.0,79.260864,87.20947,57.282715
1769252811906,-0.99072266,0.052246094,-9.765625E-4,-2.1972656,2.746582,2.9907227,0.0,0.0,0.0,85.72632,86.49536,63.87451
1769252811994,-1.015625,0.05517578,0.017089844,3.8452148,3.90625,-2.1362305,0.0,0.0,0.0,85.72632,86.49536,63.87451
1769252812006,-1.015625,0.05517578,0.017089844,3.8452148,3.90625,-2.1362305,0.0,0.0,0.0,86.17676,86.693115,63.98987
1769252812094,-0.9707031,0.053710938,0.0014648438,-0.8544922,0.6713867,3.8452148,0.0,0.0,0.0,86.17676,86.693115,63.98987
1769252812105,-0.9707031,0.053710938,0.0014648438,-0.8544922,0.6713867,3.8452148,0.0,0.0,0.0,91.46118,86.50635,69.071045
1769252812194,-0.9970703,0.076171875,0.008300781,-0.6713867,0.7324219,-0.8544922,0.0,0.0,0.0,91.46118,86.50635,69.071045
1769252812205,-0.9970703,0.076171875,0.008300781,-0.6713867,0.7324219,-0.8544922,0.0,0.0,0.0,96.1853,86.27014,73.92151
1769252812293,-0.99316406,0.06933594,-0.030761719,0.36621094,2.1972656,-0.24414062,0.0,0.0,0.0,96.1853,86.27014,73.92151
1769252812305,-0.99316406,0.06933594,-0.030761719,0.36621094,2.1972656,-0.24414062,0.0,0.0,0.0,102.31018,86.32507,79.94202
1769252812393,-0.99658203,0.061523438,-0.00390625,-3.4179688,-3.4179688,0.36621094,0.0,0.0,0.0,102.31018,86.32507,79.94202
1769252812405,-0.99658203,0.061523438,-0.00390625,-3.4179688,-3.4179688,0.36621094,0.0,0.0,0.0,101.56311,86.32507,79.29382
1769252812493,-1.0073242,0.06591797,-0.0126953125,-4.760742,-2.9907227,0.24414062,0.0,0.0,0.0,101.56311,86.32507,79.29382
1769252812504,-1.0073242,0.06591797,-0.0126953125,-4.760742,-2.9907227,0.24414062,0.0,0.0,0.0,94.85596,86.33057,72.97119
1769252812592,-1.0117188,0.053222656,0.0024414062,-3.0517578,-3.2348633,-1.159668,0.0,0.0,0.0,94.85596,86.33057,72.97119
1769252812604,-1.0117188,0.053222656,0.0024414062,-3.0517578,-3.2348633,-1.159668,0.0,0.0,0.0,89.57153,86.34155,68.03833
1769252812692,-0.99365234,0.060058594,0.017089844,-1.0375977,-3.479004,0.12207031,0.0,0.0,0.0,89.57153,86.34155,68.03833
1769252812704,-0.99365234,0.060058594,0.017089844,-1.0375977,-3.479004,0.12207031,0.0,0.0,0.0,84.18823,86.347046,62.808838
1769252812792,-0.99560547,0.055664062,0.021484375,0.30517578,-1.8310547,-0.24414062,0.0,0.0,0.0,84.18823,86.347046,62.808838
1769252812803,-0.99560547,0.055664062,0.021484375,0.30517578,-1.8310547,-0.24414062,0.0,0.0,0.0,79.88159,86.30859,58.513184
1769252812892,-0.9921875,0.072753906,0.022949219,0.24414062,0.91552734,0.24414062,0.0,0.0,0.0,79.88159,86.30859,58.513184
1769252812903,-0.9921875,0.072753906,0.022949219,0.24414062,0.91552734,0.24414062,0.0,0.0,0.0,78.118286,86.25366,56.711426
1769252812991,-1.0053711,0.052734375,0.0043945312,-0.91552734,1.8920898,0.061035156,0.0,0.0,0.0,78.118286,86.25366,56.711426
1769252813003,-1.0053711,0.052734375,0.0043945312,-0.91552734,1.8920898,0.061035156,0.0,0.0,0.0,81.04614,86.18225,59.67224
1769252813091,-1.0,0.06591797,0.018554688,-0.12207031,0.30517578,1.2817383,0.0,0.0,0.0,81.04614,86.18225,59.67224
1769252813103,-1.0,0.06591797,0.018554688,-0.12207031,0.30517578,1.2817383,0.0,0.0,0.0,82.30957,86.10535,60.996094
1769252813191,-1.0043945,0.064453125,0.0068359375,0.24414062,-0.30517578,0.36621094,0.0,0.0,0.0,82.30957,86.10535,60.996094
1769252813202,-1.0043945,0.064453125,0.0068359375,0.24414062,-0.30517578,0.36621094,0.0,0.0,0.0,82.73804,86.066895,61.397095
1769252813290,-1.0058594,0.06640625,0.0029296875,-0.36621094,-0.48828125,0.5493164,0.0,0.0,0.0,82.73804,86.066895,61.397095
1769252813302,-1.0058594,0.06640625,0.0029296875,-0.36621094,-0.48828125,0.5493164,0.0,0.0,0.0,82.22168,86.02295,60.875244
1769252813390,-0.9946289,0.06298828,0.016601562,-0.5493164,-0.36621094,-0.12207031,0.0,0.0,0.0,82.22168,86.02295,60.875244
1769252813402,-0.9946289,0.06298828,0.016601562,-0.5493164,-0.36621094,-0.12207031,0.0,0.0,0.0,82.040405,86.01196,60.73242
1769252813490,-0.9975586,0.06347656,0.01171875,0.0,1.7089844,-1.4648438,0.0,0.0,0.0,82.040405,86.01196,60.73242
1769252813501,-0.9975586,0.06347656,0.01171875,0.0,1.7089844,-1.4648438,0.0,0.0,0.0,82.716064,86.0614,61.430054
1769252813590,-1.0009766,0.067871094,0.0073242188,-0.8544922,2.0751953,-0.12207031,0.0,0.0,0.0,82.716064,86.0614,61.430054
1769252813601,-1.0009766,0.067871094,0.0073242188,-0.8544922,2.0751953,-0.12207031,0.0,0.0,0.0,85.57251,86.09436,64.37988
1769252813689,-0.99902344,0.063964844,0.008300781,0.12207031,2.5024414,-0.6713867,0.0,0.0,0.0,85.57251,86.09436,64.37988
1769252813701,-0.99902344,0.063964844,0.008300781,0.12207031,2.5024414,-0.6713867,0.0,0.0,0.0,89.12109,86.16577,67.92847
1769252813789,-0.99609375,0.064941406,0.0029296875,0.24414062,2.746582,-1.159668,0.0,0.0,0.0,89.12109,86.16577,67.92847
1769252813801,-0.99609375,0.064941406,0.0029296875,0.24414062,2.746582,-1.159668,0.0,0.0,0.0,92.872925,86.24817,71.674805
1769252813889,-0.99609375,0.0625,0.0048828125,0.30517578,2.2583008,-0.79345703,0.0,0.0,0.0,92.872925,86.24817,71.674805
1769252813900,-0.99609375,0.0625,0.0048828125,0.30517578,2.2583008,-0.79345703,0.0,0.0,0.0,96.61377,86.28662,75.41565
1769252813989,-0.98095703,0.063964844,0.00390625,1.0375977,0.8544922,-0.48828125,0.0,0.0,0.0,96.61377,86.28662,75.41565
1769252814000,-0.98095703,0.063964844,0.00390625,1.0375977,0.8544922,-0.48828125,0.0,0.0,0.0,98.50891,86.292114,77.27783
1769252814088,-1.0009766,0.064453125,-0.009765625,0.9765625,0.7324219,1.7089844,0.0,0.0,0.0,98.50891,86.292114,77.27783
1769252814100,-1.0009766,0.064453125,-0.009765625,0.9765625,0.7324219,1.7089844,0.0,0.0,0.0,97.86072,86.17676,76.52527
1769252814188,-1.0024414,0.05859375,-0.014160156,0.12207031,-0.7324219,0.79345703,0.0,0.0,0.0,97.86072,86.17676,76.52527
1769252814199,-1.0024414,0.05859375,-0.014160156,0.12207031,-0.7324219,0.79345703,0.0,0.0,0.0,98.83301,86.03943,77.45361
1769252814288,-0.99853516,0.0703125,-0.0078125,0.8544922,-1.8310547,0.061035156,0.0,0.0,0.0,98.83301,86.03943,77.45361
1769252814299,-0.99853516,0.0703125,-0.0078125,0.8544922,-1.8310547,0.061035156,0.0,0.0,0.0,96.05896,86.01196,74.608154
1769252814387,-1.003418,0.06542969,-9.765625E-4,-0.30517578,0.0,-0.061035156,0.0,0.0,0.0,96.05896,86.01196,74.608154
1769252814399,-1.003418,0.06542969,-9.765625E-4,-0.30517578,0.0,-0.061035156,0.0,0.0,0.0,95.00427,86.017456,73.53699
1769252814487,-1.0019531,0.06689453,-0.00390625,-0.36621094,1.159668,-0.061035156,0.0,0.0,0.0,95.00427,86.017456,73.53699
1769252814499,-1.0019531,0.06689453,-0.00390625,-0.36621094,1.159668,-0.061035156,0.0,0.0,0.0,95.77881,86.01196,74.366455
1769252814587,-1.0043945,0.06982422,-0.013671875,0.30517578,-2.1362305,-1.7089844,0.0,0.0,0.0,95.77881,86.01196,74.366455
1769252814598,-1.0043945,0.06982422,-0.013671875,0.30517578,-2.1362305,-1.7089844,0.0,0.0,0.0,95.25696,86.07788,73.87756
1769252814687,-0.9970703,0.06542969,0.0048828125,-0.4272461,-3.9672852,-0.6713867,0.0,0.0,0.0,95.25696,86.07788,73.87756
1769252814698,-0.9970703,0.06542969,0.0048828125,-0.4272461,-3.9672852,-0.6713867,0.0,0.0,0.0,89.96155,86.154785,68.64807
1769252814786,-1.0131836,0.061523438,0.014160156,-0.7324219,-3.112793,-1.2817383,0.0,0.0,0.0,89.96155,86.154785,68.64807
1769252814798,-1.0131836,0.061523438,0.014160156,-0.7324219,-3.112793,-1.2817383,0.0,0.0,0.0,82.97424,86.26465,61.765137
1769252814886,-1.0009766,0.076171875,0.017578125,-0.24414062,3.2958984,-1.7089844,0.0,0.0,0.0,82.97424,86.26465,61.765137
1769252814898,-1.0009766,0.076171875,0.017578125,-0.24414062,3.2958984,-1.7089844,0.0,0.0,0.0,82.732544,86.35803,61.64978
1769252814986,-0.9980469,0.037109375,0.0024414062,-2.9907227,2.6855469,0.18310547,0.0,0.0,0.0,82.732544,86.35803,61.64978
1769252814997,-0.9980469,0.037109375,0.0024414062,-2.9907227,2.6855469,0.18310547,0.0,0.0,0.0,86.82495,86.53381,65.92346
1769252815085,-0.9995117,0.044921875,0.009277344,-2.8076172,4.5166016,3.6621094,0.0,0.0,0.0,86.82495,86.53381,65.92346
1769252815097,-0.9995117,0.044921875,0.009277344,-2.8076172,4.5166016,3.6621094,0.0,0.0,0.0,92.510376,86.2262,71.971436
1769252815185,-0.99853516,0.063964844,-0.0068359375,-0.36621094,8.178711,3.90625,0.0,0.0,0.0,92.510376,86.2262,71.971436
1769252815197,-0.99853516,0.063964844,-0.0068359375,-0.36621094,8.178711,3.90625,0.0,0.0,0.0,101.66199,85.75928,81.33179
1769252815285,-0.9926758,0.099609375,-0.032226562,1.953125,0.9765625,0.61035156,0.0,0.0,0.0,101.66199,85.75928,81.33179
1769252815296,-0.9926758,0.099609375,-0.032226562,1.953125,0.9765625,0.61035156,0.0,0.0,0.0,106.9574,85.49011,86.51184
1769252815385,-0.9970703,0.088378906,-0.024414062,1.0986328,-2.8686523,2.380371,0.0,0.0,0.0,106.9574,85.49011,86.51184
1769252815396,-0.9970703,0.088378906,-0.024414062,1.0986328,-2.8686523,2.380371,0.0,0.0,0.0,106.40808,85.36377,85.79773
1769252815484,-1.0146484,0.083984375,-0.016113281,1.953125,-3.7231445,1.159668,0.0,0.0,0.0,106.40808,85.36377,85.79773
1769252815496,-1.0146484,0.083984375,-0.016113281,1.953125,-3.7231445,1.159668,0.0,0.0,0.0,101.222534,85.270386,80.49133
1769252815585,-0.9873047,0.063964844,0.022460938,3.90625,-1.5258789,3.2958984,0.0,0.0,0.0,101.222534,85.270386,80.49133
1769252815595,-0.9873047,0.063964844,0.022460938,3.90625,-1.5258789,3.2958984,0.0,0.0,0.0,98.36609,85.05615,77.59094
1769252815684,-1.0107422,0.08300781,-0.01171875,3.6621094,3.2348633,0.0,0.0,0.0,0.0,98.36609,85.05615,77.59094
1769252815696,-1.0107422,0.08300781,-0.01171875,3.6621094,3.2348633,0.0,0.0,0.0,0.0,97.94861,85.03418,76.865845
1769252815783,-1.0263672,0.10498047,-0.02734375,-12.207031,8.911133,8.178711,0.0,0.0,0.0,97.94861,85.03418,76.865845
1769252815795,-1.0263672,0.10498047,-0.02734375,-12.207031,8.911133,8.178711,0.0,0.0,0.0,103.95264,84.6167,83.31482
1769252815883,-0.99560547,0.08984375,-0.020019531,-17.76123,12.756348,14.282227,0.0,0.0,0.0,103.95264,84.6167,83.31482
1769252815895,-0.99560547,0.08984375,-0.020019531,-17.76123,12.756348,14.282227,0.0,0.0,0.0,108.99536,83.254395,89.923096
1769252815983,-0.97998047,0.123046875,-0.03955078,-15.686035,6.4697266,10.314941,0.0,0.0,0.0,108.99536,83.254395,89.923096
1769252815995,-0.97998047,0.123046875,-0.03955078,-15.686035,6.4697266,10.314941,0.0,0.0,0.0,111.68152,81.74927,94.5813
1769252816083,-0.96533203,0.14111328,-0.0546875,8.972168,2.0751953,3.479004,0.0,0.0,0.0,111.68152,81.74927,94.5813
1769252816094,-0.96533203,0.14111328,-0.0546875,8.972168,2.0751953,3.479004,0.0,0.0,0.0,112.61536,81.01868,95.548096
1769252816182,-1.0258789,0.16210938,-0.064453125,1.5258789,5.3100586,5.3100586,0.0,0.0,0.0,112.61536,81.01868,95.548096
1769252816194,-1.0258789,0.16210938,-0.064453125,1.5258789,5.3100586,5.3100586,0.0,0.0,0.0,113.88428,80.67261,96.135864
1769252816282,-0.9628906,0.16845703,-0.07519531,-5.065918,9.58252,-3.7841797,0.0,0.0,0.0,113.88428,80.67261,96.135864
1769252816293,-0.9628906,0.16845703,-0.07519531,-5.065918,9.58252,-3.7841797,0.0,0.0,0.0,117.8064,80.128784,100.184326
1769252816382,-1.0244141,0.14160156,-0.08984375,6.0424805,25.268555,-9.58252,0.0,0.0,0.0,117.8064,80.128784,100.184326
1769252816393,-1.0244141,0.14160156,-0.08984375,6.0424805,25.268555,-9.58252,0.0,0.0,0.0,127.13379,79.991455,109.69849
1769252816482,-0.99902344,0.083496094,-0.17871094,1.7700195,28.015137,-3.7841797,0.0,0.0,0.0,127.13379,79.991455,109.69849
1769252816493,-0.99902344,0.083496094,-0.17871094,1.7700195,28.015137,-3.7841797,0.0,0.0,0.0,140.98206,78.810425,122.79419
1769252816581,-0.9848633,0.12011719,-0.1953125,-8.117676,6.4697266,-3.540039,0.0,0.0,0.0,140.98206,78.810425,122.79419
1769252816593,-0.9848633,0.12011719,-0.1953125,-8.117676,6.4697266,-3.540039,0.0,0.0,0.0,146.93665,77.92053,129.12231
1769252816681,-1.0043945,0.118652344,-0.13134766,5.3100586,5.3710938,-8.605957,0.0,0.0,0.0,146.93665,77.92053,129.12231
1769252816693,-1.0043945,0.118652344,-0.13134766,5.3100586,5.3710938,-8.605957,0.0,0.0,0.0,150.50171,77.66785,132.73132
1769252816781,-0.9785156,0.018066406,-0.2241211,-1.159668,6.958008,-11.84082,0.0,0.0,0.0,150.50171,77.66785,132.73132
1769252816792,-0.9785156,0.018066406,-0.2241211,-1.159668,6.958008,-11.84082,0.0,0.0,0.0,153.74817,77.51404,136.08215
1769252816880,-0.953125,0.15283203,-0.20947266,-7.1411133,7.2631836,-6.958008,0.0,0.0,0.0,153.74817,77.51404,136.08215
1769252816892,-0.953125,0.15283203,-0.20947266,-7.1411133,7.2631836,-6.958008,0.0,0.0,0.0,161.12549,77.32178,143.25623
1769252816980,-0.9638672,0.1171875,-0.16308594,-5.9814453,11.474609,4.333496,0.0,0.0,0.0,161.12549,77.32178,143.25623
1769252816992,-0.9638672,0.1171875,-0.16308594,-5.9814453,11.474609,4.333496,0.0,0.0,0.0,161.96045,76.32202,144.02527
1769252817080,-1.0180664,0.06347656,-0.20605469,-14.526367,-6.4086914,-4.760742,0.0,0.0,0.0,161.96045,76.32202,144.02527
1769252817092,-1.0180664,0.06347656,-0.20605469,-14.526367,-6.4086914,-4.760742,0.0,0.0,0.0,155.14893,76.00342,140.24048
1769252817179,-0.8359375,0.08154297,-0.2993164,-25.08545,-0.12207031,0.30517578,0.0,0.0,0.0,155.14893,76.00342,140.24048
1769252817191,-0.8359375,0.08154297,-0.2993164,-25.08545,-0.12207031,0.30517578,0.0,0.0,0.0,149.65576,77.11853,136.30188
1769252817279,-0.97265625,0.14453125,-0.2939453,12.817383,16.540527,-0.4272461,0.0,0.0,0.0,149.65576,77.11853,136.30188
1769252817291,-0.97265625,0.14453125,-0.2939453,12.817383,16.540527,-0.4272461,0.0,0.0,0.0,153.68774,76.206665,139.08691
1769252817379,-1.0131836,-0.07763672,-0.37841797,103.271484,32.65381,-15.380859,0.0,0.0,0.0,153.68774,76.206665,139.08691
1769252817390,-1.0131836,-0.07763672,-0.37841797,103.271484,32.65381,-15.380859,0.0,0.0,0.0,165.81665,73.740234,145.06897
1769252817479,-1.0708008,0.08496094,-0.3544922,-11.779785,-1.7089844,5.432129,0.0,0.0,0.0,165.81665,73.740234,145.06897
1769252817490,-1.0708008,0.08496094,-0.3544922,-11.779785,-1.7089844,5.432129,0.0,0.0,0.0,166.11328,73.19641,145.21179
1769252817578,-0.8876953,-0.07714844,-0.22949219,16.662598,-14.465332,-30.517578,0.0,0.0,0.0,166.11328,73.19641,145.21179
1769252817590,-0.8876953,-0.07714844,-0.22949219,16.662598,-14.465332,-30.517578,0.0,0.0,0.0,173.62793,73.465576,151.54541
1769252817678,-0.92626953,0.088378906,-0.2998047,-17.211914,-4.0893555,2.5024414,0.0,0.0,0.0,173.62793,73.465576,151.54541
1769252817690,-0.92626953,0.088378906,-0.2998047,-17.211914,-4.0893555,2.5024414,0.0,0.0,0.0,175.20996,73.690796,154.19312
1769252817778,-0.9428711,0.016113281,-0.2861328,21.972656,-10.864258,-2.8686523,0.0,0.0,0.0,175.20996,73.690796,154.19312
1769252817789,-0.9428711,0.016113281,-0.2861328,21.972656,-10.864258,-2.8686523,0.0,0.0,0.0,175.55054,74.44885,153.53394
1769252817877,-0.9868164,0.016601562,-0.23486328,8.239746,-25.634766,0.5493164,0.0,0.0,0.0,175.55054,74.44885,153.53394
1769252817889,-0.9868164,0.016601562,-0.23486328,8.239746,-25.634766,0.5493164,0.0,0.0,0.0,176.79749,76.19568,152.91321
1769252817977,-1.0625,0.096191406,-0.21582031,22.338867,-33.935547,11.413574,0.0,0.0,0.0,176.79749,76.19568,152.91321
1769252817989,-1.0625,0.096191406,-0.21582031,22.338867,-33.935547,11.413574,0.0,0.0,0.0,173.71033,78.96423,148.08472
1769252818077,-1.0541992,-0.053710938,-0.087402344,-3.540039,-40.71045,-3.8452148,0.0,0.0,0.0,173.71033,78.96423,148.08472
1769252818088,-1.0541992,-0.053710938,-0.087402344,-3.540039,-40.71045,-3.8452148,0.0,0.0,0.0,170.83191,82.8479,143.95935
1769252818177,-0.97998047,0.05078125,-0.099609375,-52.856445,-26.611328,22.155762,0.0,0.0,0.0,170.83191,82.8479,143.95935
1769252818188,-0.97998047,0.05078125,-0.099609375,-52.856445,-26.611328,22.155762,0.0,0.0,0.0,144.14612,84.776,120.476074
1769252818276,-0.9477539,0.08642578,0.056152344,-9.033203,-17.211914,7.019043,0.0,0.0,0.0,144.14612,84.776,120.476074
1769252818288,-0.9477539,0.08642578,0.056152344,-9.033203,-17.211914,7.019043,0.0,0.0,0.0,111.901245,84.97925,90.357056
1769252818376,-0.9765625,0.045410156,4.8828125E-4,4.699707,-9.399414,0.79345703,0.0,0.0,0.0,111.901245,84.97925,90.357056
1769252818388,-0.9765625,0.045410156,4.8828125E-4,4.699707,-9.399414,0.79345703,0.0,0.0,0.0,99.28894,85.38025,77.33276
1769252818476,-1.0268555,0.0703125,0.033203125,4.760742,-5.1879883,-5.859375,0.0,0.0,0.0,99.28894,85.38025,77.33276
1769252818487,-1.0268555,0.0703125,0.033203125,4.760742,-5.1879883,-5.859375,0.0,0.0,0.0,89.44519,85.86365,67.05505
1769252818576,-0.99316406,0.1015625,0.014160156,8.728027,-0.9765625,-6.164551,0.0,0.0,0.0,89.44519,85.86365,67.05505
1769252818587,-0.99316406,0.1015625,0.014160156,8.728027,-0.9765625,-6.164551,0.0,0.0,0.0,87.8302,86.34155,64.940186
1769252818675,-1.0283203,0.032226562,-0.0048828125,4.272461,3.2348633,-12.6953125,0.0,0.0,0.0,87.8302,86.34155,64.940186
1769252818687,-1.0283203,0.032226562,-0.0048828125,4.272461,3.2348633,-12.6953125,0.0,0.0,0.0,85.6604,87.385254,62.111206
1769252818775,-1.0073242,0.022460938,0.024414062,9.155273,-6.8969727,-13.916016,0.0,0.0,0.0,85.6604,87.385254,62.111206
1769252818786,-1.0073242,0.022460938,0.024414062,9.155273,-6.8969727,-13.916016,0.0,0.0,0.0,77.00867,88.37402,52.81128
1769252818875,-1.0371094,0.008300781,0.01953125,2.0141602,-5.3100586,-19.77539,0.0,0.0,0.0,77.00867,88.37402,52.81128
1769252818886,-1.0371094,0.008300781,0.01953125,2.0141602,-5.3100586,-19.77539,0.0,0.0,0.0,-34.37622,88.65967,-58.90869
1769252818974,-0.9716797,-0.026367188,0.017578125,-0.12207031,-10.192871,-8.544922,0.0,0.0,0.0,-34.37622,88.65967,-58.90869
1769252818986,-0.9716797,-0.026367188,0.017578125,-0.12207031,-10.192871,-8.544922,0.0,0.0,0.0,-49.735107,87.6709,-73.98193
1769252819074,-1.0024414,-0.080078125,0.07373047,1.8310547,-14.587402,-11.71875,0.0,0.0,0.0,-49.735107,87.6709,-73.98193
1769252819086,-1.0024414,-0.080078125,0.07373047,1.8310547,-14.587402,-11.71875,0.0,0.0,0.0,-46.186523,85.88013,-70.04883
1769252819174,-1.0073242,-0.072265625,0.063964844,-2.2583008,-9.277344,1.4038086,0.0,0.0,0.0,-46.186523,85.88013,-70.04883
1769252819185,-1.0073242,-0.072265625,0.063964844,-2.2583008,-9.277344,1.4038086,0.0,0.0,0.0,-40.198975,84.55078,-63.616333
1769252819273,-0.9916992,-0.06738281,0.095703125,-0.9765625,-4.8828125,3.0517578,0.0,0.0,0.0,-40.198975,84.55078,-63.616333
1769252819285,-0.9916992,-0.06738281,0.095703125,-0.9765625,-4.8828125,3.0517578,0.0,0.0,0.0,-35.10681,84.03992,-57.98584
1769252819373,-0.9946289,-0.056640625,0.1171875,-0.8544922,-6.958008,0.61035156,0.0,0.0,0.0,-35.10681,84.03992,-57.98584
1769252819385,-0.9946289,-0.056640625,0.1171875,-0.8544922,-6.958008,0.61035156,0.0,0.0,0.0,-31.206665,83.57849,-53.624268
1769252819473,-0.9951172,-0.05029297,0.084472656,-0.30517578,-8.178711,0.7324219,0.0,0.0,0.0,-31.206665,83.57849,-53.624268
1769252819485,-0.9951172,-0.05029297,0.084472656,-0.30517578,-8.178711,0.7324219,0.0,0.0,0.0,-28.130493,83.05664,-50.152588
1769252819573,-0.99658203,-0.043945312,0.110839844,-2.0141602,-21.484375,0.061035156,0.0,0.0,0.0,-28.130493,83.05664,-50.152588
1769252819584,-0.99658203,-0.043945312,0.110839844,-2.0141602,-21.484375,0.061035156,0.0,0.0,0.0,-23.532715,81.936035,-44.994507
1769252819672,-0.9824219,-0.0703125,0.17578125,3.6010742,-41.56494,-13.916016,0.0,0.0,0.0,-23.532715,81.936035,-44.994507
1769252819684,-0.9824219,-0.0703125,0.17578125,3.6010742,-41.56494,-13.916016,0.0,0.0,0.0,-20.203857,78.55774,-41.132812
1769252819772,-0.9379883,-0.11621094,0.27001953,0.0,-15.808105,-12.451172,0.0,0.0,0.0,-20.203857,78.55774,-41.132812
1769252819783,-0.9379883,-0.11621094,0.27001953,0.0,-15.808105,-12.451172,0.0,0.0,0.0,-21.730957,75.146484,-41.984253
1769252819872,-0.9667969,-0.100097656,0.28173828,-4.333496,-9.521484,0.6713867,0.0,0.0,0.0,-21.730957,75.146484,-41.984253
1769252819883,-0.9667969,-0.100097656,0.28173828,-4.333496,-9.521484,0.6713867,0.0,0.0,0.0,-20.961914,74.19617,-40.610962
1769252819971,-0.93847656,-0.12060547,0.2993164,-4.0893555,-0.9765625,3.6010742,0.0,0.0,0.0,-20.961914,74.19617,-40.610962
1769252819983,-0.93847656,-0.12060547,0.2993164,-4.0893555,-0.9765625,3.6010742,0.0,0.0,0.0,-20.429077,73.65234,-39.16626
1769252820071,-0.95458984,-0.11035156,0.28808594,-4.3945312,-1.159668,3.0517578,0.0,0.0,0.0,-20.429077,73.65234,-39.16626
1769252820083,-0.95458984,-0.11035156,0.28808594,-4.3945312,-1.159668,3.0517578,0.0,0.0,0.0,-19.632568,73.50952,-37.386475
1769252820171,-0.9667969,-0.08691406,0.27929688,-1.6479492,6.5307617,3.9672852,0.0,0.0,0.0,-19.632568,73.50952,-37.386475
1769252820182,-0.9667969,-0.08691406,0.27929688,-1.6479492,6.5307617,3.9672852,0.0,0.0,0.0,-19.286499,73.81714,-36.123047
1769252820271,-0.9628906,-0.08935547,0.2548828,-0.7324219,5.7373047,-0.061035156,0.0,0.0,0.0,-19.286499,73.81714,-36.123047
1769252820282,-0.9628906,-0.08935547,0.2548828,-0.7324219,5.7373047,-0.061035156,0.0,0.0,0.0,-19.418335,74.37744,-35.562744
1769252820370,-0.97265625,-0.09326172,0.25,-0.79345703,3.2348633,-0.5493164,0.0,0.0,0.0,-19.418335,74.37744,-35.562744
1769252820382,-0.97265625,-0.09326172,0.25,-0.79345703,3.2348633,-0.5493164,0.0,0.0,0.0,-20.093994,74.70703,-35.672607
1769252820470,-0.97265625,-0.107421875,0.23291016,-0.061035156,0.0,-0.79345703,0.0,0.0,0.0,-20.093994,74.70703,-35.672607
1769252820482,-0.97265625,-0.107421875,0.23291016,-0.061035156,0.0,-0.79345703,0.0,0.0,0.0,-20.79712,74.75098,-35.95276
1769252820570,-0.9580078,-0.099609375,0.26123047,0.48828125,-2.1972656,-1.7089844,0.0,0.0,0.0,-20.79712,74.75098,-35.95276
1769252820581,-0.9580078,-0.099609375,0.26123047,0.48828125,-2.1972656,-1.7089844,0.0,0.0,0.0,-20.74768,74.53674,-35.50232
1769252820669,-0.95996094,-0.09765625,0.26513672,-0.36621094,2.4414062,-1.159668,0.0,0.0,0.0,-20.74768,74.53674,-35.50232
1769252820681,-0.95996094,-0.09765625,0.26513672,-0.36621094,2.4414062,-1.159668,0.0,0.0,0.0,-21.099243,74.382935,-35.43091
1769252820769,-0.9633789,-0.111816406,0.25390625,-2.1972656,7.3242188,0.91552734,0.0,0.0,0.0,-21.099243,74.382935,-35.43091
1769252820781,-0.9633789,-0.111816406,0.25390625,-2.1972656,7.3242188,0.91552734,0.0,0.0,0.0,-21.846313,74.64661,-35.672607
1769252820869,-0.9614258,-0.107421875,0.2421875,-0.5493164,5.2490234,-0.061035156,0.0,0.0,0.0,-21.846313,74.64661,-35.672607
1769252820880,-0.9614258,-0.107421875,0.2421875,-0.5493164,5.2490234,-0.061035156,0.0,0.0,0.0,-22.686768,75.30029,-36.013184
1769252820969,-0.9765625,-0.109375,0.22949219,-0.18310547,6.4086914,-2.0751953,0.0,0.0,0.0,-22.686768,75.30029,-36.013184
1769252820980,-0.9765625,-0.109375,0.22949219,-0.18310547,6.4086914,-2.0751953,0.0,0.0,0.0,-23.917236,75.59143,-36.930542
1769252821068,-0.97021484,-0.09277344,0.21484375,-1.953125,9.643555,-1.0375977,0.0,0.0,0.0,-23.917236,75.59143,-36.930542
1769252821080,-0.97021484,-0.09277344,0.21484375,-1.953125,9.643555,-1.0375977,0.0,0.0,0.0,-25.773926,76.16821,-38.413696
1769252821168,-0.9746094,-0.115722656,0.19433594,-1.6479492,6.4086914,-2.5634766,0.0,0.0,0.0,-25.773926,76.16821,-38.413696
1769252821180,-0.9746094,-0.115722656,0.19433594,-1.6479492,6.4086914,-2.5634766,0.0,0.0,0.0,-28.449097,76.78894,-40.72632
1769252821268,-0.9711914,-0.12597656,0.19628906,-1.0986328,1.2817383,-2.1972656,0.0,0.0,0.0,-28.449097,76.78894,-40.72632
1769252821279,-0.9711914,-0.12597656,0.19628906,-1.0986328,1.2817383,-2.1972656,0.0,0.0,0.0,-30.217896,76.92627,-42.1875
1769252821367,-0.9707031,-0.1303711,0.1953125,0.18310547,-1.7700195,-0.30517578,0.0,0.0,0.0,-30.217896,76.92627,-42.1875
1769252821379,-0.9707031,-0.1303711,0.1953125,0.18310547,-1.7700195,-0.30517578,0.0,0.0,0.0,-30.750732,76.82739,-42.489624
1769252821467,-0.9716797,-0.12060547,0.20410156,0.48828125,-0.061035156,0.18310547,0.0,0.0,0.0,-30.750732,76.82739,-42.489624
1769252821479,-0.9716797,-0.12060547,0.20410156,0.48828125,-0.061035156,0.18310547,0.0,0.0,0.0,-30.470581,76.712036,-42.072144
1769252821568,-0.9746094,-0.11767578,0.19580078,-0.61035156,0.9765625,-0.4272461,0.0,0.0,0.0,-30.470581,76.712036,-42.072144
1769252821578,-0.9746094,-0.11767578,0.19580078,-0.61035156,0.9765625,-0.4272461,0.0,0.0,0.0,-30.701294,76.7395,-42.143555
1769252821667,-0.97558594,-0.12207031,0.19433594,-0.79345703,2.0141602,0.061035156,0.0,0.0,0.0,-30.701294,76.7395,-42.143555
1769252821678,-0.97558594,-0.12207031,0.19433594,-0.79345703,2.0141602,0.061035156,0.0,0.0,0.0,-31.212158,76.86035,-42.45117
1769252821766,-0.97265625,-0.12695312,0.19482422,1.0375977,0.18310547,-1.2207031,0.0,0.0,0.0,-31.212158,76.86035,-42.45117
1769252821778,-0.97265625,-0.12695312,0.19482422,1.0375977,0.18310547,-1.2207031,0.0,0.0,0.0,-31.503296,76.832886,-42.665405
1769252821866,-0.9707031,-0.122558594,0.19628906,0.0,0.18310547,-0.4272461,0.0,0.0,0.0,-31.503296,76.832886,-42.665405
1769252821877,-0.9707031,-0.122558594,0.19628906,0.0,0.18310547,-0.4272461,0.0,0.0,0.0,-31.695557,76.78345,-42.736816
1769252821966,-0.97509766,-0.12841797,0.1953125,-0.18310547,0.91552734,-0.61035156,0.0,0.0,0.0,-31.695557,76.78345,-42.736816
1769252821977,-0.97509766,-0.12841797,0.1953125,-0.18310547,0.91552734,-0.61035156,0.0,0.0,0.0,-31.99768,76.77246,-42.90161
1769252822066,-0.9741211,-0.12841797,0.19238281,0.18310547,1.2817383,-0.79345703,0.0,0.0,0.0,-31.99768,76.77246,-42.90161
1769252822077,-0.9741211,-0.12841797,0.19238281,0.18310547,1.2817383,-0.79345703,0.0,0.0,0.0,-32.541504,76.777954,-43.341064
1769252822165,-0.97558594,-0.12841797,0.19189453,0.0,0.5493164,-0.4272461,0.0,0.0,0.0,-32.541504,76.777954,-43.341064
1769252822177,-0.97558594,-0.12841797,0.19189453,0.0,0.5493164,-0.4272461,0.0,0.0,0.0,-32.893066,76.79443,-43.588257
1769252822265,-0.97216797,-0.13085938,0.19091797,0.0,0.24414062,-0.36621094,0.0,0.0,0.0,-32.893066,76.79443,-43.588257
1769252822276,-0.97216797,-0.13085938,0.19091797,0.0,0.24414062,-0.36621094,0.0,0.0,0.0,-33.134766,76.78345,-43.74756
1769252822365,-0.9736328,-0.13378906,0.19042969,0.61035156,-0.12207031,-0.30517578,0.0,0.0,0.0,-33.134766,76.78345,-43.74756
1769252822376,-0.9736328,-0.13378906,0.19042969,0.61035156,-0.12207031,-0.30517578,0.0,0.0,0.0,-33.21167,76.75049,-43.74756
1769252822464,-0.97314453,-0.12939453,0.18847656,-0.5493164,0.24414062,0.18310547,0.0,0.0,0.0,-33.21167,76.75049,-43.74756
1769252822476,-0.97314453,-0.12939453,0.18847656,-0.5493164,0.24414062,0.18310547,0.0,0.0,0.0,-33.343506,76.728516,-43.813477
1769252822564,-0.97265625,-0.1328125,0.1928711,-0.061035156,0.0,0.0,0.0,0.0,0.0,-33.343506,76.728516,-43.813477
1769252822575,-0.97265625,-0.1328125,0.1928711,-0.061035156,0.0,0.0,0.0,0.0,0.0,-33.37097,76.728516,-43.736572
1769252822664,-0.9711914,-0.12988281,0.19042969,-0.18310547,0.61035156,0.061035156,0.0,0.0,0.0,-33.37097,76.728516,-43.736572
1769252822675,-0.9711914,-0.12988281,0.19042969,-0.18310547,0.61035156,0.061035156,0.0,0.0,0.0,-33.57422,76.761475,-43.775024
1769252822763,-0.9746094,-0.13134766,0.18945312,0.061035156,0.12207031,0.30517578,0.0,0.0,0.0,-33.57422,76.761475,-43.775024
1769252822775,-0.9746094,-0.13134766,0.18945312,0.061035156,0.12207031,0.30517578,0.0,0.0,0.0,-33.623657,76.79993,-43.64868
1769252822863,-0.97216797,-0.12841797,0.18847656,0.0,0.061035156,0.12207031,0.0,0.0,0.0,-33.623657,76.79993,-43.64868
1769252822875,-0.97216797,-0.12841797,0.18847656,0.0,0.061035156,0.12207031,0.0,0.0,0.0,-33.64563,76.80542,-43.48938
1769252822963,-0.9746094,-0.12890625,0.18945312,0.0,-0.24414062,0.0,0.0,0.0,0.0,-33.64563,76.80542,-43.48938
1769252822974,-0.9746094,-0.12890625,0.18945312,0.0,-0.24414062,0.0,0.0,0.0,0.0,-33.66211,76.78345,-43.33008
1769252823063,-0.97314453,-0.13378906,0.19140625,0.61035156,-0.24414062,-0.18310547,0.0,0.0,0.0,-33.66211,76.78345,-43.33008
1769252823075,-0.97314453,-0.13378906,0.19140625,0.61035156,-0.24414062,-0.18310547,0.0,0.0,0.0,-33.640137,76.7395,-43.17627
1769252823162,-0.97753906,-0.13134766,0.18847656,0.18310547,-0.061035156,0.0,0.0,0.0,0.0,-33.640137,76.7395,-43.17627
1769252823174,-0.97753906,-0.13134766,0.18847656,0.18310547,-0.061035156,0.0,0.0,0.0,0.0,-33.706055,76.712036,-43.21472
1769252823262,-0.96728516,-0.1274414,0.19042969,2.0141602,-0.18310547,-2.2583008,0.0,0.0,0.0,-33.706055,76.712036,-43.21472
1769252823274,-0.96728516,-0.1274414,0.19042969,2.0141602,-0.18310547,-2.2583008,0.0,0.0,0.0,-33.980713,76.64612,-43.59375
1769252823362,-0.9848633,-0.1303711,0.19042969,0.24414062,-1.0375977,-0.4272461,0.0,0.0,0.0,-33.980713,76.64612,-43.59375
1769252823373,-0.9848633,-0.1303711,0.19042969,0.24414062,-1.0375977,-0.4272461,0.0,0.0,0.0,-34.244385,76.45386,-43.83545
1769252823462,-0.97265625,-0.1484375,0.18945312,0.5493164,0.0,-0.91552734,0.0,0.0,0.0,-34.244385,76.45386,-43.83545
1769252823473,-0.97265625,-0.1484375,0.18945312,0.5493164,0.0,-0.91552734,0.0,0.0,0.0,-34.44763,76.51428,-43.99475
1769252823562,-0.9746094,-0.13330078,0.19628906,-0.9765625,-1.2817383,0.0,0.0,0.0,0.0,-34.44763,76.51428,-43.99475
1769252823573,-0.9746094,-0.13330078,0.19628906,-0.9765625,-1.2817383,0.0,0.0,0.0,0.0,-34.486084,76.37695,-43.989258
1769252823661,-0.9667969,-0.1381836,0.1850586,0.9765625,-1.6479492,-3.112793,0.0,0.0,0.0,-34.486084,76.37695,-43.989258
1769252823672,-0.9667969,-0.1381836,0.1850586,0.9765625,-1.6479492,-3.112793,0.0,0.0,0.0,-34.711304,76.27258,-44.208984
1769252823761,-0.9707031,-0.13330078,0.19238281,-2.1972656,-5.92041,-9.033203,0.0,0.0,0.0,-34.711304,76.27258,-44.208984
1769252823772,-0.9707031,-0.13330078,0.19238281,-2.1972656,-5.92041,-9.033203,0.0,0.0,0.0,-35.112305,75.44861,-44.467163
1769252823860,-0.93115234,-0.14990234,0.22558594,-3.2958984,5.126953,4.9438477,0.0,0.0,0.0,-35.112305,75.44861,-44.467163
1769252823872,-0.93115234,-0.14990234,0.22558594,-3.2958984,5.126953,4.9438477,0.0,0.0,0.0,-35.881348,75.355225,-45.109863
1769252823960,-0.93652344,-0.17578125,0.22705078,-4.8828125,14.953613,1.4648438,0.0,0.0,0.0,-35.881348,75.355225,-45.109863
1769252823972,-0.93652344,-0.17578125,0.22705078,-4.8828125,14.953613,1.4648438,0.0,0.0,0.0,-38.446655,76.239624,-47.06543
1769252824060,-0.984375,-0.13232422,0.14355469,-8.361816,18.066406,9.033203,0.0,0.0,0.0,-38.446655,76.239624,-47.06543
1769252824072,-0.984375,-0.13232422,0.14355469,-8.361816,18.066406,9.033203,0.0,0.0,0.0,-41.781006,77.6239,-49.60327
1769252824160,-0.98095703,-0.12451172,0.1274414,-3.0517578,13.671875,3.479004,0.0,0.0,0.0,-41.781006,77.6239,-49.60327
1769252824172,-0.98095703,-0.12451172,0.1274414,-3.0517578,13.671875,3.479004,0.0,0.0,0.0,-46.104126,79.211426,-53.61328
1769252824259,-0.9975586,-0.13769531,0.10253906,-4.638672,12.390137,5.6152344,0.0,0.0,0.0,-46.104126,79.211426,-53.61328
1769252824271,-0.9975586,-0.13769531,0.10253906,-4.638672,12.390137,5.6152344,0.0,0.0,0.0,-50.202026,80.24963,-57.5354
1769252824359,-0.99365234,-0.119140625,0.08886719,-2.380371,10.192871,5.004883,0.0,0.0,0.0,-50.202026,80.24963,-57.5354
1769252824370,-0.99365234,-0.119140625,0.08886719,-2.380371,10.192871,5.004883,0.0,0.0,0.0,-53.464966,81.21094,-60.50171
1769252824459,-0.97021484,-0.107421875,0.07714844,6.3476562,8.728027,1.4648438,0.0,0.0,0.0,-53.464966,81.21094,-60.50171
1769252824470,-0.97021484,-0.107421875,0.07714844,6.3476562,8.728027,1.4648438,0.0,0.0,0.0,-57.16736,81.97998,-64.57214
1769252824558,-0.9995117,-0.119140625,0.048339844,-1.5869141,7.1411133,2.0751953,0.0,0.0,0.0,-57.16736,81.97998,-64.57214
1769252824570,-0.9995117,-0.119140625,0.048339844,-1.5869141,7.1411133,2.0751953,0.0,0.0,0.0,-61.792603,82.46887,-69.86206
1769252824658,-1.0019531,-0.10595703,0.020996094,-0.48828125,3.479004,4.3945312,0.0,0.0,0.0,-61.792603,82.46887,-69.86206
1769252824670,-1.0019531,-0.10595703,0.020996094,-0.48828125,3.479004,4.3945312,0.0,0.0,0.0,-64.81384,83.05115,-72.993164
1769252824758,-0.99121094,-0.091796875,0.044921875,2.9296875,-4.3945312,4.760742,0.0,0.0,0.0,-64.81384,83.05115,-72.993164
1769252824770,-0.99121094,-0.091796875,0.044921875,2.9296875,-4.3945312,4.760742,0.0,0.0,0.0,-62.199097,83.39722,-70.773926
1769252824858,-0.99658203,-0.0859375,0.07080078,7.507324,-9.216309,1.3427734,0.0,0.0,0.0,-62.199097,83.39722,-70.773926
1769252824869,-0.99658203,-0.0859375,0.07080078,7.507324,-9.216309,1.3427734,0.0,0.0,0.0,-55.596313,83.221436,-64.764404
1769252824957,-1.0019531,-0.051757812,0.064941406,12.878418,-10.070801,2.0751953,0.0,0.0,0.0,-55.596313,83.221436,-64.764404
1769252824969,-1.0019531,-0.051757812,0.064941406,12.878418,-10.070801,2.0751953,0.0,0.0,0.0,-47.53235,82.82593,-57.299194
1769252825057,-0.95751953,-0.12060547,0.12011719,13.671875,-10.009766,-13.366699,0.0,0.0,0.0,-47.53235,82.82593,-57.299194
1769252825069,-0.95751953,-0.12060547,0.12011719,13.671875,-10.009766,-13.366699,0.0,0.0,0.0,-41.02295,81.9635,-52.009277
1769252825157,-0.9873047,-0.12011719,0.110839844,0.24414062,-15.441895,-6.7749023,0.0,0.0,0.0,-41.02295,81.9635,-52.009277
1769252825168,-0.9873047,-0.12011719,0.110839844,0.24414062,-15.441895,-6.7749023,0.0,0.0,0.0,-40.984497,80.53528,-53.129883
1769252825258,-1.0063477,-0.0703125,0.15185547,-3.1738281,-13.061523,3.540039,0.0,0.0,0.0,-40.984497,80.53528,-53.129883
1769252825268,-1.0063477,-0.0703125,0.15185547,-3.1738281,-13.061523,3.540039,0.0,0.0,0.0,-37.408447,79.3927,-49.174805
1769252825356,-0.9560547,-0.13183594,0.17529297,4.5776367,-11.779785,-4.5776367,0.0,0.0,0.0,-37.408447,79.3927,-49.174805
1769252825368,-0.9560547,-0.13183594,0.17529297,4.5776367,-11.779785,-4.5776367,0.0,0.0,0.0,-32.338257,78.54126,-43.571777
1769252825456,-0.97998047,-0.1328125,0.19970703,0.24414062,-0.91552734,-1.8920898,0.0,0.0,0.0,-32.338257,78.54126,-43.571777
1769252825467,-0.97998047,-0.1328125,0.19970703,0.24414062,-0.91552734,-1.8920898,0.0,0.0,0.0,-31.289062,77.645874,-42.4292
1769252825556,-0.984375,-0.09277344,0.17578125,2.319336,5.6152344,5.126953,0.0,0.0,0.0,-31.289062,77.645874,-42.4292
1769252825567,-0.984375,-0.09277344,0.17578125,2.319336,5.6152344,5.126953,0.0,0.0,0.0,-32.10205,77.89856,-43.099365
1769252825655,-0.96728516,-0.14111328,0.17480469,-0.36621094,-1.4038086,2.6245117,0.0,0.0,0.0,-32.10205,77.89856,-43.099365
1769252825667,-0.96728516,-0.14111328,0.17480469,-0.36621094,-1.4038086,2.6245117,0.0,0.0,0.0,-30.866089,78.24463,-41.863403
1769252825755,-0.99316406,-0.08984375,0.1850586,-12.573242,8.239746,6.0424805,0.0,0.0,0.0,-30.866089,78.24463,-41.863403
1769252825767,-0.99316406,-0.08984375,0.1850586,-12.573242,8.239746,6.0424805,0.0,0.0,0.0,-30.574951,78.87634,-40.665894
1769252825855,-0.99072266,-0.08203125,0.12158203,-1.7089844,7.8125,-6.591797,0.0,0.0,0.0,-30.574951,78.87634,-40.665894
1769252825866,-0.99072266,-0.08203125,0.12158203,-1.7089844,7.8125,-6.591797,0.0,0.0,0.0,-34.244385,79.49707,-43.33557
1769252825955,-0.99121094,-0.13720703,0.13330078,0.7324219,6.4086914,-1.0986328,0.0,0.0,0.0,-34.244385,79.49707,-43.33557
1769252825966,-0.99121094,-0.13720703,0.13330078,0.7324219,6.4086914,-1.0986328,0.0,0.0,0.0,-38.446655,79.524536,-47.609253
1769252826054,-0.9760742,-0.08886719,0.122558594,-9.216309,-5.1879883,-0.061035156,0.0,0.0,0.0,-38.446655,79.524536,-47.609253
1769252826066,-0.9760742,-0.08886719,0.122558594,-9.216309,-5.1879883,-0.061035156,0.0,0.0,0.0,-39.02893,79.68933,-47.67517
1769252826154,-0.9975586,-0.109375,0.15234375,0.48828125,-2.6245117,-1.8920898,0.0,0.0,0.0,-39.02893,79.68933,-47.67517
1769252826165,-0.9975586,-0.109375,0.15234375,0.48828125,-2.6245117,-1.8920898,0.0,0.0,0.0,-38.567505,79.20593,-46.988525
1769252826254,-0.98535156,-0.11767578,0.14941406,1.6479492,1.0986328,-1.3427734,0.0,0.0,0.0,-38.567505,79.20593,-46.988525
1769252826265,-0.98535156,-0.11767578,0.14941406,1.6479492,1.0986328,-1.3427734,0.0,0.0,0.0,-38.40271,79.10156,-46.88965
1769252826353,-0.98583984,-0.11621094,0.15283203,-0.24414062,5.9814453,-2.1972656,0.0,0.0,0.0,-38.40271,79.10156,-46.88965
1769252826365,-0.98583984,-0.11621094,0.15283203,-0.24414062,5.9814453,-2.1972656,0.0,0.0,0.0,-40.127563,79.23889,-48.62549
1769252826453,-0.97998047,-0.12011719,0.12988281,-0.9765625,7.080078,-2.5024414,0.0,0.0,0.0,-40.127563,79.23889,-48.62549
1769252826465,-0.97998047,-0.12011719,0.12988281,-0.9765625,7.080078,-2.5024414,0.0,0.0,0.0,-43.61023,79.58496,-51.932373
1769252826553,-0.9838867,-0.12402344,0.119628906,0.061035156,2.9296875,-1.8920898,0.0,0.0,0.0,-43.61023,79.58496,-51.932373
1769252826564,-0.9838867,-0.12402344,0.119628906,0.061035156,2.9296875,-1.8920898,0.0,0.0,0.0,-46.09314,79.75525,-54.162598
1769252826653,-0.9892578,-0.12890625,0.115234375,-0.61035156,2.1972656,-1.0986328,0.0,0.0,0.0,-46.09314,79.75525,-54.162598
1769252826665,-0.9892578,-0.12890625,0.115234375,-0.61035156,2.1972656,-1.0986328,0.0,0.0,0.0,-47.263184,79.78821,-54.942627
1769252826752,-0.9814453,-0.12695312,0.111816406,-0.4272461,1.2207031,-1.4038086,0.0,0.0,0.0,-47.263184,79.78821,-54.942627
1769252826764,-0.9814453,-0.12695312,0.111816406,-0.4272461,1.2207031,-1.4038086,0.0,0.0,0.0,-48.345337,79.77722,-55.71167
1769252826852,-0.9873047,-0.1381836,0.115234375,-0.24414062,0.4272461,-0.7324219,0.0,0.0,0.0,-48.345337,79.77722,-55.71167
1769252826863,-0.9873047,-0.1381836,0.115234375,-0.24414062,0.4272461,-0.7324219,0.0,0.0,0.0,-49.015503,79.75525,-56.25
1769252826952,-0.98583984,-0.13378906,0.11376953,0.0,0.7324219,-0.61035156,0.0,0.0,0.0,-49.015503,79.75525,-56.25
1769252826963,-0.98583984,-0.13378906,0.11376953,0.0,0.7324219,-0.61035156,0.0,0.0,0.0,-49.37256,79.749756,-56.486206
1769252827051,-0.9863281,-0.12988281,0.111816406,-0.30517578,1.0986328,-0.4272461,0.0,0.0,0.0,-49.37256,79.749756,-56.486206
1769252827063,-0.9863281,-0.12988281,0.111816406,-0.30517578,1.0986328,-0.4272461,0.0,0.0,0.0,-49.850464,79.76074,-56.75537
1769252827151,-0.9848633,-0.13476562,0.109375,-0.36621094,0.9765625,0.0,0.0,0.0,0.0,-49.850464,79.76074,-56.75537
1769252827163,-0.9848633,-0.13476562,0.109375,-0.36621094,0.9765625,0.0,0.0,0.0,0.0,-50.388794,79.815674,-56.640015
1769252827251,-0.9838867,-0.13476562,0.10986328,-0.12207031,0.48828125,0.12207031,0.0,0.0,0.0,-50.388794,79.815674,-56.640015
1769252827262,-0.9838867,-0.13476562,0.10986328,-0.12207031,0.48828125,0.12207031,0.0,0.0,0.0,-50.701904,79.854126,-56.45874
1769252827350,-0.98828125,-0.13232422,0.10986328,0.12207031,0.061035156,0.24414062,0.0,0.0,0.0,-50.701904,79.854126,-56.45874
1769252827362,-0.98828125,-0.13232422,0.10986328,0.12207031,0.061035156,0.24414062,0.0,0.0,0.0,-50.734863,79.887085,-56.107178
1769252827450,-0.9873047,-0.12988281,0.10449219,-0.8544922,0.061035156,0.36621094,0.0,0.0,0.0,-50.734863,79.887085,-56.107178
1769252827462,-0.9873047,-0.12988281,0.10449219,-0.8544922,0.061035156,0.36621094,0.0,0.0,0.0,-50.844727,79.91455,-55.958862
1769252827550,-0.9873047,-0.13378906,0.107910156,-0.12207031,0.5493164,0.061035156,0.0,0.0,0.0,-50.844727,79.91455,-55.958862
1769252827561,-0.9873047,-0.13378906,0.107910156,-0.12207031,0.5493164,0.061035156,0.0,0.0,0.0,-51.031494,79.94751,-55.997314
1769252827650,-0.9868164,-0.13476562,0.10839844,-0.30517578,0.7324219,-0.061035156,0.0,0.0,0.0,-51.031494,79.94751,-55.997314
1769252827661,-0.9868164,-0.13476562,0.10839844,-0.30517578,0.7324219,-0.061035156,0.0,0.0,0.0,-51.31714,79.991455,-56.101685
1769252827749,-0.98583984,-0.13330078,0.107421875,-0.24414062,0.4272461,0.18310547,0.0,0.0,0.0,-51.31714,79.991455,-56.101685
1769252827761,-0.98583984,-0.13330078,0.107421875,-0.24414062,0.4272461,0.18310547,0.0,0.0,0.0,-51.591797,80.0354,-56.20056
1769252827849,-0.9873047,-0.13085938,0.104003906,-0.12207031,0.4272461,0.18310547,0.0,0.0,0.0,-51.591797,80.0354,-56.20056
1769252827860,-0.9873047,-0.13085938,0.104003906,-0.12207031,0.4272461,0.18310547,0.0,0.0,0.0,-51.690674,80.07385,-56.206055
1769252827949,-0.9873047,-0.1303711,0.10546875,0.0,0.48828125,0.12207031,0.0,0.0,0.0,-51.690674,80.07385,-56.206055
1769252827960,-0.9873047,-0.1303711,0.10546875,0.0,0.48828125,0.12207031,0.0,0.0,0.0,-51.76758,80.1178,-56.25
1769252828049,-0.98583984,-0.1328125,0.103027344,-0.4272461,1.3427734,0.24414062,0.0,0.0,0.0,-51.76758,80.1178,-56.25
1769252828060,-0.98583984,-0.1328125,0.103027344,-0.4272461,1.3427734,0.24414062,0.0,0.0,0.0,-52.06421,80.17822,-56.277466
1769252828148,-0.9892578,-0.12988281,0.10058594,-0.061035156,0.30517578,-0.12207031,0.0,0.0,0.0,-52.06421,80.17822,-56.277466
1769252828160,-0.9892578,-0.12988281,0.10058594,-0.061035156,0.30517578,-0.12207031,0.0,0.0,0.0,-52.34436,80.22217,-56.26648
1769252828248,-0.98535156,-0.12841797,0.10253906,-0.24414062,0.5493164,-0.36621094,0.0,0.0,0.0,-52.34436,80.22217,-56.26648
1769252828259,-0.98535156,-0.12841797,0.10253906,-0.24414062,0.5493164,-0.36621094,0.0,0.0,0.0,-52.547607,80.22217,-56.348877
1769252828348,-0.98828125,-0.13378906,0.10205078,-0.48828125,0.7324219,-0.7324219,0.0,0.0,0.0,-52.547607,80.22217,-56.348877
1769252828359,-0.98828125,-0.13378906,0.10205078,-0.48828125,0.7324219,-0.7324219,0.0,0.0,0.0,-52.94861,80.20569,-56.678467
1769252828447,-0.9873047,-0.13232422,0.09863281,-0.24414062,0.79345703,-0.48828125,0.0,0.0,0.0,-52.94861,80.20569,-56.678467
1769252828459,-0.9873047,-0.13232422,0.09863281,-0.24414062,0.79345703,-0.48828125,0.0,0.0,0.0,-53.442993,80.21118,-57.227783
1769252828547,-0.98779297,-0.1328125,0.09863281,-0.24414062,0.48828125,-0.30517578,0.0,0.0,0.0,-53.442993,80.21118,-57.227783
1769252828559,-0.98779297,-0.1328125,0.09863281,-0.24414062,0.48828125,-0.30517578,0.0,0.0,0.0,-53.789062,80.20569,-57.71118
1769252828647,-0.98535156,-0.1328125,0.095214844,-0.5493164,0.24414062,0.6713867,0.0,0.0,0.0,-53.789062,80.20569,-57.71118
1769252828658,-0.98535156,-0.1328125,0.095214844,-0.5493164,0.24414062,0.6713867,0.0,0.0,0.0,-54.03076,80.26062,-58.051758
1769252828747,-0.98828125,-0.13183594,0.09814453,0.0,0.5493164,0.8544922,0.0,0.0,0.0,-54.03076,80.26062,-58.051758
1769252828759,-0.98828125,-0.13183594,0.09814453,0.0,0.5493164,0.8544922,0.0,0.0,0.0,-53.90442,80.337524,-57.91443
1769252828846,-0.99316406,-0.12695312,0.09277344,0.24414062,-0.18310547,0.30517578,0.0,0.0,0.0,-53.90442,80.337524,-57.91443
1769252828858,-0.99316406,-0.12695312,0.09277344,0.24414062,-0.18310547,0.30517578,0.0,0.0,0.0,-53.75061,80.39795,-57.74414
1769252828946,-0.9892578,-0.13623047,0.09326172,0.9765625,-0.79345703,-0.48828125,0.0,0.0,0.0,-53.75061,80.39795,-57.74414
1769252828957,-0.9892578,-0.13623047,0.09326172,0.9765625,-0.79345703,-0.48828125,0.0,0.0,0.0,-53.448486,80.34851,-57.5354
1769252829046,-0.98535156,-0.12695312,0.09814453,0.7324219,-1.2207031,0.0,0.0,0.0,0.0,-53.448486,80.34851,-57.5354
1769252829058,-0.98535156,-0.12695312,0.09814453,0.7324219,-1.2207031,0.0,0.0,0.0,0.0,-53.009033,80.23865,-57.18933
1769252829146,-0.9868164,-0.13964844,0.10253906,1.8310547,-1.3427734,0.30517578,0.0,0.0,0.0,-53.009033,80.23865,-57.18933
1769252829158,-0.9868164,-0.13964844,0.10253906,1.8310547,-1.3427734,0.30517578,0.0,0.0,0.0,-52.179565,80.21118,-56.51367
1769252829245,-0.9819336,-0.1303711,0.107421875,0.91552734,-0.6713867,0.9765625,0.0,0.0,0.0,-52.179565,80.21118,-56.51367
1769252829257,-0.9819336,-0.1303711,0.107421875,0.91552734,-0.6713867,0.9765625,0.0,0.0,0.0,-51.13037,80.15076,-55.722656
1769252829345,-0.99121094,-0.13232422,0.12646484,2.1972656,-1.0375977,1.2817383,0.0,0.0,0.0,-51.13037,80.15076,-55.722656
1769252829356,-0.99121094,-0.13232422,0.12646484,2.1972656,-1.0375977,1.2817383,0.0,0.0,0.0,-50.438232,80.22766,-55.283203
1769252829445,-0.9716797,-0.115234375,0.107910156,-0.91552734,0.6713867,2.2583008,0.0,0.0,0.0,-50.438232,80.22766,-55.283203
1769252829456,-0.9716797,-0.115234375,0.107910156,-0.91552734,0.6713867,2.2583008,0.0,0.0,0.0,-49.02649,80.39795,-54.00879
1769252829544,-0.9921875,-0.118652344,0.10107422,-0.30517578,-0.18310547,0.79345703,0.0,0.0,0.0,-49.02649,80.39795,-54.00879
1769252829556,-0.9921875,-0.118652344,0.10107422,-0.30517578,-0.18310547,0.79345703,0.0,0.0,0.0,-48.90564,80.496826,-54.041748
1769252829644,-0.98779297,-0.1171875,0.106933594,-0.18310547,0.5493164,0.48828125,0.0,0.0,0.0,-48.90564,80.496826,-54.041748
1769252829656,-0.98779297,-0.1171875,0.106933594,-0.18310547,0.5493164,0.48828125,0.0,0.0,0.0,-48.68042,80.57922,-53.805542
1769252829744,-0.9921875,-0.119628906,0.110839844,0.0,1.0375977,0.36621094,0.0,0.0,0.0,-48.68042,80.57922,-53.805542
1769252829755,-0.9921875,-0.119628906,0.110839844,0.0,1.0375977,0.36621094,0.0,0.0,0.0,-48.828735,80.65613,-53.898926
1769252829843,-0.9892578,-0.11230469,0.10058594,0.0,2.319336,-0.36621094,0.0,0.0,0.0,-48.828735,80.65613,-53.898926
1769252829855,-0.9892578,-0.11230469,0.10058594,0.0,2.319336,-0.36621094,0.0,0.0,0.0,-49.361572,80.76599,-54.3219
1769252829943,-0.9848633,-0.118652344,0.103027344,-0.24414062,1.2817383,0.12207031,0.0,0.0,0.0,-49.361572,80.76599,-54.3219
1769252829956,-0.9848633,-0.118652344,0.103027344,-0.24414062,1.2817383,0.12207031,0.0,0.0,0.0,-50.03723,80.88684,-54.986572
1769252830043,-0.9921875,-0.11328125,0.095214844,-0.4272461,1.7089844,0.24414062,0.0,0.0,0.0,-50.03723,80.88684,-54.986572
1769252830055,-0.9921875,-0.11328125,0.095214844,-0.4272461,1.7089844,0.24414062,0.0,0.0,0.0,-50.4657,80.95276,-55.46997
1769252830142,-0.9975586,-0.11425781,0.091796875,-0.8544922,-2.5024414,1.4038086,0.0,0.0,0.0,-50.4657,80.95276,-55.46997
1769252830154,-0.9975586,-0.11425781,0.091796875,-0.8544922,-2.5024414,1.4038086,0.0,0.0,0.0,-50.218506,81.00769,-55.31067
1769252830242,-0.9873047,-0.11376953,0.1015625,-0.24414062,-1.7089844,0.48828125,0.0,0.0,0.0,-50.218506,81.00769,-55.31067
1769252830254,-0.9873047,-0.11376953,0.1015625,-0.24414062,-1.7089844,0.48828125,0.0,0.0,0.0,-49.037476,80.93628,-54.085693
1769252830342,-0.9916992,-0.111816406,0.103027344,-0.36621094,-0.5493164,0.7324219,0.0,0.0,0.0,-49.037476,80.93628,-54.085693
1769252830354,-0.9916992,-0.111816406,0.103027344,-0.36621094,-0.5493164,0.7324219,0.0,0.0,0.0,-48.257446,80.90332,-53.272705
1769252830441,-0.9848633,-0.10839844,0.11035156,0.18310547,-0.12207031,0.24414062,0.0,0.0,0.0,-48.257446,80.90332,-53.272705
1769252830453,-0.9848633,-0.10839844,0.11035156,0.18310547,-0.12207031,0.24414062,0.0,0.0,0.0,-47.76306,80.90881,-52.82776
1769252830541,-0.98876953,-0.109375,0.107421875,-0.24414062,0.4272461,0.4272461,0.0,0.0,0.0,-47.76306,80.90881,-52.82776
1769252830553,-0.98876953,-0.109375,0.107421875,-0.24414062,0.4272461,0.4272461,0.0,0.0,0.0,-47.6532,80.95276,-52.717896
1769252830641,-0.9970703,-0.111816406,0.103027344,0.5493164,-0.18310547,0.91552734,0.0,0.0,0.0,-47.6532,80.95276,-52.717896
1769252830653,-0.9970703,-0.111816406,0.103027344,0.5493164,-0.18310547,0.91552734,0.0,0.0,0.0,-47.609253,81.02966,-52.789307
1769252830741,-0.9707031,-0.099609375,0.11376953,0.12207031,-0.79345703,0.30517578,0.0,0.0,0.0,-47.609253,81.02966,-52.789307
1769252830752,-0.9707031,-0.099609375,0.11376953,0.12207031,-0.79345703,0.30517578,0.0,0.0,0.0,-46.917114,81.04065,-52.34436
1769252830840,-0.99121094,-0.11035156,0.10498047,-0.24414062,-0.61035156,0.9765625,0.0,0.0,0.0,-46.917114,81.04065,-52.34436
1769252830852,-0.99121094,-0.11035156,0.10498047,-0.24414062,-0.61035156,0.9765625,0.0,0.0,0.0,-46.499634,81.04614,-52.06421
1769252830940,-0.98583984,-0.10449219,0.106933594,0.4272461,-1.4038086,1.0375977,0.0,0.0,0.0,-46.499634,81.04614,-52.06421
1769252830952,-0.98583984,-0.10449219,0.106933594,0.4272461,-1.4038086,1.0375977,0.0,0.0,0.0,-45.532837,81.04614,-51.223755
1769252831040,-0.9897461,-0.10595703,0.11376953,1.0986328,-2.0141602,0.4272461,0.0,0.0,0.0,-45.532837,81.04614,-51.223755
1769252831051,-0.9897461,-0.10595703,0.11376953,1.0986328,-2.0141602,0.4272461,0.0,0.0,0.0,-44.230957,81.02966,-50.08667
1769252831139,-0.98876953,-0.10205078,0.111816406,0.061035156,-3.7841797,2.6855469,0.0,0.0,0.0,-44.230957,81.02966,-50.08667
1769252831152,-0.98876953,-0.10205078,0.111816406,0.061035156,-3.7841797,2.6855469,0.0,0.0,0.0,-42.176514,80.9198,-48.15857
1769252831240,-0.9916992,-0.09765625,0.13085938,-0.12207031,-4.0283203,4.0283203,0.0,0.0,0.0,-42.176514,80.9198,-48.15857
1769252831251,-0.9916992,-0.09765625,0.13085938,-0.12207031,-4.0283203,4.0283203,0.0,0.0,0.0,-38.649902,80.859375,-44.664917
1769252831340,-0.98876953,-0.091796875,0.12646484,-2.0751953,-3.3569336,10.070801,0.0,0.0,0.0,-38.649902,80.859375,-44.664917
1769252831351,-0.98876953,-0.091796875,0.12646484,-2.0751953,-3.3569336,10.070801,0.0,0.0,0.0,-33.59619,81.02417,-39.468384
1769252831439,-1.0063477,-0.06201172,0.13574219,-1.4038086,-10.559082,4.0893555,0.0,0.0,0.0,-33.59619,81.02417,-39.468384
1769252831450,-1.0063477,-0.06201172,0.13574219,-1.4038086,-10.559082,4.0893555,0.0,0.0,0.0,-27.37793,80.74402,-32.947998
1769252831538,-0.9848633,-0.052246094,0.15673828,0.30517578,-4.1503906,4.5776367,0.0,0.0,0.0,-27.37793,80.74402,-32.947998
1769252831550,-0.9848633,-0.052246094,0.15673828,0.30517578,-4.1503906,4.5776367,0.0,0.0,0.0,-23.444824,80.200195,-28.806152
1769252831638,-1.0224609,-0.09033203,0.122558594,-6.7749023,-18.432617,11.779785,0.0,0.0,0.0,-23.444824,80.200195,-28.806152
1769252831649,-1.0224609,-0.09033203,0.122558594,-6.7749023,-18.432617,11.779785,0.0,0.0,0.0,-17.737427,79.75525,-22.582397
1769252831738,-1.0708008,-0.04638672,0.10205078,-3.2958984,-39.0625,24.597168,0.0,0.0,0.0,-17.737427,79.75525,-22.582397
1769252831749,-1.0708008,-0.04638672,0.10205078,-3.2958984,-39.0625,24.597168,0.0,0.0,0.0,-5.0811768,76.96472,-9.51416
1769252831838,-0.90478516,0.0234375,0.26757812,29.724121,-15.075684,10.925293,0.0,0.0,0.0,-5.0811768,76.96472,-9.51416
1769252831849,-0.90478516,0.0234375,0.26757812,29.724121,-15.075684,10.925293,0.0,0.0,0.0,4.246216,75.26184,-1.4556885
1769252831937,-0.93408203,0.03466797,0.32617188,-3.479004,-20.568848,12.634277,0.0,0.0,0.0,4.246216,75.26184,-1.4556885
1769252831949,-0.93408203,0.03466797,0.32617188,-3.479004,-20.568848,12.634277,0.0,0.0,0.0,0.10986328,73.91052,-7.102661
1769252832037,-0.9248047,0.063964844,0.37402344,-15.441895,-8.300781,26.794434,0.0,0.0,0.0,0.10986328,73.91052,-7.102661
1769252832049,-0.9248047,0.063964844,0.37402344,-15.441895,-8.300781,26.794434,0.0,0.0,0.0,5.894165,72.71301,0.78552246
1769252832137,-0.93408203,0.07519531,0.34814453,-20.202637,-13.61084,26.000977,0.0,0.0,0.0,5.894165,72.71301,0.78552246
1769252832149,-0.93408203,0.07519531,0.34814453,-20.202637,-13.61084,26.000977,0.0,0.0,0.0,11.513672,70.98816,8.898926
1769252832236,-0.9135742,0.057617188,0.33789062,-8.544922,4.4555664,13.000488,0.0,0.0,0.0,11.513672,70.98816,8.898926
1769252832248,-0.9135742,0.057617188,0.33789062,-8.544922,4.4555664,13.000488,0.0,0.0,0.0,14.760132,70.30151,13.842773
1769252832336,-0.9223633,0.18115234,0.39990234,17.944336,6.225586,5.004883,0.0,0.0,0.0,14.760132,70.30151,13.842773
1769252832347,-0.9223633,0.18115234,0.39990234,17.944336,6.225586,5.004883,0.0,0.0,0.0,17.248535,70.19714,15.803833
1769252832436,-0.953125,0.057128906,0.35351562,7.385254,10.192871,3.2958984,0.0,0.0,0.0,17.248535,70.19714,15.803833
1769252832447,-0.953125,0.057128906,0.35351562,7.385254,10.192871,3.2958984,0.0,0.0,0.0,19.13269,70.81787,16.386108
1769252832536,-0.93408203,0.111816406,0.27246094,-19.104004,-2.380371,12.023926,0.0,0.0,0.0,19.13269,70.81787,16.386108
1769252832547,-0.93408203,0.111816406,0.27246094,-19.104004,-2.380371,12.023926,0.0,0.0,0.0,20.90149,70.24109,19.70398
1769252832635,-0.9453125,0.15576172,0.31591797,4.0893555,11.413574,-0.79345703,0.0,0.0,0.0,20.90149,70.24109,19.70398
1769252832647,-0.9453125,0.15576172,0.31591797,4.0893555,11.413574,-0.79345703,0.0,0.0,0.0,22.15393,70.90027,20.978394
1769252832735,-0.93652344,0.14355469,0.2998047,-2.0751953,7.446289,2.4414062,0.0,0.0,0.0,22.15393,70.90027,20.978394
1769252832746,-0.93652344,0.14355469,0.2998047,-2.0751953,7.446289,2.4414062,0.0,0.0,0.0,23.582153,71.416626,22.549438
1769252832835,-0.9472656,0.13574219,0.28564453,3.7841797,4.211426,1.0375977,0.0,0.0,0.0,23.582153,71.416626,22.549438
1769252832846,-0.9472656,0.13574219,0.28564453,3.7841797,4.211426,1.0375977,0.0,0.0,0.0,25.180664,71.97693,24.109497
1769252832935,-0.9819336,0.14111328,0.25927734,3.6010742,1.7700195,0.18310547,0.0,0.0,0.0,25.180664,71.97693,24.109497
1769252832946,-0.9819336,0.14111328,0.25927734,3.6010742,1.7700195,0.18310547,0.0,0.0,0.0,25.751953,71.900024,24.400635
1769252833034,-0.9375,0.14453125,0.28564453,1.3427734,1.4648438,-0.79345703,0.0,0.0,0.0,25.751953,71.900024,24.400635
1769252833045,-0.9375,0.14453125,0.28564453,1.3427734,1.4648438,-0.79345703,0.0,0.0,0.0,26.306763,72.301025,24.510498
1769252833134,-0.94873047,0.13720703,0.26904297,2.5634766,1.7089844,-1.7700195,0.0,0.0,0.0,26.306763,72.301025,24.510498
1769252833145,-0.94873047,0.13720703,0.26904297,2.5634766,1.7089844,-1.7700195,0.0,0.0,0.0,26.433105,72.37244,24.521484
1769252833234,-0.95996094,0.13232422,0.27246094,0.79345703,-0.79345703,-1.8920898,0.0,0.0,0.0,26.433105,72.37244,24.521484
1769252833245,-0.95996094,0.13232422,0.27246094,0.79345703,-0.79345703,-1.8920898,0.0,0.0,0.0,26.1969,72.48779,24.087524
1769252833333,-0.94921875,0.13476562,0.2680664,0.6713867,0.48828125,-2.0141602,0.0,0.0,0.0,26.1969,72.48779,24.087524
1769252833345,-0.94921875,0.13476562,0.2680664,0.6713867,0.48828125,-2.0141602,0.0,0.0,0.0,25.691528,72.614136,23.356934
1769252833433,-0.95703125,0.12207031,0.27001953,2.0141602,-0.91552734,-1.953125,0.0,0.0,0.0,25.691528,72.614136,23.356934
1769252833445,-0.95703125,0.12207031,0.27001953,2.0141602,-0.91552734,-1.953125,0.0,0.0,0.0,25.372925,72.630615,22.840576
1769252833533,-0.94628906,0.12792969,0.28125,0.18310547,0.79345703,-1.2817383,0.0,0.0,0.0,25.372925,72.630615,22.840576
1769252833544,-0.94628906,0.12792969,0.28125,0.18310547,0.79345703,-1.2817383,0.0,0.0,0.0,24.906006,72.67456,22.18689
1769252833632,-0.95996094,0.12060547,0.27246094,1.7089844,2.0751953,-0.30517578,0.0,0.0,0.0,24.906006,72.67456,22.18689
1769252833644,-0.95996094,0.12060547,0.27246094,1.7089844,2.0751953,-0.30517578,0.0,0.0,0.0,24.89502,72.74597,22.137451
1769252833732,-0.9580078,0.118652344,0.2734375,-0.4272461,2.8076172,0.0,0.0,0.0,0.0,24.89502,72.74597,22.137451
1769252833744,-0.9580078,0.118652344,0.2734375,-0.4272461,2.8076172,0.0,0.0,0.0,0.0,25.3125,72.93274,22.565918
1769252833832,-0.9555664,0.12988281,0.2685547,0.61035156,5.1879883,0.4272461,0.0,0.0,0.0,25.3125,72.93274,22.565918
1769252833843,-0.9555664,0.12988281,0.2685547,0.61035156,5.1879883,0.4272461,0.0,0.0,0.0,25.894775,73.22937,23.241577
1769252833932,-0.9584961,0.12792969,0.26513672,2.380371,6.5307617,0.18310547,0.0,0.0,0.0,25.894775,73.22937,23.241577
1769252833943,-0.9584961,0.12792969,0.26513672,2.380371,6.5307617,0.18310547,0.0,0.0,0.0,26.998901,73.6853,24.35669
1769252834031,-0.9682617,0.12890625,0.24072266,3.7231445,8.300781,0.0,0.0,0.0,0.0,26.998901,73.6853,24.35669
1769252834043,-0.9682617,0.12890625,0.24072266,3.7231445,8.300781,0.0,0.0,0.0,0.0,28.465576,74.22363,25.631104
1769252834131,-0.97021484,0.12792969,0.2265625,3.2348633,9.643555,1.0986328,0.0,0.0,0.0,28.465576,74.22363,25.631104
1769252834143,-0.97021484,0.12792969,0.2265625,3.2348633,9.643555,1.0986328,0.0,0.0,0.0,30.541992,74.95422,27.350464
1769252834231,-0.9667969,0.12988281,0.20654297,4.0283203,7.9956055,1.5869141,0.0,0.0,0.0,30.541992,74.95422,27.350464
1769252834242,-0.9667969,0.12988281,0.20654297,4.0283203,7.9956055,1.5869141,0.0,0.0,0.0,33.05786,75.651855,29.641113
1769252834330,-0.9819336,0.13867188,0.17138672,2.8076172,7.5683594,4.0283203,0.0,0.0,0.0,33.05786,75.651855,29.641113
1769252834342,-0.9819336,0.13867188,0.17138672,2.8076172,7.5683594,4.0283203,0.0,0.0,0.0,35.700073,76.102295,32.01416
1769252834430,-0.9580078,0.15966797,0.17382812,7.446289,3.9672852,2.6855469,0.0,0.0,0.0,35.700073,76.102295,32.01416
1769252834442,-0.9580078,0.15966797,0.17382812,7.446289,3.9672852,2.6855469,0.0,0.0,0.0,39.02893,76.43738,35.00244
1769252834530,-0.98291016,0.15136719,0.16259766,15.136719,3.6621094,0.0,0.0,0.0,0.0,39.02893,76.43738,35.00244
1769252834542,-0.98291016,0.15136719,0.16259766,15.136719,3.6621094,0.0,0.0,0.0,0.0,41.36902,76.607666,36.21643
1769252834630,-0.9770508,0.16845703,0.17285156,11.535645,1.0986328,-0.91552734,0.0,0.0,0.0,41.36902,76.607666,36.21643
1769252834641,-0.9770508,0.16845703,0.17285156,11.535645,1.0986328,-0.91552734,0.0,0.0,0.0,43.36853,76.849365,36.99646
1769252834729,-0.9716797,0.1875,0.15576172,16.418457,2.5024414,-2.5024414,0.0,0.0,0.0,43.36853,76.849365,36.99646
1769252834741,-0.9716797,0.1875,0.15576172,16.418457,2.5024414,-2.5024414,0.0,0.0,0.0,45.10437,77.058105,37.51831
1769252834829,-0.9941406,0.12988281,0.15966797,9.94873,5.7373047,-5.79834,0.0,0.0,0.0,45.10437,77.058105,37.51831
1769252834841,-0.9941406,0.12988281,0.15966797,9.94873,5.7373047,-5.79834,0.0,0.0,0.0,46.175537,77.59094,37.573242
1769252834929,-0.9838867,0.1381836,0.14648438,-10.864258,4.9438477,-1.953125,0.0,0.0,0.0,46.175537,77.59094,37.573242
1769252834940,-0.9838867,0.1381836,0.14648438,-10.864258,4.9438477,-1.953125,0.0,0.0,0.0,46.23047,78.184204,38.17749
1769252835028,-0.97802734,0.1430664,0.14013672,-9.70459,4.9438477,-3.540039,0.0,0.0,0.0,46.23047,78.184204,38.17749
1769252835040,-0.97802734,0.1430664,0.14013672,-9.70459,4.9438477,-3.540039,0.0,0.0,0.0,46.0437,78.74451,39.34204
1769252835128,-0.9707031,0.140625,0.12548828,-3.7841797,3.540039,-3.2348633,0.0,0.0,0.0,46.0437,78.74451,39.34204
1769252835140,-0.9707031,0.140625,0.12548828,-3.7841797,3.540039,-3.2348633,0.0,0.0,0.0,45.70862,79.23889,39.819946
1769252835228,-0.96972656,0.125,0.12646484,0.0,0.0,-3.479004,0.0,0.0,0.0,45.70862,79.23889,39.819946
1769252835240,-0.96972656,0.125,0.12646484,0.0,0.0,-3.479004,0.0,0.0,0.0,45.038452,79.58496,39.468384
1769252835328,-1.0175781,0.13916016,0.099609375,-0.12207031,-0.48828125,-1.6479492,0.0,0.0,0.0,45.038452,79.58496,39.468384
1769252835339,-1.0175781,0.13916016,0.099609375,-0.12207031,-0.48828125,-1.6479492,0.0,0.0,0.0,43.395996,79.645386,38.012695
1769252835427,-0.9692383,0.10205078,0.14453125,4.760742,-0.7324219,-4.8828125,0.0,0.0,0.0,43.395996,79.645386,38.012695
1769252835439,-0.9692383,0.10205078,0.14453125,4.760742,-0.7324219,-4.8828125,0.0,0.0,0.0,42.786255,79.958496,37.023926
1769252835527,-0.98535156,0.091308594,0.13134766,-3.1738281,-1.5869141,-2.380371,0.0,0.0,0.0,42.786255,79.958496,37.023926
1769252835539,-0.98535156,0.091308594,0.13134766,-3.1738281,-1.5869141,-2.380371,0.0,0.0,0.0,40.69336,80.079346,35.06836
1769252835627,-1.0004883,0.11816406,0.11669922,-1.8920898,-0.61035156,-0.8544922,0.0,0.0,0.0,40.69336,80.079346,35.06836
1769252835638,-1.0004883,0.11816406,0.11669922,-1.8920898,-0.61035156,-0.8544922,0.0,0.0,0.0,39.07837,80.06836,33.876343
1769252835727,-0.98339844,0.099121094,0.13720703,0.91552734,1.4038086,-0.12207031,0.0,0.0,0.0,39.07837,80.06836,33.876343
1769252835740,-0.98339844,0.099121094,0.13720703,0.91552734,1.4038086,-0.12207031,0.0,0.0,0.0,39.23767,80.183716,34.035645
1769252835826,-0.98876953,0.10546875,0.1303711,-0.9765625,3.1738281,1.3427734,0.0,0.0,0.0,39.23767,80.183716,34.035645
1769252835838,-0.98876953,0.10546875,0.1303711,-0.9765625,3.1738281,1.3427734,0.0,0.0,0.0,40.358276,80.304565,35.359497
1769252835926,-0.9980469,0.11767578,0.11035156,2.5024414,2.9296875,0.18310547,0.0,0.0,0.0,40.358276,80.304565,35.359497
1769252835938,-0.9980469,0.11767578,0.11035156,2.5024414,2.9296875,0.18310547,0.0,0.0,0.0,41.92383,80.513306,36.968994
1769252836026,-0.98779297,0.09765625,0.10839844,2.9296875,3.8452148,-0.30517578,0.0,0.0,0.0,41.92383,80.513306,36.968994
1769252836037,-0.98779297,0.09765625,0.10839844,2.9296875,3.8452148,-0.30517578,0.0,0.0,0.0,43.758545,80.78247,38.529053
1769252836125,-0.984375,0.10839844,0.11230469,-3.3569336,-1.5869141,2.4414062,0.0,0.0,0.0,43.758545,80.78247,38.529053
1769252836137,-0.984375,0.10839844,0.11230469,-3.3569336,-1.5869141,2.4414062,0.0,0.0,0.0,44.73633,80.826416,39.63867
1769252836225,-0.9814453,0.11425781,0.118652344,-2.746582,-3.6010742,2.1972656,0.0,0.0,0.0,44.73633,80.826416,39.63867
1769252836237,-0.9814453,0.11425781,0.118652344,-2.746582,-3.6010742,2.1972656,0.0,0.0,0.0,44.21997,80.45288,39.622192
1769252836325,-1.0073242,0.115234375,0.119628906,-2.1362305,0.0,0.8544922,0.0,0.0,0.0,44.21997,80.45288,39.622192
1769252836337,-1.0073242,0.115234375,0.119628906,-2.1362305,0.0,0.8544922,0.0,0.0,0.0,43.775024,80.27161,39.402466
1769252836425,-0.99316406,0.13378906,0.1430664,-7.2631836,-2.1362305,3.6010742,0.0,0.0,0.0,43.775024,80.27161,39.402466
1769252836436,-0.99316406,0.13378906,0.1430664,-7.2631836,-2.1362305,3.6010742,0.0,0.0,0.0,44.208984,80.12329,40.440674
1769252836524,-0.9716797,0.1430664,0.10205078,-5.065918,-2.9907227,3.6010742,0.0,0.0,0.0,44.208984,80.12329,40.440674
1769252836536,-0.9716797,0.1430664,0.10205078,-5.065918,-2.9907227,3.6010742,0.0,0.0,0.0,44.154053,79.782715,40.98999
1769252836624,-0.9707031,0.104003906,0.14208984,4.760742,3.4179688,-6.958008,0.0,0.0,0.0,44.154053,79.782715,40.98999
1769252836636,-0.9707031,0.104003906,0.14208984,4.760742,3.4179688,-6.958008,0.0,0.0,0.0,42.615967,80.04639,39.281616
1769252836724,-0.9760742,0.1538086,0.10595703,0.7324219,-0.9765625,0.79345703,0.0,0.0,0.0,42.615967,80.04639,39.281616
1769252836735,-0.9760742,0.1538086,0.10595703,0.7324219,-0.9765625,0.79345703,0.0,0.0,0.0,41.396484,79.88159,38.57849
1769252836823,-1.0019531,0.103027344,0.1484375,8.7890625,-5.554199,-2.746582,0.0,0.0,0.0,41.396484,79.88159,38.57849
1769252836835,-1.0019531,0.103027344,0.1484375,8.7890625,-5.554199,-2.746582,0.0,0.0,0.0,40.803223,79.82666,37.144775
1769252836923,-1.019043,0.08935547,0.140625,0.0,-3.6621094,-2.380371,0.0,0.0,0.0,40.803223,79.82666,37.144775
1769252836935,-1.019043,0.08935547,0.140625,0.0,-3.6621094,-2.380371,0.0,0.0,0.0,38.078613,79.73328,33.997192
1769252837023,-0.97558594,0.1459961,0.14746094,-0.91552734,-5.126953,0.4272461,0.0,0.0,0.0,38.078613,79.73328,33.997192
1769252837034,-0.97558594,0.1459961,0.14746094,-0.91552734,-5.126953,0.4272461,0.0,0.0,0.0,36.930542,79.315796,33.068848
1769252837123,-0.96728516,0.029785156,0.1640625,-7.446289,-0.061035156,-10.192871,0.0,0.0,0.0,36.930542,79.315796,33.068848
1769252837134,-0.96728516,0.029785156,0.1640625,-7.446289,-0.061035156,-10.192871,0.0,0.0,0.0,33.656616,79.39819,30.003662
1769252837222,-0.96240234,0.08105469,0.18164062,-22.460938,-6.3476562,-10.925293,0.0,0.0,0.0,33.656616,79.39819,30.003662
1769252837234,-0.96240234,0.08105469,0.18164062,-22.460938,-6.3476562,-10.925293,0.0,0.0,0.0,26.5979,79.694824,24.735718
1769252837322,-1.0068359,0.10644531,0.16064453,1.5869141,-2.1972656,-15.686035,0.0,0.0,0.0,26.5979,79.694824,24.735718
1769252837333,-1.0068359,0.10644531,0.16064453,1.5869141,-2.1972656,-15.686035,0.0,0.0,0.0,18.303223,79.70032,17.330933
1769252837422,-0.98828125,-0.0029296875,0.1743164,6.286621,-1.0986328,-10.192871,0.0,0.0,0.0,18.303223,79.70032,17.330933
1769252837433,-0.98828125,-0.0029296875,0.1743164,6.286621,-1.0986328,-10.192871,0.0,0.0,0.0,11.887207,79.83765,9.865723
1769252837522,-0.9863281,-0.034179688,0.18261719,-1.8310547,-0.7324219,-2.0141602,0.0,0.0,0.0,11.887207,79.83765,9.865723
1769252837533,-0.9863281,-0.034179688,0.18261719,-1.8310547,-0.7324219,-2.0141602,0.0,0.0,0.0,8.1188965,79.70032,5.861206
1769252837621,-0.9008789,-0.0126953125,0.18017578,-4.5166016,8.483887,-4.211426,0.0,0.0,0.0,8.1188965,79.70032,5.861206
1769252837633,-0.9008789,-0.0126953125,0.18017578,-4.5166016,8.483887,-4.211426,0.0,0.0,0.0,6.723633,80.024414,4.822998
1769252837721,-1.034668,0.061523438,0.12695312,9.94873,5.79834,-1.7089844,0.0,0.0,0.0,6.723633,80.024414,4.822998
1769252837732,-1.034668,0.061523438,0.12695312,9.94873,5.79834,-1.7089844,0.0,0.0,0.0,4.7625732,80.408936,2.9608154
1769252837820,-1.0024414,-0.060058594,0.1586914,-1.0986328,14.526367,0.36621094,0.0,0.0,0.0,4.7625732,80.408936,2.9608154
1769252837832,-1.0024414,-0.060058594,0.1586914,-1.0986328,14.526367,0.36621094,0.0,0.0,0.0,3.5101318,81.91406,1.071167
1769252837920,-0.97998047,-0.033691406,0.111328125,-27.160645,12.573242,3.1738281,0.0,0.0,0.0,3.5101318,81.91406,1.071167
1769252837932,-0.97998047,-0.033691406,0.111328125,-27.160645,12.573242,3.1738281,0.0,0.0,0.0,3.5650635,82.84241,3.1530762
1769252838020,-0.99121094,0.015136719,0.0703125,-13.549805,10.070801,2.8076172,0.0,0.0,0.0,3.5650635,82.84241,3.1530762
1769252838032,-0.99121094,0.015136719,0.0703125,-13.549805,10.070801,2.8076172,0.0,0.0,0.0,4.1693115,83.974,5.9820557
1769252838120,-0.99853516,0.015136719,0.07080078,7.6293945,12.573242,-3.2348633,0.0,0.0,0.0,4.1693115,83.974,5.9820557
1769252838132,-0.99853516,0.015136719,0.07080078,7.6293945,12.573242,-3.2348633,0.0,0.0,0.0,3.9660645,85.182495,5.6359863
1769252838220,-1.0068359,0.021484375,0.052246094,6.8359375,9.033203,-2.9907227,0.0,0.0,0.0,3.9660645,85.182495,5.6359863
1769252838231,-1.0068359,0.021484375,0.052246094,6.8359375,9.033203,-2.9907227,0.0,0.0,0.0,2.1643066,86.28662,2.878418
1769252838319,-1.0131836,-0.017578125,0.045898438,-0.61035156,2.2583008,-4.1503906,0.0,0.0,0.0,2.1643066,86.28662,2.878418
1769252838331,-1.0131836,-0.017578125,0.045898438,-0.61035156,2.2583008,-4.1503906,0.0,0.0,0.0,-4.4055176,86.830444,-4.345093
1769252838419,-0.98828125,0.0,0.03515625,-1.159668,0.91552734,-3.7231445,0.0,0.0,0.0,-4.4055176,86.830444,-4.345093
1769252838430,-0.98828125,0.0,0.03515625,-1.159668,0.91552734,-3.7231445,0.0,0.0,0.0,-12.86499,86.918335,-12.645264
1769252838519,-0.9819336,-0.01953125,0.057128906,15.930176,3.1738281,-6.3476562,0.0,0.0,0.0,-12.86499,86.918335,-12.645264
1769252838530,-0.9819336,-0.01953125,0.057128906,15.930176,3.1738281,-6.3476562,0.0,0.0,0.0,-23.005371,86.90735,-23.779907
1769252838618,-0.9975586,-0.033691406,0.048339844,15.74707,3.2958984,-6.713867,0.0,0.0,0.0,-23.005371,86.90735,-23.779907
1769252838630,-0.9975586,-0.033691406,0.048339844,15.74707,3.2958984,-6.713867,0.0,0.0,0.0,-32.91504,86.813965,-35.255127
1769252838718,-1.0048828,-0.04638672,0.026855469,9.70459,3.479004,-3.479004,0.0,0.0,0.0,-32.91504,86.813965,-35.255127
1769252838729,-1.0048828,-0.04638672,0.026855469,9.70459,3.479004,-3.479004,0.0,0.0,0.0,-43.060913,86.693115,-46.658936
1769252838818,-0.9995117,-0.068359375,0.013183594,6.164551,2.380371,1.6479492,0.0,0.0,0.0,-43.060913,86.693115,-46.658936
1769252838829,-0.9995117,-0.068359375,0.013183594,6.164551,2.380371,1.6479492,0.0,0.0,0.0,-48.916626,86.89636,-53.40454
1769252838917,-0.99560547,-0.032714844,0.047851562,11.108398,-4.8828125,0.12207031,0.0,0.0,0.0,-48.916626,86.89636,-53.40454
1769252838929,-0.99560547,-0.032714844,0.047851562,11.108398,-4.8828125,0.12207031,0.0,0.0,0.0,-46.834717,86.8689,-52.179565
1769252839017,-0.99609375,-0.025878906,0.040527344,16.235352,-7.9345703,-1.6479492,0.0,0.0,0.0,-46.834717,86.8689,-52.179565
1769252839029,-0.99609375,-0.025878906,0.040527344,16.235352,-7.9345703,-1.6479492,0.0,0.0,0.0,-38.02368,86.347046,-44.555054
1769252839117,-0.96875,-0.017578125,0.08300781,7.385254,-9.521484,2.380371,0.0,0.0,0.0,-38.02368,86.347046,-44.555054
1769252839128,-0.96875,-0.017578125,0.08300781,7.385254,-9.521484,2.380371,0.0,0.0,0.0,-28.135986,85.63843,-35.491333
1769252839217,-0.9863281,-0.01953125,0.076660156,8.850098,1.2207031,5.1879883,0.0,0.0,0.0,-28.135986,85.63843,-35.491333
1769252839228,-0.9863281,-0.01953125,0.076660156,8.850098,1.2207031,5.1879883,0.0,0.0,0.0,-19.094238,85.65491,-26.674805
1769252839317,-0.9946289,-0.0234375,0.08984375,5.92041,-5.92041,4.1503906,0.0,0.0,0.0,-19.094238,85.65491,-26.674805
1769252839328,-0.9946289,-0.0234375,0.08984375,5.92041,-5.92041,4.1503906,0.0,0.0,0.0,-12.540894,85.52307,-20.533447
1769252839416,-0.99560547,-0.025390625,0.087890625,5.7373047,-3.112793,1.6479492,0.0,0.0,0.0,-12.540894,85.52307,-20.533447
1769252839428,-0.99560547,-0.025390625,0.087890625,5.7373047,-3.112793,1.6479492,0.0,0.0,0.0,-8.195801,85.215454,-16.42456
1769252839516,-1.0146484,-0.0234375,0.0703125,0.61035156,-3.2958984,1.7089844,0.0,0.0,0.0,-8.195801,85.215454,-16.42456
1769252839527,-1.0146484,-0.0234375,0.0703125,0.61035156,-3.2958984,1.7089844,0.0,0.0,0.0,-5.564575,84.8584,-13.666992
1769252839615,-1.0083008,-0.001953125,0.0859375,0.91552734,-2.1362305,1.4038086,0.0,0.0,0.0,-5.564575,84.8584,-13.666992
1769252839627,-1.0083008,-0.001953125,0.0859375,0.91552734,-2.1362305,1.4038086,0.0,0.0,0.0,-3.1420898,84.611206,-10.953369
1769252839715,-1.0068359,-0.012207031,0.09033203,-1.953125,2.319336,-0.24414062,0.0,0.0,0.0,-3.1420898,84.611206,-10.953369
1769252839727,-1.0068359,-0.012207031,0.09033203,-1.953125,2.319336,-0.24414062,0.0,0.0,0.0,-2.5213623,84.56177,-9.992065
1769252839815,-1.003418,0.0024414062,0.095703125,-0.9765625,7.019043,-2.0141602,0.0,0.0,0.0,-2.5213623,84.56177,-9.992065
1769252839826,-1.003418,0.0024414062,0.095703125,-0.9765625,7.019043,-2.0141602,0.0,0.0,0.0,-4.828491,85.24292,-11.837769
1769252839915,-0.9897461,-0.0078125,0.0703125,0.0,3.0517578,-1.4038086,0.0,0.0,0.0,-4.828491,85.24292,-11.837769
1769252839927,-0.9897461,-0.0078125,0.0703125,0.0,3.0517578,-1.4038086,0.0,0.0,0.0,-8.673706,85.583496,-15.331421
1769252840014,-1.0024414,-0.016113281,0.07714844,-1.3427734,-1.8310547,0.12207031,0.0,0.0,0.0,-8.673706,85.583496,-15.331421
1769252840026,-1.0024414,-0.016113281,0.07714844,-1.3427734,-1.8310547,0.12207031,0.0,0.0,0.0,-9.602051,85.528564,-15.880737
1769252840114,-1.0014648,-0.022949219,0.07470703,0.24414062,-1.4648438,0.061035156,0.0,0.0,0.0,-9.602051,85.528564,-15.880737
1769252840126,-1.0014648,-0.022949219,0.07470703,0.24414062,-1.4648438,0.061035156,0.0,0.0,0.0,-8.794556,85.424194,-14.7052
1769252840214,-1.0004883,-0.016113281,0.07763672,0.5493164,-1.3427734,0.79345703,0.0,0.0,0.0,-8.794556,85.424194,-14.7052
1769252840225,-1.0004883,-0.016113281,0.07763672,0.5493164,-1.3427734,0.79345703,0.0,0.0,0.0,-8.206787,85.27588,-13.94165
1769252840313,-0.99902344,-0.0068359375,0.080566406,0.12207031,-0.24414062,1.8310547,0.0,0.0,0.0,-8.206787,85.27588,-13.94165
1769252840326,-0.99902344,-0.0068359375,0.080566406,0.12207031,-0.24414062,1.8310547,0.0,0.0,0.0,-6.454468,85.198975,-11.953125
1769252840413,-0.99902344,-0.0053710938,0.080566406,0.061035156,0.24414062,1.0986328,0.0,0.0,0.0,-6.454468,85.198975,-11.953125
1769252840425,-0.99902344,-0.0053710938,0.080566406,0.061035156,0.24414062,1.0986328,0.0,0.0,0.0,-4.8339844,85.23193,-10.041504
1769252840513,-0.9970703,-0.0048828125,0.07519531,-3.2348633,-0.79345703,-1.8920898,0.0,0.0,0.0,-4.8339844,85.23193,-10.041504
1769252840525,-0.9970703,-0.0048828125,0.07519531,-3.2348633,-0.79345703,-1.8920898,0.0,0.0,0.0,-5.196533,85.12756,-9.953613
1769252840613,-0.9863281,-0.014160156,0.12792969,-7.2021484,3.2958984,-4.0283203,0.0,0.0,0.0,-5.196533,85.12756,-9.953613
1769252840624,-0.9863281,-0.014160156,0.12792969,-7.2021484,3.2958984,-4.0283203,0.0,0.0,0.0,-10.06897,85.045166,-14.452515
1769252840713,-1.0327148,-0.029296875,0.052246094,-7.2021484,-2.380371,-10.009766,0.0,0.0,0.0,-10.06897,85.045166,-14.452515
1769252840724,-1.0327148,-0.029296875,0.052246094,-7.2021484,-2.380371,-10.009766,0.0,0.0,0.0,-19.731445,85.649414,-23.104248
1769252840812,-0.98583984,-0.060546875,0.092285156,-0.24414062,-22.460938,-12.451172,0.0,0.0,0.0,-19.731445,85.649414,-23.104248
1769252840824,-0.98583984,-0.060546875,0.092285156,-0.24414062,-22.460938,-12.451172,0.0,0.0,0.0,-25.795898,83.72131,-28.822632
1769252840912,-0.9604492,-0.029296875,0.115722656,4.5166016,-9.155273,-12.6953125,0.0,0.0,0.0,-25.795898,83.72131,-28.822632
1769252840923,-0.9604492,-0.029296875,0.115722656,4.5166016,-9.155273,-12.6953125,0.0,0.0,0.0,-29.08081,81.94702,-31.964722
1769252841012,-0.9663086,-0.08544922,0.12402344,2.319336,4.1503906,-3.6010742,0.0,0.0,0.0,-29.08081,81.94702,-31.964722
1769252841023,-0.9663086,-0.08544922,0.12402344,2.319336,4.1503906,-3.6010742,0.0,0.0,0.0,-31.904297,81.57898,-35.167236
1769252841111,-1.0200195,-0.10644531,0.12011719,-1.8920898,0.0,-0.7324219,0.0,0.0,0.0,-31.904297,81.57898,-35.167236
1769252841123,-1.0200195,-0.10644531,0.12011719,-1.8920898,0.0,-0.7324219,0.0,0.0,0.0,-32.486572,81.7218,-35.6781
1769252841211,-0.9892578,-0.103515625,0.10595703,1.7700195,1.4648438,-2.5024414,0.0,0.0,0.0,-32.486572,81.7218,-35.6781
1769252841223,-0.9892578,-0.103515625,0.10595703,1.7700195,1.4648438,-2.5024414,0.0,0.0,0.0,-33.832397,81.78772,-36.936035
1769252841311,-0.99560547,-0.07519531,0.10888672,0.61035156,-1.159668,-0.5493164,0.0,0.0,0.0,-33.832397,81.78772,-36.936035
1769252841322,-0.99560547,-0.07519531,0.10888672,0.61035156,-1.159668,-0.5493164,0.0,0.0,0.0,-34.145508,81.77673,-37.034912
1769252841411,-0.99560547,-0.07910156,0.12011719,-0.30517578,-1.4648438,-0.12207031,0.0,0.0,0.0,-34.145508,81.77673,-37.034912
1769252841422,-0.99560547,-0.07910156,0.12011719,-0.30517578,-1.4648438,-0.12207031,0.0,0.0,0.0,-34.398193,81.639404,-37.282104
1769252841510,-0.9741211,-0.08251953,0.111816406,-0.12207031,-0.6713867,-1.5258789,0.0,0.0,0.0,-34.398193,81.639404,-37.282104
1769252841522,-0.9741211,-0.08251953,0.111816406,-0.12207031,-0.6713867,-1.5258789,0.0,0.0,0.0,-34.381714,81.54602,-37.056885
1769252841610,-0.98339844,-0.083984375,0.11425781,-5.6762695,4.9438477,2.8686523,0.0,0.0,0.0,-34.381714,81.54602,-37.056885
1769252841621,-0.98339844,-0.083984375,0.11425781,-5.6762695,4.9438477,2.8686523,0.0,0.0,0.0,-34.958496,81.61743,-37.408447
1769252841710,-0.9819336,-0.076171875,0.11816406,-0.91552734,4.333496,2.0751953,0.0,0.0,0.0,-34.958496,81.61743,-37.408447
1769252841721,-0.9819336,-0.076171875,0.11816406,-0.91552734,4.333496,2.0751953,0.0,0.0,0.0,-36.584473,82.06787,-38.770752
1769252841809,-0.99609375,-0.08251953,0.109375,2.8686523,2.5634766,0.4272461,0.0,0.0,0.0,-36.584473,82.06787,-38.770752
1769252841821,-0.99609375,-0.08251953,0.109375,2.8686523,2.5634766,0.4272461,0.0,0.0,0.0,-36.89209,82.369995,-39.017944
1769252841909,-0.99365234,-0.078125,0.099609375,0.12207031,0.8544922,-0.061035156,0.0,0.0,0.0,-36.89209,82.369995,-39.017944
1769252841920,-0.99365234,-0.078125,0.099609375,0.12207031,0.8544922,-0.061035156,0.0,0.0,0.0,-36.94702,82.47986,-39.017944
1769252842009,-0.99316406,-0.08154297,0.103515625,-0.30517578,0.79345703,0.30517578,0.0,0.0,0.0,-36.94702,82.47986,-39.017944
1769252842020,-0.99316406,-0.08154297,0.103515625,-0.30517578,0.79345703,0.30517578,0.0,0.0,0.0,-36.985474,82.50183,-38.952026
1769252842109,-0.9941406,-0.075683594,0.10253906,0.24414062,0.7324219,-0.061035156,0.0,0.0,0.0,-36.985474,82.50183,-38.952026
1769252842120,-0.9941406,-0.075683594,0.10253906,0.24414062,0.7324219,-0.061035156,0.0,0.0,0.0,-37.15027,82.54028,-39.09485
1769252842208,-0.9916992,-0.07470703,0.09814453,0.48828125,0.4272461,0.0,0.0,0.0,0.0,-37.15027,82.54028,-39.09485
1769252842220,-0.9916992,-0.07470703,0.09814453,0.48828125,0.4272461,0.0,0.0,0.0,0.0,-37.369995,82.58972,-39.314575
1769252842308,-0.99560547,-0.080078125,0.103515625,1.953125,-1.0986328,-0.79345703,0.0,0.0,0.0,-37.369995,82.58972,-39.314575
1769252842319,-0.99560547,-0.080078125,0.103515625,1.953125,-1.0986328,-0.79345703,0.0,0.0,0.0,-37.232666,82.562256,-39.171753
1769252842408,-0.98828125,-0.076660156,0.1015625,1.4038086,-1.159668,-1.4038086,0.0,0.0,0.0,-37.232666,82.562256,-39.171753
1769252842419,-0.98828125,-0.076660156,0.1015625,1.4038086,-1.159668,-1.4038086,0.0,0.0,0.0,-36.798706,82.41943,-38.759766
1769252842507,-0.9863281,-0.080566406,0.111816406,-0.12207031,-2.9907227,-2.5634766,0.0,0.0,0.0,-36.798706,82.41943,-38.759766
1769252842520,-0.9863281,-0.080566406,0.111816406,-0.12207031,-2.9907227,-2.5634766,0.0,0.0,0.0,-36.40869,82.10083,-38.40271
1769252842607,-1.0014648,-0.10058594,0.10546875,-2.4414062,-2.9907227,-3.90625,0.0,0.0,0.0,-36.40869,82.10083,-38.40271
1769252842619,-1.0014648,-0.10058594,0.10546875,-2.4414062,-2.9907227,-3.90625,0.0,0.0,0.0,-37.32605,81.68884,-39.298096
1769252842707,-0.9741211,-0.087890625,0.13427734,-4.638672,-1.7700195,-3.4179688,0.0,0.0,0.0,-37.32605,81.68884,-39.298096
1769252842719,-0.9741211,-0.087890625,0.13427734,-4.638672,-1.7700195,-3.4179688,0.0,0.0,0.0,-38.10608,81.11755,-39.814453
1769252842807,-0.9916992,-0.09765625,0.09863281,0.4272461,2.2583008,-3.2348633,0.0,0.0,0.0,-38.10608,81.11755,-39.814453
1769252842819,-0.9916992,-0.09765625,0.09863281,0.4272461,2.2583008,-3.2348633,0.0,0.0,0.0,-40.64392,81.09558,-42.05017
1769252842906,-0.97216797,-0.087890625,0.11767578,2.746582,0.061035156,-0.5493164,0.0,0.0,0.0,-40.64392,81.09558,-42.05017
1769252842918,-0.97216797,-0.087890625,0.11767578,2.746582,0.061035156,-0.5493164,0.0,0.0,0.0,-41.731567,80.95276,-43.36853
1769252843006,-0.9941406,-0.12792969,0.13085938,1.4648438,-2.1362305,2.380371,0.0,0.0,0.0,-41.731567,80.95276,-43.36853
1769252843017,-0.9941406,-0.12792969,0.13085938,1.4648438,-2.1362305,2.380371,0.0,0.0,0.0,-40.231934,80.83191,-42.105103
1769252843106,-0.9873047,-0.09472656,0.119140625,-4.272461,-1.0375977,2.9296875,0.0,0.0,0.0,-40.231934,80.83191,-42.105103
1769252843117,-0.9873047,-0.09472656,0.119140625,-4.272461,-1.0375977,2.9296875,0.0,0.0,0.0,-38.567505,80.76599,-39.781494
1769252843205,-0.9760742,-0.08154297,0.1274414,-4.0893555,3.8452148,4.1503906,0.0,0.0,0.0,-38.567505,80.76599,-39.781494
1769252843217,-0.9760742,-0.08154297,0.1274414,-4.0893555,3.8452148,4.1503906,0.0,0.0,0.0,-37.798462,81.05713,-38.12805
1769252843305,-1.0063477,-0.07910156,0.087890625,0.61035156,2.9296875,3.2958984,0.0,0.0,0.0,-37.798462,81.05713,-38.12805
1769252843317,-1.0063477,-0.07910156,0.087890625,0.61035156,2.9296875,3.2958984,0.0,0.0,0.0,-37.095337,81.63391,-36.82617
1769252843405,-1.0039062,-0.10839844,0.13574219,0.0,-1.7700195,-0.5493164,0.0,0.0,0.0,-37.095337,81.63391,-36.82617
1769252843416,-1.0039062,-0.10839844,0.13574219,0.0,-1.7700195,-0.5493164,0.0,0.0,0.0,-36.0791,81.46912,-36.117554
1769252843504,-0.98828125,-0.08691406,0.12451172,-1.6479492,-3.4179688,-5.859375,0.0,0.0,0.0,-36.0791,81.46912,-36.117554
1769252843516,-0.98828125,-0.08691406,0.12451172,-1.6479492,-3.4179688,-5.859375,0.0,0.0,0.0,-36.85913,81.068115,-36.540527
1769252843605,-0.9794922,-0.103027344,0.115722656,-2.6855469,-4.3945312,-1.953125,0.0,0.0,0.0,-36.85913,81.068115,-36.540527
1769252843616,-0.9794922,-0.103027344,0.115722656,-2.6855469,-4.3945312,-1.953125,0.0,0.0,0.0,-38.133545,80.57922,-37.65564
1769252843704,-0.9873047,-0.096191406,0.13623047,-1.4648438,-3.7231445,-2.319336,0.0,0.0,0.0,-38.133545,80.57922,-37.65564
1769252843716,-0.9873047,-0.096191406,0.13623047,-1.4648438,-3.7231445,-2.319336,0.0,0.0,0.0,-37.55127,80.13428,-36.672363
1769252843804,-0.97216797,-0.09814453,0.14501953,0.79345703,0.061035156,0.30517578,0.0,0.0,0.0,-37.55127,80.13428,-36.672363
1769252843816,-0.97216797,-0.09814453,0.14501953,0.79345703,0.061035156,0.30517578,0.0,0.0,0.0,-37.265625,80.024414,-36.584473
1769252843904,-0.9863281,-0.091308594,0.13867188,0.7324219,5.493164,2.4414062,0.0,0.0,0.0,-37.265625,80.024414,-36.584473
1769252843915,-0.9863281,-0.091308594,0.13867188,0.7324219,5.493164,2.4414062,0.0,0.0,0.0,-37.27112,80.23865,-36.705322
1769252844003,-0.98779297,-0.09667969,0.11767578,1.2207031,11.901855,10.498047,0.0,0.0,0.0,-37.27112,80.23865,-36.705322
1769252844015,-0.98779297,-0.09667969,0.11767578,1.2207031,11.901855,10.498047,0.0,0.0,0.0,-37.523804,81.41968,-37.348022
1769252844103,-0.99072266,-0.056152344,0.119140625,6.591797,6.4086914,9.94873,0.0,0.0,0.0,-37.523804,81.41968,-37.348022
1769252844114,-0.99072266,-0.056152344,0.119140625,6.591797,6.4086914,9.94873,0.0,0.0,0.0,-34.53003,82.57324,-34.60144
1769252844203,-1.0078125,-0.07714844,0.11279297,1.2817383,5.9814453,9.399414,0.0,0.0,0.0,-34.53003,82.57324,-34.60144
1769252844214,-1.0078125,-0.07714844,0.11279297,1.2817383,5.9814453,9.399414,0.0,0.0,0.0,-30.794678,83.254395,-31.096802
1769252844302,-1.0214844,-0.061523438,0.09716797,-1.2817383,4.211426,9.216309,0.0,0.0,0.0,-30.794678,83.254395,-31.096802
1769252844314,-1.0214844,-0.061523438,0.09716797,-1.2817383,4.211426,9.216309,0.0,0.0,0.0,-26.191406,84.09485,-26.52649
1769252844402,-1.0009766,0.0078125,0.068359375,-4.0893555,4.211426,8.178711,0.0,0.0,0.0,-26.191406,84.09485,-26.52649
1769252844414,-1.0009766,0.0078125,0.068359375,-4.0893555,4.211426,8.178711,0.0,0.0,0.0,-17.682495,84.75403,-17.880249
1769252844502,-1.0229492,-0.038085938,0.083496094,5.79834,0.12207031,-1.5258789,0.0,0.0,0.0,-17.682495,84.75403,-17.880249
1769252844513,-1.0229492,-0.038085938,0.083496094,5.79834,0.12207031,-1.5258789,0.0,0.0,0.0,-14.848022,84.64966,-15.183105
1769252844601,-0.98779297,-0.0146484375,0.092285156,1.7089844,-5.1879883,-1.3427734,0.0,0.0,0.0,-14.848022,84.64966,-15.183105
1769252844613,-0.98779297,-0.0146484375,0.092285156,1.7089844,-5.1879883,-1.3427734,0.0,0.0,0.0,-13.974609,84.42444,-14.441528
1769252844701,-1.0043945,-0.018554688,0.11669922,-2.6855469,1.6479492,3.479004,0.0,0.0,0.0,-13.974609,84.42444,-14.441528
1769252844713,-1.0043945,-0.018554688,0.11669922,-2.6855469,1.6479492,3.479004,0.0,0.0,0.0,-12.2717285,84.210205,-12.6397705
1769252844801,-1.0175781,-0.0107421875,0.10058594,1.5869141,0.18310547,5.3710938,0.0,0.0,0.0,-12.2717285,84.210205,-12.6397705
1769252844812,-1.0175781,-0.0107421875,0.10058594,1.5869141,0.18310547,5.3710938,0.0,0.0,0.0,-6.5533447,84.556274,-6.7840576
1769252844901,-0.97802734,-0.0014648438,0.091308594,1.159668,-0.61035156,0.30517578,0.0,0.0,0.0,-6.5533447,84.556274,-6.7840576
1769252844912,-0.97802734,-0.0014648438,0.091308594,1.159668,-0.61035156,0.30517578,0.0,0.0,0.0,-8.366089,84.64966,-9.008789
1769252845000,-1.0029297,-0.0068359375,0.09716797,0.24414062,1.2817383,-0.61035156,0.0,0.0,0.0,-8.366089,84.64966,-9.008789
1769252845012,-1.0029297,-0.0068359375,0.09716797,0.24414062,1.2817383,-0.61035156,0.0,0.0,0.0,-7.739868,84.572754,-8.366089
1769252845100,-1.0004883,-0.0126953125,0.08886719,-0.061035156,-2.1362305,-0.8544922,0.0,0.0,0.0,-7.739868,84.572754,-8.366089
1769252845112,-1.0004883,-0.0126953125,0.08886719,-0.061035156,-2.1362305,-0.8544922,0.0,0.0,0.0,-8.591309,84.50134,-9.283447
1769252845200,-0.99609375,-0.011230469,0.10107422,5.3710938,-2.1972656,-1.7089844,0.0,0.0,0.0,-8.591309,84.50134,-9.283447
1769252845211,-0.99609375,-0.011230469,0.10107422,5.3710938,-2.1972656,-1.7089844,0.0,0.0,0.0,-9.173584,84.27063,-10.283203
1769252845299,-0.9951172,-0.0146484375,0.103515625,2.8076172,-1.8310547,-0.9765625,0.0,0.0,0.0,-9.173584,84.27063,-10.283203
1769252845311,-0.9951172,-0.0146484375,0.103515625,2.8076172,-1.8310547,-0.9765625,0.0,0.0,0.0,-9.700928,84.04541,-11.299438
1769252845399,-0.99560547,-0.0053710938,0.107421875,-0.061035156,0.61035156,0.5493164,0.0,0.0,0.0,-9.700928,84.04541,-11.299438
1769252845411,-0.99560547,-0.0053710938,0.107421875,-0.061035156,0.61035156,0.5493164,0.0,0.0,0.0,-9.146118,83.94104,-10.772095
1769252845499,-0.9848633,-0.027832031,0.1015625,-1.5258789,2.1972656,-0.18310547,0.0,0.0,0.0,-9.146118,83.94104,-10.772095
1769252845510,-0.9848633,-0.027832031,0.1015625,-1.5258789,2.1972656,-0.18310547,0.0,0.0,0.0,-8.811035,84.08386,-10.365601
1769252845599,-0.984375,0.0014648438,0.11767578,-1.0986328,-0.9765625,2.380371,0.0,0.0,0.0,-8.811035,84.08386,-10.365601
1769252845610,-0.984375,0.0014648438,0.11767578,-1.0986328,-0.9765625,2.380371,0.0,0.0,0.0,-10.129395,84.20471,-11.56311
1769252845698,-0.99365234,-0.011230469,0.095214844,1.0375977,0.8544922,0.48828125,0.0,0.0,0.0,-10.129395,84.20471,-11.56311
1769252845710,-0.99365234,-0.011230469,0.095214844,1.0375977,0.8544922,0.48828125,0.0,0.0,0.0,-8.931885,84.19922,-10.343628
1769252845798,-0.9941406,-0.021972656,0.096191406,-0.4272461,0.0,-1.0375977,0.0,0.0,0.0,-8.931885,84.19922,-10.343628
1769252845810,-0.9941406,-0.021972656,0.096191406,-0.4272461,0.0,-1.0375977,0.0,0.0,0.0,-8.618774,84.30359,-10.090942
1769252845898,-0.99853516,-0.0146484375,0.099609375,0.12207031,-0.24414062,-0.36621094,0.0,0.0,0.0,-8.618774,84.30359,-10.090942
1769252845910,-0.99853516,-0.0146484375,0.099609375,0.12207031,-0.24414062,-0.36621094,0.0,0.0,0.0,-8.816528,84.2157,-10.266724
1769252845998,-0.99365234,-0.015625,0.096191406,-0.61035156,0.18310547,0.36621094,0.0,0.0,0.0,-8.816528,84.2157,-10.266724
1769252846009,-0.99365234,-0.015625,0.096191406,-0.61035156,0.18310547,0.36621094,0.0,0.0,0.0,-8.904419,84.23767,-10.393066
1769252846097,-0.99560547,-0.009277344,0.09716797,-0.12207031,-0.7324219,0.9765625,0.0,0.0,0.0,-8.904419,84.23767,-10.393066
1769252846109,-0.99560547,-0.009277344,0.09716797,-0.12207031,-0.7324219,0.9765625,0.0,0.0,0.0,-8.580322,84.210205,-10.079956
1769252846197,-0.9975586,-0.012207031,0.10205078,0.30517578,-0.30517578,0.18310547,0.0,0.0,0.0,-8.580322,84.210205,-10.079956
1769252846209,-0.9975586,-0.012207031,0.10205078,0.30517578,-0.30517578,0.18310547,0.0,0.0,0.0,-7.8167725,84.16626,-9.332886
1769252846297,-1.0024414,-0.016113281,0.09667969,-0.24414062,0.8544922,-0.4272461,0.0,0.0,0.0,-7.8167725,84.16626,-9.332886
1769252846308,-1.0024414,-0.016113281,0.09667969,-0.24414062,0.8544922,-0.4272461,0.0,0.0,0.0,-7.6464844,84.17175,-9.179077
1769252846396,-0.99902344,-0.013183594,0.09667969,0.12207031,0.91552734,-0.061035156,0.0,0.0,0.0,-7.6464844,84.17175,-9.179077
1769252846408,-0.99902344,-0.013183594,0.09667969,0.12207031,0.91552734,-0.061035156,0.0,0.0,0.0,-7.366333,84.23767,-8.843994
1769252846496,-0.99609375,-0.01171875,0.099121094,-0.4272461,0.36621094,-0.12207031,0.0,0.0,0.0,-7.366333,84.23767,-8.843994
1769252846508,-0.99609375,-0.01171875,0.099121094,-0.4272461,0.36621094,-0.12207031,0.0,0.0,0.0,-7.6519775,84.28162,-9.135132
1769252846596,-0.99560547,-0.012207031,0.09472656,-0.30517578,0.061035156,-0.24414062,0.0,0.0,0.0,-7.6519775,84.28162,-9.135132
1769252846607,-0.99560547,-0.012207031,0.09472656,-0.30517578,0.061035156,-0.24414062,0.0,0.0,0.0,-7.8497314,84.298096,-9.310913
1769252846696,-0.9941406,-0.008300781,0.09863281,-0.79345703,0.48828125,0.4272461,0.0,0.0,0.0,-7.8497314,84.298096,-9.310913
1769252846707,-0.9941406,-0.008300781,0.09863281,-0.79345703,0.48828125,0.4272461,0.0,0.0,0.0,-8.168335,84.33655,-9.624023
1769252846795,-0.99609375,-0.008300781,0.095214844,-0.5493164,0.061035156,-0.30517578,0.0,0.0,0.0,-8.168335,84.33655,-9.624023
1769252846807,-0.99609375,-0.008300781,0.095214844,-0.5493164,0.061035156,-0.30517578,0.0,0.0,0.0,-8.613281,84.38049,-10.030518
1769252846896,-0.99365234,-0.014160156,0.095214844,-0.12207031,0.24414062,-0.48828125,0.0,0.0,0.0,-8.613281,84.38049,-10.030518
1769252846906,-0.99365234,-0.014160156,0.095214844,-0.12207031,0.24414062,-0.48828125,0.0,0.0,0.0,-9.190063,84.41345,-10.585327
1769252846995,-0.99609375,-0.016113281,0.09472656,-0.061035156,0.0,0.0,0.0,0.0,0.0,-9.190063,84.41345,-10.585327
1769252847006,-0.99609375,-0.016113281,0.09472656,-0.061035156,0.0,0.0,0.0,0.0,0.0,-9.547119,84.418945,-10.942383
1769252847094,-0.9975586,-0.016113281,0.09277344,0.18310547,0.18310547,0.12207031,0.0,0.0,0.0,-9.547119,84.418945,-10.942383
1769252847106,-0.9975586,-0.016113281,0.09277344,0.18310547,0.18310547,0.12207031,0.0,0.0,0.0,-9.497681,84.44092,-10.8984375
1769252847194,-0.99609375,-0.015136719,0.09082031,0.0,0.0,0.24414062,0.0,0.0,0.0,-9.497681,84.44092,-10.8984375
1769252847206,-0.99609375,-0.015136719,0.09082031,0.0,0.0,0.24414062,0.0,0.0,0.0,-9.234009,84.451904,-10.651245
