timestamp,accX,accY,accZ,gyroX,gyroY,gyroZ,magX,magY,magZ,roll,pitch,yaw
1766498038292,-0.88916016,-0.3803711,0.25634766,0.8544922,0.18310547,-0.12207031,0.0,0.0,0.0,-55.74463,61.990356,-29.794922
1766498038304,-0.88916016,-0.3803711,0.25634766,0.8544922,0.18310547,-0.12207031,0.0,0.0,0.0,-55.72815,62.039795,-29.767456
1766498038392,-0.88964844,-0.3876953,0.25927734,-0.48828125,-0.5493164,0.48828125,0.0,0.0,0.0,-55.72815,62.039795,-29.767456
1766498038403,-0.88964844,-0.3876953,0.25927734,-0.48828125,-0.5493164,0.48828125,0.0,0.0,0.0,-55.64026,62.0343,-29.712524
1766498038492,-0.8881836,-0.37939453,0.2626953,0.4272461,-0.18310547,-0.5493164,0.0,0.0,0.0,-55.64026,62.0343,-29.712524
1766498038503,-0.8881836,-0.37939453,0.2626953,0.4272461,-0.18310547,-0.5493164,0.0,0.0,0.0,-55.6073,62.023315,-29.66858
1766498038591,-0.88623047,-0.3779297,0.26611328,-0.6713867,0.4272461,-0.061035156,0.0,0.0,0.0,-55.6073,62.023315,-29.66858
1766498038603,-0.88623047,-0.3779297,0.26611328,-0.6713867,0.4272461,-0.061035156,0.0,0.0,0.0,-55.64026,62.006836,-29.712524
1766498038691,-0.8930664,-0.38232422,0.2607422,0.5493164,0.61035156,-1.0986328,0.0,0.0,0.0,-55.64026,62.006836,-29.712524
1766498038704,-0.8930664,-0.38232422,0.2607422,0.5493164,0.61035156,-1.0986328,0.0,0.0,0.0,-55.700684,62.017822,-29.822388
1766498038791,-0.88134766,-0.3828125,0.2578125,-0.5493164,0.61035156,0.8544922,0.0,0.0,0.0,-55.700684,62.017822,-29.822388
1766498038802,-0.88134766,-0.3828125,0.2578125,-0.5493164,0.61035156,0.8544922,0.0,0.0,0.0,-55.612793,62.05078,-29.745483
1766498038890,-0.8911133,-0.3803711,0.25439453,1.0375977,0.0,-0.6713867,0.0,0.0,0.0,-55.612793,62.05078,-29.745483
1766498038902,-0.8911133,-0.3803711,0.25439453,1.0375977,0.0,-0.6713867,0.0,0.0,0.0,-55.629272,62.078247,-29.767456
1766498038990,-0.88623047,-0.3798828,0.2578125,0.12207031,-0.8544922,-0.12207031,0.0,0.0,0.0,-55.629272,62.078247,-29.767456
1766498039002,-0.88623047,-0.3798828,0.2578125,0.12207031,-0.8544922,-0.12207031,0.0,0.0,0.0,-55.57434,62.045288,-29.77295
1766498039090,-0.88720703,-0.3828125,0.2578125,0.8544922,0.7324219,-0.7324219,0.0,0.0,0.0,-55.57434,62.045288,-29.77295
1766498039102,-0.88720703,-0.3828125,0.2578125,0.8544922,0.7324219,-0.7324219,0.0,0.0,0.0,-55.53589,62.023315,-29.800415
1766498039190,-0.88964844,-0.37939453,0.25683594,-0.61035156,-0.36621094,0.18310547,0.0,0.0,0.0,-55.53589,62.023315,-29.800415
1766498039201,-0.88964844,-0.37939453,0.25683594,-0.61035156,-0.36621094,0.18310547,0.0,0.0,0.0,-55.612793,62.0343,-29.866333
1766498039289,-0.88623047,-0.37695312,0.2631836,0.30517578,0.24414062,-0.36621094,0.0,0.0,0.0,-55.612793,62.0343,-29.866333
1766498039301,-0.88623047,-0.37695312,0.2631836,0.30517578,0.24414062,-0.36621094,0.0,0.0,0.0,-55.585327,62.039795,-29.72351
1766498039389,-0.890625,-0.38134766,0.25585938,0.91552734,0.48828125,-0.61035156,0.0,0.0,0.0,-55.585327,62.039795,-29.72351
1766498039401,-0.890625,-0.38134766,0.25585938,0.91552734,0.48828125,-0.61035156,0.0,0.0,0.0,-55.57434,62.0343,-29.778442
1766498039489,-0.8803711,-0.3857422,0.25146484,0.8544922,1.4648438,-0.61035156,0.0,0.0,0.0,-55.57434,62.0343,-29.778442
1766498039501,-0.8803711,-0.3857422,0.25146484,0.8544922,1.4648438,-0.61035156,0.0,0.0,0.0,-55.805054,62.094727,-30.08606
1766498039589,-0.890625,-0.38183594,0.25732422,0.61035156,-0.8544922,-0.36621094,0.0,0.0,0.0,-55.805054,62.094727,-30.08606
1766498039600,-0.890625,-0.38183594,0.25732422,0.61035156,-0.8544922,-0.36621094,0.0,0.0,0.0,-56.085205,62.078247,-30.448608
1766498039688,-0.8876953,-0.3803711,0.2602539,0.30517578,0.5493164,-0.30517578,0.0,0.0,0.0,-56.085205,62.078247,-30.448608
1766498039700,-0.8876953,-0.3803711,0.2602539,0.30517578,0.5493164,-0.30517578,0.0,0.0,0.0,-56.07422,62.08374,-30.38269
1766498039788,-0.8876953,-0.38378906,0.24951172,0.79345703,0.48828125,-0.61035156,0.0,0.0,0.0,-56.07422,62.08374,-30.38269
1766498039799,-0.8876953,-0.38378906,0.24951172,0.79345703,0.48828125,-0.61035156,0.0,0.0,0.0,-56.052246,62.094727,-30.38269
1766498039888,-0.8886719,-0.3857422,0.2553711,-0.12207031,-1.2817383,-0.061035156,0.0,0.0,0.0,-56.052246,62.094727,-30.38269
1766498039900,-0.8886719,-0.3857422,0.2553711,-0.12207031,-1.2817383,-0.061035156,0.0,0.0,0.0,-56.068726,62.061768,-30.39917
1766498039987,-0.8881836,-0.3798828,0.2548828,0.24414062,0.061035156,-0.48828125,0.0,0.0,0.0,-56.068726,62.061768,-30.39917
1766498039999,-0.8881836,-0.3798828,0.2548828,0.24414062,0.061035156,-0.48828125,0.0,0.0,0.0,-55.99182,62.017822,-30.26184
1766498040087,-0.88720703,-0.3881836,0.25390625,0.36621094,-0.4272461,-0.48828125,0.0,0.0,0.0,-55.99182,62.017822,-30.26184
1766498040099,-0.88720703,-0.3881836,0.25390625,0.36621094,-0.4272461,-0.48828125,0.0,0.0,0.0,-56.002808,62.017822,-30.300293
1766498040187,-0.8847656,-0.38330078,0.25683594,-0.4272461,-0.4272461,0.0,0.0,0.0,0.0,-56.002808,62.017822,-30.300293
1766498040198,-0.8847656,-0.38330078,0.25683594,-0.4272461,-0.4272461,0.0,0.0,0.0,0.0,-56.0083,62.006836,-30.26184
1766498040287,-0.8881836,-0.37890625,0.2607422,0.4272461,0.36621094,-0.24414062,0.0,0.0,0.0,-56.0083,62.006836,-30.26184
1766498040298,-0.8881836,-0.37890625,0.2607422,0.4272461,0.36621094,-0.24414062,0.0,0.0,0.0,-56.013794,62.006836,-30.234375
1766498040387,-0.8930664,-0.3828125,0.25976562,0.48828125,0.8544922,-0.79345703,0.0,0.0,0.0,-56.013794,62.006836,-30.234375
1766498040398,-0.8930664,-0.3828125,0.25976562,0.48828125,0.8544922,-0.79345703,0.0,0.0,0.0,-56.151123,61.99585,-30.476074
1766498040486,-0.8808594,-0.37890625,0.25830078,0.24414062,0.91552734,-0.48828125,0.0,0.0,0.0,-56.151123,61.99585,-30.476074
1766498040498,-0.8808594,-0.37890625,0.25830078,0.24414062,0.91552734,-0.48828125,0.0,0.0,0.0,-56.123657,61.99585,-30.393677
1766498040586,-0.8881836,-0.390625,0.25048828,0.7324219,-0.4272461,-0.61035156,0.0,0.0,0.0,-56.123657,61.99585,-30.393677
1766498040598,-0.8881836,-0.390625,0.25048828,0.7324219,-0.4272461,-0.61035156,0.0,0.0,0.0,-56.09619,61.984863,-30.41565
1766498040686,-0.88427734,-0.3876953,0.25585938,-0.36621094,-0.7324219,0.061035156,0.0,0.0,0.0,-56.09619,61.984863,-30.41565
1766498040697,-0.88427734,-0.3876953,0.25585938,-0.36621094,-0.7324219,0.061035156,0.0,0.0,0.0,-56.107178,61.96289,-30.404663
1766498040785,-0.8881836,-0.38330078,0.25634766,0.61035156,0.061035156,-0.24414062,0.0,0.0,0.0,-56.107178,61.96289,-30.404663
1766498040797,-0.8881836,-0.38330078,0.25634766,0.61035156,0.061035156,-0.24414062,0.0,0.0,0.0,-55.99182,61.935425,-30.212402
1766498040885,-0.8876953,-0.38330078,0.25390625,0.0,-0.24414062,0.061035156,0.0,0.0,0.0,-55.99182,61.935425,-30.212402
1766498040897,-0.8876953,-0.38330078,0.25390625,0.0,-0.24414062,0.061035156,0.0,0.0,0.0,-55.95337,61.940918,-30.146484
1766498040985,-0.8852539,-0.38476562,0.2602539,0.8544922,0.18310547,-0.5493164,0.0,0.0,0.0,-55.95337,61.940918,-30.146484
1766498040996,-0.8852539,-0.38476562,0.2602539,0.8544922,0.18310547,-0.5493164,0.0,0.0,0.0,-55.898438,61.951904,-30.047607
1766498041084,-0.8881836,-0.38330078,0.25976562,-0.24414062,0.30517578,-0.18310547,0.0,0.0,0.0,-55.898438,61.951904,-30.047607
1766498041096,-0.8881836,-0.38330078,0.25976562,-0.24414062,0.30517578,-0.18310547,0.0,0.0,0.0,-55.931396,61.92993,-30.097046
1766498041184,-0.8911133,-0.38476562,0.25048828,1.4038086,1.2817383,-1.4038086,0.0,0.0,0.0,-55.931396,61.92993,-30.097046
1766498041196,-0.8911133,-0.38476562,0.25048828,1.4038086,1.2817383,-1.4038086,0.0,0.0,0.0,-56.134644,61.957397,-30.454102
1766498041284,-0.8823242,-0.3798828,0.25439453,0.61035156,3.0517578,-1.3427734,0.0,0.0,0.0,-56.134644,61.957397,-30.454102
1766498041295,-0.8823242,-0.3798828,0.25439453,0.61035156,3.0517578,-1.3427734,0.0,0.0,0.0,-56.486206,61.973877,-30.83313
1766498041384,-0.89208984,-0.390625,0.24560547,0.4272461,0.36621094,-0.30517578,0.0,0.0,0.0,-56.486206,61.973877,-30.83313
1766498041395,-0.89208984,-0.390625,0.24560547,0.4272461,0.36621094,-0.30517578,0.0,0.0,0.0,-56.541138,61.97937,-30.942993
1766498041483,-0.8828125,-0.39208984,0.2578125,0.0,0.0,0.18310547,0.0,0.0,0.0,-56.541138,61.97937,-30.942993
1766498041495,-0.8828125,-0.39208984,0.2578125,0.0,0.0,0.18310547,0.0,0.0,0.0,-56.645508,62.02881,-31.091309
1766498041583,-0.88671875,-0.39013672,0.24511719,-0.18310547,-0.7324219,-0.24414062,0.0,0.0,0.0,-56.645508,62.02881,-31.091309
1766498041595,-0.88671875,-0.39013672,0.24511719,-0.18310547,-0.7324219,-0.24414062,0.0,0.0,0.0,-56.541138,62.001343,-30.904541
1766498041683,-0.89697266,-0.3779297,0.25097656,-0.12207031,0.30517578,0.4272461,0.0,0.0,0.0,-56.541138,62.001343,-30.904541
1766498041694,-0.89697266,-0.3779297,0.25097656,-0.12207031,0.30517578,0.4272461,0.0,0.0,0.0,-56.497192,62.023315,-30.651855
1766498041783,-0.8798828,-0.38476562,0.25634766,1.4038086,1.953125,-0.30517578,0.0,0.0,0.0,-56.497192,62.023315,-30.651855
1766498041794,-0.8798828,-0.38476562,0.25634766,1.4038086,1.953125,-0.30517578,0.0,0.0,0.0,-56.73889,62.14966,-30.970459
1766498041883,-0.87597656,-0.38623047,0.25195312,0.4272461,-0.36621094,-0.12207031,0.0,0.0,0.0,-56.73889,62.14966,-30.970459
1766498041894,-0.87597656,-0.38623047,0.25195312,0.4272461,-0.36621094,-0.12207031,0.0,0.0,0.0,-56.656494,62.166138,-30.81665
1766498041982,-0.8930664,-0.38476562,0.24707031,-1.0375977,0.0,0.36621094,0.0,0.0,0.0,-56.656494,62.166138,-30.81665
1766498041994,-0.8930664,-0.38476562,0.24707031,-1.0375977,0.0,0.36621094,0.0,0.0,0.0,-56.53015,62.1167,-30.509033
1766498042082,-0.8833008,-0.37597656,0.25683594,-0.8544922,-3.4179688,1.4648438,0.0,0.0,0.0,-56.53015,62.1167,-30.509033
1766498042094,-0.8833008,-0.37597656,0.25683594,-0.8544922,-3.4179688,1.4648438,0.0,0.0,0.0,-56.431274,62.177124,-30.27832
1766498042182,-0.88916016,-0.390625,0.25585938,0.91552734,0.0,-0.8544922,0.0,0.0,0.0,-56.431274,62.177124,-30.27832
1766498042198,-0.88916016,-0.390625,0.25585938,0.91552734,0.0,-0.8544922,0.0,0.0,0.0,-56.052246,62.144165,-29.871826
1766498042282,-0.8852539,-0.38085938,0.25048828,-0.7324219,-2.8076172,-0.12207031,0.0,0.0,0.0,-56.052246,62.144165,-29.871826
1766498042293,-0.8852539,-0.38085938,0.25048828,-0.7324219,-2.8076172,-0.12207031,0.0,0.0,0.0,-55.92041,62.0343,-29.690552
1766498042381,-0.8876953,-0.38671875,0.25341797,1.2817383,-0.12207031,-0.4272461,0.0,0.0,0.0,-55.92041,62.0343,-29.690552
1766498042392,-0.8876953,-0.38671875,0.25341797,1.2817383,-0.12207031,-0.4272461,0.0,0.0,0.0,-55.772095,61.96289,-29.641113
1766498042481,-0.8925781,-0.3798828,0.25878906,0.48828125,-0.061035156,-0.36621094,0.0,0.0,0.0,-55.772095,61.96289,-29.641113
1766498042492,-0.8925781,-0.3798828,0.25878906,0.48828125,-0.061035156,-0.36621094,0.0,0.0,0.0,-55.777588,61.96289,-29.602661
1766498042580,-0.8828125,-0.37646484,0.26367188,0.0,0.79345703,0.30517578,0.0,0.0,0.0,-55.777588,61.96289,-29.602661
1766498042592,-0.8828125,-0.37646484,0.26367188,0.0,0.79345703,0.30517578,0.0,0.0,0.0,-55.821533,62.017822,-29.624634
1766498042681,-0.8808594,-0.38623047,0.25195312,1.2817383,1.3427734,-0.9765625,0.0,0.0,0.0,-55.821533,62.017822,-29.624634
1766498042692,-0.8808594,-0.38623047,0.25195312,1.2817383,1.3427734,-0.9765625,0.0,0.0,0.0,-55.854492,62.039795,-29.729004
1766498042780,-0.8876953,-0.39013672,0.24365234,0.0,-0.6713867,-0.48828125,0.0,0.0,0.0,-55.854492,62.039795,-29.729004
1766498042791,-0.8876953,-0.39013672,0.24365234,0.0,-0.6713867,-0.48828125,0.0,0.0,0.0,-55.881958,61.968384,-29.84436
1766498042879,-0.88964844,-0.38232422,0.25585938,0.4272461,0.061035156,-0.24414062,0.0,0.0,0.0,-55.881958,61.968384,-29.84436
1766498042891,-0.88964844,-0.38232422,0.25585938,0.4272461,0.061035156,-0.24414062,0.0,0.0,0.0,-55.98633,61.968384,-29.932251
1766498042979,-0.8852539,-0.3828125,0.2548828,0.0,-0.48828125,0.061035156,0.0,0.0,0.0,-55.98633,61.968384,-29.932251
1766498042991,-0.8852539,-0.3828125,0.2548828,0.0,-0.48828125,0.061035156,0.0,0.0,0.0,-55.96985,61.957397,-29.915771
1766498043079,-0.8886719,-0.38671875,0.25341797,0.0,-0.24414062,0.18310547,0.0,0.0,0.0,-55.96985,61.957397,-29.915771
1766498043091,-0.8886719,-0.38671875,0.25341797,0.0,-0.24414062,0.18310547,0.0,0.0,0.0,-55.914917,61.968384,-29.822388
1766498043179,-0.8847656,-0.38330078,0.25732422,0.24414062,0.48828125,-0.36621094,0.0,0.0,0.0,-55.914917,61.968384,-29.822388
1766498043190,-0.8847656,-0.38330078,0.25732422,0.24414062,0.48828125,-0.36621094,0.0,0.0,0.0,-55.980835,61.990356,-29.893799
1766498043278,-0.8886719,-0.38183594,0.2548828,-0.30517578,-0.36621094,-0.061035156,0.0,0.0,0.0,-55.980835,61.990356,-29.893799
1766498043290,-0.8886719,-0.38183594,0.2548828,-0.30517578,-0.36621094,-0.061035156,0.0,0.0,0.0,-55.980835,61.97937,-29.86084
1766498043378,-0.88964844,-0.38476562,0.25097656,0.0,-0.24414062,0.0,0.0,0.0,0.0,-55.980835,61.97937,-29.86084
1766498043390,-0.88964844,-0.38476562,0.25097656,0.0,-0.24414062,0.0,0.0,0.0,0.0,-55.96985,61.97937,-29.833374
1766498043478,-0.8808594,-0.38476562,0.25341797,0.8544922,1.4648438,-1.0986328,0.0,0.0,0.0,-55.96985,61.97937,-29.833374
1766498043490,-0.8808594,-0.38476562,0.25341797,0.8544922,1.4648438,-1.0986328,0.0,0.0,0.0,-56.035767,61.99585,-29.926758
1766498043578,-0.88720703,-0.38623047,0.2446289,-0.9765625,-0.8544922,0.12207031,0.0,0.0,0.0,-56.035767,61.99585,-29.926758
1766498043589,-0.88720703,-0.38623047,0.2446289,-0.9765625,-0.8544922,0.12207031,0.0,0.0,0.0,-56.0083,61.96289,-29.87732
1766498043677,-0.88964844,-0.38476562,0.25195312,0.4272461,-0.18310547,-0.18310547,0.0,0.0,0.0,-56.0083,61.96289,-29.87732
1766498043689,-0.88964844,-0.38476562,0.25195312,0.4272461,-0.18310547,-0.18310547,0.0,0.0,0.0,-56.063232,61.968384,-29.910278
1766498043777,-0.8833008,-0.38134766,0.25683594,0.30517578,-0.12207031,0.18310547,0.0,0.0,0.0,-56.063232,61.968384,-29.910278
1766498043789,-0.8833008,-0.38134766,0.25683594,0.30517578,-0.12207031,0.18310547,0.0,0.0,0.0,-56.046753,61.968384,-29.882812
1766498043877,-0.89208984,-0.38720703,0.25439453,0.30517578,0.18310547,-0.24414062,0.0,0.0,0.0,-56.046753,61.968384,-29.882812
1766498043888,-0.89208984,-0.38720703,0.25439453,0.30517578,0.18310547,-0.24414062,0.0,0.0,0.0,-55.95337,61.97937,-29.783936
1766498043976,-0.88378906,-0.38183594,0.25390625,0.24414062,0.4272461,-0.36621094,0.0,0.0,0.0,-55.95337,61.97937,-29.783936
1766498043988,-0.88378906,-0.38183594,0.25390625,0.24414062,0.4272461,-0.36621094,0.0,0.0,0.0,-55.99182,61.97937,-29.811401
1766498044076,-0.88720703,-0.38427734,0.25341797,-0.30517578,-0.7324219,0.0,0.0,0.0,0.0,-55.99182,61.97937,-29.811401
1766498044088,-0.88720703,-0.38427734,0.25341797,-0.30517578,-0.7324219,0.0,0.0,0.0,0.0,-55.964355,61.97937,-29.77295
1766498044176,-0.88916016,-0.38378906,0.25341797,0.36621094,-0.36621094,-0.12207031,0.0,0.0,0.0,-55.964355,61.97937,-29.77295
1766498044188,-0.88916016,-0.38378906,0.25341797,0.36621094,-0.36621094,-0.12207031,0.0,0.0,0.0,-55.898438,61.97937,-29.674072
1766498044276,-0.8808594,-0.38671875,0.25390625,1.2207031,0.61035156,-0.5493164,0.0,0.0,0.0,-55.898438,61.97937,-29.674072
1766498044287,-0.8808594,-0.38671875,0.25390625,1.2207031,0.61035156,-0.5493164,0.0,0.0,0.0,-55.909424,61.990356,-29.729004
1766498044375,-0.890625,-0.3857422,0.25,-0.12207031,-1.5869141,0.36621094,0.0,0.0,0.0,-55.909424,61.990356,-29.729004
1766498044387,-0.890625,-0.3857422,0.25,-0.12207031,-1.5869141,0.36621094,0.0,0.0,0.0,-55.881958,61.96289,-29.72351
1766498044475,-0.88427734,-0.38183594,0.25976562,1.0986328,0.48828125,-0.61035156,0.0,0.0,0.0,-55.881958,61.96289,-29.72351
1766498044487,-0.88427734,-0.38183594,0.25976562,1.0986328,0.48828125,-0.61035156,0.0,0.0,0.0,-55.876465,61.96289,-29.690552
1766498044575,-0.88623047,-0.38134766,0.25634766,0.0,-0.24414062,-0.12207031,0.0,0.0,0.0,-55.876465,61.96289,-29.690552
1766498044586,-0.88623047,-0.38134766,0.25634766,0.0,-0.24414062,-0.12207031,0.0,0.0,0.0,-55.86548,61.94641,-29.729004
1766498044675,-0.8886719,-0.3857422,0.2548828,0.12207031,-0.4272461,0.12207031,0.0,0.0,0.0,-55.86548,61.94641,-29.729004
1766498044686,-0.8886719,-0.3857422,0.2548828,0.12207031,-0.4272461,0.12207031,0.0,0.0,0.0,-55.78308,61.94641,-29.624634
1766498044775,-0.8881836,-0.3857422,0.25683594,0.18310547,0.48828125,-0.18310547,0.0,0.0,0.0,-55.78308,61.94641,-29.624634
1766498044786,-0.8881836,-0.3857422,0.25683594,0.18310547,0.48828125,-0.18310547,0.0,0.0,0.0,-55.79956,61.957397,-29.674072
1766498044875,-0.8886719,-0.38378906,0.25390625,0.5493164,0.24414062,-0.4272461,0.0,0.0,0.0,-55.79956,61.957397,-29.674072
1766498044886,-0.8886719,-0.38378906,0.25390625,0.5493164,0.24414062,-0.4272461,0.0,0.0,0.0,-55.838013,61.984863,-29.72351
1766498044974,-0.88671875,-0.38476562,0.25439453,-0.24414062,0.0,-0.18310547,0.0,0.0,0.0,-55.838013,61.984863,-29.72351
1766498044986,-0.88671875,-0.38476562,0.25439453,-0.24414062,0.0,-0.18310547,0.0,0.0,0.0,-55.898438,61.984863,-29.855347
1766498045073,-0.88916016,-0.38232422,0.25878906,0.7324219,0.8544922,-0.24414062,0.0,0.0,0.0,-55.898438,61.984863,-29.855347
1766498045085,-0.88916016,-0.38232422,0.25878906,0.7324219,0.8544922,-0.24414062,0.0,0.0,0.0,-56.030273,62.017822,-30.020142
1766498045173,-0.89160156,-0.38330078,0.2607422,-0.36621094,-0.8544922,0.0,0.0,0.0,0.0,-56.030273,62.017822,-30.020142
1766498045185,-0.89160156,-0.38330078,0.2607422,-0.36621094,-0.8544922,0.0,0.0,0.0,0.0,-56.123657,62.039795,-30.19043
1766498045273,-0.8808594,-0.37597656,0.25878906,0.24414062,1.4038086,-0.4272461,0.0,0.0,0.0,-56.123657,62.039795,-30.19043
1766498045285,-0.8808594,-0.37597656,0.25878906,0.24414062,1.4038086,-0.4272461,0.0,0.0,0.0,-56.134644,62.05078,-30.162964
1766498045373,-0.89208984,-0.38916016,0.24707031,0.30517578,0.79345703,-0.61035156,0.0,0.0,0.0,-56.134644,62.05078,-30.162964
1766498045384,-0.89208984,-0.38916016,0.24707031,0.30517578,0.79345703,-0.61035156,0.0,0.0,0.0,-56.19507,62.056274,-30.26184
1766498045472,-0.8828125,-0.3798828,0.25683594,0.12207031,-0.79345703,0.0,0.0,0.0,0.0,-56.19507,62.056274,-30.26184
1766498045484,-0.8828125,-0.3798828,0.25683594,0.12207031,-0.79345703,0.0,0.0,0.0,0.0,-56.189575,62.05078,-30.234375
1766498045572,-0.88964844,-0.38476562,0.2529297,0.5493164,0.4272461,-0.4272461,0.0,0.0,0.0,-56.189575,62.05078,-30.234375
1766498045584,-0.88964844,-0.38476562,0.2529297,0.5493164,0.4272461,-0.4272461,0.0,0.0,0.0,-56.151123,62.05078,-30.228882
1766498045672,-0.8852539,-0.38330078,0.25146484,0.0,-0.24414062,0.0,0.0,0.0,0.0,-56.151123,62.05078,-30.228882
1766498045683,-0.8852539,-0.38330078,0.25146484,0.0,-0.24414062,0.0,0.0,0.0,0.0,-56.156616,62.045288,-30.201416
1766498045772,-0.88378906,-0.38134766,0.25585938,-1.0986328,-1.4648438,0.6713867,0.0,0.0,0.0,-56.156616,62.045288,-30.201416
1766498045783,-0.88378906,-0.38134766,0.25585938,-1.0986328,-1.4648438,0.6713867,0.0,0.0,0.0,-55.964355,62.045288,-29.893799
1766498045871,-0.88183594,-0.37841797,0.25634766,-0.061035156,-0.36621094,-0.061035156,0.0,0.0,0.0,-55.964355,62.045288,-29.893799
1766498045883,-0.88183594,-0.37841797,0.25634766,-0.061035156,-0.36621094,-0.061035156,0.0,0.0,0.0,-55.876465,62.056274,-29.750977
1766498045971,-0.890625,-0.38085938,0.25341797,-0.5493164,-2.1362305,0.18310547,0.0,0.0,0.0,-55.876465,62.056274,-29.750977
1766498045983,-0.890625,-0.38085938,0.25341797,-0.5493164,-2.1362305,0.18310547,0.0,0.0,0.0,-55.733643,62.017822,-29.613647
1766498046071,-0.88623047,-0.3798828,0.25585938,0.4272461,-0.36621094,-0.18310547,0.0,0.0,0.0,-55.733643,62.017822,-29.613647
1766498046082,-0.88623047,-0.3798828,0.25585938,0.4272461,-0.36621094,-0.18310547,0.0,0.0,0.0,-55.475464,61.97937,-29.295044
1766498046171,-0.8925781,-0.38330078,0.2578125,0.79345703,0.48828125,-0.36621094,0.0,0.0,0.0,-55.475464,61.97937,-29.295044
1766498046182,-0.8925781,-0.38330078,0.2578125,0.79345703,0.48828125,-0.36621094,0.0,0.0,0.0,-55.43701,61.973877,-29.32251
1766498046270,-0.8808594,-0.38085938,0.2631836,0.30517578,0.18310547,-0.36621094,0.0,0.0,0.0,-55.43701,61.973877,-29.32251
1766498046282,-0.8808594,-0.38085938,0.2631836,0.30517578,0.18310547,-0.36621094,0.0,0.0,0.0,-55.464478,61.968384,-29.382935
1766498046370,-0.88916016,-0.38232422,0.2548828,0.18310547,-0.061035156,-0.12207031,0.0,0.0,0.0,-55.464478,61.968384,-29.382935
1766498046381,-0.88916016,-0.38232422,0.2548828,0.18310547,-0.061035156,-0.12207031,0.0,0.0,0.0,-55.305176,61.94641,-29.196167
1766498046470,-0.8876953,-0.3828125,0.25830078,-0.12207031,-0.4272461,-0.36621094,0.0,0.0,0.0,-55.305176,61.94641,-29.196167
1766498046481,-0.8876953,-0.3828125,0.25830078,-0.12207031,-0.4272461,-0.36621094,0.0,0.0,0.0,-55.38208,61.935425,-29.28955
1766498046569,-0.88378906,-0.37939453,0.26367188,0.24414062,0.30517578,-0.4272461,0.0,0.0,0.0,-55.38208,61.935425,-29.28955
1766498046581,-0.88378906,-0.37939453,0.26367188,0.24414062,0.30517578,-0.4272461,0.0,0.0,0.0,-55.409546,61.913452,-29.33899
1766498046669,-0.8886719,-0.38232422,0.25634766,0.4272461,0.12207031,-0.5493164,0.0,0.0,0.0,-55.409546,61.913452,-29.33899
1766498046681,-0.8886719,-0.38232422,0.25634766,0.4272461,0.12207031,-0.5493164,0.0,0.0,0.0,-55.43152,61.902466,-29.39392
1766498046769,-0.8808594,-0.38623047,0.2524414,0.30517578,1.3427734,-0.5493164,0.0,0.0,0.0,-55.43152,61.902466,-29.39392
1766498046780,-0.8808594,-0.38623047,0.2524414,0.30517578,1.3427734,-0.5493164,0.0,0.0,0.0,-55.563354,61.92444,-29.54773
1766498046869,-0.890625,-0.38427734,0.24902344,-0.18310547,-0.9765625,-0.36621094,0.0,0.0,0.0,-55.563354,61.92444,-29.54773
1766498046880,-0.890625,-0.38427734,0.24902344,-0.18310547,-0.9765625,-0.36621094,0.0,0.0,0.0,-55.62378,61.896973,-29.613647
1766498046968,-0.88720703,-0.38623047,0.25927734,0.61035156,0.4272461,-0.5493164,0.0,0.0,0.0,-55.62378,61.896973,-29.613647
1766498046980,-0.88720703,-0.38623047,0.25927734,0.61035156,0.4272461,-0.5493164,0.0,0.0,0.0,-55.788574,61.90796,-29.855347
1766498047068,-0.88427734,-0.38183594,0.25683594,-0.061035156,0.061035156,0.0,0.0,0.0,0.0,-55.788574,61.90796,-29.855347
1766498047080,-0.88427734,-0.38183594,0.25683594,-0.061035156,0.061035156,0.0,0.0,0.0,0.0,-55.79956,61.896973,-29.855347
1766498047168,-0.88916016,-0.38427734,0.25390625,0.48828125,0.0,-0.12207031,0.0,0.0,0.0,-55.79956,61.896973,-29.855347
1766498047179,-0.88916016,-0.38427734,0.25390625,0.48828125,0.0,-0.12207031,0.0,0.0,0.0,-55.74463,61.902466,-29.761963
1766498047267,-0.8847656,-0.3857422,0.25878906,-0.061035156,0.36621094,-0.48828125,0.0,0.0,0.0,-55.74463,61.902466,-29.761963
1766498047279,-0.8847656,-0.3857422,0.25878906,-0.061035156,0.36621094,-0.48828125,0.0,0.0,0.0,-55.827026,61.90796,-29.86084
1766498047367,-0.88720703,-0.3828125,0.25732422,0.18310547,-0.061035156,-0.18310547,0.0,0.0,0.0,-55.827026,61.90796,-29.86084
1766498047379,-0.88720703,-0.3828125,0.25732422,0.18310547,-0.061035156,-0.18310547,0.0,0.0,0.0,-55.859985,61.902466,-29.87732
1766498047467,-0.8876953,-0.38427734,0.25683594,0.30517578,-0.061035156,-0.18310547,0.0,0.0,0.0,-55.859985,61.902466,-29.87732
1766498047479,-0.8876953,-0.38427734,0.25683594,0.30517578,-0.061035156,-0.18310547,0.0,0.0,0.0,-55.821533,61.902466,-29.838867
1766498047567,-0.8847656,-0.38378906,0.25878906,0.30517578,0.24414062,-0.30517578,0.0,0.0,0.0,-55.821533,61.902466,-29.838867
1766498047579,-0.8847656,-0.38378906,0.25878906,0.30517578,0.24414062,-0.30517578,0.0,0.0,0.0,-55.827026,61.913452,-29.84436
1766498047666,-0.88916016,-0.3876953,0.25878906,0.0,-1.3427734,0.24414062,0.0,0.0,0.0,-55.827026,61.913452,-29.84436
1766498047678,-0.88916016,-0.3876953,0.25878906,0.0,-1.3427734,0.24414062,0.0,0.0,0.0,-55.88745,61.90796,-29.932251
1766498047766,-0.8828125,-0.38085938,0.26416016,0.48828125,0.36621094,-0.4272461,0.0,0.0,0.0,-55.88745,61.90796,-29.932251
1766498047778,-0.8828125,-0.38085938,0.26416016,0.48828125,0.36621094,-0.4272461,0.0,0.0,0.0,-55.81604,61.896973,-29.805908
1766498047866,-0.8857422,-0.38232422,0.25585938,-0.12207031,0.0,0.0,0.0,0.0,0.0,-55.81604,61.896973,-29.805908
1766498047878,-0.8857422,-0.38232422,0.25585938,-0.12207031,0.0,0.0,0.0,0.0,0.0,-55.79956,61.902466,-29.800415
1766498047966,-0.88720703,-0.3852539,0.2548828,-0.24414062,-0.9765625,0.4272461,0.0,0.0,0.0,-55.79956,61.902466,-29.800415
1766498047977,-0.88720703,-0.3852539,0.2548828,-0.24414062,-0.9765625,0.4272461,0.0,0.0,0.0,-55.717163,61.918945,-29.674072
1766498048065,-0.88671875,-0.38378906,0.25830078,0.48828125,0.48828125,-0.5493164,0.0,0.0,0.0,-55.717163,61.918945,-29.674072
1766498048077,-0.88671875,-0.38378906,0.25830078,0.48828125,0.48828125,-0.5493164,0.0,0.0,0.0,-55.67871,61.918945,-29.630127
1766498048165,-0.88720703,-0.38378906,0.25830078,-0.061035156,-0.12207031,-0.061035156,0.0,0.0,0.0,-55.67871,61.918945,-29.630127
1766498048177,-0.88720703,-0.38378906,0.25830078,-0.061035156,-0.12207031,-0.061035156,0.0,0.0,0.0,-55.733643,61.92993,-29.701538
1766498048265,-0.8876953,-0.38232422,0.25732422,0.0,-0.36621094,0.24414062,0.0,0.0,0.0,-55.733643,61.92993,-29.701538
1766498048276,-0.8876953,-0.38232422,0.25732422,0.0,-0.36621094,0.24414062,0.0,0.0,0.0,-55.67871,61.94641,-29.630127
1766498048364,-0.88916016,-0.38623047,0.24902344,0.4272461,0.9765625,-0.5493164,0.0,0.0,0.0,-55.67871,61.94641,-29.630127
1766498048376,-0.88916016,-0.38623047,0.24902344,0.4272461,0.9765625,-0.5493164,0.0,0.0,0.0,-55.74463,61.973877,-29.761963
1766498048464,-0.88720703,-0.38085938,0.2602539,1.0375977,1.159668,-1.159668,0.0,0.0,0.0,-55.74463,61.973877,-29.761963
1766498048476,-0.88720703,-0.38085938,0.2602539,1.0375977,1.159668,-1.159668,0.0,0.0,0.0,-55.93689,61.990356,-30.0531
1766498048564,-0.88720703,-0.38134766,0.2529297,0.0,1.0986328,-0.18310547,0.0,0.0,0.0,-55.93689,61.990356,-30.0531
1766498048575,-0.88720703,-0.38134766,0.2529297,0.0,1.0986328,-0.18310547,0.0,0.0,0.0,-55.881958,61.97937,-29.970703
1766498048664,-0.89404297,-0.38671875,0.25,1.3427734,0.6713867,-0.48828125,0.0,0.0,0.0,-55.881958,61.97937,-29.970703
1766498048675,-0.89404297,-0.38671875,0.25,1.3427734,0.6713867,-0.48828125,0.0,0.0,0.0,-55.90393,61.99585,-30.042114
1766498048763,-0.88134766,-0.37695312,0.26464844,1.7089844,0.91552734,-0.4272461,0.0,0.0,0.0,-55.90393,61.99585,-30.042114
1766498048775,-0.88134766,-0.37695312,0.26464844,1.7089844,0.91552734,-0.4272461,0.0,0.0,0.0,-56.002808,62.023315,-30.217896
1766498048863,-0.8823242,-0.3852539,0.24511719,0.24414062,1.0986328,-0.5493164,0.0,0.0,0.0,-56.002808,62.023315,-30.217896
1766498048874,-0.8823242,-0.3852539,0.24511719,0.24414062,1.0986328,-0.5493164,0.0,0.0,0.0,-55.99182,62.039795,-30.344238
1766498048963,-0.88427734,-0.3798828,0.25097656,-0.18310547,-0.6713867,0.0,0.0,0.0,0.0,-55.99182,62.039795,-30.344238
1766498048974,-0.88427734,-0.3798828,0.25097656,-0.18310547,-0.6713867,0.0,0.0,0.0,0.0,-55.98633,62.01233,-30.239868
1766498049062,-0.8833008,-0.37939453,0.26220703,-0.9765625,-2.380371,0.91552734,0.0,0.0,0.0,-55.98633,62.01233,-30.239868
1766498049074,-0.8833008,-0.37939453,0.26220703,-0.9765625,-2.380371,0.91552734,0.0,0.0,0.0,-55.74463,61.99585,-29.811401
1766498049162,-0.88916016,-0.38085938,0.25976562,-0.30517578,-0.5493164,0.061035156,0.0,0.0,0.0,-55.74463,61.99585,-29.811401
1766498049174,-0.88916016,-0.38085938,0.25976562,-0.30517578,-0.5493164,0.061035156,0.0,0.0,0.0,-55.568848,61.990356,-29.536743
1766498049262,-0.88183594,-0.38183594,0.25439453,1.3427734,0.48828125,-0.5493164,0.0,0.0,0.0,-55.568848,61.990356,-29.536743
1766498049273,-0.88183594,-0.38183594,0.25439453,1.3427734,0.48828125,-0.5493164,0.0,0.0,0.0,-55.55786,61.97937,-29.553223
1766498049362,-0.88671875,-0.3828125,0.25,0.24414062,-0.18310547,-0.4272461,0.0,0.0,0.0,-55.55786,61.97937,-29.553223
1766498049373,-0.88671875,-0.3828125,0.25,0.24414062,-0.18310547,-0.4272461,0.0,0.0,0.0,-55.426025,61.918945,-29.382935
1766498049461,-0.88720703,-0.38134766,0.2607422,0.61035156,-0.061035156,-0.30517578,0.0,0.0,0.0,-55.426025,61.918945,-29.382935
1766498049473,-0.88720703,-0.38134766,0.2607422,0.61035156,-0.061035156,-0.30517578,0.0,0.0,0.0,-55.420532,61.896973,-29.360962
1766498049561,-0.8808594,-0.38134766,0.26611328,-0.061035156,-0.4272461,-0.12207031,0.0,0.0,0.0,-55.420532,61.896973,-29.360962
1766498049573,-0.8808594,-0.38134766,0.26611328,-0.061035156,-0.4272461,-0.12207031,0.0,0.0,0.0,-55.387573,61.89148,-29.33899
1766498049661,-0.88916016,-0.38427734,0.25683594,0.061035156,-0.4272461,-0.061035156,0.0,0.0,0.0,-55.387573,61.89148,-29.33899
1766498049672,-0.88916016,-0.38427734,0.25683594,0.061035156,-0.4272461,-0.061035156,0.0,0.0,0.0,-55.266724,61.869507,-29.21814
1766498049761,-0.8847656,-0.38378906,0.25976562,0.24414062,-0.4272461,-0.061035156,0.0,0.0,0.0,-55.266724,61.869507,-29.21814
1766498049772,-0.8847656,-0.38378906,0.25976562,0.24414062,-0.4272461,-0.061035156,0.0,0.0,0.0,-55.250244,61.853027,-29.223633
1766498049860,-0.88623047,-0.3803711,0.2631836,0.0,-0.061035156,-0.061035156,0.0,0.0,0.0,-55.250244,61.853027,-29.223633
1766498049872,-0.88623047,-0.3803711,0.2631836,0.0,-0.061035156,-0.061035156,0.0,0.0,0.0,-55.211792,61.847534,-29.163208
1766498049960,-0.8852539,-0.38134766,0.2631836,0.18310547,0.0,-0.18310547,0.0,0.0,0.0,-55.211792,61.847534,-29.163208
1766498049972,-0.8852539,-0.38134766,0.2631836,0.18310547,0.0,-0.18310547,0.0,0.0,0.0,-55.178833,61.853027,-29.135742
1766498050060,-0.8876953,-0.38134766,0.26513672,0.12207031,0.5493164,-0.48828125,0.0,0.0,0.0,-55.178833,61.853027,-29.135742
1766498050071,-0.8876953,-0.38134766,0.26513672,0.12207031,0.5493164,-0.48828125,0.0,0.0,0.0,-55.211792,61.864014,-29.20166
1766498050159,-0.8886719,-0.38085938,0.2685547,0.36621094,-0.24414062,-0.61035156,0.0,0.0,0.0,-55.211792,61.864014,-29.20166
1766498050171,-0.8886719,-0.38085938,0.2685547,0.36621094,-0.24414062,-0.61035156,0.0,0.0,0.0,-55.33264,61.869507,-29.421387
1766498050259,-0.88134766,-0.37890625,0.26464844,-0.12207031,1.0986328,-0.5493164,0.0,0.0,0.0,-55.33264,61.869507,-29.421387
1766498050271,-0.88134766,-0.37890625,0.26464844,-0.12207031,1.0986328,-0.5493164,0.0,0.0,0.0,-55.338135,61.864014,-29.415894
1766498050359,-0.8911133,-0.38720703,0.25585938,0.30517578,0.4272461,-0.48828125,0.0,0.0,0.0,-55.338135,61.864014,-29.415894
1766498050371,-0.8911133,-0.38720703,0.25585938,0.30517578,0.4272461,-0.48828125,0.0,0.0,0.0,-55.393066,61.875,-29.553223
1766498050459,-0.88427734,-0.3828125,0.26171875,0.061035156,0.0,-0.24414062,0.0,0.0,0.0,-55.393066,61.875,-29.553223
1766498050471,-0.88427734,-0.3828125,0.26171875,0.061035156,0.0,-0.24414062,0.0,0.0,0.0,-55.426025,61.869507,-29.591675
1766498050558,-0.8881836,-0.38427734,0.25585938,0.24414062,0.36621094,-0.4272461,0.0,0.0,0.0,-55.426025,61.869507,-29.591675
1766498050570,-0.8881836,-0.38427734,0.25585938,0.24414062,0.36621094,-0.4272461,0.0,0.0,0.0,-55.442505,61.875,-29.597168
1766498050658,-0.88623047,-0.38427734,0.25683594,0.061035156,-0.061035156,-0.30517578,0.0,0.0,0.0,-55.442505,61.875,-29.597168
1766498050669,-0.88623047,-0.38427734,0.25683594,0.061035156,-0.061035156,-0.30517578,0.0,0.0,0.0,-55.55786,61.875,-29.72351
1766498050758,-0.88720703,-0.38232422,0.25976562,0.12207031,-0.061035156,-0.12207031,0.0,0.0,0.0,-55.55786,61.875,-29.72351
1766498050769,-0.88720703,-0.38232422,0.25976562,0.12207031,-0.061035156,-0.12207031,0.0,0.0,0.0,-55.55786,61.885986,-29.707031
1766498050857,-0.8876953,-0.3857422,0.2548828,0.24414062,0.30517578,-0.12207031,0.0,0.0,0.0,-55.55786,61.885986,-29.707031
1766498050869,-0.8876953,-0.3857422,0.2548828,0.24414062,0.30517578,-0.12207031,0.0,0.0,0.0,-55.579834,61.89148,-29.729004
1766498050957,-0.87939453,-0.38330078,0.25390625,1.159668,1.2207031,-0.79345703,0.0,0.0,0.0,-55.579834,61.89148,-29.729004
1766498050969,-0.87939453,-0.38330078,0.25390625,1.159668,1.2207031,-0.79345703,0.0,0.0,0.0,-55.667725,61.918945,-29.838867
1766498051057,-0.88964844,-0.38720703,0.24707031,-0.6713867,-1.4038086,0.36621094,0.0,0.0,0.0,-55.667725,61.918945,-29.838867
1766498051068,-0.88964844,-0.38720703,0.24707031,-0.6713867,-1.4038086,0.36621094,0.0,0.0,0.0,-55.612793,61.885986,-29.783936
1766498051157,-0.88623047,-0.3828125,0.25830078,0.6713867,0.061035156,-0.12207031,0.0,0.0,0.0,-55.612793,61.885986,-29.783936
1766498051168,-0.88623047,-0.3828125,0.25830078,0.6713867,0.061035156,-0.12207031,0.0,0.0,0.0,-55.69519,61.90796,-29.84436
1766498051256,-0.88427734,-0.38183594,0.25830078,0.12207031,-0.12207031,-0.061035156,0.0,0.0,0.0,-55.69519,61.90796,-29.84436
1766498051268,-0.88427734,-0.38183594,0.25830078,0.12207031,-0.12207031,-0.061035156,0.0,0.0,0.0,-55.667725,61.902466,-29.811401
1766498051356,-0.8876953,-0.38476562,0.2553711,0.18310547,-0.24414062,0.0,0.0,0.0,0.0,-55.667725,61.902466,-29.811401
1766498051368,-0.8876953,-0.38476562,0.2553711,0.18310547,-0.24414062,0.0,0.0,0.0,0.0,-55.585327,61.902466,-29.690552
1766498051456,-0.8857422,-0.38378906,0.25927734,0.24414062,0.30517578,-0.30517578,0.0,0.0,0.0,-55.585327,61.902466,-29.690552
1766498051467,-0.8857422,-0.38378906,0.25927734,0.24414062,0.30517578,-0.30517578,0.0,0.0,0.0,-55.618286,61.902466,-29.734497
1766498051555,-0.8852539,-0.38183594,0.25927734,-0.061035156,-0.4272461,0.0,0.0,0.0,0.0,-55.618286,61.902466,-29.734497
1766498051567,-0.8852539,-0.38183594,0.25927734,-0.061035156,-0.4272461,0.0,0.0,0.0,0.0,-55.601807,61.90796,-29.685059
1766498051655,-0.88720703,-0.38232422,0.2602539,-0.061035156,-0.30517578,0.0,0.0,0.0,0.0,-55.601807,61.90796,-29.685059
1766498051667,-0.88720703,-0.38232422,0.2602539,-0.061035156,-0.30517578,0.0,0.0,0.0,0.0,-55.53589,61.90796,-29.580688
1766498051755,-0.88623047,-0.38183594,0.26171875,0.30517578,0.4272461,-0.30517578,0.0,0.0,0.0,-55.53589,61.90796,-29.580688
1766498051767,-0.88623047,-0.38183594,0.26171875,0.30517578,0.4272461,-0.30517578,0.0,0.0,0.0,-55.546875,61.918945,-29.591675
1766498051855,-0.8901367,-0.38378906,0.26416016,0.18310547,-0.7324219,-0.24414062,0.0,0.0,0.0,-55.546875,61.918945,-29.591675
1766498051866,-0.8901367,-0.38378906,0.26416016,0.18310547,-0.7324219,-0.24414062,0.0,0.0,0.0,-55.579834,61.902466,-29.6521
1766498051954,-0.8828125,-0.37939453,0.26708984,0.18310547,0.8544922,-0.30517578,0.0,0.0,0.0,-55.579834,61.902466,-29.6521
1766498051966,-0.8828125,-0.37939453,0.26708984,0.18310547,0.8544922,-0.30517578,0.0,0.0,0.0,-55.546875,61.902466,-29.558716
1766498052054,-0.88964844,-0.3881836,0.2548828,0.12207031,0.30517578,-0.30517578,0.0,0.0,0.0,-55.546875,61.902466,-29.558716
1766498052066,-0.88964844,-0.3881836,0.2548828,0.12207031,0.30517578,-0.30517578,0.0,0.0,0.0,-55.563354,61.90796,-29.630127
1766498052154,-0.88671875,-0.38330078,0.25830078,0.30517578,-0.36621094,0.061035156,0.0,0.0,0.0,-55.563354,61.90796,-29.630127
1766498052166,-0.88671875,-0.38330078,0.25830078,0.30517578,-0.36621094,0.061035156,0.0,0.0,0.0,-55.59082,61.92444,-29.6521
1766498052254,-0.88916016,-0.38476562,0.2524414,0.8544922,0.7324219,-0.8544922,0.0,0.0,0.0,-55.59082,61.92444,-29.6521
1766498052265,-0.88916016,-0.38476562,0.2524414,0.8544922,0.7324219,-0.8544922,0.0,0.0,0.0,-55.568848,61.92444,-29.690552
1766498052354,-0.8881836,-0.3803711,0.2553711,0.61035156,-0.12207031,-0.18310547,0.0,0.0,0.0,-55.568848,61.92444,-29.690552
1766498052365,-0.8881836,-0.3803711,0.2553711,0.61035156,-0.12207031,-0.18310547,0.0,0.0,0.0,-55.65674,61.935425,-29.82788
1766498052453,-0.88671875,-0.38134766,0.25976562,0.12207031,-0.061035156,-0.061035156,0.0,0.0,0.0,-55.65674,61.935425,-29.82788
1766498052465,-0.88671875,-0.38134766,0.25976562,0.12207031,-0.061035156,-0.061035156,0.0,0.0,0.0,-55.634766,61.94641,-29.794922
1766498052553,-0.8901367,-0.3828125,0.25439453,0.48828125,0.061035156,-0.061035156,0.0,0.0,0.0,-55.634766,61.94641,-29.794922
1766498052565,-0.8901367,-0.3828125,0.25439453,0.48828125,0.061035156,-0.061035156,0.0,0.0,0.0,-55.59082,61.951904,-29.75647
1766498052653,-0.87890625,-0.38085938,0.25732422,1.8310547,0.61035156,-0.6713867,0.0,0.0,0.0,-55.59082,61.951904,-29.75647
1766498052664,-0.87890625,-0.38085938,0.25732422,1.8310547,0.61035156,-0.6713867,0.0,0.0,0.0,-55.6073,61.973877,-29.805908
1766498052752,-0.8911133,-0.3852539,0.25097656,0.18310547,-0.5493164,-0.061035156,0.0,0.0,0.0,-55.6073,61.973877,-29.805908
1766498052764,-0.8911133,-0.3852539,0.25097656,0.18310547,-0.5493164,-0.061035156,0.0,0.0,0.0,-55.513916,61.92993,-29.701538
1766498052852,-0.8886719,-0.3828125,0.2607422,0.4272461,0.0,-0.24414062,0.0,0.0,0.0,-55.513916,61.92993,-29.701538
1766498052864,-0.8886719,-0.3828125,0.2607422,0.4272461,0.0,-0.24414062,0.0,0.0,0.0,-55.568848,61.94641,-29.745483
1766498052952,-0.88427734,-0.38085938,0.26171875,-0.12207031,-0.36621094,-0.18310547,0.0,0.0,0.0,-55.568848,61.94641,-29.745483
1766498052963,-0.88427734,-0.38085938,0.26171875,-0.12207031,-0.36621094,-0.18310547,0.0,0.0,0.0,-55.596313,61.951904,-29.750977
1766498053052,-0.8901367,-0.3857422,0.2524414,0.36621094,0.18310547,-0.18310547,0.0,0.0,0.0,-55.596313,61.951904,-29.750977
1766498053063,-0.8901367,-0.3857422,0.2524414,0.36621094,0.18310547,-0.18310547,0.0,0.0,0.0,-55.524902,61.940918,-29.663086
1766498053152,-0.8857422,-0.3803711,0.25830078,-0.061035156,0.18310547,-0.18310547,0.0,0.0,0.0,-55.524902,61.940918,-29.663086
1766498053163,-0.8857422,-0.3803711,0.25830078,-0.061035156,0.18310547,-0.18310547,0.0,0.0,0.0,-55.64026,61.957397,-29.778442
1766498053251,-0.8847656,-0.38134766,0.2602539,0.0,-0.48828125,-0.061035156,0.0,0.0,0.0,-55.64026,61.957397,-29.778442
1766498053262,-0.8847656,-0.38134766,0.2602539,0.0,-0.48828125,-0.061035156,0.0,0.0,0.0,-55.651245,61.96289,-29.750977
1766498053351,-0.88623047,-0.37939453,0.26220703,0.18310547,-0.36621094,0.12207031,0.0,0.0,0.0,-55.651245,61.96289,-29.750977
1766498053362,-0.88623047,-0.37939453,0.26220703,0.18310547,-0.36621094,0.12207031,0.0,0.0,0.0,-55.513916,61.951904,-29.542236
1766498053450,-0.88134766,-0.38330078,0.25878906,0.8544922,0.36621094,-0.48828125,0.0,0.0,0.0,-55.513916,61.951904,-29.542236
1766498053462,-0.88134766,-0.38330078,0.25878906,0.8544922,0.36621094,-0.48828125,0.0,0.0,0.0,-55.48645,61.96289,-29.509277
1766498053550,-0.88964844,-0.38427734,0.25830078,0.36621094,-0.79345703,-0.061035156,0.0,0.0,0.0,-55.48645,61.96289,-29.509277
1766498053562,-0.88964844,-0.38427734,0.25830078,0.36621094,-0.79345703,-0.061035156,0.0,0.0,0.0,-55.409546,61.92993,-29.437866
1766498053650,-0.8852539,-0.3803711,0.26367188,0.24414062,-0.36621094,0.0,0.0,0.0,0.0,-55.409546,61.92993,-29.437866
1766498053661,-0.8852539,-0.3803711,0.26367188,0.24414062,-0.36621094,0.0,0.0,0.0,0.0,-55.43152,61.940918,-29.481812
1766498053750,-0.8828125,-0.37939453,0.25732422,0.91552734,0.30517578,-0.4272461,0.0,0.0,0.0,-55.43152,61.940918,-29.481812
1766498053761,-0.8828125,-0.37939453,0.25732422,0.91552734,0.30517578,-0.4272461,0.0,0.0,0.0,-55.420532,61.96289,-29.525757
1766498053849,-0.8833008,-0.3876953,0.25878906,1.0375977,-0.79345703,-0.30517578,0.0,0.0,0.0,-55.420532,61.96289,-29.525757
1766498053861,-0.8833008,-0.3876953,0.25878906,1.0375977,-0.79345703,-0.30517578,0.0,0.0,0.0,-55.3656,61.940918,-29.575195
1766498053949,-0.88964844,-0.3803711,0.26757812,1.7089844,-0.79345703,-0.24414062,0.0,0.0,0.0,-55.3656,61.940918,-29.575195
1766498053960,-0.88964844,-0.3803711,0.26757812,1.7089844,-0.79345703,-0.24414062,0.0,0.0,0.0,-55.090942,61.85852,-29.399414
1766498054049,-0.8857422,-0.38134766,0.25976562,-1.159668,-0.5493164,0.7324219,0.0,0.0,0.0,-55.090942,61.85852,-29.399414
1766498054060,-0.8857422,-0.38134766,0.25976562,-1.159668,-0.5493164,0.7324219,0.0,0.0,0.0,-55.025024,61.90796,-29.317017
1766498054148,-0.8847656,-0.37890625,0.26464844,-0.12207031,1.159668,-0.12207031,0.0,0.0,0.0,-55.025024,61.90796,-29.317017
1766498054160,-0.8847656,-0.37890625,0.26464844,-0.12207031,1.159668,-0.12207031,0.0,0.0,0.0,-55.17334,61.973877,-29.39392
1766498054248,-0.8886719,-0.38183594,0.26123047,0.12207031,0.48828125,-0.5493164,0.0,0.0,0.0,-55.17334,61.973877,-29.39392
1766498054260,-0.8886719,-0.38183594,0.26123047,0.12207031,0.48828125,-0.5493164,0.0,0.0,0.0,-55.145874,61.957397,-29.300537
1766498054348,-0.8823242,-0.38378906,0.25634766,0.79345703,1.953125,-1.159668,0.0,0.0,0.0,-55.145874,61.957397,-29.300537
1766498054359,-0.8823242,-0.38378906,0.25634766,0.79345703,1.953125,-1.159668,0.0,0.0,0.0,-55.321655,61.951904,-29.525757
1766498054447,-0.8886719,-0.38378906,0.24902344,-1.3427734,-0.9765625,0.6713867,0.0,0.0,0.0,-55.321655,61.951904,-29.525757
1766498054459,-0.8886719,-0.38378906,0.24902344,-1.3427734,-0.9765625,0.6713867,0.0,0.0,0.0,-55.33264,61.957397,-29.503784
1766498054548,-0.8886719,-0.38134766,0.25830078,0.48828125,0.0,-0.18310547,0.0,0.0,0.0,-55.33264,61.957397,-29.503784
1766498054559,-0.8886719,-0.38134766,0.25830078,0.48828125,0.0,-0.18310547,0.0,0.0,0.0,-55.45349,61.99585,-29.630127
1766498054647,-0.8857422,-0.37890625,0.26123047,0.0,-0.12207031,-0.12207031,0.0,0.0,0.0,-55.45349,61.99585,-29.630127
1766498054659,-0.8857422,-0.37890625,0.26123047,0.0,-0.12207031,-0.12207031,0.0,0.0,0.0,-55.447998,61.990356,-29.613647
1766498054747,-0.8881836,-0.3828125,0.25585938,0.48828125,0.24414062,-0.4272461,0.0,0.0,0.0,-55.447998,61.990356,-29.613647
1766498054758,-0.8881836,-0.3828125,0.25585938,0.48828125,0.24414062,-0.4272461,0.0,0.0,0.0,-55.41504,61.984863,-29.569702
1766498054847,-0.88671875,-0.38183594,0.25878906,0.48828125,0.48828125,-0.7324219,0.0,0.0,0.0,-55.41504,61.984863,-29.569702
1766498054858,-0.88671875,-0.38183594,0.25878906,0.48828125,0.48828125,-0.7324219,0.0,0.0,0.0,-55.51941,61.97937,-29.718018
1766498054946,-0.8857422,-0.38330078,0.25732422,-0.24414062,-0.36621094,0.0,0.0,0.0,0.0,-55.51941,61.97937,-29.718018
1766498054958,-0.8857422,-0.38330078,0.25732422,-0.24414062,-0.36621094,0.0,0.0,0.0,0.0,-55.55237,61.96289,-29.767456
1766498055046,-0.8876953,-0.38134766,0.2602539,0.12207031,0.061035156,-0.30517578,0.0,0.0,0.0,-55.55237,61.96289,-29.767456
1766498055057,-0.8876953,-0.38134766,0.2602539,0.12207031,0.061035156,-0.30517578,0.0,0.0,0.0,-55.54138,61.968384,-29.72351
1766498055146,-0.88623047,-0.3798828,0.25976562,0.36621094,0.061035156,-0.24414062,0.0,0.0,0.0,-55.54138,61.968384,-29.72351
1766498055158,-0.88623047,-0.3798828,0.25976562,0.36621094,0.061035156,-0.24414062,0.0,0.0,0.0,-55.563354,61.973877,-29.73999
1766498055246,-0.89160156,-0.38232422,0.2626953,0.6713867,-0.36621094,-0.6713867,0.0,0.0,0.0,-55.563354,61.973877,-29.73999
1766498055258,-0.89160156,-0.38232422,0.2626953,0.6713867,-0.36621094,-0.6713867,0.0,0.0,0.0,-55.673218,61.94641,-29.899292
1766498055345,-0.8828125,-0.3774414,0.26513672,0.48828125,0.9765625,-0.48828125,0.0,0.0,0.0,-55.673218,61.94641,-29.899292
1766498055356,-0.8828125,-0.3774414,0.26513672,0.48828125,0.9765625,-0.48828125,0.0,0.0,0.0,-55.629272,61.935425,-29.811401
1766498055445,-0.8935547,-0.38916016,0.25048828,-0.061035156,0.30517578,-0.48828125,0.0,0.0,0.0,-55.629272,61.935425,-29.811401
1766498055456,-0.8935547,-0.38916016,0.25048828,-0.061035156,0.30517578,-0.48828125,0.0,0.0,0.0,-55.66223,61.935425,-29.888306
1766498055545,-0.88183594,-0.37841797,0.26416016,-0.24414062,-0.91552734,0.18310547,0.0,0.0,0.0,-55.66223,61.935425,-29.888306
1766498055556,-0.88183594,-0.37841797,0.26416016,-0.24414062,-0.91552734,0.18310547,0.0,0.0,0.0,-55.722656,61.94641,-29.893799
1766498055644,-0.8911133,-0.38671875,0.2548828,0.4272461,-0.18310547,-0.18310547,0.0,0.0,0.0,-55.722656,61.94641,-29.893799
1766498055656,-0.8911133,-0.38671875,0.2548828,0.4272461,-0.18310547,-0.18310547,0.0,0.0,0.0,-55.508423,61.918945,-29.674072
1766498055744,-0.8847656,-0.38330078,0.25439453,0.061035156,0.36621094,-0.24414062,0.0,0.0,0.0,-55.508423,61.918945,-29.674072
1766498055755,-0.8847656,-0.38330078,0.25439453,0.061035156,0.36621094,-0.24414062,0.0,0.0,0.0,-55.59082,61.92993,-29.767456
1766498055844,-0.88623047,-0.38183594,0.25976562,0.061035156,-0.5493164,0.0,0.0,0.0,0.0,-55.59082,61.92993,-29.767456
1766498055855,-0.88623047,-0.38183594,0.25976562,0.061035156,-0.5493164,0.0,0.0,0.0,0.0,-55.59082,61.935425,-29.72351
1766498055943,-0.89697266,-0.38085938,0.25683594,1.2817383,0.0,-0.61035156,0.0,0.0,0.0,-55.59082,61.935425,-29.72351
1766498055955,-0.89697266,-0.38085938,0.25683594,1.2817383,0.0,-0.61035156,0.0,0.0,0.0,-55.426025,61.864014,-29.553223
1766498056043,-0.8828125,-0.38427734,0.25634766,0.79345703,0.91552734,-0.061035156,0.0,0.0,0.0,-55.426025,61.864014,-29.553223
1766498056055,-0.8828125,-0.38427734,0.25634766,0.79345703,0.91552734,-0.061035156,0.0,0.0,0.0,-55.442505,61.918945,-29.602661
1766498056143,-0.8876953,-0.3881836,0.24658203,0.12207031,-1.7089844,0.24414062,0.0,0.0,0.0,-55.442505,61.918945,-29.602661
1766498056155,-0.8876953,-0.3881836,0.24658203,0.12207031,-1.7089844,0.24414062,0.0,0.0,0.0,-55.371094,61.902466,-29.61914
1766498056243,-0.8798828,-0.3828125,0.26513672,2.1972656,0.30517578,-0.91552734,0.0,0.0,0.0,-55.371094,61.902466,-29.61914
1766498056254,-0.8798828,-0.3828125,0.26513672,2.1972656,0.30517578,-0.91552734,0.0,0.0,0.0,-55.420532,61.885986,-29.734497
1766498056342,-0.88623047,-0.3803711,0.2602539,0.12207031,0.0,-0.12207031,0.0,0.0,0.0,-55.420532,61.885986,-29.734497
1766498056354,-0.88623047,-0.3803711,0.2602539,0.12207031,0.0,-0.12207031,0.0,0.0,0.0,-55.371094,61.875,-29.701538
1766498056442,-0.88916016,-0.38427734,0.25976562,0.5493164,-1.0986328,0.12207031,0.0,0.0,0.0,-55.371094,61.875,-29.701538
1766498056454,-0.88916016,-0.38427734,0.25976562,0.5493164,-1.0986328,0.12207031,0.0,0.0,0.0,-55.22278,61.847534,-29.569702
1766498056542,-0.8857422,-0.38183594,0.26513672,0.0,-0.36621094,0.0,0.0,0.0,0.0,-55.22278,61.847534,-29.569702
1766498056553,-0.8857422,-0.38183594,0.26513672,0.0,-0.36621094,0.0,0.0,0.0,0.0,-55.14038,61.847534,-29.498291
1766498056641,-0.88671875,-0.3803711,0.26464844,0.061035156,-0.24414062,-0.18310547,0.0,0.0,0.0,-55.14038,61.847534,-29.498291
1766498056653,-0.88671875,-0.3803711,0.26464844,0.061035156,-0.24414062,-0.18310547,0.0,0.0,0.0,-55.096436,61.836548,-29.437866
1766498056741,-0.8847656,-0.3803711,0.26464844,-0.12207031,0.12207031,-0.061035156,0.0,0.0,0.0,-55.096436,61.836548,-29.437866
1766498056753,-0.8847656,-0.3803711,0.26464844,-0.12207031,0.12207031,-0.061035156,0.0,0.0,0.0,-55.046997,61.836548,-29.377441
1766498056841,-0.8881836,-0.38085938,0.26464844,-0.12207031,0.18310547,-0.18310547,0.0,0.0,0.0,-55.046997,61.836548,-29.377441
1766498056853,-0.8881836,-0.38085938,0.26464844,-0.12207031,0.18310547,-0.18310547,0.0,0.0,0.0,-55.046997,61.836548,-29.371948
1766498056941,-0.89160156,-0.38427734,0.26953125,-0.91552734,-1.4038086,0.0,0.0,0.0,0.0,-55.046997,61.836548,-29.371948
1766498056952,-0.89160156,-0.38427734,0.26953125,-0.91552734,-1.4038086,0.0,0.0,0.0,0.0,-55.041504,61.82556,-29.399414
1766498057040,-0.87890625,-0.37597656,0.2626953,-0.48828125,0.36621094,-0.061035156,0.0,0.0,0.0,-55.041504,61.82556,-29.399414
1766498057052,-0.87890625,-0.37597656,0.2626953,-0.48828125,0.36621094,-0.061035156,0.0,0.0,0.0,-55.01953,61.82556,-29.30603
1766498057140,-0.88964844,-0.38427734,0.2602539,0.0,-0.061035156,-0.061035156,0.0,0.0,0.0,-55.01953,61.82556,-29.30603
1766498057152,-0.88964844,-0.38427734,0.2602539,0.0,-0.061035156,-0.061035156,0.0,0.0,0.0,-55.014038,61.831055,-29.273071
1766498057240,-0.8823242,-0.37890625,0.2685547,0.0,-0.30517578,0.0,0.0,0.0,0.0,-55.014038,61.831055,-29.273071
1766498057251,-0.8823242,-0.37890625,0.2685547,0.0,-0.30517578,0.0,0.0,0.0,0.0,-54.98108,61.831055,-29.190674
1766498057340,-0.88427734,-0.37939453,0.26757812,-0.18310547,0.12207031,-0.12207031,0.0,0.0,0.0,-54.98108,61.831055,-29.190674
1766498057351,-0.88427734,-0.37939453,0.26757812,-0.18310547,0.12207031,-0.12207031,0.0,0.0,0.0,-54.91516,61.82007,-29.086304
1766498057439,-0.88427734,-0.3798828,0.26416016,-0.24414062,-0.48828125,0.0,0.0,0.0,0.0,-54.91516,61.82007,-29.086304
1766498057451,-0.88427734,-0.3798828,0.26416016,-0.24414062,-0.48828125,0.0,0.0,0.0,0.0,-54.882202,61.82556,-29.025879
1766498057539,-0.8847656,-0.37939453,0.265625,-0.24414062,-1.159668,0.0,0.0,0.0,0.0,-54.882202,61.82556,-29.025879
1766498057550,-0.8847656,-0.37939453,0.265625,-0.24414062,-1.159668,0.0,0.0,0.0,0.0,-54.75586,61.792603,-28.861084
1766498057639,-0.88671875,-0.3798828,0.26416016,-0.18310547,-0.61035156,0.0,0.0,0.0,0.0,-54.75586,61.792603,-28.861084
1766498057650,-0.88671875,-0.3798828,0.26416016,-0.18310547,-0.61035156,0.0,0.0,0.0,0.0,-54.629517,61.765137,-28.701782
1766498057739,-0.8828125,-0.3779297,0.2685547,0.6713867,0.91552734,-0.61035156,0.0,0.0,0.0,-54.629517,61.765137,-28.701782
1766498057750,-0.8828125,-0.3779297,0.2685547,0.6713867,0.91552734,-0.61035156,0.0,0.0,0.0,-54.66797,61.78711,-28.75122
1766498057838,-0.88720703,-0.38330078,0.25585938,-0.4272461,-0.061035156,0.0,0.0,0.0,0.0,-54.66797,61.78711,-28.75122
1766498057849,-0.88720703,-0.38330078,0.25585938,-0.4272461,-0.061035156,0.0,0.0,0.0,0.0,-54.596558,61.75415,-28.701782
1766498057938,-0.88671875,-0.38134766,0.2626953,1.0375977,0.18310547,-0.5493164,0.0,0.0,0.0,-54.596558,61.75415,-28.701782
1766498057949,-0.88671875,-0.38134766,0.2626953,1.0375977,0.18310547,-0.5493164,0.0,0.0,0.0,-54.645996,61.75415,-28.762207
1766498058037,-0.8828125,-0.37939453,0.2705078,0.0,-0.18310547,-0.061035156,0.0,0.0,0.0,-54.645996,61.75415,-28.762207
1766498058049,-0.8828125,-0.37939453,0.2705078,0.0,-0.18310547,-0.061035156,0.0,0.0,0.0,-54.662476,61.75415,-28.806152
1766498058137,-0.88916016,-0.3803711,0.26416016,0.24414062,0.36621094,-0.18310547,0.0,0.0,0.0,-54.662476,61.75415,-28.806152
1766498058149,-0.88916016,-0.3803711,0.26416016,0.24414062,0.36621094,-0.18310547,0.0,0.0,0.0,-54.596558,61.743164,-28.723755
1766498058237,-0.88427734,-0.38134766,0.26611328,0.30517578,0.61035156,-0.4272461,0.0,0.0,0.0,-54.596558,61.743164,-28.723755
1766498058248,-0.88427734,-0.38134766,0.26611328,0.30517578,0.61035156,-0.4272461,0.0,0.0,0.0,-54.711914,61.77063,-28.90503
1766498058337,-0.8847656,-0.37890625,0.26611328,0.12207031,-0.061035156,-0.12207031,0.0,0.0,0.0,-54.711914,61.77063,-28.90503
1766498058349,-0.8847656,-0.37890625,0.26611328,0.12207031,-0.061035156,-0.12207031,0.0,0.0,0.0,-54.75586,61.776123,-28.95996
1766498058436,-0.8881836,-0.38085938,0.26513672,0.30517578,0.30517578,-0.18310547,0.0,0.0,0.0,-54.75586,61.776123,-28.95996
1766498058448,-0.8881836,-0.38085938,0.26513672,0.30517578,0.30517578,-0.18310547,0.0,0.0,0.0,-54.766846,61.792603,-28.95996
1766498058536,-0.8857422,-0.3798828,0.26660156,0.30517578,0.6713867,-0.5493164,0.0,0.0,0.0,-54.766846,61.792603,-28.95996
1766498058548,-0.8857422,-0.3798828,0.26660156,0.30517578,0.6713867,-0.5493164,0.0,0.0,0.0,-54.838257,61.814575,-29.058838
1766498058636,-0.88916016,-0.38232422,0.2685547,0.48828125,-0.18310547,-0.61035156,0.0,0.0,0.0,-54.838257,61.814575,-29.058838
1766498058648,-0.88916016,-0.38232422,0.2685547,0.48828125,-0.18310547,-0.61035156,0.0,0.0,0.0,-54.98108,61.814575,-29.284058
1766498058736,-0.8823242,-0.3774414,0.2680664,0.18310547,1.0375977,-0.4272461,0.0,0.0,0.0,-54.98108,61.814575,-29.284058
1766498058747,-0.8823242,-0.3774414,0.2680664,0.18310547,1.0375977,-0.4272461,0.0,0.0,0.0,-54.942627,61.814575,-29.190674
1766498058835,-0.88916016,-0.3857422,0.25976562,0.061035156,0.12207031,-0.48828125,0.0,0.0,0.0,-54.942627,61.814575,-29.190674
1766498058847,-0.88916016,-0.3857422,0.25976562,0.061035156,0.12207031,-0.48828125,0.0,0.0,0.0,-54.98108,61.809082,-29.278564
1766498058935,-0.88623047,-0.38183594,0.265625,0.0,-0.4272461,0.061035156,0.0,0.0,0.0,-54.98108,61.809082,-29.278564
1766498058947,-0.88623047,-0.38183594,0.265625,0.0,-0.4272461,0.061035156,0.0,0.0,0.0,-54.94812,61.809082,-29.223633
1766498059035,-0.88671875,-0.38232422,0.2607422,0.4272461,0.4272461,-0.4272461,0.0,0.0,0.0,-54.94812,61.809082,-29.223633
1766498059047,-0.88671875,-0.38232422,0.2607422,0.4272461,0.4272461,-0.4272461,0.0,0.0,0.0,-54.937134,61.814575,-29.21814
1766498059134,-0.88720703,-0.38183594,0.26220703,-0.12207031,-0.12207031,0.0,0.0,0.0,0.0,-54.937134,61.814575,-29.21814
1766498059146,-0.88720703,-0.38183594,0.26220703,-0.12207031,-0.12207031,0.0,0.0,0.0,0.0,-55.008545,61.82556,-29.295044
1766498059234,-0.8857422,-0.38085938,0.2626953,0.24414062,-0.061035156,-0.061035156,0.0,0.0,0.0,-55.008545,61.82556,-29.295044
1766498059246,-0.8857422,-0.38085938,0.2626953,0.24414062,-0.061035156,-0.061035156,0.0,0.0,0.0,-54.992065,61.836548,-29.251099
1766498059334,-0.88916016,-0.38134766,0.25878906,0.30517578,0.12207031,-0.12207031,0.0,0.0,0.0,-54.992065,61.836548,-29.251099
1766498059345,-0.88916016,-0.38134766,0.25878906,0.30517578,0.12207031,-0.12207031,0.0,0.0,0.0,-54.98108,61.84204,-29.21814
1766498059434,-0.8798828,-0.38427734,0.25976562,0.8544922,0.61035156,-0.61035156,0.0,0.0,0.0,-54.98108,61.84204,-29.21814
1766498059446,-0.8798828,-0.38427734,0.25976562,0.8544922,0.61035156,-0.61035156,0.0,0.0,0.0,-55.030518,61.85852,-29.278564
1766498059533,-0.88916016,-0.38476562,0.25390625,-0.12207031,-1.4038086,0.24414062,0.0,0.0,0.0,-55.030518,61.85852,-29.278564
1766498059545,-0.88916016,-0.38476562,0.25390625,-0.12207031,-1.4038086,0.24414062,0.0,0.0,0.0,-55.008545,61.831055,-29.256592
1766498059633,-0.88378906,-0.3803711,0.26416016,0.7324219,0.061035156,-0.4272461,0.0,0.0,0.0,-55.008545,61.831055,-29.256592
1766498059645,-0.88378906,-0.3803711,0.26416016,0.7324219,0.061035156,-0.4272461,0.0,0.0,0.0,-55.090942,61.847534,-29.333496
1766498059733,-0.8823242,-0.37841797,0.26220703,0.0,-0.061035156,-0.061035156,0.0,0.0,0.0,-55.090942,61.847534,-29.333496
1766498059745,-0.8823242,-0.37841797,0.26220703,0.0,-0.061035156,-0.061035156,0.0,0.0,0.0,-55.08545,61.836548,-29.33899
1766498059833,-0.8876953,-0.38427734,0.25976562,0.0,-0.6713867,0.12207031,0.0,0.0,0.0,-55.08545,61.836548,-29.33899
1766498059844,-0.8876953,-0.38427734,0.25976562,0.0,-0.6713867,0.12207031,0.0,0.0,0.0,-55.00305,61.831055,-29.223633
1766498059932,-0.8847656,-0.3828125,0.2631836,0.0,0.18310547,-0.24414062,0.0,0.0,0.0,-55.00305,61.831055,-29.223633
1766498059944,-0.8847656,-0.3828125,0.2631836,0.0,0.18310547,-0.24414062,0.0,0.0,0.0,-55.046997,61.84204,-29.28955
1766498060032,-0.8857422,-0.38085938,0.26171875,-0.12207031,-0.24414062,0.0,0.0,0.0,0.0,-55.046997,61.84204,-29.28955
1766498060044,-0.8857422,-0.38085938,0.26171875,-0.12207031,-0.24414062,0.0,0.0,0.0,0.0,-55.06897,61.853027,-29.300537
1766498060132,-0.88671875,-0.38232422,0.2607422,0.0,-0.30517578,-0.061035156,0.0,0.0,0.0,-55.06897,61.853027,-29.300537
1766498060143,-0.88671875,-0.38232422,0.2607422,0.0,-0.30517578,-0.061035156,0.0,0.0,0.0,-55.030518,61.85852,-29.256592
1766498060231,-0.8876953,-0.38330078,0.25634766,0.0,0.18310547,-0.061035156,0.0,0.0,0.0,-55.030518,61.85852,-29.256592
1766498060243,-0.8876953,-0.38330078,0.25634766,0.0,0.18310547,-0.061035156,0.0,0.0,0.0,-55.041504,61.864014,-29.273071
1766498060331,-0.8823242,-0.3803711,0.25830078,0.48828125,0.36621094,-0.6713867,0.0,0.0,0.0,-55.041504,61.864014,-29.273071
1766498060343,-0.8823242,-0.3803711,0.25830078,0.48828125,0.36621094,-0.6713867,0.0,0.0,0.0,-55.090942,61.869507,-29.360962
1766498060431,-0.88720703,-0.38183594,0.2529297,-0.6713867,-0.30517578,0.061035156,0.0,0.0,0.0,-55.090942,61.869507,-29.360962
1766498060443,-0.88720703,-0.38183594,0.2529297,-0.6713867,-0.30517578,0.061035156,0.0,0.0,0.0,-55.030518,61.847534,-29.267578
1766498060531,-0.88964844,-0.38623047,0.2553711,0.48828125,-0.30517578,-0.061035156,0.0,0.0,0.0,-55.030518,61.847534,-29.267578
1766498060542,-0.88964844,-0.38623047,0.2553711,0.48828125,-0.30517578,-0.061035156,0.0,0.0,0.0,-55.074463,61.869507,-29.32251
1766498060630,-0.8828125,-0.38232422,0.26416016,0.30517578,0.12207031,0.061035156,0.0,0.0,0.0,-55.074463,61.869507,-29.32251
1766498060642,-0.8828125,-0.38232422,0.26416016,0.30517578,0.12207031,0.061035156,0.0,0.0,0.0,-55.08545,61.885986,-29.32251
1766498060730,-0.8901367,-0.38378906,0.25830078,0.79345703,0.30517578,-0.5493164,0.0,0.0,0.0,-55.08545,61.885986,-29.32251
1766498060742,-0.8901367,-0.38378906,0.25830078,0.79345703,0.30517578,-0.5493164,0.0,0.0,0.0,-55.025024,61.880493,-29.262085
1766498060830,-0.8847656,-0.3803711,0.25976562,0.24414062,0.12207031,-0.48828125,0.0,0.0,0.0,-55.025024,61.880493,-29.262085
1766498060841,-0.8847656,-0.3803711,0.25976562,0.24414062,0.12207031,-0.48828125,0.0,0.0,0.0,-55.10193,61.85852,-29.399414
1766498060930,-0.88916016,-0.3876953,0.2607422,-0.061035156,-0.91552734,0.30517578,0.0,0.0,0.0,-55.10193,61.85852,-29.399414
1766498060941,-0.88916016,-0.3876953,0.2607422,-0.061035156,-0.91552734,0.30517578,0.0,0.0,0.0,-55.00305,61.875,-29.300537
1766498061029,-0.88378906,-0.38134766,0.26171875,0.24414062,-0.061035156,-0.36621094,0.0,0.0,0.0,-55.00305,61.875,-29.300537
1766498061041,-0.88378906,-0.38134766,0.26171875,0.24414062,-0.061035156,-0.36621094,0.0,0.0,0.0,-54.959106,61.84204,-29.229126
1766498061129,-0.8857422,-0.3779297,0.26416016,-0.61035156,-1.4648438,0.36621094,0.0,0.0,0.0,-54.959106,61.84204,-29.229126
1766498061141,-0.8857422,-0.3779297,0.26416016,-0.61035156,-1.4648438,0.36621094,0.0,0.0,0.0,-54.920654,61.84204,-29.130249
1766498061229,-0.8857422,-0.3774414,0.26464844,-0.4272461,-1.5869141,0.5493164,0.0,0.0,0.0,-54.920654,61.84204,-29.130249
1766498061240,-0.8857422,-0.3774414,0.26464844,-0.4272461,-1.5869141,0.5493164,0.0,0.0,0.0,-54.68445,61.814575,-28.87207
1766498061328,-0.88183594,-0.37646484,0.25976562,-0.061035156,-0.18310547,-0.24414062,0.0,0.0,0.0,-54.68445,61.814575,-28.87207
1766498061340,-0.88183594,-0.37646484,0.25976562,-0.061035156,-0.18310547,-0.24414062,0.0,0.0,0.0,-54.45923,61.77063,-28.55896
1766498061428,-0.88964844,-0.3779297,0.26611328,0.0,-0.4272461,0.48828125,0.0,0.0,0.0,-54.45923,61.77063,-28.55896
1766498061440,-0.88964844,-0.3779297,0.26611328,0.0,-0.4272461,0.48828125,0.0,0.0,0.0,-54.40979,61.776123,-28.515015
1766498061528,-0.8847656,-0.37402344,0.27294922,0.61035156,-0.24414062,0.24414062,0.0,0.0,0.0,-54.40979,61.776123,-28.515015
1766498061540,-0.8847656,-0.37402344,0.27294922,0.61035156,-0.24414062,0.24414062,0.0,0.0,0.0,-54.327393,61.82007,-28.432617
1766498061628,-0.88183594,-0.38085938,0.26171875,0.91552734,1.0986328,-0.5493164,0.0,0.0,0.0,-54.327393,61.82007,-28.432617
1766498061639,-0.88183594,-0.38085938,0.26171875,0.91552734,1.0986328,-0.5493164,0.0,0.0,0.0,-54.283447,61.82556,-28.43811
1766498061727,-0.8852539,-0.38623047,0.26660156,-2.380371,-0.8544922,1.6479492,0.0,0.0,0.0,-54.283447,61.82556,-28.43811
1766498061739,-0.8852539,-0.38623047,0.26660156,-2.380371,-0.8544922,1.6479492,0.0,0.0,0.0,-54.27246,61.89148,-28.328247
1766498061827,-0.8911133,-0.37402344,0.26464844,-1.5258789,-1.8920898,2.4414062,0.0,0.0,0.0,-54.27246,61.89148,-28.328247
1766498061839,-0.8911133,-0.37402344,0.26464844,-1.5258789,-1.8920898,2.4414062,0.0,0.0,0.0,-54.15161,61.951904,-27.943726
1766498061927,-0.86816406,-0.35888672,0.27978516,-3.6010742,-0.9765625,0.61035156,0.0,0.0,0.0,-54.15161,61.951904,-27.943726
1766498061938,-0.86816406,-0.35888672,0.27978516,-3.6010742,-0.9765625,0.61035156,0.0,0.0,0.0,-54.15161,62.199097,-27.58667
1766498062027,-0.8828125,-0.35302734,0.25830078,3.6621094,1.7089844,-3.540039,0.0,0.0,0.0,-54.15161,62.199097,-27.58667
1766498062038,-0.8828125,-0.35302734,0.25830078,3.6621094,1.7089844,-3.540039,0.0,0.0,0.0,-54.12964,61.918945,-27.542725
1766498062126,-0.89208984,-0.38378906,0.25830078,1.4038086,-3.1738281,-0.18310547,0.0,0.0,0.0,-54.12964,61.918945,-27.542725
1766498062138,-0.89208984,-0.38378906,0.25830078,1.4038086,-3.1738281,-0.18310547,0.0,0.0,0.0,-53.937378,61.743164,-27.658081
1766498062226,-0.87890625,-0.38085938,0.28271484,1.5258789,-1.2207031,-0.12207031,0.0,0.0,0.0,-53.937378,61.743164,-27.658081
1766498062237,-0.87890625,-0.38085938,0.28271484,1.5258789,-1.2207031,-0.12207031,0.0,0.0,0.0,-53.66272,61.726685,-27.504272
1766498062326,-0.8808594,-0.3828125,0.2709961,0.0,-0.79345703,0.24414062,0.0,0.0,0.0,-53.66272,61.726685,-27.504272
1766498062337,-0.8808594,-0.3828125,0.2709961,0.0,-0.79345703,0.24414062,0.0,0.0,0.0,-53.399048,61.688232,-27.372437
1766498062425,-0.88916016,-0.37646484,0.2709961,1.0375977,-0.9765625,0.79345703,0.0,0.0,0.0,-53.399048,61.688232,-27.372437
1766498062437,-0.88916016,-0.37646484,0.2709961,1.0375977,-0.9765625,0.79345703,0.0,0.0,0.0,-53.014526,61.644287,-27.01538
1766498062525,-0.88427734,-0.3720703,0.28271484,0.18310547,-0.9765625,1.159668,0.0,0.0,0.0,-53.014526,61.644287,-27.01538
1766498062537,-0.88427734,-0.3720703,0.28271484,0.18310547,-0.9765625,1.159668,0.0,0.0,0.0,-52.88269,61.72119,-26.976929
1766498062625,-0.8857422,-0.3701172,0.28466797,1.0986328,-0.061035156,0.61035156,0.0,0.0,0.0,-52.88269,61.72119,-26.976929
1766498062637,-0.8857422,-0.3701172,0.28466797,1.0986328,-0.061035156,0.61035156,0.0,0.0,0.0,-52.61902,61.75415,-26.801147
1766498062725,-0.89453125,-0.3671875,0.2734375,0.48828125,-0.18310547,0.30517578,0.0,0.0,0.0,-52.61902,61.75415,-26.801147
1766498062736,-0.89453125,-0.3671875,0.2734375,0.48828125,-0.18310547,0.30517578,0.0,0.0,0.0,-52.421265,61.82007,-26.641846
1766498062824,-0.87890625,-0.36816406,0.28271484,1.0986328,1.2817383,-1.2207031,0.0,0.0,0.0,-52.421265,61.82007,-26.641846
1766498062836,-0.87890625,-0.36816406,0.28271484,1.0986328,1.2817383,-1.2207031,0.0,0.0,0.0,-52.492676,61.864014,-26.845093
1766498062924,-0.89404297,-0.37304688,0.27978516,0.0,0.91552734,-0.36621094,0.0,0.0,0.0,-52.492676,61.864014,-26.845093
1766498062936,-0.89404297,-0.37304688,0.27978516,0.0,0.91552734,-0.36621094,0.0,0.0,0.0,-52.72339,61.89148,-27.191162
1766498063024,-0.88134766,-0.36083984,0.28076172,0.061035156,2.6245117,0.18310547,0.0,0.0,0.0,-52.72339,61.89148,-27.191162
1766498063035,-0.88134766,-0.36083984,0.28076172,0.061035156,2.6245117,0.18310547,0.0,0.0,0.0,-52.981567,61.973877,-27.454834
1766498063124,-0.88916016,-0.36669922,0.26660156,0.4272461,-0.061035156,0.18310547,0.0,0.0,0.0,-52.981567,61.973877,-27.454834
1766498063135,-0.88916016,-0.36669922,0.26660156,0.4272461,-0.061035156,0.18310547,0.0,0.0,0.0,-52.943115,62.045288,-27.471313
1766498063223,-0.8847656,-0.37158203,0.2788086,0.8544922,0.0,-0.7324219,0.0,0.0,0.0,-52.943115,62.045288,-27.471313
1766498063235,-0.8847656,-0.37158203,0.2788086,0.8544922,0.0,-0.7324219,0.0,0.0,0.0,-53.00354,62.08374,-27.55371
1766498063323,-0.89208984,-0.37451172,0.26464844,0.48828125,1.4648438,-0.8544922,0.0,0.0,0.0,-53.00354,62.08374,-27.55371
1766498063335,-0.89208984,-0.37451172,0.26464844,0.48828125,1.4648438,-0.8544922,0.0,0.0,0.0,-53.0365,62.05078,-27.658081
1766498063423,-0.8857422,-0.3720703,0.2709961,0.061035156,-0.12207031,-0.6713867,0.0,0.0,0.0,-53.0365,62.05078,-27.658081
1766498063434,-0.8857422,-0.3720703,0.2709961,0.061035156,-0.12207031,-0.6713867,0.0,0.0,0.0,-53.206787,62.023315,-27.817383
1766498063523,-0.8876953,-0.37158203,0.27783203,-0.48828125,-0.12207031,0.0,0.0,0.0,0.0,-53.206787,62.023315,-27.817383
1766498063534,-0.8876953,-0.37158203,0.27783203,-0.48828125,-0.12207031,0.0,0.0,0.0,0.0,-53.24524,62.017822,-27.77893
1766498063622,-0.8881836,-0.3701172,0.26757812,-1.0375977,-0.061035156,0.4272461,0.0,0.0,0.0,-53.24524,62.017822,-27.77893
1766498063634,-0.8881836,-0.3701172,0.26757812,-1.0375977,-0.061035156,0.4272461,0.0,0.0,0.0,-53.1958,62.023315,-27.658081
1766498063722,-0.8881836,-0.3701172,0.27441406,0.0,0.61035156,-0.6713867,0.0,0.0,0.0,-53.1958,62.023315,-27.658081
1766498063734,-0.8881836,-0.3701172,0.27441406,0.0,0.61035156,-0.6713867,0.0,0.0,0.0,-53.327637,62.061768,-27.806396
1766498063822,-0.8876953,-0.36865234,0.26757812,-0.91552734,0.61035156,0.0,0.0,0.0,0.0,-53.327637,62.061768,-27.806396
1766498063833,-0.8876953,-0.36865234,0.26757812,-0.91552734,0.61035156,0.0,0.0,0.0,0.0,-53.338623,62.08374,-27.723999
1766498063921,-0.890625,-0.37402344,0.26367188,-0.12207031,-1.2817383,-0.061035156,0.0,0.0,0.0,-53.338623,62.08374,-27.723999
1766498063933,-0.890625,-0.37402344,0.26367188,-0.12207031,-1.2817383,-0.061035156,0.0,0.0,0.0,-53.33313,62.072754,-27.718506
1766498064021,-0.8857422,-0.36816406,0.27441406,-0.8544922,0.61035156,-0.48828125,0.0,0.0,0.0,-53.33313,62.072754,-27.718506
1766498064033,-0.8857422,-0.36816406,0.27441406,-0.8544922,0.61035156,-0.48828125,0.0,0.0,0.0,-53.415527,62.061768,-27.723999
1766498064121,-0.88916016,-0.375,0.26367188,-0.061035156,0.18310547,-0.36621094,0.0,0.0,0.0,-53.415527,62.061768,-27.723999
1766498064133,-0.88916016,-0.375,0.26367188,-0.061035156,0.18310547,-0.36621094,0.0,0.0,0.0,-53.519897,62.061768,-27.800903
1766498064221,-0.88671875,-0.37402344,0.26904297,-0.24414062,-0.48828125,-0.18310547,0.0,0.0,0.0,-53.519897,62.061768,-27.800903
1766498064232,-0.88671875,-0.37402344,0.26904297,-0.24414062,-0.48828125,-0.18310547,0.0,0.0,0.0,-53.66272,62.078247,-27.910767
1766498064320,-0.8876953,-0.37304688,0.27148438,-0.61035156,-0.24414062,0.061035156,0.0,0.0,0.0,-53.66272,62.078247,-27.910767
1766498064332,-0.8876953,-0.37304688,0.27148438,-0.61035156,-0.24414062,0.061035156,0.0,0.0,0.0,-53.690186,62.06726,-27.877808
1766498064420,-0.890625,-0.36767578,0.265625,-0.36621094,0.0,0.24414062,0.0,0.0,0.0,-53.690186,62.06726,-27.877808
1766498064431,-0.890625,-0.36767578,0.265625,-0.36621094,0.0,0.24414062,0.0,0.0,0.0,-53.690186,62.105713,-27.773438
1766498064520,-0.8833008,-0.37451172,0.2680664,0.8544922,0.5493164,-0.61035156,0.0,0.0,0.0,-53.690186,62.105713,-27.773438
1766498064532,-0.8833008,-0.37451172,0.2680664,0.8544922,0.5493164,-0.61035156,0.0,0.0,0.0,-53.745117,62.144165,-27.877808
1766498064620,-0.8911133,-0.37890625,0.2626953,0.4272461,-1.4038086,-0.30517578,0.0,0.0,0.0,-53.745117,62.144165,-27.877808
1766498064631,-0.8911133,-0.37890625,0.2626953,0.4272461,-1.4038086,-0.30517578,0.0,0.0,0.0,-53.71216,62.094727,-27.921753
1766498064719,-0.8847656,-0.36376953,0.2763672,-0.30517578,0.30517578,-0.12207031,0.0,0.0,0.0,-53.71216,62.094727,-27.921753
1766498064731,-0.8847656,-0.36376953,0.2763672,-0.30517578,0.30517578,-0.12207031,0.0,0.0,0.0,-53.865967,62.089233,-28.048096
1766498064819,-0.88916016,-0.3779297,0.26171875,1.8920898,1.4038086,-0.9765625,0.0,0.0,0.0,-53.865967,62.089233,-28.048096
1766498064830,-0.88916016,-0.3779297,0.26171875,1.8920898,1.4038086,-0.9765625,0.0,0.0,0.0,-53.81653,62.1167,-28.064575
1766498064919,-0.89160156,-0.37304688,0.26513672,-1.3427734,-1.7700195,0.79345703,0.0,0.0,0.0,-53.81653,62.1167,-28.064575
1766498064930,-0.89160156,-0.37304688,0.26513672,-1.3427734,-1.7700195,0.79345703,0.0,0.0,0.0,-53.78357,62.127686,-27.993164
1766498065019,-0.88183594,-0.37353516,0.26757812,-0.12207031,-0.4272461,-0.4272461,0.0,0.0,0.0,-53.78357,62.127686,-27.993164
1766498065030,-0.88183594,-0.37353516,0.26757812,-0.12207031,-0.4272461,-0.4272461,0.0,0.0,0.0,-53.90442,62.1167,-28.146973
1766498065118,-0.88964844,-0.3720703,0.27001953,0.48828125,-1.5258789,0.18310547,0.0,0.0,0.0,-53.90442,62.1167,-28.146973
1766498065130,-0.88964844,-0.3720703,0.27001953,0.48828125,-1.5258789,0.18310547,0.0,0.0,0.0,-53.635254,62.039795,-27.82837
1766498065218,-0.88623047,-0.37402344,0.2626953,0.061035156,-0.30517578,0.12207031,0.0,0.0,0.0,-53.635254,62.039795,-27.82837
1766498065229,-0.88623047,-0.37402344,0.2626953,0.061035156,-0.30517578,0.12207031,0.0,0.0,0.0,-53.426514,62.02881,-27.630615
1766498065318,-0.8876953,-0.37548828,0.2685547,0.4272461,-0.30517578,-0.48828125,0.0,0.0,0.0,-53.426514,62.02881,-27.630615
1766498065329,-0.8876953,-0.37548828,0.2685547,0.4272461,-0.30517578,-0.48828125,0.0,0.0,0.0,-53.464966,62.001343,-27.729492
1766498065417,-0.8828125,-0.37402344,0.27197266,0.7324219,0.8544922,-0.30517578,0.0,0.0,0.0,-53.464966,62.001343,-27.729492
1766498065429,-0.8828125,-0.37402344,0.27197266,0.7324219,0.8544922,-0.30517578,0.0,0.0,0.0,-53.585815,62.039795,-27.82837
1766498065517,-0.8901367,-0.37597656,0.26171875,-0.6713867,-2.0751953,0.9765625,0.0,0.0,0.0,-53.585815,62.039795,-27.82837
1766498065529,-0.8901367,-0.37597656,0.26171875,-0.6713867,-2.0751953,0.9765625,0.0,0.0,0.0,-53.442993,62.0343,-27.69104
1766498065617,-0.88623047,-0.36914062,0.27392578,0.9765625,0.5493164,-0.48828125,0.0,0.0,0.0,-53.442993,62.0343,-27.69104
1766498065629,-0.88623047,-0.36914062,0.27392578,0.9765625,0.5493164,-0.48828125,0.0,0.0,0.0,-53.4375,62.045288,-27.630615
1766498065717,-0.8847656,-0.3701172,0.2680664,-0.061035156,0.061035156,-0.24414062,0.0,0.0,0.0,-53.4375,62.045288,-27.630615
1766498065728,-0.8847656,-0.3701172,0.2680664,-0.061035156,0.061035156,-0.24414062,0.0,0.0,0.0,-53.48694,62.061768,-27.718506
1766498065817,-0.8989258,-0.375,0.27001953,0.0,-0.79345703,0.5493164,0.0,0.0,0.0,-53.48694,62.061768,-27.718506
1766498065828,-0.8989258,-0.375,0.27001953,0.0,-0.79345703,0.5493164,0.0,0.0,0.0,-53.45398,62.056274,-27.669067
1766498065916,-0.88378906,-0.3720703,0.2631836,1.0375977,-2.5634766,0.8544922,0.0,0.0,0.0,-53.45398,62.056274,-27.669067
1766498065928,-0.88378906,-0.3720703,0.2631836,1.0375977,-2.5634766,0.8544922,0.0,0.0,0.0,-53.05298,62.045288,-27.34497
1766498066016,-0.88623047,-0.36865234,0.2783203,0.18310547,-0.6713867,0.18310547,0.0,0.0,0.0,-53.05298,62.045288,-27.34497
1766498066028,-0.88623047,-0.36865234,0.2783203,0.18310547,-0.6713867,0.18310547,0.0,0.0,0.0,-52.860718,62.045288,-27.185669
1766498066115,-0.8881836,-0.3696289,0.27392578,0.30517578,0.30517578,0.0,0.0,0.0,0.0,-52.860718,62.045288,-27.185669
1766498066127,-0.8881836,-0.3696289,0.27392578,0.30517578,0.30517578,0.0,0.0,0.0,0.0,-52.756348,62.045288,-27.092285
1766498066215,-0.8881836,-0.36767578,0.2709961,0.0,0.48828125,0.12207031,0.0,0.0,0.0,-52.756348,62.045288,-27.092285
1766498066227,-0.8881836,-0.36767578,0.2709961,0.0,0.48828125,0.12207031,0.0,0.0,0.0,-52.81128,62.094727,-27.141724
1766498066315,-0.89404297,-0.37841797,0.26513672,0.24414062,0.61035156,0.4272461,0.0,0.0,0.0,-52.81128,62.094727,-27.141724
1766498066327,-0.89404297,-0.37841797,0.26513672,0.24414062,0.61035156,0.4272461,0.0,0.0,0.0,-52.910156,62.14966,-27.224121
1766498066415,-0.9013672,-0.3774414,0.27294922,0.6713867,-1.4038086,1.0375977,0.0,0.0,0.0,-52.910156,62.14966,-27.224121
1766498066427,-0.9013672,-0.3774414,0.27294922,0.6713867,-1.4038086,1.0375977,0.0,0.0,0.0,-52.805786,62.199097,-27.042847
1766498066515,-0.90722656,-0.35107422,0.28564453,9.338379,2.5024414,0.8544922,0.0,0.0,0.0,-52.805786,62.199097,-27.042847
1766498066526,-0.90722656,-0.35107422,0.28564453,9.338379,2.5024414,0.8544922,0.0,0.0,0.0,-52.77832,62.330933,-27.306519
1766498066614,-0.8623047,-0.35107422,0.27148438,8.544922,3.9672852,-4.5776367,0.0,0.0,0.0,-52.77832,62.330933,-27.306519
1766498066626,-0.8623047,-0.35107422,0.27148438,8.544922,3.9672852,-4.5776367,0.0,0.0,0.0,-52.16858,62.38037,-27.800903
1766498066714,-0.86279297,-0.3803711,0.27490234,1.159668,-3.3569336,-1.5258789,0.0,0.0,0.0,-52.16858,62.38037,-27.800903
1766498066726,-0.86279297,-0.3803711,0.27490234,1.159668,-3.3569336,-1.5258789,0.0,0.0,0.0,-52.10266,62.265015,-28.339233
1766498066814,-0.9091797,-0.34423828,0.2836914,-4.333496,-2.1972656,1.0986328,0.0,0.0,0.0,-52.10266,62.265015,-28.339233
1766498066825,-0.9091797,-0.34423828,0.2836914,-4.333496,-2.1972656,1.0986328,0.0,0.0,0.0,-52.053223,61.92993,-27.960205
1766498066913,-0.89941406,-0.34960938,0.28857422,3.4179688,5.554199,-4.4555664,0.0,0.0,0.0,-52.053223,61.92993,-27.960205
1766498066925,-0.89941406,-0.34960938,0.28857422,3.4179688,5.554199,-4.4555664,0.0,0.0,0.0,-52.43225,62.061768,-28.328247
1766498067013,-0.8828125,-0.37695312,0.25830078,-1.4038086,1.4038086,7.385254,0.0,0.0,0.0,-52.43225,62.061768,-28.328247
1766498067025,-0.8828125,-0.37695312,0.25830078,-1.4038086,1.4038086,7.385254,0.0,0.0,0.0,-52.5531,62.391357,-28.553467
1766498067113,-0.88378906,-0.35986328,0.27490234,-0.061035156,0.0,3.6621094,0.0,0.0,0.0,-52.5531,62.391357,-28.553467
1766498067124,-0.88378906,-0.35986328,0.27490234,-0.061035156,0.0,3.6621094,0.0,0.0,0.0,-51.778564,62.9187,-27.306519
1766498067212,-0.8901367,-0.35498047,0.2734375,0.6713867,-2.1362305,0.18310547,0.0,0.0,0.0,-51.778564,62.9187,-27.306519
1766498067224,-0.8901367,-0.35498047,0.2734375,0.6713867,-2.1362305,0.18310547,0.0,0.0,0.0,-51.61377,62.924194,-27.350464
1766498067312,-0.8959961,-0.35205078,0.27197266,0.24414062,0.5493164,-0.061035156,0.0,0.0,0.0,-51.61377,62.924194,-27.350464
1766498067324,-0.8959961,-0.35205078,0.27197266,0.24414062,0.5493164,-0.061035156,0.0,0.0,0.0,-51.410522,62.891235,-27.04834
1766498067412,-0.90234375,-0.32763672,0.27685547,2.1972656,0.61035156,0.48828125,0.0,0.0,0.0,-51.410522,62.891235,-27.04834
1766498067424,-0.90234375,-0.32763672,0.27685547,2.1972656,0.61035156,0.48828125,0.0,0.0,0.0,-51.223755,62.9187,-26.828613
1766498067512,-0.8989258,-0.34277344,0.28125,0.6713867,0.36621094,-0.30517578,0.0,0.0,0.0,-51.223755,62.9187,-26.828613
1766498067523,-0.8989258,-0.34277344,0.28125,0.6713867,0.36621094,-0.30517578,0.0,0.0,0.0,-51.31714,63.02307,-27.108765
1766498067611,-0.8984375,-0.34375,0.2685547,2.9907227,1.5258789,-1.5258789,0.0,0.0,0.0,-51.31714,63.02307,-27.108765
1766498067623,-0.8984375,-0.34375,0.2685547,2.9907227,1.5258789,-1.5258789,0.0,0.0,0.0,-51.28418,63.034058,-27.262573
1766498067711,-0.89941406,-0.35888672,0.26513672,1.3427734,-0.48828125,-0.48828125,0.0,0.0,0.0,-51.28418,63.034058,-27.262573
1766498067723,-0.89941406,-0.35888672,0.26513672,1.3427734,-0.48828125,-0.48828125,0.0,0.0,0.0,-51.432495,63.02307,-27.636108
1766498067811,-0.8979492,-0.34228516,0.27392578,2.2583008,1.0986328,-1.2207031,0.0,0.0,0.0,-51.432495,63.02307,-27.636108
1766498067822,-0.8979492,-0.34228516,0.27392578,2.2583008,1.0986328,-1.2207031,0.0,0.0,0.0,-51.394043,62.995605,-27.57019
1766498067911,-0.8833008,-0.34960938,0.28125,2.8686523,1.2207031,-3.3569336,0.0,0.0,0.0,-51.394043,62.995605,-27.57019
1766498067922,-0.8833008,-0.34960938,0.28125,2.8686523,1.2207031,-3.3569336,0.0,0.0,0.0,-51.795044,62.907715,-28.130493
1766498068011,-0.88964844,-0.35839844,0.27246094,1.0375977,0.30517578,-1.8920898,0.0,0.0,0.0,-51.795044,62.907715,-28.130493
1766498068022,-0.88964844,-0.35839844,0.27246094,1.0375977,0.30517578,-1.8920898,0.0,0.0,0.0,-51.98181,62.764893,-28.388672
1766498068110,-0.8984375,-0.36132812,0.26171875,1.2207031,0.36621094,-1.4038086,0.0,0.0,0.0,-51.98181,62.764893,-28.388672
1766498068122,-0.8984375,-0.36132812,0.26171875,1.2207031,0.36621094,-1.4038086,0.0,0.0,0.0,-52.11914,62.633057,-28.580933
1766498068210,-0.8808594,-0.36035156,0.28466797,-1.2207031,0.18310547,-0.061035156,0.0,0.0,0.0,-52.11914,62.633057,-28.580933
1766498068222,-0.8808594,-0.36035156,0.28466797,-1.2207031,0.18310547,-0.061035156,0.0,0.0,0.0,-52.278442,62.644043,-28.526001
1766498068309,-0.8901367,-0.36669922,0.2626953,-2.2583008,-2.319336,1.8920898,0.0,0.0,0.0,-52.278442,62.644043,-28.526001
1766498068321,-0.8901367,-0.36669922,0.2626953,-2.2583008,-2.319336,1.8920898,0.0,0.0,0.0,-52.075195,62.63855,-27.98767
1766498068409,-0.90185547,-0.35205078,0.27294922,-1.0986328,-0.8544922,1.2207031,0.0,0.0,0.0,-52.075195,62.63855,-27.98767
1766498068421,-0.90185547,-0.35205078,0.27294922,-1.0986328,-0.8544922,1.2207031,0.0,0.0,0.0,-51.73462,62.67151,-27.262573
1766498068509,-0.89746094,-0.36083984,0.28515625,-1.2817383,0.0,0.48828125,0.0,0.0,0.0,-51.73462,62.67151,-27.262573
1766498068521,-0.89746094,-0.36083984,0.28515625,-1.2817383,0.0,0.48828125,0.0,0.0,0.0,-51.817017,62.72644,-27.268066
1766498068609,-0.89990234,-0.33740234,0.2685547,-0.061035156,-1.2817383,0.79345703,0.0,0.0,0.0,-51.817017,62.72644,-27.268066
1766498068620,-0.89990234,-0.33740234,0.2685547,-0.061035156,-1.2817383,0.79345703,0.0,0.0,0.0,-51.80603,62.737427,-27.03186
1766498068708,-0.8901367,-0.35888672,0.2841797,2.8076172,3.3569336,-1.8920898,0.0,0.0,0.0,-51.80603,62.737427,-27.03186
1766498068720,-0.8901367,-0.35888672,0.2841797,2.8076172,3.3569336,-1.8920898,0.0,0.0,0.0,-51.745605,62.79785,-27.097778
1766498068808,-0.8901367,-0.34375,0.25927734,-4.4555664,-5.3100586,2.0141602,0.0,0.0,0.0,-51.745605,62.79785,-27.097778
1766498068821,-0.8901367,-0.34375,0.25927734,-4.4555664,-5.3100586,2.0141602,0.0,0.0,0.0,-51.454468,62.913208,-26.61438
1766498068908,-0.8984375,-0.3774414,0.28320312,-0.12207031,2.6855469,-1.8920898,0.0,0.0,0.0,-51.454468,62.913208,-26.61438
1766498068919,-0.8984375,-0.3774414,0.28320312,-0.12207031,2.6855469,-1.8920898,0.0,0.0,0.0,-52.113647,62.874756,-27.317505
1766498069008,-0.8930664,-0.3486328,0.28710938,-1.5258789,0.18310547,-3.6010742,0.0,0.0,0.0,-52.113647,62.874756,-27.317505
1766498069019,-0.8930664,-0.3486328,0.28710938,-1.5258789,0.18310547,-3.6010742,0.0,0.0,0.0,-51.899414,62.62207,-26.564941
1766498069108,-0.88964844,-0.3569336,0.27148438,0.7324219,-1.8920898,0.5493164,0.0,0.0,0.0,-51.899414,62.62207,-26.564941
1766498069119,-0.88964844,-0.3569336,0.27148438,0.7324219,-1.8920898,0.5493164,0.0,0.0,0.0,-52.03125,62.5177,-26.94397
1766498069207,-0.875,-0.34765625,0.28125,3.1738281,2.319336,-1.3427734,0.0,0.0,0.0,-52.03125,62.5177,-26.94397
1766498069219,-0.875,-0.34765625,0.28125,3.1738281,2.319336,-1.3427734,0.0,0.0,0.0,-52.179565,62.556152,-27.235107
1766498069307,-0.89746094,-0.36523438,0.2607422,3.9672852,2.319336,-0.61035156,0.0,0.0,0.0,-52.179565,62.556152,-27.235107
1766498069318,-0.89746094,-0.36523438,0.2607422,3.9672852,2.319336,-0.61035156,0.0,0.0,0.0,-52.196045,62.594604,-27.614136
1766498069406,-0.89990234,-0.35742188,0.2841797,2.2583008,1.953125,1.159668,0.0,0.0,0.0,-52.196045,62.594604,-27.614136
1766498069418,-0.89990234,-0.35742188,0.2841797,2.2583008,1.953125,1.159668,0.0,0.0,0.0,-52.163086,62.715454,-27.773438
1766498069506,-0.8828125,-0.3671875,0.26416016,1.0986328,1.2817383,-0.48828125,0.0,0.0,0.0,-52.163086,62.715454,-27.773438
1766498069518,-0.8828125,-0.3671875,0.26416016,1.0986328,1.2817383,-0.48828125,0.0,0.0,0.0,-52.069702,62.86377,-27.855835
1766498069606,-0.88183594,-0.3491211,0.2685547,-0.48828125,-3.0517578,-2.1972656,0.0,0.0,0.0,-52.069702,62.86377,-27.855835
1766498069617,-0.88183594,-0.3491211,0.2685547,-0.48828125,-3.0517578,-2.1972656,0.0,0.0,0.0,-51.954346,62.68799,-27.641602
1766498069706,-0.89453125,-0.35498047,0.27148438,-4.333496,-3.90625,-3.6621094,0.0,0.0,0.0,-51.954346,62.68799,-27.641602
1766498069717,-0.89453125,-0.35498047,0.27148438,-4.333496,-3.90625,-3.6621094,0.0,0.0,0.0,-52.130127,62.25952,-27.542725
1766498069805,-0.8769531,-0.34472656,0.26367188,-3.112793,2.6245117,2.8076172,0.0,0.0,0.0,-52.130127,62.25952,-27.542725
1766498069817,-0.8769531,-0.34472656,0.26367188,-3.112793,2.6245117,2.8076172,0.0,0.0,0.0,-51.970825,62.210083,-27.026367
1766498069905,-0.89501953,-0.37841797,0.28173828,-2.9296875,-2.746582,-1.4648438,0.0,0.0,0.0,-51.970825,62.210083,-27.026367
1766498069917,-0.89501953,-0.37841797,0.28173828,-2.9296875,-2.746582,-1.4648438,0.0,0.0,0.0,-52.44873,62.34192,-27.053833
1766498070005,-0.88183594,-0.36035156,0.2763672,-3.2348633,-7.019043,2.9907227,0.0,0.0,0.0,-52.44873,62.34192,-27.053833
1766498070016,-0.88183594,-0.36035156,0.2763672,-3.2348633,-7.019043,2.9907227,0.0,0.0,0.0,-51.784058,62.13318,-25.894775
1766498070105,-0.89160156,-0.37548828,0.28710938,-0.18310547,0.0,-0.6713867,0.0,0.0,0.0,-51.784058,62.13318,-25.894775
1766498070116,-0.89160156,-0.37548828,0.28710938,-0.18310547,0.0,-0.6713867,0.0,0.0,0.0,-51.624756,62.039795,-25.691528
1766498070204,-0.8808594,-0.37060547,0.28125,0.0,0.79345703,-1.2207031,0.0,0.0,0.0,-51.624756,62.039795,-25.691528
1766498070216,-0.8808594,-0.37060547,0.28125,0.0,0.79345703,-1.2207031,0.0,0.0,0.0,-51.73462,61.951904,-25.790405
1766498070304,-0.88916016,-0.36328125,0.28320312,0.0,0.48828125,-0.48828125,0.0,0.0,0.0,-51.73462,61.951904,-25.790405
1766498070316,-0.88916016,-0.36328125,0.28320312,0.0,0.48828125,-0.48828125,0.0,0.0,0.0,-51.937866,61.940918,-25.993652
1766498070404,-0.8876953,-0.37695312,0.27001953,-1.2817383,-0.12207031,-0.18310547,0.0,0.0,0.0,-51.937866,61.940918,-25.993652
1766498070415,-0.8876953,-0.37695312,0.27001953,-1.2817383,-0.12207031,-0.18310547,0.0,0.0,0.0,-52.097168,61.984863,-26.191406
1766498070503,-0.87939453,-0.36669922,0.28710938,1.0375977,0.8544922,-1.5869141,0.0,0.0,0.0,-52.097168,61.984863,-26.191406
1766498070515,-0.87939453,-0.36669922,0.28710938,1.0375977,0.8544922,-1.5869141,0.0,0.0,0.0,-52.333374,61.99585,-26.383667
1766498070603,-0.8876953,-0.37548828,0.27001953,-0.9765625,-0.48828125,-0.6713867,0.0,0.0,0.0,-52.333374,61.99585,-26.383667
1766498070615,-0.8876953,-0.37548828,0.27001953,-0.9765625,-0.48828125,-0.6713867,0.0,0.0,0.0,-52.404785,61.885986,-26.51001
1766498070703,-0.88427734,-0.37109375,0.27978516,1.2817383,-0.18310547,-0.91552734,0.0,0.0,0.0,-52.404785,61.885986,-26.51001
1766498070714,-0.88427734,-0.37109375,0.27978516,1.2817383,-0.18310547,-0.91552734,0.0,0.0,0.0,-52.525635,61.82556,-26.5979
1766498070802,-0.87060547,-0.3852539,0.28515625,0.12207031,-0.6713867,-1.3427734,0.0,0.0,0.0,-52.525635,61.82556,-26.5979
1766498070814,-0.87060547,-0.3852539,0.28515625,0.12207031,-0.6713867,-1.3427734,0.0,0.0,0.0,-52.531128,61.73767,-26.768188
1766498070902,-0.89746094,-0.37646484,0.26953125,3.1738281,-0.4272461,-2.4414062,0.0,0.0,0.0,-52.531128,61.73767,-26.768188
1766498070914,-0.89746094,-0.37646484,0.26953125,3.1738281,-0.4272461,-2.4414062,0.0,0.0,0.0,-52.476196,61.501465,-26.905518
1766498071002,-0.88427734,-0.36376953,0.2939453,1.6479492,1.7089844,-0.8544922,0.0,0.0,0.0,-52.476196,61.501465,-26.905518
1766498071014,-0.88427734,-0.36376953,0.2939453,1.6479492,1.7089844,-0.8544922,0.0,0.0,0.0,-52.73987,61.430054,-27.471313
1766498071102,-0.8930664,-0.3720703,0.2734375,-2.2583008,-1.0375977,2.6855469,0.0,0.0,0.0,-52.73987,61.430054,-27.471313
1766498071113,-0.8930664,-0.3720703,0.2734375,-2.2583008,-1.0375977,2.6855469,0.0,0.0,0.0,-52.65747,61.51245,-27.39441
1766498071201,-0.87402344,-0.38476562,0.28710938,-2.6855469,-1.0986328,2.1362305,0.0,0.0,0.0,-52.65747,61.51245,-27.39441
1766498071213,-0.87402344,-0.38476562,0.28710938,-2.6855469,-1.0986328,2.1362305,0.0,0.0,0.0,-52.542114,61.748657,-26.96045
1766498071301,-0.88183594,-0.37402344,0.28857422,0.0,0.8544922,-0.36621094,0.0,0.0,0.0,-52.542114,61.748657,-26.96045
1766498071312,-0.88183594,-0.37402344,0.28857422,0.0,0.8544922,-0.36621094,0.0,0.0,0.0,-52.492676,61.75415,-26.713257
1766498071401,-0.890625,-0.37939453,0.2758789,-1.4038086,-1.0986328,0.12207031,0.0,0.0,0.0,-52.492676,61.75415,-26.713257
1766498071412,-0.890625,-0.37939453,0.2758789,-1.4038086,-1.0986328,0.12207031,0.0,0.0,0.0,-52.635498,61.732178,-26.96045
1766498071500,-0.87597656,-0.36914062,0.2861328,-1.2207031,-0.79345703,0.36621094,0.0,0.0,0.0,-52.635498,61.732178,-26.96045
1766498071512,-0.87597656,-0.36914062,0.2861328,-1.2207031,-0.79345703,0.36621094,0.0,0.0,0.0,-52.712402,61.75415,-26.894531
1766498071600,-0.89160156,-0.36865234,0.27539062,-1.0986328,0.4272461,0.36621094,0.0,0.0,0.0,-52.712402,61.75415,-26.894531
1766498071611,-0.89160156,-0.36865234,0.27539062,-1.0986328,0.4272461,0.36621094,0.0,0.0,0.0,-52.69043,61.748657,-26.801147
1766498071700,-0.8808594,-0.3720703,0.28125,-1.4038086,0.061035156,0.7324219,0.0,0.0,0.0,-52.69043,61.748657,-26.801147
1766498071711,-0.8808594,-0.3720703,0.28125,-1.4038086,0.061035156,0.7324219,0.0,0.0,0.0,-52.871704,61.885986,-26.894531
1766498071799,-0.8881836,-0.3696289,0.27685547,-0.7324219,0.5493164,-0.061035156,0.0,0.0,0.0,-52.871704,61.885986,-26.894531
1766498071811,-0.8881836,-0.3696289,0.27685547,-0.7324219,0.5493164,-0.061035156,0.0,0.0,0.0,-52.992554,61.92993,-26.982422
1766498071899,-0.87939453,-0.3720703,0.2763672,-0.18310547,-0.4272461,-0.24414062,0.0,0.0,0.0,-52.992554,61.92993,-26.982422
1766498071911,-0.87939453,-0.3720703,0.2763672,-0.18310547,-0.4272461,-0.24414062,0.0,0.0,0.0,-53.069458,61.92444,-27.114258
1766498071999,-0.88671875,-0.37109375,0.27734375,0.36621094,0.36621094,-0.24414062,0.0,0.0,0.0,-53.069458,61.92444,-27.114258
1766498072011,-0.88671875,-0.37109375,0.27734375,0.36621094,0.36621094,-0.24414062,0.0,0.0,0.0,-53.009033,61.902466,-27.037354
1766498072099,-0.8857422,-0.36914062,0.2788086,-0.12207031,0.0,0.12207031,0.0,0.0,0.0,-53.009033,61.902466,-27.037354
1766498072110,-0.8857422,-0.36914062,0.2788086,-0.12207031,0.0,0.12207031,0.0,0.0,0.0,-52.98706,61.935425,-26.982422
1766498072198,-0.88916016,-0.37646484,0.28125,-0.6713867,-1.0375977,0.18310547,0.0,0.0,0.0,-52.98706,61.935425,-26.982422
1766498072210,-0.88916016,-0.37646484,0.28125,-0.6713867,-1.0375977,0.18310547,0.0,0.0,0.0,-52.910156,61.913452,-26.96045
1766498072298,-0.88183594,-0.3647461,0.28076172,0.0,0.0,0.18310547,0.0,0.0,0.0,-52.910156,61.913452,-26.96045
1766498072310,-0.88183594,-0.3647461,0.28076172,0.0,0.0,0.18310547,0.0,0.0,0.0,-52.893677,61.94641,-26.92749
1766498072398,-0.88916016,-0.3774414,0.27001953,0.61035156,0.36621094,-0.48828125,0.0,0.0,0.0,-52.893677,61.94641,-26.92749
1766498072409,-0.88916016,-0.3774414,0.27001953,0.61035156,0.36621094,-0.48828125,0.0,0.0,0.0,-52.838745,61.940918,-26.987915
1766498072497,-0.88623047,-0.36669922,0.2763672,-0.30517578,-1.0375977,0.48828125,0.0,0.0,0.0,-52.838745,61.940918,-26.987915
1766498072509,-0.88623047,-0.36669922,0.2763672,-0.30517578,-1.0375977,0.48828125,0.0,0.0,0.0,-52.816772,61.96289,-26.965942
1766498072597,-0.8857422,-0.37109375,0.27929688,0.0,0.91552734,-0.4272461,0.0,0.0,0.0,-52.816772,61.96289,-26.965942
1766498072609,-0.8857422,-0.37109375,0.27929688,0.0,0.91552734,-0.4272461,0.0,0.0,0.0,-52.855225,61.99585,-27.03186
1766498072697,-0.88671875,-0.37109375,0.27490234,-0.4272461,0.12207031,-0.24414062,0.0,0.0,0.0,-52.855225,61.99585,-27.03186
1766498072709,-0.88671875,-0.37109375,0.27490234,-0.4272461,0.12207031,-0.24414062,0.0,0.0,0.0,-52.9541,62.01233,-27.141724
1766498072797,-0.8857422,-0.36914062,0.27734375,-0.4272461,-0.12207031,-0.061035156,0.0,0.0,0.0,-52.9541,62.01233,-27.141724
1766498072808,-0.8857422,-0.36914062,0.27734375,-0.4272461,-0.12207031,-0.061035156,0.0,0.0,0.0,-52.98706,62.001343,-27.13623
1766498072896,-0.88964844,-0.3696289,0.27490234,-0.061035156,0.79345703,0.0,0.0,0.0,0.0,-52.98706,62.001343,-27.13623
1766498072908,-0.88964844,-0.3696289,0.27490234,-0.061035156,0.79345703,0.0,0.0,0.0,0.0,-53.031006,62.02881,-27.213135
1766498072996,-0.8886719,-0.3725586,0.28173828,-0.24414062,-0.24414062,-0.24414062,0.0,0.0,0.0,-53.031006,62.02881,-27.213135
1766498073008,-0.8886719,-0.3725586,0.28173828,-0.24414062,-0.24414062,-0.24414062,0.0,0.0,0.0,-53.168335,62.078247,-27.39441
1766498073096,-0.88427734,-0.36767578,0.2783203,-1.0986328,0.18310547,0.061035156,0.0,0.0,0.0,-53.168335,62.078247,-27.39441
1766498073107,-0.88427734,-0.36767578,0.2783203,-1.0986328,0.18310547,0.061035156,0.0,0.0,0.0,-53.14087,62.056274,-27.301025
1766498073196,-0.89208984,-0.36914062,0.26416016,0.6713867,1.8920898,-0.91552734,0.0,0.0,0.0,-53.14087,62.056274,-27.301025
1766498073207,-0.89208984,-0.36914062,0.26416016,0.6713867,1.8920898,-0.91552734,0.0,0.0,0.0,-53.28369,62.078247,-27.504272
1766498073296,-0.8852539,-0.37109375,0.27539062,0.061035156,0.24414062,0.12207031,0.0,0.0,0.0,-53.28369,62.078247,-27.504272
1766498073307,-0.8852539,-0.37109375,0.27539062,0.061035156,0.24414062,0.12207031,0.0,0.0,0.0,-53.393555,62.15515,-27.614136
1766498073395,-0.8852539,-0.37402344,0.2758789,0.24414062,0.0,-0.61035156,0.0,0.0,0.0,-53.393555,62.15515,-27.614136
1766498073406,-0.8852539,-0.37402344,0.2758789,0.24414062,0.0,-0.61035156,0.0,0.0,0.0,-53.415527,62.144165,-27.696533
1766498073495,-0.89208984,-0.37548828,0.26660156,0.5493164,1.5869141,-1.0986328,0.0,0.0,0.0,-53.415527,62.144165,-27.696533
1766498073506,-0.89208984,-0.37548828,0.26660156,0.5493164,1.5869141,-1.0986328,0.0,0.0,0.0,-53.624268,62.13867,-27.960205
1766498073594,-0.8857422,-0.36572266,0.26513672,-1.8310547,-0.48828125,1.159668,0.0,0.0,0.0,-53.624268,62.13867,-27.960205
1766498073607,-0.8857422,-0.36572266,0.26513672,-1.8310547,-0.48828125,1.159668,0.0,0.0,0.0,-53.778076,62.177124,-28.059082
1766498073694,-0.8876953,-0.37451172,0.26904297,0.061035156,-0.61035156,0.0,0.0,0.0,0.0,-53.778076,62.177124,-28.059082
1766498073706,-0.8876953,-0.37451172,0.26904297,0.061035156,-0.61035156,0.0,0.0,0.0,0.0,-53.71216,62.160645,-28.031616
1766498073794,-0.8847656,-0.36669922,0.27148438,0.7324219,1.6479492,-1.159668,0.0,0.0,0.0,-53.71216,62.160645,-28.031616
1766498073805,-0.8847656,-0.36669922,0.27148438,0.7324219,1.6479492,-1.159668,0.0,0.0,0.0,-53.73413,62.193604,-27.921753
1766498073893,-0.88720703,-0.3803711,0.25927734,0.0,-1.0375977,0.0,0.0,0.0,0.0,-53.73413,62.193604,-27.921753
1766498073905,-0.88720703,-0.3803711,0.25927734,0.0,-1.0375977,0.0,0.0,0.0,0.0,-53.728638,62.122192,-28.086548
1766498073993,-0.8925781,-0.37304688,0.26708984,0.18310547,1.5258789,-0.30517578,0.0,0.0,0.0,-53.728638,62.122192,-28.086548
1766498074005,-0.8925781,-0.37304688,0.26708984,0.18310547,1.5258789,-0.30517578,0.0,0.0,0.0,-53.82202,62.166138,-28.125
1766498074093,-0.8798828,-0.37060547,0.2705078,0.12207031,0.30517578,0.0,0.0,0.0,0.0,-53.82202,62.166138,-28.125
1766498074104,-0.8798828,-0.37060547,0.2705078,0.12207031,0.30517578,0.0,0.0,0.0,0.0,-53.948364,62.199097,-28.267822
1766498074193,-0.8911133,-0.375,0.26904297,0.24414062,-0.4272461,0.061035156,0.0,0.0,0.0,-53.948364,62.199097,-28.267822
1766498074204,-0.8911133,-0.375,0.26904297,0.24414062,-0.4272461,0.061035156,0.0,0.0,0.0,-53.88794,62.199097,-28.190918
1766498074292,-0.890625,-0.37109375,0.265625,0.0,1.159668,-0.061035156,0.0,0.0,0.0,-53.88794,62.199097,-28.190918
1766498074304,-0.890625,-0.37109375,0.265625,0.0,1.159668,-0.061035156,0.0,0.0,0.0,-53.92639,62.215576,-28.22937
1766498074392,-0.88427734,-0.37304688,0.2705078,0.061035156,0.18310547,-0.18310547,0.0,0.0,0.0,-53.92639,62.215576,-28.22937
1766498074404,-0.88427734,-0.37304688,0.2705078,0.061035156,0.18310547,-0.18310547,0.0,0.0,0.0,-54.041748,62.25403,-28.355713
1766498074492,-0.88671875,-0.37353516,0.27148438,-0.48828125,-0.36621094,0.30517578,0.0,0.0,0.0,-54.041748,62.25403,-28.355713
1766498074503,-0.88671875,-0.37353516,0.27148438,-0.48828125,-0.36621094,0.30517578,0.0,0.0,0.0,-54.003296,62.243042,-28.284302
1766498074592,-0.88964844,-0.37060547,0.2685547,-0.18310547,0.9765625,-0.061035156,0.0,0.0,0.0,-54.003296,62.243042,-28.284302
1766498074603,-0.88964844,-0.37060547,0.2685547,-0.18310547,0.9765625,-0.061035156,0.0,0.0,0.0,-54.003296,62.270508,-28.278809
1766498074691,-0.890625,-0.37158203,0.27246094,0.18310547,0.4272461,-0.79345703,0.0,0.0,0.0,-54.003296,62.270508,-28.278809
1766498074703,-0.890625,-0.37158203,0.27246094,0.18310547,0.4272461,-0.79345703,0.0,0.0,0.0,-54.13513,62.276,-28.487549
1766498074791,-0.8857422,-0.37158203,0.27197266,-0.4272461,0.79345703,-0.18310547,0.0,0.0,0.0,-54.13513,62.276,-28.487549
1766498074803,-0.8857422,-0.37158203,0.27197266,-0.4272461,0.79345703,-0.18310547,0.0,0.0,0.0,-54.0802,62.25952,-28.399658
1766498074891,-0.890625,-0.3779297,0.2631836,0.48828125,0.24414062,-0.36621094,0.0,0.0,0.0,-54.0802,62.25952,-28.399658
1766498074902,-0.890625,-0.3779297,0.2631836,0.48828125,0.24414062,-0.36621094,0.0,0.0,0.0,-54.09668,62.25952,-28.465576
1766498074990,-0.88427734,-0.375,0.2709961,0.061035156,-0.30517578,0.061035156,0.0,0.0,0.0,-54.09668,62.25952,-28.465576
1766498075002,-0.88427734,-0.375,0.2709961,0.061035156,-0.30517578,0.061035156,0.0,0.0,0.0,-54.09668,62.270508,-28.47107
1766498075090,-0.890625,-0.37548828,0.26611328,1.0375977,0.30517578,-0.36621094,0.0,0.0,0.0,-54.09668,62.270508,-28.47107
1766498075102,-0.890625,-0.37548828,0.26611328,1.0375977,0.30517578,-0.36621094,0.0,0.0,0.0,-53.964844,62.25403,-28.344727
1766498075190,-0.88671875,-0.3725586,0.27001953,0.6713867,0.6713867,-0.4272461,0.0,0.0,0.0,-53.964844,62.25403,-28.344727
1766498075201,-0.88671875,-0.3725586,0.27001953,0.6713867,0.6713867,-0.4272461,0.0,0.0,0.0,-53.97583,62.23755,-28.42163
1766498075290,-0.8876953,-0.3720703,0.2709961,0.30517578,-0.061035156,0.0,0.0,0.0,0.0,-53.97583,62.23755,-28.42163
1766498075301,-0.8876953,-0.3720703,0.2709961,0.30517578,-0.061035156,0.0,0.0,0.0,0.0,-53.981323,62.23755,-28.443604
1766498075389,-0.8881836,-0.37402344,0.27001953,0.0,-0.24414062,0.0,0.0,0.0,0.0,-53.981323,62.23755,-28.443604
1766498075401,-0.8881836,-0.37402344,0.27001953,0.0,-0.24414062,0.0,0.0,0.0,0.0,-53.915405,62.243042,-28.399658
1766498075489,-0.8881836,-0.37158203,0.27392578,0.4272461,0.12207031,0.0,0.0,0.0,0.0,-53.915405,62.243042,-28.399658
1766498075500,-0.8881836,-0.37158203,0.27392578,0.4272461,0.12207031,0.0,0.0,0.0,0.0,-53.88794,62.248535,-28.361206
1766498075589,-0.8925781,-0.375,0.27685547,-0.7324219,-1.2207031,0.30517578,0.0,0.0,0.0,-53.88794,62.248535,-28.361206
1766498075600,-0.8925781,-0.375,0.27685547,-0.7324219,-1.2207031,0.30517578,0.0,0.0,0.0,-53.833008,62.232056,-28.355713
1766498075688,-0.8803711,-0.36767578,0.27392578,-0.30517578,-0.061035156,0.061035156,0.0,0.0,0.0,-53.833008,62.232056,-28.355713
1766498075700,-0.8803711,-0.36767578,0.27392578,-0.30517578,-0.061035156,0.061035156,0.0,0.0,0.0,-53.739624,62.22107,-28.207397
1766498075788,-0.8925781,-0.37646484,0.2680664,0.12207031,0.30517578,-0.061035156,0.0,0.0,0.0,-53.739624,62.22107,-28.207397
1766498075800,-0.8925781,-0.37646484,0.2680664,0.12207031,0.30517578,-0.061035156,0.0,0.0,0.0,-53.70117,62.22107,-28.174438
1766498075888,-0.8823242,-0.3701172,0.27734375,0.0,-0.12207031,0.061035156,0.0,0.0,0.0,-53.70117,62.22107,-28.174438
1766498075899,-0.8823242,-0.3701172,0.27734375,0.0,-0.12207031,0.061035156,0.0,0.0,0.0,-53.6792,62.226562,-28.146973
1766498075988,-0.88916016,-0.3725586,0.27148438,0.12207031,0.36621094,-0.18310547,0.0,0.0,0.0,-53.6792,62.226562,-28.146973
1766498075999,-0.88916016,-0.3725586,0.27148438,0.12207031,0.36621094,-0.18310547,0.0,0.0,0.0,-53.61328,62.22107,-28.086548
1766498076087,-0.8852539,-0.37158203,0.27148438,0.0,0.12207031,-0.24414062,0.0,0.0,0.0,-53.61328,62.22107,-28.086548
1766498076099,-0.8852539,-0.37158203,0.27148438,0.0,0.12207031,-0.24414062,0.0,0.0,0.0,-53.66272,62.215576,-28.146973
1766498076187,-0.88623047,-0.3701172,0.2734375,-0.24414062,-0.61035156,0.061035156,0.0,0.0,0.0,-53.66272,62.215576,-28.146973
1766498076199,-0.88623047,-0.3701172,0.2734375,-0.24414062,-0.61035156,0.061035156,0.0,0.0,0.0,-53.607788,62.18811,-28.064575
1766498076287,-0.88623047,-0.37060547,0.27490234,0.0,0.12207031,0.0,0.0,0.0,0.0,-53.607788,62.18811,-28.064575
1766498076298,-0.88623047,-0.37060547,0.27490234,0.0,0.12207031,0.0,0.0,0.0,0.0,-53.563843,62.182617,-27.965698
1766498076386,-0.87646484,-0.37402344,0.27148438,1.0986328,0.18310547,-0.36621094,0.0,0.0,0.0,-53.563843,62.182617,-27.965698
1766498076398,-0.87646484,-0.37402344,0.27148438,1.0986328,0.18310547,-0.36621094,0.0,0.0,0.0,-53.563843,62.182617,-27.982178
1766498076486,-0.8901367,-0.375,0.2709961,0.24414062,-0.91552734,0.12207031,0.0,0.0,0.0,-53.563843,62.182617,-27.982178
1766498076498,-0.8901367,-0.375,0.2709961,0.24414062,-0.91552734,0.12207031,0.0,0.0,0.0,-53.42102,62.13318,-27.806396
1766498076586,-0.8828125,-0.36669922,0.28173828,0.48828125,0.24414062,-0.24414062,0.0,0.0,0.0,-53.42102,62.13318,-27.806396
1766498076597,-0.8828125,-0.36669922,0.28173828,0.48828125,0.24414062,-0.24414062,0.0,0.0,0.0,-53.42102,62.13318,-27.789917
1766498076686,-0.8833008,-0.37109375,0.27294922,-0.30517578,-0.24414062,0.12207031,0.0,0.0,0.0,-53.42102,62.13318,-27.789917
1766498076697,-0.8833008,-0.37109375,0.27294922,-0.30517578,-0.24414062,0.12207031,0.0,0.0,0.0,-53.371582,62.122192,-27.762451
1766498076785,-0.88720703,-0.37304688,0.27246094,0.061035156,-0.7324219,0.12207031,0.0,0.0,0.0,-53.371582,62.122192,-27.762451
1766498076797,-0.88720703,-0.37304688,0.27246094,0.061035156,-0.7324219,0.12207031,0.0,0.0,0.0,-53.294678,62.105713,-27.680054
1766498076885,-0.8847656,-0.37109375,0.27685547,0.4272461,0.7324219,-0.4272461,0.0,0.0,0.0,-53.294678,62.105713,-27.680054
1766498076896,-0.8847656,-0.37109375,0.27685547,0.4272461,0.7324219,-0.4272461,0.0,0.0,0.0,-53.360596,62.1167,-27.789917
1766498076985,-0.88427734,-0.37304688,0.27539062,-0.24414062,0.0,0.061035156,0.0,0.0,0.0,-53.360596,62.1167,-27.789917
1766498076996,-0.88427734,-0.37304688,0.27539062,-0.24414062,0.0,0.061035156,0.0,0.0,0.0,-53.377075,62.122192,-27.844849
1766498077084,-0.88623047,-0.3720703,0.2758789,-0.30517578,-0.12207031,0.0,0.0,0.0,0.0,-53.377075,62.122192,-27.844849
1766498077096,-0.88623047,-0.3720703,0.2758789,-0.30517578,-0.12207031,0.0,0.0,0.0,0.0,-53.34961,62.1167,-27.79541
1766498077184,-0.8876953,-0.3720703,0.27197266,0.18310547,0.48828125,-0.061035156,0.0,0.0,0.0,-53.34961,62.1167,-27.79541
1766498077196,-0.8876953,-0.3720703,0.27197266,0.18310547,0.48828125,-0.061035156,0.0,0.0,0.0,-53.36609,62.127686,-27.822876
1766498077284,-0.8828125,-0.3701172,0.27490234,0.48828125,0.9765625,-0.79345703,0.0,0.0,0.0,-53.36609,62.127686,-27.822876
1766498077295,-0.8828125,-0.3701172,0.27490234,0.48828125,0.9765625,-0.79345703,0.0,0.0,0.0,-53.47046,62.13318,-27.982178
1766498077383,-0.88720703,-0.37109375,0.26708984,-0.5493164,0.18310547,0.0,0.0,0.0,0.0,-53.47046,62.13318,-27.982178
1766498077395,-0.88720703,-0.37109375,0.26708984,-0.5493164,0.18310547,0.0,0.0,0.0,0.0,-53.399048,62.10022,-27.888794
1766498077483,-0.8886719,-0.37402344,0.27001953,0.48828125,0.12207031,-0.30517578,0.0,0.0,0.0,-53.399048,62.10022,-27.888794
1766498077495,-0.8886719,-0.37402344,0.27001953,0.48828125,0.12207031,-0.30517578,0.0,0.0,0.0,-53.475952,62.111206,-28.015137
1766498077583,-0.8833008,-0.37060547,0.27685547,-0.18310547,-0.12207031,-0.061035156,0.0,0.0,0.0,-53.475952,62.111206,-28.015137
1766498077595,-0.8833008,-0.37060547,0.27685547,-0.18310547,-0.12207031,-0.061035156,0.0,0.0,0.0,-53.503418,62.105713,-28.048096
1766498077683,-0.88916016,-0.375,0.2709961,0.24414062,0.18310547,-0.30517578,0.0,0.0,0.0,-53.503418,62.105713,-28.048096
1766498077694,-0.88916016,-0.375,0.2709961,0.24414062,0.18310547,-0.30517578,0.0,0.0,0.0,-53.459473,62.094727,-27.998657
1766498077782,-0.8852539,-0.3720703,0.27490234,0.30517578,0.7324219,-0.48828125,0.0,0.0,0.0,-53.459473,62.094727,-27.998657
1766498077795,-0.8852539,-0.3720703,0.27490234,0.30517578,0.7324219,-0.48828125,0.0,0.0,0.0,-53.57483,62.094727,-28.135986
1766498077882,-0.8847656,-0.37304688,0.2734375,0.0,0.24414062,0.0,0.0,0.0,0.0,-53.57483,62.094727,-28.135986
1766498077894,-0.8847656,-0.37304688,0.2734375,0.0,0.24414062,0.0,0.0,0.0,0.0,-53.602295,62.10022,-28.157959
1766498077982,-0.8847656,-0.37353516,0.27246094,-0.18310547,0.18310547,-0.18310547,0.0,0.0,0.0,-53.602295,62.10022,-28.157959
1766498077994,-0.8847656,-0.37353516,0.27246094,-0.18310547,0.18310547,-0.18310547,0.0,0.0,0.0,-53.602295,62.10022,-28.14148
1766498078082,-0.88720703,-0.37109375,0.27294922,-0.6713867,0.48828125,0.061035156,0.0,0.0,0.0,-53.602295,62.10022,-28.14148
1766498078093,-0.88720703,-0.37109375,0.27294922,-0.6713867,0.48828125,0.061035156,0.0,0.0,0.0,-53.651733,62.122192,-28.190918
1766498078181,-0.88964844,-0.3725586,0.27685547,0.12207031,0.61035156,-0.7324219,0.0,0.0,0.0,-53.651733,62.122192,-28.190918
1766498078193,-0.88964844,-0.3725586,0.27685547,0.12207031,0.61035156,-0.7324219,0.0,0.0,0.0,-53.761597,62.13318,-28.339233
1766498078281,-0.88623047,-0.37060547,0.27197266,-0.30517578,0.9765625,-0.24414062,0.0,0.0,0.0,-53.761597,62.13318,-28.339233
1766498078292,-0.88623047,-0.37060547,0.27197266,-0.30517578,0.9765625,-0.24414062,0.0,0.0,0.0,-53.71765,62.111206,-28.24585
1766498078381,-0.89160156,-0.37646484,0.265625,0.4272461,0.12207031,-0.4272461,0.0,0.0,0.0,-53.71765,62.111206,-28.24585
1766498078392,-0.89160156,-0.37646484,0.265625,0.4272461,0.12207031,-0.4272461,0.0,0.0,0.0,-53.78357,62.122192,-28.3667
1766498078480,-0.8833008,-0.37353516,0.27294922,-0.061035156,-0.061035156,-0.061035156,0.0,0.0,0.0,-53.78357,62.122192,-28.3667
1766498078492,-0.8833008,-0.37353516,0.27294922,-0.061035156,-0.061035156,-0.061035156,0.0,0.0,0.0,-53.805542,62.1167,-28.377686
1766498078580,-0.88964844,-0.37646484,0.2680664,0.48828125,0.61035156,-0.48828125,0.0,0.0,0.0,-53.805542,62.1167,-28.377686
1766498078592,-0.88964844,-0.37646484,0.2680664,0.48828125,0.61035156,-0.48828125,0.0,0.0,0.0,-53.75061,62.105713,-28.322754
1766498078680,-0.88671875,-0.37353516,0.27148438,0.18310547,0.30517578,-0.36621094,0.0,0.0,0.0,-53.75061,62.105713,-28.322754
1766498078691,-0.88671875,-0.37353516,0.27148438,0.18310547,0.30517578,-0.36621094,0.0,0.0,0.0,-53.849487,62.105713,-28.43811
1766498078780,-0.8847656,-0.3725586,0.27197266,0.18310547,0.0,-0.12207031,0.0,0.0,0.0,-53.849487,62.105713,-28.43811
1766498078791,-0.8847656,-0.3725586,0.27197266,0.18310547,0.0,-0.12207031,0.0,0.0,0.0,-53.85498,62.10022,-28.432617
1766498078879,-0.8881836,-0.3725586,0.27246094,0.061035156,0.061035156,-0.12207031,0.0,0.0,0.0,-53.85498,62.10022,-28.432617
1766498078891,-0.8881836,-0.3725586,0.27246094,0.061035156,0.061035156,-0.12207031,0.0,0.0,0.0,-53.833008,62.10022,-28.388672
1766498078979,-0.8852539,-0.3720703,0.2758789,0.24414062,0.48828125,-0.18310547,0.0,0.0,0.0,-53.833008,62.10022,-28.388672
1766498078991,-0.8852539,-0.3720703,0.2758789,0.24414062,0.48828125,-0.18310547,0.0,0.0,0.0,-53.876953,62.127686,-28.42163
1766498079079,-0.890625,-0.375,0.27539062,0.061035156,-0.4272461,-0.18310547,0.0,0.0,0.0,-53.876953,62.127686,-28.42163
1766498079090,-0.890625,-0.375,0.27539062,0.061035156,-0.4272461,-0.18310547,0.0,0.0,0.0,-53.915405,62.111206,-28.493042
1766498079179,-0.8828125,-0.3696289,0.27783203,0.18310547,0.7324219,-0.4272461,0.0,0.0,0.0,-53.915405,62.111206,-28.493042
1766498079190,-0.8828125,-0.3696289,0.27783203,0.18310547,0.7324219,-0.4272461,0.0,0.0,0.0,-53.893433,62.105713,-28.416138
1766498079278,-0.8911133,-0.3774414,0.26708984,0.0,0.0,-0.18310547,0.0,0.0,0.0,-53.893433,62.105713,-28.416138
1766498079290,-0.8911133,-0.3774414,0.26708984,0.0,0.0,-0.18310547,0.0,0.0,0.0,-53.882446,62.10022,-28.45459
1766498079378,-0.8886719,-0.37158203,0.2705078,0.24414062,-0.91552734,0.061035156,0.0,0.0,0.0,-53.882446,62.10022,-28.45459
1766498079390,-0.8886719,-0.37158203,0.2705078,0.24414062,-0.91552734,0.061035156,0.0,0.0,0.0,-53.811035,62.089233,-28.339233
1766498079478,-0.8901367,-0.375,0.2680664,0.9765625,0.30517578,-0.79345703,0.0,0.0,0.0,-53.811035,62.089233,-28.339233
1766498079489,-0.8901367,-0.375,0.2680664,0.9765625,0.30517578,-0.79345703,0.0,0.0,0.0,-53.723145,62.072754,-28.295288
1766498079577,-0.88378906,-0.37158203,0.27294922,0.4272461,0.0,-0.24414062,0.0,0.0,0.0,-53.723145,62.072754,-28.295288
1766498079589,-0.88378906,-0.37158203,0.27294922,0.4272461,0.0,-0.24414062,0.0,0.0,0.0,-53.76709,62.045288,-28.383179
1766498079677,-0.8876953,-0.37353516,0.27197266,0.30517578,-0.18310547,0.0,0.0,0.0,0.0,-53.76709,62.045288,-28.383179
1766498079689,-0.8876953,-0.37353516,0.27197266,0.30517578,-0.18310547,0.0,0.0,0.0,0.0,-53.6792,62.039795,-28.295288
1766498079777,-0.8886719,-0.37304688,0.27001953,0.18310547,0.0,0.061035156,0.0,0.0,0.0,-53.6792,62.039795,-28.295288
1766498079788,-0.8886719,-0.37304688,0.27001953,0.18310547,0.0,0.061035156,0.0,0.0,0.0,-53.624268,62.039795,-28.21289
1766498079876,-0.8779297,-0.37353516,0.27294922,0.9765625,0.12207031,-0.18310547,0.0,0.0,0.0,-53.624268,62.039795,-28.21289
1766498079888,-0.8779297,-0.37353516,0.27294922,0.9765625,0.12207031,-0.18310547,0.0,0.0,0.0,-53.5968,62.056274,-28.185425
1766498079976,-0.8930664,-0.37695312,0.2705078,0.061035156,-0.6713867,0.30517578,0.0,0.0,0.0,-53.5968,62.056274,-28.185425
1766498079988,-0.8930664,-0.37695312,0.2705078,0.061035156,-0.6713867,0.30517578,0.0,0.0,0.0,-53.48694,62.0343,-28.070068
1766498080076,-0.8808594,-0.36621094,0.27734375,0.12207031,0.0,0.0,0.0,0.0,0.0,-53.48694,62.0343,-28.070068
1766498080088,-0.8808594,-0.36621094,0.27734375,0.12207031,0.0,0.0,0.0,0.0,0.0,-53.45398,62.045288,-28.015137
1766498080176,-0.88964844,-0.37451172,0.2705078,0.18310547,0.0,0.061035156,0.0,0.0,0.0,-53.45398,62.045288,-28.015137
1766498080188,-0.88964844,-0.37451172,0.2705078,0.18310547,0.0,0.061035156,0.0,0.0,0.0,-53.448486,62.056274,-28.048096
1766498080275,-0.8881836,-0.37158203,0.27490234,0.48828125,-0.7324219,0.061035156,0.0,0.0,0.0,-53.448486,62.056274,-28.048096
1766498080287,-0.8881836,-0.37158203,0.27490234,0.48828125,-0.7324219,0.061035156,0.0,0.0,0.0,-53.322144,62.0343,-27.888794
1766498080375,-0.88720703,-0.37060547,0.27978516,0.4272461,-0.24414062,-0.36621094,0.0,0.0,0.0,-53.322144,62.0343,-27.888794
1766498080387,-0.88720703,-0.37060547,0.27978516,0.4272461,-0.24414062,-0.36621094,0.0,0.0,0.0,-53.272705,62.01233,-27.888794
1766498080475,-0.8833008,-0.3725586,0.2763672,-0.48828125,-0.36621094,0.061035156,0.0,0.0,0.0,-53.272705,62.01233,-27.888794
1766498080486,-0.8833008,-0.3725586,0.2763672,-0.48828125,-0.36621094,0.061035156,0.0,0.0,0.0,-53.201294,61.99585,-27.81189
1766498080574,-0.8833008,-0.3701172,0.27783203,-0.6713867,-0.7324219,0.48828125,0.0,0.0,0.0,-53.201294,61.99585,-27.81189
1766498080586,-0.8833008,-0.3701172,0.27783203,-0.6713867,-0.7324219,0.48828125,0.0,0.0,0.0,-53.05298,61.97937,-27.575684
1766498080674,-0.8823242,-0.3701172,0.28515625,-0.36621094,0.18310547,-0.24414062,0.0,0.0,0.0,-53.05298,61.97937,-27.575684
1766498080686,-0.8823242,-0.3701172,0.28515625,-0.36621094,0.18310547,-0.24414062,0.0,0.0,0.0,-53.025513,61.984863,-27.493286
1766498080774,-0.8911133,-0.37304688,0.28271484,-1.4038086,-2.1362305,0.4272461,0.0,0.0,0.0,-53.025513,61.984863,-27.493286
1766498080785,-0.8911133,-0.37304688,0.28271484,-1.4038086,-2.1362305,0.4272461,0.0,0.0,0.0,-52.855225,61.918945,-27.301025
1766498080874,-0.8828125,-0.3671875,0.28222656,-0.30517578,-0.30517578,-0.061035156,0.0,0.0,0.0,-52.855225,61.918945,-27.301025
1766498080885,-0.8828125,-0.3671875,0.28222656,-0.30517578,-0.30517578,-0.061035156,0.0,0.0,0.0,-52.789307,61.90796,-27.224121
1766498080973,-0.8876953,-0.3803711,0.27490234,0.12207031,0.18310547,-0.4272461,0.0,0.0,0.0,-52.789307,61.90796,-27.224121
1766498080985,-0.8876953,-0.3803711,0.27490234,0.12207031,0.18310547,-0.4272461,0.0,0.0,0.0,-52.783813,61.89148,-27.306519
1766498081073,-0.8823242,-0.3701172,0.2841797,0.24414062,-0.61035156,0.0,0.0,0.0,0.0,-52.783813,61.89148,-27.306519
1766498081085,-0.8823242,-0.3701172,0.2841797,0.24414062,-0.61035156,0.0,0.0,0.0,0.0,-52.74536,61.880493,-27.284546
1766498081173,-0.8833008,-0.37109375,0.2841797,0.30517578,0.91552734,-0.4272461,0.0,0.0,0.0,-52.74536,61.880493,-27.284546
1766498081185,-0.8833008,-0.37109375,0.2841797,0.30517578,0.91552734,-0.4272461,0.0,0.0,0.0,-52.69043,61.869507,-27.2406
1766498081273,-0.88378906,-0.37060547,0.2788086,-0.061035156,0.0,-0.24414062,0.0,0.0,0.0,-52.69043,61.869507,-27.2406
1766498081284,-0.88378906,-0.37060547,0.2788086,-0.061035156,0.0,-0.24414062,0.0,0.0,0.0,-52.70691,61.869507,-27.268066
1766498081372,-0.8833008,-0.37158203,0.2788086,-0.30517578,-0.36621094,0.12207031,0.0,0.0,0.0,-52.70691,61.869507,-27.268066
1766498081384,-0.8833008,-0.37158203,0.2788086,-0.30517578,-0.36621094,0.12207031,0.0,0.0,0.0,-52.662964,61.869507,-27.224121
1766498081472,-0.88623047,-0.36914062,0.27783203,0.0,0.36621094,0.0,0.0,0.0,0.0,-52.662964,61.869507,-27.224121
1766498081484,-0.88623047,-0.36914062,0.27783203,0.0,0.36621094,0.0,0.0,0.0,0.0,-52.646484,61.885986,-27.224121
1766498081572,-0.8833008,-0.36767578,0.28564453,0.24414062,0.4272461,-0.5493164,0.0,0.0,0.0,-52.646484,61.885986,-27.224121
1766498081583,-0.8833008,-0.36767578,0.28564453,0.24414062,0.4272461,-0.5493164,0.0,0.0,0.0,-52.73987,61.90796,-27.372437
1766498081671,-0.8833008,-0.36767578,0.27685547,-0.4272461,0.91552734,-0.30517578,0.0,0.0,0.0,-52.73987,61.90796,-27.372437
1766498081683,-0.8833008,-0.36767578,0.27685547,-0.4272461,0.91552734,-0.30517578,0.0,0.0,0.0,-52.61902,61.864014,-27.213135
1766498081771,-0.88916016,-0.37451172,0.27441406,0.36621094,0.18310547,-0.48828125,0.0,0.0,0.0,-52.61902,61.864014,-27.213135
1766498081783,-0.88916016,-0.37451172,0.27441406,0.36621094,0.18310547,-0.48828125,0.0,0.0,0.0,-52.695923,61.864014,-27.36145
1766498081871,-0.8798828,-0.36865234,0.2836914,0.0,0.24414062,-0.30517578,0.0,0.0,0.0,-52.695923,61.864014,-27.36145
1766498081883,-0.8798828,-0.36865234,0.2836914,0.0,0.24414062,-0.30517578,0.0,0.0,0.0,-52.800293,61.880493,-27.504272
1766498081971,-0.88916016,-0.37304688,0.27490234,0.0,0.36621094,-0.18310547,0.0,0.0,0.0,-52.800293,61.880493,-27.504272
1766498081982,-0.88916016,-0.37304688,0.27490234,0.0,0.36621094,-0.18310547,0.0,0.0,0.0,-52.77832,61.875,-27.4823
1766498082071,-0.8828125,-0.37060547,0.2783203,0.12207031,0.7324219,-0.36621094,0.0,0.0,0.0,-52.77832,61.875,-27.4823
1766498082083,-0.8828125,-0.37060547,0.2783203,0.12207031,0.7324219,-0.36621094,0.0,0.0,0.0,-52.910156,61.896973,-27.630615
1766498082170,-0.8833008,-0.37109375,0.27685547,-0.12207031,0.91552734,-0.18310547,0.0,0.0,0.0,-52.910156,61.896973,-27.630615
1766498082182,-0.8833008,-0.37109375,0.27685547,-0.12207031,0.91552734,-0.18310547,0.0,0.0,0.0,-53.047485,61.935425,-27.762451
1766498082270,-0.88916016,-0.3725586,0.27148438,0.0,0.36621094,-0.12207031,0.0,0.0,0.0,-53.047485,61.935425,-27.762451
1766498082281,-0.88916016,-0.3725586,0.27148438,0.0,0.36621094,-0.12207031,0.0,0.0,0.0,-53.151855,61.968384,-27.866821
1766498082370,-0.87939453,-0.37158203,0.27197266,1.0375977,2.0751953,-0.61035156,0.0,0.0,0.0,-53.151855,61.968384,-27.866821
1766498082382,-0.87939453,-0.37158203,0.27197266,1.0375977,2.0751953,-0.61035156,0.0,0.0,0.0,-53.289185,62.017822,-28.00415
1766498082469,-0.8930664,-0.375,0.26220703,-0.79345703,-1.0375977,0.30517578,0.0,0.0,0.0,-53.289185,62.017822,-28.00415
1766498082481,-0.8930664,-0.375,0.26220703,-0.79345703,-1.0375977,0.30517578,0.0,0.0,0.0,-53.38257,62.023315,-28.097534
1766498082569,-0.88427734,-0.3696289,0.2758789,0.9765625,1.0375977,-0.79345703,0.0,0.0,0.0,-53.38257,62.023315,-28.097534
1766498082580,-0.88427734,-0.3696289,0.2758789,0.9765625,1.0375977,-0.79345703,0.0,0.0,0.0,-53.52539,62.05078,-28.22937
1766498082669,-0.8852539,-0.37060547,0.27001953,0.0,0.24414062,-0.48828125,0.0,0.0,0.0,-53.52539,62.05078,-28.22937
1766498082680,-0.8852539,-0.37060547,0.27001953,0.0,0.24414062,-0.48828125,0.0,0.0,0.0,-53.640747,62.045288,-28.3667
1766498082768,-0.890625,-0.375,0.2680664,0.7324219,0.4272461,-0.6713867,0.0,0.0,0.0,-53.640747,62.045288,-28.3667
1766498082780,-0.890625,-0.375,0.2680664,0.7324219,0.4272461,-0.6713867,0.0,0.0,0.0,-53.690186,62.02881,-28.42163
1766498082868,-0.88623047,-0.3725586,0.2709961,0.61035156,1.159668,-1.0986328,0.0,0.0,0.0,-53.690186,62.02881,-28.42163
1766498082879,-0.88623047,-0.3725586,0.2709961,0.61035156,1.159668,-1.0986328,0.0,0.0,0.0,-53.882446,62.023315,-28.674316
1766498082968,-0.88623047,-0.3779297,0.26757812,0.30517578,-0.18310547,-0.30517578,0.0,0.0,0.0,-53.882446,62.023315,-28.674316
1766498082979,-0.88623047,-0.3779297,0.26757812,0.30517578,-0.18310547,-0.30517578,0.0,0.0,0.0,-53.931885,62.001343,-28.78418
1766498083068,-0.8847656,-0.37451172,0.2705078,0.18310547,0.30517578,-0.48828125,0.0,0.0,0.0,-53.931885,62.001343,-28.78418
1766498083079,-0.8847656,-0.37451172,0.2705078,0.18310547,0.30517578,-0.48828125,0.0,0.0,0.0,-53.948364,61.990356,-28.7677
1766498083167,-0.8876953,-0.37353516,0.27148438,0.48828125,0.36621094,-0.30517578,0.0,0.0,0.0,-53.948364,61.990356,-28.7677
1766498083179,-0.8876953,-0.37353516,0.27148438,0.48828125,0.36621094,-0.30517578,0.0,0.0,0.0,-54.02527,61.99585,-28.828125
1766498083267,-0.88916016,-0.3803711,0.27294922,0.061035156,-0.4272461,-0.12207031,0.0,0.0,0.0,-54.02527,61.99585,-28.828125
1766498083278,-0.88916016,-0.3803711,0.27294922,0.061035156,-0.4272461,-0.12207031,0.0,0.0,0.0,-54.09668,62.001343,-28.943481
1766498083367,-0.8833008,-0.37060547,0.27539062,0.061035156,0.6713867,-0.18310547,0.0,0.0,0.0,-54.09668,62.001343,-28.943481
1766498083379,-0.8833008,-0.37060547,0.27539062,0.061035156,0.6713867,-0.18310547,0.0,0.0,0.0,-54.041748,62.001343,-28.773193
1766498083466,-0.89160156,-0.37939453,0.26611328,0.061035156,-0.36621094,-0.061035156,0.0,0.0,0.0,-54.041748,62.001343,-28.773193
1766498083478,-0.89160156,-0.37939453,0.26611328,0.061035156,-0.36621094,-0.061035156,0.0,0.0,0.0,-54.00879,62.01233,-28.75122
1766498083566,-0.8886719,-0.37353516,0.2685547,0.6713867,-1.6479492,0.18310547,0.0,0.0,0.0,-54.00879,62.01233,-28.75122
1766498083578,-0.8886719,-0.37353516,0.2685547,0.6713867,-1.6479492,0.18310547,0.0,0.0,0.0,-53.80005,61.973877,-28.515015
1766498083666,-0.8886719,-0.37548828,0.2685547,0.91552734,0.061035156,-0.6713867,0.0,0.0,0.0,-53.80005,61.973877,-28.515015
1766498083677,-0.8886719,-0.37548828,0.2685547,0.91552734,0.061035156,-0.6713867,0.0,0.0,0.0,-53.657227,61.940918,-28.432617
1766498083766,-0.88378906,-0.37353516,0.27148438,0.4272461,-0.36621094,-0.061035156,0.0,0.0,0.0,-53.657227,61.940918,-28.432617
1766498083777,-0.88378906,-0.37353516,0.27148438,0.4272461,-0.36621094,-0.061035156,0.0,0.0,0.0,-53.66272,61.92444,-28.487549
1766498083865,-0.8857422,-0.37304688,0.27441406,0.24414062,-0.8544922,0.061035156,0.0,0.0,0.0,-53.66272,61.92444,-28.487549
1766498083877,-0.8857422,-0.37304688,0.27441406,0.24414062,-0.8544922,0.061035156,0.0,0.0,0.0,-53.497925,61.90796,-28.284302
1766498083965,-0.8881836,-0.37353516,0.27148438,0.0,-0.061035156,0.061035156,0.0,0.0,0.0,-53.497925,61.90796,-28.284302
1766498083977,-0.8881836,-0.37353516,0.27148438,0.0,-0.061035156,0.061035156,0.0,0.0,0.0,-53.393555,61.89148,-28.152466
1766498084065,-0.8803711,-0.36914062,0.27490234,0.8544922,0.61035156,-0.18310547,0.0,0.0,0.0,-53.393555,61.89148,-28.152466
1766498084076,-0.8803711,-0.36914062,0.27490234,0.8544922,0.61035156,-0.18310547,0.0,0.0,0.0,-53.426514,61.92444,-28.201904
1766498084164,-0.8886719,-0.37402344,0.26708984,-0.5493164,-0.30517578,0.48828125,0.0,0.0,0.0,-53.426514,61.92444,-28.201904
1766498084176,-0.8886719,-0.37402344,0.26708984,-0.5493164,-0.30517578,0.48828125,0.0,0.0,0.0,-53.294678,61.918945,-28.02063
1766498084264,-0.8886719,-0.37158203,0.27490234,0.4272461,0.36621094,-0.24414062,0.0,0.0,0.0,-53.294678,61.918945,-28.02063
1766498084276,-0.8886719,-0.37158203,0.27490234,0.4272461,0.36621094,-0.24414062,0.0,0.0,0.0,-53.33313,61.951904,-28.026123
1766498084364,-0.8828125,-0.37060547,0.2783203,-0.61035156,-0.61035156,0.24414062,0.0,0.0,0.0,-53.33313,61.951904,-28.026123
1766498084376,-0.8828125,-0.37060547,0.2783203,-0.61035156,-0.61035156,0.24414062,0.0,0.0,0.0,-53.40454,61.984863,-28.10852
1766498084464,-0.8886719,-0.37353516,0.26757812,0.30517578,0.0,0.0,0.0,0.0,0.0,-53.40454,61.984863,-28.10852
1766498084475,-0.8886719,-0.37353516,0.26757812,0.30517578,0.0,0.0,0.0,0.0,0.0,-53.28369,61.973877,-27.949219
1766498084563,-0.8833008,-0.3701172,0.27685547,-0.12207031,0.061035156,-0.12207031,0.0,0.0,0.0,-53.28369,61.973877,-27.949219
1766498084575,-0.8833008,-0.3701172,0.27685547,-0.12207031,0.061035156,-0.12207031,0.0,0.0,0.0,-53.327637,61.99585,-27.954712
1766498084663,-0.8828125,-0.37109375,0.27685547,-0.61035156,-0.48828125,0.061035156,0.0,0.0,0.0,-53.327637,61.99585,-27.954712
1766498084675,-0.8828125,-0.37109375,0.27685547,-0.61035156,-0.48828125,0.061035156,0.0,0.0,0.0,-53.344116,61.99585,-27.938232
1766498084763,-0.8857422,-0.36914062,0.27539062,-0.24414062,-0.061035156,0.12207031,0.0,0.0,0.0,-53.344116,61.99585,-27.938232
1766498084775,-0.8857422,-0.36914062,0.27539062,-0.24414062,-0.061035156,0.12207031,0.0,0.0,0.0,-53.28369,61.99585,-27.806396
1766498084863,-0.8808594,-0.37353516,0.27539062,0.36621094,-0.18310547,0.0,0.0,0.0,0.0,-53.28369,61.99585,-27.806396
1766498084874,-0.8808594,-0.37353516,0.27539062,0.36621094,-0.18310547,0.0,0.0,0.0,0.0,-53.267212,62.01233,-27.773438
1766498084962,-0.88916016,-0.37353516,0.27734375,-0.061035156,-1.5258789,0.24414062,0.0,0.0,0.0,-53.267212,62.01233,-27.773438
1766498084974,-0.88916016,-0.37353516,0.27734375,-0.061035156,-1.5258789,0.24414062,0.0,0.0,0.0,-53.063965,61.957397,-27.520752
1766498085062,-0.8808594,-0.36767578,0.28320312,0.18310547,-0.79345703,0.0,0.0,0.0,0.0,-53.063965,61.957397,-27.520752
1766498085073,-0.8808594,-0.36767578,0.28320312,0.18310547,-0.79345703,0.0,0.0,0.0,0.0,-52.965088,61.94641,-27.416382
1766498085162,-0.88378906,-0.37109375,0.27246094,0.0,-0.12207031,-0.18310547,0.0,0.0,0.0,-52.965088,61.94641,-27.416382
1766498085173,-0.88378906,-0.37109375,0.27246094,0.0,-0.12207031,-0.18310547,0.0,0.0,0.0,-52.937622,61.92993,-27.438354
1766498085261,-0.88623047,-0.37060547,0.2763672,-0.061035156,-1.0375977,0.061035156,0.0,0.0,0.0,-52.937622,61.92993,-27.438354
1766498085273,-0.88623047,-0.37060547,0.2763672,-0.061035156,-1.0375977,0.061035156,0.0,0.0,0.0,-52.86621,61.90796,-27.36145
1766498085361,-0.8833008,-0.36914062,0.2841797,0.4272461,0.61035156,-0.48828125,0.0,0.0,0.0,-52.86621,61.90796,-27.36145
1766498085373,-0.8833008,-0.36914062,0.2841797,0.4272461,0.61035156,-0.48828125,0.0,0.0,0.0,-52.943115,61.92444,-27.471313
1766498085461,-0.8852539,-0.37060547,0.27783203,-0.12207031,0.061035156,-0.061035156,0.0,0.0,0.0,-52.943115,61.92444,-27.471313
1766498085472,-0.8852539,-0.37060547,0.27783203,-0.12207031,0.061035156,-0.061035156,0.0,0.0,0.0,-52.904663,61.92444,-27.44934
1766498085560,-0.88427734,-0.3720703,0.27539062,0.12207031,0.0,-0.24414062,0.0,0.0,0.0,-52.904663,61.92444,-27.44934
1766498085572,-0.88427734,-0.3720703,0.27539062,0.12207031,0.0,-0.24414062,0.0,0.0,0.0,-52.86621,61.918945,-27.438354
1766498085660,-0.88720703,-0.37060547,0.27294922,0.4272461,0.4272461,-0.24414062,0.0,0.0,0.0,-52.86621,61.918945,-27.438354
1766498085672,-0.88720703,-0.37060547,0.27294922,0.4272461,0.4272461,-0.24414062,0.0,0.0,0.0,-52.89917,61.918945,-27.515259
1766498085760,-0.8798828,-0.36914062,0.27783203,0.91552734,0.79345703,-0.61035156,0.0,0.0,0.0,-52.89917,61.918945,-27.515259
1766498085771,-0.8798828,-0.36914062,0.27783203,0.91552734,0.79345703,-0.61035156,0.0,0.0,0.0,-52.98706,61.935425,-27.652588
1766498085860,-0.88964844,-0.37109375,0.26953125,-0.79345703,-0.12207031,0.061035156,0.0,0.0,0.0,-52.98706,61.935425,-27.652588
1766498085871,-0.88964844,-0.37109375,0.26953125,-0.79345703,-0.12207031,0.061035156,0.0,0.0,0.0,-52.88269,61.885986,-27.531738
1766498085959,-0.88671875,-0.37353516,0.27539062,0.6713867,0.12207031,-0.4272461,0.0,0.0,0.0,-52.88269,61.885986,-27.531738
1766498085971,-0.88671875,-0.37353516,0.27539062,0.6713867,0.12207031,-0.4272461,0.0,0.0,0.0,-52.992554,61.90796,-27.713013
1766498086059,-0.88378906,-0.36865234,0.27929688,-0.12207031,-0.18310547,-0.061035156,0.0,0.0,0.0,-52.992554,61.90796,-27.713013
1766498086071,-0.88378906,-0.36865234,0.27929688,-0.12207031,-0.18310547,-0.061035156,0.0,0.0,0.0,-53.02002,61.913452,-27.740479
1766498086159,-0.8881836,-0.37646484,0.27294922,0.4272461,0.4272461,-0.36621094,0.0,0.0,0.0,-53.02002,61.913452,-27.740479
1766498086171,-0.8881836,-0.37646484,0.27294922,0.4272461,0.4272461,-0.36621094,0.0,0.0,0.0,-53.014526,61.90796,-27.767944
1766498086259,-0.8857422,-0.37060547,0.27783203,0.0,0.4272461,-0.30517578,0.0,0.0,0.0,-53.014526,61.90796,-27.767944
1766498086270,-0.8857422,-0.37060547,0.27783203,0.0,0.4272461,-0.30517578,0.0,0.0,0.0,-53.10791,61.918945,-27.855835
1766498086358,-0.88623047,-0.37158203,0.27783203,-0.18310547,-0.18310547,0.061035156,0.0,0.0,0.0,-53.10791,61.918945,-27.855835
1766498086370,-0.88623047,-0.37158203,0.27783203,-0.18310547,-0.18310547,0.061035156,0.0,0.0,0.0,-53.10791,61.918945,-27.822876
1766498086458,-0.8847656,-0.37109375,0.27685547,-0.24414062,0.18310547,-0.30517578,0.0,0.0,0.0,-53.10791,61.918945,-27.822876
1766498086470,-0.8847656,-0.37109375,0.27685547,-0.24414062,0.18310547,-0.30517578,0.0,0.0,0.0,-53.102417,61.92993,-27.79541
1766498086558,-0.8852539,-0.37060547,0.27539062,-0.4272461,0.36621094,-0.18310547,0.0,0.0,0.0,-53.102417,61.92993,-27.79541
1766498086569,-0.8852539,-0.37060547,0.27539062,-0.4272461,0.36621094,-0.18310547,0.0,0.0,0.0,-53.17383,61.940918,-27.894287
1766498086658,-0.88964844,-0.37158203,0.28027344,0.24414062,0.7324219,-0.79345703,0.0,0.0,0.0,-53.17383,61.940918,-27.894287
1766498086669,-0.88964844,-0.37158203,0.28027344,0.24414062,0.7324219,-0.79345703,0.0,0.0,0.0,-53.294678,61.951904,-28.059082
1766498086757,-0.8852539,-0.3696289,0.27441406,-0.24414062,1.2207031,-0.36621094,0.0,0.0,0.0,-53.294678,61.951904,-28.059082
1766498086769,-0.8852539,-0.3696289,0.27441406,-0.24414062,1.2207031,-0.36621094,0.0,0.0,0.0,-53.267212,61.935425,-27.976685
1766498086857,-0.88964844,-0.37646484,0.2680664,0.30517578,0.0,-0.48828125,0.0,0.0,0.0,-53.267212,61.935425,-27.976685
1766498086869,-0.88964844,-0.37646484,0.2680664,0.30517578,0.0,-0.48828125,0.0,0.0,0.0,-53.36609,61.951904,-28.130493
1766498086957,-0.8833008,-0.3720703,0.27734375,-0.061035156,-0.061035156,-0.12207031,0.0,0.0,0.0,-53.36609,61.951904,-28.130493
1766498086968,-0.8833008,-0.3720703,0.27734375,-0.061035156,-0.061035156,-0.12207031,0.0,0.0,0.0,-53.393555,61.957397,-28.130493
1766498087057,-0.8886719,-0.37451172,0.26904297,0.48828125,0.91552734,-0.61035156,0.0,0.0,0.0,-53.393555,61.957397,-28.130493
