timestamp,accX,accY,accZ,gyroX,gyroY,gyroZ,magX,magY,magZ,roll,pitch,yaw
1765589485271,-0.96435547,0.24023438,-0.15625,-0.36621094,-0.4272461,0.0,0.0,0.0,0.0,123.62366,73.26233,-162.41638
1765589485282,-0.96435547,0.24023438,-0.15625,-0.36621094,-0.4272461,0.0,0.0,0.0,0.0,123.601685,73.2843,-162.41638
1765589485371,-0.96191406,0.23632812,-0.1538086,0.061035156,-0.24414062,0.18310547,0.0,0.0,0.0,123.601685,73.2843,-162.41638
1765589485382,-0.96191406,0.23632812,-0.1538086,0.061035156,-0.24414062,0.18310547,0.0,0.0,0.0,123.513794,73.2843,-162.50977
1765589485470,-0.9614258,0.23583984,-0.15332031,-0.12207031,-0.30517578,-0.18310547,0.0,0.0,0.0,123.513794,73.2843,-162.50977
1765589485482,-0.9614258,0.23583984,-0.15332031,-0.12207031,-0.30517578,-0.18310547,0.0,0.0,0.0,123.4314,73.31177,-162.57019
1765589485571,-0.9638672,0.23925781,-0.14794922,0.0,0.48828125,0.24414062,0.0,0.0,0.0,123.4314,73.31177,-162.57019
1765589485582,-0.9638672,0.23925781,-0.14794922,0.0,0.48828125,0.24414062,0.0,0.0,0.0,123.45886,73.289795,-162.5592
1765589485674,-0.9604492,0.24511719,-0.15576172,-0.7324219,0.0,-0.061035156,0.0,0.0,0.0,123.45886,73.289795,-162.5592
1765589485682,-0.9604492,0.24511719,-0.15576172,-0.7324219,0.0,-0.061035156,0.0,0.0,0.0,123.343506,73.27881,-162.7185
1765589485774,-0.9628906,0.23730469,-0.15136719,-0.30517578,0.5493164,-0.18310547,0.0,0.0,0.0,123.343506,73.27881,-162.7185
1765589485782,-0.9628906,0.23730469,-0.15136719,-0.30517578,0.5493164,-0.18310547,0.0,0.0,0.0,123.35449,73.29529,-162.66357
1765589485869,-0.9633789,0.24169922,-0.15234375,-0.36621094,0.4272461,-0.18310547,0.0,0.0,0.0,123.35449,73.29529,-162.66357
1765589485881,-0.9633789,0.24169922,-0.15234375,-0.36621094,0.4272461,-0.18310547,0.0,0.0,0.0,123.359985,73.30078,-162.66907
1765589485969,-0.9614258,0.2397461,-0.15332031,0.0,-0.12207031,0.0,0.0,0.0,0.0,123.359985,73.30078,-162.66907
1765589485980,-0.9614258,0.2397461,-0.15332031,0.0,-0.12207031,0.0,0.0,0.0,0.0,123.29956,73.31177,-162.72949
1765589486069,-0.96240234,0.2368164,-0.15332031,-0.48828125,0.24414062,-0.24414062,0.0,0.0,0.0,123.29956,73.31177,-162.72949
1765589486081,-0.96240234,0.2368164,-0.15332031,-0.48828125,0.24414062,-0.24414062,0.0,0.0,0.0,123.35449,73.306274,-162.66357
1765589486168,-0.96240234,0.23925781,-0.15283203,0.12207031,0.4272461,-0.061035156,0.0,0.0,0.0,123.35449,73.306274,-162.66357
1765589486180,-0.96240234,0.23925781,-0.15283203,0.12207031,0.4272461,-0.061035156,0.0,0.0,0.0,123.43689,73.29529,-162.58667
1765589486268,-0.9609375,0.23876953,-0.1538086,0.36621094,0.79345703,0.0,0.0,0.0,0.0,123.43689,73.29529,-162.58667
1765589486280,-0.9609375,0.23876953,-0.1538086,0.36621094,0.79345703,0.0,0.0,0.0,0.0,123.585205,73.273315,-162.46582
1765589486369,-0.9633789,0.23876953,-0.15527344,0.0,0.6713867,0.0,0.0,0.0,0.0,123.585205,73.273315,-162.46582
1765589486380,-0.9633789,0.23876953,-0.15527344,0.0,0.6713867,0.0,0.0,0.0,0.0,123.77197,73.24036,-162.29553
1765589486468,-0.9614258,0.23876953,-0.1586914,-0.18310547,0.0,0.0,0.0,0.0,0.0,123.77197,73.24036,-162.29553
1765589486479,-0.9614258,0.23876953,-0.1586914,-0.18310547,0.0,0.0,0.0,0.0,0.0,123.84888,73.22388,-162.21313
1765589486567,-0.96240234,0.2397461,-0.16015625,0.18310547,0.18310547,0.0,0.0,0.0,0.0,123.84888,73.22388,-162.21313
1765589486579,-0.96240234,0.2397461,-0.16015625,0.18310547,0.18310547,0.0,0.0,0.0,0.0,123.914795,73.21289,-162.1637
1765589486667,-0.9609375,0.2368164,-0.15625,-0.24414062,0.12207031,0.0,0.0,0.0,0.0,123.914795,73.21289,-162.1637
1765589486679,-0.9609375,0.2368164,-0.15625,-0.24414062,0.12207031,0.0,0.0,0.0,0.0,124.03015,73.17993,-162.02087
1765589486767,-0.9614258,0.23779297,-0.15722656,-0.5493164,0.0,0.0,0.0,0.0,0.0,124.03015,73.17993,-162.02087
1765589486778,-0.9614258,0.23779297,-0.15722656,-0.5493164,0.0,0.0,0.0,0.0,0.0,123.98071,73.185425,-162.05383
1765589486866,-0.9589844,0.23583984,-0.15673828,0.0,0.0,0.0,0.0,0.0,0.0,123.98071,73.185425,-162.05383
1765589486879,-0.9589844,0.23583984,-0.15673828,0.0,0.0,0.0,0.0,0.0,0.0,123.98071,73.19641,-162.02087
1765589486966,-0.96435547,0.23730469,-0.15332031,-0.6713867,0.4272461,-0.061035156,0.0,0.0,0.0,123.98071,73.19641,-162.02087
1765589486978,-0.96435547,0.23730469,-0.15332031,-0.6713867,0.4272461,-0.061035156,0.0,0.0,0.0,124.02466,73.19092,-161.94946
1765589487066,-0.95947266,0.23730469,-0.15917969,-0.24414062,0.0,0.061035156,0.0,0.0,0.0,124.02466,73.19092,-161.94946
1765589487078,-0.95947266,0.23730469,-0.15917969,-0.24414062,0.0,0.061035156,0.0,0.0,0.0,123.95874,73.19092,-162.01538
1765589487166,-0.9609375,0.2368164,-0.15820312,-0.7324219,0.30517578,-0.30517578,0.0,0.0,0.0,123.95874,73.19092,-162.01538
1765589487177,-0.9609375,0.2368164,-0.15820312,-0.7324219,0.30517578,-0.30517578,0.0,0.0,0.0,123.96973,73.201904,-161.96594
1765589487266,-0.95996094,0.23828125,-0.1586914,-0.12207031,-0.24414062,-0.061035156,0.0,0.0,0.0,123.96973,73.201904,-161.96594
1765589487277,-0.95996094,0.23828125,-0.1586914,-0.12207031,-0.24414062,-0.061035156,0.0,0.0,0.0,123.986206,73.2074,-161.922
1765589487365,-0.9589844,0.23583984,-0.15917969,-0.061035156,0.0,0.0,0.0,0.0,0.0,123.986206,73.2074,-161.922
1765589487377,-0.9589844,0.23583984,-0.15917969,-0.061035156,0.0,0.0,0.0,0.0,0.0,123.986206,73.201904,-161.90552
1765589487465,-0.9609375,0.23730469,-0.15771484,0.0,0.061035156,0.0,0.0,0.0,0.0,123.986206,73.201904,-161.90552
1765589487476,-0.9609375,0.23730469,-0.15771484,0.0,0.061035156,0.0,0.0,0.0,0.0,124.01367,73.201904,-161.89453
1765589487565,-0.9604492,0.23779297,-0.15576172,0.18310547,-0.061035156,0.0,0.0,0.0,0.0,124.01367,73.201904,-161.89453
1765589487576,-0.9604492,0.23779297,-0.15576172,0.18310547,-0.061035156,0.0,0.0,0.0,0.0,123.9917,73.2074,-161.94397
1765589487664,-0.96240234,0.24072266,-0.15332031,-0.061035156,0.5493164,0.0,0.0,0.0,0.0,123.9917,73.2074,-161.94397
1765589487676,-0.96240234,0.24072266,-0.15332031,-0.061035156,0.5493164,0.0,0.0,0.0,0.0,123.96423,73.21289,-162.01538
1765589487765,-0.9589844,0.24072266,-0.15917969,0.5493164,-0.4272461,0.12207031,0.0,0.0,0.0,123.96423,73.21289,-162.01538
1765589487776,-0.9589844,0.24072266,-0.15917969,0.5493164,-0.4272461,0.12207031,0.0,0.0,0.0,123.92029,73.21289,-162.11426
1765589487864,-0.95996094,0.23779297,-0.15429688,-0.18310547,0.30517578,-0.12207031,0.0,0.0,0.0,123.92029,73.21289,-162.11426
1765589487876,-0.95996094,0.23779297,-0.15429688,-0.18310547,0.30517578,-0.12207031,0.0,0.0,0.0,123.898315,73.21838,-162.14722
1765589487964,-0.96240234,0.23925781,-0.15673828,-0.12207031,0.12207031,-0.061035156,0.0,0.0,0.0,123.898315,73.21838,-162.14722
1765589487976,-0.96240234,0.23925781,-0.15673828,-0.12207031,0.12207031,-0.061035156,0.0,0.0,0.0,123.93677,73.21838,-162.13074
1765589488063,-0.95996094,0.23779297,-0.15673828,0.12207031,-0.12207031,0.12207031,0.0,0.0,0.0,123.93677,73.21838,-162.13074
1765589488076,-0.95996094,0.23779297,-0.15673828,0.12207031,-0.12207031,0.12207031,0.0,0.0,0.0,123.92029,73.21838,-162.14172
1765589488163,-0.9614258,0.23828125,-0.15722656,0.0,0.12207031,0.0,0.0,0.0,0.0,123.92029,73.21838,-162.14172
1765589488174,-0.9614258,0.23828125,-0.15722656,0.0,0.12207031,0.0,0.0,0.0,0.0,123.90381,73.21838,-162.17468
1765589488263,-0.9604492,0.23876953,-0.15625,0.0,0.061035156,0.0,0.0,0.0,0.0,123.90381,73.21838,-162.17468
1765589488274,-0.9604492,0.23876953,-0.15625,0.0,0.061035156,0.0,0.0,0.0,0.0,123.92029,73.21289,-162.15271
1765589488362,-0.96191406,0.23925781,-0.15576172,-0.061035156,0.0,0.0,0.0,0.0,0.0,123.92029,73.21289,-162.15271
1765589488374,-0.96191406,0.23925781,-0.15576172,-0.061035156,0.0,0.0,0.0,0.0,0.0,123.914795,73.21289,-162.16919
1765589488462,-0.96191406,0.23779297,-0.15722656,-0.24414062,-0.061035156,0.0,0.0,0.0,0.0,123.914795,73.21289,-162.16919
1765589488474,-0.96191406,0.23779297,-0.15722656,-0.24414062,-0.061035156,0.0,0.0,0.0,0.0,123.88733,73.21289,-162.18567
1765589488562,-0.96240234,0.23730469,-0.15673828,0.0,-0.061035156,0.0,0.0,0.0,0.0,123.88733,73.21289,-162.18567
1765589488574,-0.96240234,0.23730469,-0.15673828,0.0,-0.061035156,0.0,0.0,0.0,0.0,123.87634,73.21289,-162.19116
1765589488662,-0.95947266,0.2368164,-0.15576172,0.4272461,-0.4272461,0.0,0.0,0.0,0.0,123.87634,73.21289,-162.19116
1765589488673,-0.95947266,0.2368164,-0.15576172,0.4272461,-0.4272461,0.0,0.0,0.0,0.0,123.826904,73.22388,-162.25159
1765589488761,-0.9633789,0.23632812,-0.15136719,-0.36621094,0.6713867,0.0,0.0,0.0,0.0,123.826904,73.22388,-162.25159
1765589488773,-0.9633789,0.23632812,-0.15136719,-0.36621094,0.6713867,0.0,0.0,0.0,0.0,123.87085,73.21289,-162.21863
1765589488861,-0.95996094,0.24072266,-0.15820312,0.0,0.12207031,0.0,0.0,0.0,0.0,123.87085,73.21289,-162.21863
1765589488872,-0.95996094,0.24072266,-0.15820312,0.0,0.12207031,0.0,0.0,0.0,0.0,123.86536,73.21838,-162.2406
1765589488961,-0.96191406,0.2368164,-0.15722656,-0.061035156,0.4272461,0.0,0.0,0.0,0.0,123.86536,73.21838,-162.2406
1765589488972,-0.96191406,0.2368164,-0.15722656,-0.061035156,0.4272461,0.0,0.0,0.0,0.0,123.89282,73.2074,-162.20764
1765589489060,-0.9628906,0.23925781,-0.15771484,-0.12207031,0.061035156,0.0,0.0,0.0,0.0,123.89282,73.2074,-162.20764
1765589489072,-0.9628906,0.23925781,-0.15771484,-0.12207031,0.061035156,0.0,0.0,0.0,0.0,123.92578,73.2074,-162.18567
1765589489160,-0.95947266,0.23730469,-0.15576172,0.18310547,-0.24414062,0.0,0.0,0.0,0.0,123.92578,73.2074,-162.18567
1765589489172,-0.95947266,0.23730469,-0.15576172,0.18310547,-0.24414062,0.0,0.0,0.0,0.0,123.914795,73.2074,-162.19116
1765589489260,-0.9614258,0.23828125,-0.15722656,-0.4272461,0.30517578,0.0,0.0,0.0,0.0,123.914795,73.2074,-162.19116
1765589489272,-0.9614258,0.23828125,-0.15722656,-0.4272461,0.30517578,0.0,0.0,0.0,0.0,123.914795,73.2074,-162.18018
1765589489360,-0.96191406,0.23828125,-0.15771484,-0.24414062,0.0,0.0,0.0,0.0,0.0,123.914795,73.2074,-162.18018
1765589489371,-0.96191406,0.23828125,-0.15771484,-0.24414062,0.0,0.0,0.0,0.0,0.0,123.92029,73.201904,-162.1637
1765589489461,-0.9584961,0.23828125,-0.15771484,-0.24414062,-0.4272461,0.0,0.0,0.0,0.0,123.92029,73.201904,-162.1637
1765589489472,-0.9584961,0.23828125,-0.15771484,-0.24414062,-0.4272461,0.0,0.0,0.0,0.0,123.84888,73.21289,-162.22961
1765589489561,-0.95947266,0.23730469,-0.15576172,-1.5869141,-0.6713867,-1.0375977,0.0,0.0,0.0,123.84888,73.21289,-162.22961
1765589489572,-0.95947266,0.23730469,-0.15576172,-1.5869141,-0.6713867,-1.0375977,0.0,0.0,0.0,123.69507,73.31726,-162.25159
1765589489659,-0.9658203,0.23242188,-0.14550781,1.159668,0.48828125,0.8544922,0.0,0.0,0.0,123.69507,73.31726,-162.25159
1765589489670,-0.9658203,0.23242188,-0.14550781,1.159668,0.48828125,0.8544922,0.0,0.0,0.0,123.6676,73.32825,-162.30103
1765589489759,-0.95947266,0.24023438,-0.15673828,0.30517578,-0.24414062,0.5493164,0.0,0.0,0.0,123.6676,73.32825,-162.30103
1765589489770,-0.95947266,0.24023438,-0.15673828,0.30517578,-0.24414062,0.5493164,0.0,0.0,0.0,123.5083,73.24036,-162.5647
1765589489858,-0.9589844,0.24169922,-0.16015625,0.12207031,-0.8544922,-0.61035156,0.0,0.0,0.0,123.5083,73.24036,-162.5647
1765589489870,-0.9589844,0.24169922,-0.16015625,0.12207031,-0.8544922,-0.61035156,0.0,0.0,0.0,123.349,73.32825,-162.72949
1765589489958,-0.9667969,0.24023438,-0.15332031,0.91552734,0.0,0.6713867,0.0,0.0,0.0,123.349,73.32825,-162.72949
1765589489970,-0.9667969,0.24023438,-0.15332031,0.91552734,0.0,0.6713867,0.0,0.0,0.0,123.53577,73.2843,-162.57568
1765589490058,-0.9638672,0.23632812,-0.15283203,0.24414062,-0.6713867,0.12207031,0.0,0.0,0.0,123.53577,73.2843,-162.57568
1765589490070,-0.9638672,0.23632812,-0.15283203,0.24414062,-0.6713867,0.12207031,0.0,0.0,0.0,123.35449,73.26782,-162.8064
1765589490157,-0.95996094,0.24023438,-0.15673828,-0.30517578,0.18310547,-0.4272461,0.0,0.0,0.0,123.35449,73.26782,-162.8064
1765589490169,-0.95996094,0.24023438,-0.15673828,-0.30517578,0.18310547,-0.4272461,0.0,0.0,0.0,123.349,73.29529,-162.8009
1765589490257,-0.96533203,0.2368164,-0.14941406,0.061035156,0.061035156,-0.061035156,0.0,0.0,0.0,123.349,73.29529,-162.8009
1765589490269,-0.96533203,0.2368164,-0.14941406,0.061035156,0.061035156,-0.061035156,0.0,0.0,0.0,123.513794,73.29529,-162.58667
1765589490357,-0.9604492,0.23925781,-0.15625,0.61035156,0.30517578,0.30517578,0.0,0.0,0.0,123.513794,73.29529,-162.58667
1765589490369,-0.9604492,0.23925781,-0.15625,0.61035156,0.30517578,0.30517578,0.0,0.0,0.0,123.47534,73.27881,-162.68005
1765589490457,-0.9628906,0.23876953,-0.15527344,-0.18310547,0.6713867,-0.30517578,0.0,0.0,0.0,123.47534,73.27881,-162.68005
1765589490468,-0.9628906,0.23876953,-0.15527344,-0.18310547,0.6713867,-0.30517578,0.0,0.0,0.0,123.673096,73.24036,-162.4823
1765589490556,-0.96240234,0.23779297,-0.15283203,0.18310547,0.12207031,-0.30517578,0.0,0.0,0.0,123.673096,73.24036,-162.4823
1765589490568,-0.96240234,0.23779297,-0.15283203,0.18310547,0.12207031,-0.30517578,0.0,0.0,0.0,123.85437,73.24585,-162.29004
1765589490656,-0.9614258,0.23876953,-0.15771484,-0.12207031,0.48828125,0.061035156,0.0,0.0,0.0,123.85437,73.24585,-162.29004
1765589490667,-0.9614258,0.23876953,-0.15771484,-0.12207031,0.48828125,0.061035156,0.0,0.0,0.0,123.914795,73.23486,-162.21863
1765589490756,-0.9609375,0.23730469,-0.15625,-0.48828125,0.061035156,-0.18310547,0.0,0.0,0.0,123.914795,73.23486,-162.21863
1765589490767,-0.9609375,0.23730469,-0.15625,-0.48828125,0.061035156,-0.18310547,0.0,0.0,0.0,123.986206,73.22388,-162.11426
1765589490856,-0.96435547,0.23730469,-0.15917969,-0.61035156,0.0,0.0,0.0,0.0,0.0,123.986206,73.22388,-162.11426
1765589490868,-0.96435547,0.23730469,-0.15917969,-0.61035156,0.0,0.0,0.0,0.0,0.0,123.99719,73.22937,-162.06482
1765589490955,-0.95947266,0.23583984,-0.15820312,0.061035156,-0.48828125,-0.061035156,0.0,0.0,0.0,123.99719,73.22937,-162.06482
1765589490967,-0.95947266,0.23583984,-0.15820312,0.061035156,-0.48828125,-0.061035156,0.0,0.0,0.0,123.92578,73.24036,-162.13074
1765589491055,-0.9628906,0.23828125,-0.15185547,-0.30517578,0.12207031,0.0,0.0,0.0,0.0,123.92578,73.24036,-162.13074
1765589491067,-0.9628906,0.23828125,-0.15185547,-0.30517578,0.12207031,0.0,0.0,0.0,0.0,123.95325,73.23486,-162.07031
1765589491155,-0.96240234,0.23828125,-0.15576172,-0.79345703,0.0,-0.36621094,0.0,0.0,0.0,123.95325,73.23486,-162.07031
1765589491166,-0.96240234,0.23828125,-0.15576172,-0.79345703,0.0,-0.36621094,0.0,0.0,0.0,123.881836,73.24585,-162.11975
1765589491254,-0.9604492,0.23730469,-0.15625,-0.30517578,0.24414062,-0.18310547,0.0,0.0,0.0,123.881836,73.24585,-162.11975
1765589491266,-0.9604492,0.23730469,-0.15625,-0.30517578,0.24414062,-0.18310547,0.0,0.0,0.0,123.931274,73.256836,-162.04285
1765589491354,-0.96484375,0.2368164,-0.1538086,-0.7324219,0.6713867,0.0,0.0,0.0,0.0,123.931274,73.256836,-162.04285
1765589491366,-0.96484375,0.2368164,-0.1538086,-0.7324219,0.6713867,0.0,0.0,0.0,0.0,124.002686,73.25134,-161.93848
1765589491454,-0.9584961,0.23828125,-0.1586914,-0.12207031,0.30517578,0.061035156,0.0,0.0,0.0,124.002686,73.25134,-161.93848
1765589491465,-0.9584961,0.23828125,-0.1586914,-0.12207031,0.30517578,0.061035156,0.0,0.0,0.0,124.019165,73.24036,-161.92749
1765589491554,-0.9589844,0.23583984,-0.16113281,-0.061035156,0.18310547,-0.061035156,0.0,0.0,0.0,124.019165,73.24036,-161.92749
1765589491565,-0.9589844,0.23583984,-0.16113281,-0.061035156,0.18310547,-0.061035156,0.0,0.0,0.0,124.02466,73.24585,-161.91101
1765589491653,-0.96191406,0.23583984,-0.15820312,0.0,0.061035156,0.0,0.0,0.0,0.0,124.02466,73.24585,-161.91101
1765589491665,-0.96191406,0.23583984,-0.15820312,0.0,0.061035156,0.0,0.0,0.0,0.0,124.12903,73.23486,-161.81763
1765589491754,-0.9609375,0.23828125,-0.15625,0.0,0.12207031,0.0,0.0,0.0,0.0,124.12903,73.23486,-161.81763
1765589491764,-0.9609375,0.23828125,-0.15625,0.0,0.12207031,0.0,0.0,0.0,0.0,124.14551,73.23486,-161.82312
1765589491854,-0.9609375,0.23632812,-0.1586914,-0.061035156,0.061035156,0.0,0.0,0.0,0.0,124.14551,73.23486,-161.82312
1765589491864,-0.9609375,0.23632812,-0.1586914,-0.061035156,0.061035156,0.0,0.0,0.0,0.0,124.18396,73.22388,-161.79016
1765589491953,-0.96240234,0.23730469,-0.16015625,-0.36621094,-0.24414062,0.0,0.0,0.0,0.0,124.18396,73.22388,-161.79016
1765589491964,-0.96240234,0.23730469,-0.16015625,-0.36621094,-0.24414062,0.0,0.0,0.0,0.0,124.211426,73.21838,-161.76819
1765589492053,-0.9609375,0.2368164,-0.16064453,0.4272461,-0.24414062,0.0,0.0,0.0,0.0,124.211426,73.21838,-161.76819
1765589492064,-0.9609375,0.2368164,-0.16064453,0.4272461,-0.24414062,0.0,0.0,0.0,0.0,124.151,73.22937,-161.8451
1765589492152,-0.9604492,0.23339844,-0.15332031,0.0,0.24414062,0.0,0.0,0.0,0.0,124.151,73.22937,-161.8451
1765589492164,-0.9604492,0.23339844,-0.15332031,0.0,0.24414062,0.0,0.0,0.0,0.0,124.227905,73.21289,-161.76819
1765589492251,-0.9628906,0.23828125,-0.15527344,-0.12207031,0.30517578,0.0,0.0,0.0,0.0,124.227905,73.21289,-161.76819
1765589492263,-0.9628906,0.23828125,-0.15527344,-0.12207031,0.30517578,0.0,0.0,0.0,0.0,124.244385,73.21838,-161.77917
1765589492351,-0.95996094,0.23583984,-0.15722656,-0.061035156,0.4272461,0.0,0.0,0.0,0.0,124.244385,73.21838,-161.77917
1765589492363,-0.95996094,0.23583984,-0.15722656,-0.061035156,0.4272461,0.0,0.0,0.0,0.0,124.27185,73.2074,-161.75171
1765589492451,-0.9638672,0.23730469,-0.15576172,-0.4272461,0.4272461,0.0,0.0,0.0,0.0,124.27185,73.2074,-161.75171
1765589492463,-0.9638672,0.23730469,-0.15576172,-0.4272461,0.4272461,0.0,0.0,0.0,0.0,124.32129,73.201904,-161.70776
1765589492551,-0.95947266,0.23583984,-0.15966797,0.12207031,-0.12207031,0.0,0.0,0.0,0.0,124.32129,73.201904,-161.70776
1765589492563,-0.95947266,0.23583984,-0.15966797,0.12207031,-0.12207031,0.0,0.0,0.0,0.0,124.27734,73.2074,-161.75171
1765589492650,-0.9614258,0.23535156,-0.15722656,-0.24414062,0.12207031,0.0,0.0,0.0,0.0,124.27734,73.2074,-161.75171
1765589492663,-0.9614258,0.23535156,-0.15722656,-0.24414062,0.12207031,0.0,0.0,0.0,0.0,124.260864,73.201904,-161.74622
1765589492750,-0.9614258,0.2368164,-0.15771484,0.061035156,-0.061035156,0.0,0.0,0.0,0.0,124.260864,73.201904,-161.74622
1765589492762,-0.9614258,0.2368164,-0.15771484,0.061035156,-0.061035156,0.0,0.0,0.0,0.0,124.260864,73.201904,-161.7572
1765589492850,-0.9604492,0.23730469,-0.15771484,-0.061035156,-0.12207031,0.0,0.0,0.0,0.0,124.260864,73.201904,-161.7572
1765589492861,-0.9604492,0.23730469,-0.15771484,-0.061035156,-0.12207031,0.0,0.0,0.0,0.0,124.244385,73.2074,-161.77917
1765589492950,-0.96191406,0.23876953,-0.1586914,-0.061035156,-0.061035156,0.0,0.0,0.0,0.0,124.244385,73.2074,-161.77917
1765589492961,-0.96191406,0.23876953,-0.1586914,-0.061035156,-0.061035156,0.0,0.0,0.0,0.0,124.211426,73.21289,-161.80115
1765589493049,-0.96240234,0.23730469,-0.15722656,-0.18310547,-0.24414062,0.0,0.0,0.0,0.0,124.211426,73.21289,-161.80115
1765589493061,-0.96240234,0.23730469,-0.15722656,-0.18310547,-0.24414062,0.0,0.0,0.0,0.0,124.16748,73.21289,-161.82861
1765589493149,-0.96240234,0.23535156,-0.15527344,0.0,-0.5493164,0.0,0.0,0.0,0.0,124.16748,73.21289,-161.82861
1765589493161,-0.96240234,0.23535156,-0.15527344,0.0,-0.5493164,0.0,0.0,0.0,0.0,124.04114,73.23486,-161.96045
1765589493249,-0.9628906,0.23779297,-0.15917969,0.12207031,-0.24414062,0.0,0.0,0.0,0.0,124.04114,73.23486,-161.96045
1765589493260,-0.9628906,0.23779297,-0.15917969,0.12207031,-0.24414062,0.0,0.0,0.0,0.0,123.92029,73.273315,-162.13074
1765589493348,-0.95996094,0.2397461,-0.15771484,0.48828125,-0.6713867,0.0,0.0,0.0,0.0,123.92029,73.273315,-162.13074
1765589493360,-0.95996094,0.2397461,-0.15771484,0.48828125,-0.6713867,0.0,0.0,0.0,0.0,123.87634,73.29529,-162.22412
1765589493448,-0.96240234,0.23828125,-0.1538086,0.6713867,-0.24414062,0.0,0.0,0.0,0.0,123.87634,73.29529,-162.22412
1765589493460,-0.96240234,0.23828125,-0.1538086,0.6713867,-0.24414062,0.0,0.0,0.0,0.0,123.83789,73.306274,-162.29004
1765589493548,-0.95996094,0.23876953,-0.15917969,-0.061035156,-0.12207031,0.0,0.0,0.0,0.0,123.83789,73.306274,-162.29004
1765589493559,-0.95996094,0.23876953,-0.15917969,-0.061035156,-0.12207031,0.0,0.0,0.0,0.0,123.80493,73.306274,-162.31201
1765589493648,-0.9628906,0.2368164,-0.1538086,0.24414062,-0.4272461,0.0,0.0,0.0,0.0,123.80493,73.306274,-162.31201
1765589493659,-0.9628906,0.2368164,-0.1538086,0.24414062,-0.4272461,0.0,0.0,0.0,0.0,123.75,73.31177,-162.35596
1765589493747,-0.9614258,0.23779297,-0.15576172,-0.4272461,-0.061035156,0.0,0.0,0.0,0.0,123.75,73.31177,-162.35596
1765589493759,-0.9614258,0.23779297,-0.15576172,-0.4272461,-0.061035156,0.0,0.0,0.0,0.0,123.6676,73.322754,-162.43835
1765589493847,-0.96240234,0.23583984,-0.1538086,-0.48828125,-0.12207031,-0.24414062,0.0,0.0,0.0,123.6676,73.322754,-162.43835
1765589493859,-0.96240234,0.23583984,-0.1538086,-0.48828125,-0.12207031,-0.24414062,0.0,0.0,0.0,123.62915,73.33374,-162.42188
1765589493947,-0.96240234,0.23730469,-0.15283203,0.0,0.0,0.061035156,0.0,0.0,0.0,123.62915,73.33374,-162.42188
1765589493958,-0.96240234,0.23730469,-0.15283203,0.0,0.0,0.061035156,0.0,0.0,0.0,123.5907,73.35022,-162.45483
1765589494046,-0.9609375,0.23632812,-0.15283203,0.0,0.0,0.0,0.0,0.0,0.0,123.5907,73.35022,-162.45483
1765589494058,-0.9609375,0.23632812,-0.15283203,0.0,0.0,0.0,0.0,0.0,0.0,123.56323,73.35022,-162.4768
1765589494146,-0.9609375,0.2368164,-0.15332031,0.0,-0.061035156,0.0,0.0,0.0,0.0,123.56323,73.35022,-162.4768
1765589494158,-0.9609375,0.2368164,-0.15332031,0.0,-0.061035156,0.0,0.0,0.0,0.0,123.53027,73.35022,-162.49878
1765589494246,-0.96240234,0.2368164,-0.15478516,-0.18310547,-0.18310547,0.0,0.0,0.0,0.0,123.53027,73.35022,-162.49878
1765589494258,-0.96240234,0.2368164,-0.15478516,-0.18310547,-0.18310547,0.0,0.0,0.0,0.0,123.47534,73.3667,-162.54822
1765589494346,-0.96191406,0.2368164,-0.15673828,0.12207031,-0.36621094,0.0,0.0,0.0,0.0,123.47534,73.3667,-162.54822
1765589494357,-0.96191406,0.2368164,-0.15673828,0.12207031,-0.36621094,0.0,0.0,0.0,0.0,123.38196,73.377686,-162.6471
1765589494445,-0.9609375,0.234375,-0.15234375,0.061035156,-0.4272461,0.0,0.0,0.0,0.0,123.38196,73.377686,-162.6471
1765589494457,-0.9609375,0.234375,-0.15234375,0.061035156,-0.4272461,0.0,0.0,0.0,0.0,123.42041,73.3667,-162.58667
1765589494545,-0.96240234,0.23730469,-0.1508789,-0.12207031,-0.12207031,0.0,0.0,0.0,0.0,123.42041,73.3667,-162.58667
1765589494557,-0.96240234,0.23730469,-0.1508789,-0.12207031,-0.12207031,0.0,0.0,0.0,0.0,123.409424,73.3667,-162.60864
1765589494645,-0.9628906,0.2368164,-0.15283203,0.30517578,0.12207031,0.0,0.0,0.0,0.0,123.409424,73.3667,-162.60864
1765589494657,-0.9628906,0.2368164,-0.15283203,0.30517578,0.12207031,0.0,0.0,0.0,0.0,123.480835,73.35571,-162.54272
1765589494745,-0.96533203,0.234375,-0.15039062,-0.36621094,0.4272461,0.0,0.0,0.0,0.0,123.480835,73.35571,-162.54272
1765589494756,-0.96533203,0.234375,-0.15039062,-0.36621094,0.4272461,0.0,0.0,0.0,0.0,123.52478,73.33923,-162.47131
1765589494844,-0.9609375,0.23632812,-0.15429688,0.18310547,0.48828125,0.0,0.0,0.0,0.0,123.52478,73.33923,-162.47131
1765589494856,-0.9609375,0.23632812,-0.15429688,0.18310547,0.48828125,0.0,0.0,0.0,0.0,123.552246,73.34473,-162.49329
1765589494944,-0.9628906,0.23779297,-0.15429688,0.36621094,0.6713867,0.0,0.0,0.0,0.0,123.552246,73.34473,-162.49329
1765589494956,-0.9628906,0.23779297,-0.15429688,0.36621094,0.6713867,0.0,0.0,0.0,0.0,123.76099,73.31726,-162.30652
1765589495044,-0.9633789,0.2397461,-0.15527344,0.0,0.61035156,0.0,0.0,0.0,0.0,123.76099,73.31726,-162.30652
1765589495055,-0.9633789,0.2397461,-0.15527344,0.0,0.61035156,0.0,0.0,0.0,0.0,123.94226,73.27881,-162.11975
1765589495143,-0.96191406,0.23730469,-0.15673828,0.0,0.48828125,0.0,0.0,0.0,0.0,123.94226,73.27881,-162.11975
1765589495155,-0.96191406,0.23730469,-0.15673828,0.0,0.48828125,0.0,0.0,0.0,0.0,124.05762,73.25134,-161.97693
1765589495243,-0.9614258,0.23583984,-0.15917969,-0.6713867,0.12207031,0.0,0.0,0.0,0.0,124.05762,73.25134,-161.97693
1765589495255,-0.9614258,0.23583984,-0.15917969,-0.6713867,0.12207031,0.0,0.0,0.0,0.0,124.12903,73.22937,-161.86157
1765589495343,-0.9628906,0.23632812,-0.15771484,-0.61035156,-0.18310547,-0.24414062,0.0,0.0,0.0,124.12903,73.22937,-161.86157
1765589495355,-0.9628906,0.23632812,-0.15771484,-0.61035156,-0.18310547,-0.24414062,0.0,0.0,0.0,124.123535,73.256836,-161.80664
1765589495443,-0.95996094,0.23583984,-0.15820312,-0.12207031,-0.6713867,-0.30517578,0.0,0.0,0.0,124.123535,73.256836,-161.80664
1765589495454,-0.95996094,0.23583984,-0.15820312,-0.12207031,-0.6713867,-0.30517578,0.0,0.0,0.0,124.04114,73.289795,-161.86157
1765589495542,-0.96533203,0.23583984,-0.14892578,-0.61035156,0.30517578,-0.061035156,0.0,0.0,0.0,124.04114,73.289795,-161.86157
1765589495554,-0.96533203,0.23583984,-0.14892578,-0.61035156,0.30517578,-0.061035156,0.0,0.0,0.0,124.0741,73.289795,-161.77917
1765589495642,-0.9628906,0.23779297,-0.15527344,-0.7324219,0.18310547,-0.24414062,0.0,0.0,0.0,124.0741,73.289795,-161.77917
1765589495653,-0.9628906,0.23779297,-0.15527344,-0.7324219,0.18310547,-0.24414062,0.0,0.0,0.0,124.01367,73.30078,-161.82312
1765589495742,-0.96240234,0.23388672,-0.15625,-0.30517578,0.36621094,0.0,0.0,0.0,0.0,124.01367,73.30078,-161.82312
1765589495754,-0.96240234,0.23388672,-0.15625,-0.30517578,0.36621094,0.0,0.0,0.0,0.0,123.99719,73.32825,-161.79016
1765589495841,-0.9638672,0.23583984,-0.15332031,0.36621094,0.4272461,0.91552734,0.0,0.0,0.0,123.99719,73.32825,-161.79016
1765589495853,-0.9638672,0.23583984,-0.15332031,0.36621094,0.4272461,0.91552734,0.0,0.0,0.0,123.95874,73.2843,-161.88354
1765589495941,-0.9580078,0.24316406,-0.16308594,-1.2207031,0.4272461,-0.7324219,0.0,0.0,0.0,123.95874,73.2843,-161.88354
1765589495953,-0.9580078,0.24316406,-0.16308594,-1.2207031,0.4272461,-0.7324219,0.0,0.0,0.0,123.931274,73.26233,-161.94397
1765589496041,-0.95996094,0.24121094,-0.16210938,-0.36621094,-0.061035156,-0.18310547,0.0,0.0,0.0,123.931274,73.26233,-161.94397
1765589496053,-0.95996094,0.24121094,-0.16210938,-0.36621094,-0.061035156,-0.18310547,0.0,0.0,0.0,124.0741,73.27881,-161.72974
1765589496141,-0.96484375,0.23046875,-0.15673828,0.79345703,-0.061035156,0.0,0.0,0.0,0.0,124.0741,73.27881,-161.72974
1765589496152,-0.96484375,0.23046875,-0.15673828,0.79345703,-0.061035156,0.0,0.0,0.0,0.0,124.07959,73.2843,-161.69678
1765589496240,-0.9638672,0.23779297,-0.15673828,0.30517578,-0.061035156,0.0,0.0,0.0,0.0,124.07959,73.2843,-161.69678
1765589496252,-0.9638672,0.23779297,-0.15673828,0.30517578,-0.061035156,0.0,0.0,0.0,0.0,124.17297,73.26782,-161.69128
1765589496340,-0.9628906,0.23388672,-0.15283203,0.30517578,-0.12207031,0.12207031,0.0,0.0,0.0,124.17297,73.26782,-161.69128
1765589496352,-0.9628906,0.23388672,-0.15283203,0.30517578,-0.12207031,0.12207031,0.0,0.0,0.0,124.16748,73.273315,-161.69128
1765589496440,-0.9589844,0.24023438,-0.15722656,0.30517578,0.0,0.30517578,0.0,0.0,0.0,124.16748,73.273315,-161.69128
1765589496451,-0.9589844,0.24023438,-0.15722656,0.30517578,0.0,0.30517578,0.0,0.0,0.0,124.06311,73.273315,-161.85059
1765589496540,-0.9614258,0.2397461,-0.16015625,0.0,-0.48828125,0.12207031,0.0,0.0,0.0,124.06311,73.273315,-161.85059
1765589496551,-0.9614258,0.2397461,-0.16015625,0.0,-0.48828125,0.12207031,0.0,0.0,0.0,123.92029,73.273315,-162.03735
1765589496639,-0.9589844,0.23632812,-0.1586914,0.8544922,-0.61035156,0.0,0.0,0.0,0.0,123.92029,73.273315,-162.03735
1765589496651,-0.9589844,0.23632812,-0.1586914,0.8544922,-0.61035156,0.0,0.0,0.0,0.0,123.93677,73.26233,-162.03186
1765589496739,-0.9633789,0.2368164,-0.15429688,0.0,-0.36621094,-0.12207031,0.0,0.0,0.0,123.93677,73.26233,-162.03186
1765589496751,-0.9633789,0.2368164,-0.15429688,0.0,-0.36621094,-0.12207031,0.0,0.0,0.0,123.92029,73.27881,-162.07031
1765589496839,-0.9609375,0.2397461,-0.15673828,0.36621094,-0.061035156,0.0,0.0,0.0,0.0,123.92029,73.27881,-162.07031
1765589496850,-0.9609375,0.2397461,-0.15673828,0.36621094,-0.061035156,0.0,0.0,0.0,0.0,123.931274,73.2843,-162.06482
1765589496938,-0.9638672,0.23730469,-0.15234375,0.061035156,-0.18310547,0.061035156,0.0,0.0,0.0,123.931274,73.2843,-162.06482
1765589496950,-0.9638672,0.23730469,-0.15234375,0.061035156,-0.18310547,0.061035156,0.0,0.0,0.0,123.93677,73.2843,-162.05933
1765589497038,-0.96191406,0.23828125,-0.15625,0.0,0.12207031,0.0,0.0,0.0,0.0,123.93677,73.2843,-162.05933
1765589497050,-0.96191406,0.23828125,-0.15625,0.0,0.12207031,0.0,0.0,0.0,0.0,123.9093,73.289795,-162.11426
1765589497138,-0.9609375,0.23730469,-0.15625,-0.24414062,0.0,0.0,0.0,0.0,0.0,123.9093,73.289795,-162.11426
1765589497149,-0.9609375,0.23730469,-0.15625,-0.24414062,0.0,0.0,0.0,0.0,0.0,123.90381,73.289795,-162.11426
1765589497238,-0.96191406,0.23876953,-0.15527344,-0.12207031,0.0,0.0,0.0,0.0,0.0,123.90381,73.289795,-162.11426
1765589497250,-0.96191406,0.23876953,-0.15527344,-0.12207031,0.0,0.0,0.0,0.0,0.0,123.86536,73.29529,-162.1582
1765589497337,-0.9604492,0.23876953,-0.15527344,-0.061035156,-0.061035156,0.0,0.0,0.0,0.0,123.86536,73.29529,-162.1582
1765589497349,-0.9604492,0.23876953,-0.15527344,-0.061035156,-0.061035156,0.0,0.0,0.0,0.0,123.84888,73.29529,-162.18018
1765589497437,-0.9628906,0.23486328,-0.1538086,-0.18310547,0.061035156,0.0,0.0,0.0,0.0,123.84888,73.29529,-162.18018
1765589497449,-0.9628906,0.23486328,-0.1538086,-0.18310547,0.061035156,0.0,0.0,0.0,0.0,123.810425,73.29529,-162.19116
1765589497537,-0.9614258,0.24121094,-0.15478516,0.12207031,0.061035156,0.0,0.0,0.0,0.0,123.810425,73.29529,-162.19116
1765589497548,-0.9614258,0.24121094,-0.15478516,0.12207031,0.061035156,0.0,0.0,0.0,0.0,123.78296,73.306274,-162.2351
1765589497637,-0.96240234,0.24072266,-0.15771484,-0.12207031,0.30517578,0.0,0.0,0.0,0.0,123.78296,73.306274,-162.2351
1765589497648,-0.96240234,0.24072266,-0.15771484,-0.12207031,0.30517578,0.0,0.0,0.0,0.0,123.73352,73.31726,-162.29553
1765589497736,-0.9604492,0.23779297,-0.15820312,0.48828125,-0.36621094,0.0,0.0,0.0,0.0,123.73352,73.31726,-162.29553
1765589497748,-0.9604492,0.23779297,-0.15820312,0.48828125,-0.36621094,0.0,0.0,0.0,0.0,123.793945,73.306274,-162.2406
1765589497836,-0.96191406,0.23730469,-0.1538086,0.0,0.061035156,0.0,0.0,0.0,0.0,123.793945,73.306274,-162.2406
1765589497847,-0.96191406,0.23730469,-0.1538086,0.0,0.061035156,0.0,0.0,0.0,0.0,123.77197,73.306274,-162.26807
1765589497936,-0.95996094,0.24023438,-0.1586914,-0.12207031,0.12207031,0.0,0.0,0.0,0.0,123.77197,73.306274,-162.26807
1765589497947,-0.95996094,0.24023438,-0.1586914,-0.12207031,0.12207031,0.0,0.0,0.0,0.0,123.78845,73.30078,-162.25159
1765589498035,-0.9614258,0.234375,-0.15283203,0.0,-0.4272461,0.0,0.0,0.0,0.0,123.78845,73.30078,-162.25159
1765589498047,-0.9614258,0.234375,-0.15283203,0.0,-0.4272461,0.0,0.0,0.0,0.0,123.810425,73.289795,-162.20764
1765589498135,-0.9628906,0.23779297,-0.15673828,0.0,0.0,0.0,0.0,0.0,0.0,123.810425,73.289795,-162.20764
1765589498146,-0.9628906,0.23779297,-0.15673828,0.0,0.0,0.0,0.0,0.0,0.0,123.75549,73.306274,-162.27905
1765589498235,-0.9609375,0.23876953,-0.15722656,-0.12207031,-0.12207031,0.0,0.0,0.0,0.0,123.75549,73.306274,-162.27905
1765589498246,-0.9609375,0.23876953,-0.15722656,-0.12207031,-0.12207031,0.0,0.0,0.0,0.0,123.78296,73.30078,-162.2461
1765589498335,-0.9604492,0.2368164,-0.15332031,0.061035156,0.061035156,0.0,0.0,0.0,0.0,123.78296,73.30078,-162.2461
1765589498346,-0.9604492,0.2368164,-0.15332031,0.061035156,0.061035156,0.0,0.0,0.0,0.0,123.777466,73.29529,-162.25159
1765589498434,-0.9638672,0.2368164,-0.15820312,-0.12207031,0.12207031,0.0,0.0,0.0,0.0,123.777466,73.29529,-162.25159
1765589498446,-0.9638672,0.2368164,-0.15820312,-0.12207031,0.12207031,0.0,0.0,0.0,0.0,123.722534,73.30078,-162.29553
1765589498534,-0.96240234,0.23779297,-0.1538086,-0.30517578,-0.12207031,0.0,0.0,0.0,0.0,123.722534,73.30078,-162.29553
1765589498546,-0.96240234,0.23779297,-0.1538086,-0.30517578,-0.12207031,0.0,0.0,0.0,0.0,123.72803,73.30078,-162.27905
1765589498634,-0.96240234,0.2397461,-0.15234375,0.061035156,0.18310547,0.0,0.0,0.0,0.0,123.72803,73.30078,-162.27905
1765589498645,-0.96240234,0.2397461,-0.15234375,0.061035156,0.18310547,0.0,0.0,0.0,0.0,123.67859,73.306274,-162.323
1765589498733,-0.9633789,0.24169922,-0.15771484,-0.12207031,0.36621094,0.0,0.0,0.0,0.0,123.67859,73.306274,-162.323
1765589498745,-0.9633789,0.24169922,-0.15771484,-0.12207031,0.36621094,0.0,0.0,0.0,0.0,123.56323,73.33374,-162.47131
1765589498833,-0.9604492,0.23730469,-0.15722656,0.6713867,-0.7324219,0.0,0.0,0.0,0.0,123.56323,73.33374,-162.47131
1765589498845,-0.9604492,0.23730469,-0.15722656,0.6713867,-0.7324219,0.0,0.0,0.0,0.0,123.60718,73.322754,-162.42188
1765589498933,-0.9609375,0.23583984,-0.15332031,-0.061035156,-0.12207031,0.0,0.0,0.0,0.0,123.60718,73.322754,-162.42188
1765589498944,-0.9609375,0.23583984,-0.15332031,-0.061035156,-0.12207031,0.0,0.0,0.0,0.0,123.552246,73.33374,-162.4768
1765589499033,-0.95996094,0.2421875,-0.15576172,0.24414062,-0.30517578,0.0,0.0,0.0,0.0,123.552246,73.33374,-162.4768
1765589499044,-0.95996094,0.2421875,-0.15576172,0.24414062,-0.30517578,0.0,0.0,0.0,0.0,123.54675,73.34473,-162.50977
1765589499132,-0.9638672,0.23632812,-0.14892578,0.5493164,-0.4272461,0.0,0.0,0.0,0.0,123.54675,73.34473,-162.50977
1765589499144,-0.9638672,0.23632812,-0.14892578,0.5493164,-0.4272461,0.0,0.0,0.0,0.0,123.54126,73.33923,-162.49878
1765589499232,-0.9614258,0.2397461,-0.15576172,-0.48828125,0.12207031,-0.36621094,0.0,0.0,0.0,123.54126,73.33923,-162.49878
1765589499244,-0.9614258,0.2397461,-0.15576172,-0.48828125,0.12207031,-0.36621094,0.0,0.0,0.0,123.51929,73.35571,-162.53174
1765589499332,-0.96240234,0.23583984,-0.15478516,0.61035156,0.36621094,0.0,0.0,0.0,0.0,123.51929,73.35571,-162.53174
1765589499343,-0.96240234,0.23583984,-0.15478516,0.61035156,0.36621094,0.0,0.0,0.0,0.0,123.673096,73.35022,-162.35596
1765589499432,-0.9609375,0.23632812,-0.15625,0.30517578,0.36621094,0.18310547,0.0,0.0,0.0,123.673096,73.35022,-162.35596
1765589499443,-0.9609375,0.23632812,-0.15625,0.30517578,0.36621094,0.18310547,0.0,0.0,0.0,123.810425,73.322754,-162.25159
1765589499531,-0.96191406,0.23388672,-0.15332031,0.48828125,0.4272461,-0.18310547,0.0,0.0,0.0,123.810425,73.322754,-162.25159
1765589499543,-0.96191406,0.23388672,-0.15332031,0.48828125,0.4272461,-0.18310547,0.0,0.0,0.0,123.94226,73.289795,-162.12524
1765589499631,-0.9638672,0.24121094,-0.15527344,-0.36621094,0.12207031,-0.12207031,0.0,0.0,0.0,123.94226,73.289795,-162.12524
1765589499643,-0.9638672,0.24121094,-0.15527344,-0.36621094,0.12207031,-0.12207031,0.0,0.0,0.0,124.04663,73.306274,-162.01538
1765589499731,-0.95751953,0.23925781,-0.1538086,0.18310547,0.5493164,0.0,0.0,0.0,0.0,124.04663,73.306274,-162.01538
1765589499742,-0.95751953,0.23925781,-0.1538086,0.18310547,0.5493164,0.0,0.0,0.0,0.0,124.08508,73.289795,-161.94397
1765589499830,-0.9663086,0.2368164,-0.16601562,-1.0375977,0.12207031,-0.30517578,0.0,0.0,0.0,124.08508,73.289795,-161.94397
1765589499842,-0.9663086,0.2368164,-0.16601562,-1.0375977,0.12207031,-0.30517578,0.0,0.0,0.0,124.107056,73.289795,-161.88904
1765589499930,-0.95751953,0.22851562,-0.15576172,0.8544922,-0.30517578,-0.061035156,0.0,0.0,0.0,124.107056,73.289795,-161.88904
1765589499942,-0.95751953,0.22851562,-0.15576172,0.8544922,-0.30517578,-0.061035156,0.0,0.0,0.0,124.17297,73.31177,-161.7572
1765589500030,-0.9628906,0.24169922,-0.15917969,-0.79345703,-0.30517578,0.18310547,0.0,0.0,0.0,124.17297,73.31177,-161.7572
1765589500041,-0.9628906,0.24169922,-0.15917969,-0.79345703,-0.30517578,0.18310547,0.0,0.0,0.0,124.02466,73.33374,-161.94397
1765589500129,-0.95654297,0.23291016,-0.15722656,0.12207031,0.0,-0.4272461,0.0,0.0,0.0,124.02466,73.33374,-161.94397
1765589500141,-0.95654297,0.23291016,-0.15722656,0.12207031,0.0,-0.4272461,0.0,0.0,0.0,124.06311,73.31177,-161.85608
1765589500229,-0.96435547,0.23779297,-0.1586914,-0.4272461,-0.4272461,-0.061035156,0.0,0.0,0.0,124.06311,73.31177,-161.85608
1765589500241,-0.96435547,0.23779297,-0.1586914,-0.4272461,-0.4272461,-0.061035156,0.0,0.0,0.0,124.09607,73.35022,-161.80664
1765589500329,-0.96240234,0.23242188,-0.15478516,-0.48828125,0.12207031,-0.061035156,0.0,0.0,0.0,124.09607,73.35022,-161.80664
1765589500340,-0.96240234,0.23242188,-0.15478516,-0.48828125,0.12207031,-0.061035156,0.0,0.0,0.0,124.05762,73.34473,-161.79565
1765589500429,-0.95996094,0.23779297,-0.15625,-0.24414062,0.12207031,-0.18310547,0.0,0.0,0.0,124.05762,73.34473,-161.79565
1765589500440,-0.95996094,0.23779297,-0.15625,-0.24414062,0.12207031,-0.18310547,0.0,0.0,0.0,124.06311,73.35022,-161.80115
1765589500528,-0.95996094,0.23339844,-0.1616211,-0.24414062,-0.12207031,-0.061035156,0.0,0.0,0.0,124.06311,73.35022,-161.80115
1765589500540,-0.95996094,0.23339844,-0.1616211,-0.24414062,-0.12207031,-0.061035156,0.0,0.0,0.0,124.06311,73.35571,-161.79016
1765589500628,-0.9633789,0.23339844,-0.15527344,-0.061035156,0.18310547,-0.061035156,0.0,0.0,0.0,124.06311,73.35571,-161.79016
1765589500640,-0.9633789,0.23339844,-0.15527344,-0.061035156,0.18310547,-0.061035156,0.0,0.0,0.0,124.16748,73.33923,-161.68579
1765589500728,-0.96240234,0.23876953,-0.15771484,0.12207031,-0.061035156,0.30517578,0.0,0.0,0.0,124.16748,73.33923,-161.68579
1765589500739,-0.96240234,0.23876953,-0.15771484,0.12207031,-0.061035156,0.30517578,0.0,0.0,0.0,124.156494,73.32825,-161.75171
1765589500828,-0.9614258,0.23242188,-0.1586914,-0.24414062,-0.24414062,-0.36621094,0.0,0.0,0.0,124.156494,73.32825,-161.75171
1765589500839,-0.9614258,0.23242188,-0.1586914,-0.24414062,-0.24414062,-0.36621094,0.0,0.0,0.0,124.151,73.31726,-161.7572
1765589500927,-0.96533203,0.23486328,-0.14990234,-0.30517578,0.7324219,-0.24414062,0.0,0.0,0.0,124.151,73.31726,-161.7572
1765589500939,-0.96533203,0.23486328,-0.14990234,-0.30517578,0.7324219,-0.24414062,0.0,0.0,0.0,124.20044,73.35022,-161.71326
1765589501027,-0.9633789,0.23876953,-0.15771484,0.24414062,0.0,0.5493164,0.0,0.0,0.0,124.20044,73.35022,-161.71326
1765589501039,-0.9633789,0.23876953,-0.15771484,0.24414062,0.0,0.5493164,0.0,0.0,0.0,124.20044,73.32825,-161.77917
1765589501127,-0.9604492,0.23339844,-0.15478516,0.0,0.4272461,-0.18310547,0.0,0.0,0.0,124.20044,73.32825,-161.77917
1765589501138,-0.9604492,0.23339844,-0.15478516,0.0,0.4272461,-0.18310547,0.0,0.0,0.0,124.18945,73.31177,-161.82312
1765589501227,-0.9633789,0.23925781,-0.15673828,-0.48828125,0.36621094,-0.18310547,0.0,0.0,0.0,124.18945,73.31177,-161.82312
1765589501238,-0.9633789,0.23925781,-0.15673828,-0.48828125,0.36621094,-0.18310547,0.0,0.0,0.0,124.26636,73.32825,-161.77368
1765589501326,-0.9604492,0.23535156,-0.15722656,0.12207031,-0.061035156,0.24414062,0.0,0.0,0.0,124.26636,73.32825,-161.77368
1765589501338,-0.9604492,0.23535156,-0.15722656,0.12207031,-0.061035156,0.24414062,0.0,0.0,0.0,124.24988,73.30078,-161.78467
1765589501426,-0.9614258,0.2368164,-0.15917969,0.0,0.061035156,-0.12207031,0.0,0.0,0.0,124.24988,73.30078,-161.78467
1765589501438,-0.9614258,0.2368164,-0.15917969,0.0,0.061035156,-0.12207031,0.0,0.0,0.0,124.2334,73.306274,-161.80664
1765589501526,-0.96240234,0.23583984,-0.15625,0.0,0.0,-0.12207031,0.0,0.0,0.0,124.2334,73.306274,-161.80664
1765589501537,-0.96240234,0.23583984,-0.15625,0.0,0.0,-0.12207031,0.0,0.0,0.0,124.27734,73.31726,-161.74072
1765589501625,-0.96191406,0.23730469,-0.15576172,-0.061035156,-0.061035156,0.12207031,0.0,0.0,0.0,124.27734,73.31726,-161.74072
1765589501637,-0.96191406,0.23730469,-0.15576172,-0.061035156,-0.061035156,0.12207031,0.0,0.0,0.0,124.244385,73.31726,-161.79016
1765589501725,-0.96240234,0.23535156,-0.15722656,-0.24414062,0.0,-0.18310547,0.0,0.0,0.0,124.244385,73.31726,-161.79016
1765589501737,-0.96240234,0.23535156,-0.15722656,-0.24414062,0.0,-0.18310547,0.0,0.0,0.0,124.227905,73.31177,-161.80664
1765589501825,-0.96240234,0.23632812,-0.15966797,-0.18310547,-0.24414062,0.0,0.0,0.0,0.0,124.227905,73.31177,-161.80664
1765589501836,-0.96240234,0.23632812,-0.15966797,-0.18310547,-0.24414062,0.0,0.0,0.0,0.0,124.24988,73.322754,-161.77917
1765589501925,-0.9609375,0.234375,-0.15625,0.061035156,-0.30517578,0.18310547,0.0,0.0,0.0,124.24988,73.322754,-161.77917
1765589501936,-0.9609375,0.234375,-0.15625,0.061035156,-0.30517578,0.18310547,0.0,0.0,0.0,124.17847,73.32825,-161.85608
1765589502024,-0.96435547,0.23486328,-0.15039062,-0.4272461,0.9765625,0.0,0.0,0.0,0.0,124.17847,73.32825,-161.85608
1765589502037,-0.96435547,0.23486328,-0.15039062,-0.4272461,0.9765625,0.0,0.0,0.0,0.0,124.227905,73.31177,-161.81213
1765589502124,-0.96191406,0.23925781,-0.15820312,-0.24414062,0.30517578,0.0,0.0,0.0,0.0,124.227905,73.31177,-161.81213
1765589502136,-0.96191406,0.23925781,-0.15820312,-0.24414062,0.30517578,0.0,0.0,0.0,0.0,124.22241,73.31726,-161.8451
1765589502224,-0.9628906,0.23632812,-0.15722656,-0.061035156,0.30517578,0.0,0.0,0.0,0.0,124.22241,73.31726,-161.8451
1765589502236,-0.9628906,0.23632812,-0.15722656,-0.061035156,0.30517578,0.0,0.0,0.0,0.0,124.244385,73.31177,-161.81763
1765589502323,-0.9638672,0.23730469,-0.15673828,-0.12207031,0.12207031,0.0,0.0,0.0,0.0,124.244385,73.31177,-161.81763
1765589502335,-0.9638672,0.23730469,-0.15673828,-0.12207031,0.12207031,0.0,0.0,0.0,0.0,124.26636,73.306274,-161.80115
1765589502423,-0.9614258,0.23486328,-0.15576172,0.30517578,-0.18310547,0.0,0.0,0.0,0.0,124.26636,73.306274,-161.80115
1765589502435,-0.9614258,0.23486328,-0.15576172,0.30517578,-0.18310547,0.0,0.0,0.0,0.0,124.244385,73.31177,-161.82861
1765589502523,-0.9614258,0.2368164,-0.15771484,-0.36621094,0.36621094,0.0,0.0,0.0,0.0,124.244385,73.31177,-161.82861
1765589502534,-0.9614258,0.2368164,-0.15771484,-0.36621094,0.36621094,0.0,0.0,0.0,0.0,124.25537,73.306274,-161.81213
1765589502623,-0.9609375,0.23583984,-0.15771484,0.0,0.061035156,0.0,0.0,0.0,0.0,124.25537,73.306274,-161.81213
1765589502634,-0.9609375,0.23583984,-0.15771484,0.0,0.061035156,0.0,0.0,0.0,0.0,124.244385,73.306274,-161.82312
1765589502722,-0.9609375,0.23535156,-0.15625,-0.18310547,-0.061035156,0.0,0.0,0.0,0.0,124.244385,73.306274,-161.82312
1765589502734,-0.9609375,0.23535156,-0.15625,-0.18310547,-0.061035156,0.0,0.0,0.0,0.0,124.211426,73.306274,-161.85608
1765589502822,-0.96240234,0.2368164,-0.15722656,-0.30517578,-0.061035156,0.0,0.0,0.0,0.0,124.211426,73.306274,-161.85608
1765589502833,-0.96240234,0.2368164,-0.15722656,-0.30517578,-0.061035156,0.0,0.0,0.0,0.0,124.18396,73.31177,-161.87805
1765589502922,-0.9628906,0.23535156,-0.15673828,-0.12207031,0.061035156,0.0,0.0,0.0,0.0,124.18396,73.31177,-161.87805
1765589502933,-0.9628906,0.23535156,-0.15673828,-0.12207031,0.061035156,0.0,0.0,0.0,0.0,124.16748,73.31177,-161.87805
1765589503021,-0.96240234,0.23779297,-0.15576172,-0.30517578,-0.12207031,0.0,0.0,0.0,0.0,124.16748,73.31177,-161.87805
1765589503033,-0.96240234,0.23779297,-0.15576172,-0.30517578,-0.12207031,0.0,0.0,0.0,0.0,124.12903,73.31726,-161.922
1765589503121,-0.96484375,0.2368164,-0.15332031,-0.18310547,0.61035156,0.0,0.0,0.0,0.0,124.12903,73.31726,-161.922
1765589503133,-0.96484375,0.2368164,-0.15332031,-0.18310547,0.61035156,0.0,0.0,0.0,0.0,124.123535,73.31726,-161.93848
1765589503221,-0.9614258,0.2397461,-0.1586914,-0.12207031,0.061035156,0.0,0.0,0.0,0.0,124.123535,73.31726,-161.93848
1765589503232,-0.9614258,0.2397461,-0.1586914,-0.12207031,0.061035156,0.0,0.0,0.0,0.0,124.11804,73.322754,-161.96045
1765589503321,-0.96191406,0.23632812,-0.15673828,0.0,0.30517578,0.0,0.0,0.0,0.0,124.11804,73.322754,-161.96045
1765589503332,-0.96191406,0.23632812,-0.15673828,0.0,0.30517578,0.0,0.0,0.0,0.0,124.12903,73.31726,-161.94946
1765589503420,-0.9628906,0.23730469,-0.15722656,0.0,0.18310547,0.0,0.0,0.0,0.0,124.12903,73.31726,-161.94946
1765589503432,-0.9628906,0.23730469,-0.15722656,0.0,0.18310547,0.0,0.0,0.0,0.0,124.17297,73.31177,-161.9165
1765589503520,-0.95996094,0.23535156,-0.15673828,0.36621094,-0.12207031,0.0,0.0,0.0,0.0,124.17297,73.31177,-161.9165
1765589503532,-0.95996094,0.23535156,-0.15673828,0.36621094,-0.12207031,0.0,0.0,0.0,0.0,124.20044,73.306274,-161.88354
1765589503620,-0.96240234,0.23730469,-0.15820312,-0.061035156,0.5493164,0.0,0.0,0.0,0.0,124.20044,73.306274,-161.88354
1765589503631,-0.96240234,0.23730469,-0.15820312,-0.061035156,0.5493164,0.0,0.0,0.0,0.0,124.28833,73.289795,-161.80115
1765589503719,-0.95654297,0.23730469,-0.15820312,-0.5493164,0.4272461,-0.48828125,0.0,0.0,0.0,124.28833,73.289795,-161.80115
1765589503731,-0.95654297,0.23730469,-0.15820312,-0.5493164,0.4272461,-0.48828125,0.0,0.0,0.0,124.40918,73.2843,-161.65833
1765589503819,-0.96191406,0.23242188,-0.1586914,-1.0986328,-0.5493164,-0.7324219,0.0,0.0,0.0,124.40918,73.2843,-161.65833
1765589503831,-0.96191406,0.23242188,-0.1586914,-1.0986328,-0.5493164,-0.7324219,0.0,0.0,0.0,124.453125,73.32825,-161.49902
1765589503919,-0.95947266,0.2319336,-0.15283203,-0.79345703,-0.79345703,-0.36621094,0.0,0.0,0.0,124.453125,73.32825,-161.49902
1765589503931,-0.95947266,0.2319336,-0.15283203,-0.79345703,-0.79345703,-0.36621094,0.0,0.0,0.0,124.260864,73.427124,-161.61987
1765589504019,-0.96484375,0.23632812,-0.15478516,-0.48828125,-0.91552734,-0.12207031,0.0,0.0,0.0,124.260864,73.427124,-161.61987
1765589504030,-0.96484375,0.23632812,-0.15478516,-0.48828125,-0.91552734,-0.12207031,0.0,0.0,0.0,123.93677,73.498535,-161.9165
1765589504118,-0.96435547,0.23095703,-0.14794922,-0.8544922,-0.36621094,-0.30517578,0.0,0.0,0.0,123.93677,73.498535,-161.9165
1765589504130,-0.96435547,0.23095703,-0.14794922,-0.8544922,-0.36621094,-0.30517578,0.0,0.0,0.0,123.77197,73.54797,-161.96594
1765589504218,-0.96777344,0.234375,-0.15429688,-0.61035156,0.7324219,0.24414062,0.0,0.0,0.0,123.77197,73.54797,-161.96594
1765589504229,-0.96777344,0.234375,-0.15429688,-0.61035156,0.7324219,0.24414062,0.0,0.0,0.0,123.61267,73.55896,-162.13074
1765589504318,-0.9584961,0.23339844,-0.15917969,0.48828125,-0.18310547,0.12207031,0.0,0.0,0.0,123.61267,73.55896,-162.13074
1765589504329,-0.9584961,0.23339844,-0.15917969,0.48828125,-0.18310547,0.12207031,0.0,0.0,0.0,123.61267,73.526,-162.15271
1765589504417,-0.9628906,0.234375,-0.1538086,0.24414062,-0.36621094,-0.061035156,0.0,0.0,0.0,123.61267,73.526,-162.15271
1765589504429,-0.9628906,0.234375,-0.1538086,0.24414062,-0.36621094,-0.061035156,0.0,0.0,0.0,123.61267,73.54248,-162.1582
1765589504517,-0.9589844,0.2368164,-0.15625,0.0,-0.061035156,-0.30517578,0.0,0.0,0.0,123.61267,73.54248,-162.1582
1765589504529,-0.9589844,0.2368164,-0.15625,0.0,-0.061035156,-0.30517578,0.0,0.0,0.0,123.65662,73.53699,-162.13074
1765589504617,-0.96240234,0.2319336,-0.15185547,-0.4272461,0.0,-0.4272461,0.0,0.0,0.0,123.65662,73.53699,-162.13074
1765589504628,-0.96240234,0.2319336,-0.15185547,-0.4272461,0.0,-0.4272461,0.0,0.0,0.0,123.78296,73.56445,-161.922
1765589504717,-0.96240234,0.22949219,-0.1538086,-0.12207031,0.0,-0.18310547,0.0,0.0,0.0,123.78296,73.56445,-161.922
1765589504728,-0.96240234,0.22949219,-0.1538086,-0.12207031,0.0,-0.18310547,0.0,0.0,0.0,123.810425,73.58093,-161.86157
1765589504816,-0.9633789,0.2290039,-0.15234375,0.18310547,0.4272461,0.0,0.0,0.0,0.0,123.810425,73.58093,-161.86157
1765589504828,-0.9633789,0.2290039,-0.15234375,0.18310547,0.4272461,0.0,0.0,0.0,0.0,123.92029,73.58093,-161.77368
1765589504916,-0.9614258,0.234375,-0.15478516,0.061035156,0.18310547,-0.12207031,0.0,0.0,0.0,123.92029,73.58093,-161.77368
1765589504928,-0.9614258,0.234375,-0.15478516,0.061035156,0.18310547,-0.12207031,0.0,0.0,0.0,123.98071,73.57544,-161.7572
1765589505016,-0.9633789,0.23339844,-0.15234375,0.36621094,0.12207031,0.12207031,0.0,0.0,0.0,123.98071,73.57544,-161.7572
1765589505027,-0.9633789,0.23339844,-0.15234375,0.36621094,0.12207031,0.12207031,0.0,0.0,0.0,124.06311,73.56445,-161.70227
1765589505115,-0.9633789,0.23242188,-0.15673828,0.36621094,-0.30517578,0.4272461,0.0,0.0,0.0,124.06311,73.56445,-161.70227
1765589505127,-0.9633789,0.23242188,-0.15673828,0.36621094,-0.30517578,0.4272461,0.0,0.0,0.0,124.0741,73.531494,-161.7627
1765589505215,-0.96240234,0.23242188,-0.15917969,0.4272461,-0.4272461,-0.061035156,0.0,0.0,0.0,124.0741,73.531494,-161.7627
1765589505227,-0.96240234,0.23242188,-0.15917969,0.4272461,-0.4272461,-0.061035156,0.0,0.0,0.0,124.02466,73.53699,-161.87256
1765589505315,-0.9633789,0.22802734,-0.15283203,0.48828125,0.0,0.061035156,0.0,0.0,0.0,124.02466,73.53699,-161.87256
1765589505326,-0.9633789,0.22802734,-0.15283203,0.48828125,0.0,0.061035156,0.0,0.0,0.0,124.18945,73.526,-161.70776
1765589505415,-0.96435547,0.23242188,-0.15283203,0.0,0.0,-0.061035156,0.0,0.0,0.0,124.18945,73.526,-161.70776
1765589505426,-0.96435547,0.23242188,-0.15283203,0.0,0.0,-0.061035156,0.0,0.0,0.0,124.19495,73.526,-161.7572
1765589505514,-0.9633789,0.23046875,-0.15576172,0.24414062,0.30517578,0.0,0.0,0.0,0.0,124.19495,73.526,-161.7572
1765589505526,-0.9633789,0.23046875,-0.15576172,0.24414062,0.30517578,0.0,0.0,0.0,0.0,124.24988,73.52051,-161.71326
1765589505614,-0.9663086,0.23291016,-0.15234375,-0.061035156,0.12207031,-0.061035156,0.0,0.0,0.0,124.24988,73.52051,-161.71326
1765589505626,-0.9663086,0.23291016,-0.15234375,-0.061035156,0.12207031,-0.061035156,0.0,0.0,0.0,124.29382,73.515015,-161.6803
1765589505714,-0.9614258,0.23339844,-0.15673828,0.61035156,-0.30517578,0.061035156,0.0,0.0,0.0,124.29382,73.515015,-161.6803
1765589505725,-0.9614258,0.23339844,-0.15673828,0.61035156,-0.30517578,0.061035156,0.0,0.0,0.0,124.26636,73.515015,-161.74072
1765589505813,-0.9628906,0.23242188,-0.15527344,-0.12207031,0.30517578,0.0,0.0,0.0,0.0,124.26636,73.515015,-161.74072
1765589505825,-0.9628906,0.23242188,-0.15527344,-0.12207031,0.30517578,0.0,0.0,0.0,0.0,124.29382,73.50952,-161.72974
1765589505913,-0.9633789,0.23291016,-0.15478516,0.0,0.0,0.0,0.0,0.0,0.0,124.29382,73.50952,-161.72974
1765589505925,-0.9633789,0.23291016,-0.15478516,0.0,0.0,0.0,0.0,0.0,0.0,124.29382,73.50403,-161.72974
1765589506013,-0.9628906,0.2319336,-0.15429688,-0.12207031,0.0,0.0,0.0,0.0,0.0,124.29382,73.50403,-161.72974
1765589506025,-0.9628906,0.2319336,-0.15429688,-0.12207031,0.0,0.0,0.0,0.0,0.0,124.27185,73.50952,-161.75171
1765589506113,-0.96191406,0.23291016,-0.15429688,-0.24414062,-0.12207031,0.0,0.0,0.0,0.0,124.27185,73.50952,-161.75171
1765589506124,-0.96191406,0.23291016,-0.15429688,-0.24414062,-0.12207031,0.0,0.0,0.0,0.0,124.2334,73.515015,-161.78467
1765589506212,-0.96435547,0.23095703,-0.15576172,0.0,-0.30517578,0.0,0.0,0.0,0.0,124.2334,73.515015,-161.78467
1765589506224,-0.96435547,0.23095703,-0.15576172,0.0,-0.30517578,0.0,0.0,0.0,0.0,124.18945,73.52051,-161.80664
1765589506312,-0.9638672,0.23388672,-0.15917969,0.48828125,-0.30517578,0.0,0.0,0.0,0.0,124.18945,73.52051,-161.80664
1765589506324,-0.9638672,0.23388672,-0.15917969,0.48828125,-0.30517578,0.0,0.0,0.0,0.0,124.11804,73.53699,-161.9165
1765589506412,-0.96240234,0.23046875,-0.15576172,0.36621094,-0.30517578,0.0,0.0,0.0,0.0,124.11804,73.53699,-161.9165
1765589506423,-0.96240234,0.23046875,-0.15576172,0.36621094,-0.30517578,0.0,0.0,0.0,0.0,124.17847,73.526,-161.8451
1765589506511,-0.96435547,0.23291016,-0.1538086,-0.061035156,-0.4272461,0.0,0.0,0.0,0.0,124.17847,73.526,-161.8451
1765589506523,-0.96435547,0.23291016,-0.1538086,-0.061035156,-0.4272461,0.0,0.0,0.0,0.0,124.12903,73.53699,-161.9165
1765589506611,-0.9609375,0.23144531,-0.15429688,0.12207031,0.061035156,0.0,0.0,0.0,0.0,124.12903,73.53699,-161.9165
1765589506623,-0.9609375,0.23144531,-0.15429688,0.12207031,0.061035156,0.0,0.0,0.0,0.0,124.123535,73.53699,-161.92749
1765589506711,-0.9663086,0.23291016,-0.1508789,-0.36621094,0.18310547,0.0,0.0,0.0,0.0,124.123535,73.53699,-161.92749
1765589506722,-0.9663086,0.23291016,-0.1508789,-0.36621094,0.18310547,0.0,0.0,0.0,0.0,124.12903,73.531494,-161.90552
1765589506811,-0.96240234,0.23144531,-0.15478516,0.0,-0.12207031,0.0,0.0,0.0,0.0,124.12903,73.531494,-161.90552
1765589506822,-0.96240234,0.23144531,-0.15478516,0.0,-0.12207031,0.0,0.0,0.0,0.0,124.052124,73.54797,-161.99341
1765589506910,-0.96240234,0.2319336,-0.1538086,-0.30517578,0.0,0.0,0.0,0.0,0.0,124.052124,73.54797,-161.99341
1765589506922,-0.96240234,0.2319336,-0.1538086,-0.30517578,0.0,0.0,0.0,0.0,0.0,124.02466,73.54797,-162.0044
1765589507010,-0.9633789,0.2319336,-0.15332031,0.0,-0.18310547,0.0,0.0,0.0,0.0,124.02466,73.54797,-162.0044
1765589507022,-0.9633789,0.2319336,-0.15332031,0.0,-0.18310547,0.0,0.0,0.0,0.0,124.01367,73.54797,-161.9989
1765589507110,-0.96191406,0.23242188,-0.15234375,-0.30517578,0.061035156,0.0,0.0,0.0,0.0,124.01367,73.54797,-161.9989
1765589507121,-0.96191406,0.23242188,-0.15234375,-0.30517578,0.061035156,0.0,0.0,0.0,0.0,123.99719,73.54797,-162.00989
1765589507209,-0.9633789,0.2319336,-0.15185547,-0.12207031,0.061035156,0.0,0.0,0.0,0.0,123.99719,73.54797,-162.00989
1765589507221,-0.9633789,0.2319336,-0.15185547,-0.12207031,0.061035156,0.0,0.0,0.0,0.0,123.99719,73.54797,-162.0044
1765589507309,-0.9633789,0.23779297,-0.15283203,0.24414062,0.18310547,0.0,0.0,0.0,0.0,123.99719,73.54797,-162.0044
1765589507321,-0.9633789,0.23779297,-0.15283203,0.24414062,0.18310547,0.0,0.0,0.0,0.0,123.98071,73.55896,-162.03735
1765589507409,-0.96240234,0.23486328,-0.15332031,0.0,0.61035156,0.0,0.0,0.0,0.0,123.98071,73.55896,-162.03735
1765589507421,-0.96240234,0.23486328,-0.15332031,0.0,0.61035156,0.0,0.0,0.0,0.0,124.035645,73.55347,-161.99341
1765589507509,-0.9628906,0.23291016,-0.15527344,0.5493164,-0.18310547,0.0,0.0,0.0,0.0,124.035645,73.55347,-161.99341
1765589507520,-0.9628906,0.23291016,-0.15527344,0.5493164,-0.18310547,0.0,0.0,0.0,0.0,124.16748,73.526,-161.86707
1765589507608,-0.9609375,0.234375,-0.15527344,-0.4272461,0.5493164,0.0,0.0,0.0,0.0,124.16748,73.526,-161.86707
1765589507620,-0.9609375,0.234375,-0.15527344,-0.4272461,0.5493164,0.0,0.0,0.0,0.0,124.20593,73.52051,-161.82861
1765589507708,-0.9770508,0.2319336,-0.15771484,-0.36621094,-0.36621094,-0.30517578,0.0,0.0,0.0,124.20593,73.52051,-161.82861
1765589507720,-0.9770508,0.2319336,-0.15771484,-0.36621094,-0.36621094,-0.30517578,0.0,0.0,0.0,124.156494,73.52051,-161.80115
1765589507808,-0.9663086,0.19970703,-0.1586914,3.1738281,-4.5776367,1.0986328,0.0,0.0,0.0,124.156494,73.52051,-161.80115
1765589507819,-0.9663086,0.19970703,-0.1586914,3.1738281,-4.5776367,1.0986328,0.0,0.0,0.0,123.85437,73.71277,-162.15271
1765589507908,-0.9819336,0.26367188,-0.15283203,-3.6010742,-2.4414062,2.5024414,0.0,0.0,0.0,123.85437,73.71277,-162.15271
1765589507919,-0.9819336,0.26367188,-0.15283203,-3.6010742,-2.4414062,2.5024414,0.0,0.0,0.0,122.48108,73.90503,-163.55896
1765589508007,-0.9716797,0.234375,-0.14160156,1.3427734,-3.112793,5.9814453,0.0,0.0,0.0,122.48108,73.90503,-163.55896
1765589508019,-0.9716797,0.234375,-0.14160156,1.3427734,-3.112793,5.9814453,0.0,0.0,0.0,120.92651,73.6084,-165.03113
1765589508107,-0.9560547,0.22949219,-0.13427734,2.8686523,0.0,4.272461,0.0,0.0,0.0,120.92651,73.6084,-165.03113
1765589508119,-0.9560547,0.22949219,-0.13427734,2.8686523,0.0,4.272461,0.0,0.0,0.0,119.816895,73.17993,-166.19568
1765589508207,-0.94970703,0.25439453,-0.14208984,1.7089844,-2.5024414,5.065918,0.0,0.0,0.0,119.816895,73.17993,-166.19568
1765589508218,-0.94970703,0.25439453,-0.14208984,1.7089844,-2.5024414,5.065918,0.0,0.0,0.0,119.15222,72.78992,-167.09106
1765589508307,-0.96484375,0.26708984,-0.13574219,-0.7324219,-0.4272461,4.638672,0.0,0.0,0.0,119.15222,72.78992,-167.09106
1765589508318,-0.96484375,0.26708984,-0.13574219,-0.7324219,-0.4272461,4.638672,0.0,0.0,0.0,118.10852,72.43286,-168.21167
1765589508406,-0.9433594,0.28222656,-0.13964844,1.4648438,-2.746582,3.7231445,0.0,0.0,0.0,118.10852,72.43286,-168.21167
1765589508418,-0.9433594,0.28222656,-0.13964844,1.4648438,-2.746582,3.7231445,0.0,0.0,0.0,116.96594,72.196655,-169.49707
1765589508506,-0.94970703,0.28564453,-0.11328125,-0.18310547,-0.24414062,1.159668,0.0,0.0,0.0,116.96594,72.196655,-169.49707
1765589508517,-0.94970703,0.28564453,-0.11328125,-0.18310547,-0.24414062,1.159668,0.0,0.0,0.0,116.553955,72.020874,-169.8761
1765589508605,-0.9423828,0.27246094,-0.13183594,0.48828125,0.6713867,0.061035156,0.0,0.0,0.0,116.553955,72.020874,-169.8761
1765589508617,-0.9423828,0.27246094,-0.13183594,0.48828125,0.6713867,0.061035156,0.0,0.0,0.0,116.09802,72.004395,-170.37598
1765589508705,-0.95996094,0.2783203,-0.12841797,0.12207031,-0.9765625,-1.8920898,0.0,0.0,0.0,116.09802,72.004395,-170.37598
1765589508717,-0.95996094,0.2783203,-0.12841797,0.12207031,-0.9765625,-1.8920898,0.0,0.0,0.0,116.312256,72.07031,-170.21118
1765589508805,-0.9501953,0.26757812,-0.12939453,3.8452148,-2.8686523,2.1362305,0.0,0.0,0.0,116.312256,72.07031,-170.21118
1765589508816,-0.9501953,0.26757812,-0.12939453,3.8452148,-2.8686523,2.1362305,0.0,0.0,0.0,115.91675,72.15271,-170.7605
1765589508905,-0.9423828,0.2788086,-0.13183594,2.6855469,-0.24414062,1.7089844,0.0,0.0,0.0,115.91675,72.15271,-170.7605
1765589508916,-0.9423828,0.2788086,-0.13183594,2.6855469,-0.24414062,1.7089844,0.0,0.0,0.0,115.41687,72.04285,-171.67786
1765589509005,-0.95947266,0.28320312,-0.13183594,-0.8544922,1.4038086,-0.91552734,0.0,0.0,0.0,115.41687,72.04285,-171.67786
1765589509016,-0.95947266,0.28320312,-0.13183594,-0.8544922,1.4038086,-0.91552734,0.0,0.0,0.0,115.74646,72.004395,-171.4032
1765589509104,-0.95996094,0.2709961,-0.12451172,2.0751953,0.0,-0.061035156,0.0,0.0,0.0,115.74646,72.004395,-171.4032
1765589509116,-0.95996094,0.2709961,-0.12451172,2.0751953,0.0,-0.061035156,0.0,0.0,0.0,116.119995,71.9989,-170.94727
1765589509204,-0.95166016,0.28320312,-0.13183594,2.9296875,0.18310547,0.6713867,0.0,0.0,0.0,116.119995,71.9989,-170.94727
1765589509215,-0.95166016,0.28320312,-0.13183594,2.9296875,0.18310547,0.6713867,0.0,0.0,0.0,116.22986,71.971436,-171.06262
1765589509303,-0.95751953,0.2734375,-0.13134766,2.5634766,0.79345703,0.9765625,0.0,0.0,0.0,116.22986,71.971436,-171.06262
1765589509315,-0.95751953,0.2734375,-0.13134766,2.5634766,0.79345703,0.9765625,0.0,0.0,0.0,116.537476,71.850586,-170.9198
1765589509403,-0.9536133,0.28271484,-0.14013672,2.1972656,-0.061035156,0.0,0.0,0.0,0.0,116.537476,71.850586,-170.9198
1765589509415,-0.9536133,0.28271484,-0.14013672,2.1972656,-0.061035156,0.0,0.0,0.0,0.0,116.73523,71.79016,-170.9198
1765589509503,-0.95458984,0.27929688,-0.13378906,1.159668,1.0986328,-0.8544922,0.0,0.0,0.0,116.73523,71.79016,-170.9198
1765589509515,-0.95458984,0.27929688,-0.13378906,1.159668,1.0986328,-0.8544922,0.0,0.0,0.0,117.14722,71.76819,-170.54077
1765589509603,-0.9482422,0.28808594,-0.1484375,0.12207031,-0.61035156,-0.36621094,0.0,0.0,0.0,117.14722,71.76819,-170.54077
1765589509614,-0.9482422,0.28808594,-0.1484375,0.12207031,-0.61035156,-0.36621094,0.0,0.0,0.0,117.284546,71.83411,-170.44739
1765589509702,-0.94970703,0.2734375,-0.13378906,0.4272461,-0.9765625,-0.30517578,0.0,0.0,0.0,117.284546,71.83411,-170.44739
1765589509714,-0.94970703,0.2734375,-0.13378906,0.4272461,-0.9765625,-0.30517578,0.0,0.0,0.0,117.2406,71.85608,-170.41443
1765589509802,-0.9614258,0.27783203,-0.13330078,-6.8969727,2.1972656,-1.7089844,0.0,0.0,0.0,117.2406,71.85608,-170.41443
1765589509814,-0.9614258,0.27783203,-0.13330078,-6.8969727,2.1972656,-1.7089844,0.0,0.0,0.0,116.79016,71.954956,-170.62317
1765589509902,-0.96484375,0.2553711,-0.13183594,1.8920898,-1.8310547,1.2817383,0.0,0.0,0.0,116.79016,71.954956,-170.62317
1765589509913,-0.96484375,0.2553711,-0.13183594,1.8920898,-1.8310547,1.2817383,0.0,0.0,0.0,116.850586,71.99341,-170.14526
1765589510001,-0.9399414,0.2783203,-0.1381836,0.36621094,-2.4414062,-0.61035156,0.0,0.0,0.0,116.850586,71.99341,-170.14526
1765589510013,-0.9399414,0.2783203,-0.1381836,0.36621094,-2.4414062,-0.61035156,0.0,0.0,0.0,116.312256,72.08679,-170.79895
1765589510101,-0.9667969,0.28027344,-0.12939453,-0.18310547,-0.9765625,0.061035156,0.0,0.0,0.0,116.312256,72.08679,-170.79895
1765589510113,-0.9667969,0.28027344,-0.12939453,-0.18310547,-0.9765625,0.061035156,0.0,0.0,0.0,116.087036,72.17468,-170.96924
1765589510201,-0.95410156,0.28808594,-0.13134766,0.24414062,-6.164551,0.79345703,0.0,0.0,0.0,116.087036,72.17468,-170.96924
1765589510213,-0.95410156,0.28808594,-0.13134766,0.24414062,-6.164551,0.79345703,0.0,0.0,0.0,115.268555,72.2406,-171.74927
1765589510301,-0.93408203,0.2685547,-0.11279297,1.0375977,-1.6479492,2.5024414,0.0,0.0,0.0,115.268555,72.2406,-171.74927
1765589510312,-0.93408203,0.2685547,-0.11279297,1.0375977,-1.6479492,2.5024414,0.0,0.0,0.0,113.68652,72.284546,-173.51257
1765589510400,-0.9633789,0.27294922,-0.10253906,1.6479492,0.6713867,1.5258789,0.0,0.0,0.0,113.68652,72.284546,-173.51257
1765589510412,-0.9633789,0.27294922,-0.10253906,1.6479492,0.6713867,1.5258789,0.0,0.0,0.0,113.48877,72.11426,-173.77625
1765589510500,-0.95654297,0.27441406,-0.114746094,0.48828125,0.48828125,0.6713867,0.0,0.0,0.0,113.48877,72.11426,-173.77625
1765589510512,-0.95654297,0.27441406,-0.114746094,0.48828125,0.48828125,0.6713867,0.0,0.0,0.0,113.52173,72.020874,-173.75977
1765589510600,-0.94921875,0.2788086,-0.125,2.0141602,-0.91552734,0.0,0.0,0.0,0.0,113.52173,72.020874,-173.75977
1765589510611,-0.94921875,0.2788086,-0.125,2.0141602,-0.91552734,0.0,0.0,0.0,0.0,113.549194,72.059326,-173.72131
1765589510699,-0.95703125,0.29003906,-0.119628906,0.79345703,0.6713867,0.24414062,0.0,0.0,0.0,113.549194,72.059326,-173.72131
1765589510711,-0.95703125,0.29003906,-0.119628906,0.79345703,0.6713867,0.24414062,0.0,0.0,0.0,113.83484,72.03186,-173.46863
1765589510799,-0.9526367,0.28759766,-0.12158203,-0.9765625,-0.18310547,0.0,0.0,0.0,0.0,113.83484,72.03186,-173.46863
1765589510811,-0.9526367,0.28759766,-0.12158203,-0.9765625,-0.18310547,0.0,0.0,0.0,0.0,113.741455,71.99341,-173.47412
1765589510899,-0.9550781,0.28125,-0.11621094,0.18310547,-0.79345703,-0.18310547,0.0,0.0,0.0,113.741455,71.99341,-173.47412
1765589510910,-0.9550781,0.28125,-0.11621094,0.18310547,-0.79345703,-0.18310547,0.0,0.0,0.0,113.59863,71.99341,-173.52356
1765589510999,-0.9550781,0.28222656,-0.11816406,-0.5493164,-0.18310547,0.0,0.0,0.0,0.0,113.59863,71.99341,-173.52356
1765589511010,-0.9550781,0.28222656,-0.11816406,-0.5493164,-0.18310547,0.0,0.0,0.0,0.0,113.41736,72.01538,-173.63342
1765589511098,-0.95458984,0.28076172,-0.115722656,-0.48828125,-0.24414062,0.12207031,0.0,0.0,0.0,113.41736,72.01538,-173.63342
1765589511111,-0.95458984,0.28076172,-0.115722656,-0.48828125,-0.24414062,0.12207031,0.0,0.0,0.0,113.31848,72.020874,-173.61145
1765589511198,-0.95654297,0.28125,-0.11376953,-0.12207031,0.12207031,0.061035156,0.0,0.0,0.0,113.31848,72.020874,-173.61145
1765589511211,-0.95654297,0.28125,-0.11376953,-0.12207031,0.12207031,0.061035156,0.0,0.0,0.0,113.25256,72.02637,-173.60046
1765589511298,-0.95410156,0.28271484,-0.119140625,0.48828125,0.0,0.0,0.0,0.0,0.0,113.25256,72.02637,-173.60046
1765589511309,-0.95410156,0.28271484,-0.119140625,0.48828125,0.0,0.0,0.0,0.0,0.0,113.236084,72.02637,-173.61145
1765589511397,-0.95654297,0.28222656,-0.11621094,0.061035156,0.18310547,0.0,0.0,0.0,0.0,113.236084,72.02637,-173.61145
1765589511409,-0.95654297,0.28222656,-0.11621094,0.061035156,0.18310547,0.0,0.0,0.0,0.0,113.26355,72.01538,-173.55652
1765589511497,-0.95703125,0.2866211,-0.11669922,-0.48828125,0.0,0.0,0.0,0.0,0.0,113.26355,72.01538,-173.55652
1765589511509,-0.95703125,0.2866211,-0.11669922,-0.48828125,0.0,0.0,0.0,0.0,0.0,113.24158,72.01538,-173.54553
1765589511597,-0.9589844,0.28466797,-0.11230469,-0.36621094,0.91552734,-0.12207031,0.0,0.0,0.0,113.24158,72.01538,-173.54553
1765589511609,-0.9589844,0.28466797,-0.11230469,-0.36621094,0.91552734,-0.12207031,0.0,0.0,0.0,113.23059,71.99341,-173.51807
1765589511697,-0.9555664,0.28515625,-0.12011719,0.5493164,-0.30517578,0.18310547,0.0,0.0,0.0,113.23059,71.99341,-173.51807
1765589511708,-0.9555664,0.28515625,-0.12011719,0.5493164,-0.30517578,0.18310547,0.0,0.0,0.0,113.21411,71.97693,-173.53455
1765589511797,-0.95751953,0.2836914,-0.1171875,-0.061035156,0.4272461,0.0,0.0,0.0,0.0,113.21411,71.97693,-173.53455
1765589511808,-0.95751953,0.2836914,-0.1171875,-0.061035156,0.4272461,0.0,0.0,0.0,0.0,113.23059,71.971436,-173.4851
1765589511896,-0.9550781,0.28564453,-0.119140625,-0.48828125,0.91552734,-0.12207031,0.0,0.0,0.0,113.23059,71.971436,-173.4851
1765589511908,-0.9550781,0.28564453,-0.119140625,-0.48828125,0.91552734,-0.12207031,0.0,0.0,0.0,113.34595,71.94397,-173.31482
1765589511996,-0.95458984,0.2836914,-0.11621094,0.12207031,0.61035156,0.0,0.0,0.0,0.0,113.34595,71.94397,-173.31482
1765589512007,-0.95458984,0.2836914,-0.11621094,0.12207031,0.61035156,0.0,0.0,0.0,0.0,113.620605,71.922,-172.98523
1765589512096,-0.95214844,0.28466797,-0.12109375,-0.12207031,0.79345703,-0.30517578,0.0,0.0,0.0,113.620605,71.922,-172.98523
1765589512107,-0.95214844,0.28466797,-0.12109375,-0.12207031,0.79345703,-0.30517578,0.0,0.0,0.0,113.74695,71.90552,-172.85889
1765589512195,-0.9536133,0.28125,-0.123535156,0.061035156,0.36621094,-0.061035156,0.0,0.0,0.0,113.74695,71.90552,-172.85889
1765589512207,-0.9536133,0.28125,-0.123535156,0.061035156,0.36621094,-0.061035156,0.0,0.0,0.0,113.950195,71.89453,-172.61719
1765589512295,-0.9555664,0.28466797,-0.12158203,0.0,0.24414062,0.0,0.0,0.0,0.0,113.950195,71.89453,-172.61719
1765589512307,-0.9555664,0.28466797,-0.12158203,0.0,0.24414062,0.0,0.0,0.0,0.0,114.071045,71.883545,-172.48535
1765589512395,-0.95410156,0.28222656,-0.12207031,0.0,0.12207031,0.18310547,0.0,0.0,0.0,114.071045,71.883545,-172.48535
1765589512406,-0.95410156,0.28222656,-0.12207031,0.0,0.12207031,0.18310547,0.0,0.0,0.0,114.07654,71.867065,-172.46338
1765589512495,-0.95214844,0.2836914,-0.12158203,0.061035156,0.061035156,0.061035156,0.0,0.0,0.0,114.07654,71.867065,-172.46338
1765589512506,-0.95214844,0.2836914,-0.12158203,0.061035156,0.061035156,0.061035156,0.0,0.0,0.0,114.071045,71.84509,-172.46338
1765589512594,-0.9506836,0.2836914,-0.122558594,0.061035156,0.061035156,0.12207031,0.0,0.0,0.0,114.071045,71.84509,-172.46338
1765589512606,-0.9506836,0.2836914,-0.122558594,0.061035156,0.061035156,0.12207031,0.0,0.0,0.0,114.071045,71.8396,-172.4524
1765589512694,-0.95410156,0.28466797,-0.12939453,-0.24414062,0.30517578,0.0,0.0,0.0,0.0,114.071045,71.8396,-172.4524
1765589512705,-0.95410156,0.28466797,-0.12939453,-0.24414062,0.30517578,0.0,0.0,0.0,0.0,114.08203,71.82861,-172.45789
1765589512794,-0.9526367,0.28125,-0.12597656,0.12207031,0.0,0.0,0.0,0.0,0.0,114.08203,71.82861,-172.45789
1765589512805,-0.9526367,0.28125,-0.12597656,0.12207031,0.0,0.0,0.0,0.0,0.0,114.23584,71.80115,-172.27112
1765589512893,-0.9580078,0.28320312,-0.12451172,-0.061035156,0.061035156,0.0,0.0,0.0,0.0,114.23584,71.80115,-172.27112
1765589512905,-0.9580078,0.28320312,-0.12451172,-0.061035156,0.061035156,0.0,0.0,0.0,0.0,114.312744,71.79016,-172.1997
1765589512993,-0.9501953,0.28271484,-0.12841797,-0.24414062,0.18310547,0.0,0.0,0.0,0.0,114.312744,71.79016,-172.1997
1765589513005,-0.9501953,0.28271484,-0.12841797,-0.24414062,0.18310547,0.0,0.0,0.0,0.0,114.367676,71.77368,-172.1283
1765589513093,-0.95947266,0.28466797,-0.12207031,-0.4272461,0.30517578,0.0,0.0,0.0,0.0,114.367676,71.77368,-172.1283
1765589513104,-0.95947266,0.28466797,-0.12207031,-0.4272461,0.30517578,0.0,0.0,0.0,0.0,114.46655,71.746216,-171.969
1765589513192,-0.94873047,0.28173828,-0.12792969,-0.9765625,0.0,-0.36621094,0.0,0.0,0.0,114.46655,71.746216,-171.969
1765589513205,-0.94873047,0.28173828,-0.12792969,-0.9765625,0.0,-0.36621094,0.0,0.0,0.0,114.367676,71.76819,-172.01843
1765589513292,-0.9536133,0.28173828,-0.12646484,-0.4272461,0.4272461,0.12207031,0.0,0.0,0.0,114.367676,71.76819,-172.01843
1765589513304,-0.9536133,0.28173828,-0.12646484,-0.4272461,0.4272461,0.12207031,0.0,0.0,0.0,114.39514,71.77368,-171.95251
1765589513392,-0.953125,0.2836914,-0.12646484,-0.79345703,0.12207031,0.0,0.0,0.0,0.0,114.39514,71.77368,-171.95251
1765589513403,-0.953125,0.2836914,-0.12646484,-0.79345703,0.12207031,0.0,0.0,0.0,0.0,114.40613,71.762695,-171.89209
1765589513492,-0.95214844,0.2841797,-0.12548828,-1.6479492,-0.24414062,-0.4272461,0.0,0.0,0.0,114.40613,71.762695,-171.89209
1765589513503,-0.95214844,0.2841797,-0.12548828,-1.6479492,-0.24414062,-0.4272461,0.0,0.0,0.0,114.263306,71.78467,-171.92505
1765589513591,-0.95654297,0.28222656,-0.123046875,-1.5258789,-0.18310547,-0.5493164,0.0,0.0,0.0,114.263306,71.78467,-171.92505
1765589513603,-0.95654297,0.28222656,-0.123046875,-1.5258789,-0.18310547,-0.5493164,0.0,0.0,0.0,114.13696,71.83411,-171.87561
1765589513691,-0.95654297,0.28710938,-0.12158203,-1.0986328,-1.0375977,-0.061035156,0.0,0.0,0.0,114.13696,71.83411,-171.87561
1765589513703,-0.95654297,0.28710938,-0.12158203,-1.0986328,-1.0375977,-0.061035156,0.0,0.0,0.0,113.83484,71.883545,-172.07886
1765589513791,-0.9555664,0.28808594,-0.12060547,-2.0751953,0.12207031,0.12207031,0.0,0.0,0.0,113.83484,71.883545,-172.07886
1765589513802,-0.9555664,0.28808594,-0.12060547,-2.0751953,0.12207031,0.12207031,0.0,0.0,0.0,113.49426,71.90552,-172.33704
1765589513890,-0.9667969,0.28759766,-0.119628906,-1.0986328,1.953125,2.4414062,0.0,0.0,0.0,113.49426,71.90552,-172.33704
1765589513903,-0.9667969,0.28759766,-0.119628906,-1.0986328,1.953125,2.4414062,0.0,0.0,0.0,113.43933,71.79016,-172.2052
1765589513990,-0.9472656,0.2944336,-0.12597656,-4.699707,2.1362305,0.8544922,0.0,0.0,0.0,113.43933,71.79016,-172.2052
1765589514002,-0.9472656,0.2944336,-0.12597656,-4.699707,2.1362305,0.8544922,0.0,0.0,0.0,113.73047,71.52649,-171.76025
1765589514090,-0.9506836,0.28320312,-0.12451172,-2.6245117,-0.24414062,-0.061035156,0.0,0.0,0.0,113.73047,71.52649,-171.76025
1765589514101,-0.9506836,0.28320312,-0.12451172,-2.6245117,-0.24414062,-0.061035156,0.0,0.0,0.0,113.829346,71.55945,-171.27686
1765589514190,-0.9506836,0.30029297,-0.122558594,-2.5634766,-0.24414062,2.5634766,0.0,0.0,0.0,113.829346,71.55945,-171.27686
1765589514201,-0.9506836,0.30029297,-0.122558594,-2.5634766,-0.24414062,2.5634766,0.0,0.0,0.0,113.49426,71.38916,-171.52954
1765589514289,-0.94970703,0.29052734,-0.11767578,-3.90625,0.0,0.7324219,0.0,0.0,0.0,113.49426,71.38916,-171.52954
1765589514301,-0.94970703,0.29052734,-0.11767578,-3.90625,0.0,0.7324219,0.0,0.0,0.0,112.88452,71.22986,-171.83716
1765589514389,-0.9501953,0.29833984,-0.10888672,1.5258789,-0.5493164,2.6855469,0.0,0.0,0.0,112.88452,71.22986,-171.83716
1765589514401,-0.9501953,0.29833984,-0.10888672,1.5258789,-0.5493164,2.6855469,0.0,0.0,0.0,112.456055,71.10901,-172.2107
1765589514489,-0.9355469,0.29101562,-0.11767578,1.3427734,-0.8544922,0.0,0.0,0.0,0.0,112.456055,71.10901,-172.2107
1765589514500,-0.9355469,0.29101562,-0.11767578,1.3427734,-0.8544922,0.0,0.0,0.0,0.0,112.07703,71.048584,-172.83142
1765589514588,-0.9511719,0.28466797,-0.1171875,5.9814453,0.0,-1.953125,0.0,0.0,0.0,112.07703,71.048584,-172.83142
1765589514600,-0.9511719,0.28466797,-0.1171875,5.9814453,0.0,-1.953125,0.0,0.0,0.0,112.560425,71.18591,-172.72705
1765589514688,-0.9448242,0.30273438,-0.111328125,5.3100586,3.1738281,0.91552734,0.0,0.0,0.0,112.560425,71.18591,-172.72705
1765589514700,-0.9448242,0.30273438,-0.111328125,5.3100586,3.1738281,0.91552734,0.0,0.0,0.0,113.56018,71.21887,-172.41394
1765589514788,-0.9550781,0.2685547,-0.11816406,4.9438477,1.3427734,-5.1879883,0.0,0.0,0.0,113.56018,71.21887,-172.41394
1765589514799,-0.9550781,0.2685547,-0.11816406,4.9438477,1.3427734,-5.1879883,0.0,0.0,0.0,115.043335,71.39465,-171.50208
1765589514888,-0.9555664,0.3227539,-0.14013672,7.6293945,0.30517578,-2.5024414,0.0,0.0,0.0,115.043335,71.39465,-171.50208
1765589514899,-0.9555664,0.3227539,-0.14013672,7.6293945,0.30517578,-2.5024414,0.0,0.0,0.0,116.51001,71.71875,-170.97473
1765589514987,-0.9238281,0.2861328,-0.15136719,-5.6762695,6.0424805,-7.873535,0.0,0.0,0.0,116.51001,71.71875,-170.97473
1765589514999,-0.9238281,0.2861328,-0.15136719,-5.6762695,6.0424805,-7.873535,0.0,0.0,0.0,117.91077,71.971436,-169.38171
1765589515087,-0.99365234,0.2631836,-0.14990234,-0.18310547,7.6293945,-5.6762695,0.0,0.0,0.0,117.91077,71.971436,-169.38171
1765589515099,-0.99365234,0.2631836,-0.14990234,-0.18310547,7.6293945,-5.6762695,0.0,0.0,0.0,120.80017,72.13074,-165.97595
1765589515187,-0.96191406,0.25634766,-0.16503906,5.126953,3.7231445,-1.6479492,0.0,0.0,0.0,120.80017,72.13074,-165.97595
1765589515198,-0.96191406,0.25634766,-0.16503906,5.126953,3.7231445,-1.6479492,0.0,0.0,0.0,123.00293,72.04834,-163.99292
1765589515286,-0.94921875,0.24365234,-0.18408203,-2.1972656,4.638672,-6.5307617,0.0,0.0,0.0,123.00293,72.04834,-163.99292
1765589515298,-0.94921875,0.24365234,-0.18408203,-2.1972656,4.638672,-6.5307617,0.0,0.0,0.0,124.65637,72.2406,-162.25708
1765589515386,-0.96777344,0.2397461,-0.19677734,-2.319336,2.9296875,-3.8452148,0.0,0.0,0.0,124.65637,72.2406,-162.25708
1765589515398,-0.96777344,0.2397461,-0.19677734,-2.319336,2.9296875,-3.8452148,0.0,0.0,0.0,126.52405,72.388916,-159.9939
1765589515486,-0.96484375,0.23925781,-0.18261719,-3.6010742,0.24414062,-1.8920898,0.0,0.0,0.0,126.52405,72.388916,-159.9939
1765589515497,-0.96484375,0.23925781,-0.18261719,-3.6010742,0.24414062,-1.8920898,0.0,0.0,0.0,127.03491,72.53723,-159.17542
1765589515586,-0.9633789,0.21142578,-0.17675781,0.24414062,-1.5869141,0.0,0.0,0.0,0.0,127.03491,72.53723,-159.17542
1765589515597,-0.9633789,0.21142578,-0.17675781,0.24414062,-1.5869141,0.0,0.0,0.0,0.0,126.919556,72.66907,-159.21936
1765589515685,-0.95458984,0.22802734,-0.17236328,1.8310547,-2.380371,0.12207031,0.0,0.0,0.0,126.919556,72.66907,-159.21936
1765589515697,-0.95458984,0.22802734,-0.17236328,1.8310547,-2.380371,0.12207031,0.0,0.0,0.0,126.46912,72.8064,-159.87305
1765589515785,-0.9633789,0.23730469,-0.16992188,0.91552734,-2.380371,0.5493164,0.0,0.0,0.0,126.46912,72.8064,-159.87305
1765589515797,-0.9633789,0.23730469,-0.16992188,0.91552734,-2.380371,0.5493164,0.0,0.0,0.0,126.17798,72.872314,-160.27405
1765589515885,-0.9536133,0.23730469,-0.17089844,-0.061035156,0.18310547,0.9765625,0.0,0.0,0.0,126.17798,72.872314,-160.27405
1765589515897,-0.9536133,0.23730469,-0.17089844,-0.061035156,0.18310547,0.9765625,0.0,0.0,0.0,125.826416,72.86682,-160.64209
1765589515985,-0.9526367,0.23730469,-0.16699219,0.9765625,-0.61035156,0.9765625,0.0,0.0,0.0,125.826416,72.86682,-160.64209
1765589515996,-0.9526367,0.23730469,-0.16699219,0.9765625,-0.61035156,0.9765625,0.0,0.0,0.0,125.74402,72.77893,-160.74646
1765589516084,-0.9589844,0.24169922,-0.16845703,-0.6713867,0.0,-0.18310547,0.0,0.0,0.0,125.74402,72.77893,-160.74646
1765589516096,-0.9589844,0.24169922,-0.16845703,-0.6713867,0.0,-0.18310547,0.0,0.0,0.0,125.70557,72.734985,-160.81238
1765589516184,-0.9536133,0.23925781,-0.17529297,-0.18310547,-0.18310547,0.0,0.0,0.0,0.0,125.70557,72.734985,-160.81238
1765589516195,-0.9536133,0.23925781,-0.17529297,-0.18310547,-0.18310547,0.0,0.0,0.0,0.0,125.6781,72.734985,-160.81238
1765589516284,-0.96240234,0.24169922,-0.16796875,-0.061035156,-0.12207031,0.061035156,0.0,0.0,0.0,125.6781,72.734985,-160.81238
1765589516295,-0.96240234,0.24169922,-0.16796875,-0.061035156,-0.12207031,0.061035156,0.0,0.0,0.0,125.71106,72.724,-160.75745
1765589516383,-0.95751953,0.23828125,-0.17089844,0.4272461,-0.5493164,0.36621094,0.0,0.0,0.0,125.71106,72.724,-160.75745
1765589516395,-0.95751953,0.23828125,-0.17089844,0.4272461,-0.5493164,0.36621094,0.0,0.0,0.0,125.55725,72.724,-160.9497
1765589516483,-0.95751953,0.23925781,-0.16748047,0.18310547,-0.18310547,0.12207031,0.0,0.0,0.0,125.55725,72.724,-160.9497
1765589516495,-0.95751953,0.23925781,-0.16748047,0.18310547,-0.18310547,0.12207031,0.0,0.0,0.0,125.46936,72.72949,-161.05957
1765589516583,-0.9614258,0.2446289,-0.1694336,-1.2207031,-0.18310547,-0.061035156,0.0,0.0,0.0,125.46936,72.72949,-161.05957
1765589516594,-0.9614258,0.2446289,-0.1694336,-1.2207031,-0.18310547,-0.061035156,0.0,0.0,0.0,125.40344,72.734985,-161.09253
1765589516682,-0.95751953,0.2397461,-0.16601562,-0.24414062,-0.061035156,0.0,0.0,0.0,0.0,125.40344,72.734985,-161.09253
1765589516694,-0.95751953,0.2397461,-0.16601562,-0.24414062,-0.061035156,0.0,0.0,0.0,0.0,125.31006,72.75696,-161.12549
1765589516782,-0.9584961,0.24169922,-0.16699219,-0.18310547,-0.61035156,0.061035156,0.0,0.0,0.0,125.31006,72.75696,-161.12549
1765589516794,-0.9584961,0.24169922,-0.16699219,-0.18310547,-0.61035156,0.061035156,0.0,0.0,0.0,125.13977,72.77893,-161.29028
1765589516882,-0.9609375,0.23583984,-0.16992188,0.7324219,-0.6713867,0.36621094,0.0,0.0,0.0,125.13977,72.77893,-161.29028
1765589516894,-0.9609375,0.23583984,-0.16992188,0.7324219,-0.6713867,0.36621094,0.0,0.0,0.0,125.02991,72.8009,-161.38367
1765589516982,-0.95947266,0.23779297,-0.16796875,0.79345703,-0.24414062,0.9765625,0.0,0.0,0.0,125.02991,72.8009,-161.38367
1765589516993,-0.95947266,0.23779297,-0.16796875,0.79345703,-0.24414062,0.9765625,0.0,0.0,0.0,124.920044,72.75696,-161.6034
1765589517081,-0.95947266,0.24560547,-0.16455078,0.061035156,-1.159668,0.18310547,0.0,0.0,0.0,124.920044,72.75696,-161.6034
1765589517093,-0.95947266,0.24560547,-0.16455078,0.061035156,-1.159668,0.18310547,0.0,0.0,0.0,124.62341,72.751465,-162.03186
1765589517181,-0.96972656,0.23535156,-0.17773438,-1.0375977,-2.4414062,0.4272461,0.0,0.0,0.0,124.62341,72.751465,-162.03186
1765589517193,-0.96972656,0.23535156,-0.17773438,-1.0375977,-2.4414062,0.4272461,0.0,0.0,0.0,124.17847,72.83386,-162.43835
1765589517281,-0.9838867,0.25634766,-0.16259766,0.5493164,1.0375977,3.1738281,0.0,0.0,0.0,124.17847,72.83386,-162.43835
1765589517292,-0.9838867,0.25634766,-0.16259766,0.5493164,1.0375977,3.1738281,0.0,0.0,0.0,123.82141,72.71301,-162.76794
1765589517380,-0.95410156,0.25585938,-0.17626953,-2.0751953,3.3569336,3.2958984,0.0,0.0,0.0,123.82141,72.71301,-162.76794
1765589517392,-0.95410156,0.25585938,-0.17626953,-2.0751953,3.3569336,3.2958984,0.0,0.0,0.0,123.8324,72.24609,-162.62512
1765589517480,-0.96435547,0.2548828,-0.1743164,-2.5024414,-2.8076172,3.2958984,0.0,0.0,0.0,123.8324,72.24609,-162.62512
1765589517492,-0.96435547,0.2548828,-0.1743164,-2.5024414,-2.8076172,3.2958984,0.0,0.0,0.0,123.22815,71.91101,-162.92175
1765589517580,-0.9580078,0.29003906,-0.1640625,-6.0424805,-1.3427734,4.211426,0.0,0.0,0.0,123.22815,71.91101,-162.92175
1765589517592,-0.9580078,0.29003906,-0.1640625,-6.0424805,-1.3427734,4.211426,0.0,0.0,0.0,121.712036,71.63086,-164.11926
1765589517680,-0.92626953,0.2705078,-0.1484375,-5.065918,-2.9296875,4.4555664,0.0,0.0,0.0,121.712036,71.63086,-164.11926
1765589517691,-0.92626953,0.2705078,-0.1484375,-5.065918,-2.9296875,4.4555664,0.0,0.0,0.0,119.73999,71.433105,-165.6134
1765589517779,-0.93603516,0.28173828,-0.13964844,-1.8920898,-1.159668,0.24414062,0.0,0.0,0.0,119.73999,71.433105,-165.6134
1765589517792,-0.93603516,0.28173828,-0.13964844,-1.8920898,-1.159668,0.24414062,0.0,0.0,0.0,118.289795,71.345215,-166.8988
1765589517879,-0.9404297,0.27001953,-0.12597656,0.12207031,-1.8920898,-1.8920898,0.0,0.0,0.0,118.289795,71.345215,-166.8988
1765589517890,-0.9404297,0.27001953,-0.12597656,0.12207031,-1.8920898,-1.8920898,0.0,0.0,0.0,117.960205,71.50452,-167.0636
1765589517979,-0.96533203,0.27783203,-0.12939453,2.0141602,-1.159668,-3.2348633,0.0,0.0,0.0,117.960205,71.50452,-167.0636
1765589517990,-0.96533203,0.27783203,-0.12939453,2.0141602,-1.159668,-3.2348633,0.0,0.0,0.0,118.24036,71.82861,-166.90979
1765589518079,-0.9604492,0.2861328,-0.14794922,1.0986328,-0.61035156,0.8544922,0.0,0.0,0.0,118.24036,71.82861,-166.90979
1765589518090,-0.9604492,0.2861328,-0.14794922,1.0986328,-0.61035156,0.8544922,0.0,0.0,0.0,118.2074,72.03186,-167.20093
1765589518178,-0.9501953,0.27001953,-0.13574219,-0.91552734,-0.79345703,3.4179688,0.0,0.0,0.0,118.2074,72.03186,-167.20093
1765589518190,-0.9501953,0.27001953,-0.13574219,-0.91552734,-0.79345703,3.4179688,0.0,0.0,0.0,117.542725,71.84509,-167.84363
1765589518278,-0.9663086,0.28076172,-0.14160156,-0.5493164,-2.1362305,2.5024414,0.0,0.0,0.0,117.542725,71.84509,-167.84363
1765589518289,-0.9663086,0.28076172,-0.14160156,-0.5493164,-2.1362305,2.5024414,0.0,0.0,0.0,116.81213,71.66382,-168.57422
1765589518378,-0.9404297,0.2763672,-0.13330078,-1.2207031,-0.79345703,2.1972656,0.0,0.0,0.0,116.81213,71.66382,-168.57422
1765589518389,-0.9404297,0.2763672,-0.13330078,-1.2207031,-0.79345703,2.1972656,0.0,0.0,0.0,115.86731,71.49353,-169.61792
1765589518477,-0.9560547,0.28564453,-0.123046875,1.4648438,-2.5634766,0.7324219,0.0,0.0,0.0,115.86731,71.49353,-169.61792
1765589518489,-0.9560547,0.28564453,-0.123046875,1.4648438,-2.5634766,0.7324219,0.0,0.0,0.0,115.372925,71.49353,-170.09033
1765589518577,-0.9482422,0.29492188,-0.12402344,0.9765625,-0.24414062,0.24414062,0.0,0.0,0.0,115.372925,71.49353,-170.09033
1765589518589,-0.9482422,0.29492188,-0.12402344,0.9765625,-0.24414062,0.24414062,0.0,0.0,0.0,114.9115,71.52649,-170.72205
1765589518677,-0.95214844,0.28808594,-0.12402344,1.0986328,1.0375977,0.0,0.0,0.0,0.0,114.9115,71.52649,-170.72205
1765589518688,-0.95214844,0.28808594,-0.12402344,1.0986328,1.0375977,0.0,0.0,0.0,0.0,114.93347,71.47705,-170.81543
1765589518776,-0.95410156,0.28710938,-0.12792969,1.0375977,0.61035156,0.36621094,0.0,0.0,0.0,114.93347,71.47705,-170.81543
1765589518788,-0.95410156,0.28710938,-0.12792969,1.0375977,0.61035156,0.36621094,0.0,0.0,0.0,115.27405,71.449585,-170.56274
1765589518876,-0.9501953,0.28710938,-0.13769531,0.36621094,0.48828125,-0.061035156,0.0,0.0,0.0,115.27405,71.449585,-170.56274
1765589518888,-0.9501953,0.28710938,-0.13769531,0.36621094,0.48828125,-0.061035156,0.0,0.0,0.0,115.29602,71.416626,-170.65063
1765589518976,-0.9560547,0.2866211,-0.13671875,0.0,0.30517578,0.0,0.0,0.0,0.0,115.29602,71.416626,-170.65063
1765589518987,-0.9560547,0.2866211,-0.13671875,0.0,0.30517578,0.0,0.0,0.0,0.0,115.669556,71.38916,-170.2771
1765589519076,-0.9506836,0.28955078,-0.13671875,-0.48828125,0.48828125,-0.7324219,0.0,0.0,0.0,115.669556,71.38916,-170.2771
1765589519087,-0.9506836,0.28955078,-0.13671875,-0.48828125,0.48828125,-0.7324219,0.0,0.0,0.0,115.77942,71.416626,-170.2002
1765589519175,-0.94970703,0.28271484,-0.13378906,-0.18310547,0.4272461,0.061035156,0.0,0.0,0.0,115.77942,71.416626,-170.2002
1765589519187,-0.94970703,0.28271484,-0.13378906,-0.18310547,0.4272461,0.061035156,0.0,0.0,0.0,115.81238,71.42212,-170.13977
1765589519275,-0.95458984,0.2861328,-0.1328125,-0.7324219,0.18310547,0.18310547,0.0,0.0,0.0,115.81238,71.42212,-170.13977
1765589519286,-0.95458984,0.2861328,-0.1328125,-0.7324219,0.18310547,0.18310547,0.0,0.0,0.0,115.75745,71.416626,-170.16174
1765589519375,-0.94873047,0.28759766,-0.13427734,-0.5493164,-0.48828125,-0.12207031,0.0,0.0,0.0,115.75745,71.416626,-170.16174
1765589519387,-0.94873047,0.28759766,-0.13427734,-0.5493164,-0.48828125,-0.12207031,0.0,0.0,0.0,115.57068,71.40564,-170.36499
1765589519474,-0.9506836,0.2841797,-0.13134766,0.0,0.061035156,0.0,0.0,0.0,0.0,115.57068,71.40564,-170.36499
1765589519486,-0.9506836,0.2841797,-0.13134766,0.0,0.061035156,0.0,0.0,0.0,0.0,115.55969,71.42212,-170.34851
1765589519574,-0.9506836,0.28710938,-0.13183594,0.0,0.18310547,0.061035156,0.0,0.0,0.0,115.55969,71.42212,-170.34851
1765589519586,-0.9506836,0.28710938,-0.13183594,0.0,0.18310547,0.061035156,0.0,0.0,0.0,115.55969,71.42212,-170.39246
1765589519674,-0.9526367,0.2866211,-0.13330078,0.18310547,0.12207031,0.0,0.0,0.0,0.0,115.55969,71.42212,-170.39246
1765589519685,-0.9526367,0.2866211,-0.13330078,0.18310547,0.12207031,0.0,0.0,0.0,0.0,115.60913,71.41113,-170.38147
1765589519774,-0.94970703,0.28320312,-0.13378906,0.4272461,-0.12207031,0.24414062,0.0,0.0,0.0,115.60913,71.41113,-170.38147
1765589519785,-0.94970703,0.28320312,-0.13378906,0.4272461,-0.12207031,0.24414062,0.0,0.0,0.0,115.686035,71.38367,-170.34851
1765589519873,-0.95214844,0.28857422,-0.14013672,-0.48828125,0.6713867,0.0,0.0,0.0,0.0,115.686035,71.38367,-170.34851
1765589519885,-0.95214844,0.28857422,-0.14013672,-0.48828125,0.6713867,0.0,0.0,0.0,0.0,115.78491,71.361694,-170.28809
1765589519973,-0.9482422,0.2841797,-0.13671875,0.4272461,-0.24414062,0.12207031,0.0,0.0,0.0,115.78491,71.361694,-170.28809
1765589519985,-0.9482422,0.2841797,-0.13671875,0.4272461,-0.24414062,0.12207031,0.0,0.0,0.0,115.8728,71.33423,-170.20569
1765589520073,-0.9555664,0.29101562,-0.13671875,0.5493164,-0.12207031,-0.18310547,0.0,0.0,0.0,115.8728,71.33423,-170.20569
1765589520084,-0.9555664,0.29101562,-0.13671875,0.5493164,-0.12207031,-0.18310547,0.0,0.0,0.0,115.93872,71.328735,-170.20569
1765589520173,-0.9501953,0.2861328,-0.13867188,-0.18310547,-0.12207031,-0.24414062,0.0,0.0,0.0,115.93872,71.328735,-170.20569
1765589520185,-0.9501953,0.2861328,-0.13867188,-0.18310547,-0.12207031,-0.24414062,0.0,0.0,0.0,116.01013,71.32324,-170.13428
1765589520272,-0.9560547,0.2866211,-0.13183594,0.0,0.0,0.0,0.0,0.0,0.0,116.01013,71.32324,-170.13428
1765589520284,-0.9560547,0.2866211,-0.13183594,0.0,0.0,0.0,0.0,0.0,0.0,116.07056,71.328735,-170.04639
1765589520372,-0.9511719,0.28808594,-0.13720703,-0.61035156,0.061035156,-0.24414062,0.0,0.0,0.0,116.07056,71.328735,-170.04639
1765589520383,-0.9511719,0.28808594,-0.13720703,-0.61035156,0.061035156,-0.24414062,0.0,0.0,0.0,115.999146,71.33423,-170.12329
1765589520472,-0.9506836,0.28466797,-0.13427734,0.12207031,0.0,-0.061035156,0.0,0.0,0.0,115.999146,71.33423,-170.12329
1765589520483,-0.9506836,0.28466797,-0.13427734,0.12207031,0.0,-0.061035156,0.0,0.0,0.0,116.01013,71.33972,-170.09583
1765589520571,-0.9506836,0.28955078,-0.13671875,-0.48828125,0.0,-0.24414062,0.0,0.0,0.0,116.01013,71.33972,-170.09583
1765589520583,-0.9506836,0.28955078,-0.13671875,-0.48828125,0.0,-0.24414062,0.0,0.0,0.0,116.02661,71.345215,-170.10681
1765589520671,-0.9506836,0.28515625,-0.13183594,-0.12207031,0.6713867,-0.18310547,0.0,0.0,0.0,116.02661,71.345215,-170.10681
1765589520683,-0.9506836,0.28515625,-0.13183594,-0.12207031,0.6713867,-0.18310547,0.0,0.0,0.0,116.02112,71.3562,-170.06287
1765589520771,-0.9501953,0.29003906,-0.1381836,-0.24414062,0.18310547,-0.12207031,0.0,0.0,0.0,116.02112,71.3562,-170.06287
1765589520783,-0.9501953,0.29003906,-0.1381836,-0.24414062,0.18310547,-0.12207031,0.0,0.0,0.0,116.01013,71.36719,-170.07935
1765589520870,-0.9536133,0.2890625,-0.13476562,-0.18310547,0.7324219,-0.24414062,0.0,0.0,0.0,116.01013,71.36719,-170.07935
1765589520882,-0.9536133,0.2890625,-0.13476562,-0.18310547,0.7324219,-0.24414062,0.0,0.0,0.0,116.09802,71.3562,-170.01343
1765589520970,-0.94628906,0.28466797,-0.13964844,0.4272461,0.18310547,0.0,0.0,0.0,0.0,116.09802,71.3562,-170.01343
1765589520982,-0.94628906,0.28466797,-0.13964844,0.4272461,0.18310547,0.0,0.0,0.0,0.0,116.19141,71.35071,-169.92004
1765589521070,-0.95214844,0.28759766,-0.13916016,0.0,-0.061035156,-0.12207031,0.0,0.0,0.0,116.19141,71.35071,-169.92004
1765589521081,-0.95214844,0.28759766,-0.13916016,0.0,-0.061035156,-0.12207031,0.0,0.0,0.0,116.240845,71.35071,-169.88708
1765589521170,-0.9501953,0.2861328,-0.13867188,-0.36621094,-0.061035156,0.061035156,0.0,0.0,0.0,116.240845,71.35071,-169.88708
1765589521181,-0.9501953,0.2861328,-0.13867188,-0.36621094,-0.061035156,0.061035156,0.0,0.0,0.0,116.26831,71.345215,-169.85962
1765589521269,-0.953125,0.28515625,-0.13476562,0.061035156,-0.4272461,0.12207031,0.0,0.0,0.0,116.26831,71.345215,-169.85962
1765589521281,-0.953125,0.28515625,-0.13476562,0.061035156,-0.4272461,0.12207031,0.0,0.0,0.0,116.22986,71.345215,-169.89258
1765589521369,-0.95214844,0.2861328,-0.13671875,-0.12207031,0.0,-0.12207031,0.0,0.0,0.0,116.22986,71.345215,-169.89258
1765589521381,-0.95214844,0.2861328,-0.13671875,-0.12207031,0.0,-0.12207031,0.0,0.0,0.0,116.16943,71.345215,-169.96948
1765589521469,-0.9511719,0.2861328,-0.1381836,-0.12207031,0.18310547,0.0,0.0,0.0,0.0,116.16943,71.345215,-169.96948
1765589521480,-0.9511719,0.2861328,-0.1381836,-0.12207031,0.18310547,0.0,0.0,0.0,0.0,116.17493,71.345215,-169.96948
1765589521569,-0.94970703,0.2866211,-0.13671875,-0.18310547,0.061035156,0.0,0.0,0.0,0.0,116.17493,71.345215,-169.96948
1765589521580,-0.94970703,0.2866211,-0.13671875,-0.18310547,0.061035156,0.0,0.0,0.0,0.0,116.19141,71.33423,-169.9585
1765589521668,-0.95166016,0.28710938,-0.13427734,-0.36621094,0.12207031,-0.36621094,0.0,0.0,0.0,116.19141,71.33423,-169.9585
1765589521680,-0.95166016,0.28710938,-0.13427734,-0.36621094,0.12207031,-0.36621094,0.0,0.0,0.0,116.16943,71.345215,-169.96399
1765589521768,-0.9506836,0.28759766,-0.13720703,-0.30517578,0.24414062,-0.36621094,0.0,0.0,0.0,116.16943,71.345215,-169.96399
1765589521780,-0.9506836,0.28759766,-0.13720703,-0.30517578,0.24414062,-0.36621094,0.0,0.0,0.0,116.14746,71.378174,-169.96399
1765589521868,-0.9511719,0.28515625,-0.13916016,0.0,0.48828125,-0.061035156,0.0,0.0,0.0,116.14746,71.378174,-169.96399
1765589521879,-0.9511719,0.28515625,-0.13916016,0.0,0.48828125,-0.061035156,0.0,0.0,0.0,116.15845,71.40015,-169.9585
1765589521967,-0.9511719,0.28271484,-0.13964844,0.24414062,-0.5493164,-0.061035156,0.0,0.0,0.0,116.15845,71.40015,-169.9585
1765589521979,-0.9511719,0.28271484,-0.13964844,0.24414062,-0.5493164,-0.061035156,0.0,0.0,0.0,116.361694,71.38367,-169.72778
1765589522067,-0.9526367,0.2836914,-0.13574219,0.48828125,-0.18310547,-0.12207031,0.0,0.0,0.0,116.361694,71.38367,-169.72778
1765589522079,-0.9526367,0.2836914,-0.13574219,0.48828125,-0.18310547,-0.12207031,0.0,0.0,0.0,116.38367,71.39465,-169.73328
1765589522167,-0.94970703,0.2861328,-0.13916016,-0.61035156,0.0,-0.061035156,0.0,0.0,0.0,116.38367,71.39465,-169.73328
1765589522179,-0.94970703,0.2861328,-0.13916016,-0.61035156,0.0,-0.061035156,0.0,0.0,0.0,116.36719,71.41113,-169.75525
1765589522267,-0.9560547,0.28027344,-0.13232422,0.0,-0.12207031,0.0,0.0,0.0,0.0,116.36719,71.41113,-169.75525
1765589522278,-0.9560547,0.28027344,-0.13232422,0.0,-0.12207031,0.0,0.0,0.0,0.0,116.37268,71.40015,-169.68384
1765589522366,-0.9526367,0.2836914,-0.140625,0.7324219,-0.24414062,0.12207031,0.0,0.0,0.0,116.37268,71.40015,-169.68384
1765589522378,-0.9526367,0.2836914,-0.140625,0.7324219,-0.24414062,0.12207031,0.0,0.0,0.0,116.30676,71.40015,-169.82117
1765589522466,-0.95410156,0.28320312,-0.13964844,-0.12207031,0.24414062,-0.12207031,0.0,0.0,0.0,116.30676,71.40015,-169.82117
1765589522478,-0.95410156,0.28320312,-0.13964844,-0.12207031,0.24414062,-0.12207031,0.0,0.0,0.0,116.378174,71.40015,-169.78821
1765589522566,-0.95166016,0.28759766,-0.13720703,-0.36621094,-0.24414062,0.0,0.0,0.0,0.0,116.378174,71.40015,-169.78821
1765589522577,-0.95166016,0.28759766,-0.13720703,-0.36621094,-0.24414062,0.0,0.0,0.0,0.0,116.36719,71.41113,-169.80469
1765589522665,-0.9511719,0.2841797,-0.13623047,0.0,-0.36621094,0.0,0.0,0.0,0.0,116.36719,71.41113,-169.80469
1765589522677,-0.9511719,0.2841797,-0.13623047,0.0,-0.36621094,0.0,0.0,0.0,0.0,116.29578,71.40564,-169.85962
1765589522765,-0.9536133,0.28173828,-0.1381836,0.18310547,-0.36621094,-0.061035156,0.0,0.0,0.0,116.29578,71.40564,-169.85962
1765589522777,-0.9536133,0.28173828,-0.1381836,0.18310547,-0.36621094,-0.061035156,0.0,0.0,0.0,116.2738,71.416626,-169.89258
1765589522865,-0.9526367,0.28320312,-0.13623047,0.30517578,-0.24414062,0.0,0.0,0.0,0.0,116.2738,71.416626,-169.89258
1765589522876,-0.9526367,0.28320312,-0.13623047,0.30517578,-0.24414062,0.0,0.0,0.0,0.0,116.22986,71.42761,-169.96948
1765589522965,-0.9526367,0.28173828,-0.1328125,-0.8544922,0.9765625,-0.30517578,0.0,0.0,0.0,116.22986,71.42761,-169.96948
1765589522976,-0.9526367,0.28173828,-0.1328125,-0.8544922,0.9765625,-0.30517578,0.0,0.0,0.0,116.28479,71.416626,-169.90906
1765589523064,-0.9536133,0.28466797,-0.13671875,-0.24414062,0.4272461,0.0,0.0,0.0,0.0,116.28479,71.416626,-169.90906
1765589523076,-0.9536133,0.28466797,-0.13671875,-0.24414062,0.4272461,0.0,0.0,0.0,0.0,116.29578,71.42212,-169.90906
1765589523164,-0.9506836,0.2836914,-0.13720703,0.30517578,0.8544922,0.0,0.0,0.0,0.0,116.29578,71.42212,-169.90906
1765589523176,-0.9506836,0.2836914,-0.13720703,0.30517578,0.8544922,0.0,0.0,0.0,0.0,116.42761,71.40015,-169.80469
1765589523264,-0.953125,0.28466797,-0.13574219,-0.30517578,1.2817383,-0.30517578,0.0,0.0,0.0,116.42761,71.40015,-169.80469
1765589523275,-0.953125,0.28466797,-0.13574219,-0.30517578,1.2817383,-0.30517578,0.0,0.0,0.0,116.61987,71.38367,-169.6344
1765589523363,-0.9511719,0.2841797,-0.13623047,0.79345703,0.0,0.24414062,0.0,0.0,0.0,116.61987,71.38367,-169.6344
1765589523375,-0.9511719,0.2841797,-0.13623047,0.79345703,0.0,0.24414062,0.0,0.0,0.0,116.795654,71.3562,-169.4751
1765589523463,-0.94970703,0.28466797,-0.14111328,0.0,1.0375977,0.0,0.0,0.0,0.0,116.795654,71.3562,-169.4751
1765589523474,-0.94970703,0.28466797,-0.14111328,0.0,1.0375977,0.0,0.0,0.0,0.0,116.93848,71.328735,-169.35425
1765589523563,-0.94970703,0.28320312,-0.1430664,0.12207031,0.30517578,0.24414062,0.0,0.0,0.0,116.93848,71.328735,-169.35425
1765589523574,-0.94970703,0.28320312,-0.1430664,0.12207031,0.30517578,0.24414062,0.0,0.0,0.0,117.04285,71.29578,-169.27185
1765589523663,-0.9506836,0.28564453,-0.14160156,0.12207031,-0.061035156,0.24414062,0.0,0.0,0.0,117.04285,71.29578,-169.27185
1765589523674,-0.9506836,0.28564453,-0.14160156,0.12207031,-0.061035156,0.24414062,0.0,0.0,0.0,117.03186,71.2793,-169.3158
1765589523763,-0.9506836,0.2866211,-0.14453125,-0.24414062,-0.36621094,0.12207031,0.0,0.0,0.0,117.03186,71.2793,-169.3158
1765589523774,-0.9506836,0.2866211,-0.14453125,-0.24414062,-0.36621094,0.12207031,0.0,0.0,0.0,116.916504,71.2738,-169.44214
1765589523862,-0.95214844,0.28564453,-0.14453125,-0.12207031,-0.48828125,0.12207031,0.0,0.0,0.0,116.916504,71.2738,-169.44214
1765589523874,-0.95214844,0.28564453,-0.14453125,-0.12207031,-0.48828125,0.12207031,0.0,0.0,0.0,116.84509,71.26831,-169.51355
1765589523962,-0.94970703,0.2841797,-0.14355469,0.30517578,-0.48828125,0.061035156,0.0,0.0,0.0,116.84509,71.26831,-169.51355
1765589523973,-0.94970703,0.2841797,-0.14355469,0.30517578,-0.48828125,0.061035156,0.0,0.0,0.0,116.762695,71.2793,-169.60693
1765589524061,-0.95214844,0.28222656,-0.13671875,-0.18310547,-0.061035156,0.0,0.0,0.0,0.0,116.762695,71.2793,-169.60693
1765589524073,-0.95214844,0.28222656,-0.13671875,-0.18310547,-0.061035156,0.0,0.0,0.0,0.0,116.81213,71.26282,-169.53552
1765589524161,-0.95214844,0.28857422,-0.13964844,-0.24414062,-0.061035156,-0.12207031,0.0,0.0,0.0,116.81213,71.26282,-169.53552
1765589524173,-0.95214844,0.28857422,-0.13964844,-0.24414062,-0.061035156,-0.12207031,0.0,0.0,0.0,116.72974,71.26831,-169.65637
1765589524261,-0.9472656,0.2841797,-0.14257812,-0.18310547,0.061035156,0.0,0.0,0.0,0.0,116.72974,71.26831,-169.65637
1765589524272,-0.9472656,0.2841797,-0.14257812,-0.18310547,0.061035156,0.0,0.0,0.0,0.0,116.71875,71.26831,-169.6399
1765589524361,-0.95458984,0.2861328,-0.13623047,-0.12207031,0.4272461,-0.061035156,0.0,0.0,0.0,116.71875,71.26831,-169.6399
1765589524372,-0.95458984,0.2861328,-0.13623047,-0.12207031,0.4272461,-0.061035156,0.0,0.0,0.0,116.81763,71.25183,-169.51904
1765589524460,-0.9506836,0.28710938,-0.14208984,-0.18310547,0.36621094,0.0,0.0,0.0,0.0,116.81763,71.25183,-169.51904
1765589524472,-0.9506836,0.28710938,-0.14208984,-0.18310547,0.36621094,0.0,0.0,0.0,0.0,116.78467,71.240845,-169.57397
1765589524560,-0.94921875,0.28710938,-0.14404297,-0.91552734,0.0,-0.30517578,0.0,0.0,0.0,116.78467,71.240845,-169.57397
1765589524573,-0.94921875,0.28710938,-0.14404297,-0.91552734,0.0,-0.30517578,0.0,0.0,0.0,116.762695,71.257324,-169.53003
1765589524660,-0.9511719,0.28466797,-0.140625,-0.8544922,0.12207031,0.0,0.0,0.0,0.0,116.762695,71.257324,-169.53003
1765589524671,-0.9511719,0.28466797,-0.140625,-0.8544922,0.12207031,0.0,0.0,0.0,0.0,116.75171,71.25183,-169.45862
1765589524759,-0.9501953,0.2841797,-0.13720703,-0.48828125,-0.30517578,-0.12207031,0.0,0.0,0.0,116.75171,71.25183,-169.45862
1765589524771,-0.9501953,0.2841797,-0.13720703,-0.48828125,-0.30517578,-0.12207031,0.0,0.0,0.0,116.674805,71.26831,-169.48059
1765589524859,-0.9526367,0.2866211,-0.13623047,-0.36621094,-0.9765625,0.061035156,0.0,0.0,0.0,116.674805,71.26831,-169.48059
1765589524871,-0.9526367,0.2866211,-0.13623047,-0.36621094,-0.9765625,0.061035156,0.0,0.0,0.0,116.44409,71.29578,-169.67834
1765589524959,-0.9501953,0.28759766,-0.1381836,-0.4272461,-1.7089844,0.4272461,0.0,0.0,0.0,116.44409,71.29578,-169.67834
1765589524970,-0.9501953,0.28759766,-0.1381836,-0.4272461,-1.7089844,0.4272461,0.0,0.0,0.0,116.08154,71.32324,-170.05188
1765589525059,-0.9526367,0.28759766,-0.13085938,-1.0986328,1.2207031,-0.18310547,0.0,0.0,0.0,116.08154,71.32324,-170.05188
1765589525070,-0.9526367,0.28759766,-0.13085938,-1.0986328,1.2207031,-0.18310547,0.0,0.0,0.0,115.80139,71.35071,-170.31555
1765589525158,-0.9458008,0.28955078,-0.13574219,0.0,-1.953125,0.0,0.0,0.0,0.0,115.80139,71.35071,-170.31555
1765589525170,-0.9458008,0.28955078,-0.13574219,0.0,-1.953125,0.0,0.0,0.0,0.0,115.57617,71.40015,-170.54077
1765589525258,-0.94384766,0.28125,-0.12646484,0.4272461,-1.5869141,0.91552734,0.0,0.0,0.0,115.57617,71.40015,-170.54077
1765589525270,-0.94384766,0.28125,-0.12646484,0.4272461,-1.5869141,0.91552734,0.0,0.0,0.0,115.13672,71.4386,-171.00769
1765589525358,-0.94921875,0.27929688,-0.119140625,2.0751953,1.2817383,0.79345703,0.0,0.0,0.0,115.13672,71.4386,-171.00769
1765589525369,-0.94921875,0.27929688,-0.119140625,2.0751953,1.2817383,0.79345703,0.0,0.0,0.0,115.19714,71.345215,-171.06812
1765589525458,-0.9501953,0.2944336,-0.13232422,2.0141602,-0.48828125,0.9765625,0.0,0.0,0.0,115.19714,71.345215,-171.06812
1765589525469,-0.9501953,0.2944336,-0.13232422,2.0141602,-0.48828125,0.9765625,0.0,0.0,0.0,115.22461,71.2738,-171.26587
1765589525557,-0.9589844,0.29882812,-0.13623047,-0.30517578,1.0375977,-0.18310547,0.0,0.0,0.0,115.22461,71.2738,-171.26587
1765589525569,-0.9589844,0.29882812,-0.13623047,-0.30517578,1.0375977,-0.18310547,0.0,0.0,0.0,115.27954,71.257324,-171.28784
1765589525657,-0.94873047,0.296875,-0.13916016,-0.7324219,0.4272461,-0.30517578,0.0,0.0,0.0,115.27954,71.257324,-171.28784
1765589525669,-0.94873047,0.296875,-0.13916016,-0.7324219,0.4272461,-0.30517578,0.0,0.0,0.0,115.43884,71.224365,-171.12305
1765589525757,-0.9506836,0.28857422,-0.13183594,-0.36621094,-0.91552734,0.0,0.0,0.0,0.0,115.43884,71.224365,-171.12305
1765589525768,-0.9506836,0.28857422,-0.13183594,-0.36621094,-0.91552734,0.0,0.0,0.0,0.0,115.36743,71.240845,-171.12854
1765589525856,-0.9482422,0.28710938,-0.13183594,-0.7324219,-0.12207031,-0.48828125,0.0,0.0,0.0,115.36743,71.240845,-171.12854
1765589525868,-0.9482422,0.28710938,-0.13183594,-0.7324219,-0.12207031,-0.48828125,0.0,0.0,0.0,115.20264,71.2793,-171.2439
1765589525956,-0.95166016,0.28271484,-0.12890625,0.48828125,-1.0375977,0.24414062,0.0,0.0,0.0,115.20264,71.2793,-171.2439
1765589525968,-0.95166016,0.28271484,-0.12890625,0.48828125,-1.0375977,0.24414062,0.0,0.0,0.0,115.114746,71.312256,-171.27686
1765589526056,-0.9511719,0.28955078,-0.13427734,0.6713867,-0.91552734,0.48828125,0.0,0.0,0.0,115.114746,71.312256,-171.27686
1765589526067,-0.9511719,0.28955078,-0.13427734,0.6713867,-0.91552734,0.48828125,0.0,0.0,0.0,114.91699,71.312256,-171.54053
1765589526156,-0.94921875,0.296875,-0.12988281,-0.5493164,1.159668,-0.91552734,0.0,0.0,0.0,114.91699,71.312256,-171.54053
1765589526167,-0.94921875,0.296875,-0.12988281,-0.5493164,1.159668,-0.91552734,0.0,0.0,0.0,115.08728,71.29028,-171.36475
1765589526256,-0.9584961,0.28125,-0.13427734,-1.8920898,-0.18310547,-0.9765625,0.0,0.0,0.0,115.08728,71.29028,-171.36475
1765589526267,-0.9584961,0.28125,-0.13427734,-1.8920898,-0.18310547,-0.9765625,0.0,0.0,0.0,115.0708,71.361694,-171.18347
1765589526355,-0.94628906,0.28515625,-0.1381836,-0.6713867,-1.3427734,-0.24414062,0.0,0.0,0.0,115.0708,71.361694,-171.18347
1765589526367,-0.94628906,0.28515625,-0.1381836,-0.6713867,-1.3427734,-0.24414062,0.0,0.0,0.0,114.76318,71.45508,-171.49658
1765589526455,-0.9526367,0.28759766,-0.1171875,0.0,0.79345703,0.18310547,0.0,0.0,0.0,114.76318,71.45508,-171.49658
1765589526466,-0.9526367,0.28759766,-0.1171875,0.0,0.79345703,0.18310547,0.0,0.0,0.0,114.62036,71.47705,-171.66687
1765589526554,-0.94970703,0.2890625,-0.123046875,0.0,-1.2207031,-0.12207031,0.0,0.0,0.0,114.62036,71.47705,-171.66687
1765589526566,-0.94970703,0.2890625,-0.123046875,0.0,-1.2207031,-0.12207031,0.0,0.0,0.0,114.488525,71.5155,-171.79321
1765589526654,-0.9550781,0.2866211,-0.123046875,1.5258789,-0.5493164,1.0986328,0.0,0.0,0.0,114.488525,71.5155,-171.79321
1765589526666,-0.9550781,0.2866211,-0.123046875,1.5258789,-0.5493164,1.0986328,0.0,0.0,0.0,114.296265,71.48804,-172.0459
1765589526754,-0.95410156,0.2890625,-0.12646484,1.4038086,-0.18310547,0.9765625,0.0,0.0,0.0,114.296265,71.48804,-172.0459
1765589526780,-0.95410156,0.2890625,-0.12646484,1.4038086,-0.18310547,0.9765625,0.0,0.0,0.0,114.312744,71.40015,-172.17773
1765589526854,-0.9555664,0.28808594,-0.12646484,-0.24414062,0.36621094,1.0986328,0.0,0.0,0.0,114.312744,71.40015,-172.17773
1765589526866,-0.9555664,0.28808594,-0.12646484,-0.24414062,0.36621094,1.0986328,0.0,0.0,0.0,114.07654,71.33972,-172.45789
1765589526954,-0.94628906,0.29296875,-0.12597656,1.8920898,-0.12207031,0.6713867,0.0,0.0,0.0,114.07654,71.33972,-172.45789
1765589526965,-0.94628906,0.29296875,-0.12597656,1.8920898,-0.12207031,0.6713867,0.0,0.0,0.0,113.97766,71.257324,-172.63367
1765589527053,-0.9477539,0.29833984,-0.125,0.061035156,0.5493164,-0.061035156,0.0,0.0,0.0,113.97766,71.257324,-172.63367
1765589527065,-0.9477539,0.29833984,-0.125,0.061035156,0.5493164,-0.061035156,0.0,0.0,0.0,114.16992,71.20239,-172.50183
1765589527153,-0.9511719,0.2919922,-0.13378906,0.5493164,0.91552734,0.0,0.0,0.0,0.0,114.16992,71.20239,-172.50183
1765589527164,-0.9511719,0.2919922,-0.13378906,0.5493164,0.91552734,0.0,0.0,0.0,0.0,114.42261,71.15845,-172.22168
1765589527253,-0.9477539,0.29101562,-0.13134766,0.5493164,0.12207031,0.18310547,0.0,0.0,0.0,114.42261,71.15845,-172.22168
1765589527264,-0.9477539,0.29101562,-0.13134766,0.5493164,0.12207031,0.18310547,0.0,0.0,0.0,114.72473,71.09253,-171.91956
1765589527352,-0.95214844,0.28955078,-0.12841797,-0.5493164,0.8544922,-0.61035156,0.0,0.0,0.0,114.72473,71.09253,-171.91956
1765589527364,-0.95214844,0.28955078,-0.12841797,-0.5493164,0.8544922,-0.61035156,0.0,0.0,0.0,114.94446,71.103516,-171.62292
1765589527452,-0.9526367,0.29296875,-0.13964844,0.061035156,0.79345703,-0.12207031,0.0,0.0,0.0,114.94446,71.103516,-171.62292
1765589527464,-0.9526367,0.29296875,-0.13964844,0.061035156,0.79345703,-0.12207031,0.0,0.0,0.0,115.14221,71.09253,-171.39221
1765589527552,-0.95166016,0.29101562,-0.13476562,-1.5258789,0.0,-1.2817383,0.0,0.0,0.0,115.14221,71.09253,-171.39221
1765589527563,-0.95166016,0.29101562,-0.13476562,-1.5258789,0.0,-1.2817383,0.0,0.0,0.0,115.252075,71.10901,-171.16699
1765589527651,-0.953125,0.2993164,-0.13476562,1.4648438,-1.3427734,1.4038086,0.0,0.0,0.0,115.252075,71.10901,-171.16699
1765589527663,-0.953125,0.2993164,-0.13476562,1.4648438,-1.3427734,1.4038086,0.0,0.0,0.0,115.17517,71.16943,-171.26038
1765589527751,-0.9506836,0.29003906,-0.13720703,-0.12207031,0.0,1.0986328,0.0,0.0,0.0,115.17517,71.16943,-171.26038
1765589527763,-0.9506836,0.29003906,-0.13720703,-0.12207031,0.0,1.0986328,0.0,0.0,0.0,114.84558,71.07605,-171.66687
1765589527851,-0.94921875,0.28955078,-0.12792969,-0.6713867,-0.24414062,-0.061035156,0.0,0.0,0.0,114.84558,71.07605,-171.66687
1765589527862,-0.94921875,0.28955078,-0.12792969,-0.6713867,-0.24414062,-0.061035156,0.0,0.0,0.0,114.87854,71.00464,-171.61743
1765589527951,-0.9555664,0.29296875,-0.12939453,-0.061035156,-0.8544922,0.61035156,0.0,0.0,0.0,114.87854,71.00464,-171.61743
1765589527962,-0.9555664,0.29296875,-0.12939453,-0.061035156,-0.8544922,0.61035156,0.0,0.0,0.0,114.6698,71.02661,-171.79321
1765589528050,-0.94677734,0.2944336,-0.13330078,-0.79345703,-0.91552734,-0.12207031,0.0,0.0,0.0,114.6698,71.02661,-171.79321
1765589528062,-0.94677734,0.2944336,-0.13330078,-0.79345703,-0.91552734,-0.12207031,0.0,0.0,0.0,114.35669,71.05408,-172.08435
1765589528150,-0.9458008,0.29882812,-0.12841797,-1.2207031,0.0,-0.7324219,0.0,0.0,0.0,114.35669,71.05408,-172.08435
1765589528162,-0.9458008,0.29882812,-0.12841797,-1.2207031,0.0,-0.7324219,0.0,0.0,0.0,114.23584,71.09802,-172.10083
1765589528250,-0.9423828,0.296875,-0.11816406,1.3427734,1.0986328,0.30517578,0.0,0.0,0.0,114.23584,71.09802,-172.10083
1765589528261,-0.9423828,0.296875,-0.11816406,1.3427734,1.0986328,0.30517578,0.0,0.0,0.0,114.37866,71.1145,-171.97449
1765589528349,-0.9477539,0.3017578,-0.1381836,-1.6479492,0.8544922,0.6713867,0.0,0.0,0.0,114.37866,71.1145,-171.97449
1765589528361,-0.9477539,0.3017578,-0.1381836,-1.6479492,0.8544922,0.6713867,0.0,0.0,0.0,114.37866,70.96619,-172.01843
1765589528449,-0.94677734,0.27685547,-0.12109375,-0.061035156,0.30517578,-0.24414062,0.0,0.0,0.0,114.37866,70.96619,-172.01843
1765589528461,-0.94677734,0.27685547,-0.12109375,-0.061035156,0.30517578,-0.24414062,0.0,0.0,0.0,114.63135,70.92224,-171.5625
1765589528549,-0.95410156,0.29589844,-0.12890625,-1.4038086,0.61035156,-2.0141602,0.0,0.0,0.0,114.63135,70.92224,-171.5625
1765589528560,-0.95410156,0.29589844,-0.12890625,-1.4038086,0.61035156,-2.0141602,0.0,0.0,0.0,114.642334,71.048584,-171.54053
1765589528649,-0.9394531,0.2939453,-0.140625,0.6713867,-0.061035156,-0.30517578,0.0,0.0,0.0,114.642334,71.048584,-171.54053
1765589528660,-0.9394531,0.2939453,-0.140625,0.6713867,-0.061035156,-0.30517578,0.0,0.0,0.0,114.54895,71.17493,-171.66138
1765589528748,-0.96191406,0.2944336,-0.12158203,0.79345703,-0.5493164,0.0,0.0,0.0,0.0,114.54895,71.17493,-171.66138
1765589528760,-0.96191406,0.2944336,-0.12158203,0.79345703,-0.5493164,0.0,0.0,0.0,0.0,114.906006,71.152954,-171.26038
1765589528848,-0.9453125,0.29492188,-0.13330078,-0.061035156,-0.12207031,0.0,0.0,0.0,0.0,114.906006,71.152954,-171.26038
1765589528860,-0.9453125,0.29492188,-0.13330078,-0.061035156,-0.12207031,0.0,0.0,0.0,0.0,114.54895,71.14746,-171.76025
1765589528948,-0.94921875,0.29101562,-0.13085938,-0.4272461,0.30517578,0.0,0.0,0.0,0.0,114.54895,71.14746,-171.76025
1765589528960,-0.94921875,0.29101562,-0.13085938,-0.4272461,0.30517578,0.0,0.0,0.0,0.0,114.59839,71.14197,-171.68335
1765589529047,-0.95166016,0.28857422,-0.12988281,-1.0375977,0.24414062,-0.30517578,0.0,0.0,0.0,114.59839,71.14197,-171.68335
1765589529059,-0.95166016,0.28857422,-0.12988281,-1.0375977,0.24414062,-0.30517578,0.0,0.0,0.0,114.713745,71.152954,-171.46912
1765589529147,-0.9501953,0.2944336,-0.13476562,1.4038086,-0.4272461,0.24414062,0.0,0.0,0.0,114.713745,71.152954,-171.46912
1765589529159,-0.9501953,0.2944336,-0.13476562,1.4038086,-0.4272461,0.24414062,0.0,0.0,0.0,114.697266,71.15845,-171.52954
1765589529247,-0.9477539,0.2915039,-0.13183594,-0.12207031,0.18310547,0.6713867,0.0,0.0,0.0,114.697266,71.15845,-171.52954
1765589529259,-0.9477539,0.2915039,-0.13183594,-0.12207031,0.18310547,0.6713867,0.0,0.0,0.0,114.80713,71.08154,-171.44714
1765589529347,-0.9511719,0.29101562,-0.13134766,-0.8544922,0.18310547,0.061035156,0.0,0.0,0.0,114.80713,71.08154,-171.44714
1765589529358,-0.9511719,0.29101562,-0.13134766,-0.8544922,0.18310547,0.061035156,0.0,0.0,0.0,114.70825,71.04309,-171.49109
1765589529446,-0.9501953,0.2939453,-0.13232422,-1.2207031,0.30517578,-0.18310547,0.0,0.0,0.0,114.70825,71.04309,-171.49109
1765589529458,-0.9501953,0.2939453,-0.13232422,-1.2207031,0.30517578,-0.18310547,0.0,0.0,0.0,114.6698,71.0376,-171.46362
1765589529546,-0.95166016,0.2915039,-0.1274414,-0.7324219,0.48828125,0.0,0.0,0.0,0.0,114.6698,71.0376,-171.46362
1765589529558,-0.95166016,0.2915039,-0.1274414,-0.7324219,0.48828125,0.0,0.0,0.0,0.0,114.71924,71.02661,-171.28235
1765589529646,-0.9472656,0.2993164,-0.13427734,-0.48828125,-0.18310547,0.061035156,0.0,0.0,0.0,114.71924,71.02661,-171.28235
1765589529657,-0.9472656,0.2993164,-0.13427734,-0.48828125,-0.18310547,0.061035156,0.0,0.0,0.0,114.63135,71.02112,-171.34827
1765589529746,-0.9501953,0.28955078,-0.12988281,-0.18310547,-0.48828125,0.0,0.0,0.0,0.0,114.63135,71.02112,-171.34827
1765589529757,-0.9501953,0.28955078,-0.12988281,-0.18310547,-0.48828125,0.0,0.0,0.0,0.0,114.609375,71.01013,-171.30981
1765589529845,-0.9399414,0.2944336,-0.12695312,0.30517578,0.6713867,-0.8544922,0.0,0.0,0.0,114.609375,71.01013,-171.30981
1765589529857,-0.9399414,0.2944336,-0.12695312,0.30517578,0.6713867,-0.8544922,0.0,0.0,0.0,114.72473,71.032104,-171.22742
1765589529945,-0.9555664,0.29736328,-0.12792969,-1.3427734,0.12207031,-2.4414062,0.0,0.0,0.0,114.72473,71.032104,-171.22742
1765589529956,-0.9555664,0.29736328,-0.12792969,-1.3427734,0.12207031,-2.4414062,0.0,0.0,0.0,115.12573,71.18591,-170.74402
1765589530045,-0.9448242,0.28564453,-0.13769531,1.4038086,-0.6713867,0.79345703,0.0,0.0,0.0,115.12573,71.18591,-170.74402
1765589530057,-0.9448242,0.28564453,-0.13769531,1.4038086,-0.6713867,0.79345703,0.0,0.0,0.0,115.01587,71.240845,-170.95825
1765589530144,-0.9555664,0.27978516,-0.13574219,1.8310547,0.0,0.18310547,0.0,0.0,0.0,115.01587,71.240845,-170.95825
1765589530156,-0.9555664,0.27978516,-0.13574219,1.8310547,0.0,0.18310547,0.0,0.0,0.0,115.12024,71.1969,-171.00769
1765589530244,-0.9550781,0.28466797,-0.12841797,0.18310547,0.30517578,0.12207031,0.0,0.0,0.0,115.12024,71.1969,-171.00769
1765589530256,-0.9550781,0.28466797,-0.12841797,0.18310547,0.30517578,0.12207031,0.0,0.0,0.0,115.3949,71.18042,-170.79346
1765589530344,-0.9501953,0.29541016,-0.13720703,0.6713867,-0.61035156,-0.24414062,0.0,0.0,0.0,115.3949,71.18042,-170.79346
1765589530355,-0.9501953,0.29541016,-0.13720703,0.6713867,-0.61035156,-0.24414062,0.0,0.0,0.0,115.21362,71.1969,-171.11206
1765589530444,-0.9477539,0.29052734,-0.13378906,-0.24414062,-0.12207031,0.061035156,0.0,0.0,0.0,115.21362,71.1969,-171.11206
1765589530455,-0.9477539,0.29052734,-0.13378906,-0.24414062,-0.12207031,0.061035156,0.0,0.0,0.0,115.147705,71.21338,-171.19995
1765589530543,-0.9526367,0.28759766,-0.12695312,-1.0375977,0.4272461,0.12207031,0.0,0.0,0.0,115.147705,71.21338,-171.19995
1765589530555,-0.9526367,0.28759766,-0.12695312,-1.0375977,0.4272461,0.12207031,0.0,0.0,0.0,115.10376,71.1969,-171.17798
1765589530643,-0.95166016,0.29052734,-0.13232422,-0.061035156,0.061035156,0.061035156,0.0,0.0,0.0,115.10376,71.1969,-171.17798
1765589530655,-0.95166016,0.29052734,-0.13232422,-0.061035156,0.061035156,0.061035156,0.0,0.0,0.0,114.9939,71.18042,-171.3208
1765589530743,-0.9506836,0.28955078,-0.13330078,0.0,0.36621094,0.0,0.0,0.0,0.0,114.9939,71.18042,-171.3208
1765589530754,-0.9506836,0.28955078,-0.13330078,0.0,0.36621094,0.0,0.0,0.0,0.0,115.043335,71.18591,-171.26587
1765589530842,-0.9526367,0.29101562,-0.13378906,-0.12207031,0.061035156,0.24414062,0.0,0.0,0.0,115.043335,71.18591,-171.26587
1765589530854,-0.9526367,0.29101562,-0.13378906,-0.12207031,0.061035156,0.24414062,0.0,0.0,0.0,115.10376,71.16394,-171.19995
1765589530943,-0.94970703,0.29345703,-0.1328125,0.12207031,-0.48828125,0.12207031,0.0,0.0,0.0,115.10376,71.16394,-171.19995
1765589530954,-0.94970703,0.29345703,-0.1328125,0.12207031,-0.48828125,0.12207031,0.0,0.0,0.0,115.026855,71.14746,-171.30432
1765589531042,-0.95410156,0.2915039,-0.12988281,-0.30517578,0.12207031,0.0,0.0,0.0,0.0,115.026855,71.14746,-171.30432
1765589531053,-0.95410156,0.2915039,-0.12988281,-0.30517578,0.12207031,0.0,0.0,0.0,0.0,114.955444,71.15845,-171.36475
1765589531142,-0.9506836,0.296875,-0.13183594,-0.12207031,-0.18310547,-0.061035156,0.0,0.0,0.0,114.955444,71.15845,-171.36475
1765589531153,-0.9506836,0.296875,-0.13183594,-0.12207031,-0.18310547,-0.061035156,0.0,0.0,0.0,114.87305,71.16394,-171.4856
1765589531241,-0.9550781,0.2939453,-0.12939453,-0.79345703,0.79345703,-0.061035156,0.0,0.0,0.0,114.87305,71.16394,-171.4856
1765589531253,-0.9550781,0.2939453,-0.12939453,-0.79345703,0.79345703,-0.061035156,0.0,0.0,0.0,114.79614,71.16943,-171.54602
1765589531341,-0.94921875,0.2915039,-0.13232422,0.91552734,0.0,0.0,0.0,0.0,0.0,114.79614,71.16943,-171.54602
1765589531353,-0.94921875,0.2915039,-0.13232422,0.91552734,0.0,0.0,0.0,0.0,0.0,114.82361,71.15845,-171.52405
1765589531441,-0.95166016,0.29638672,-0.13183594,2.5634766,1.2207031,0.9765625,0.0,0.0,0.0,114.82361,71.15845,-171.52405
1765589531452,-0.95166016,0.29638672,-0.13183594,2.5634766,1.2207031,0.9765625,0.0,0.0,0.0,114.96094,71.1145,-171.568
1765589531540,-0.94091797,0.29833984,-0.1381836,1.8920898,0.6713867,1.0375977,0.0,0.0,0.0,114.96094,71.1145,-171.568
1765589531552,-0.94091797,0.29833984,-0.1381836,1.8920898,0.6713867,1.0375977,0.0,0.0,0.0,115.29053,70.96619,-171.40869
1765589531640,-0.95654297,0.29345703,-0.13427734,0.61035156,0.061035156,0.4272461,0.0,0.0,0.0,115.29053,70.96619,-171.40869
1765589531652,-0.95654297,0.29345703,-0.13427734,0.61035156,0.061035156,0.4272461,0.0,0.0,0.0,115.581665,70.86182,-171.156
1765589531740,-0.9482422,0.29052734,-0.13916016,0.61035156,-0.91552734,-0.5493164,0.0,0.0,0.0,115.581665,70.86182,-171.156
1765589531752,-0.9482422,0.29052734,-0.13916016,0.61035156,-0.91552734,-0.5493164,0.0,0.0,0.0,115.493774,70.8728,-171.26038
1765589531840,-0.94433594,0.29785156,-0.13916016,-0.18310547,0.18310547,-0.30517578,0.0,0.0,0.0,115.493774,70.8728,-171.26038
1765589531851,-0.94433594,0.29785156,-0.13916016,-0.18310547,0.18310547,-0.30517578,0.0,0.0,0.0,115.548706,70.93323,-171.24939
1765589531939,-0.953125,0.29882812,-0.13720703,0.30517578,-1.159668,0.48828125,0.0,0.0,0.0,115.548706,70.93323,-171.24939
1765589531951,-0.953125,0.29882812,-0.13720703,0.30517578,-1.159668,0.48828125,0.0,0.0,0.0,115.493774,70.94971,-171.29333
1765589532039,-0.94873047,0.28759766,-0.1352539,-0.48828125,-0.61035156,-0.79345703,0.0,0.0,0.0,115.493774,70.94971,-171.29333
1765589532051,-0.94873047,0.28759766,-0.1352539,-0.48828125,-0.61035156,-0.79345703,0.0,0.0,0.0,115.3125,70.999146,-171.42517
1765589532139,-0.9584961,0.29296875,-0.13427734,-0.24414062,-0.8544922,0.91552734,0.0,0.0,0.0,115.3125,70.999146,-171.42517
1765589532150,-0.9584961,0.29296875,-0.13427734,-0.24414062,-0.8544922,0.91552734,0.0,0.0,0.0,115.1532,70.982666,-171.61194
1765589532239,-0.94921875,0.28320312,-0.12548828,-1.8310547,-1.2817383,-0.30517578,0.0,0.0,0.0,115.1532,70.982666,-171.61194
1765589532250,-0.94921875,0.28320312,-0.12548828,-1.8310547,-1.2817383,-0.30517578,0.0,0.0,0.0,114.625854,71.01013,-172.01294
1765589532338,-0.94970703,0.2685547,-0.13134766,1.5258789,0.6713867,-2.319336,0.0,0.0,0.0,114.625854,71.01013,-172.01294
1765589532350,-0.94970703,0.2685547,-0.13134766,1.5258789,0.6713867,-2.319336,0.0,0.0,0.0,115.235596,71.14746,-171.14502
1765589532438,-0.9511719,0.30029297,-0.1328125,-0.48828125,1.7089844,-1.2817383,0.0,0.0,0.0,115.235596,71.14746,-171.14502
1765589532450,-0.9511719,0.30029297,-0.1328125,-0.48828125,1.7089844,-1.2817383,0.0,0.0,0.0,115.4718,71.312256,-171.04614
1765589532538,-0.93847656,0.2944336,-0.13964844,3.3569336,0.12207031,-0.48828125,0.0,0.0,0.0,115.4718,71.312256,-171.04614
1765589532550,-0.93847656,0.2944336,-0.13964844,3.3569336,0.12207031,-0.48828125,0.0,0.0,0.0,116.18042,71.257324,-170.59021
1765589532637,-0.9536133,0.28710938,-0.14355469,-1.5869141,1.2817383,-1.0375977,0.0,0.0,0.0,116.18042,71.257324,-170.59021
1765589532649,-0.9536133,0.28710938,-0.14355469,-1.5869141,1.2817383,-1.0375977,0.0,0.0,0.0,116.240845,71.33423,-170.4419
1765589532737,-0.9394531,0.28320312,-0.14355469,2.1362305,2.746582,-0.61035156,0.0,0.0,0.0,116.240845,71.33423,-170.4419
1765589532749,-0.9394531,0.28320312,-0.14355469,2.1362305,2.746582,-0.61035156,0.0,0.0,0.0,117.388916,71.29578,-169.32678
1765589532837,-0.9614258,0.30322266,-0.14404297,-1.5258789,-2.319336,-1.2817383,0.0,0.0,0.0,117.388916,71.29578,-169.32678
1765589532848,-0.9614258,0.30322266,-0.14404297,-1.5258789,-2.319336,-1.2817383,0.0,0.0,0.0,117.30652,71.35071,-169.42566
1765589532937,-0.94091797,0.25195312,-0.13720703,-0.91552734,-0.8544922,-2.1972656,0.0,0.0,0.0,117.30652,71.35071,-169.42566
1765589532948,-0.94091797,0.25195312,-0.13720703,-0.91552734,-0.8544922,-2.1972656,0.0,0.0,0.0,117.09778,71.45508,-169.37073
1765589533036,-0.9482422,0.2939453,-0.13916016,-2.8076172,1.0986328,-0.5493164,0.0,0.0,0.0,117.09778,71.45508,-169.37073
1765589533048,-0.9482422,0.2939453,-0.13916016,-2.8076172,1.0986328,-0.5493164,0.0,0.0,0.0,116.68579,71.49902,-169.90356
1765589533136,-0.9614258,0.25732422,-0.13476562,-0.79345703,0.0,-1.2817383,0.0,0.0,0.0,116.68579,71.49902,-169.90356
1765589533148,-0.9614258,0.25732422,-0.13476562,-0.79345703,0.0,-1.2817383,0.0,0.0,0.0,116.641846,71.63086,-169.67834
1765589533236,-0.94970703,0.28710938,-0.13183594,1.4648438,-0.48828125,-0.61035156,0.0,0.0,0.0,116.641846,71.63086,-169.67834
1765589533247,-0.94970703,0.28710938,-0.13183594,1.4648438,-0.48828125,-0.61035156,0.0,0.0,0.0,116.70776,71.82861,-169.7168
1765589533335,-0.9604492,0.2705078,-0.1303711,2.1972656,-1.4648438,-0.9765625,0.0,0.0,0.0,116.70776,71.82861,-169.7168
1765589533347,-0.9604492,0.2705078,-0.1303711,2.1972656,-1.4648438,-0.9765625,0.0,0.0,0.0,117.08679,71.93848,-169.3872
1765589533435,-0.9506836,0.30029297,-0.14160156,4.0893555,-0.12207031,3.0517578,0.0,0.0,0.0,117.08679,71.93848,-169.3872
1765589533447,-0.9506836,0.30029297,-0.14160156,4.0893555,-0.12207031,3.0517578,0.0,0.0,0.0,116.762695,71.8396,-170.21667
1765589533535,-0.94873047,0.27246094,-0.14550781,3.7841797,0.12207031,1.8310547,0.0,0.0,0.0,116.762695,71.8396,-170.21667
1765589533546,-0.94873047,0.27246094,-0.14550781,3.7841797,0.12207031,1.8310547,0.0,0.0,0.0,117.1637,71.56494,-170.00244
1765589533635,-0.95996094,0.28564453,-0.1381836,0.061035156,-1.6479492,-0.12207031,0.0,0.0,0.0,117.1637,71.56494,-170.00244
1765589533647,-0.95996094,0.28564453,-0.1381836,0.061035156,-1.6479492,-0.12207031,0.0,0.0,0.0,117.15271,71.52649,-170.18372
1765589533734,-0.9609375,0.27148438,-0.13671875,0.0,-2.5024414,1.2207031,0.0,0.0,0.0,117.15271,71.52649,-170.18372
1765589533746,-0.9609375,0.27148438,-0.13671875,0.0,-2.5024414,1.2207031,0.0,0.0,0.0,116.50452,71.520996,-170.70557
1765589533834,-0.9477539,0.28564453,-0.13330078,2.1972656,0.4272461,0.9765625,0.0,0.0,0.0,116.50452,71.520996,-170.70557
1765589533845,-0.9477539,0.28564453,-0.13330078,2.1972656,0.4272461,0.9765625,0.0,0.0,0.0,116.240845,71.47156,-171.14502
1765589533934,-0.9448242,0.28515625,-0.13476562,0.61035156,0.0,1.0375977,0.0,0.0,0.0,116.240845,71.47156,-171.14502
1765589533945,-0.9448242,0.28515625,-0.13476562,0.61035156,0.0,1.0375977,0.0,0.0,0.0,116.30127,71.36719,-171.156
1765589534033,-0.95410156,0.2841797,-0.13427734,0.48828125,-0.48828125,0.7324219,0.0,0.0,0.0,116.30127,71.36719,-171.156
1765589534045,-0.95410156,0.2841797,-0.13427734,0.48828125,-0.48828125,0.7324219,0.0,0.0,0.0,116.09253,71.29028,-171.37024
1765589534133,-0.9472656,0.2861328,-0.14501953,1.8310547,-0.4272461,0.61035156,0.0,0.0,0.0,116.09253,71.29028,-171.37024
1765589534145,-0.9472656,0.2861328,-0.14501953,1.8310547,-0.4272461,0.61035156,0.0,0.0,0.0,116.01013,71.25183,-171.54602
1765589534233,-0.953125,0.27929688,-0.13867188,0.4272461,2.1362305,-0.061035156,0.0,0.0,0.0,116.01013,71.25183,-171.54602
1765589534244,-0.953125,0.27929688,-0.13867188,0.4272461,2.1362305,-0.061035156,0.0,0.0,0.0,116.57593,71.21338,-170.90332
1765589534333,-0.9448242,0.2866211,-0.13183594,1.7700195,3.2958984,-0.6713867,0.0,0.0,0.0,116.57593,71.21338,-170.90332
1765589534344,-0.9448242,0.2866211,-0.13183594,1.7700195,3.2958984,-0.6713867,0.0,0.0,0.0,117.1582,71.152954,-170.46936
1765589534432,-0.9399414,0.30126953,-0.14990234,3.8452148,2.746582,0.7324219,0.0,0.0,0.0,117.1582,71.152954,-170.46936
1765589534444,-0.9399414,0.30126953,-0.14990234,3.8452148,2.746582,0.7324219,0.0,0.0,0.0,118.24036,71.06506,-169.65637
1765589534532,-0.94677734,0.26757812,-0.15820312,3.0517578,-0.79345703,-0.24414062,0.0,0.0,0.0,118.24036,71.06506,-169.65637
1765589534543,-0.94677734,0.26757812,-0.15820312,3.0517578,-0.79345703,-0.24414062,0.0,0.0,0.0,118.531494,70.93323,-169.42566
1765589534632,-0.95751953,0.29492188,-0.15478516,4.211426,0.5493164,-0.4272461,0.0,0.0,0.0,118.531494,70.93323,-169.42566
1765589534643,-0.95751953,0.29492188,-0.15478516,4.211426,0.5493164,-0.4272461,0.0,0.0,0.0,119.37744,70.96619,-168.86536
1765589534731,-0.9482422,0.28027344,-0.15820312,2.0751953,-2.0141602,-0.6713867,0.0,0.0,0.0,119.37744,70.96619,-168.86536
1765589534743,-0.9482422,0.28027344,-0.15820312,2.0751953,-2.0141602,-0.6713867,0.0,0.0,0.0,119.141235,71.1969,-169.33228
1765589534831,-0.94091797,0.28076172,-0.16796875,-2.380371,2.9296875,-0.7324219,0.0,0.0,0.0,119.141235,71.1969,-169.33228
1765589534843,-0.94091797,0.28076172,-0.16796875,-2.380371,2.9296875,-0.7324219,0.0,0.0,0.0,119.591675,71.08154,-168.83789
1765589534931,-0.9692383,0.2861328,-0.14160156,3.6010742,-6.4697266,1.2817383,0.0,0.0,0.0,119.591675,71.08154,-168.83789
1765589534943,-0.9692383,0.2861328,-0.14160156,3.6010742,-6.4697266,1.2817383,0.0,0.0,0.0,119.124756,71.21887,-169.32129
1765589535031,-0.93652344,0.2866211,-0.16015625,-0.48828125,-0.7324219,0.36621094,0.0,0.0,0.0,119.124756,71.21887,-169.32129
1765589535042,-0.93652344,0.2866211,-0.16015625,-0.48828125,-0.7324219,0.36621094,0.0,0.0,0.0,117.98767,71.28479,-170.72754
1765589535130,-0.9692383,0.24902344,-0.12792969,4.3945312,-4.8217773,0.7324219,0.0,0.0,0.0,117.98767,71.28479,-170.72754
1765589535142,-0.9692383,0.24902344,-0.12792969,4.3945312,-4.8217773,0.7324219,0.0,0.0,0.0,118.2074,71.26831,-170.36499
