timestamp,accX,accY,accZ,gyroX,gyroY,gyroZ,magX,magY,magZ,roll,pitch,yaw
1766498818838,-0.9482422,-0.2783203,0.14208984,-0.61035156,-0.30517578,0.24414062,0.0,0.0,0.0,-63.847046,71.378174,-27.822876
1766498818847,-0.9482422,-0.2783203,0.14208984,-0.61035156,-0.30517578,0.24414062,0.0,0.0,0.0,-63.6438,71.40564,-27.548218
1766498818936,-0.95214844,-0.2763672,0.140625,-0.12207031,-0.12207031,0.18310547,0.0,0.0,0.0,-63.6438,71.40564,-27.548218
1766498818946,-0.95214844,-0.2763672,0.140625,-0.12207031,-0.12207031,0.18310547,0.0,0.0,0.0,-63.479004,71.42761,-27.339478
1766498819034,-0.9482422,-0.2758789,0.1430664,-0.061035156,-0.36621094,0.061035156,0.0,0.0,0.0,-63.479004,71.42761,-27.339478
1766498819046,-0.9482422,-0.2758789,0.1430664,-0.061035156,-0.36621094,0.061035156,0.0,0.0,0.0,-63.341675,71.4386,-27.196655
1766498819134,-0.94970703,-0.27246094,0.15039062,-0.79345703,0.36621094,0.0,0.0,0.0,0.0,-63.341675,71.4386,-27.196655
1766498819145,-0.94970703,-0.27246094,0.15039062,-0.79345703,0.36621094,0.0,0.0,0.0,0.0,-63.14392,71.4386,-26.982422
1766498819237,-0.9511719,-0.2709961,0.15039062,0.6713867,0.30517578,-0.5493164,0.0,0.0,0.0,-63.14392,71.4386,-26.982422
1766498819245,-0.9511719,-0.2709961,0.15039062,0.6713867,0.30517578,-0.5493164,0.0,0.0,0.0,-63.242798,71.42761,-27.191162
1766498819334,-0.9458008,-0.27294922,0.1484375,0.4272461,1.0375977,-0.12207031,0.0,0.0,0.0,-63.242798,71.42761,-27.191162
1766498819345,-0.9458008,-0.27294922,0.1484375,0.4272461,1.0375977,-0.12207031,0.0,0.0,0.0,-62.946167,71.42761,-26.883545
1766498819433,-0.9550781,-0.2763672,0.13916016,0.0,-0.061035156,-0.12207031,0.0,0.0,0.0,-62.946167,71.42761,-26.883545
1766498819445,-0.9550781,-0.2763672,0.13916016,0.0,-0.061035156,-0.12207031,0.0,0.0,0.0,-62.781372,71.41113,-26.779175
1766498819533,-0.9511719,-0.2763672,0.1430664,-0.5493164,-0.7324219,0.30517578,0.0,0.0,0.0,-62.781372,71.41113,-26.779175
1766498819544,-0.9511719,-0.2763672,0.1430664,-0.5493164,-0.7324219,0.30517578,0.0,0.0,0.0,-62.72644,71.42761,-26.746216
1766498819632,-0.9506836,-0.27490234,0.14648438,0.30517578,0.30517578,-0.18310547,0.0,0.0,0.0,-62.72644,71.42761,-26.746216
1766498819644,-0.9506836,-0.27490234,0.14648438,0.30517578,0.30517578,-0.18310547,0.0,0.0,0.0,-62.69348,71.45508,-26.746216
1766498819732,-0.94970703,-0.27441406,0.14453125,0.12207031,-0.24414062,-0.12207031,0.0,0.0,0.0,-62.69348,71.45508,-26.746216
1766498819744,-0.94970703,-0.27441406,0.14453125,0.12207031,-0.24414062,-0.12207031,0.0,0.0,0.0,-62.65503,71.466064,-26.746216
1766498819832,-0.9506836,-0.2734375,0.14501953,0.0,-0.36621094,-0.18310547,0.0,0.0,0.0,-62.65503,71.466064,-26.746216
1766498819844,-0.9506836,-0.2734375,0.14501953,0.0,-0.36621094,-0.18310547,0.0,0.0,0.0,-62.545166,71.4386,-26.674805
1766498819932,-0.95410156,-0.27490234,0.14208984,0.30517578,0.18310547,-0.18310547,0.0,0.0,0.0,-62.545166,71.4386,-26.674805
1766498819943,-0.95410156,-0.27490234,0.14208984,0.30517578,0.18310547,-0.18310547,0.0,0.0,0.0,-62.539673,71.44409,-26.729736
1766498820031,-0.94628906,-0.27197266,0.15283203,0.9765625,0.0,-0.12207031,0.0,0.0,0.0,-62.539673,71.44409,-26.729736
1766498820043,-0.94628906,-0.27197266,0.15283203,0.9765625,0.0,-0.12207031,0.0,0.0,0.0,-62.55066,71.47156,-26.828613
1766498820131,-0.95458984,-0.27685547,0.14013672,0.0,-2.5634766,0.61035156,0.0,0.0,0.0,-62.55066,71.47156,-26.828613
1766498820143,-0.95458984,-0.27685547,0.14013672,0.0,-2.5634766,0.61035156,0.0,0.0,0.0,-62.352905,71.4386,-26.691284
1766498820231,-0.94677734,-0.27392578,0.14648438,0.6713867,-0.18310547,-0.4272461,0.0,0.0,0.0,-62.352905,71.4386,-26.691284
1766498820243,-0.94677734,-0.27392578,0.14648438,0.6713867,-0.18310547,-0.4272461,0.0,0.0,0.0,-62.435303,71.45508,-26.812134
1766498820331,-0.95166016,-0.27246094,0.13964844,0.48828125,1.2207031,-0.79345703,0.0,0.0,0.0,-62.435303,71.45508,-26.812134
1766498820342,-0.95166016,-0.27246094,0.13964844,0.48828125,1.2207031,-0.79345703,0.0,0.0,0.0,-62.682495,71.449585,-27.174683
1766498820430,-0.9526367,-0.27685547,0.13916016,0.30517578,0.5493164,-0.4272461,0.0,0.0,0.0,-62.682495,71.449585,-27.174683
1766498820442,-0.9526367,-0.27685547,0.13916016,0.30517578,0.5493164,-0.4272461,0.0,0.0,0.0,-63.034058,71.466064,-27.625122
1766498820530,-0.94921875,-0.2758789,0.13867188,1.0375977,1.953125,-1.0375977,0.0,0.0,0.0,-63.034058,71.466064,-27.625122
1766498820542,-0.94921875,-0.2758789,0.13867188,1.0375977,1.953125,-1.0375977,0.0,0.0,0.0,-63.583374,71.48804,-28.295288
1766498820630,-0.95214844,-0.2788086,0.13623047,0.48828125,1.2817383,-1.0986328,0.0,0.0,0.0,-63.583374,71.48804,-28.295288
1766498820641,-0.95214844,-0.2788086,0.13623047,0.48828125,1.2817383,-1.0986328,0.0,0.0,0.0,-63.962402,71.46057,-28.723755
1766498820730,-0.9501953,-0.28173828,0.13476562,0.36621094,1.8310547,-1.0375977,0.0,0.0,0.0,-63.962402,71.46057,-28.723755
1766498820741,-0.9501953,-0.28173828,0.13476562,0.36621094,1.8310547,-1.0375977,0.0,0.0,0.0,-64.506226,71.449585,-29.328003
1766498820829,-0.9526367,-0.27978516,0.1303711,0.0,1.0986328,-0.24414062,0.0,0.0,0.0,-64.506226,71.449585,-29.328003
1766498820841,-0.9526367,-0.27978516,0.1303711,0.0,1.0986328,-0.24414062,0.0,0.0,0.0,-64.89624,71.48804,-29.701538
1766498820929,-0.9428711,-0.27734375,0.13720703,1.4648438,2.8076172,-1.4038086,0.0,0.0,0.0,-64.89624,71.48804,-29.701538
1766498820940,-0.9428711,-0.27734375,0.13720703,1.4648438,2.8076172,-1.4038086,0.0,0.0,0.0,-65.3302,71.51001,-30.19043
1766498821029,-0.9511719,-0.27929688,0.12548828,0.061035156,1.5869141,-0.5493164,0.0,0.0,0.0,-65.3302,71.51001,-30.19043
1766498821040,-0.9511719,-0.27929688,0.12548828,0.061035156,1.5869141,-0.5493164,0.0,0.0,0.0,-65.34668,71.49902,-30.17395
1766498821128,-0.95654297,-0.28125,0.12548828,0.30517578,0.48828125,-0.36621094,0.0,0.0,0.0,-65.34668,71.49902,-30.17395
1766498821140,-0.95654297,-0.28125,0.12548828,0.30517578,0.48828125,-0.36621094,0.0,0.0,0.0,-65.62683,71.49902,-30.48706
1766498821228,-0.9453125,-0.2783203,0.13232422,0.5493164,0.36621094,-0.61035156,0.0,0.0,0.0,-65.62683,71.49902,-30.48706
1766498821240,-0.9453125,-0.2783203,0.13232422,0.5493164,0.36621094,-0.61035156,0.0,0.0,0.0,-65.83557,71.49353,-30.701294
1766498821328,-0.9506836,-0.28027344,0.12988281,-0.18310547,-0.24414062,-0.12207031,0.0,0.0,0.0,-65.83557,71.49353,-30.701294
1766498821339,-0.9506836,-0.28027344,0.12988281,-0.18310547,-0.24414062,-0.12207031,0.0,0.0,0.0,-65.736694,71.49353,-30.50354
1766498821428,-0.94873047,-0.28125,0.1303711,-1.5869141,-2.6245117,0.9765625,0.0,0.0,0.0,-65.736694,71.49353,-30.50354
1766498821439,-0.94873047,-0.28125,0.1303711,-1.5869141,-2.6245117,0.9765625,0.0,0.0,0.0,-65.11047,71.47156,-29.696045
1766498821527,-0.9501953,-0.27783203,0.13378906,-0.8544922,-1.953125,0.61035156,0.0,0.0,0.0,-65.11047,71.47156,-29.696045
1766498821539,-0.9501953,-0.27783203,0.13378906,-0.8544922,-1.953125,0.61035156,0.0,0.0,0.0,-64.506226,71.47156,-28.894043
1766498821627,-0.9536133,-0.2783203,0.13427734,-0.48828125,-0.36621094,0.30517578,0.0,0.0,0.0,-64.506226,71.47156,-28.894043
1766498821639,-0.9536133,-0.2783203,0.13427734,-0.48828125,-0.36621094,0.30517578,0.0,0.0,0.0,-64.26453,71.482544,-28.553467
1766498821727,-0.94873047,-0.28125,0.12988281,0.8544922,0.30517578,-0.30517578,0.0,0.0,0.0,-64.26453,71.482544,-28.553467
1766498821738,-0.94873047,-0.28125,0.12988281,0.8544922,0.30517578,-0.30517578,0.0,0.0,0.0,-64.226074,71.51001,-28.45459
1766498821826,-0.95751953,-0.28125,0.12548828,-1.2207031,-3.8452148,1.2207031,0.0,0.0,0.0,-64.226074,71.51001,-28.45459
1766498821838,-0.95751953,-0.28125,0.12548828,-1.2207031,-3.8452148,1.2207031,0.0,0.0,0.0,-63.984375,71.49902,-28.174438
1766498821926,-0.9448242,-0.2783203,0.140625,0.24414062,-1.0986328,0.30517578,0.0,0.0,0.0,-63.984375,71.49902,-28.174438
1766498821938,-0.9448242,-0.2783203,0.140625,0.24414062,-1.0986328,0.30517578,0.0,0.0,0.0,-63.73169,71.52649,-27.877808
1766498822026,-0.95458984,-0.27490234,0.1381836,-0.30517578,-0.18310547,-0.12207031,0.0,0.0,0.0,-63.73169,71.52649,-27.877808
1766498822038,-0.95458984,-0.27490234,0.1381836,-0.30517578,-0.18310547,-0.12207031,0.0,0.0,0.0,-63.44055,71.50452,-27.55371
1766498822126,-0.9536133,-0.27685547,0.13623047,-0.91552734,-1.7700195,0.5493164,0.0,0.0,0.0,-63.44055,71.50452,-27.55371
1766498822137,-0.9536133,-0.27685547,0.13623047,-0.91552734,-1.7700195,0.5493164,0.0,0.0,0.0,-63.33618,71.49353,-27.416382
1766498822225,-0.94921875,-0.27392578,0.14501953,0.18310547,-0.12207031,0.0,0.0,0.0,0.0,-63.33618,71.49353,-27.416382
1766498822237,-0.94921875,-0.27392578,0.14501953,0.18310547,-0.12207031,0.0,0.0,0.0,0.0,-63.253784,71.50452,-27.306519
1766498822325,-0.95166016,-0.27539062,0.14111328,-0.6713867,-0.79345703,0.24414062,0.0,0.0,0.0,-63.253784,71.50452,-27.306519
1766498822336,-0.95166016,-0.27539062,0.14111328,-0.6713867,-0.79345703,0.24414062,0.0,0.0,0.0,-63.02307,71.5155,-27.037354
1766498822425,-0.94921875,-0.27734375,0.1430664,-0.6713867,-0.9765625,-0.36621094,0.0,0.0,0.0,-63.02307,71.5155,-27.037354
1766498822436,-0.94921875,-0.27734375,0.1430664,-0.6713867,-0.9765625,-0.36621094,0.0,0.0,0.0,-62.891235,71.482544,-26.867065
1766498822524,-0.953125,-0.27148438,0.140625,0.4272461,-0.24414062,-0.24414062,0.0,0.0,0.0,-62.891235,71.482544,-26.867065
1766498822536,-0.953125,-0.27148438,0.140625,0.4272461,-0.24414062,-0.24414062,0.0,0.0,0.0,-62.77588,71.449585,-26.751709
1766498822624,-0.9501953,-0.27392578,0.15478516,0.12207031,1.159668,-0.79345703,0.0,0.0,0.0,-62.77588,71.449585,-26.751709
1766498822636,-0.9501953,-0.27392578,0.15478516,0.12207031,1.159668,-0.79345703,0.0,0.0,0.0,-62.786865,71.4386,-26.845093
1766498822724,-0.9536133,-0.27246094,0.14355469,-0.24414062,1.3427734,-0.061035156,0.0,0.0,0.0,-62.786865,71.4386,-26.845093
1766498822736,-0.9536133,-0.27246094,0.14355469,-0.24414062,1.3427734,-0.061035156,0.0,0.0,0.0,-62.46826,71.433105,-26.488037
1766498822824,-0.9536133,-0.2763672,0.14208984,0.061035156,0.12207031,-0.18310547,0.0,0.0,0.0,-62.46826,71.433105,-26.488037
1766498822835,-0.9536133,-0.2763672,0.14208984,0.061035156,0.12207031,-0.18310547,0.0,0.0,0.0,-62.457275,71.44409,-26.515503
1766498822923,-0.9453125,-0.27246094,0.14648438,-0.24414062,0.0,-0.4272461,0.0,0.0,0.0,-62.457275,71.44409,-26.515503
1766498822935,-0.9453125,-0.27246094,0.14648438,-0.24414062,0.0,-0.4272461,0.0,0.0,0.0,-62.528687,71.44409,-26.592407
1766498823023,-0.95410156,-0.27392578,0.14501953,0.24414062,0.7324219,-0.061035156,0.0,0.0,0.0,-62.528687,71.44409,-26.592407
1766498823036,-0.95410156,-0.27392578,0.14501953,0.24414062,0.7324219,-0.061035156,0.0,0.0,0.0,-62.402344,71.44409,-26.466064
1766498823126,-0.94921875,-0.27685547,0.14404297,-0.24414062,-0.12207031,0.061035156,0.0,0.0,0.0,-62.402344,71.44409,-26.466064
1766498823134,-0.94921875,-0.27685547,0.14404297,-0.24414062,-0.12207031,0.061035156,0.0,0.0,0.0,-62.391357,71.45508,-26.49353
1766498823223,-0.95166016,-0.27441406,0.14648438,0.0,0.0,-0.18310547,0.0,0.0,0.0,-62.391357,71.45508,-26.49353
1766498823234,-0.95166016,-0.27441406,0.14648438,0.0,0.0,-0.18310547,0.0,0.0,0.0,-62.352905,71.45508,-26.438599
1766498823322,-0.9526367,-0.27392578,0.14550781,0.36621094,0.24414062,-0.18310547,0.0,0.0,0.0,-62.352905,71.45508,-26.438599
1766498823334,-0.9526367,-0.27392578,0.14550781,0.36621094,0.24414062,-0.18310547,0.0,0.0,0.0,-62.34192,71.45508,-26.449585
1766498823422,-0.9511719,-0.2734375,0.1508789,0.9765625,0.91552734,-0.7324219,0.0,0.0,0.0,-62.34192,71.45508,-26.449585
1766498823434,-0.9511719,-0.2734375,0.1508789,0.9765625,0.91552734,-0.7324219,0.0,0.0,0.0,-62.495728,71.47156,-26.658325
1766498823522,-0.9555664,-0.27929688,0.13867188,0.79345703,-1.4038086,-0.24414062,0.0,0.0,0.0,-62.495728,71.47156,-26.658325
1766498823533,-0.9555664,-0.27929688,0.13867188,0.79345703,-1.4038086,-0.24414062,0.0,0.0,0.0,-62.841797,71.449585,-27.125244
1766498823621,-0.94384766,-0.27539062,0.14697266,2.0141602,1.5258789,-1.4038086,0.0,0.0,0.0,-62.841797,71.449585,-27.125244
1766498823633,-0.94384766,-0.27539062,0.14697266,2.0141602,1.5258789,-1.4038086,0.0,0.0,0.0,-63.132935,71.44409,-27.504272
1766498823721,-0.95166016,-0.27734375,0.14160156,0.61035156,2.0751953,-0.91552734,0.0,0.0,0.0,-63.132935,71.44409,-27.504272
1766498823733,-0.95166016,-0.27734375,0.14160156,0.61035156,2.0751953,-0.91552734,0.0,0.0,0.0,-63.429565,71.42212,-27.93274
1766498823821,-0.95166016,-0.27783203,0.1352539,0.24414062,0.91552734,-0.36621094,0.0,0.0,0.0,-63.429565,71.42212,-27.93274
1766498823832,-0.95166016,-0.27783203,0.1352539,0.24414062,0.91552734,-0.36621094,0.0,0.0,0.0,-63.693237,71.416626,-28.267822
1766498823921,-0.94873047,-0.28027344,0.13671875,0.36621094,1.6479492,-0.61035156,0.0,0.0,0.0,-63.693237,71.416626,-28.267822
1766498823932,-0.94873047,-0.28027344,0.13671875,0.36621094,1.6479492,-0.61035156,0.0,0.0,0.0,-64.2041,71.449585,-28.85559
1766498824020,-0.9506836,-0.2788086,0.13427734,0.0,0.61035156,-0.4272461,0.0,0.0,0.0,-64.2041,71.449585,-28.85559
1766498824032,-0.9506836,-0.2788086,0.13427734,0.0,0.61035156,-0.4272461,0.0,0.0,0.0,-64.46228,71.46057,-29.108276
1766498824120,-0.94921875,-0.2788086,0.13574219,0.061035156,0.6713867,-0.5493164,0.0,0.0,0.0,-64.46228,71.46057,-29.108276
1766498824131,-0.94921875,-0.2788086,0.13574219,0.061035156,0.6713867,-0.5493164,0.0,0.0,0.0,-64.65454,71.45508,-29.317017
1766498824220,-0.9511719,-0.28076172,0.13330078,0.36621094,0.30517578,-0.4272461,0.0,0.0,0.0,-64.65454,71.45508,-29.317017
1766498824231,-0.9511719,-0.28076172,0.13330078,0.36621094,0.30517578,-0.4272461,0.0,0.0,0.0,-64.764404,71.449585,-29.415894
1766498824319,-0.9458008,-0.2758789,0.1381836,1.4038086,1.8920898,-1.2207031,0.0,0.0,0.0,-64.764404,71.449585,-29.415894
1766498824331,-0.9458008,-0.2758789,0.1381836,1.4038086,1.8920898,-1.2207031,0.0,0.0,0.0,-65.07202,71.44409,-29.783936
1766498824419,-0.94628906,-0.27929688,0.13232422,-0.36621094,1.0375977,-0.36621094,0.0,0.0,0.0,-65.07202,71.44409,-29.783936
1766498824431,-0.94628906,-0.27929688,0.13232422,-0.36621094,1.0375977,-0.36621094,0.0,0.0,0.0,-64.96216,71.44409,-29.586182
1766498824519,-0.95654297,-0.28125,0.1303711,-0.18310547,-0.5493164,0.12207031,0.0,0.0,0.0,-64.96216,71.44409,-29.586182
1766498824531,-0.95654297,-0.28125,0.1303711,-0.18310547,-0.5493164,0.12207031,0.0,0.0,0.0,-64.79736,71.433105,-29.377441
1766498824619,-0.94677734,-0.27978516,0.13574219,-0.12207031,-0.30517578,0.0,0.0,0.0,0.0,-64.79736,71.433105,-29.377441
1766498824630,-0.94677734,-0.27978516,0.13574219,-0.12207031,-0.30517578,0.0,0.0,0.0,0.0,-64.6875,71.42761,-29.212646
1766498824718,-0.95410156,-0.28125,0.13134766,-0.18310547,0.0,-0.061035156,0.0,0.0,0.0,-64.6875,71.42761,-29.212646
1766498824730,-0.95410156,-0.28125,0.13134766,-0.18310547,0.0,-0.061035156,0.0,0.0,0.0,-64.522705,71.4386,-28.965454
1766498824818,-0.94970703,-0.27978516,0.1352539,-0.8544922,-0.9765625,0.24414062,0.0,0.0,0.0,-64.522705,71.4386,-28.965454
1766498824830,-0.94970703,-0.27978516,0.1352539,-0.8544922,-0.9765625,0.24414062,0.0,0.0,0.0,-64.41284,71.4386,-28.75122
1766498824918,-0.9501953,-0.2783203,0.13720703,0.0,-0.48828125,0.061035156,0.0,0.0,0.0,-64.41284,71.4386,-28.75122
1766498824929,-0.9501953,-0.2783203,0.13720703,0.0,-0.48828125,0.061035156,0.0,0.0,0.0,-64.16016,71.433105,-28.42163
1766498825018,-0.95166016,-0.27734375,0.13769531,-0.61035156,-0.36621094,0.061035156,0.0,0.0,0.0,-64.16016,71.433105,-28.42163
1766498825029,-0.95166016,-0.27734375,0.13769531,-0.61035156,-0.36621094,0.061035156,0.0,0.0,0.0,-64.00635,71.42761,-28.190918
1766498825117,-0.94873047,-0.27685547,0.13769531,0.7324219,0.061035156,-0.24414062,0.0,0.0,0.0,-64.00635,71.42761,-28.190918
1766498825129,-0.94873047,-0.27685547,0.13769531,0.7324219,0.061035156,-0.24414062,0.0,0.0,0.0,-63.901978,71.42761,-28.031616
1766498825217,-0.9526367,-0.28222656,0.13134766,-0.79345703,-3.540039,0.8544922,0.0,0.0,0.0,-63.901978,71.42761,-28.031616
1766498825229,-0.9526367,-0.28222656,0.13134766,-0.79345703,-3.540039,0.8544922,0.0,0.0,0.0,-63.66577,71.41113,-27.773438
1766498825317,-0.9472656,-0.27783203,0.1430664,0.18310547,-0.8544922,0.0,0.0,0.0,0.0,-63.66577,71.41113,-27.773438
1766498825328,-0.9472656,-0.27783203,0.1430664,0.18310547,-0.8544922,0.0,0.0,0.0,0.0,-63.407593,71.41113,-27.471313
1766498825416,-0.95166016,-0.27685547,0.13867188,0.0,-0.12207031,-0.061035156,0.0,0.0,0.0,-63.407593,71.41113,-27.471313
1766498825429,-0.95166016,-0.27685547,0.13867188,0.0,-0.12207031,-0.061035156,0.0,0.0,0.0,-63.149414,71.38916,-27.235107
1766498825516,-0.95214844,-0.27685547,0.14013672,-0.30517578,-1.2817383,0.4272461,0.0,0.0,0.0,-63.149414,71.38916,-27.235107
1766498825528,-0.95214844,-0.27685547,0.14013672,-0.30517578,-1.2817383,0.4272461,0.0,0.0,0.0,-62.929688,71.378174,-27.004395
1766498825616,-0.94677734,-0.2783203,0.1459961,0.0,0.48828125,-0.12207031,0.0,0.0,0.0,-62.929688,71.378174,-27.004395
1766498825629,-0.94677734,-0.2783203,0.1459961,0.0,0.48828125,-0.12207031,0.0,0.0,0.0,-62.979126,71.40564,-27.070312
1766498825716,-0.9526367,-0.27246094,0.14257812,-0.6713867,-0.79345703,0.18310547,0.0,0.0,0.0,-62.979126,71.40564,-27.070312
1766498825728,-0.9526367,-0.27246094,0.14257812,-0.6713867,-0.79345703,0.18310547,0.0,0.0,0.0,-62.81433,71.40015,-26.8396
1766498825815,-0.9506836,-0.27783203,0.14404297,0.0,-0.79345703,0.061035156,0.0,0.0,0.0,-62.81433,71.40015,-26.8396
1766498825827,-0.9506836,-0.27783203,0.14404297,0.0,-0.79345703,0.061035156,0.0,0.0,0.0,-62.62207,71.40015,-26.652832
1766498825915,-0.953125,-0.27685547,0.14013672,0.5493164,0.0,-0.24414062,0.0,0.0,0.0,-62.62207,71.40015,-26.652832
1766498825927,-0.953125,-0.27685547,0.14013672,0.5493164,0.0,-0.24414062,0.0,0.0,0.0,-62.594604,71.40015,-26.652832
1766498826015,-0.94873047,-0.27441406,0.14404297,0.18310547,0.9765625,-0.9765625,0.0,0.0,0.0,-62.594604,71.40015,-26.652832
1766498826028,-0.94873047,-0.27441406,0.14404297,0.18310547,0.9765625,-0.9765625,0.0,0.0,0.0,-62.70996,71.38916,-26.834106
1766498826115,-0.9526367,-0.27392578,0.140625,-0.30517578,1.3427734,-0.061035156,0.0,0.0,0.0,-62.70996,71.38916,-26.834106
1766498826126,-0.9526367,-0.27392578,0.140625,-0.30517578,1.3427734,-0.061035156,0.0,0.0,0.0,-62.528687,71.378174,-26.647339
1766498826214,-0.9526367,-0.27734375,0.13964844,0.0,0.36621094,-0.24414062,0.0,0.0,0.0,-62.528687,71.378174,-26.647339
1766498826226,-0.9526367,-0.27734375,0.13964844,0.0,0.36621094,-0.24414062,0.0,0.0,0.0,-62.556152,71.38916,-26.691284
1766498826314,-0.9472656,-0.27490234,0.1459961,-0.12207031,0.24414062,-0.24414062,0.0,0.0,0.0,-62.556152,71.38916,-26.691284
1766498826326,-0.9472656,-0.27490234,0.1459961,-0.12207031,0.24414062,-0.24414062,0.0,0.0,0.0,-62.616577,71.39465,-26.740723
1766498826414,-0.95214844,-0.2758789,0.14160156,-0.061035156,0.4272461,-0.30517578,0.0,0.0,0.0,-62.616577,71.39465,-26.740723
1766498826425,-0.95214844,-0.2758789,0.14160156,-0.061035156,0.4272461,-0.30517578,0.0,0.0,0.0,-62.53418,71.40015,-26.619873
1766498826514,-0.9501953,-0.27783203,0.14501953,0.24414062,-0.30517578,-0.24414062,0.0,0.0,0.0,-62.53418,71.40015,-26.619873
1766498826525,-0.9501953,-0.27783203,0.14501953,0.24414062,-0.30517578,-0.24414062,0.0,0.0,0.0,-62.528687,71.378174,-26.680298
1766498826613,-0.94921875,-0.2783203,0.1484375,0.30517578,-0.12207031,-0.24414062,0.0,0.0,0.0,-62.528687,71.378174,-26.680298
1766498826625,-0.94921875,-0.2783203,0.1484375,0.30517578,-0.12207031,-0.24414062,0.0,0.0,0.0,-62.473755,71.361694,-26.685791
1766498826713,-0.9482422,-0.2758789,0.14990234,0.61035156,0.6713867,-0.30517578,0.0,0.0,0.0,-62.473755,71.361694,-26.685791
1766498826725,-0.9482422,-0.2758789,0.14990234,0.61035156,0.6713867,-0.30517578,0.0,0.0,0.0,-62.435303,71.35071,-26.696777
1766498826813,-0.9501953,-0.27441406,0.15234375,-0.7324219,0.79345703,-0.061035156,0.0,0.0,0.0,-62.435303,71.35071,-26.696777
1766498826825,-0.9501953,-0.27441406,0.15234375,-0.7324219,0.79345703,-0.061035156,0.0,0.0,0.0,-62.369385,71.3562,-26.663818
1766498826912,-0.9526367,-0.2709961,0.15332031,-0.61035156,-0.5493164,-0.18310547,0.0,0.0,0.0,-62.369385,71.3562,-26.663818
1766498826924,-0.9526367,-0.2709961,0.15332031,-0.61035156,-0.5493164,-0.18310547,0.0,0.0,0.0,-62.418823,71.345215,-26.73523
1766498827012,-0.9472656,-0.2734375,0.15625,0.36621094,0.48828125,-0.30517578,0.0,0.0,0.0,-62.418823,71.345215,-26.73523
1766498827024,-0.9472656,-0.2734375,0.15625,0.36621094,0.48828125,-0.30517578,0.0,0.0,0.0,-62.25952,71.35071,-26.559448
1766498827112,-0.9584961,-0.27685547,0.1430664,0.91552734,1.7089844,-0.61035156,0.0,0.0,0.0,-62.25952,71.35071,-26.559448
1766498827123,-0.9584961,-0.27685547,0.1430664,0.91552734,1.7089844,-0.61035156,0.0,0.0,0.0,-62.303467,71.345215,-26.729736
1766498827212,-0.95214844,-0.27783203,0.14355469,0.5493164,1.0986328,-0.9765625,0.0,0.0,0.0,-62.303467,71.345215,-26.729736
1766498827223,-0.95214844,-0.27783203,0.14355469,0.5493164,1.0986328,-0.9765625,0.0,0.0,0.0,-62.957153,71.38916,-27.504272
1766498827311,-0.95214844,-0.27734375,0.14111328,1.6479492,3.7841797,-1.4038086,0.0,0.0,0.0,-62.957153,71.38916,-27.504272
1766498827323,-0.95214844,-0.27734375,0.14111328,1.6479492,3.7841797,-1.4038086,0.0,0.0,0.0,-63.462524,71.39465,-28.103027
1766498827411,-0.94970703,-0.28027344,0.13671875,0.5493164,2.380371,-0.9765625,0.0,0.0,0.0,-63.462524,71.39465,-28.103027
1766498827422,-0.94970703,-0.28027344,0.13671875,0.5493164,2.380371,-0.9765625,0.0,0.0,0.0,-64.176636,71.433105,-28.921509
1766498827511,-0.9506836,-0.28076172,0.12988281,0.12207031,0.61035156,-0.91552734,0.0,0.0,0.0,-64.176636,71.433105,-28.921509
1766498827522,-0.9506836,-0.28076172,0.12988281,0.12207031,0.61035156,-0.91552734,0.0,0.0,0.0,-64.68201,71.433105,-29.481812
1766498827611,-0.95214844,-0.28271484,0.12841797,0.0,0.4272461,-0.5493164,0.0,0.0,0.0,-64.68201,71.433105,-29.481812
1766498827622,-0.95214844,-0.28271484,0.12841797,0.0,0.4272461,-0.5493164,0.0,0.0,0.0,-65.08301,71.42212,-29.893799
1766498827710,-0.94384766,-0.28515625,0.12890625,1.5869141,2.746582,-1.2817383,0.0,0.0,0.0,-65.08301,71.42212,-29.893799
1766498827722,-0.94384766,-0.28515625,0.12890625,1.5869141,2.746582,-1.2817383,0.0,0.0,0.0,-65.37964,71.42212,-30.168457
1766498827810,-0.9560547,-0.29052734,0.119140625,-0.30517578,0.30517578,0.061035156,0.0,0.0,0.0,-65.37964,71.42212,-30.168457
1766498827821,-0.9560547,-0.29052734,0.119140625,-0.30517578,0.30517578,0.061035156,0.0,0.0,0.0,-65.632324,71.416626,-30.437622
1766498827910,-0.9526367,-0.2836914,0.12548828,0.24414062,0.48828125,-0.5493164,0.0,0.0,0.0,-65.632324,71.416626,-30.437622
1766498827922,-0.9526367,-0.2836914,0.12548828,0.24414062,0.48828125,-0.5493164,0.0,0.0,0.0,-66.00586,71.42761,-30.789185
1766498828009,-0.9453125,-0.27978516,0.13330078,0.79345703,0.24414062,-0.91552734,0.0,0.0,0.0,-66.00586,71.42761,-30.789185
1766498828021,-0.9453125,-0.27978516,0.13330078,0.79345703,0.24414062,-0.91552734,0.0,0.0,0.0,-66.09924,71.41113,-30.83313
1766498828109,-0.95214844,-0.2836914,0.12841797,0.24414062,0.0,0.0,0.0,0.0,0.0,-66.09924,71.41113,-30.83313
1766498828121,-0.95214844,-0.2836914,0.12841797,0.24414062,0.0,0.0,0.0,0.0,0.0,-66.02234,71.40015,-30.690308
1766498828209,-0.9472656,-0.28076172,0.13085938,-0.7324219,-0.9765625,0.12207031,0.0,0.0,0.0,-66.02234,71.40015,-30.690308
1766498828221,-0.9472656,-0.28076172,0.13085938,-0.7324219,-0.9765625,0.12207031,0.0,0.0,0.0,-65.76965,71.378174,-30.338745
1766498828309,-0.9501953,-0.27978516,0.13134766,-1.2817383,-2.1972656,0.8544922,0.0,0.0,0.0,-65.76965,71.378174,-30.338745
1766498828320,-0.9501953,-0.27978516,0.13134766,-1.2817383,-2.1972656,0.8544922,0.0,0.0,0.0,-65.38513,71.37268,-29.778442
1766498828408,-0.95214844,-0.28076172,0.13232422,-0.7324219,-0.8544922,0.18310547,0.0,0.0,0.0,-65.38513,71.37268,-29.778442
1766498828420,-0.95214844,-0.28076172,0.13232422,-0.7324219,-0.8544922,0.18310547,0.0,0.0,0.0,-64.940186,71.40015,-29.163208
1766498828508,-0.9550781,-0.2841797,0.13574219,-1.7089844,-0.30517578,0.4272461,0.0,0.0,0.0,-64.940186,71.40015,-29.163208
1766498828520,-0.9550781,-0.2841797,0.13574219,-1.7089844,-0.30517578,0.4272461,0.0,0.0,0.0,-64.81384,71.40015,-28.921509
1766498828608,-0.95654297,-0.28125,0.13574219,-0.48828125,-1.7089844,0.36621094,0.0,0.0,0.0,-64.81384,71.40015,-28.921509
1766498828620,-0.95654297,-0.28125,0.13574219,-0.48828125,-1.7089844,0.36621094,0.0,0.0,0.0,-64.89624,71.416626,-28.998413
1766498828708,-0.94091797,-0.27685547,0.14257812,0.30517578,0.7324219,-0.24414062,0.0,0.0,0.0,-64.89624,71.416626,-28.998413
1766498828719,-0.94091797,-0.27685547,0.14257812,0.30517578,0.7324219,-0.24414062,0.0,0.0,0.0,-64.63257,71.433105,-28.657837
1766498828807,-0.9580078,-0.28076172,0.13330078,0.12207031,0.12207031,-0.30517578,0.0,0.0,0.0,-64.63257,71.433105,-28.657837
1766498828819,-0.9580078,-0.28076172,0.13330078,0.12207031,0.12207031,-0.30517578,0.0,0.0,0.0,-64.45679,71.416626,-28.493042
1766498828907,-0.95410156,-0.27929688,0.13378906,-0.61035156,-1.3427734,0.48828125,0.0,0.0,0.0,-64.45679,71.416626,-28.493042
1766498828919,-0.95410156,-0.27929688,0.13378906,-0.61035156,-1.3427734,0.48828125,0.0,0.0,0.0,-64.29199,71.416626,-28.322754
1766498829007,-0.9536133,-0.28222656,0.13867188,-0.36621094,-0.61035156,-0.061035156,0.0,0.0,0.0,-64.29199,71.416626,-28.322754
1766498829018,-0.9536133,-0.28222656,0.13867188,-0.36621094,-0.61035156,-0.061035156,0.0,0.0,0.0,-64.25903,71.4386,-28.278809
1766498829107,-0.9482422,-0.2763672,0.13867188,-0.5493164,-0.48828125,0.0,0.0,0.0,0.0,-64.25903,71.4386,-28.278809
1766498829118,-0.9482422,-0.2763672,0.13867188,-0.5493164,-0.48828125,0.0,0.0,0.0,0.0,-64.27551,71.4386,-28.24585
1766498829206,-0.95214844,-0.28466797,0.13378906,-0.061035156,0.0,-0.12207031,0.0,0.0,0.0,-64.27551,71.4386,-28.24585
1766498829218,-0.95214844,-0.28466797,0.13378906,-0.061035156,0.0,-0.12207031,0.0,0.0,0.0,-64.176636,71.4386,-28.196411
1766498829306,-0.9580078,-0.28076172,0.13232422,-1.0986328,-1.2817383,0.48828125,0.0,0.0,0.0,-64.176636,71.4386,-28.196411
1766498829317,-0.9580078,-0.28076172,0.13232422,-1.0986328,-1.2817383,0.48828125,0.0,0.0,0.0,-64.07776,71.449585,-28.075562
1766498829406,-0.94970703,-0.2841797,0.12841797,-0.79345703,-0.30517578,-0.061035156,0.0,0.0,0.0,-64.07776,71.449585,-28.075562
1766498829417,-0.94970703,-0.2841797,0.12841797,-0.79345703,-0.30517578,-0.061035156,0.0,0.0,0.0,-64.2041,71.47156,-28.190918
1766498829505,-0.95214844,-0.27392578,0.12841797,-0.24414062,-0.5493164,0.5493164,0.0,0.0,0.0,-64.2041,71.47156,-28.190918
1766498829517,-0.95214844,-0.27392578,0.12841797,-0.24414062,-0.5493164,0.5493164,0.0,0.0,0.0,-63.95691,71.48804,-27.8833
1766498829605,-0.953125,-0.28125,0.13671875,-0.30517578,-0.61035156,-0.18310547,0.0,0.0,0.0,-63.95691,71.48804,-27.8833
1766498829617,-0.953125,-0.28125,0.13671875,-0.30517578,-0.61035156,-0.18310547,0.0,0.0,0.0,-63.94043,71.482544,-27.938232
1766498829705,-0.94873047,-0.2734375,0.14257812,0.0,0.18310547,0.061035156,0.0,0.0,0.0,-63.94043,71.482544,-27.938232
1766498829717,-0.94873047,-0.2734375,0.14257812,0.0,0.18310547,0.061035156,0.0,0.0,0.0,-63.97339,71.48804,-27.949219
1766498829805,-0.95410156,-0.2788086,0.1381836,0.30517578,0.79345703,0.0,0.0,0.0,0.0,-63.97339,71.48804,-27.949219
1766498829816,-0.95410156,-0.2788086,0.1381836,0.30517578,0.79345703,0.0,0.0,0.0,0.0,-63.880005,71.52649,-27.82837
1766498829904,-0.953125,-0.27539062,0.1381836,-0.61035156,-0.18310547,-0.061035156,0.0,0.0,0.0,-63.880005,71.52649,-27.82837
1766498829916,-0.953125,-0.27539062,0.1381836,-0.61035156,-0.18310547,-0.061035156,0.0,0.0,0.0,-64.088745,71.55945,-28.064575
1766498830004,-0.9477539,-0.27490234,0.1381836,-0.30517578,-0.12207031,-0.061035156,0.0,0.0,0.0,-64.088745,71.55945,-28.064575
1766498830016,-0.9477539,-0.27490234,0.1381836,-0.30517578,-0.12207031,-0.061035156,0.0,0.0,0.0,-64.088745,71.570435,-28.048096
1766498830104,-0.9526367,-0.27490234,0.13964844,0.18310547,-0.18310547,-0.18310547,0.0,0.0,0.0,-64.088745,71.570435,-28.048096
1766498830115,-0.9526367,-0.27490234,0.13964844,0.18310547,-0.18310547,-0.18310547,0.0,0.0,0.0,-63.92395,71.55945,-27.861328
1766498830204,-0.94873047,-0.27246094,0.14892578,-0.12207031,-0.30517578,0.061035156,0.0,0.0,0.0,-63.92395,71.55945,-27.861328
1766498830215,-0.94873047,-0.27246094,0.14892578,-0.12207031,-0.30517578,0.061035156,0.0,0.0,0.0,-63.654785,71.537476,-27.60315
1766498830303,-0.9555664,-0.27294922,0.14013672,-0.24414062,-2.2583008,0.061035156,0.0,0.0,0.0,-63.654785,71.537476,-27.60315
1766498830315,-0.9555664,-0.27294922,0.14013672,-0.24414062,-2.2583008,0.061035156,0.0,0.0,0.0,-63.500977,71.49353,-27.476807
1766498830403,-0.94677734,-0.27441406,0.14794922,0.12207031,0.0,-0.24414062,0.0,0.0,0.0,-63.500977,71.49353,-27.476807
1766498830415,-0.94677734,-0.27441406,0.14794922,0.12207031,0.0,-0.24414062,0.0,0.0,0.0,-63.33618,71.49353,-27.268066
1766498830503,-0.9506836,-0.27734375,0.13964844,-0.4272461,-0.061035156,0.0,0.0,0.0,0.0,-63.33618,71.49353,-27.268066
1766498830514,-0.9506836,-0.27734375,0.13964844,-0.4272461,-0.061035156,0.0,0.0,0.0,0.0,-63.171387,71.48804,-27.13623
1766498830603,-0.9526367,-0.27441406,0.14111328,-0.4272461,-0.91552734,0.24414062,0.0,0.0,0.0,-63.171387,71.48804,-27.13623
1766498830614,-0.9526367,-0.27441406,0.14111328,-0.4272461,-0.91552734,0.24414062,0.0,0.0,0.0,-62.973633,71.47156,-26.894531
1766498830702,-0.9501953,-0.2758789,0.14355469,0.4272461,0.0,-0.30517578,0.0,0.0,0.0,-62.973633,71.47156,-26.894531
1766498830714,-0.9501953,-0.2758789,0.14355469,0.4272461,0.0,-0.30517578,0.0,0.0,0.0,-62.940674,71.482544,-26.878052
1766498830802,-0.9526367,-0.2758789,0.14257812,-0.24414062,-0.4272461,-0.061035156,0.0,0.0,0.0,-62.940674,71.482544,-26.878052
1766498830814,-0.9526367,-0.2758789,0.14257812,-0.24414062,-0.4272461,-0.061035156,0.0,0.0,0.0,-62.841797,71.47156,-26.801147
1766498830902,-0.95166016,-0.2758789,0.14355469,0.24414062,-0.18310547,-0.12207031,0.0,0.0,0.0,-62.841797,71.47156,-26.801147
1766498830914,-0.95166016,-0.2758789,0.14355469,0.24414062,-0.18310547,-0.12207031,0.0,0.0,0.0,-62.748413,71.466064,-26.729736
1766498831002,-0.9506836,-0.27734375,0.140625,0.4272461,-1.159668,0.12207031,0.0,0.0,0.0,-62.748413,71.466064,-26.729736
1766498831014,-0.9506836,-0.27734375,0.140625,0.4272461,-1.159668,0.12207031,0.0,0.0,0.0,-62.528687,71.45508,-26.537476
1766498831101,-0.9482422,-0.27490234,0.14257812,0.6713867,-0.12207031,-0.48828125,0.0,0.0,0.0,-62.528687,71.45508,-26.537476
1766498831113,-0.9482422,-0.27490234,0.14257812,0.6713867,-0.12207031,-0.48828125,0.0,0.0,0.0,-62.42981,71.433105,-26.51001
1766498831201,-0.9555664,-0.27441406,0.13769531,-0.12207031,0.061035156,0.18310547,0.0,0.0,0.0,-62.42981,71.433105,-26.51001
1766498831213,-0.9555664,-0.27441406,0.13769531,-0.12207031,0.061035156,0.18310547,0.0,0.0,0.0,-62.160645,71.42212,-26.224365
1766498831301,-0.9511719,-0.27441406,0.14453125,0.6713867,-0.36621094,-0.18310547,0.0,0.0,0.0,-62.160645,71.42212,-26.224365
1766498831313,-0.9511719,-0.27441406,0.14453125,0.6713867,-0.36621094,-0.18310547,0.0,0.0,0.0,-62.15515,71.42212,-26.251831
1766498831400,-0.9477539,-0.27294922,0.15332031,0.36621094,0.0,-0.4272461,0.0,0.0,0.0,-62.15515,71.42212,-26.251831
1766498831412,-0.9477539,-0.27294922,0.15332031,0.36621094,0.0,-0.4272461,0.0,0.0,0.0,-62.111206,71.416626,-26.246338
1766498831500,-0.9526367,-0.27392578,0.14501953,0.18310547,0.5493164,-0.12207031,0.0,0.0,0.0,-62.111206,71.416626,-26.246338
1766498831512,-0.9526367,-0.27392578,0.14501953,0.18310547,0.5493164,-0.12207031,0.0,0.0,0.0,-61.957397,71.40564,-26.103516
1766498831600,-0.95166016,-0.27490234,0.14697266,0.24414062,0.4272461,-0.5493164,0.0,0.0,0.0,-61.957397,71.40564,-26.103516
1766498831612,-0.95166016,-0.27490234,0.14697266,0.24414062,0.4272461,-0.5493164,0.0,0.0,0.0,-62.0343,71.40015,-26.240845
1766498831700,-0.9506836,-0.2758789,0.1484375,-0.36621094,1.3427734,0.0,0.0,0.0,0.0,-62.0343,71.40015,-26.240845
1766498831711,-0.9506836,-0.2758789,0.1484375,-0.36621094,1.3427734,0.0,0.0,0.0,0.0,-62.270508,71.4386,-26.460571
1766498831799,-0.94970703,-0.26904297,0.1459961,0.061035156,1.7700195,-0.6713867,0.0,0.0,0.0,-62.270508,71.4386,-26.460571
1766498831811,-0.94970703,-0.26904297,0.1459961,0.061035156,1.7700195,-0.6713867,0.0,0.0,0.0,-62.633057,71.466064,-26.82312
1766498831899,-0.94970703,-0.27441406,0.15136719,0.18310547,2.6245117,-0.7324219,0.0,0.0,0.0,-62.633057,71.466064,-26.82312
1766498831911,-0.94970703,-0.27441406,0.15136719,0.18310547,2.6245117,-0.7324219,0.0,0.0,0.0,-63.012085,71.52649,-27.246094
1766498831999,-0.9555664,-0.2758789,0.13964844,0.36621094,0.7324219,-0.5493164,0.0,0.0,0.0,-63.012085,71.52649,-27.246094
1766498832010,-0.9555664,-0.2758789,0.13964844,0.36621094,0.7324219,-0.5493164,0.0,0.0,0.0,-63.6438,71.5155,-28.042603
1766498832099,-0.9458008,-0.27294922,0.14160156,1.4038086,2.5024414,-1.2817383,0.0,0.0,0.0,-63.6438,71.5155,-28.042603
1766498832110,-0.9458008,-0.27294922,0.14160156,1.4038086,2.5024414,-1.2817383,0.0,0.0,0.0,-63.962402,71.537476,-28.405151
1766498832198,-0.9526367,-0.27783203,0.13330078,0.36621094,1.7089844,-0.79345703,0.0,0.0,0.0,-63.962402,71.537476,-28.405151
1766498832210,-0.9526367,-0.27783203,0.13330078,0.36621094,1.7089844,-0.79345703,0.0,0.0,0.0,-64.19861,71.52649,-28.729248
1766498832298,-0.9536133,-0.27978516,0.12939453,-0.12207031,0.36621094,-0.18310547,0.0,0.0,0.0,-64.19861,71.52649,-28.729248
1766498832310,-0.9536133,-0.27978516,0.12939453,-0.12207031,0.36621094,-0.18310547,0.0,0.0,0.0,-64.506226,71.520996,-29.08081
1766498832398,-0.9506836,-0.27978516,0.13378906,0.4272461,0.9765625,-0.8544922,0.0,0.0,0.0,-64.506226,71.520996,-29.08081
1766498832409,-0.9506836,-0.27978516,0.13378906,0.4272461,0.9765625,-0.8544922,0.0,0.0,0.0,-64.91272,71.53198,-29.525757
1766498832498,-0.94970703,-0.27929688,0.13232422,0.6713867,1.159668,-0.7324219,0.0,0.0,0.0,-64.91272,71.53198,-29.525757
1766498832509,-0.94970703,-0.27929688,0.13232422,0.6713867,1.159668,-0.7324219,0.0,0.0,0.0,-65.165405,71.5155,-29.805908
1766498832597,-0.9511719,-0.2788086,0.13574219,0.12207031,-0.30517578,-0.4272461,0.0,0.0,0.0,-65.165405,71.5155,-29.805908
1766498832609,-0.9511719,-0.2788086,0.13574219,0.12207031,-0.30517578,-0.4272461,0.0,0.0,0.0,-65.29175,71.49353,-29.932251
1766498832697,-0.9511719,-0.27783203,0.13232422,-0.36621094,0.4272461,-0.24414062,0.0,0.0,0.0,-65.29175,71.49353,-29.932251
1766498832709,-0.9511719,-0.27783203,0.13232422,-0.36621094,0.4272461,-0.24414062,0.0,0.0,0.0,-65.14343,71.466064,-29.729004
1766498832797,-0.95410156,-0.2763672,0.13964844,-1.0375977,-1.953125,0.36621094,0.0,0.0,0.0,-65.14343,71.466064,-29.729004
1766498832809,-0.95410156,-0.2763672,0.13964844,-1.0375977,-1.953125,0.36621094,0.0,0.0,0.0,-65.198364,71.46057,-29.794922
1766498832896,-0.9428711,-0.27490234,0.14208984,-0.36621094,-0.12207031,-0.18310547,0.0,0.0,0.0,-65.198364,71.46057,-29.794922
1766498832908,-0.9428711,-0.27490234,0.14208984,-0.36621094,-0.12207031,-0.18310547,0.0,0.0,0.0,-64.96765,71.466064,-29.470825
1766498832996,-0.95703125,-0.28222656,0.13085938,-0.12207031,-0.4272461,0.0,0.0,0.0,0.0,-64.96765,71.466064,-29.470825
1766498833008,-0.95703125,-0.28222656,0.13085938,-0.12207031,-0.4272461,0.0,0.0,0.0,0.0,-64.73694,71.45508,-29.207153
1766498833096,-0.94677734,-0.28027344,0.13476562,-0.36621094,-0.61035156,0.061035156,0.0,0.0,0.0,-64.73694,71.45508,-29.207153
1766498833107,-0.94677734,-0.28027344,0.13476562,-0.36621094,-0.61035156,0.061035156,0.0,0.0,0.0,-64.65454,71.449585,-29.091797
1766498833196,-0.9526367,-0.27929688,0.1328125,-0.48828125,0.0,0.061035156,0.0,0.0,0.0,-64.65454,71.449585,-29.091797
1766498833207,-0.9526367,-0.27929688,0.1328125,-0.48828125,0.0,0.061035156,0.0,0.0,0.0,-64.45679,71.466064,-28.806152
1766498833295,-0.9501953,-0.28027344,0.13427734,-0.79345703,-0.79345703,0.18310547,0.0,0.0,0.0,-64.45679,71.466064,-28.806152
1766498833307,-0.9501953,-0.28027344,0.13427734,-0.79345703,-0.79345703,0.18310547,0.0,0.0,0.0,-64.31946,71.466064,-28.591919
1766498833395,-0.94921875,-0.2788086,0.13720703,-0.12207031,-0.7324219,0.0,0.0,0.0,0.0,-64.31946,71.466064,-28.591919
1766498833407,-0.94921875,-0.2788086,0.13720703,-0.12207031,-0.7324219,0.0,0.0,0.0,0.0,-64.105225,71.45508,-28.311768
1766498833495,-0.9536133,-0.27929688,0.1352539,-0.12207031,-1.0986328,0.0,0.0,0.0,0.0,-64.105225,71.45508,-28.311768
1766498833507,-0.9536133,-0.27929688,0.1352539,-0.12207031,-1.0986328,0.0,0.0,0.0,0.0,-63.85254,71.433105,-28.02063
1766498833595,-0.94628906,-0.28125,0.1328125,0.30517578,0.30517578,-0.61035156,0.0,0.0,0.0,-63.85254,71.433105,-28.02063
1766498833606,-0.94628906,-0.28125,0.1328125,0.30517578,0.30517578,-0.61035156,0.0,0.0,0.0,-63.76465,71.416626,-27.943726
1766498833694,-0.9555664,-0.28027344,0.13134766,-1.3427734,-1.4038086,0.6713867,0.0,0.0,0.0,-63.76465,71.416626,-27.943726
1766498833706,-0.9555664,-0.28027344,0.13134766,-1.3427734,-1.4038086,0.6713867,0.0,0.0,0.0,-63.43506,71.41113,-27.542725
1766498833794,-0.95214844,-0.27685547,0.14111328,-0.12207031,-1.159668,0.18310547,0.0,0.0,0.0,-63.43506,71.41113,-27.542725
1766498833806,-0.95214844,-0.27685547,0.14111328,-0.12207031,-1.159668,0.18310547,0.0,0.0,0.0,-63.374634,71.416626,-27.487793
1766498833894,-0.9453125,-0.2763672,0.1459961,0.6713867,0.5493164,-0.18310547,0.0,0.0,0.0,-63.374634,71.416626,-27.487793
1766498833905,-0.9453125,-0.2763672,0.1459961,0.6713867,0.5493164,-0.18310547,0.0,0.0,0.0,-63.35266,71.4386,-27.476807
1766498833994,-0.95410156,-0.27539062,0.13671875,0.0,0.30517578,-0.12207031,0.0,0.0,0.0,-63.35266,71.4386,-27.476807
1766498834005,-0.95410156,-0.27539062,0.13671875,0.0,0.30517578,-0.12207031,0.0,0.0,0.0,-63.17688,71.433105,-27.25708
1766498834093,-0.94921875,-0.27734375,0.14208984,-0.24414062,-0.5493164,0.0,0.0,0.0,0.0,-63.17688,71.433105,-27.25708
1766498834105,-0.94921875,-0.27734375,0.14208984,-0.24414062,-0.5493164,0.0,0.0,0.0,0.0,-63.187866,71.4386,-27.279053
1766498834193,-0.9501953,-0.2758789,0.14404297,0.061035156,-0.061035156,0.0,0.0,0.0,0.0,-63.187866,71.4386,-27.279053
1766498834205,-0.9501953,-0.2758789,0.14404297,0.061035156,-0.061035156,0.0,0.0,0.0,0.0,-63.03955,71.44409,-27.125244
1766498834293,-0.95214844,-0.27490234,0.14257812,0.12207031,0.0,-0.12207031,0.0,0.0,0.0,-63.03955,71.44409,-27.125244
1766498834304,-0.95214844,-0.27490234,0.14257812,0.12207031,0.0,-0.12207031,0.0,0.0,0.0,-62.95166,71.4386,-27.059326
1766498834393,-0.9477539,-0.2783203,0.14550781,1.5258789,0.0,-0.36621094,0.0,0.0,0.0,-62.95166,71.4386,-27.059326
1766498834404,-0.9477539,-0.2783203,0.14550781,1.5258789,0.0,-0.36621094,0.0,0.0,0.0,-62.95166,71.44409,-27.103271
1766498834492,-0.95410156,-0.27978516,0.13427734,-0.79345703,-3.3569336,0.91552734,0.0,0.0,0.0,-62.95166,71.44409,-27.103271
1766498834504,-0.95410156,-0.27978516,0.13427734,-0.79345703,-3.3569336,0.91552734,0.0,0.0,0.0,-62.79236,71.40564,-26.971436
1766498834592,-0.9458008,-0.27441406,0.14794922,0.18310547,-0.91552734,-0.12207031,0.0,0.0,0.0,-62.79236,71.40564,-26.971436
1766498834603,-0.9458008,-0.27441406,0.14794922,0.18310547,-0.91552734,-0.12207031,0.0,0.0,0.0,-62.715454,71.41113,-26.883545
1766498834692,-0.94970703,-0.2758789,0.14208984,-0.24414062,0.0,0.0,0.0,0.0,0.0,-62.715454,71.41113,-26.883545
1766498834703,-0.94970703,-0.2758789,0.14208984,-0.24414062,0.0,0.0,0.0,0.0,0.0,-62.60559,71.41113,-26.80664
1766498834792,-0.9526367,-0.27490234,0.14160156,-0.061035156,-0.4272461,0.0,0.0,0.0,0.0,-62.60559,71.41113,-26.80664
1766498834803,-0.9526367,-0.27490234,0.14160156,-0.061035156,-0.4272461,0.0,0.0,0.0,0.0,-62.50122,71.40564,-26.685791
1766498834891,-0.9501953,-0.27539062,0.14697266,0.12207031,0.12207031,-0.18310547,0.0,0.0,0.0,-62.50122,71.40564,-26.685791
1766498834903,-0.9501953,-0.27539062,0.14697266,0.12207031,0.12207031,-0.18310547,0.0,0.0,0.0,-62.57263,71.41113,-26.779175
1766498834991,-0.94873047,-0.27441406,0.14794922,0.30517578,-0.48828125,-0.12207031,0.0,0.0,0.0,-62.57263,71.41113,-26.779175
1766498835003,-0.94873047,-0.27441406,0.14794922,0.30517578,-0.48828125,-0.12207031,0.0,0.0,0.0,-62.479248,71.41113,-26.707764
1766498835091,-0.95166016,-0.27197266,0.14892578,-0.24414062,0.61035156,-0.12207031,0.0,0.0,0.0,-62.479248,71.41113,-26.707764
1766498835103,-0.95166016,-0.27197266,0.14892578,-0.24414062,0.61035156,-0.12207031,0.0,0.0,0.0,-62.391357,71.38916,-26.663818
1766498835190,-0.9501953,-0.27392578,0.1484375,-0.4272461,0.8544922,-0.30517578,0.0,0.0,0.0,-62.391357,71.38916,-26.663818
1766498835203,-0.9501953,-0.27392578,0.1484375,-0.4272461,0.8544922,-0.30517578,0.0,0.0,0.0,-62.407837,71.40564,-26.707764
1766498835290,-0.95214844,-0.27197266,0.15722656,-0.4272461,-0.5493164,-0.061035156,0.0,0.0,0.0,-62.407837,71.40564,-26.707764
1766498835302,-0.95214844,-0.27197266,0.15722656,-0.4272461,-0.5493164,-0.061035156,0.0,0.0,0.0,-62.50122,71.40564,-26.85608
1766498835390,-0.94433594,-0.27246094,0.15673828,-0.30517578,0.7324219,-0.30517578,0.0,0.0,0.0,-62.50122,71.40564,-26.85608
1766498835402,-0.94433594,-0.27246094,0.15673828,-0.30517578,0.7324219,-0.30517578,0.0,0.0,0.0,-62.297974,71.41113,-26.619873
1766498835490,-0.9560547,-0.27783203,0.14404297,0.24414062,0.12207031,-0.30517578,0.0,0.0,0.0,-62.297974,71.41113,-26.619873
1766498835501,-0.9560547,-0.27783203,0.14404297,0.24414062,0.12207031,-0.30517578,0.0,0.0,0.0,-62.199097,71.39465,-26.564941
1766498835589,-0.9472656,-0.27441406,0.14746094,-0.4272461,-1.159668,0.30517578,0.0,0.0,0.0,-62.199097,71.39465,-26.564941
1766498835601,-0.9472656,-0.27441406,0.14746094,-0.4272461,-1.159668,0.30517578,0.0,0.0,0.0,-62.215576,71.40564,-26.592407
1766498835689,-0.9506836,-0.2734375,0.14892578,0.24414062,0.61035156,-0.4272461,0.0,0.0,0.0,-62.215576,71.40564,-26.592407
1766498835701,-0.9506836,-0.2734375,0.14892578,0.24414062,0.61035156,-0.4272461,0.0,0.0,0.0,-62.199097,71.41113,-26.58142
1766498835789,-0.9511719,-0.27490234,0.1459961,-0.061035156,0.12207031,-0.24414062,0.0,0.0,0.0,-62.199097,71.41113,-26.58142
1766498835800,-0.9511719,-0.27490234,0.1459961,-0.061035156,0.12207031,-0.24414062,0.0,0.0,0.0,-62.20459,71.41113,-26.5979
1766498835889,-0.9506836,-0.27685547,0.14550781,0.12207031,-0.24414062,-0.061035156,0.0,0.0,0.0,-62.20459,71.41113,-26.5979
1766498835900,-0.9506836,-0.27685547,0.14550781,0.12207031,-0.24414062,-0.061035156,0.0,0.0,0.0,-62.1167,71.38367,-26.531982
1766498835988,-0.95166016,-0.27539062,0.14550781,0.18310547,-0.12207031,-0.30517578,0.0,0.0,0.0,-62.1167,71.38367,-26.531982
1766498836000,-0.95166016,-0.27539062,0.14550781,0.18310547,-0.12207031,-0.30517578,0.0,0.0,0.0,-62.13318,71.38916,-26.553955
1766498836088,-0.9472656,-0.27734375,0.14746094,1.3427734,-0.061035156,-0.18310547,0.0,0.0,0.0,-62.13318,71.38916,-26.553955
1766498836099,-0.9472656,-0.27734375,0.14746094,1.3427734,-0.061035156,-0.18310547,0.0,0.0,0.0,-62.193604,71.41113,-26.641846
1766498836188,-0.9550781,-0.27929688,0.1381836,-0.12207031,-1.5258789,0.6713867,0.0,0.0,0.0,-62.193604,71.41113,-26.641846
1766498836199,-0.9550781,-0.27929688,0.1381836,-0.12207031,-1.5258789,0.6713867,0.0,0.0,0.0,-62.01233,71.39465,-26.460571
1766498836287,-0.94873047,-0.27490234,0.14453125,0.8544922,-0.5493164,-0.36621094,0.0,0.0,0.0,-62.01233,71.39465,-26.460571
1766498836299,-0.94873047,-0.27490234,0.14453125,0.8544922,-0.5493164,-0.36621094,0.0,0.0,0.0,-62.0343,71.40015,-26.488037
1766498836387,-0.9472656,-0.27539062,0.14746094,-0.061035156,1.2817383,-0.36621094,0.0,0.0,0.0,-62.0343,71.40015,-26.488037
1766498836399,-0.9472656,-0.27539062,0.14746094,-0.061035156,1.2817383,-0.36621094,0.0,0.0,0.0,-62.18811,71.41113,-26.685791
1766498836487,-0.9550781,-0.27539062,0.140625,0.12207031,1.3427734,-0.24414062,0.0,0.0,0.0,-62.18811,71.41113,-26.685791
1766498836499,-0.9550781,-0.27539062,0.140625,0.12207031,1.3427734,-0.24414062,0.0,0.0,0.0,-62.407837,71.416626,-26.905518
1766498836587,-0.9501953,-0.27539062,0.14453125,1.0375977,1.3427734,-1.159668,0.0,0.0,0.0,-62.407837,71.416626,-26.905518
1766498836599,-0.9501953,-0.27539062,0.14453125,1.0375977,1.3427734,-1.159668,0.0,0.0,0.0,-62.979126,71.449585,-27.57019
1766498836686,-0.9501953,-0.27490234,0.1430664,0.79345703,1.3427734,-0.91552734,0.0,0.0,0.0,-62.979126,71.449585,-27.57019
1766498836698,-0.9501953,-0.27490234,0.1430664,0.79345703,1.3427734,-0.91552734,0.0,0.0,0.0,-63.286743,71.433105,-27.960205
1766498836786,-0.9511719,-0.27734375,0.13916016,0.61035156,1.7700195,-0.8544922,0.0,0.0,0.0,-63.286743,71.433105,-27.960205
1766498836798,-0.9511719,-0.27734375,0.13916016,0.61035156,1.7700195,-0.8544922,0.0,0.0,0.0,-63.6438,71.433105,-28.394165
1766498836886,-0.95214844,-0.28076172,0.13183594,0.24414062,1.3427734,-0.7324219,0.0,0.0,0.0,-63.6438,71.433105,-28.394165
1766498836897,-0.95214844,-0.28076172,0.13183594,0.24414062,1.3427734,-0.7324219,0.0,0.0,0.0,-64.13269,71.449585,-28.948975
1766498836986,-0.9477539,-0.2734375,0.14453125,1.159668,1.4038086,-1.0375977,0.0,0.0,0.0,-64.13269,71.449585,-28.948975
1766498836997,-0.9477539,-0.2734375,0.14453125,1.159668,1.4038086,-1.0375977,0.0,0.0,0.0,-64.660034,71.466064,-29.54773
1766498837085,-0.94433594,-0.2763672,0.13623047,0.61035156,2.6245117,-1.0375977,0.0,0.0,0.0,-64.660034,71.466064,-29.54773
1766498837097,-0.94433594,-0.2763672,0.13623047,0.61035156,2.6245117,-1.0375977,0.0,0.0,0.0,-64.6051,71.45508,-29.448853
1766498837185,-0.9584961,-0.28125,0.12890625,0.24414062,0.48828125,-0.48828125,0.0,0.0,0.0,-64.6051,71.45508,-29.448853
1766498837197,-0.9584961,-0.28125,0.12890625,0.24414062,0.48828125,-0.48828125,0.0,0.0,0.0,-64.81384,71.45508,-29.66858
1766498837285,-0.94628906,-0.2788086,0.13623047,0.5493164,1.0986328,-0.61035156,0.0,0.0,0.0,-64.81384,71.45508,-29.66858
1766498837296,-0.94628906,-0.2788086,0.13623047,0.5493164,1.0986328,-0.61035156,0.0,0.0,0.0,-65.09949,71.45508,-29.976196
1766498837385,-0.95458984,-0.28173828,0.1274414,0.36621094,1.0375977,-0.48828125,0.0,0.0,0.0,-65.09949,71.45508,-29.976196
1766498837396,-0.95458984,-0.28173828,0.1274414,0.36621094,1.0375977,-0.48828125,0.0,0.0,0.0,-65.26428,71.47156,-30.108032
1766498837484,-0.94921875,-0.28125,0.1303711,-0.48828125,-0.24414062,-0.12207031,0.0,0.0,0.0,-65.26428,71.47156,-30.108032
1766498837496,-0.94921875,-0.28125,0.1303711,-0.48828125,-0.24414062,-0.12207031,0.0,0.0,0.0,-65.357666,71.466064,-30.15747
1766498837584,-0.94873047,-0.28027344,0.13232422,-0.24414062,-0.48828125,0.0,0.0,0.0,0.0,-65.357666,71.466064,-30.15747
1766498837596,-0.94873047,-0.28027344,0.13232422,-0.24414062,-0.48828125,0.0,0.0,0.0,0.0,-65.20935,71.45508,-29.926758
1766498837684,-0.95166016,-0.27929688,0.1328125,-0.5493164,-0.9765625,0.061035156,0.0,0.0,0.0,-65.20935,71.45508,-29.926758
1766498837696,-0.95166016,-0.27929688,0.1328125,-0.5493164,-0.9765625,0.061035156,0.0,0.0,0.0,-65.07202,71.45508,-29.679565
1766498837783,-0.94433594,-0.28173828,0.13378906,0.18310547,-1.0986328,0.18310547,0.0,0.0,0.0,-65.07202,71.45508,-29.679565
1766498837795,-0.94433594,-0.28173828,0.13378906,0.18310547,-1.0986328,0.18310547,0.0,0.0,0.0,-64.643555,71.44409,-29.11377
1766498837883,-0.9555664,-0.2836914,0.12890625,-1.2817383,-2.5634766,0.91552734,0.0,0.0,0.0,-64.643555,71.44409,-29.11377
1766498837895,-0.9555664,-0.2836914,0.12890625,-1.2817383,-2.5634766,0.91552734,0.0,0.0,0.0,-64.209595,71.42212,-28.591919
1766498837983,-0.9453125,-0.2788086,0.13964844,0.0,-0.8544922,0.36621094,0.0,0.0,0.0,-64.209595,71.42212,-28.591919
1766498837995,-0.9453125,-0.2788086,0.13964844,0.0,-0.8544922,0.36621094,0.0,0.0,0.0,-63.98987,71.4386,-28.284302
1766498838083,-0.9526367,-0.2783203,0.13427734,-0.48828125,-0.12207031,0.18310547,0.0,0.0,0.0,-63.98987,71.4386,-28.284302
1766498838094,-0.9526367,-0.2783203,0.13427734,-0.48828125,-0.12207031,0.18310547,0.0,0.0,0.0,-63.81958,71.45508,-28.064575
1766498838182,-0.9501953,-0.27734375,0.13378906,-0.61035156,-1.3427734,0.36621094,0.0,0.0,0.0,-63.81958,71.45508,-28.064575
1766498838194,-0.9501953,-0.27734375,0.13378906,-0.61035156,-1.3427734,0.36621094,0.0,0.0,0.0,-63.671265,71.45508,-27.866821
1766498838282,-0.95166016,-0.2783203,0.14208984,-0.18310547,-0.30517578,0.12207031,0.0,0.0,0.0,-63.671265,71.45508,-27.866821
1766498838294,-0.95166016,-0.2783203,0.14208984,-0.18310547,-0.30517578,0.12207031,0.0,0.0,0.0,-63.632812,71.482544,-27.806396
1766498838382,-0.94921875,-0.27685547,0.13916016,-0.36621094,-0.7324219,0.0,0.0,0.0,0.0,-63.632812,71.482544,-27.806396
1766498838393,-0.94921875,-0.27685547,0.13916016,-0.36621094,-0.7324219,0.0,0.0,0.0,0.0,-63.517456,71.466064,-27.652588
1766498838481,-0.9511719,-0.27441406,0.14257812,-0.48828125,-0.6713867,0.0,0.0,0.0,0.0,-63.517456,71.466064,-27.652588
1766498838494,-0.9511719,-0.27441406,0.14257812,-0.48828125,-0.6713867,0.0,0.0,0.0,0.0,-63.38562,71.449585,-27.49878
1766498838581,-0.9506836,-0.2783203,0.1352539,0.0,-0.79345703,0.0,0.0,0.0,0.0,-63.38562,71.449585,-27.49878
1766498838593,-0.9506836,-0.2783203,0.1352539,0.0,-0.79345703,0.0,0.0,0.0,0.0,-63.242798,71.45508,-27.366943
1766498838681,-0.9501953,-0.27392578,0.15283203,-0.12207031,0.79345703,-0.5493164,0.0,0.0,0.0,-63.242798,71.45508,-27.366943
1766498838693,-0.9501953,-0.27392578,0.15283203,-0.12207031,0.79345703,-0.5493164,0.0,0.0,0.0,-63.220825,71.46057,-27.36145
1766498838781,-0.9506836,-0.2734375,0.14160156,-0.7324219,0.48828125,0.12207031,0.0,0.0,0.0,-63.220825,71.46057,-27.36145
1766498838792,-0.9506836,-0.2734375,0.14160156,-0.7324219,0.48828125,0.12207031,0.0,0.0,0.0,-62.89673,71.45508,-26.976929
1766498838881,-0.9560547,-0.2763672,0.14013672,0.0,-0.5493164,-0.18310547,0.0,0.0,0.0,-62.89673,71.45508,-26.976929
1766498838892,-0.9560547,-0.2763672,0.14013672,0.0,-0.5493164,-0.18310547,0.0,0.0,0.0,-62.852783,71.44409,-26.971436
1766498838980,-0.94628906,-0.2734375,0.14746094,0.061035156,-0.061035156,-0.12207031,0.0,0.0,0.0,-62.852783,71.44409,-26.971436
1766498838992,-0.94628906,-0.2734375,0.14746094,0.061035156,-0.061035156,-0.12207031,0.0,0.0,0.0,-62.841797,71.45508,-26.971436
1766498839080,-0.95410156,-0.27539062,0.14111328,0.061035156,0.36621094,-0.061035156,0.0,0.0,0.0,-62.841797,71.45508,-26.971436
1766498839091,-0.95410156,-0.27539062,0.14111328,0.061035156,0.36621094,-0.061035156,0.0,0.0,0.0,-62.644043,71.449585,-26.762695
1766498839180,-0.94970703,-0.2758789,0.14501953,-0.18310547,-0.61035156,0.0,0.0,0.0,0.0,-62.644043,71.449585,-26.762695
1766498839191,-0.94970703,-0.2758789,0.14501953,-0.18310547,-0.61035156,0.0,0.0,0.0,0.0,-62.611084,71.44409,-26.746216
1766498839280,-0.9501953,-0.27441406,0.1459961,0.12207031,-0.24414062,-0.12207031,0.0,0.0,0.0,-62.611084,71.44409,-26.746216
1766498839291,-0.9501953,-0.27441406,0.1459961,0.12207031,-0.24414062,-0.12207031,0.0,0.0,0.0,-62.528687,71.44409,-26.680298
1766498839379,-0.9501953,-0.2734375,0.14697266,0.24414062,0.0,-0.18310547,0.0,0.0,0.0,-62.528687,71.44409,-26.680298
1766498839391,-0.9501953,-0.2734375,0.14697266,0.24414062,0.0,-0.18310547,0.0,0.0,0.0,-62.46277,71.4386,-26.641846
1766498839479,-0.94921875,-0.2705078,0.15673828,-0.12207031,0.48828125,-0.24414062,0.0,0.0,0.0,-62.46277,71.4386,-26.641846
1766498839490,-0.94921875,-0.2705078,0.15673828,-0.12207031,0.48828125,-0.24414062,0.0,0.0,0.0,-62.46826,71.449585,-26.680298
1766498839578,-0.95166016,-0.27490234,0.14892578,-0.4272461,-2.4414062,0.36621094,0.0,0.0,0.0,-62.46826,71.449585,-26.680298
1766498839590,-0.95166016,-0.27490234,0.14892578,-0.4272461,-2.4414062,0.36621094,0.0,0.0,0.0,-62.473755,71.42761,-26.746216
1766498839678,-0.94189453,-0.27441406,0.15527344,0.48828125,-0.30517578,-0.36621094,0.0,0.0,0.0,-62.473755,71.42761,-26.746216
1766498839690,-0.94189453,-0.27441406,0.15527344,0.48828125,-0.30517578,-0.36621094,0.0,0.0,0.0,-62.281494,71.42212,-26.542969
1766498839778,-0.9526367,-0.2758789,0.14550781,0.061035156,0.0,-0.061035156,0.0,0.0,0.0,-62.281494,71.42212,-26.542969
1766498839790,-0.9526367,-0.2758789,0.14550781,0.061035156,0.0,-0.061035156,0.0,0.0,0.0,-62.14966,71.40564,-26.455078
1766498839878,-0.95166016,-0.27392578,0.14697266,-0.24414062,-0.6713867,0.24414062,0.0,0.0,0.0,-62.14966,71.40564,-26.455078
1766498839889,-0.95166016,-0.27392578,0.14697266,-0.24414062,-0.6713867,0.24414062,0.0,0.0,0.0,-62.061768,71.40015,-26.361694
1766498839977,-0.94921875,-0.2758789,0.14746094,0.36621094,0.4272461,-0.36621094,0.0,0.0,0.0,-62.061768,71.40015,-26.361694
1766498839989,-0.94921875,-0.2758789,0.14746094,0.36621094,0.4272461,-0.36621094,0.0,0.0,0.0,-62.072754,71.41113,-26.394653
1766498840077,-0.95166016,-0.27294922,0.14746094,0.061035156,-0.061035156,-0.18310547,0.0,0.0,0.0,-62.072754,71.41113,-26.394653
1766498840089,-0.95166016,-0.27294922,0.14746094,0.061035156,-0.061035156,-0.18310547,0.0,0.0,0.0,-62.056274,71.40015,-26.38916
1766498840177,-0.94970703,-0.27441406,0.14794922,0.18310547,-0.36621094,-0.12207031,0.0,0.0,0.0,-62.056274,71.40015,-26.38916
1766498840188,-0.94970703,-0.27441406,0.14794922,0.18310547,-0.36621094,-0.12207031,0.0,0.0,0.0,-61.99585,71.39465,-26.367188
1766498840277,-0.9526367,-0.27539062,0.1459961,0.12207031,-0.30517578,0.0,0.0,0.0,0.0,-61.99585,71.39465,-26.367188
1766498840288,-0.9526367,-0.27539062,0.1459961,0.12207031,-0.30517578,0.0,0.0,0.0,0.0,-61.96289,71.39465,-26.345215
1766498840376,-0.9477539,-0.27685547,0.14550781,1.5258789,-0.18310547,-0.36621094,0.0,0.0,0.0,-61.96289,71.39465,-26.345215
1766498840388,-0.9477539,-0.27685547,0.14550781,1.5258789,-0.18310547,-0.36621094,0.0,0.0,0.0,-62.023315,71.40564,-26.438599
1766498840476,-0.9550781,-0.2783203,0.13671875,0.36621094,-1.4648438,0.36621094,0.0,0.0,0.0,-62.023315,71.40564,-26.438599
1766498840488,-0.9550781,-0.2783203,0.13671875,0.36621094,-1.4648438,0.36621094,0.0,0.0,0.0,-61.89148,71.378174,-26.350708
1766498840576,-0.9477539,-0.27539062,0.14355469,1.159668,0.91552734,-0.91552734,0.0,0.0,0.0,-61.89148,71.378174,-26.350708
1766498840587,-0.9477539,-0.27539062,0.14355469,1.159668,0.91552734,-0.91552734,0.0,0.0,0.0,-62.243042,71.40015,-26.768188
1766498840676,-0.94677734,-0.27294922,0.14746094,0.0,1.5869141,-0.79345703,0.0,0.0,0.0,-62.243042,71.40015,-26.768188
1766498840687,-0.94677734,-0.27294922,0.14746094,0.0,1.5869141,-0.79345703,0.0,0.0,0.0,-62.627563,71.40564,-27.235107
1766498840775,-0.95214844,-0.28076172,0.140625,-0.48828125,1.0986328,-0.12207031,0.0,0.0,0.0,-62.627563,71.40564,-27.235107
1766498840787,-0.95214844,-0.28076172,0.140625,-0.48828125,1.0986328,-0.12207031,0.0,0.0,0.0,-63.028564,71.42761,-27.696533
1766498840875,-0.9477539,-0.2788086,0.14160156,1.0986328,2.0751953,-0.9765625,0.0,0.0,0.0,-63.028564,71.42761,-27.696533
1766498840887,-0.9477539,-0.2788086,0.14160156,1.0986328,2.0751953,-0.9765625,0.0,0.0,0.0,-63.484497,71.449585,-28.201904
1766498840975,-0.9506836,-0.2788086,0.14013672,0.48828125,1.2207031,-0.91552734,0.0,0.0,0.0,-63.484497,71.449585,-28.201904
1766498840987,-0.9506836,-0.2788086,0.14013672,0.48828125,1.2207031,-0.91552734,0.0,0.0,0.0,-63.901978,71.46057,-28.668823
1766498841075,-0.9506836,-0.27929688,0.13623047,0.30517578,1.4648438,-0.5493164,0.0,0.0,0.0,-63.901978,71.46057,-28.668823
1766498841086,-0.9506836,-0.27929688,0.13623047,0.30517578,1.4648438,-0.5493164,0.0,0.0,0.0,-64.25903,71.44409,-29.069824
1766498841174,-0.94921875,-0.28173828,0.1328125,0.48828125,1.3427734,-0.6713867,0.0,0.0,0.0,-64.25903,71.44409,-29.069824
1766498841186,-0.94921875,-0.28173828,0.1328125,0.48828125,1.3427734,-0.6713867,0.0,0.0,0.0,-64.660034,71.46057,-29.509277
1766498841274,-0.94628906,-0.27392578,0.13964844,0.36621094,0.5493164,-0.6713867,0.0,0.0,0.0,-64.660034,71.46057,-29.509277
1766498841286,-0.94628906,-0.27392578,0.13964844,0.36621094,0.5493164,-0.6713867,0.0,0.0,0.0,-64.87427,71.449585,-29.701538
1766498841374,-0.9477539,-0.27734375,0.1328125,-1.0375977,-0.9765625,0.18310547,0.0,0.0,0.0,-64.87427,71.449585,-29.701538
1766498841385,-0.9477539,-0.27734375,0.1328125,-1.0375977,-0.9765625,0.18310547,0.0,0.0,0.0,-64.522705,71.4386,-29.207153
1766498841473,-0.95410156,-0.28320312,0.13720703,-0.9765625,-1.2817383,0.8544922,0.0,0.0,0.0,-64.522705,71.4386,-29.207153
1766498841485,-0.95410156,-0.28320312,0.13720703,-0.9765625,-1.2817383,0.8544922,0.0,0.0,0.0,-64.072266,71.44409,-28.591919
1766498841573,-0.94921875,-0.2758789,0.14404297,0.18310547,0.5493164,-0.24414062,0.0,0.0,0.0,-64.072266,71.44409,-28.591919
1766498841585,-0.94921875,-0.2758789,0.14404297,0.18310547,0.5493164,-0.24414062,0.0,0.0,0.0,-63.841553,71.4386,-28.273315
1766498841673,-0.95214844,-0.27783203,0.13330078,-0.061035156,0.91552734,0.0,0.0,0.0,0.0,-63.841553,71.4386,-28.273315
1766498841684,-0.95214844,-0.27783203,0.13330078,-0.061035156,0.91552734,0.0,0.0,0.0,0.0,-63.929443,71.47156,-28.328247
1766498841773,-0.94628906,-0.2788086,0.13769531,-0.18310547,0.18310547,-0.36621094,0.0,0.0,0.0,-63.929443,71.47156,-28.328247
1766498841784,-0.94628906,-0.2788086,0.13769531,-0.18310547,0.18310547,-0.36621094,0.0,0.0,0.0,-64.11072,71.47705,-28.498535
1766498841872,-0.9506836,-0.2758789,0.13916016,-0.061035156,-0.24414062,-0.061035156,0.0,0.0,0.0,-64.11072,71.47705,-28.498535
1766498841884,-0.9506836,-0.2758789,0.13916016,-0.061035156,-0.24414062,-0.061035156,0.0,0.0,0.0,-63.98987,71.46057,-28.339233
1766498841972,-0.9482422,-0.2788086,0.14208984,-0.30517578,-0.24414062,-0.12207031,0.0,0.0,0.0,-63.98987,71.46057,-28.339233
1766498841983,-0.9482422,-0.2788086,0.14208984,-0.30517578,-0.24414062,-0.12207031,0.0,0.0,0.0,-63.87451,71.45508,-28.201904
1766498842072,-0.9536133,-0.27929688,0.13427734,-0.30517578,-0.4272461,0.18310547,0.0,0.0,0.0,-63.87451,71.45508,-28.201904
1766498842083,-0.9536133,-0.27929688,0.13427734,-0.30517578,-0.4272461,0.18310547,0.0,0.0,0.0,-63.59436,71.44409,-27.872314
1766498842171,-0.9482422,-0.27490234,0.15429688,0.0,1.4648438,-0.48828125,0.0,0.0,0.0,-63.59436,71.44409,-27.872314
1766498842183,-0.9482422,-0.27490234,0.15429688,0.0,1.4648438,-0.48828125,0.0,0.0,0.0,-63.759155,71.466064,-28.053589
1766498842271,-0.9482422,-0.27441406,0.140625,-0.4272461,1.159668,-0.12207031,0.0,0.0,0.0,-63.759155,71.466064,-28.053589
1766498842283,-0.9482422,-0.27441406,0.140625,-0.4272461,1.159668,-0.12207031,0.0,0.0,0.0,-63.462524,71.47156,-27.685547
1766498842371,-0.9560547,-0.2763672,0.1381836,0.48828125,0.79345703,-0.36621094,0.0,0.0,0.0,-63.462524,71.47156,-27.685547
1766498842383,-0.9560547,-0.2763672,0.1381836,0.48828125,0.79345703,-0.36621094,0.0,0.0,0.0,-63.484497,71.47705,-27.718506
1766498842471,-0.9482422,-0.27197266,0.14111328,-0.061035156,0.0,0.0,0.0,0.0,0.0,-63.484497,71.47705,-27.718506
1766498842482,-0.9482422,-0.27197266,0.14111328,-0.061035156,0.0,0.0,0.0,0.0,0.0,-63.468018,71.48804,-27.680054
1766498842570,-0.95458984,-0.27783203,0.13867188,-0.061035156,-0.18310547,-0.18310547,0.0,0.0,0.0,-63.468018,71.48804,-27.680054
1766498842582,-0.95458984,-0.27783203,0.13867188,-0.061035156,-0.18310547,-0.18310547,0.0,0.0,0.0,-63.253784,71.482544,-27.416382
1766498842670,-0.9506836,-0.2783203,0.14208984,-0.18310547,-0.61035156,-0.061035156,0.0,0.0,0.0,-63.253784,71.482544,-27.416382
1766498842682,-0.9506836,-0.2783203,0.14208984,-0.18310547,-0.61035156,-0.061035156,0.0,0.0,0.0,-63.12195,71.466064,-27.27356
1766498842770,-0.9501953,-0.2783203,0.14160156,0.061035156,-0.6713867,-0.061035156,0.0,0.0,0.0,-63.12195,71.466064,-27.27356
1766498842782,-0.9501953,-0.2783203,0.14160156,0.061035156,-0.6713867,-0.061035156,0.0,0.0,0.0,-62.946167,71.45508,-27.092285
1766498842869,-0.9506836,-0.27392578,0.14355469,0.061035156,-0.30517578,0.12207031,0.0,0.0,0.0,-62.946167,71.45508,-27.092285
1766498842881,-0.9506836,-0.27392578,0.14355469,0.061035156,-0.30517578,0.12207031,0.0,0.0,0.0,-62.79785,71.44409,-26.92749
1766498842969,-0.94970703,-0.27294922,0.15185547,0.91552734,0.4272461,-0.30517578,0.0,0.0,0.0,-62.79785,71.44409,-26.92749
1766498842981,-0.94970703,-0.27294922,0.15185547,0.91552734,0.4272461,-0.30517578,0.0,0.0,0.0,-62.666016,71.45508,-26.784668
1766498843069,-0.9526367,-0.27783203,0.14160156,-0.7324219,-2.6245117,0.6713867,0.0,0.0,0.0,-62.666016,71.45508,-26.784668
1766498843081,-0.9526367,-0.27783203,0.14160156,-0.7324219,-2.6245117,0.6713867,0.0,0.0,0.0,-62.600098,71.42761,-26.757202
1766498843169,-0.9448242,-0.27246094,0.14941406,0.7324219,0.061035156,-0.30517578,0.0,0.0,0.0,-62.600098,71.42761,-26.757202
1766498843181,-0.9448242,-0.27246094,0.14941406,0.7324219,0.061035156,-0.30517578,0.0,0.0,0.0,-62.46277,71.42761,-26.592407
1766498843268,-0.953125,-0.27441406,0.14355469,-0.30517578,0.0,-0.12207031,0.0,0.0,0.0,-62.46277,71.42761,-26.592407
1766498843280,-0.953125,-0.27441406,0.14355469,-0.30517578,0.0,-0.12207031,0.0,0.0,0.0,-62.330933,71.42212,-26.471558
1766498843368,-0.94921875,-0.2758789,0.1459961,-0.30517578,-0.79345703,0.18310547,0.0,0.0,0.0,-62.330933,71.42212,-26.471558
1766498843380,-0.94921875,-0.2758789,0.1459961,-0.30517578,-0.79345703,0.18310547,0.0,0.0,0.0,-62.226562,71.416626,-26.37268
1766498843468,-0.9501953,-0.27685547,0.1484375,0.24414062,0.30517578,-0.5493164,0.0,0.0,0.0,-62.226562,71.416626,-26.37268
1766498843480,-0.9501953,-0.27685547,0.1484375,0.24414062,0.30517578,-0.5493164,0.0,0.0,0.0,-62.265015,71.40564,-26.444092
1766498843568,-0.9511719,-0.27392578,0.14697266,0.12207031,-0.36621094,-0.061035156,0.0,0.0,0.0,-62.265015,71.40564,-26.444092
1766498843579,-0.9511719,-0.27392578,0.14697266,0.12207031,-0.36621094,-0.061035156,0.0,0.0,0.0,-62.22107,71.38916,-26.40564
1766498843668,-0.9501953,-0.2758789,0.14794922,0.061035156,0.0,-0.18310547,0.0,0.0,0.0,-62.22107,71.38916,-26.40564
1766498843679,-0.9501953,-0.2758789,0.14794922,0.061035156,0.0,-0.18310547,0.0,0.0,0.0,-62.127686,71.378174,-26.345215
1766498843767,-0.9526367,-0.2758789,0.14208984,0.61035156,0.30517578,-0.36621094,0.0,0.0,0.0,-62.127686,71.378174,-26.345215
1766498843779,-0.9526367,-0.2758789,0.14208984,0.61035156,0.30517578,-0.36621094,0.0,0.0,0.0,-62.105713,71.37268,-26.356201
1766498843867,-0.9506836,-0.27246094,0.15429688,0.0,2.1362305,-0.6713867,0.0,0.0,0.0,-62.105713,71.37268,-26.356201
1766498843879,-0.9506836,-0.27246094,0.15429688,0.0,2.1362305,-0.6713867,0.0,0.0,0.0,-62.347412,71.38367,-26.685791
1766498843966,-0.95166016,-0.27685547,0.14404297,0.4272461,2.4414062,-0.9765625,0.0,0.0,0.0,-62.347412,71.38367,-26.685791
1766498843978,-0.95166016,-0.27685547,0.14404297,0.4272461,2.4414062,-0.9765625,0.0,0.0,0.0,-62.451782,71.39465,-26.812134
1766498844066,-0.9555664,-0.27929688,0.13964844,1.8310547,2.5024414,-1.3427734,0.0,0.0,0.0,-62.451782,71.39465,-26.812134
1766498844078,-0.9555664,-0.27929688,0.13964844,1.8310547,2.5024414,-1.3427734,0.0,0.0,0.0,-63.078003,71.42212,-27.57019
1766498844166,-0.9482422,-0.2783203,0.14257812,0.48828125,2.2583008,-1.5869141,0.0,0.0,0.0,-63.078003,71.42212,-27.57019
1766498844178,-0.9482422,-0.2783203,0.14257812,0.48828125,2.2583008,-1.5869141,0.0,0.0,0.0,-63.71521,71.40015,-28.31726
1766498844266,-0.94970703,-0.28125,0.1328125,2.2583008,3.540039,-1.8920898,0.0,0.0,0.0,-63.71521,71.40015,-28.31726
1766498844277,-0.94970703,-0.28125,0.1328125,2.2583008,3.540039,-1.8920898,0.0,0.0,0.0,-64.297485,71.35071,-29.014893
1766498844365,-0.94970703,-0.2836914,0.13476562,0.24414062,0.30517578,-0.30517578,0.0,0.0,0.0,-64.297485,71.35071,-29.014893
1766498844377,-0.94970703,-0.2836914,0.13476562,0.24414062,0.30517578,-0.30517578,0.0,0.0,0.0,-64.49524,71.361694,-29.251099
1766498844465,-0.94677734,-0.27929688,0.13671875,0.48828125,1.5869141,-0.79345703,0.0,0.0,0.0,-64.49524,71.361694,-29.251099
1766498844477,-0.94677734,-0.27929688,0.13671875,0.48828125,1.5869141,-0.79345703,0.0,0.0,0.0,-64.78638,71.35071,-29.536743
1766498844565,-0.94921875,-0.2836914,0.12939453,0.48828125,0.91552734,-0.79345703,0.0,0.0,0.0,-64.78638,71.35071,-29.536743
1766498844577,-0.94921875,-0.2836914,0.12939453,0.48828125,0.91552734,-0.79345703,0.0,0.0,0.0,-65.12146,71.345215,-29.904785
1766498844665,-0.94384766,-0.2788086,0.13427734,2.0751953,1.953125,-1.4038086,0.0,0.0,0.0,-65.12146,71.345215,-29.904785
1766498844676,-0.94384766,-0.2788086,0.13427734,2.0751953,1.953125,-1.4038086,0.0,0.0,0.0,-65.45654,71.3562,-30.289307
1766498844764,-0.9482422,-0.28173828,0.1274414,0.0,1.8920898,-0.7324219,0.0,0.0,0.0,-65.45654,71.3562,-30.289307
1766498844776,-0.9482422,-0.28173828,0.1274414,0.0,1.8920898,-0.7324219,0.0,0.0,0.0,-65.47302,71.328735,-30.250854
1766498844864,-0.95214844,-0.28173828,0.13085938,0.36621094,-0.7324219,-0.5493164,0.0,0.0,0.0,-65.47302,71.328735,-30.250854
1766498844876,-0.95214844,-0.28173828,0.13085938,0.36621094,-0.7324219,-0.5493164,0.0,0.0,0.0,-65.57739,71.30127,-30.355225
1766498844964,-0.94384766,-0.28857422,0.13574219,0.0,0.061035156,-0.24414062,0.0,0.0,0.0,-65.57739,71.30127,-30.355225
1766498844975,-0.94384766,-0.28857422,0.13574219,0.0,0.061035156,-0.24414062,0.0,0.0,0.0,-65.47302,71.257324,-30.283813
1766498845063,-0.9506836,-0.28076172,0.12695312,-0.061035156,0.4272461,0.0,0.0,0.0,0.0,-65.47302,71.257324,-30.283813
1766498845075,-0.9506836,-0.28076172,0.12695312,-0.061035156,0.4272461,0.0,0.0,0.0,0.0,-65.30823,71.25183,-30.020142
1766498845163,-0.94873047,-0.28515625,0.1303711,-0.4272461,-0.7324219,0.5493164,0.0,0.0,0.0,-65.30823,71.25183,-30.020142
1766498845175,-0.94873047,-0.28515625,0.1303711,-0.4272461,-0.7324219,0.5493164,0.0,0.0,0.0,-65.198364,71.2793,-29.84436
1766498845263,-0.9472656,-0.28466797,0.13427734,-1.2207031,-0.12207031,0.48828125,0.0,0.0,0.0,-65.198364,71.2793,-29.84436
1766498845275,-0.9472656,-0.28466797,0.13427734,-1.2207031,-0.12207031,0.48828125,0.0,0.0,0.0,-64.973145,71.29578,-29.498291
1766498845363,-0.9536133,-0.2783203,0.1303711,-1.0375977,-0.6713867,0.48828125,0.0,0.0,0.0,-64.973145,71.29578,-29.498291
1766498845374,-0.9536133,-0.2783203,0.1303711,-1.0375977,-0.6713867,0.48828125,0.0,0.0,0.0,-64.956665,71.345215,-29.300537
1766498845462,-0.94677734,-0.27783203,0.1430664,0.18310547,1.159668,0.0,0.0,0.0,0.0,-64.956665,71.345215,-29.300537
1766498845474,-0.94677734,-0.27783203,0.1430664,0.18310547,1.159668,0.0,0.0,0.0,0.0,-65.03357,71.416626,-29.349976
1766498845562,-0.9506836,-0.28173828,0.13427734,-1.2817383,0.30517578,-0.061035156,0.0,0.0,0.0,-65.03357,71.416626,-29.349976
1766498845574,-0.9506836,-0.28173828,0.13427734,-1.2817383,0.30517578,-0.061035156,0.0,0.0,0.0,-64.75342,71.416626,-28.943481
1766498845662,-0.9536133,-0.27978516,0.13427734,-0.18310547,-0.061035156,0.061035156,0.0,0.0,0.0,-64.75342,71.416626,-28.943481
1766498845674,-0.9536133,-0.27978516,0.13427734,-0.18310547,-0.061035156,0.061035156,0.0,0.0,0.0,-64.87976,71.42761,-28.981934
1766498845762,-0.9472656,-0.27783203,0.13720703,0.5493164,0.0,0.061035156,0.0,0.0,0.0,-64.87976,71.42761,-28.981934
1766498845773,-0.9472656,-0.27783203,0.13720703,0.5493164,0.0,0.061035156,0.0,0.0,0.0,-64.747925,71.45508,-28.817139
1766498845861,-0.953125,-0.2783203,0.13427734,-0.4272461,0.0,0.18310547,0.0,0.0,0.0,-64.747925,71.45508,-28.817139
1766498845873,-0.953125,-0.2783203,0.13427734,-0.4272461,0.0,0.18310547,0.0,0.0,0.0,-64.37988,71.466064,-28.372192
1766498845961,-0.95214844,-0.28027344,0.1352539,-0.48828125,-1.0986328,0.24414062,0.0,0.0,0.0,-64.37988,71.466064,-28.372192
1766498845973,-0.95214844,-0.28027344,0.1352539,-0.48828125,-1.0986328,0.24414062,0.0,0.0,0.0,-64.23157,71.466064,-28.174438
1766498846061,-0.94970703,-0.2783203,0.13867188,0.0,-0.8544922,0.24414062,0.0,0.0,0.0,-64.23157,71.466064,-28.174438
1766498846072,-0.94970703,-0.2783203,0.13867188,0.0,-0.8544922,0.24414062,0.0,0.0,0.0,-63.929443,71.46057,-27.822876
1766498846160,-0.953125,-0.27441406,0.13916016,-0.48828125,-1.0375977,0.24414062,0.0,0.0,0.0,-63.929443,71.46057,-27.822876
1766498846172,-0.953125,-0.27441406,0.13916016,-0.48828125,-1.0375977,0.24414062,0.0,0.0,0.0,-63.62732,71.449585,-27.460327
1766498846260,-0.94921875,-0.28076172,0.1381836,1.4648438,-0.18310547,0.0,0.0,0.0,0.0,-63.62732,71.449585,-27.460327
1766498846272,-0.94921875,-0.28076172,0.1381836,1.4648438,-0.18310547,0.0,0.0,0.0,0.0,-63.484497,71.45508,-27.328491
1766498846360,-0.95458984,-0.27929688,0.1303711,-1.3427734,-3.6010742,0.8544922,0.0,0.0,0.0,-63.484497,71.45508,-27.328491
1766498846372,-0.95458984,-0.27929688,0.1303711,-1.3427734,-3.6010742,0.8544922,0.0,0.0,0.0,-63.198853,71.41113,-27.009888
1766498846460,-0.94677734,-0.27685547,0.14404297,0.24414062,-0.7324219,-0.12207031,0.0,0.0,0.0,-63.198853,71.41113,-27.009888
1766498846471,-0.94677734,-0.27685547,0.14404297,0.24414062,-0.7324219,-0.12207031,0.0,0.0,0.0,-63.110962,71.42212,-26.921997
1766498846559,-0.94970703,-0.27490234,0.14257812,-0.12207031,0.0,0.0,0.0,0.0,0.0,-63.110962,71.42212,-26.921997
1766498846571,-0.94970703,-0.27490234,0.14257812,-0.12207031,0.0,0.0,0.0,0.0,0.0,-62.957153,71.42212,-26.779175
1766498846659,-0.95166016,-0.27685547,0.14160156,-0.30517578,-0.91552734,0.30517578,0.0,0.0,0.0,-62.957153,71.42212,-26.779175
1766498846671,-0.95166016,-0.27685547,0.14160156,-0.30517578,-0.91552734,0.30517578,0.0,0.0,0.0,-62.770386,71.416626,-26.603394
1766498846759,-0.9477539,-0.27490234,0.14648438,0.12207031,0.24414062,-0.4272461,0.0,0.0,0.0,-62.770386,71.416626,-26.603394
1766498846770,-0.9477539,-0.27490234,0.14648438,0.12207031,0.24414062,-0.4272461,0.0,0.0,0.0,-62.79236,71.416626,-26.647339
1766498846859,-0.95166016,-0.2734375,0.1459961,-0.12207031,-0.4272461,0.0,0.0,0.0,0.0,-62.79236,71.416626,-26.647339
1766498846870,-0.95166016,-0.2734375,0.1459961,-0.12207031,-0.4272461,0.0,0.0,0.0,0.0,-62.649536,71.41113,-26.515503
1766498846958,-0.94873047,-0.27490234,0.14746094,0.0,0.0,0.0,0.0,0.0,0.0,-62.649536,71.41113,-26.515503
1766498846970,-0.94873047,-0.27490234,0.14746094,0.0,0.0,0.0,0.0,0.0,0.0,-62.50122,71.40564,-26.38916
1766498847058,-0.9501953,-0.27392578,0.1430664,0.36621094,0.18310547,-0.24414062,0.0,0.0,0.0,-62.50122,71.40564,-26.38916
1766498847069,-0.9501953,-0.27392578,0.1430664,0.36621094,0.18310547,-0.24414062,0.0,0.0,0.0,-62.407837,71.40564,-26.339722
1766498847158,-0.95166016,-0.27197266,0.16064453,0.12207031,1.2817383,-0.79345703,0.0,0.0,0.0,-62.407837,71.40564,-26.339722
1766498847169,-0.95166016,-0.27197266,0.16064453,0.12207031,1.2817383,-0.79345703,0.0,0.0,0.0,-62.479248,71.39465,-26.49353
1766498847257,-0.94970703,-0.27294922,0.1508789,-0.18310547,1.3427734,-0.30517578,0.0,0.0,0.0,-62.479248,71.39465,-26.49353
1766498847269,-0.94970703,-0.27294922,0.1508789,-0.18310547,1.3427734,-0.30517578,0.0,0.0,0.0,-62.243042,71.39465,-26.240845
1766498847357,-0.9555664,-0.27490234,0.14501953,0.061035156,0.12207031,-0.061035156,0.0,0.0,0.0,-62.243042,71.39465,-26.240845
1766498847369,-0.9555664,-0.27490234,0.14501953,0.061035156,0.12207031,-0.061035156,0.0,0.0,0.0,-62.160645,71.38916,-26.185913
1766498847457,-0.94677734,-0.27197266,0.15136719,-0.24414062,-0.30517578,0.0,0.0,0.0,0.0,-62.160645,71.38916,-26.185913
1766498847468,-0.94677734,-0.27197266,0.15136719,-0.24414062,-0.30517578,0.0,0.0,0.0,0.0,-62.17163,71.40564,-26.213379
1766498847557,-0.9536133,-0.27490234,0.14697266,0.30517578,0.48828125,-0.48828125,0.0,0.0,0.0,-62.17163,71.40564,-26.213379
1766498847568,-0.9536133,-0.27490234,0.14697266,0.30517578,0.48828125,-0.48828125,0.0,0.0,0.0,-62.05078,71.40564,-26.114502
1766498847656,-0.9506836,-0.27441406,0.14746094,0.12207031,0.0,-0.24414062,0.0,0.0,0.0,-62.05078,71.40564,-26.114502
1766498847668,-0.9506836,-0.27441406,0.14746094,0.12207031,0.0,-0.24414062,0.0,0.0,0.0,-62.08374,71.39465,-26.174927
1766498847756,-0.9501953,-0.27392578,0.14892578,0.0,-0.24414062,-0.061035156,0.0,0.0,0.0,-62.08374,71.39465,-26.174927
1766498847768,-0.9501953,-0.27392578,0.14892578,0.0,-0.24414062,-0.061035156,0.0,0.0,0.0,-62.039795,71.38916,-26.141968
1766498847856,-0.94921875,-0.27539062,0.15234375,0.061035156,0.30517578,-0.061035156,0.0,0.0,0.0,-62.039795,71.38916,-26.141968
1766498847867,-0.94921875,-0.27539062,0.15234375,0.061035156,0.30517578,-0.061035156,0.0,0.0,0.0,-61.973877,71.39465,-26.087036
1766498847956,-0.9482422,-0.27294922,0.15185547,-0.18310547,1.0986328,-0.18310547,0.0,0.0,0.0,-61.973877,71.39465,-26.087036
1766498847967,-0.9482422,-0.27294922,0.15185547,-0.18310547,1.0986328,-0.18310547,0.0,0.0,0.0,-61.973877,71.41113,-26.119995
1766498848055,-0.95214844,-0.2680664,0.15820312,-0.30517578,0.36621094,-0.30517578,0.0,0.0,0.0,-61.973877,71.41113,-26.119995
1766498848067,-0.95214844,-0.2680664,0.15820312,-0.30517578,0.36621094,-0.30517578,0.0,0.0,0.0,-62.023315,71.38916,-26.224365
1766498848155,-0.94628906,-0.2705078,0.15673828,-0.30517578,0.7324219,-0.30517578,0.0,0.0,0.0,-62.023315,71.38916,-26.224365
1766498848167,-0.94628906,-0.2705078,0.15673828,-0.30517578,0.7324219,-0.30517578,0.0,0.0,0.0,-61.80359,71.40015,-25.949707
1766498848255,-0.9555664,-0.27539062,0.14892578,0.061035156,0.18310547,-0.12207031,0.0,0.0,0.0,-61.80359,71.40015,-25.949707
1766498848266,-0.9555664,-0.27539062,0.14892578,0.061035156,0.18310547,-0.12207031,0.0,0.0,0.0,-61.710205,71.39465,-25.889282
1766498848355,-0.9472656,-0.27294922,0.15136719,-0.30517578,-0.6713867,-0.061035156,0.0,0.0,0.0,-61.710205,71.39465,-25.889282
1766498848366,-0.9472656,-0.27294922,0.15136719,-0.30517578,-0.6713867,-0.061035156,0.0,0.0,0.0,-61.704712,71.39465,-25.889282
1766498848454,-0.95410156,-0.27539062,0.14648438,1.159668,1.0986328,-1.0375977,0.0,0.0,0.0,-61.704712,71.39465,-25.889282
1766498848466,-0.95410156,-0.27539062,0.14648438,1.159668,1.0986328,-1.0375977,0.0,0.0,0.0,-61.66626,71.38367,-25.922241
1766498848554,-0.953125,-0.2758789,0.14404297,0.24414062,1.8920898,-0.48828125,0.0,0.0,0.0,-61.66626,71.38367,-25.922241
1766498848566,-0.953125,-0.2758789,0.14404297,0.24414062,1.8920898,-0.48828125,0.0,0.0,0.0,-61.990356,71.38367,-26.350708
1766498848654,-0.95166016,-0.2763672,0.1430664,0.48828125,1.8310547,-0.7324219,0.0,0.0,0.0,-61.990356,71.38367,-26.350708
1766498848665,-0.95166016,-0.2763672,0.1430664,0.48828125,1.8310547,-0.7324219,0.0,0.0,0.0,-62.523193,71.42212,-26.965942
1766498848753,-0.9477539,-0.2763672,0.14648438,0.4272461,2.1972656,-0.8544922,0.0,0.0,0.0,-62.523193,71.42212,-26.965942
1766498848765,-0.9477539,-0.2763672,0.14648438,0.4272461,2.1972656,-0.8544922,0.0,0.0,0.0,-63.045044,71.449585,-27.564697
1766498848853,-0.94970703,-0.27734375,0.13769531,0.5493164,1.7700195,-0.79345703,0.0,0.0,0.0,-63.045044,71.449585,-27.564697
1766498848865,-0.94970703,-0.27734375,0.13769531,0.5493164,1.7700195,-0.79345703,0.0,0.0,0.0,-63.54492,71.466064,-28.157959
1766498848953,-0.94873047,-0.2705078,0.15039062,1.5258789,3.1738281,-1.6479492,0.0,0.0,0.0,-63.54492,71.466064,-28.157959
1766498848964,-0.94873047,-0.2705078,0.15039062,1.5258789,3.1738281,-1.6479492,0.0,0.0,0.0,-64.30298,71.482544,-29.064331
1766498849053,-0.9472656,-0.27490234,0.13769531,0.36621094,2.8686523,-1.0375977,0.0,0.0,0.0,-64.30298,71.482544,-29.064331
1766498849064,-0.9472656,-0.27490234,0.13769531,0.36621094,2.8686523,-1.0375977,0.0,0.0,0.0,-64.489746,71.49353,-29.262085
1766498849152,-0.9555664,-0.28125,0.12988281,0.36621094,1.0986328,-0.7324219,0.0,0.0,0.0,-64.489746,71.49353,-29.262085
1766498849164,-0.9555664,-0.28125,0.12988281,0.36621094,1.0986328,-0.7324219,0.0,0.0,0.0,-64.96216,71.49353,-29.800415
1766498849252,-0.9477539,-0.28076172,0.13134766,0.79345703,1.3427734,-0.91552734,0.0,0.0,0.0,-64.96216,71.49353,-29.800415
1766498849264,-0.9477539,-0.28076172,0.13134766,0.79345703,1.3427734,-0.91552734,0.0,0.0,0.0,-65.4126,71.49353,-30.300293
1766498849352,-0.9511719,-0.28320312,0.1274414,0.7324219,1.2207031,-1.0375977,0.0,0.0,0.0,-65.4126,71.49353,-30.300293
1766498849363,-0.9511719,-0.28320312,0.1274414,0.7324219,1.2207031,-1.0375977,0.0,0.0,0.0,-65.54443,71.47156,-30.41565
1766498849451,-0.94970703,-0.28173828,0.12988281,-0.061035156,0.4272461,-0.4272461,0.0,0.0,0.0,-65.54443,71.47156,-30.41565
1766498849463,-0.94970703,-0.28173828,0.12988281,-0.061035156,0.4272461,-0.4272461,0.0,0.0,0.0,-65.64331,71.449585,-30.465088
1766498849551,-0.94921875,-0.28125,0.13232422,-0.48828125,-0.8544922,0.061035156,0.0,0.0,0.0,-65.64331,71.449585,-30.465088
1766498849563,-0.94921875,-0.28125,0.13232422,-0.48828125,-0.8544922,0.061035156,0.0,0.0,0.0,-65.53345,71.42761,-30.26184
1766498849651,-0.953125,-0.28027344,0.12939453,-0.79345703,-0.7324219,0.18310547,0.0,0.0,0.0,-65.53345,71.42761,-30.26184
1766498849662,-0.953125,-0.28027344,0.12939453,-0.79345703,-0.7324219,0.18310547,0.0,0.0,0.0,-65.29175,71.42212,-29.915771
1766498849751,-0.9511719,-0.27929688,0.13574219,-0.79345703,-0.12207031,0.061035156,0.0,0.0,0.0,-65.29175,71.42212,-29.915771
1766498849762,-0.9511719,-0.27929688,0.13574219,-0.79345703,-0.12207031,0.061035156,0.0,0.0,0.0,-65.09949,71.416626,-29.624634
1766498849850,-0.9560547,-0.2836914,0.13330078,-0.8544922,-1.7700195,0.36621094,0.0,0.0,0.0,-65.09949,71.416626,-29.624634
1766498849862,-0.9560547,-0.2836914,0.13330078,-0.8544922,-1.7700195,0.36621094,0.0,0.0,0.0,-65.12695,71.42212,-29.641113
1766498849950,-0.94384766,-0.27685547,0.13867188,0.4272461,0.12207031,-0.18310547,0.0,0.0,0.0,-65.12695,71.42212,-29.641113
1766498849962,-0.94384766,-0.27685547,0.13867188,0.4272461,0.12207031,-0.18310547,0.0,0.0,0.0,-64.93469,71.41113,-29.366455
1766498850050,-0.953125,-0.2836914,0.13134766,0.0,-0.24414062,-0.18310547,0.0,0.0,0.0,-64.93469,71.41113,-29.366455
1766498850061,-0.953125,-0.2836914,0.13134766,0.0,-0.24414062,-0.18310547,0.0,0.0,0.0,-64.7699,71.41113,-29.190674
1766498850150,-0.9501953,-0.27783203,0.13232422,-0.36621094,-0.8544922,0.12207031,0.0,0.0,0.0,-64.7699,71.41113,-29.190674
1766498850162,-0.9501953,-0.27783203,0.13232422,-0.36621094,-0.8544922,0.12207031,0.0,0.0,0.0,-64.70398,71.41113,-29.08081
1766498850249,-0.94970703,-0.2788086,0.13574219,0.061035156,0.4272461,-0.24414062,0.0,0.0,0.0,-64.70398,71.41113,-29.08081
1766498850261,-0.94970703,-0.2788086,0.13574219,0.061035156,0.4272461,-0.24414062,0.0,0.0,0.0,-64.64905,71.416626,-28.987427
1766498850349,-0.9511719,-0.28076172,0.1328125,-0.36621094,-0.5493164,0.0,0.0,0.0,0.0,-64.64905,71.416626,-28.987427
1766498850361,-0.9511719,-0.28076172,0.1328125,-0.36621094,-0.5493164,0.0,0.0,0.0,0.0,-64.57764,71.416626,-28.87207
1766498850449,-0.9501953,-0.27978516,0.13574219,0.0,-0.061035156,-0.061035156,0.0,0.0,0.0,-64.57764,71.416626,-28.87207
1766498850461,-0.9501953,-0.27978516,0.13574219,0.0,-0.061035156,-0.061035156,0.0,0.0,0.0,-64.49524,71.42212,-28.734741
1766498850549,-0.9511719,-0.27734375,0.13867188,-0.18310547,0.12207031,-0.30517578,0.0,0.0,0.0,-64.49524,71.42212,-28.734741
1766498850560,-0.9511719,-0.27734375,0.13867188,-0.18310547,0.12207031,-0.30517578,0.0,0.0,0.0,-64.434814,71.416626,-28.635864
1766498850648,-0.94921875,-0.27685547,0.14355469,-0.9765625,0.48828125,0.0,0.0,0.0,0.0,-64.434814,71.416626,-28.635864
1766498850660,-0.94921875,-0.27685547,0.14355469,-0.9765625,0.48828125,0.0,0.0,0.0,0.0,-64.434814,71.42761,-28.597412
1766498850748,-0.9506836,-0.27148438,0.15039062,1.0375977,0.61035156,-0.6713867,0.0,0.0,0.0,-64.434814,71.42761,-28.597412
1766498850760,-0.9506836,-0.27148438,0.15039062,1.0375977,0.61035156,-0.6713867,0.0,0.0,0.0,-64.58313,71.42212,-28.80066
1766498850848,-0.9458008,-0.2758789,0.1430664,0.9765625,1.4648438,-0.61035156,0.0,0.0,0.0,-64.58313,71.42212,-28.80066
1766498850860,-0.9458008,-0.2758789,0.1430664,0.9765625,1.4648438,-0.61035156,0.0,0.0,0.0,-64.30298,71.416626,-28.460083
1766498850948,-0.95458984,-0.28027344,0.1352539,0.18310547,0.36621094,-0.18310547,0.0,0.0,0.0,-64.30298,71.416626,-28.460083
1766498850959,-0.95458984,-0.28027344,0.1352539,0.18310547,0.36621094,-0.18310547,0.0,0.0,0.0,-64.2041,71.41113,-28.361206
1766498851048,-0.9501953,-0.27783203,0.13769531,-0.91552734,-0.9765625,0.5493164,0.0,0.0,0.0,-64.2041,71.41113,-28.361206
1766498851059,-0.9501953,-0.27783203,0.13769531,-0.91552734,-0.9765625,0.5493164,0.0,0.0,0.0,-64.088745,71.433105,-28.179932
1766498851147,-0.9511719,-0.27392578,0.13867188,-0.6713867,0.48828125,0.061035156,0.0,0.0,0.0,-64.088745,71.433105,-28.179932
1766498851158,-0.9511719,-0.27392578,0.13867188,-0.6713867,0.48828125,0.061035156,0.0,0.0,0.0,-63.825073,71.46057,-27.789917
1766498851247,-0.9536133,-0.28027344,0.13916016,-0.18310547,-0.36621094,-0.061035156,0.0,0.0,0.0,-63.825073,71.46057,-27.789917
1766498851258,-0.9536133,-0.28027344,0.13916016,-0.18310547,-0.36621094,-0.061035156,0.0,0.0,0.0,-63.847046,71.47705,-27.817383
1766498851347,-0.9506836,-0.27685547,0.13964844,0.0,-0.5493164,-0.12207031,0.0,0.0,0.0,-63.847046,71.47705,-27.817383
1766498851358,-0.9506836,-0.27685547,0.13964844,0.0,-0.5493164,-0.12207031,0.0,0.0,0.0,-63.676758,71.46057,-27.630615
1766498851446,-0.95214844,-0.27734375,0.140625,-0.48828125,-0.24414062,0.30517578,0.0,0.0,0.0,-63.676758,71.46057,-27.630615
1766498851458,-0.95214844,-0.27734375,0.140625,-0.48828125,-0.24414062,0.30517578,0.0,0.0,0.0,-63.53943,71.47156,-27.46582
1766498851546,-0.94873047,-0.2705078,0.14501953,-0.8544922,1.3427734,0.0,0.0,0.0,0.0,-63.53943,71.47156,-27.46582
1766498851557,-0.94873047,-0.2705078,0.14501953,-0.8544922,1.3427734,0.0,0.0,0.0,0.0,-63.753662,71.54297,-27.608643
1766498851646,-0.95166016,-0.26757812,0.15283203,0.24414062,0.0,-0.36621094,0.0,0.0,0.0,-63.753662,71.54297,-27.608643
1766498851657,-0.95166016,-0.26757812,0.15283203,0.24414062,0.0,-0.36621094,0.0,0.0,0.0,-63.86902,71.54846,-27.751465
1766498851745,-0.9458008,-0.2734375,0.14697266,0.8544922,1.953125,-0.7324219,0.0,0.0,0.0,-63.86902,71.54846,-27.751465
1766498851757,-0.9458008,-0.2734375,0.14697266,0.8544922,1.953125,-0.7324219,0.0,0.0,0.0,-63.50647,71.54297,-27.34497
1766498851845,-0.95654297,-0.2763672,0.13720703,0.30517578,0.61035156,-0.36621094,0.0,0.0,0.0,-63.50647,71.54297,-27.34497
1766498851857,-0.95654297,-0.2763672,0.13720703,0.30517578,0.61035156,-0.36621094,0.0,0.0,0.0,-63.308716,71.520996,-27.180176
1766498851945,-0.9501953,-0.2734375,0.140625,-0.36621094,-0.91552734,0.0,0.0,0.0,0.0,-63.308716,71.520996,-27.180176
1766498851957,-0.9501953,-0.2734375,0.140625,-0.36621094,-0.91552734,0.0,0.0,0.0,0.0,-63.253784,71.5155,-27.13623
1766498852045,-0.9501953,-0.27441406,0.14208984,-0.12207031,0.12207031,-0.061035156,0.0,0.0,0.0,-63.253784,71.5155,-27.13623
1766498852056,-0.9501953,-0.27441406,0.14208984,-0.12207031,0.12207031,-0.061035156,0.0,0.0,0.0,-63.12195,71.520996,-26.987915
1766498852144,-0.9506836,-0.2758789,0.14111328,-0.48828125,-0.30517578,0.0,0.0,0.0,0.0,-63.12195,71.520996,-26.987915
1766498852156,-0.9506836,-0.2758789,0.14111328,-0.48828125,-0.30517578,0.0,0.0,0.0,0.0,-63.078003,71.53198,-26.921997
1766498852244,-0.95214844,-0.2709961,0.14160156,0.18310547,0.0,-0.18310547,0.0,0.0,0.0,-63.078003,71.53198,-26.921997
1766498852256,-0.95214844,-0.2709961,0.14160156,0.18310547,0.0,-0.18310547,0.0,0.0,0.0,-62.93518,71.53198,-26.757202
1766498852344,-0.9511719,-0.2763672,0.1459961,-0.36621094,0.5493164,0.0,0.0,0.0,0.0,-62.93518,71.53198,-26.757202
1766498852355,-0.9511719,-0.2763672,0.1459961,-0.36621094,0.5493164,0.0,0.0,0.0,0.0,-62.93518,71.537476,-26.779175
1766498852443,-0.9501953,-0.27148438,0.14501953,-0.12207031,0.48828125,-0.4272461,0.0,0.0,0.0,-62.93518,71.537476,-26.779175
1766498852455,-0.9501953,-0.27148438,0.14501953,-0.12207031,0.48828125,-0.4272461,0.0,0.0,0.0,-62.90222,71.537476,-26.746216
1766498852543,-0.9501953,-0.26611328,0.15478516,0.5493164,0.61035156,-0.48828125,0.0,0.0,0.0,-62.90222,71.537476,-26.746216
1766498852555,-0.9501953,-0.26611328,0.15478516,0.5493164,0.61035156,-0.48828125,0.0,0.0,0.0,-63.078003,71.54297,-26.976929
1766498852643,-0.94433594,-0.2705078,0.14990234,0.8544922,2.1362305,-0.91552734,0.0,0.0,0.0,-63.078003,71.54297,-26.976929
1766498852655,-0.94433594,-0.2705078,0.14990234,0.8544922,2.1362305,-0.91552734,0.0,0.0,0.0,-62.869263,71.54846,-26.757202
1766498852743,-0.9550781,-0.2758789,0.140625,0.48828125,0.24414062,-0.36621094,0.0,0.0,0.0,-62.869263,71.54846,-26.757202
1766498852755,-0.9550781,-0.2758789,0.140625,0.48828125,0.24414062,-0.36621094,0.0,0.0,0.0,-62.698975,71.520996,-26.647339
1766498852843,-0.94921875,-0.27148438,0.14257812,-0.48828125,-1.6479492,0.18310547,0.0,0.0,0.0,-62.698975,71.520996,-26.647339
1766498852854,-0.94921875,-0.27148438,0.14257812,-0.48828125,-1.6479492,0.18310547,0.0,0.0,0.0,-62.435303,71.48804,-26.378174
1766498852942,-0.9506836,-0.2763672,0.14697266,0.12207031,0.36621094,-0.30517578,0.0,0.0,0.0,-62.435303,71.48804,-26.378174
1766498852954,-0.9506836,-0.2763672,0.14697266,0.12207031,0.36621094,-0.30517578,0.0,0.0,0.0,-62.25952,71.482544,-26.213379
1766498853042,-0.95214844,-0.27392578,0.14892578,-0.12207031,0.36621094,-0.061035156,0.0,0.0,0.0,-62.25952,71.482544,-26.213379
1766498853053,-0.95214844,-0.27392578,0.14892578,-0.12207031,0.36621094,-0.061035156,0.0,0.0,0.0,-62.276,71.48804,-26.240845
1766498853142,-0.953125,-0.2680664,0.14990234,-0.6713867,0.5493164,0.48828125,0.0,0.0,0.0,-62.276,71.48804,-26.240845
1766498853154,-0.953125,-0.2680664,0.14990234,-0.6713867,0.5493164,0.48828125,0.0,0.0,0.0,-62.34192,71.5155,-26.290283
1766498853241,-0.9501953,-0.27392578,0.14746094,-0.36621094,0.48828125,-0.4272461,0.0,0.0,0.0,-62.34192,71.5155,-26.290283
1766498853253,-0.9501953,-0.27392578,0.14746094,-0.36621094,0.48828125,-0.4272461,0.0,0.0,0.0,-62.347412,71.54297,-26.28479
1766498853341,-0.95410156,-0.2709961,0.14697266,-0.12207031,-0.30517578,-0.18310547,0.0,0.0,0.0,-62.347412,71.54297,-26.28479
1766498853353,-0.95410156,-0.2709961,0.14697266,-0.12207031,-0.30517578,-0.18310547,0.0,0.0,0.0,-62.127686,71.5155,-26.04309
1766498853441,-0.9506836,-0.26953125,0.16015625,0.0,-0.91552734,-0.18310547,0.0,0.0,0.0,-62.127686,71.5155,-26.04309
1766498853452,-0.9506836,-0.26953125,0.16015625,0.0,-0.91552734,-0.18310547,0.0,0.0,0.0,-62.05078,71.482544,-26.026611
1766498853540,-0.9482422,-0.27294922,0.15478516,-0.4272461,0.48828125,-0.061035156,0.0,0.0,0.0,-62.05078,71.482544,-26.026611
1766498853552,-0.9482422,-0.27294922,0.15478516,-0.4272461,0.48828125,-0.061035156,0.0,0.0,0.0,-61.644287,71.47156,-25.603638
1766498853640,-0.9550781,-0.27539062,0.14550781,1.2207031,-1.0375977,-0.12207031,0.0,0.0,0.0,-61.644287,71.47156,-25.603638
1766498853652,-0.9550781,-0.27539062,0.14550781,1.2207031,-1.0375977,-0.12207031,0.0,0.0,0.0,-61.397095,71.449585,-25.43335
1766498853740,-0.9482422,-0.2685547,0.15332031,0.061035156,-1.0375977,0.0,0.0,0.0,0.0,-61.397095,71.449585,-25.43335
1766498853751,-0.9482422,-0.2685547,0.15332031,0.061035156,-1.0375977,0.0,0.0,0.0,0.0,-61.270752,71.433105,-25.356445
1766498853840,-0.95166016,-0.26953125,0.15283203,0.24414062,0.61035156,-0.30517578,0.0,0.0,0.0,-61.270752,71.433105,-25.356445
1766498853851,-0.95166016,-0.26953125,0.15283203,0.24414062,0.61035156,-0.30517578,0.0,0.0,0.0,-61.12793,71.433105,-25.257568
1766498853939,-0.9472656,-0.27001953,0.1538086,0.0,0.4272461,-0.24414062,0.0,0.0,0.0,-61.12793,71.433105,-25.257568
1766498853951,-0.9472656,-0.27001953,0.1538086,0.0,0.4272461,-0.24414062,0.0,0.0,0.0,-61.193848,71.44409,-25.361938
1766498854039,-0.9506836,-0.27246094,0.15136719,0.48828125,0.30517578,-0.36621094,0.0,0.0,0.0,-61.193848,71.44409,-25.361938
1766498854050,-0.9506836,-0.27246094,0.15136719,0.48828125,0.30517578,-0.36621094,0.0,0.0,0.0,-61.155396,71.449585,-25.367432
1766498854139,-0.9511719,-0.27246094,0.15136719,-0.18310547,0.061035156,-0.12207031,0.0,0.0,0.0,-61.155396,71.449585,-25.367432
1766498854150,-0.9511719,-0.27246094,0.15136719,-0.18310547,0.061035156,-0.12207031,0.0,0.0,0.0,-61.133423,71.44409,-25.383911
1766498854238,-0.94921875,-0.26904297,0.16113281,-0.24414062,0.7324219,-0.18310547,0.0,0.0,0.0,-61.133423,71.44409,-25.383911
1766498854250,-0.94921875,-0.26904297,0.16113281,-0.24414062,0.7324219,-0.18310547,0.0,0.0,0.0,-61.17737,71.449585,-25.438843
1766498854338,-0.95214844,-0.27294922,0.15673828,-0.4272461,-1.953125,0.36621094,0.0,0.0,0.0,-61.17737,71.449585,-25.438843
1766498854350,-0.95214844,-0.27294922,0.15673828,-0.4272461,-1.953125,0.36621094,0.0,0.0,0.0,-61.14441,71.44409,-25.438843
1766498854438,-0.9448242,-0.26953125,0.16210938,0.12207031,-0.12207031,-0.12207031,0.0,0.0,0.0,-61.14441,71.44409,-25.438843
1766498854449,-0.9448242,-0.26953125,0.16210938,0.12207031,-0.12207031,-0.12207031,0.0,0.0,0.0,-60.95215,71.4386,-25.230103
1766498854538,-0.9506836,-0.27246094,0.15332031,-0.24414062,0.4272461,-0.24414062,0.0,0.0,0.0,-60.95215,71.4386,-25.230103
1766498854549,-0.9506836,-0.27246094,0.15332031,-0.24414062,0.4272461,-0.24414062,0.0,0.0,0.0,-60.836792,71.42761,-25.164185
1766498854637,-0.9501953,-0.2685547,0.1508789,-0.24414062,-0.6713867,0.0,0.0,0.0,0.0,-60.836792,71.42761,-25.164185
1766498854649,-0.9501953,-0.2685547,0.1508789,-0.24414062,-0.6713867,0.0,0.0,0.0,0.0,-60.792847,71.41113,-25.131226
1766498854737,-0.9526367,-0.27001953,0.15332031,0.30517578,0.4272461,-0.4272461,0.0,0.0,0.0,-60.792847,71.41113,-25.131226
1766498854749,-0.9526367,-0.27001953,0.15332031,0.30517578,0.4272461,-0.4272461,0.0,0.0,0.0,-60.792847,71.42761,-25.164185
1766498854837,-0.9501953,-0.27197266,0.1538086,0.0,0.36621094,-0.24414062,0.0,0.0,0.0,-60.792847,71.42761,-25.164185
1766498854848,-0.9501953,-0.27197266,0.1538086,0.0,0.36621094,-0.24414062,0.0,0.0,0.0,-60.875244,71.433105,-25.268555
1766498854936,-0.9501953,-0.27246094,0.15136719,0.8544922,0.48828125,-0.7324219,0.0,0.0,0.0,-60.875244,71.433105,-25.268555
1766498854948,-0.9501953,-0.27246094,0.15136719,0.8544922,0.48828125,-0.7324219,0.0,0.0,0.0,-60.913696,71.416626,-25.383911
1766498855036,-0.9526367,-0.2709961,0.15039062,-0.12207031,1.953125,-0.48828125,0.0,0.0,0.0,-60.913696,71.416626,-25.383911
1766498855048,-0.9526367,-0.2709961,0.15039062,-0.12207031,1.953125,-0.48828125,0.0,0.0,0.0,-61.325684,71.44409,-25.828857
1766498855136,-0.9477539,-0.27148438,0.15136719,1.2207031,2.5024414,-1.4038086,0.0,0.0,0.0,-61.325684,71.44409,-25.828857
1766498855148,-0.9477539,-0.27148438,0.15136719,1.2207031,2.5024414,-1.4038086,0.0,0.0,0.0,-61.90796,71.49353,-26.449585
1766498855236,-0.95751953,-0.28515625,0.1381836,-0.12207031,-0.12207031,0.4272461,0.0,0.0,0.0,-61.90796,71.49353,-26.449585
1766498855247,-0.95751953,-0.28515625,0.1381836,-0.12207031,-0.12207031,0.4272461,0.0,0.0,0.0,-62.539673,71.54846,-27.158203
1766498855335,-0.94384766,-0.27246094,0.14501953,1.2817383,1.4648438,-0.5493164,0.0,0.0,0.0,-62.539673,71.54846,-27.158203
1766498855347,-0.94384766,-0.27246094,0.14501953,1.2817383,1.4648438,-0.5493164,0.0,0.0,0.0,-62.973633,71.586914,-27.60315
1766498855435,-0.95166016,-0.27441406,0.14013672,0.79345703,2.1972656,-1.4038086,0.0,0.0,0.0,-62.973633,71.586914,-27.60315
1766498855447,-0.95166016,-0.27441406,0.14013672,0.79345703,2.1972656,-1.4038086,0.0,0.0,0.0,-63.204346,71.55945,-27.888794
1766498855535,-0.95166016,-0.27685547,0.13574219,0.24414062,0.79345703,-0.5493164,0.0,0.0,0.0,-63.204346,71.55945,-27.888794
1766498855546,-0.95166016,-0.27685547,0.13574219,0.24414062,0.79345703,-0.5493164,0.0,0.0,0.0,-63.517456,71.54846,-28.240356
1766498855635,-0.9506836,-0.2788086,0.13769531,0.24414062,1.2817383,-0.6713867,0.0,0.0,0.0,-63.517456,71.54846,-28.240356
1766498855646,-0.9506836,-0.2788086,0.13769531,0.24414062,1.2817383,-0.6713867,0.0,0.0,0.0,-64.055786,71.56494,-28.822632
1766498855734,-0.95166016,-0.27490234,0.1352539,0.5493164,0.7324219,-0.7324219,0.0,0.0,0.0,-64.055786,71.56494,-28.822632
1766498855746,-0.95166016,-0.27490234,0.1352539,0.5493164,0.7324219,-0.7324219,0.0,0.0,0.0,-64.23706,71.553955,-28.998413
1766498855834,-0.95166016,-0.2788086,0.1352539,0.36621094,1.0986328,-0.7324219,0.0,0.0,0.0,-64.23706,71.553955,-28.998413
1766498855845,-0.95166016,-0.2788086,0.1352539,0.36621094,1.0986328,-0.7324219,0.0,0.0,0.0,-64.59961,71.553955,-29.388428
1766498855934,-0.94873047,-0.2788086,0.1352539,0.4272461,1.0375977,-0.7324219,0.0,0.0,0.0,-64.59961,71.553955,-29.388428
1766498855945,-0.94873047,-0.2788086,0.1352539,0.4272461,1.0375977,-0.7324219,0.0,0.0,0.0,-64.764404,71.53198,-29.525757
1766498856033,-0.9560547,-0.28710938,0.12939453,-0.4272461,-1.2817383,0.18310547,0.0,0.0,0.0,-64.764404,71.53198,-29.525757
1766498856045,-0.9560547,-0.28710938,0.12939453,-0.4272461,-1.2817383,0.18310547,0.0,0.0,0.0,-64.7699,71.482544,-29.564209
1766498856133,-0.9477539,-0.2783203,0.13623047,0.91552734,-0.79345703,-0.4272461,0.0,0.0,0.0,-64.7699,71.482544,-29.564209
1766498856145,-0.9477539,-0.2783203,0.13623047,0.91552734,-0.79345703,-0.4272461,0.0,0.0,0.0,-64.79736,71.45508,-29.580688
1766498856233,-0.94433594,-0.27978516,0.1381836,-0.061035156,-0.30517578,-0.36621094,0.0,0.0,0.0,-64.79736,71.45508,-29.580688
1766498856244,-0.94433594,-0.27978516,0.1381836,-0.061035156,-0.30517578,-0.36621094,0.0,0.0,0.0,-64.64905,71.42212,-29.399414
1766498856333,-0.95214844,-0.28222656,0.13085938,-1.3427734,-1.159668,0.4272461,0.0,0.0,0.0,-64.64905,71.42212,-29.399414
1766498856344,-0.95214844,-0.28222656,0.13085938,-1.3427734,-1.159668,0.4272461,0.0,0.0,0.0,-64.418335,71.40564,-29.047852
1766498856432,-0.94873047,-0.27783203,0.13867188,-0.30517578,-0.8544922,0.0,0.0,0.0,0.0,-64.418335,71.40564,-29.047852
1766498856444,-0.94873047,-0.27783203,0.13867188,-0.30517578,-0.8544922,0.0,0.0,0.0,0.0,-64.35791,71.40564,-28.88855
1766498856532,-0.9501953,-0.2788086,0.14013672,-0.30517578,-0.79345703,0.18310547,0.0,0.0,0.0,-64.35791,71.40564,-28.88855
1766498856543,-0.9501953,-0.2788086,0.14013672,-0.30517578,-0.79345703,0.18310547,0.0,0.0,0.0,-64.1272,71.39465,-28.591919
1766498856632,-0.95166016,-0.28076172,0.13867188,-0.48828125,-0.4272461,0.18310547,0.0,0.0,0.0,-64.1272,71.39465,-28.591919
1766498856643,-0.95166016,-0.28076172,0.13867188,-0.48828125,-0.4272461,0.18310547,0.0,0.0,0.0,-64.017334,71.39465,-28.410645
1766498856731,-0.9477539,-0.28027344,0.1328125,0.12207031,0.48828125,0.0,0.0,0.0,0.0,-64.017334,71.39465,-28.410645
1766498856743,-0.9477539,-0.28027344,0.1328125,0.12207031,0.48828125,0.0,0.0,0.0,0.0,-63.929443,71.416626,-28.190918
1766498856831,-0.9560547,-0.28320312,0.12792969,-1.5869141,-2.746582,1.0986328,0.0,0.0,0.0,-63.929443,71.416626,-28.190918
1766498856843,-0.9560547,-0.28320312,0.12792969,-1.5869141,-2.746582,1.0986328,0.0,0.0,0.0,-63.92395,71.44409,-28.14148
1766498856931,-0.9458008,-0.27783203,0.13916016,-0.061035156,-0.36621094,0.24414062,0.0,0.0,0.0,-63.92395,71.44409,-28.14148
1766498856943,-0.9458008,-0.27783203,0.13916016,-0.061035156,-0.36621094,0.24414062,0.0,0.0,0.0,-63.81958,71.47705,-27.960205
1766498857031,-0.9555664,-0.2788086,0.13671875,-0.6713867,-0.6713867,0.24414062,0.0,0.0,0.0,-63.81958,71.47705,-27.960205
1766498857043,-0.9555664,-0.2788086,0.13671875,-0.6713867,-0.6713867,0.24414062,0.0,0.0,0.0,-63.71521,71.49353,-27.817383
1766498857131,-0.95214844,-0.27685547,0.13623047,-0.5493164,-1.159668,0.4272461,0.0,0.0,0.0,-63.71521,71.49353,-27.817383
1766498857142,-0.95214844,-0.27685547,0.13623047,-0.5493164,-1.159668,0.4272461,0.0,0.0,0.0,-63.55591,71.49353,-27.625122
1766498857230,-0.9501953,-0.27685547,0.14208984,-0.18310547,-0.30517578,0.0,0.0,0.0,0.0,-63.55591,71.49353,-27.625122
1766498857242,-0.9501953,-0.27685547,0.14208984,-0.18310547,-0.30517578,0.0,0.0,0.0,0.0,-63.50647,71.50452,-27.548218
1766498857330,-0.9506836,-0.2734375,0.1430664,-0.24414062,-0.61035156,0.061035156,0.0,0.0,0.0,-63.50647,71.50452,-27.548218
1766498857341,-0.9506836,-0.2734375,0.1430664,-0.24414062,-0.61035156,0.061035156,0.0,0.0,0.0,-63.33069,71.49902,-27.317505
1766498857429,-0.94970703,-0.27441406,0.14208984,0.0,0.0,-0.12207031,0.0,0.0,0.0,-63.33069,71.49902,-27.317505
1766498857441,-0.94970703,-0.27441406,0.14208984,0.0,0.0,-0.12207031,0.0,0.0,0.0,-63.187866,71.49353,-27.163696
1766498857529,-0.9506836,-0.27294922,0.1484375,0.4272461,-0.061035156,-0.18310547,0.0,0.0,0.0,-63.187866,71.49353,-27.163696
1766498857541,-0.9506836,-0.27294922,0.1484375,0.4272461,-0.061035156,-0.18310547,0.0,0.0,0.0,-63.094482,71.49353,-27.04834
1766498857629,-0.953125,-0.27539062,0.13964844,0.0,-2.319336,0.61035156,0.0,0.0,0.0,-63.094482,71.49353,-27.04834
1766498857640,-0.953125,-0.27539062,0.13964844,0.0,-2.319336,0.61035156,0.0,0.0,0.0,-63.138428,71.48804,-27.15271
1766498857729,-0.9453125,-0.27294922,0.14794922,0.5493164,0.5493164,-0.18310547,0.0,0.0,0.0,-63.138428,71.48804,-27.15271
1766498857740,-0.9453125,-0.27294922,0.14794922,0.5493164,0.5493164,-0.18310547,0.0,0.0,0.0,-62.88025,71.49902,-26.845093
1766498857828,-0.9550781,-0.27539062,0.140625,-0.24414062,0.061035156,-0.12207031,0.0,0.0,0.0,-62.88025,71.49902,-26.845093
1766498857840,-0.9550781,-0.27539062,0.140625,-0.24414062,0.061035156,-0.12207031,0.0,0.0,0.0,-62.72644,71.48804,-26.707764
1766498857928,-0.9506836,-0.27441406,0.14404297,-0.30517578,-1.2207031,0.18310547,0.0,0.0,0.0,-62.72644,71.48804,-26.707764
1766498857939,-0.9506836,-0.27441406,0.14404297,-0.30517578,-1.2207031,0.18310547,0.0,0.0,0.0,-62.69348,71.48804,-26.658325
1766498858028,-0.9506836,-0.27539062,0.14453125,0.24414062,0.24414062,-0.30517578,0.0,0.0,0.0,-62.69348,71.48804,-26.658325
1766498858040,-0.9506836,-0.27539062,0.14453125,0.24414062,0.24414062,-0.30517578,0.0,0.0,0.0,-62.58911,71.482544,-26.570435
1766498858128,-0.95166016,-0.27392578,0.14453125,-0.4272461,-0.48828125,0.0,0.0,0.0,0.0,-62.58911,71.482544,-26.570435
1766498858139,-0.95166016,-0.27392578,0.14453125,-0.4272461,-0.48828125,0.0,0.0,0.0,0.0,-62.523193,71.47156,-26.499023
1766498858227,-0.9482422,-0.27539062,0.14697266,-0.12207031,-0.48828125,-0.061035156,0.0,0.0,0.0,-62.523193,71.47156,-26.499023
1766498858239,-0.9482422,-0.27539062,0.14697266,-0.12207031,-0.48828125,-0.061035156,0.0,0.0,0.0,-62.418823,71.46057,-26.40564
1766498858327,-0.95166016,-0.27490234,0.14111328,-0.12207031,-0.91552734,-0.061035156,0.0,0.0,0.0,-62.418823,71.46057,-26.40564
1766498858338,-0.95166016,-0.27490234,0.14111328,-0.12207031,-0.91552734,-0.061035156,0.0,0.0,0.0,-62.286987,71.44409,-26.273804
1766498858427,-0.94873047,-0.2705078,0.15429688,0.18310547,1.5869141,-0.91552734,0.0,0.0,0.0,-62.286987,71.44409,-26.273804
1766498858438,-0.94873047,-0.2705078,0.15429688,0.18310547,1.5869141,-0.91552734,0.0,0.0,0.0,-62.25403,71.42761,-26.295776
1766498858527,-0.9536133,-0.27294922,0.14404297,0.24414062,1.2817383,-0.36621094,0.0,0.0,0.0,-62.25403,71.42761,-26.295776
1766498858538,-0.9536133,-0.27294922,0.14404297,0.24414062,1.2817383,-0.36621094,0.0,0.0,0.0,-62.10022,71.416626,-26.202393
1766498858626,-0.9555664,-0.27539062,0.14208984,0.8544922,0.7324219,-0.79345703,0.0,0.0,0.0,-62.10022,71.416626,-26.202393
1766498858638,-0.9555664,-0.27539062,0.14208984,0.8544922,0.7324219,-0.79345703,0.0,0.0,0.0,-62.369385,71.416626,-26.603394
1766498858726,-0.94677734,-0.2734375,0.14501953,1.0986328,2.5024414,-0.91552734,0.0,0.0,0.0,-62.369385,71.416626,-26.603394
1766498858737,-0.94677734,-0.2734375,0.14501953,1.0986328,2.5024414,-0.91552734,0.0,0.0,0.0,-62.79236,71.4386,-27.130737
1766498858826,-0.953125,-0.27734375,0.13720703,0.4272461,1.7700195,-0.6713867,0.0,0.0,0.0,-62.79236,71.4386,-27.130737
1766498858837,-0.953125,-0.27734375,0.13720703,0.4272461,1.7700195,-0.6713867,0.0,0.0,0.0,-63.182373,71.47705,-27.592163
1766498858925,-0.94873047,-0.27783203,0.14208984,0.48828125,1.3427734,-0.79345703,0.0,0.0,0.0,-63.182373,71.47705,-27.592163
1766498858937,-0.94873047,-0.27783203,0.14208984,0.48828125,1.3427734,-0.79345703,0.0,0.0,0.0,-63.720703,71.49353,-28.218384
1766498859025,-0.9506836,-0.2763672,0.14013672,0.12207031,0.12207031,-0.4272461,0.0,0.0,0.0,-63.720703,71.49353,-28.218384
1766498859037,-0.9506836,-0.2763672,0.14013672,0.12207031,0.12207031,-0.4272461,0.0,0.0,0.0,-63.847046,71.48804,-28.344727
1766498859125,-0.9506836,-0.2788086,0.13867188,0.4272461,0.61035156,-0.5493164,0.0,0.0,0.0,-63.847046,71.48804,-28.344727
1766498859136,-0.9506836,-0.2788086,0.13867188,0.4272461,0.61035156,-0.5493164,0.0,0.0,0.0,-63.967896,71.466064,-28.515015
1766498859225,-0.94970703,-0.2788086,0.1352539,0.5493164,0.91552734,-0.6713867,0.0,0.0,0.0,-63.967896,71.466064,-28.515015
1766498859236,-0.94970703,-0.2788086,0.1352539,0.5493164,0.91552734,-0.6713867,0.0,0.0,0.0,-64.16565,71.466064,-28.729248
1766498859324,-0.94091797,-0.27783203,0.14013672,2.319336,3.0517578,-1.7089844,0.0,0.0,0.0,-64.16565,71.466064,-28.729248
1766498859336,-0.94091797,-0.27783203,0.14013672,2.319336,3.0517578,-1.7089844,0.0,0.0,0.0,-64.59412,71.45508,-29.256592
1766498859424,-0.95214844,-0.28271484,0.12792969,0.48828125,0.9765625,-0.7324219,0.0,0.0,0.0,-64.59412,71.45508,-29.256592
1766498859435,-0.95214844,-0.28271484,0.12792969,0.48828125,0.9765625,-0.7324219,0.0,0.0,0.0,-64.506226,71.42212,-29.174194
1766498859524,-0.95654297,-0.28271484,0.13378906,1.4038086,-0.6713867,-0.8544922,0.0,0.0,0.0,-64.506226,71.42212,-29.174194
1766498859535,-0.95654297,-0.28271484,0.13378906,1.4038086,-0.6713867,-0.8544922,0.0,0.0,0.0,-64.56665,71.3562,-29.344482
1766498859623,-0.9423828,-0.27929688,0.14160156,0.5493164,0.18310547,-0.36621094,0.0,0.0,0.0,-64.56665,71.3562,-29.344482
1766498859635,-0.9423828,-0.27929688,0.14160156,0.5493164,0.18310547,-0.36621094,0.0,0.0,0.0,-64.539185,71.30676,-29.349976
1766498859723,-0.95214844,-0.28271484,0.13134766,-0.30517578,0.0,0.0,0.0,0.0,0.0,-64.539185,71.30676,-29.349976
1766498859735,-0.95214844,-0.28271484,0.13134766,-0.30517578,0.0,0.0,0.0,0.0,0.0,-64.330444,71.30676,-29.042358
1766498859823,-0.94970703,-0.28125,0.1352539,-0.61035156,-0.6713867,-0.061035156,0.0,0.0,0.0,-64.330444,71.30676,-29.042358
1766498859835,-0.94970703,-0.28125,0.1352539,-0.61035156,-0.6713867,-0.061035156,0.0,0.0,0.0,-64.30298,71.29578,-28.937988
1766498859923,-0.9482422,-0.2788086,0.1381836,-2.0141602,-2.0751953,0.7324219,0.0,0.0,0.0,-64.30298,71.29578,-28.937988
1766498859935,-0.9482422,-0.2788086,0.1381836,-2.0141602,-2.0751953,0.7324219,0.0,0.0,0.0,-63.89099,71.2738,-28.35022
1766498860022,-0.95166016,-0.28125,0.14501953,-1.5258789,-0.79345703,0.8544922,0.0,0.0,0.0,-63.89099,71.2738,-28.35022
1766498860034,-0.95166016,-0.28125,0.14501953,-1.5258789,-0.79345703,0.8544922,0.0,0.0,0.0,-63.511963,71.33423,-27.723999
1766498860122,-0.95214844,-0.27783203,0.13720703,0.30517578,0.61035156,-0.061035156,0.0,0.0,0.0,-63.511963,71.33423,-27.723999
1766498860134,-0.95214844,-0.27783203,0.13720703,0.30517578,0.61035156,-0.061035156,0.0,0.0,0.0,-63.511963,71.361694,-27.680054
1766498860222,-0.94433594,-0.27685547,0.14697266,0.18310547,2.0751953,-0.7324219,0.0,0.0,0.0,-63.511963,71.361694,-27.680054
1766498860234,-0.94433594,-0.27685547,0.14697266,0.18310547,2.0751953,-0.7324219,0.0,0.0,0.0,-63.742676,71.40564,-27.91626
1766498860321,-0.9560547,-0.2763672,0.13427734,0.0,0.0,0.0,0.0,0.0,0.0,-63.742676,71.40564,-27.91626
1766498860333,-0.9560547,-0.2763672,0.13427734,0.0,0.0,0.0,0.0,0.0,0.0,-63.45703,71.36719,-27.597656
1766498860421,-0.9511719,-0.2788086,0.13867188,0.24414062,-0.30517578,-0.36621094,0.0,0.0,0.0,-63.45703,71.36719,-27.597656
1766498860433,-0.9511719,-0.2788086,0.13867188,0.24414062,-0.30517578,-0.36621094,0.0,0.0,0.0,-63.47351,71.361694,-27.658081
1766498860521,-0.94628906,-0.2763672,0.14501953,-0.12207031,0.4272461,-0.12207031,0.0,0.0,0.0,-63.47351,71.361694,-27.658081
1766498860532,-0.94628906,-0.2763672,0.14501953,-0.12207031,0.4272461,-0.12207031,0.0,0.0,0.0,-63.45703,71.3562,-27.619629
1766498860621,-0.9555664,-0.27685547,0.13623047,0.24414062,0.6713867,-0.24414062,0.0,0.0,0.0,-63.45703,71.3562,-27.619629
1766498860632,-0.9555664,-0.27685547,0.13623047,0.24414062,0.6713867,-0.24414062,0.0,0.0,0.0,-63.374634,71.361694,-27.509766
1766498860720,-0.94921875,-0.28027344,0.13964844,-0.24414062,-0.7324219,-0.12207031,0.0,0.0,0.0,-63.374634,71.361694,-27.509766
1766498860732,-0.94921875,-0.28027344,0.13964844,-0.24414062,-0.7324219,-0.12207031,0.0,0.0,0.0,-63.36914,71.3562,-27.509766
1766498860820,-0.9501953,-0.27783203,0.1430664,-0.12207031,-1.3427734,0.24414062,0.0,0.0,0.0,-63.36914,71.3562,-27.509766
1766498860832,-0.9501953,-0.27783203,0.1430664,-0.12207031,-1.3427734,0.24414062,0.0,0.0,0.0,-63.23181,71.345215,-27.34497
1766498860920,-0.9501953,-0.2783203,0.1430664,-0.12207031,-0.12207031,0.0,0.0,0.0,0.0,-63.23181,71.345215,-27.34497
1766498860931,-0.9501953,-0.2783203,0.1430664,-0.12207031,-0.12207031,0.0,0.0,0.0,0.0,-63.028564,71.33423,-27.125244
1766498861020,-0.94921875,-0.27392578,0.14453125,-0.48828125,-0.30517578,0.061035156,0.0,0.0,0.0,-63.028564,71.33423,-27.125244
1766498861031,-0.94921875,-0.27392578,0.14453125,-0.48828125,-0.30517578,0.061035156,0.0,0.0,0.0,-63.050537,71.3562,-27.081299
1766498861119,-0.94921875,-0.28027344,0.14013672,0.79345703,-0.61035156,0.0,0.0,0.0,0.0,-63.050537,71.3562,-27.081299
1766498861131,-0.94921875,-0.28027344,0.14013672,0.79345703,-0.61035156,0.0,0.0,0.0,0.0,-62.891235,71.37268,-26.883545
1766498861219,-0.9555664,-0.28271484,0.13232422,-0.9765625,-3.6010742,0.9765625,0.0,0.0,0.0,-62.891235,71.37268,-26.883545
1766498861231,-0.9555664,-0.28271484,0.13232422,-0.9765625,-3.6010742,0.9765625,0.0,0.0,0.0,-62.808838,71.3562,-26.845093
1766498861319,-0.9448242,-0.27490234,0.14892578,0.18310547,-0.61035156,-0.18310547,0.0,0.0,0.0,-62.808838,71.3562,-26.845093
1766498861331,-0.9448242,-0.27490234,0.14892578,0.18310547,-0.61035156,-0.18310547,0.0,0.0,0.0,-62.764893,71.361694,-26.784668
1766498861419,-0.9501953,-0.27490234,0.14355469,-0.36621094,0.12207031,-0.061035156,0.0,0.0,0.0,-62.764893,71.361694,-26.784668
1766498861430,-0.9501953,-0.27490234,0.14355469,-0.36621094,0.12207031,-0.061035156,0.0,0.0,0.0,-62.660522,71.3562,-26.696777
1766498861518,-0.953125,-0.27978516,0.14355469,-0.6713867,-1.2817383,0.61035156,0.0,0.0,0.0,-62.660522,71.3562,-26.696777
1766498861530,-0.953125,-0.27978516,0.14355469,-0.6713867,-1.2817383,0.61035156,0.0,0.0,0.0,-62.561646,71.36719,-26.586914
1766498861618,-0.94677734,-0.27441406,0.14794922,0.061035156,0.36621094,-0.18310547,0.0,0.0,0.0,-62.561646,71.36719,-26.586914
1766498861629,-0.94677734,-0.27441406,0.14794922,0.061035156,0.36621094,-0.18310547,0.0,0.0,0.0,-62.55066,71.38367,-26.553955
1766498861718,-0.9511719,-0.27392578,0.14550781,-0.24414062,-0.4272461,0.0,0.0,0.0,0.0,-62.55066,71.38367,-26.553955
1766498861729,-0.9511719,-0.27392578,0.14550781,-0.24414062,-0.4272461,0.0,0.0,0.0,0.0,-62.457275,71.38916,-26.460571
1766498861817,-0.94970703,-0.27392578,0.14550781,-0.12207031,-0.61035156,-0.18310547,0.0,0.0,0.0,-62.457275,71.38916,-26.460571
1766498861829,-0.94970703,-0.27392578,0.14550781,-0.12207031,-0.61035156,-0.18310547,0.0,0.0,0.0,-62.336426,71.36719,-26.356201
1766498861917,-0.94970703,-0.27490234,0.14990234,-0.18310547,0.0,-0.12207031,0.0,0.0,0.0,-62.336426,71.36719,-26.356201
1766498861929,-0.94970703,-0.27490234,0.14990234,-0.18310547,0.0,-0.12207031,0.0,0.0,0.0,-62.20459,71.36719,-26.207886
1766498862017,-0.9506836,-0.27539062,0.14453125,0.12207031,-0.18310547,0.0,0.0,0.0,0.0,-62.20459,71.36719,-26.207886
1766498862028,-0.9506836,-0.27539062,0.14453125,0.12207031,-0.18310547,0.0,0.0,0.0,0.0,-62.14966,71.37268,-26.16394
1766498862117,-0.9458008,-0.2705078,0.1586914,0.36621094,1.7700195,-0.79345703,0.0,0.0,0.0,-62.14966,71.37268,-26.16394
1766498862128,-0.9458008,-0.2705078,0.1586914,0.36621094,1.7700195,-0.79345703,0.0,0.0,0.0,-62.13867,71.35071,-26.202393
1766498862216,-0.9536133,-0.26757812,0.1459961,-0.4272461,0.061035156,-0.30517578,0.0,0.0,0.0,-62.13867,71.35071,-26.202393
1766498862228,-0.9536133,-0.26757812,0.1459961,-0.4272461,0.061035156,-0.30517578,0.0,0.0,0.0,-61.814575,71.33423,-25.839844
1766498862316,-0.953125,-0.27490234,0.14648438,-0.12207031,-0.91552734,0.0,0.0,0.0,0.0,-61.814575,71.33423,-25.839844
1766498862328,-0.953125,-0.27490234,0.14648438,-0.12207031,-0.91552734,0.0,0.0,0.0,0.0,-61.798096,71.33423,-25.88379
1766498862416,-0.94628906,-0.27001953,0.15136719,0.36621094,0.18310547,-0.30517578,0.0,0.0,0.0,-61.798096,71.33423,-25.88379
1766498862428,-0.94628906,-0.27001953,0.15136719,0.36621094,0.18310547,-0.30517578,0.0,0.0,0.0,-61.798096,71.33423,-25.905762
1766498862516,-0.95410156,-0.27441406,0.14648438,0.0,0.061035156,-0.30517578,0.0,0.0,0.0,-61.798096,71.33423,-25.905762
1766498862527,-0.95410156,-0.27441406,0.14648438,0.0,0.061035156,-0.30517578,0.0,0.0,0.0,-61.622314,71.33423,-25.735474
1766498862616,-0.9482422,-0.27539062,0.1508789,-0.12207031,-0.30517578,0.0,0.0,0.0,0.0,-61.622314,71.33423,-25.735474
1766498862627,-0.9482422,-0.27539062,0.1508789,-0.12207031,-0.30517578,0.0,0.0,0.0,0.0,-61.64978,71.32324,-25.795898
1766498862715,-0.94970703,-0.27392578,0.1508789,0.24414062,-0.061035156,-0.12207031,0.0,0.0,0.0,-61.64978,71.32324,-25.795898
1766498862727,-0.94970703,-0.27392578,0.1508789,0.24414062,-0.061035156,-0.12207031,0.0,0.0,0.0,-61.572876,71.312256,-25.751953
1766498862815,-0.9506836,-0.27294922,0.15039062,0.0,-0.36621094,-0.12207031,0.0,0.0,0.0,-61.572876,71.312256,-25.751953
1766498862827,-0.9506836,-0.27294922,0.15039062,0.0,-0.36621094,-0.12207031,0.0,0.0,0.0,-61.49048,71.30676,-25.680542
1766498862914,-0.94873047,-0.2705078,0.15283203,0.0,0.24414062,0.0,0.0,0.0,0.0,-61.49048,71.30676,-25.680542
1766498862926,-0.94873047,-0.2705078,0.15283203,0.0,0.24414062,0.0,0.0,0.0,0.0,-61.452026,71.30676,-25.653076
1766498863014,-0.94921875,-0.27001953,0.16113281,0.0,0.48828125,-0.24414062,0.0,0.0,0.0,-61.452026,71.30676,-25.653076
1766498863026,-0.94921875,-0.27001953,0.16113281,0.0,0.48828125,-0.24414062,0.0,0.0,0.0,-61.413574,71.328735,-25.636597
1766498863114,-0.9526367,-0.2763672,0.15478516,-1.0375977,-2.1362305,0.79345703,0.0,0.0,0.0,-61.413574,71.328735,-25.636597
1766498863125,-0.9526367,-0.2763672,0.15478516,-1.0375977,-2.1362305,0.79345703,0.0,0.0,0.0,-61.413574,71.31775,-25.686035
1766498863214,-0.9472656,-0.26757812,0.15966797,-0.48828125,1.0375977,-0.61035156,0.0,0.0,0.0,-61.413574,71.31775,-25.686035
1766498863225,-0.9472656,-0.26757812,0.15966797,-0.48828125,1.0375977,-0.61035156,0.0,0.0,0.0,-61.331177,71.32324,-25.5542
1766498863313,-0.95214844,-0.27490234,0.14892578,0.61035156,-0.18310547,-0.12207031,0.0,0.0,0.0,-61.331177,71.32324,-25.5542
1766498863325,-0.95214844,-0.27490234,0.14892578,0.61035156,-0.18310547,-0.12207031,0.0,0.0,0.0,-61.193848,71.30127,-25.471802
1766498863413,-0.9482422,-0.27197266,0.15332031,-0.6713867,-1.0986328,0.30517578,0.0,0.0,0.0,-61.193848,71.30127,-25.471802
1766498863425,-0.9482422,-0.27197266,0.15332031,-0.6713867,-1.0986328,0.30517578,0.0,0.0,0.0,-61.07849,71.31775,-25.334473
1766498863513,-0.9526367,-0.27441406,0.15429688,0.0,0.7324219,-0.36621094,0.0,0.0,0.0,-61.07849,71.31775,-25.334473
1766498863525,-0.9526367,-0.27441406,0.15429688,0.0,0.7324219,-0.36621094,0.0,0.0,0.0,-61.029053,71.33423,-25.285034
1766498863613,-0.9477539,-0.27148438,0.15625,0.24414062,0.12207031,-0.5493164,0.0,0.0,0.0,-61.029053,71.33423,-25.285034
1766498863624,-0.9477539,-0.27148438,0.15625,0.24414062,0.12207031,-0.5493164,0.0,0.0,0.0,-61.16089,71.32324,-25.460815
1766498863712,-0.95410156,-0.27490234,0.15332031,0.48828125,-0.30517578,0.061035156,0.0,0.0,0.0,-61.16089,71.32324,-25.460815
1766498863724,-0.95410156,-0.27490234,0.15332031,0.48828125,-0.30517578,0.061035156,0.0,0.0,0.0,-61.05652,71.312256,-25.405884
1766498863812,-0.9580078,-0.27197266,0.14501953,1.0986328,0.24414062,-0.4272461,0.0,0.0,0.0,-61.05652,71.312256,-25.405884
1766498863824,-0.9580078,-0.27197266,0.14501953,1.0986328,0.24414062,-0.4272461,0.0,0.0,0.0,-60.985107,71.29578,-25.44983
1766498863912,-0.9536133,-0.27490234,0.15283203,1.4648438,0.6713867,-1.4038086,0.0,0.0,0.0,-60.985107,71.29578,-25.44983
1766498863923,-0.9536133,-0.27490234,0.15283203,1.4648438,0.6713867,-1.4038086,0.0,0.0,0.0,-61.57837,71.328735,-26.207886
1766498864011,-0.94628906,-0.2788086,0.14208984,3.1738281,4.211426,-1.7700195,0.0,0.0,0.0,-61.57837,71.328735,-26.207886
1766498864023,-0.94628906,-0.2788086,0.14208984,3.1738281,4.211426,-1.7700195,0.0,0.0,0.0,-62.127686,71.32324,-26.982422
1766498864111,-0.95410156,-0.28955078,0.15673828,-0.48828125,-1.159668,0.36621094,0.0,0.0,0.0,-62.127686,71.32324,-26.982422
1766498864123,-0.95410156,-0.28955078,0.15673828,-0.48828125,-1.159668,0.36621094,0.0,0.0,0.0,-62.63855,71.31775,-27.641602
1766498864211,-0.9584961,-0.27929688,0.12841797,6.3476562,2.8076172,-4.699707,0.0,0.0,0.0,-62.63855,71.31775,-27.641602
1766498864223,-0.9584961,-0.27929688,0.12841797,6.3476562,2.8076172,-4.699707,0.0,0.0,0.0,-62.95166,71.048584,-28.564453
1766498864311,-0.94433594,-0.29003906,0.11669922,2.5634766,-0.12207031,-3.2348633,0.0,0.0,0.0,-62.95166,71.048584,-28.564453
1766498864322,-0.94433594,-0.29003906,0.11669922,2.5634766,-0.12207031,-3.2348633,0.0,0.0,0.0,-64.346924,70.823364,-30.585938
1766498864411,-0.94628906,-0.28222656,0.1459961,-4.9438477,-3.7231445,2.6245117,0.0,0.0,0.0,-64.346924,70.823364,-30.585938
1766498864422,-0.94628906,-0.28222656,0.1459961,-4.9438477,-3.7231445,2.6245117,0.0,0.0,0.0,-63.89099,70.806885,-29.597168
1766498864510,-0.9379883,-0.2788086,0.16015625,-2.6855469,-1.8310547,0.6713867,0.0,0.0,0.0,-63.89099,70.806885,-29.597168
1766498864522,-0.9379883,-0.2788086,0.16015625,-2.6855469,-1.8310547,0.6713867,0.0,0.0,0.0,-62.907715,70.83984,-28.03711
1766498864610,-0.953125,-0.28076172,0.15136719,-1.0986328,-0.30517578,0.9765625,0.0,0.0,0.0,-62.907715,70.83984,-28.03711
1766498864621,-0.953125,-0.28076172,0.15136719,-1.0986328,-0.30517578,0.9765625,0.0,0.0,0.0,-62.808838,70.86731,-27.767944
1766498864710,-0.94140625,-0.2836914,0.15234375,-0.12207031,0.0,-0.30517578,0.0,0.0,0.0,-62.808838,70.86731,-27.767944
1766498864721,-0.94140625,-0.2836914,0.15234375,-0.12207031,0.0,-0.30517578,0.0,0.0,0.0,-62.858276,70.93323,-27.740479
1766498864809,-0.9501953,-0.28173828,0.15185547,-1.159668,0.36621094,0.0,0.0,0.0,0.0,-62.858276,70.93323,-27.740479
1766498864821,-0.9501953,-0.28173828,0.15185547,-1.159668,0.36621094,0.0,0.0,0.0,0.0,-62.79785,70.90576,-27.597656
1766498864909,-0.95166016,-0.27929688,0.15039062,-0.61035156,-0.7324219,0.12207031,0.0,0.0,0.0,-62.79785,70.90576,-27.597656
1766498864921,-0.95166016,-0.27929688,0.15039062,-0.61035156,-0.7324219,0.12207031,0.0,0.0,0.0,-62.83081,70.90027,-27.636108
1766498865009,-0.9433594,-0.27978516,0.15332031,-0.30517578,0.0,0.18310547,0.0,0.0,0.0,-62.83081,70.90027,-27.636108
1766498865020,-0.9433594,-0.27978516,0.15332031,-0.30517578,0.0,0.18310547,0.0,0.0,0.0,-62.69348,70.93323,-27.438354
1766498865108,-0.9511719,-0.28125,0.14550781,-0.30517578,0.18310547,0.12207031,0.0,0.0,0.0,-62.69348,70.93323,-27.438354
1766498865120,-0.9511719,-0.28125,0.14550781,-0.30517578,0.18310547,0.12207031,0.0,0.0,0.0,-62.50122,70.944214,-27.196655
1766498865208,-0.9482422,-0.28173828,0.14404297,-0.7324219,-0.12207031,0.24414062,0.0,0.0,0.0,-62.50122,70.944214,-27.196655
1766498865220,-0.9482422,-0.28173828,0.14404297,-0.7324219,-0.12207031,0.24414062,0.0,0.0,0.0,-62.62207,70.982666,-27.295532
1766498865308,-0.95166016,-0.2788086,0.14501953,-0.48828125,3.6010742,-0.5493164,0.0,0.0,0.0,-62.62207,70.982666,-27.295532
1766498865319,-0.95166016,-0.2788086,0.14501953,-0.48828125,3.6010742,-0.5493164,0.0,0.0,0.0,-63.17688,71.07605,-27.767944
1766498865408,-0.94873047,-0.28271484,0.14453125,-0.9765625,1.7089844,0.18310547,0.0,0.0,0.0,-63.17688,71.07605,-27.767944
1766498865419,-0.94873047,-0.28271484,0.14453125,-0.9765625,1.7089844,0.18310547,0.0,0.0,0.0,-63.86902,71.15845,-28.443604
1766498865507,-0.94921875,-0.2763672,0.13867188,-1.4038086,0.5493164,0.30517578,0.0,0.0,0.0,-63.86902,71.15845,-28.443604
1766498865519,-0.94921875,-0.2763672,0.13867188,-1.4038086,0.5493164,0.30517578,0.0,0.0,0.0,-64.02832,71.22986,-28.42163
1766498865607,-0.94873047,-0.28759766,0.13671875,-0.5493164,-0.4272461,0.0,0.0,0.0,0.0,-64.02832,71.22986,-28.42163
1766498865619,-0.94873047,-0.28759766,0.13671875,-0.5493164,-0.4272461,0.0,0.0,0.0,0.0,-64.226074,71.29028,-28.553467
1766498865707,-0.9458008,-0.28027344,0.13623047,0.0,1.6479492,-0.7324219,0.0,0.0,0.0,-64.226074,71.29028,-28.553467
1766498865718,-0.9458008,-0.28027344,0.13623047,0.0,1.6479492,-0.7324219,0.0,0.0,0.0,-64.330444,71.29578,-28.641357
1766498865807,-0.9536133,-0.28271484,0.1303711,-1.2207031,-0.7324219,0.79345703,0.0,0.0,0.0,-64.330444,71.29578,-28.641357
1766498865818,-0.9536133,-0.28271484,0.1303711,-1.2207031,-0.7324219,0.79345703,0.0,0.0,0.0,-64.14917,71.30676,-28.432617
1766498865906,-0.953125,-0.27783203,0.13671875,-0.36621094,-0.7324219,0.4272461,0.0,0.0,0.0,-64.14917,71.30676,-28.432617
1766498865918,-0.953125,-0.27783203,0.13671875,-0.36621094,-0.7324219,0.4272461,0.0,0.0,0.0,-64.13269,71.35071,-28.377686
1766498866006,-0.94433594,-0.27929688,0.14160156,0.0,0.18310547,-0.061035156,0.0,0.0,0.0,-64.13269,71.35071,-28.377686
1766498866018,-0.94433594,-0.27929688,0.14160156,0.0,0.18310547,-0.061035156,0.0,0.0,0.0,-64.06677,71.361694,-28.306274
1766498866106,-0.95410156,-0.28076172,0.13232422,-0.24414062,-0.6713867,-0.18310547,0.0,0.0,0.0,-64.06677,71.361694,-28.306274
1766498866117,-0.95410156,-0.28076172,0.13232422,-0.24414062,-0.6713867,-0.18310547,0.0,0.0,0.0,-63.858032,71.33972,-28.053589
1766498866205,-0.9506836,-0.28076172,0.13867188,0.12207031,-0.61035156,0.0,0.0,0.0,0.0,-63.858032,71.33972,-28.053589
1766498866217,-0.9506836,-0.28076172,0.13867188,0.12207031,-0.61035156,0.0,0.0,0.0,0.0,-63.83606,71.33423,-28.059082
1766498866305,-0.94970703,-0.2763672,0.14404297,-0.24414062,-0.6713867,0.24414062,0.0,0.0,0.0,-63.83606,71.33423,-28.059082
1766498866317,-0.94970703,-0.2763672,0.14404297,-0.24414062,-0.6713867,0.24414062,0.0,0.0,0.0,-63.676758,71.33423,-27.921753
1766498866405,-0.94921875,-0.27783203,0.14453125,0.061035156,0.0,0.0,0.0,0.0,0.0,-63.676758,71.33423,-27.921753
1766498866416,-0.94921875,-0.27783203,0.14453125,0.061035156,0.0,0.0,0.0,0.0,0.0,-63.429565,71.33972,-27.685547
1766498866505,-0.94677734,-0.27490234,0.14941406,-0.061035156,0.36621094,-0.24414062,0.0,0.0,0.0,-63.429565,71.33972,-27.685547
1766498866516,-0.94677734,-0.27490234,0.14941406,-0.061035156,0.36621094,-0.24414062,0.0,0.0,0.0,-63.303223,71.33423,-27.564697
1766498866604,-0.95458984,-0.27490234,0.14746094,-0.24414062,-2.1362305,0.7324219,0.0,0.0,0.0,-63.303223,71.33423,-27.564697
1766498866617,-0.95458984,-0.27490234,0.14746094,-0.24414062,-2.1362305,0.7324219,0.0,0.0,0.0,-63.396606,71.33972,-27.729492
1766498866704,-0.94189453,-0.27294922,0.14941406,0.0,0.18310547,-0.24414062,0.0,0.0,0.0,-63.396606,71.33972,-27.729492
1766498866716,-0.94189453,-0.27294922,0.14941406,0.0,0.18310547,-0.24414062,0.0,0.0,0.0,-63.012085,71.3562,-27.268066
1766498866804,-0.95654297,-0.2783203,0.140625,0.061035156,-0.24414062,-0.30517578,0.0,0.0,0.0,-63.012085,71.3562,-27.268066
1766498866816,-0.95654297,-0.2783203,0.140625,0.061035156,-0.24414062,-0.30517578,0.0,0.0,0.0,-62.81433,71.33423,-27.092285
1766498866904,-0.94677734,-0.2788086,0.1459961,-0.061035156,-0.79345703,0.18310547,0.0,0.0,0.0,-62.81433,71.33423,-27.092285
1766498866915,-0.94677734,-0.2788086,0.1459961,-0.061035156,-0.79345703,0.18310547,0.0,0.0,0.0,-62.72644,71.32324,-27.03186
1766498867003,-0.9511719,-0.2763672,0.14550781,0.36621094,0.061035156,-0.61035156,0.0,0.0,0.0,-62.72644,71.32324,-27.03186
1766498867015,-0.9511719,-0.2763672,0.14550781,0.36621094,0.061035156,-0.61035156,0.0,0.0,0.0,-62.633057,71.312256,-26.949463
1766498867103,-0.9501953,-0.27783203,0.14550781,0.24414062,-0.24414062,-0.12207031,0.0,0.0,0.0,-62.633057,71.312256,-26.949463
1766498867115,-0.9501953,-0.27783203,0.14550781,0.24414062,-0.24414062,-0.12207031,0.0,0.0,0.0,-62.60559,71.29028,-26.94397
1766498867203,-0.9482422,-0.27685547,0.1459961,0.12207031,0.0,-0.12207031,0.0,0.0,0.0,-62.60559,71.29028,-26.94397
1766498867215,-0.9482422,-0.27685547,0.1459961,0.12207031,0.0,-0.12207031,0.0,0.0,0.0,-62.523193,71.29028,-26.883545
1766498867302,-0.953125,-0.27539062,0.14111328,0.48828125,0.061035156,0.0,0.0,0.0,0.0,-62.523193,71.29028,-26.883545
1766498867314,-0.953125,-0.27539062,0.14111328,0.48828125,0.061035156,0.0,0.0,0.0,0.0,-62.457275,71.29578,-26.834106
1766498867402,-0.94873047,-0.27685547,0.14941406,0.36621094,1.2817383,-0.9765625,0.0,0.0,0.0,-62.457275,71.29578,-26.834106
1766498867414,-0.94873047,-0.27685547,0.14941406,0.36621094,1.2817383,-0.9765625,0.0,0.0,0.0,-62.506714,71.29578,-26.96045
1766498867502,-0.95166016,-0.27490234,0.14404297,-0.48828125,1.0375977,0.0,0.0,0.0,0.0,-62.506714,71.29578,-26.96045
1766498867513,-0.95166016,-0.27490234,0.14404297,-0.48828125,1.0375977,0.0,0.0,0.0,0.0,-62.336426,71.28479,-26.768188
1766498867602,-0.94970703,-0.27783203,0.14160156,0.79345703,-0.61035156,-0.24414062,0.0,0.0,0.0,-62.336426,71.28479,-26.768188
1766498867613,-0.94970703,-0.27783203,0.14160156,0.79345703,-0.61035156,-0.24414062,0.0,0.0,0.0,-62.32544,71.28479,-26.795654
1766498867701,-0.9477539,-0.27539062,0.14794922,0.61035156,1.3427734,-0.48828125,0.0,0.0,0.0,-62.32544,71.28479,-26.795654
1766498867713,-0.9477539,-0.27539062,0.14794922,0.61035156,1.3427734,-0.48828125,0.0,0.0,0.0,-62.545166,71.29578,-27.081299
