timestamp,accX,accY,accZ,gyroX,gyroY,gyroZ,magX,magY,magZ,roll,pitch,yaw
1766497497895,-0.89501953,-0.40673828,0.1772461,-0.061035156,0.4272461,0.0,0.0,0.0,0.0,-65.55542,63.374634,-35.980225
1766497497906,-0.89501953,-0.40673828,0.1772461,-0.061035156,0.4272461,0.0,0.0,0.0,0.0,-65.67078,63.396606,-36.12854
1766497497995,-0.89501953,-0.4091797,0.17871094,0.61035156,0.30517578,-0.36621094,0.0,0.0,0.0,-65.67078,63.396606,-36.12854
1766497498006,-0.89501953,-0.4091797,0.17871094,0.61035156,0.30517578,-0.36621094,0.0,0.0,0.0,-65.687256,63.380127,-36.194458
1766497498094,-0.89697266,-0.40966797,0.17675781,-0.12207031,0.36621094,0.4272461,0.0,0.0,0.0,-65.687256,63.380127,-36.194458
1766497498105,-0.89697266,-0.40966797,0.17675781,-0.12207031,0.36621094,0.4272461,0.0,0.0,0.0,-65.7312,63.391113,-36.309814
1766497498194,-0.89160156,-0.40283203,0.17675781,-0.061035156,0.0,-0.7324219,0.0,0.0,0.0,-65.7312,63.391113,-36.309814
1766497498205,-0.89160156,-0.40283203,0.17675781,-0.061035156,0.0,-0.7324219,0.0,0.0,0.0,-65.79712,63.396606,-36.4032
1766497498293,-0.8984375,-0.40625,0.17138672,-0.7324219,-0.7324219,0.36621094,0.0,0.0,0.0,-65.79712,63.396606,-36.4032
1766497498305,-0.8984375,-0.40625,0.17138672,-0.7324219,-0.7324219,0.36621094,0.0,0.0,0.0,-65.60486,63.33618,-36.238403
1766497498393,-0.89453125,-0.41015625,0.17822266,0.0,-0.36621094,0.79345703,0.0,0.0,0.0,-65.60486,63.33618,-36.238403
1766497498405,-0.89453125,-0.41015625,0.17822266,0.0,-0.36621094,0.79345703,0.0,0.0,0.0,-65.65979,63.391113,-36.359253
1766497498493,-0.8935547,-0.40283203,0.18261719,0.18310547,-0.7324219,0.061035156,0.0,0.0,0.0,-65.65979,63.391113,-36.359253
1766497498504,-0.8935547,-0.40283203,0.18261719,0.18310547,-0.7324219,0.061035156,0.0,0.0,0.0,-65.5719,63.407593,-36.26587
1766497498593,-0.90234375,-0.40771484,0.1772461,0.6713867,0.061035156,-0.24414062,0.0,0.0,0.0,-65.5719,63.407593,-36.26587
1766497498604,-0.90234375,-0.40771484,0.1772461,0.6713867,0.061035156,-0.24414062,0.0,0.0,0.0,-65.42908,63.380127,-36.150513
1766497498692,-0.8955078,-0.4033203,0.18017578,-0.12207031,0.18310547,0.0,0.0,0.0,0.0,-65.42908,63.380127,-36.150513
1766497498704,-0.8955078,-0.4033203,0.18017578,-0.12207031,0.18310547,0.0,0.0,0.0,0.0,-65.51697,63.380127,-36.28235
1766497498792,-0.8935547,-0.4038086,0.18408203,0.061035156,-0.18310547,0.0,0.0,0.0,0.0,-65.51697,63.380127,-36.28235
1766497498804,-0.8935547,-0.4038086,0.18408203,0.061035156,-0.18310547,0.0,0.0,0.0,0.0,-65.511475,63.391113,-36.276855
1766497498892,-0.89453125,-0.4091797,0.18017578,-0.24414062,-0.30517578,0.36621094,0.0,0.0,0.0,-65.511475,63.391113,-36.276855
1766497498903,-0.89453125,-0.4091797,0.18017578,-0.24414062,-0.30517578,0.36621094,0.0,0.0,0.0,-65.462036,63.396606,-36.260376
1766497498992,-0.8955078,-0.40283203,0.17919922,-0.24414062,1.159668,0.18310547,0.0,0.0,0.0,-65.462036,63.396606,-36.260376
1766497499003,-0.8955078,-0.40283203,0.17919922,-0.24414062,1.159668,0.18310547,0.0,0.0,0.0,-65.511475,63.424072,-36.293335
1766497499092,-0.8989258,-0.40283203,0.1796875,0.061035156,2.0751953,-0.6713867,0.0,0.0,0.0,-65.511475,63.424072,-36.293335
1766497499103,-0.8989258,-0.40283203,0.1796875,0.061035156,2.0751953,-0.6713867,0.0,0.0,0.0,-65.720215,63.446045,-36.567993
1766497499191,-0.8935547,-0.40527344,0.1743164,-1.2207031,0.5493164,0.36621094,0.0,0.0,0.0,-65.720215,63.446045,-36.567993
1766497499202,-0.8935547,-0.40527344,0.1743164,-1.2207031,0.5493164,0.36621094,0.0,0.0,0.0,-65.961914,63.495483,-36.8042
1766497499291,-0.8959961,-0.40771484,0.17041016,-0.4272461,0.61035156,-0.12207031,0.0,0.0,0.0,-65.961914,63.495483,-36.8042
1766497499303,-0.8959961,-0.40771484,0.17041016,-0.4272461,0.61035156,-0.12207031,0.0,0.0,0.0,-66.28601,63.55591,-37.078857
1766497499390,-0.88964844,-0.40576172,0.17285156,-1.159668,-0.061035156,-1.0375977,0.0,0.0,0.0,-66.28601,63.55591,-37.078857
1766497499402,-0.88964844,-0.40576172,0.17285156,-1.159668,-0.061035156,-1.0375977,0.0,0.0,0.0,-66.450806,63.517456,-37.144775
1766497499490,-0.9003906,-0.41455078,0.17138672,-1.8310547,0.24414062,-1.2207031,0.0,0.0,0.0,-66.450806,63.517456,-37.144775
1766497499502,-0.9003906,-0.41455078,0.17138672,-1.8310547,0.24414062,-1.2207031,0.0,0.0,0.0,-66.71997,63.41858,-37.199707
1766497499590,-0.8984375,-0.40429688,0.17236328,-0.4272461,0.8544922,-0.30517578,0.0,0.0,0.0,-66.71997,63.41858,-37.199707
1766497499601,-0.8984375,-0.40429688,0.17236328,-0.4272461,0.8544922,-0.30517578,0.0,0.0,0.0,-66.97815,63.347168,-37.402954
1766497499689,-0.8925781,-0.41259766,0.1694336,0.5493164,0.48828125,-0.061035156,0.0,0.0,0.0,-66.97815,63.347168,-37.402954
1766497499701,-0.8925781,-0.41259766,0.1694336,0.5493164,0.48828125,-0.061035156,0.0,0.0,0.0,-67.11548,63.391113,-37.600708
1766497499789,-0.89453125,-0.41357422,0.16845703,-0.12207031,-0.24414062,-0.061035156,0.0,0.0,0.0,-67.11548,63.391113,-37.600708
1766497499801,-0.89453125,-0.41357422,0.16845703,-0.12207031,-0.24414062,-0.061035156,0.0,0.0,0.0,-67.08252,63.374634,-37.58423
1766497499889,-0.8979492,-0.40771484,0.16796875,0.5493164,0.24414062,-0.36621094,0.0,0.0,0.0,-67.08252,63.374634,-37.58423
1766497499901,-0.8979492,-0.40771484,0.16796875,0.5493164,0.24414062,-0.36621094,0.0,0.0,0.0,-67.07703,63.341675,-37.58423
1766497499989,-0.8935547,-0.41015625,0.17382812,0.36621094,-0.5493164,-0.36621094,0.0,0.0,0.0,-67.07703,63.341675,-37.58423
1766497500000,-0.8935547,-0.41015625,0.17382812,0.36621094,-0.5493164,-0.36621094,0.0,0.0,0.0,-67.099,63.31421,-37.69409
1766497500089,-0.890625,-0.41064453,0.16992188,0.0,1.3427734,-0.061035156,0.0,0.0,0.0,-67.099,63.31421,-37.69409
1766497500100,-0.890625,-0.41064453,0.16992188,0.0,1.3427734,-0.061035156,0.0,0.0,0.0,-67.022095,63.29773,-37.58423
1766497500188,-0.89746094,-0.4140625,0.16601562,0.18310547,-0.4272461,-0.24414062,0.0,0.0,0.0,-67.022095,63.29773,-37.58423
1766497500200,-0.89746094,-0.4140625,0.16601562,0.18310547,-0.4272461,-0.24414062,0.0,0.0,0.0,-66.99463,63.28125,-37.562256
1766497500288,-0.88720703,-0.41308594,0.17871094,-0.30517578,-0.12207031,0.12207031,0.0,0.0,0.0,-66.99463,63.28125,-37.562256
1766497500299,-0.88720703,-0.41308594,0.17871094,-0.30517578,-0.12207031,0.12207031,0.0,0.0,0.0,-67.022095,63.26477,-37.58423
1766497500387,-0.8979492,-0.41015625,0.16992188,0.12207031,0.7324219,-0.061035156,0.0,0.0,0.0,-67.022095,63.26477,-37.58423
1766497500399,-0.8979492,-0.41015625,0.16992188,0.12207031,0.7324219,-0.061035156,0.0,0.0,0.0,-67.00012,63.270264,-37.496338
1766497500487,-0.8935547,-0.41308594,0.16894531,-0.48828125,-0.24414062,0.12207031,0.0,0.0,0.0,-67.00012,63.270264,-37.496338
1766497500499,-0.8935547,-0.41308594,0.16894531,-0.48828125,-0.24414062,0.12207031,0.0,0.0,0.0,-67.02759,63.275757,-37.48535
1766497500587,-0.8925781,-0.41015625,0.17138672,-0.12207031,-0.30517578,0.18310547,0.0,0.0,0.0,-67.02759,63.275757,-37.48535
1766497500599,-0.8925781,-0.41015625,0.17138672,-0.12207031,-0.30517578,0.18310547,0.0,0.0,0.0,-66.97815,63.28125,-37.391968
1766497500687,-0.8979492,-0.41015625,0.17236328,-0.18310547,-0.24414062,0.30517578,0.0,0.0,0.0,-66.97815,63.28125,-37.391968
1766497500699,-0.8979492,-0.41015625,0.17236328,-0.18310547,-0.24414062,0.30517578,0.0,0.0,0.0,-66.96167,63.292236,-37.298584
1766497500786,-0.8935547,-0.4116211,0.17138672,0.6713867,0.061035156,-0.24414062,0.0,0.0,0.0,-66.96167,63.292236,-37.298584
1766497500798,-0.8935547,-0.4116211,0.17138672,0.6713867,0.061035156,-0.24414062,0.0,0.0,0.0,-66.934204,63.292236,-37.26013
1766497500886,-0.9008789,-0.41748047,0.171875,-0.4272461,-1.3427734,0.24414062,0.0,0.0,0.0,-66.934204,63.292236,-37.26013
1766497500898,-0.9008789,-0.41748047,0.171875,-0.4272461,-1.3427734,0.24414062,0.0,0.0,0.0,-66.83533,63.270264,-37.17224
1766497500986,-0.89208984,-0.40673828,0.1796875,-0.12207031,0.12207031,0.18310547,0.0,0.0,0.0,-66.83533,63.270264,-37.17224
1766497500997,-0.89208984,-0.40673828,0.1796875,-0.12207031,0.12207031,0.18310547,0.0,0.0,0.0,-66.868286,63.275757,-37.11731
1766497501085,-0.89501953,-0.4116211,0.17285156,0.8544922,0.6713867,-0.4272461,0.0,0.0,0.0,-66.868286,63.275757,-37.11731
1766497501097,-0.89501953,-0.4116211,0.17285156,0.8544922,0.6713867,-0.4272461,0.0,0.0,0.0,-66.86279,63.28125,-37.15027
1766497501185,-0.8959961,-0.41308594,0.17382812,-0.5493164,-0.91552734,0.4272461,0.0,0.0,0.0,-66.86279,63.28125,-37.15027
1766497501197,-0.8959961,-0.41308594,0.17382812,-0.5493164,-0.91552734,0.4272461,0.0,0.0,0.0,-66.829834,63.286743,-37.122803
1766497501285,-0.89501953,-0.4091797,0.17333984,0.0,0.36621094,0.061035156,0.0,0.0,0.0,-66.829834,63.286743,-37.122803
1766497501297,-0.89501953,-0.4091797,0.17333984,0.0,0.36621094,0.061035156,0.0,0.0,0.0,-66.829834,63.292236,-37.111816
1766497501385,-0.89501953,-0.4111328,0.171875,-0.18310547,-0.12207031,0.24414062,0.0,0.0,0.0,-66.829834,63.292236,-37.111816
1766497501398,-0.89501953,-0.4111328,0.171875,-0.18310547,-0.12207031,0.24414062,0.0,0.0,0.0,-66.813354,63.31421,-37.10083
1766497501484,-0.89453125,-0.40966797,0.17285156,0.0,-0.24414062,0.061035156,0.0,0.0,0.0,-66.813354,63.31421,-37.10083
1766497501496,-0.89453125,-0.40966797,0.17285156,0.0,-0.24414062,0.061035156,0.0,0.0,0.0,-66.80237,63.319702,-37.10083
1766497501584,-0.8989258,-0.41210938,0.171875,0.24414062,0.061035156,0.12207031,0.0,0.0,0.0,-66.80237,63.319702,-37.10083
1766497501596,-0.8989258,-0.41210938,0.171875,0.24414062,0.061035156,0.12207031,0.0,0.0,0.0,-66.78589,63.325195,-37.111816
1766497501684,-0.8925781,-0.41503906,0.16894531,0.7324219,0.30517578,-0.24414062,0.0,0.0,0.0,-66.78589,63.325195,-37.111816
1766497501695,-0.8925781,-0.41503906,0.16894531,0.7324219,0.30517578,-0.24414062,0.0,0.0,0.0,-66.80786,63.325195,-37.17224
1766497501783,-0.89990234,-0.41552734,0.1665039,-0.6713867,-1.7700195,0.48828125,0.0,0.0,0.0,-66.80786,63.325195,-37.17224
1766497501795,-0.89990234,-0.41552734,0.1665039,-0.6713867,-1.7700195,0.48828125,0.0,0.0,0.0,-66.75842,63.275757,-37.17224
1766497501883,-0.89453125,-0.41015625,0.17578125,0.48828125,-0.061035156,0.0,0.0,0.0,0.0,-66.75842,63.275757,-37.17224
1766497501895,-0.89453125,-0.41015625,0.17578125,0.48828125,-0.061035156,0.0,0.0,0.0,0.0,-66.796875,63.292236,-37.210693
1766497501983,-0.8935547,-0.40820312,0.17529297,-0.18310547,0.12207031,0.061035156,0.0,0.0,0.0,-66.796875,63.292236,-37.210693
1766497501994,-0.8935547,-0.40820312,0.17529297,-0.18310547,0.12207031,0.061035156,0.0,0.0,0.0,-66.780396,63.286743,-37.249146
1766497502084,-0.8979492,-0.4116211,0.17285156,-0.24414062,-0.61035156,0.48828125,0.0,0.0,0.0,-66.780396,63.286743,-37.249146
1766497502094,-0.8979492,-0.4116211,0.17285156,-0.24414062,-0.61035156,0.48828125,0.0,0.0,0.0,-66.698,63.29773,-37.139282
1766497502183,-0.8930664,-0.4116211,0.17626953,-0.061035156,0.36621094,0.0,0.0,0.0,0.0,-66.698,63.29773,-37.139282
1766497502199,-0.8930664,-0.4116211,0.17626953,-0.061035156,0.36621094,0.0,0.0,0.0,0.0,-66.73645,63.319702,-37.199707
1766497502283,-0.89501953,-0.41015625,0.1743164,0.0,0.0,0.0,0.0,0.0,0.0,-66.73645,63.319702,-37.199707
1766497502294,-0.89501953,-0.41015625,0.1743164,0.0,0.0,0.0,0.0,0.0,0.0,-66.75293,63.319702,-37.210693
1766497502382,-0.8955078,-0.4111328,0.17333984,0.0,-0.12207031,0.12207031,0.0,0.0,0.0,-66.75293,63.319702,-37.210693
1766497502394,-0.8955078,-0.4111328,0.17333984,0.0,-0.12207031,0.12207031,0.0,0.0,0.0,-66.71448,63.31421,-37.18872
1766497502481,-0.89990234,-0.41259766,0.171875,-0.79345703,-0.12207031,0.30517578,0.0,0.0,0.0,-66.71448,63.31421,-37.18872
1766497502493,-0.89990234,-0.41259766,0.171875,-0.79345703,-0.12207031,0.30517578,0.0,0.0,0.0,-66.71448,63.31421,-37.15027
1766497502581,-0.89501953,-0.41064453,0.16894531,0.61035156,0.24414062,-0.24414062,0.0,0.0,0.0,-66.71448,63.31421,-37.15027
1766497502593,-0.89501953,-0.41064453,0.16894531,0.61035156,0.24414062,-0.24414062,0.0,0.0,0.0,-66.74744,63.325195,-37.161255
1766497502681,-0.89501953,-0.41210938,0.16796875,-1.8920898,-1.4038086,0.7324219,0.0,0.0,0.0,-66.74744,63.325195,-37.161255
1766497502692,-0.89501953,-0.41210938,0.16796875,-1.8920898,-1.4038086,0.7324219,0.0,0.0,0.0,-66.692505,63.29773,-37.089844
1766497502781,-0.8979492,-0.4140625,0.17138672,-0.24414062,-0.7324219,0.18310547,0.0,0.0,0.0,-66.692505,63.29773,-37.089844
1766497502792,-0.8979492,-0.4140625,0.17138672,-0.24414062,-0.7324219,0.18310547,0.0,0.0,0.0,-66.75842,63.319702,-37.089844
1766497502880,-0.890625,-0.41015625,0.17529297,-0.7324219,-0.30517578,0.12207031,0.0,0.0,0.0,-66.75842,63.319702,-37.089844
1766497502892,-0.890625,-0.41015625,0.17529297,-0.7324219,-0.30517578,0.12207031,0.0,0.0,0.0,-66.75293,63.308716,-37.05139
1766497502980,-0.8989258,-0.41259766,0.1694336,0.24414062,-0.061035156,-0.061035156,0.0,0.0,0.0,-66.75293,63.308716,-37.05139
1766497502992,-0.8989258,-0.41259766,0.1694336,0.24414062,-0.061035156,-0.061035156,0.0,0.0,0.0,-66.68701,63.29773,-36.94702
1766497503080,-0.89208984,-0.41259766,0.17578125,0.6713867,1.0375977,-0.5493164,0.0,0.0,0.0,-66.68701,63.29773,-36.94702
1766497503092,-0.89208984,-0.41259766,0.17578125,0.6713867,1.0375977,-0.5493164,0.0,0.0,0.0,-66.82434,63.286743,-37.17224
1766497503179,-0.8959961,-0.41064453,0.17529297,0.0,0.061035156,0.12207031,0.0,0.0,0.0,-66.82434,63.286743,-37.17224
1766497503191,-0.8959961,-0.41064453,0.17529297,0.0,0.061035156,0.12207031,0.0,0.0,0.0,-66.901245,63.286743,-37.282104
1766497503279,-0.8930664,-0.41455078,0.17333984,0.30517578,0.61035156,0.0,0.0,0.0,0.0,-66.901245,63.286743,-37.282104
1766497503291,-0.8930664,-0.41455078,0.17333984,0.30517578,0.61035156,0.0,0.0,0.0,0.0,-66.917725,63.29773,-37.348022
1766497503379,-0.8964844,-0.4111328,0.17089844,-0.5493164,0.18310547,0.18310547,0.0,0.0,0.0,-66.917725,63.29773,-37.348022
1766497503391,-0.8964844,-0.4111328,0.17089844,-0.5493164,0.18310547,0.18310547,0.0,0.0,0.0,-66.96167,63.31421,-37.353516
1766497503479,-0.890625,-0.4111328,0.16748047,0.8544922,0.8544922,-0.12207031,0.0,0.0,0.0,-66.96167,63.31421,-37.353516
1766497503490,-0.890625,-0.4111328,0.16748047,0.8544922,0.8544922,-0.12207031,0.0,0.0,0.0,-67.03308,63.325195,-37.43042
1766497503579,-0.89941406,-0.41455078,0.16210938,0.0,-0.061035156,-0.12207031,0.0,0.0,0.0,-67.03308,63.325195,-37.43042
1766497503590,-0.89941406,-0.41455078,0.16210938,0.0,-0.061035156,-0.12207031,0.0,0.0,0.0,-67.022095,63.308716,-37.435913
1766497503678,-0.89404297,-0.41210938,0.17382812,0.12207031,-0.061035156,0.0,0.0,0.0,0.0,-67.022095,63.308716,-37.435913
1766497503690,-0.89404297,-0.41210938,0.17382812,0.12207031,-0.061035156,0.0,0.0,0.0,0.0,-67.20886,63.33618,-37.63916
1766497503778,-0.8901367,-0.4111328,0.17333984,0.061035156,0.6713867,-0.24414062,0.0,0.0,0.0,-67.20886,63.33618,-37.63916
1766497503789,-0.8901367,-0.4111328,0.17333984,0.061035156,0.6713867,-0.24414062,0.0,0.0,0.0,-67.23633,63.325195,-37.666626
1766497503877,-0.89990234,-0.41455078,0.1694336,0.0,-1.0375977,0.18310547,0.0,0.0,0.0,-67.23633,63.325195,-37.666626
1766497503889,-0.89990234,-0.41455078,0.1694336,0.0,-1.0375977,0.18310547,0.0,0.0,0.0,-67.18689,63.31421,-37.6062
1766497503977,-0.890625,-0.41308594,0.17529297,0.0,0.18310547,-0.061035156,0.0,0.0,0.0,-67.18689,63.31421,-37.6062
1766497503989,-0.890625,-0.41308594,0.17529297,0.0,0.18310547,-0.061035156,0.0,0.0,0.0,-67.23633,63.303223,-37.6886
1766497504077,-0.8935547,-0.41064453,0.171875,0.0,0.12207031,0.0,0.0,0.0,0.0,-67.23633,63.303223,-37.6886
1766497504088,-0.8935547,-0.41064453,0.171875,0.0,0.12207031,0.0,0.0,0.0,0.0,-67.1759,63.292236,-37.58972
1766497504177,-0.8930664,-0.4116211,0.17480469,-0.61035156,-0.36621094,0.30517578,0.0,0.0,0.0,-67.1759,63.292236,-37.58972
1766497504188,-0.8930664,-0.4116211,0.17480469,-0.61035156,-0.36621094,0.30517578,0.0,0.0,0.0,-67.15393,63.29773,-37.512817
1766497504276,-0.8964844,-0.41210938,0.16992188,-0.6713867,-0.24414062,0.36621094,0.0,0.0,0.0,-67.15393,63.29773,-37.512817
1766497504288,-0.8964844,-0.41210938,0.16992188,-0.6713867,-0.24414062,0.36621094,0.0,0.0,0.0,-67.10449,63.308716,-37.391968
1766497504376,-0.8901367,-0.41308594,0.17041016,0.36621094,-0.061035156,0.12207031,0.0,0.0,0.0,-67.10449,63.308716,-37.391968
1766497504387,-0.8901367,-0.41308594,0.17041016,0.36621094,-0.061035156,0.12207031,0.0,0.0,0.0,-67.099,63.308716,-37.364502
1766497504476,-0.8984375,-0.41455078,0.16503906,-0.18310547,-0.7324219,0.18310547,0.0,0.0,0.0,-67.099,63.308716,-37.364502
1766497504488,-0.8984375,-0.41455078,0.16503906,-0.18310547,-0.7324219,0.18310547,0.0,0.0,0.0,-66.95618,63.292236,-37.161255
1766497504576,-0.8959961,-0.4111328,0.17578125,0.18310547,0.0,0.0,0.0,0.0,0.0,-66.95618,63.292236,-37.161255
1766497504587,-0.8959961,-0.4111328,0.17578125,0.18310547,0.0,0.0,0.0,0.0,0.0,-67.01111,63.303223,-37.183228
1766497504675,-0.890625,-0.40673828,0.17236328,0.0,0.8544922,-0.36621094,0.0,0.0,0.0,-67.01111,63.303223,-37.183228
1766497504687,-0.890625,-0.40673828,0.17236328,0.0,0.8544922,-0.36621094,0.0,0.0,0.0,-67.093506,63.292236,-37.29309
1766497504776,-0.8979492,-0.4189453,0.16503906,-0.24414062,-0.5493164,0.30517578,0.0,0.0,0.0,-67.093506,63.292236,-37.29309
1766497504786,-0.8979492,-0.4189453,0.16503906,-0.24414062,-0.5493164,0.30517578,0.0,0.0,0.0,-67.00012,63.292236,-37.216187
1766497504875,-0.8930664,-0.4111328,0.1743164,0.0,0.5493164,-0.30517578,0.0,0.0,0.0,-67.00012,63.292236,-37.216187
1766497504886,-0.8930664,-0.4111328,0.1743164,0.0,0.5493164,-0.30517578,0.0,0.0,0.0,-67.17041,63.292236,-37.435913
1766497504974,-0.8925781,-0.41015625,0.17382812,0.6713867,0.0,-0.18310547,0.0,0.0,0.0,-67.17041,63.292236,-37.435913
1766497504986,-0.8925781,-0.41015625,0.17382812,0.6713867,0.0,-0.18310547,0.0,0.0,0.0,-67.230835,63.292236,-37.545776
1766497505074,-0.8979492,-0.41552734,0.17138672,-0.12207031,-0.18310547,0.061035156,0.0,0.0,0.0,-67.230835,63.292236,-37.545776
1766497505086,-0.8979492,-0.41552734,0.17138672,-0.12207031,-0.18310547,0.061035156,0.0,0.0,0.0,-67.142944,63.275757,-37.496338
1766497505174,-0.89501953,-0.41259766,0.17089844,0.30517578,0.12207031,0.18310547,0.0,0.0,0.0,-67.142944,63.275757,-37.496338
1766497505185,-0.89501953,-0.41259766,0.17089844,0.30517578,0.12207031,0.18310547,0.0,0.0,0.0,-67.159424,63.275757,-37.496338
1766497505273,-0.8925781,-0.41259766,0.17041016,0.9765625,0.5493164,0.0,0.0,0.0,0.0,-67.159424,63.275757,-37.496338
1766497505285,-0.8925781,-0.41259766,0.17041016,0.9765625,0.5493164,0.0,0.0,0.0,0.0,-67.1759,63.286743,-37.529297
1766497505373,-0.9038086,-0.41748047,0.16894531,0.30517578,-1.0375977,0.24414062,0.0,0.0,0.0,-67.1759,63.286743,-37.529297
1766497505385,-0.9038086,-0.41748047,0.16894531,0.30517578,-1.0375977,0.24414062,0.0,0.0,0.0,-67.18689,63.275757,-37.6062
1766497505473,-0.89208984,-0.41064453,0.17626953,0.12207031,0.24414062,0.36621094,0.0,0.0,0.0,-67.18689,63.275757,-37.6062
1766497505485,-0.89208984,-0.41064453,0.17626953,0.12207031,0.24414062,0.36621094,0.0,0.0,0.0,-67.230835,63.308716,-37.58423
1766497505573,-0.89697266,-0.41210938,0.17138672,0.0,0.6713867,-0.061035156,0.0,0.0,0.0,-67.230835,63.308716,-37.58423
1766497505584,-0.89697266,-0.41210938,0.17138672,0.0,0.6713867,-0.061035156,0.0,0.0,0.0,-67.214355,63.325195,-37.529297
1766497505672,-0.8955078,-0.41064453,0.16992188,0.30517578,-0.36621094,0.0,0.0,0.0,0.0,-67.214355,63.325195,-37.529297
1766497505684,-0.8955078,-0.41064453,0.16992188,0.30517578,-0.36621094,0.0,0.0,0.0,0.0,-67.16492,63.33069,-37.468872
1766497505772,-0.89501953,-0.41308594,0.17041016,0.4272461,0.7324219,-0.24414062,0.0,0.0,0.0,-67.16492,63.33069,-37.468872
1766497505784,-0.89501953,-0.41308594,0.17041016,0.4272461,0.7324219,-0.24414062,0.0,0.0,0.0,-67.20337,63.325195,-37.55127
1766497505872,-0.8955078,-0.4111328,0.1694336,0.24414062,0.24414062,0.12207031,0.0,0.0,0.0,-67.20337,63.325195,-37.55127
1766497505883,-0.8955078,-0.4111328,0.1694336,0.24414062,0.24414062,0.12207031,0.0,0.0,0.0,-67.22534,63.33618,-37.573242
1766497505971,-0.89404297,-0.4116211,0.17089844,0.30517578,0.061035156,-0.061035156,0.0,0.0,0.0,-67.22534,63.33618,-37.573242
1766497505983,-0.89404297,-0.4116211,0.17089844,0.30517578,0.061035156,-0.061035156,0.0,0.0,0.0,-67.19238,63.33069,-37.55127
1766497506071,-0.890625,-0.41308594,0.16992188,-0.5493164,-0.12207031,0.061035156,0.0,0.0,0.0,-67.19238,63.33069,-37.55127
1766497506083,-0.890625,-0.41308594,0.16992188,-0.5493164,-0.12207031,0.061035156,0.0,0.0,0.0,-67.18689,63.33069,-37.53479
1766497506171,-0.8964844,-0.40966797,0.17773438,-0.24414062,0.79345703,0.12207031,0.0,0.0,0.0,-67.18689,63.33069,-37.53479
1766497506182,-0.8964844,-0.40966797,0.17773438,-0.24414062,0.79345703,0.12207031,0.0,0.0,0.0,-67.16492,63.347168,-37.474365
1766497506271,-0.8930664,-0.4140625,0.17919922,1.0375977,0.9765625,-0.9765625,0.0,0.0,0.0,-67.16492,63.347168,-37.474365
1766497506282,-0.8930664,-0.4140625,0.17919922,1.0375977,0.9765625,-0.9765625,0.0,0.0,0.0,-67.21985,63.325195,-37.661133
1766497506370,-0.89404297,-0.40625,0.17382812,-0.5493164,0.79345703,0.36621094,0.0,0.0,0.0,-67.21985,63.325195,-37.661133
1766497506382,-0.89404297,-0.40625,0.17382812,-0.5493164,0.79345703,0.36621094,0.0,0.0,0.0,-67.10449,63.31421,-37.46338
1766497506470,-0.89697266,-0.41357422,0.1665039,0.61035156,0.061035156,-0.24414062,0.0,0.0,0.0,-67.10449,63.31421,-37.46338
1766497506481,-0.89697266,-0.41357422,0.1665039,0.61035156,0.061035156,-0.24414062,0.0,0.0,0.0,-67.11548,63.325195,-37.496338
1766497506570,-0.89208984,-0.41210938,0.17480469,-0.36621094,-0.24414062,0.18310547,0.0,0.0,0.0,-67.11548,63.325195,-37.496338
1766497506581,-0.89208984,-0.41210938,0.17480469,-0.36621094,-0.24414062,0.18310547,0.0,0.0,0.0,-67.11548,63.325195,-37.47986
1766497506669,-0.8964844,-0.41503906,0.16748047,0.4272461,1.0375977,-0.18310547,0.0,0.0,0.0,-67.11548,63.325195,-37.47986
1766497506681,-0.8964844,-0.41503906,0.16748047,0.4272461,1.0375977,-0.18310547,0.0,0.0,0.0,-67.06055,63.33618,-37.41394
1766497506769,-0.89697266,-0.41308594,0.17138672,-0.18310547,0.24414062,0.12207031,0.0,0.0,0.0,-67.06055,63.33618,-37.41394
1766497506781,-0.89697266,-0.41308594,0.17138672,-0.18310547,0.24414062,0.12207031,0.0,0.0,0.0,-67.142944,63.341675,-37.490845
1766497506869,-0.89697266,-0.41259766,0.16894531,0.061035156,0.9765625,-0.24414062,0.0,0.0,0.0,-67.142944,63.341675,-37.490845
1766497506880,-0.89697266,-0.41259766,0.16894531,0.061035156,0.9765625,-0.24414062,0.0,0.0,0.0,-67.21985,63.341675,-37.562256
1766497506968,-0.89697266,-0.41357422,0.16552734,-0.7324219,0.24414062,0.0,0.0,0.0,0.0,-67.21985,63.341675,-37.562256
1766497506980,-0.89697266,-0.41357422,0.16552734,-0.7324219,0.24414062,0.0,0.0,0.0,0.0,-67.40662,63.358154,-37.74353
1766497507068,-0.8989258,-0.41552734,0.17138672,-1.2207031,1.3427734,-0.30517578,0.0,0.0,0.0,-67.40662,63.358154,-37.74353
1766497507080,-0.8989258,-0.41552734,0.17138672,-1.2207031,1.3427734,-0.30517578,0.0,0.0,0.0,-67.6593,63.374634,-37.930298
1766497507168,-0.9042969,-0.42919922,0.16357422,-2.0751953,1.4648438,0.48828125,0.0,0.0,0.0,-67.6593,63.374634,-37.930298
1766497507180,-0.9042969,-0.42919922,0.16357422,-2.0751953,1.4648438,0.48828125,0.0,0.0,0.0,-68.05481,63.396606,-38.24341
1766497507268,-0.9267578,-0.4428711,0.15185547,-2.6245117,-2.4414062,0.7324219,0.0,0.0,0.0,-68.05481,63.396606,-38.24341
1766497507279,-0.9267578,-0.4428711,0.15185547,-2.6245117,-2.4414062,0.7324219,0.0,0.0,0.0,-68.323975,63.451538,-38.287354
1766497507367,-0.8613281,-0.35546875,0.171875,5.3100586,4.333496,-5.92041,0.0,0.0,0.0,-68.323975,63.451538,-38.287354
1766497507379,-0.8613281,-0.35546875,0.171875,5.3100586,4.333496,-5.92041,0.0,0.0,0.0,-68.47229,63.259277,-38.397217
1766497507467,-0.92529297,-0.45410156,0.15234375,3.479004,0.36621094,-1.2207031,0.0,0.0,0.0,-68.47229,63.259277,-38.397217
1766497507479,-0.92529297,-0.45410156,0.15234375,3.479004,0.36621094,-1.2207031,0.0,0.0,0.0,-68.829346,63.1604,-39.468384
1766497507567,-0.8911133,-0.4091797,0.1899414,1.7089844,0.5493164,1.2817383,0.0,0.0,0.0,-68.829346,63.1604,-39.468384
1766497507578,-0.8911133,-0.4091797,0.1899414,1.7089844,0.5493164,1.2817383,0.0,0.0,0.0,-68.411865,63.138428,-39.10034
1766497507667,-0.90234375,-0.40234375,0.1665039,0.36621094,6.591797,4.3945312,0.0,0.0,0.0,-68.411865,63.138428,-39.10034
1766497507678,-0.90234375,-0.40234375,0.1665039,0.36621094,6.591797,4.3945312,0.0,0.0,0.0,-68.38989,63.407593,-39.193726
1766497507766,-0.88378906,-0.42333984,0.140625,-1.4648438,2.1362305,3.4179688,0.0,0.0,0.0,-68.38989,63.407593,-39.193726
1766497507778,-0.88378906,-0.42333984,0.140625,-1.4648438,2.1362305,3.4179688,0.0,0.0,0.0,-69.0271,63.934937,-39.8584
1766497507866,-0.87939453,-0.40527344,0.1484375,-5.004883,0.61035156,4.638672,0.0,0.0,0.0,-69.0271,63.934937,-39.8584
1766497507878,-0.87939453,-0.40527344,0.1484375,-5.004883,0.61035156,4.638672,0.0,0.0,0.0,-69.47754,64.39087,-39.874878
1766497507966,-0.9091797,-0.39160156,0.13134766,-6.958008,-2.2583008,3.7231445,0.0,0.0,0.0,-69.47754,64.39087,-39.874878
1766497507977,-0.9091797,-0.39160156,0.13134766,-6.958008,-2.2583008,3.7231445,0.0,0.0,0.0,-69.75769,64.6875,-39.42444
1766497508065,-0.9042969,-0.40039062,0.13964844,1.2207031,0.30517578,2.1362305,0.0,0.0,0.0,-69.75769,64.6875,-39.42444
1766497508077,-0.9042969,-0.40039062,0.13964844,1.2207031,0.30517578,2.1362305,0.0,0.0,0.0,-69.40613,64.9292,-38.589478
1766497508165,-0.90771484,-0.38720703,0.15966797,-3.3569336,-4.638672,3.7231445,0.0,0.0,0.0,-69.40613,64.9292,-38.589478
1766497508177,-0.90771484,-0.38720703,0.15966797,-3.3569336,-4.638672,3.7231445,0.0,0.0,0.0,-69.0271,65.148926,-37.96875
1766497508265,-0.9008789,-0.36914062,0.14160156,-0.61035156,-1.2817383,-1.5258789,0.0,0.0,0.0,-69.0271,65.148926,-37.96875
1766497508276,-0.9008789,-0.36914062,0.14160156,-0.61035156,-1.2817383,-1.5258789,0.0,0.0,0.0,-68.63159,65.0061,-37.386475
1766497508365,-0.9199219,-0.4013672,0.14355469,-2.1972656,-4.211426,0.12207031,0.0,0.0,0.0,-68.63159,65.0061,-37.386475
1766497508376,-0.9199219,-0.4013672,0.14355469,-2.1972656,-4.211426,0.12207031,0.0,0.0,0.0,-68.1427,64.940186,-36.743774
1766497508464,-0.9042969,-0.38134766,0.1616211,-0.36621094,-1.5258789,-1.5869141,0.0,0.0,0.0,-68.1427,64.940186,-36.743774
1766497508476,-0.9042969,-0.38134766,0.1616211,-0.36621094,-1.5258789,-1.5869141,0.0,0.0,0.0,-68.03833,64.78088,-36.502075
1766497508564,-0.9038086,-0.4013672,0.15722656,2.8076172,0.79345703,-3.2348633,0.0,0.0,0.0,-68.03833,64.78088,-36.502075
1766497508576,-0.9038086,-0.4013672,0.15722656,2.8076172,0.79345703,-3.2348633,0.0,0.0,0.0,-67.92297,64.55017,-36.59546
1766497508664,-0.91308594,-0.39892578,0.16552734,2.4414062,0.18310547,-1.0375977,0.0,0.0,0.0,-67.92297,64.55017,-36.59546
1766497508675,-0.91308594,-0.39892578,0.16552734,2.4414062,0.18310547,-1.0375977,0.0,0.0,0.0,-67.83508,64.3634,-36.765747
1766497508764,-0.8930664,-0.41210938,0.15673828,3.9672852,2.6245117,-1.6479492,0.0,0.0,0.0,-67.83508,64.3634,-36.765747
1766497508775,-0.8930664,-0.41210938,0.15673828,3.9672852,2.6245117,-1.6479492,0.0,0.0,0.0,-67.769165,64.32495,-37.106323
1766497508863,-0.9086914,-0.39404297,0.1586914,0.12207031,-2.380371,2.6245117,0.0,0.0,0.0,-67.769165,64.32495,-37.106323
1766497508875,-0.9086914,-0.39404297,0.1586914,0.12207031,-2.380371,2.6245117,0.0,0.0,0.0,-67.45056,64.3689,-36.848145
1766497508963,-0.90625,-0.4013672,0.17138672,0.7324219,1.0375977,0.12207031,0.0,0.0,0.0,-67.45056,64.3689,-36.848145
1766497508975,-0.90625,-0.4013672,0.17138672,0.7324219,1.0375977,0.12207031,0.0,0.0,0.0,-67.58789,64.46228,-37.02942
1766497509063,-0.90625,-0.39990234,0.1538086,-0.12207031,-1.5869141,-0.12207031,0.0,0.0,0.0,-67.58789,64.46228,-37.02942
1766497509074,-0.90625,-0.39990234,0.1538086,-0.12207031,-1.5869141,-0.12207031,0.0,0.0,0.0,-67.52197,64.46777,-36.968994
1766497509162,-0.89746094,-0.39208984,0.16894531,-0.24414062,1.7089844,-0.18310547,0.0,0.0,0.0,-67.52197,64.46777,-36.968994
1766497509174,-0.89746094,-0.39208984,0.16894531,-0.24414062,1.7089844,-0.18310547,0.0,0.0,0.0,-67.68677,64.46228,-37.073364
1766497509262,-0.9038086,-0.39697266,0.15185547,0.0,0.91552734,0.0,0.0,0.0,0.0,-67.68677,64.46228,-37.073364
1766497509273,-0.9038086,-0.39697266,0.15185547,0.0,0.91552734,0.0,0.0,0.0,0.0,-67.60437,64.451294,-36.99646
1766497509362,-0.9038086,-0.39697266,0.1616211,-1.5869141,-2.319336,1.5258789,0.0,0.0,0.0,-67.60437,64.451294,-36.99646
1766497509373,-0.9038086,-0.39697266,0.1616211,-1.5869141,-2.319336,1.5258789,0.0,0.0,0.0,-67.576904,64.539185,-36.89209
1766497509461,-0.9086914,-0.39892578,0.15966797,0.79345703,1.4038086,-0.79345703,0.0,0.0,0.0,-67.576904,64.539185,-36.89209
1766497509473,-0.9086914,-0.39892578,0.15966797,0.79345703,1.4038086,-0.79345703,0.0,0.0,0.0,-67.576904,64.51721,-36.936035
1766497509561,-0.9013672,-0.39892578,0.15917969,-3.4179688,-0.9765625,1.159668,0.0,0.0,0.0,-67.576904,64.51721,-36.936035
1766497509573,-0.9013672,-0.39892578,0.15917969,-3.4179688,-0.9765625,1.159668,0.0,0.0,0.0,-67.62634,64.53369,-36.853638
1766497509661,-0.9038086,-0.3857422,0.15820312,-0.061035156,-0.79345703,0.18310547,0.0,0.0,0.0,-67.62634,64.53369,-36.853638
1766497509673,-0.9038086,-0.3857422,0.15820312,-0.061035156,-0.79345703,0.18310547,0.0,0.0,0.0,-67.60986,64.56116,-36.66687
1766497509761,-0.9111328,-0.39990234,0.15332031,-0.6713867,-2.2583008,0.0,0.0,0.0,0.0,-67.60986,64.56116,-36.66687
1766497509772,-0.9111328,-0.39990234,0.15332031,-0.6713867,-2.2583008,0.0,0.0,0.0,0.0,-67.47803,64.51721,-36.52954
1766497509860,-0.89501953,-0.4038086,0.16308594,-0.48828125,-0.24414062,-1.2817383,0.0,0.0,0.0,-67.47803,64.51721,-36.52954
1766497509872,-0.89501953,-0.4038086,0.16308594,-0.48828125,-0.24414062,-1.2817383,0.0,0.0,0.0,-67.58789,64.44031,-36.535034
1766497509960,-0.90625,-0.3955078,0.16064453,-1.2207031,-3.0517578,-1.159668,0.0,0.0,0.0,-67.58789,64.44031,-36.535034
1766497509972,-0.90625,-0.3955078,0.16064453,-1.2207031,-3.0517578,-1.159668,0.0,0.0,0.0,-67.456055,64.176636,-36.315308
1766497510060,-0.8935547,-0.39453125,0.16113281,1.8920898,-0.24414062,-1.6479492,0.0,0.0,0.0,-67.456055,64.176636,-36.315308
1766497510071,-0.8935547,-0.39453125,0.16113281,1.8920898,-0.24414062,-1.6479492,0.0,0.0,0.0,-67.30774,64.06128,-36.18347
1766497510159,-0.9135742,-0.41308594,0.16845703,1.4648438,-0.24414062,-2.1972656,0.0,0.0,0.0,-67.30774,64.06128,-36.18347
1766497510172,-0.9135742,-0.41308594,0.16845703,1.4648438,-0.24414062,-2.1972656,0.0,0.0,0.0,-67.318726,63.945923,-36.45813
1766497510259,-0.87890625,-0.41015625,0.1743164,-0.30517578,1.3427734,-1.5869141,0.0,0.0,0.0,-67.318726,63.945923,-36.45813
1766497510272,-0.87890625,-0.41015625,0.1743164,-0.30517578,1.3427734,-1.5869141,0.0,0.0,0.0,-67.5824,63.74817,-36.776733
1766497510359,-0.90527344,-0.4111328,0.1616211,1.4038086,2.319336,-1.953125,0.0,0.0,0.0,-67.5824,63.74817,-36.776733
1766497510370,-0.90527344,-0.4111328,0.1616211,1.4038086,2.319336,-1.953125,0.0,0.0,0.0,-67.472534,63.6438,-36.661377
1766497510459,-0.8925781,-0.40966797,0.16455078,-0.36621094,-1.8920898,0.0,0.0,0.0,0.0,-67.472534,63.6438,-36.661377
1766497510470,-0.8925781,-0.40966797,0.16455078,-0.36621094,-1.8920898,0.0,0.0,0.0,0.0,-67.697754,63.50647,-37.05139
1766497510558,-0.9042969,-0.41796875,0.16503906,-1.2207031,0.30517578,0.12207031,0.0,0.0,0.0,-67.697754,63.50647,-37.05139
1766497510570,-0.9042969,-0.41796875,0.16503906,-1.2207031,0.30517578,0.12207031,0.0,0.0,0.0,-67.752686,63.533936,-37.144775
1766497510658,-0.8964844,-0.41210938,0.15625,1.4038086,0.18310547,-0.5493164,0.0,0.0,0.0,-67.752686,63.533936,-37.144775
1766497510670,-0.8964844,-0.41210938,0.15625,1.4038086,0.18310547,-0.5493164,0.0,0.0,0.0,-67.80762,63.47351,-37.25464
1766497510758,-0.8847656,-0.42333984,0.15917969,1.6479492,0.9765625,-1.7089844,0.0,0.0,0.0,-67.80762,63.47351,-37.25464
1766497510769,-0.8847656,-0.42333984,0.15917969,1.6479492,0.9765625,-1.7089844,0.0,0.0,0.0,-67.91748,63.429565,-37.47986
1766497510858,-0.9008789,-0.42041016,0.15625,-0.4272461,-0.36621094,0.12207031,0.0,0.0,0.0,-67.91748,63.429565,-37.47986
1766497510869,-0.9008789,-0.42041016,0.15625,-0.4272461,-0.36621094,0.12207031,0.0,0.0,0.0,-67.92297,63.347168,-37.573242
1766497510957,-0.89160156,-0.4111328,0.16748047,-0.79345703,0.36621094,0.5493164,0.0,0.0,0.0,-67.92297,63.347168,-37.573242
1766497510969,-0.89160156,-0.4111328,0.16748047,-0.79345703,0.36621094,0.5493164,0.0,0.0,0.0,-68.236084,63.391113,-37.891846
1766497511057,-0.9013672,-0.41503906,0.15966797,2.4414062,1.953125,-1.0375977,0.0,0.0,0.0,-68.236084,63.391113,-37.891846
1766497511068,-0.9013672,-0.41503906,0.15966797,2.4414062,1.953125,-1.0375977,0.0,0.0,0.0,-68.32947,63.4021,-38.155518
1766497511157,-0.8959961,-0.41992188,0.15820312,-1.0986328,-1.4038086,0.4272461,0.0,0.0,0.0,-68.32947,63.4021,-38.155518
1766497511168,-0.8959961,-0.41992188,0.15820312,-1.0986328,-1.4038086,0.4272461,0.0,0.0,0.0,-68.45032,63.38562,-38.391724
1766497511256,-0.8979492,-0.42089844,0.1616211,1.5258789,0.61035156,0.12207031,0.0,0.0,0.0,-68.45032,63.38562,-38.391724
1766497511268,-0.8979492,-0.42089844,0.1616211,1.5258789,0.61035156,0.12207031,0.0,0.0,0.0,-68.35693,63.358154,-38.41919
1766497511356,-0.8911133,-0.41357422,0.16503906,0.18310547,-0.7324219,-0.79345703,0.0,0.0,0.0,-68.35693,63.358154,-38.41919
1766497511368,-0.8911133,-0.41357422,0.16503906,0.18310547,-0.7324219,-0.79345703,0.0,0.0,0.0,-68.323975,63.36914,-38.430176
1766497511456,-0.89697266,-0.41845703,0.16748047,0.5493164,-0.12207031,-0.6713867,0.0,0.0,0.0,-68.323975,63.36914,-38.430176
1766497511467,-0.89697266,-0.41845703,0.16748047,0.5493164,-0.12207031,-0.6713867,0.0,0.0,0.0,-68.29651,63.253784,-38.468628
1766497511556,-0.89453125,-0.41357422,0.16308594,0.4272461,0.6713867,-1.0986328,0.0,0.0,0.0,-68.29651,63.253784,-38.468628
1766497511567,-0.89453125,-0.41357422,0.16308594,0.4272461,0.6713867,-1.0986328,0.0,0.0,0.0,-68.23059,63.165894,-38.441162
1766497511655,-0.8984375,-0.421875,0.16796875,-0.8544922,-2.6855469,0.24414062,0.0,0.0,0.0,-68.23059,63.165894,-38.441162
1766497511667,-0.8984375,-0.421875,0.16796875,-0.8544922,-2.6855469,0.24414062,0.0,0.0,0.0,-68.25806,63.10547,-38.572998
1766497511755,-0.8857422,-0.41845703,0.17382812,1.159668,0.6713867,0.48828125,0.0,0.0,0.0,-68.25806,63.10547,-38.572998
1766497511767,-0.8857422,-0.41845703,0.17382812,1.159668,0.6713867,0.48828125,0.0,0.0,0.0,-68.04932,63.094482,-38.35327
1766497511855,-0.90185547,-0.41064453,0.16552734,3.6010742,-2.4414062,-0.48828125,0.0,0.0,0.0,-68.04932,63.094482,-38.35327
1766497511866,-0.90185547,-0.41064453,0.16552734,3.6010742,-2.4414062,-0.48828125,0.0,0.0,0.0,-67.57141,63.034058,-38.00171
1766497511954,-0.87890625,-0.4272461,0.18115234,0.30517578,0.61035156,0.48828125,0.0,0.0,0.0,-67.57141,63.034058,-38.00171
1766497511966,-0.87890625,-0.4272461,0.18115234,0.30517578,0.61035156,0.48828125,0.0,0.0,0.0,-67.368164,63.01758,-37.95227
1766497512054,-0.90234375,-0.40820312,0.16308594,0.6713867,0.5493164,-0.61035156,0.0,0.0,0.0,-67.368164,63.01758,-37.95227
1766497512066,-0.90234375,-0.40820312,0.16308594,0.6713867,0.5493164,-0.61035156,0.0,0.0,0.0,-67.093506,62.957153,-37.507324
1766497512154,-0.88720703,-0.4165039,0.17089844,-0.48828125,-0.4272461,0.91552734,0.0,0.0,0.0,-67.093506,62.957153,-37.507324
1766497512166,-0.88720703,-0.4165039,0.17089844,-0.48828125,-0.4272461,0.91552734,0.0,0.0,0.0,-67.29675,63.0011,-37.749023
1766497512254,-0.89404297,-0.41992188,0.171875,1.0375977,1.159668,-0.7324219,0.0,0.0,0.0,-67.29675,63.0011,-37.749023
1766497512265,-0.89404297,-0.41992188,0.171875,1.0375977,1.159668,-0.7324219,0.0,0.0,0.0,-67.263794,63.01758,-37.732544
1766497512353,-0.8955078,-0.42138672,0.16992188,-1.7700195,-0.36621094,0.061035156,0.0,0.0,0.0,-67.263794,63.01758,-37.732544
1766497512365,-0.8955078,-0.42138672,0.16992188,-1.7700195,-0.36621094,0.061035156,0.0,0.0,0.0,-67.3407,62.957153,-37.8479
1766497512453,-0.89453125,-0.41748047,0.16455078,1.0375977,-0.30517578,-0.30517578,0.0,0.0,0.0,-67.3407,62.957153,-37.8479
1766497512465,-0.89453125,-0.41748047,0.16455078,1.0375977,-0.30517578,-0.30517578,0.0,0.0,0.0,-67.423096,62.93518,-37.908325
1766497512553,-0.8881836,-0.42822266,0.1665039,0.24414062,-1.159668,0.0,0.0,0.0,0.0,-67.423096,62.93518,-37.908325
1766497512564,-0.8881836,-0.42822266,0.1665039,0.24414062,-1.159668,0.0,0.0,0.0,0.0,-67.20337,62.841797,-37.77649
1766497512652,-0.89404297,-0.42578125,0.17675781,0.6713867,0.12207031,-0.12207031,0.0,0.0,0.0,-67.20337,62.841797,-37.77649
1766497512664,-0.89404297,-0.42578125,0.17675781,0.6713867,0.12207031,-0.12207031,0.0,0.0,0.0,-67.214355,62.836304,-37.81494
1766497512752,-0.8881836,-0.421875,0.17626953,0.7324219,1.7700195,-0.91552734,0.0,0.0,0.0,-67.214355,62.836304,-37.81494
1766497512764,-0.8881836,-0.421875,0.17626953,0.7324219,1.7700195,-0.91552734,0.0,0.0,0.0,-67.32971,62.786865,-38.012695
1766497512852,-0.89208984,-0.42041016,0.16015625,1.3427734,1.0986328,0.79345703,0.0,0.0,0.0,-67.32971,62.786865,-38.012695
1766497512863,-0.89208984,-0.42041016,0.16015625,1.3427734,1.0986328,0.79345703,0.0,0.0,0.0,-67.40112,62.819824,-38.221436
1766497512952,-0.8847656,-0.42382812,0.17578125,1.953125,1.953125,0.30517578,0.0,0.0,0.0,-67.40112,62.819824,-38.221436
1766497512963,-0.8847656,-0.42382812,0.17578125,1.953125,1.953125,0.30517578,0.0,0.0,0.0,-67.8241,62.995605,-38.85315
1766497513051,-0.8925781,-0.42822266,0.15283203,-0.7324219,1.3427734,2.6855469,0.0,0.0,0.0,-67.8241,62.995605,-38.85315
1766497513063,-0.8925781,-0.42822266,0.15283203,-0.7324219,1.3427734,2.6855469,0.0,0.0,0.0,-67.83508,63.14392,-38.946533
1766497513151,-0.9091797,-0.41845703,0.14453125,0.0,-2.1972656,-1.4648438,0.0,0.0,0.0,-67.83508,63.14392,-38.946533
1766497513163,-0.9091797,-0.41845703,0.14453125,0.0,-2.1972656,-1.4648438,0.0,0.0,0.0,-67.840576,63.138428,-38.798218
1766497513251,-0.8930664,-0.46875,0.20800781,2.1362305,1.2817383,-0.79345703,0.0,0.0,0.0,-67.840576,63.138428,-38.798218
1766497513263,-0.8930664,-0.46875,0.20800781,2.1362305,1.2817383,-0.79345703,0.0,0.0,0.0,-68.04932,63.20984,-39.138794
1766497513350,-0.89208984,-0.40185547,0.16015625,3.7231445,2.0751953,0.48828125,0.0,0.0,0.0,-68.04932,63.20984,-39.138794
1766497513363,-0.89208984,-0.40185547,0.16015625,3.7231445,2.0751953,0.48828125,0.0,0.0,0.0,-67.37366,63.045044,-38.688354
1766497513450,-0.8774414,-0.43017578,0.17236328,-0.48828125,-2.8076172,3.6010742,0.0,0.0,0.0,-67.37366,63.045044,-38.688354
1766497513462,-0.8774414,-0.43017578,0.17236328,-0.48828125,-2.8076172,3.6010742,0.0,0.0,0.0,-67.302246,63.215332,-38.831177
1766497513550,-0.9165039,-0.3959961,0.17236328,-2.746582,0.24414062,1.7700195,0.0,0.0,0.0,-67.302246,63.215332,-38.831177
1766497513561,-0.9165039,-0.3959961,0.17236328,-2.746582,0.24414062,1.7700195,0.0,0.0,0.0,-66.76941,63.407593,-37.749023
1766497513650,-0.8989258,-0.4165039,0.171875,0.36621094,-1.0986328,-0.9765625,0.0,0.0,0.0,-66.76941,63.407593,-37.749023
1766497513661,-0.8989258,-0.4165039,0.171875,0.36621094,-1.0986328,-0.9765625,0.0,0.0,0.0,-66.829834,63.36914,-37.83142
1766497513749,-0.88916016,-0.4140625,0.16601562,-2.4414062,-0.8544922,-0.30517578,0.0,0.0,0.0,-66.829834,63.36914,-37.83142
1766497513761,-0.88916016,-0.4140625,0.16601562,-2.4414062,-0.8544922,-0.30517578,0.0,0.0,0.0,-67.022095,63.292236,-37.946777
1766497513849,-0.89208984,-0.4140625,0.1665039,0.91552734,1.5258789,-0.48828125,0.0,0.0,0.0,-67.022095,63.292236,-37.946777
1766497513861,-0.89208984,-0.4140625,0.1665039,0.91552734,1.5258789,-0.48828125,0.0,0.0,0.0,-67.142944,63.270264,-37.93579
1766497513949,-0.8979492,-0.4091797,0.1665039,-4.8828125,-4.3945312,2.380371,0.0,0.0,0.0,-67.142944,63.270264,-37.93579
1766497513960,-0.8979492,-0.4091797,0.1665039,-4.8828125,-4.3945312,2.380371,0.0,0.0,0.0,-67.00012,63.358154,-37.452393
1766497514048,-0.89746094,-0.41357422,0.16601562,-0.18310547,1.2207031,0.9765625,0.0,0.0,0.0,-67.00012,63.358154,-37.452393
1766497514060,-0.89746094,-0.41357422,0.16601562,-0.18310547,1.2207031,0.9765625,0.0,0.0,0.0,-67.099,63.413086,-37.474365
1766497514148,-0.89941406,-0.39794922,0.17138672,0.18310547,3.2348633,1.6479492,0.0,0.0,0.0,-67.099,63.413086,-37.474365
1766497514160,-0.89941406,-0.39794922,0.17138672,0.18310547,3.2348633,1.6479492,0.0,0.0,0.0,-67.3407,63.621826,-37.573242
1766497514248,-0.9008789,-0.3959961,0.15283203,-1.2207031,1.2817383,6.164551,0.0,0.0,0.0,-67.3407,63.621826,-37.573242
1766497514260,-0.9008789,-0.3959961,0.15283203,-1.2207031,1.2817383,6.164551,0.0,0.0,0.0,-67.39563,64.02832,-37.72705
1766497514348,-0.89941406,-0.4013672,0.15429688,0.9765625,1.4648438,2.1362305,0.0,0.0,0.0,-67.39563,64.02832,-37.72705
1766497514359,-0.89941406,-0.4013672,0.15429688,0.9765625,1.4648438,2.1362305,0.0,0.0,0.0,-67.40112,64.47876,-37.781982
1766497514447,-0.89990234,-0.4086914,0.15917969,-1.5869141,1.4648438,-1.159668,0.0,0.0,0.0,-67.40112,64.47876,-37.781982
1766497514459,-0.89990234,-0.4086914,0.15917969,-1.5869141,1.4648438,-1.159668,0.0,0.0,0.0,-67.994385,64.55017,-38.3313
1766497514547,-0.8911133,-0.40673828,0.14453125,-4.211426,-0.12207031,-0.79345703,0.0,0.0,0.0,-67.994385,64.55017,-38.3313
1766497514559,-0.8911133,-0.40673828,0.14453125,-4.211426,-0.12207031,-0.79345703,0.0,0.0,0.0,-68.549194,64.42932,-38.55652
1766497514647,-0.91748047,-0.37109375,0.14453125,-1.0986328,-2.4414062,3.7231445,0.0,0.0,0.0,-68.549194,64.42932,-38.55652
1766497514658,-0.91748047,-0.37109375,0.14453125,-1.0986328,-2.4414062,3.7231445,0.0,0.0,0.0,-68.41736,64.45679,-38.04016
1766497514747,-0.9033203,-0.40234375,0.15478516,-2.9296875,-2.746582,2.9296875,0.0,0.0,0.0,-68.41736,64.45679,-38.04016
1766497514759,-0.9033203,-0.40234375,0.15478516,-2.9296875,-2.746582,2.9296875,0.0,0.0,0.0,-68.065796,64.69299,-37.611694
1766497514846,-0.91796875,-0.38330078,0.15966797,-2.5634766,-3.0517578,0.36621094,0.0,0.0,0.0,-68.065796,64.69299,-37.611694
1766497514858,-0.91796875,-0.38330078,0.15966797,-2.5634766,-3.0517578,0.36621094,0.0,0.0,0.0,-67.70325,64.66553,-36.815186
1766497514946,-0.9042969,-0.38671875,0.16455078,0.0,1.0375977,0.79345703,0.0,0.0,0.0,-67.70325,64.66553,-36.815186
1766497514958,-0.9042969,-0.38671875,0.16455078,0.0,1.0375977,0.79345703,0.0,0.0,0.0,-67.51648,64.835815,-36.47461
1766497515046,-0.9160156,-0.3984375,0.16796875,-2.8686523,-1.2817383,1.0375977,0.0,0.0,0.0,-67.51648,64.835815,-36.47461
1766497515057,-0.9160156,-0.3984375,0.16796875,-2.8686523,-1.2817383,1.0375977,0.0,0.0,0.0,-67.81311,64.90723,-36.831665
1766497515145,-0.9082031,-0.37890625,0.16210938,-0.6713867,0.8544922,0.12207031,0.0,0.0,0.0,-67.81311,64.90723,-36.831665
1766497515157,-0.9082031,-0.37890625,0.16210938,-0.6713867,0.8544922,0.12207031,0.0,0.0,0.0,-67.58789,64.956665,-36.315308
1766497515245,-0.9067383,-0.40576172,0.15234375,-2.1362305,0.48828125,0.30517578,0.0,0.0,0.0,-67.58789,64.956665,-36.315308
1766497515257,-0.9067383,-0.40576172,0.15234375,-2.1362305,0.48828125,0.30517578,0.0,0.0,0.0,-67.75818,64.94568,-36.44165
1766497515345,-0.91308594,-0.37841797,0.15771484,-2.0141602,-2.2583008,0.12207031,0.0,0.0,0.0,-67.75818,64.94568,-36.44165
1766497515357,-0.91308594,-0.37841797,0.15771484,-2.0141602,-2.2583008,0.12207031,0.0,0.0,0.0,-67.648315,64.940186,-35.958252
1766497515445,-0.9038086,-0.39257812,0.15966797,2.6855469,2.9907227,-3.112793,0.0,0.0,0.0,-67.648315,64.940186,-35.958252
1766497515456,-0.9038086,-0.39257812,0.15966797,2.6855469,2.9907227,-3.112793,0.0,0.0,0.0,-67.840576,64.82483,-36.315308
1766497515544,-0.8984375,-0.4013672,0.1538086,-1.2207031,-1.7089844,-1.8920898,0.0,0.0,0.0,-67.840576,64.82483,-36.315308
1766497515556,-0.8984375,-0.4013672,0.1538086,-1.2207031,-1.7089844,-1.8920898,0.0,0.0,0.0,-67.82959,64.610596,-36.342773
1766497515644,-0.9165039,-0.39160156,0.15722656,0.4272461,-2.5024414,-1.0986328,0.0,0.0,0.0,-67.82959,64.610596,-36.342773
1766497515656,-0.9165039,-0.39160156,0.15722656,0.4272461,-2.5024414,-1.0986328,0.0,0.0,0.0,-67.57141,64.401855,-36.084595
1766497515744,-0.8984375,-0.40966797,0.16992188,1.3427734,-0.6713867,-0.48828125,0.0,0.0,0.0,-67.57141,64.401855,-36.084595
1766497515755,-0.8984375,-0.40966797,0.16992188,1.3427734,-0.6713867,-0.48828125,0.0,0.0,0.0,-67.37366,64.297485,-36.09558
1766497515843,-0.89697266,-0.3955078,0.1616211,-0.6713867,-2.6245117,-0.48828125,0.0,0.0,0.0,-67.37366,64.297485,-36.09558
1766497515855,-0.89697266,-0.3955078,0.1616211,-0.6713867,-2.6245117,-0.48828125,0.0,0.0,0.0,-67.12097,64.18213,-35.820923
1766497515943,-0.9067383,-0.4038086,0.16210938,1.0375977,-3.0517578,0.061035156,0.0,0.0,0.0,-67.12097,64.18213,-35.820923
1766497515955,-0.9067383,-0.4038086,0.16210938,1.0375977,-3.0517578,0.061035156,0.0,0.0,0.0,-66.8573,64.07776,-35.617676
1766497516043,-0.8979492,-0.39990234,0.1743164,1.7089844,0.9765625,0.8544922,0.0,0.0,0.0,-66.8573,64.07776,-35.617676
1766497516054,-0.8979492,-0.39990234,0.1743164,1.7089844,0.9765625,0.8544922,0.0,0.0,0.0,-66.588135,64.06128,-35.491333
1766497516143,-0.89990234,-0.40039062,0.16992188,-1.0375977,-0.24414062,-0.18310547,0.0,0.0,0.0,-66.588135,64.06128,-35.491333
1766497516154,-0.89990234,-0.40039062,0.16992188,-1.0375977,-0.24414062,-0.18310547,0.0,0.0,0.0,-66.47827,64.06677,-35.370483
1766497516242,-0.9008789,-0.39697266,0.16992188,-0.30517578,-1.8310547,0.30517578,0.0,0.0,0.0,-66.47827,64.06677,-35.370483
1766497516254,-0.9008789,-0.39697266,0.16992188,-0.30517578,-1.8310547,0.30517578,0.0,0.0,0.0,-66.40137,64.03381,-35.255127
1766497516342,-0.90478516,-0.3984375,0.16894531,0.8544922,0.12207031,0.061035156,0.0,0.0,0.0,-66.40137,64.03381,-35.255127
1766497516354,-0.90478516,-0.3984375,0.16894531,0.8544922,0.12207031,0.061035156,0.0,0.0,0.0,-66.30249,64.02283,-35.31555
1766497516442,-0.9003906,-0.40771484,0.1665039,-0.4272461,0.36621094,-0.61035156,0.0,0.0,0.0,-66.30249,64.02283,-35.31555
1766497516454,-0.9003906,-0.40771484,0.1665039,-0.4272461,0.36621094,-0.61035156,0.0,0.0,0.0,-66.40686,64.03381,-35.568237
1766497516542,-0.8964844,-0.39990234,0.16894531,-0.79345703,-0.24414062,0.61035156,0.0,0.0,0.0,-66.40686,64.03381,-35.568237
1766497516553,-0.8964844,-0.39990234,0.16894531,-0.79345703,-0.24414062,0.61035156,0.0,0.0,0.0,-66.54968,64.00635,-35.683594
1766497516641,-0.9008789,-0.3984375,0.16699219,1.0375977,0.0,-0.18310547,0.0,0.0,0.0,-66.54968,64.00635,-35.683594
1766497516653,-0.9008789,-0.3984375,0.16699219,1.0375977,0.0,-0.18310547,0.0,0.0,0.0,-66.50574,64.03381,-35.601196
1766497516741,-0.8964844,-0.40771484,0.1665039,1.4648438,0.7324219,-0.5493164,0.0,0.0,0.0,-66.50574,64.03381,-35.601196
1766497516753,-0.8964844,-0.40771484,0.1665039,1.4648438,0.7324219,-0.5493164,0.0,0.0,0.0,-66.467285,64.02832,-35.705566
1766497516841,-0.9086914,-0.40234375,0.17285156,0.4272461,-1.7089844,-0.18310547,0.0,0.0,0.0,-66.467285,64.02832,-35.705566
1766497516852,-0.9086914,-0.40234375,0.17285156,0.4272461,-1.7089844,-0.18310547,0.0,0.0,0.0,-66.43982,63.95691,-35.787964
1766497516940,-0.8984375,-0.3984375,0.18457031,-1.0986328,-1.5869141,-0.24414062,0.0,0.0,0.0,-66.43982,63.95691,-35.787964
1766497516952,-0.8984375,-0.3984375,0.18457031,-1.0986328,-1.5869141,-0.24414062,0.0,0.0,0.0,-66.38489,63.85254,-35.64514
1766497517040,-0.90966797,-0.40820312,0.16503906,-1.7700195,0.7324219,-2.5024414,0.0,0.0,0.0,-66.38489,63.85254,-35.64514
1766497517052,-0.90966797,-0.40820312,0.16503906,-1.7700195,0.7324219,-2.5024414,0.0,0.0,0.0,-66.43982,63.71521,-35.617676
1766497517140,-0.8925781,-0.41015625,0.17626953,0.0,0.48828125,-0.18310547,0.0,0.0,0.0,-66.43982,63.71521,-35.617676
1766497517152,-0.8925781,-0.41015625,0.17626953,0.0,0.48828125,-0.18310547,0.0,0.0,0.0,-66.54419,63.632812,-35.83191
1766497517240,-0.89941406,-0.4033203,0.17285156,2.1362305,-0.30517578,-0.5493164,0.0,0.0,0.0,-66.54419,63.632812,-35.83191
1766497517251,-0.89941406,-0.4033203,0.17285156,2.1362305,-0.30517578,-0.5493164,0.0,0.0,0.0,-66.40686,63.616333,-35.859375
1766497517340,-0.8930664,-0.4194336,0.17382812,0.4272461,-0.8544922,-1.2207031,0.0,0.0,0.0,-66.40686,63.616333,-35.859375
1766497517351,-0.8930664,-0.4194336,0.17382812,0.4272461,-0.8544922,-1.2207031,0.0,0.0,0.0,-66.33545,63.495483,-36.062622
1766497517439,-0.89746094,-0.40576172,0.16796875,0.4272461,-1.0375977,-0.30517578,0.0,0.0,0.0,-66.33545,63.495483,-36.062622
1766497517451,-0.89746094,-0.40576172,0.16796875,0.4272461,-1.0375977,-0.30517578,0.0,0.0,0.0,-66.31348,63.413086,-36.04065
1766497517539,-0.8886719,-0.41308594,0.1821289,-0.18310547,0.36621094,0.24414062,0.0,0.0,0.0,-66.31348,63.413086,-36.04065
1766497517550,-0.8886719,-0.41308594,0.1821289,-0.18310547,0.36621094,0.24414062,0.0,0.0,0.0,-66.4563,63.391113,-36.315308
1766497517639,-0.91015625,-0.41601562,0.17626953,-0.7324219,0.0,-0.12207031,0.0,0.0,0.0,-66.4563,63.391113,-36.315308
1766497517650,-0.91015625,-0.41601562,0.17626953,-0.7324219,0.0,-0.12207031,0.0,0.0,0.0,-66.32446,63.33618,-36.150513
1766497517739,-0.8725586,-0.41064453,0.18066406,-2.1972656,-4.1503906,-4.0893555,0.0,0.0,0.0,-66.32446,63.33618,-36.150513
1766497517750,-0.8725586,-0.41064453,0.18066406,-2.1972656,-4.1503906,-4.0893555,0.0,0.0,0.0,-66.52771,63.061523,-36.227417
1766497517838,-0.8964844,-0.39160156,0.15917969,-0.79345703,1.5258789,-1.2817383,0.0,0.0,0.0,-66.52771,63.061523,-36.227417
1766497517849,-0.8964844,-0.39160156,0.15917969,-0.79345703,1.5258789,-1.2817383,0.0,0.0,0.0,-66.51672,62.72644,-36.00769
1766497517938,-0.90185547,-0.42138672,0.16845703,5.6762695,2.5024414,-2.0751953,0.0,0.0,0.0,-66.51672,62.72644,-36.00769
1766497517949,-0.90185547,-0.42138672,0.16845703,5.6762695,2.5024414,-2.0751953,0.0,0.0,0.0,-66.42334,62.698975,-36.447144
1766497518037,-0.8671875,-0.4194336,0.19335938,-5.6762695,-2.2583008,2.4414062,0.0,0.0,0.0,-66.42334,62.698975,-36.447144
1766497518049,-0.8671875,-0.4194336,0.19335938,-5.6762695,-2.2583008,2.4414062,0.0,0.0,0.0,-66.95618,62.81433,-37.0459
1766497518137,-0.91064453,-0.40771484,0.15771484,4.333496,3.7231445,-2.5024414,0.0,0.0,0.0,-66.95618,62.81433,-37.0459
1766497518149,-0.91064453,-0.40771484,0.15771484,4.333496,3.7231445,-2.5024414,0.0,0.0,0.0,-66.56067,62.79785,-36.485596
1766497518237,-0.87158203,-0.45166016,0.17382812,0.30517578,-0.061035156,-0.8544922,0.0,0.0,0.0,-66.56067,62.79785,-36.485596
1766497518248,-0.87158203,-0.45166016,0.17382812,0.30517578,-0.061035156,-0.8544922,0.0,0.0,0.0,-67.07153,62.68799,-37.512817
1766497518337,-0.89697266,-0.40429688,0.17822266,-1.5258789,-3.0517578,2.5024414,0.0,0.0,0.0,-67.07153,62.68799,-37.512817
1766497518348,-0.89697266,-0.40429688,0.17822266,-1.5258789,-3.0517578,2.5024414,0.0,0.0,0.0,-66.95068,62.770386,-37.177734
1766497518436,-0.88671875,-0.4194336,0.16894531,2.2583008,0.79345703,-0.61035156,0.0,0.0,0.0,-66.95068,62.770386,-37.177734
1766497518448,-0.88671875,-0.4194336,0.16894531,2.2583008,0.79345703,-0.61035156,0.0,0.0,0.0,-66.67053,62.781372,-36.97998
1766497518536,-0.8901367,-0.4326172,0.1743164,-2.8076172,0.4272461,2.0751953,0.0,0.0,0.0,-66.67053,62.781372,-36.97998
1766497518548,-0.8901367,-0.4326172,0.1743164,-2.8076172,0.4272461,2.0751953,0.0,0.0,0.0,-66.917725,62.885742,-37.227173
1766497518636,-0.8935547,-0.4091797,0.16699219,1.0375977,0.7324219,-0.24414062,0.0,0.0,0.0,-66.917725,62.885742,-37.227173
1766497518647,-0.8935547,-0.4091797,0.16699219,1.0375977,0.7324219,-0.24414062,0.0,0.0,0.0,-66.91223,62.962646,-37.08435
1766497518735,-0.8886719,-0.4165039,0.17236328,-1.2207031,1.0375977,1.8310547,0.0,0.0,0.0,-66.91223,62.962646,-37.08435
1766497518747,-0.8886719,-0.4165039,0.17236328,-1.2207031,1.0375977,1.8310547,0.0,0.0,0.0,-66.95068,63.034058,-37.15027
1766497518835,-0.8959961,-0.41210938,0.15917969,0.48828125,-1.0375977,0.0,0.0,0.0,0.0,-66.95068,63.034058,-37.15027
1766497518847,-0.8959961,-0.41210938,0.15917969,0.48828125,-1.0375977,0.0,0.0,0.0,0.0,-66.813354,63.10547,-36.930542
1766497518935,-0.88427734,-0.40429688,0.1772461,0.36621094,-1.0375977,0.5493164,0.0,0.0,0.0,-66.813354,63.10547,-36.930542
1766497518947,-0.88427734,-0.40429688,0.1772461,0.36621094,-1.0375977,0.5493164,0.0,0.0,0.0,-66.901245,63.094482,-37.062378
1766497519035,-0.89941406,-0.41455078,0.16845703,0.24414062,0.18310547,0.6713867,0.0,0.0,0.0,-66.901245,63.094482,-37.062378
1766497519046,-0.89941406,-0.41455078,0.16845703,0.24414062,0.18310547,0.6713867,0.0,0.0,0.0,-66.659546,63.198853,-36.78772
1766497519134,-0.8925781,-0.4165039,0.171875,1.4038086,0.9765625,-0.24414062,0.0,0.0,0.0,-66.659546,63.198853,-36.78772
1766497519146,-0.8925781,-0.4165039,0.171875,1.4038086,0.9765625,-0.24414062,0.0,0.0,0.0,-66.659546,63.182373,-36.919556
1766497519235,-0.89160156,-0.4091797,0.17285156,-1.0986328,-1.3427734,0.79345703,0.0,0.0,0.0,-66.659546,63.182373,-36.919556
1766497519246,-0.89160156,-0.4091797,0.17285156,-1.0986328,-1.3427734,0.79345703,0.0,0.0,0.0,-66.68701,63.198853,-36.936035
1766497519334,-0.89160156,-0.40429688,0.17773438,0.24414062,-0.5493164,0.0,0.0,0.0,0.0,-66.68701,63.198853,-36.936035
1766497519346,-0.89160156,-0.40429688,0.17773438,0.24414062,-0.5493164,0.0,0.0,0.0,0.0,-66.659546,63.24829,-36.84265
1766497519434,-0.890625,-0.41503906,0.17675781,0.061035156,1.3427734,0.12207031,0.0,0.0,0.0,-66.659546,63.24829,-36.84265
1766497519445,-0.890625,-0.41503906,0.17675781,0.061035156,1.3427734,0.12207031,0.0,0.0,0.0,-66.5387,63.26477,-36.815186
1766497519533,-0.8959961,-0.40527344,0.17626953,0.30517578,-1.2207031,0.0,0.0,0.0,0.0,-66.5387,63.26477,-36.815186
1766497519545,-0.8959961,-0.40527344,0.17626953,0.30517578,-1.2207031,0.0,0.0,0.0,0.0,-66.41785,63.237305,-36.77124
1766497519633,-0.890625,-0.4091797,0.1772461,0.61035156,1.0375977,0.4272461,0.0,0.0,0.0,-66.41785,63.237305,-36.77124
1766497519645,-0.890625,-0.4091797,0.1772461,0.61035156,1.0375977,0.4272461,0.0,0.0,0.0,-66.225586,63.24829,-36.661377
1766497519733,-0.8955078,-0.41455078,0.17089844,-0.18310547,-1.159668,-0.061035156,0.0,0.0,0.0,-66.225586,63.24829,-36.661377
1766497519744,-0.8955078,-0.41455078,0.17089844,-0.18310547,-1.159668,-0.061035156,0.0,0.0,0.0,-66.08826,63.270264,-36.5625
1766497519833,-0.89404297,-0.40673828,0.18261719,0.12207031,-0.24414062,-0.12207031,0.0,0.0,0.0,-66.08826,63.270264,-36.5625
1766497519844,-0.89404297,-0.40673828,0.18261719,0.12207031,-0.24414062,-0.12207031,0.0,0.0,0.0,-66.07727,63.215332,-36.535034
1766497519932,-0.8955078,-0.4140625,0.17285156,0.30517578,0.6713867,0.18310547,0.0,0.0,0.0,-66.07727,63.215332,-36.535034
1766497519944,-0.8955078,-0.4140625,0.17285156,0.30517578,0.6713867,0.18310547,0.0,0.0,0.0,-66.00586,63.215332,-36.524048
1766497520032,-0.8925781,-0.4038086,0.17822266,0.7324219,-0.61035156,-0.4272461,0.0,0.0,0.0,-66.00586,63.215332,-36.524048
1766497520044,-0.8925781,-0.4038086,0.17822266,0.7324219,-0.61035156,-0.4272461,0.0,0.0,0.0,-66.07727,63.204346,-36.567993
1766497520132,-0.89453125,-0.4165039,0.18066406,0.12207031,0.61035156,-0.48828125,0.0,0.0,0.0,-66.07727,63.204346,-36.567993
1766497520143,-0.89453125,-0.4165039,0.18066406,0.12207031,0.61035156,-0.48828125,0.0,0.0,0.0,-66.00037,63.17688,-36.52954
1766497520232,-0.89404297,-0.40966797,0.1796875,-0.4272461,-0.5493164,0.061035156,0.0,0.0,0.0,-66.00037,63.17688,-36.52954
1766497520243,-0.89404297,-0.40966797,0.1796875,-0.4272461,-0.5493164,0.061035156,0.0,0.0,0.0,-65.92346,63.12195,-36.40869
1766497520331,-0.89453125,-0.40820312,0.18603516,-0.30517578,0.61035156,0.4272461,0.0,0.0,0.0,-65.92346,63.12195,-36.40869
1766497520343,-0.89453125,-0.40820312,0.18603516,-0.30517578,0.61035156,0.4272461,0.0,0.0,0.0,-65.87402,63.12744,-36.348267
1766497520431,-0.9033203,-0.41210938,0.19189453,-0.9765625,-0.6713867,0.6713867,0.0,0.0,0.0,-65.87402,63.12744,-36.348267
1766497520442,-0.9033203,-0.41210938,0.19189453,-0.9765625,-0.6713867,0.6713867,0.0,0.0,0.0,-65.895996,63.12744,-36.397705
1766497520531,-0.8935547,-0.39111328,0.16894531,1.6479492,0.0,-0.79345703,0.0,0.0,0.0,-65.895996,63.12744,-36.397705
1766497520542,-0.8935547,-0.39111328,0.16894531,1.6479492,0.0,-0.79345703,0.0,0.0,0.0,-65.791626,63.182373,-36.0791
1766497520630,-0.8364258,-0.40966797,0.17382812,5.9814453,-2.380371,-6.3476562,0.0,0.0,0.0,-65.791626,63.182373,-36.0791
1766497520642,-0.8364258,-0.40966797,0.17382812,5.9814453,-2.380371,-6.3476562,0.0,0.0,0.0,-65.69275,63.03955,-36.14502
1766497520730,-0.9169922,-0.39794922,0.2055664,3.6010742,7.507324,-0.9765625,0.0,0.0,0.0,-65.69275,63.03955,-36.14502
1766497520742,-0.9169922,-0.39794922,0.2055664,3.6010742,7.507324,-0.9765625,0.0,0.0,0.0,-64.96765,62.9187,-35.20569
1766497520830,-0.8808594,-0.40673828,0.17919922,3.1738281,-0.61035156,0.4272461,0.0,0.0,0.0,-64.96765,62.9187,-35.20569
1766497520842,-0.8808594,-0.40673828,0.17919922,3.1738281,-0.61035156,0.4272461,0.0,0.0,0.0,-65.01709,62.852783,-35.820923
1766497520929,-0.8930664,-0.4267578,0.19335938,-6.0424805,-2.1362305,0.4272461,0.0,0.0,0.0,-65.01709,62.852783,-35.820923
1766497520941,-0.8930664,-0.4267578,0.19335938,-6.0424805,-2.1362305,0.4272461,0.0,0.0,0.0,-64.99512,63.034058,-35.733032
1766497521029,-0.9091797,-0.42919922,0.20361328,-6.4697266,-0.8544922,-5.79834,0.0,0.0,0.0,-64.99512,63.034058,-35.733032
1766497521041,-0.9091797,-0.42919922,0.20361328,-6.4697266,-0.8544922,-5.79834,0.0,0.0,0.0,-65.791626,62.781372,-35.875854
1766497521129,-0.86816406,-0.40771484,0.17138672,-3.112793,0.0,-4.699707,0.0,0.0,0.0,-65.791626,62.781372,-35.875854
1766497521141,-0.86816406,-0.40771484,0.17138672,-3.112793,0.0,-4.699707,0.0,0.0,0.0,-66.40137,62.210083,-36.029663
1766497521229,-0.8730469,-0.44873047,0.1616211,-1.6479492,1.3427734,-6.0424805,0.0,0.0,0.0,-66.40137,62.210083,-36.029663
1766497521240,-0.8730469,-0.44873047,0.1616211,-1.6479492,1.3427734,-6.0424805,0.0,0.0,0.0,-66.99463,61.89148,-36.430664
1766497521328,-0.8808594,-0.4326172,0.19189453,-3.6621094,-1.0375977,-3.479004,0.0,0.0,0.0,-66.99463,61.89148,-36.430664
1766497521340,-0.8808594,-0.4326172,0.19189453,-3.6621094,-1.0375977,-3.479004,0.0,0.0,0.0,-67.873535,61.463013,-37.10083
1766497521428,-0.87109375,-0.42822266,0.17138672,1.6479492,2.0141602,-5.3100586,0.0,0.0,0.0,-67.873535,61.463013,-37.10083
1766497521440,-0.87109375,-0.42822266,0.17138672,1.6479492,2.0141602,-5.3100586,0.0,0.0,0.0,-68.04382,61.116943,-37.23816
1766497521528,-0.88916016,-0.47851562,0.18066406,-3.2958984,0.24414062,-1.8920898,0.0,0.0,0.0,-68.04382,61.116943,-37.23816
1766497521539,-0.88916016,-0.47851562,0.18066406,-3.2958984,0.24414062,-1.8920898,0.0,0.0,0.0,-68.43933,60.95764,-37.58972
1766497521628,-0.87841797,-0.43701172,0.16210938,0.24414062,3.112793,-1.8310547,0.0,0.0,0.0,-68.43933,60.95764,-37.58972
1766497521639,-0.87841797,-0.43701172,0.16210938,0.24414062,3.112793,-1.8310547,0.0,0.0,0.0,-68.708496,60.62256,-37.749023
1766497521727,-0.86328125,-0.46484375,0.1640625,1.3427734,3.9672852,0.24414062,0.0,0.0,0.0,-68.708496,60.62256,-37.749023
1766497521739,-0.86328125,-0.46484375,0.1640625,1.3427734,3.9672852,0.24414062,0.0,0.0,0.0,-69.3457,60.76538,-38.759766
1766497521827,-0.8696289,-0.4658203,0.16796875,-2.9907227,-1.4038086,1.7700195,0.0,0.0,0.0,-69.3457,60.76538,-38.759766
1766497521839,-0.8696289,-0.4658203,0.16796875,-2.9907227,-1.4038086,1.7700195,0.0,0.0,0.0,-69.6698,61.00708,-39.067383
1766497521927,-0.8769531,-0.45214844,0.15478516,-0.12207031,1.953125,-1.8920898,0.0,0.0,0.0,-69.6698,61.00708,-39.067383
1766497521938,-0.8769531,-0.45214844,0.15478516,-0.12207031,1.953125,-1.8920898,0.0,0.0,0.0,-69.906006,60.91919,-39.2157
1766497522027,-0.86083984,-0.45117188,0.15185547,2.8686523,-1.0375977,-2.0751953,0.0,0.0,0.0,-69.906006,60.91919,-39.2157
1766497522038,-0.86083984,-0.45117188,0.15185547,2.8686523,-1.0375977,-2.0751953,0.0,0.0,0.0,-70.131226,60.71045,-39.622192
1766497522126,-0.86328125,-0.45410156,0.16015625,4.0283203,0.24414062,-0.6713867,0.0,0.0,0.0,-70.131226,60.71045,-39.622192
1766497522138,-0.86328125,-0.45410156,0.16015625,4.0283203,0.24414062,-0.6713867,0.0,0.0,0.0,-69.922485,60.595093,-39.622192
1766497522226,-0.8823242,-0.46142578,0.1665039,0.9765625,-3.1738281,1.159668,0.0,0.0,0.0,-69.922485,60.595093,-39.622192
1766497522238,-0.8823242,-0.46142578,0.1665039,0.9765625,-3.1738281,1.159668,0.0,0.0,0.0,-69.35669,60.666504,-39.177246
1766497522326,-0.8701172,-0.4453125,0.17529297,-0.61035156,0.8544922,3.2348633,0.0,0.0,0.0,-69.35669,60.666504,-39.177246
1766497522337,-0.8701172,-0.4453125,0.17529297,-0.61035156,0.8544922,3.2348633,0.0,0.0,0.0,-68.97766,60.770874,-38.90808
1766497522425,-0.87646484,-0.44921875,0.17382812,3.2958984,-3.540039,2.6245117,0.0,0.0,0.0,-68.97766,60.770874,-38.90808
1766497522437,-0.87646484,-0.44921875,0.17382812,3.2958984,-3.540039,2.6245117,0.0,0.0,0.0,-68.565674,61.149902,-38.688354
1766497522525,-0.87353516,-0.46826172,0.18115234,3.2958984,3.0517578,1.3427734,0.0,0.0,0.0,-68.565674,61.149902,-38.688354
1766497522537,-0.87353516,-0.46826172,0.18115234,3.2958984,3.0517578,1.3427734,0.0,0.0,0.0,-68.04932,61.193848,-38.633423
1766497522625,-0.8720703,-0.44140625,0.17675781,2.380371,-2.5024414,0.18310547,0.0,0.0,0.0,-68.04932,61.193848,-38.633423
1766497522637,-0.8720703,-0.44140625,0.17675781,2.380371,-2.5024414,0.18310547,0.0,0.0,0.0,-67.472534,61.116943,-38.182983
1766497522725,-0.88623047,-0.44384766,0.19140625,-1.3427734,-2.319336,2.0141602,0.0,0.0,0.0,-67.472534,61.116943,-38.182983
1766497522736,-0.88623047,-0.44384766,0.19140625,-1.3427734,-2.319336,2.0141602,0.0,0.0,0.0,-67.12097,61.204834,-37.781982
1766497522824,-0.8745117,-0.44433594,0.18652344,-0.9765625,-0.5493164,0.9765625,0.0,0.0,0.0,-67.12097,61.204834,-37.781982
1766497522836,-0.8745117,-0.44433594,0.18652344,-0.9765625,-0.5493164,0.9765625,0.0,0.0,0.0,-67.03308,61.254272,-37.63916
1766497522924,-0.87597656,-0.43310547,0.17285156,0.48828125,-1.0375977,0.6713867,0.0,0.0,0.0,-67.03308,61.254272,-37.63916
1766497522935,-0.87597656,-0.43310547,0.17285156,0.48828125,-1.0375977,0.6713867,0.0,0.0,0.0,-66.81885,61.243286,-37.32605
1766497523024,-0.8720703,-0.44091797,0.18359375,-1.5258789,-5.79834,1.159668,0.0,0.0,0.0,-66.81885,61.243286,-37.32605
1766497523035,-0.8720703,-0.44091797,0.18359375,-1.5258789,-5.79834,1.159668,0.0,0.0,0.0,-66.780396,61.28723,-37.304077
1766497523123,-0.85791016,-0.42333984,0.19433594,3.6010742,3.9672852,-2.0141602,0.0,0.0,0.0,-66.780396,61.28723,-37.304077
1766497523135,-0.85791016,-0.42333984,0.19433594,3.6010742,3.9672852,-2.0141602,0.0,0.0,0.0,-66.7749,61.298218,-37.22168
1766497523223,-0.88427734,-0.44726562,0.18945312,-2.0141602,-1.7089844,2.2583008,0.0,0.0,0.0,-66.7749,61.298218,-37.22168
1766497523235,-0.88427734,-0.44726562,0.18945312,-2.0141602,-1.7089844,2.2583008,0.0,0.0,0.0,-66.38489,61.44104,-36.727295
1766497523323,-0.8798828,-0.4248047,0.1875,0.0,-2.1362305,-0.48828125,0.0,0.0,0.0,-66.38489,61.44104,-36.727295
1766497523334,-0.8798828,-0.4248047,0.1875,0.0,-2.1362305,-0.48828125,0.0,0.0,0.0,-66.137695,61.32019,-36.419678
1766497523423,-0.8808594,-0.43652344,0.18701172,0.79345703,1.2207031,-0.9765625,0.0,0.0,0.0,-66.137695,61.32019,-36.419678
1766497523435,-0.8808594,-0.43652344,0.18701172,0.79345703,1.2207031,-0.9765625,0.0,0.0,0.0,-66.06079,61.342163,-36.42517
1766497523523,-0.8798828,-0.4375,0.18798828,-2.1972656,0.36621094,1.159668,0.0,0.0,0.0,-66.06079,61.342163,-36.42517
1766497523534,-0.8798828,-0.4375,0.18798828,-2.1972656,0.36621094,1.159668,0.0,0.0,0.0,-66.35742,61.42456,-36.782227
1766497523622,-0.8823242,-0.42871094,0.18701172,-0.36621094,-1.2817383,1.5869141,0.0,0.0,0.0,-66.35742,61.42456,-36.782227
1766497523634,-0.8823242,-0.42871094,0.18701172,-0.36621094,-1.2817383,1.5869141,0.0,0.0,0.0,-66.25305,61.501465,-36.524048
1766497523722,-0.8798828,-0.43310547,0.1899414,2.0141602,0.48828125,-0.48828125,0.0,0.0,0.0,-66.25305,61.501465,-36.524048
1766497523734,-0.8798828,-0.43310547,0.1899414,2.0141602,0.48828125,-0.48828125,0.0,0.0,0.0,-66.20911,61.567383,-36.551514
1766497523822,-0.8876953,-0.44335938,0.18603516,1.2207031,0.18310547,-0.48828125,0.0,0.0,0.0,-66.20911,61.567383,-36.551514
1766497523834,-0.8876953,-0.44335938,0.18603516,1.2207031,0.18310547,-0.48828125,0.0,0.0,0.0,-66.2146,61.534424,-36.78772
1766497523921,-0.8745117,-0.43310547,0.1928711,-0.24414062,1.5869141,0.0,0.0,0.0,0.0,-66.2146,61.534424,-36.78772
1766497523933,-0.8745117,-0.43310547,0.1928711,-0.24414062,1.5869141,0.0,0.0,0.0,0.0,-66.346436,61.550903,-36.897583
1766497524021,-0.8847656,-0.43164062,0.18408203,0.48828125,1.4648438,-0.5493164,0.0,0.0,0.0,-66.346436,61.550903,-36.897583
1766497524033,-0.8847656,-0.43164062,0.18408203,0.48828125,1.4648438,-0.5493164,0.0,0.0,0.0,-66.40137,61.56189,-36.94702
1766497524121,-0.87890625,-0.44335938,0.19042969,-1.5869141,-0.061035156,0.7324219,0.0,0.0,0.0,-66.40137,61.56189,-36.94702
1766497524132,-0.87890625,-0.44335938,0.19042969,-1.5869141,-0.061035156,0.7324219,0.0,0.0,0.0,-66.571655,61.583862,-37.17224
1766497524221,-0.8847656,-0.43115234,0.18066406,-1.6479492,-0.12207031,0.7324219,0.0,0.0,0.0,-66.571655,61.583862,-37.17224
1766497524232,-0.8847656,-0.43115234,0.18066406,-1.6479492,-0.12207031,0.7324219,0.0,0.0,0.0,-66.63208,61.622314,-37.06787
1766497524320,-0.88183594,-0.4321289,0.1821289,0.24414062,0.36621094,0.48828125,0.0,0.0,0.0,-66.63208,61.622314,-37.06787
1766497524332,-0.88183594,-0.4321289,0.1821289,0.24414062,0.36621094,0.48828125,0.0,0.0,0.0,-66.71448,61.688232,-37.144775
1766497524420,-0.8808594,-0.43359375,0.18115234,0.6713867,-0.5493164,0.4272461,0.0,0.0,0.0,-66.71448,61.688232,-37.144775
1766497524431,-0.8808594,-0.43359375,0.18115234,0.6713867,-0.5493164,0.4272461,0.0,0.0,0.0,-66.68152,61.732178,-37.144775
1766497524520,-0.8857422,-0.43408203,0.18896484,0.61035156,0.36621094,0.30517578,0.0,0.0,0.0,-66.68152,61.732178,-37.144775
1766497524531,-0.8857422,-0.43408203,0.18896484,0.61035156,0.36621094,0.30517578,0.0,0.0,0.0,-66.70349,61.78711,-37.183228
1766497524619,-0.8808594,-0.43066406,0.18701172,0.79345703,0.36621094,0.36621094,0.0,0.0,0.0,-66.70349,61.78711,-37.183228
1766497524631,-0.8808594,-0.43066406,0.18701172,0.79345703,0.36621094,0.36621094,0.0,0.0,0.0,-66.75842,61.80359,-37.25464
1766497524719,-0.88183594,-0.43115234,0.18164062,0.0,3.8452148,-0.12207031,0.0,0.0,0.0,-66.75842,61.80359,-37.25464
1766497524731,-0.88183594,-0.43115234,0.18164062,0.0,3.8452148,-0.12207031,0.0,0.0,0.0,-66.97815,61.918945,-37.452393
1766497524819,-0.8847656,-0.43164062,0.171875,0.061035156,-1.5869141,0.12207031,0.0,0.0,0.0,-66.97815,61.918945,-37.452393
1766497524830,-0.8847656,-0.43164062,0.171875,0.061035156,-1.5869141,0.12207031,0.0,0.0,0.0,-67.109985,61.935425,-37.677612
1766497524919,-0.88378906,-0.4296875,0.18554688,0.79345703,-1.2817383,0.12207031,0.0,0.0,0.0,-67.109985,61.935425,-37.677612
1766497524930,-0.88378906,-0.4296875,0.18554688,0.79345703,-1.2817383,0.12207031,0.0,0.0,0.0,-67.05505,61.94641,-37.661133
1766497525018,-0.8808594,-0.43310547,0.18310547,0.061035156,0.91552734,0.18310547,0.0,0.0,0.0,-67.05505,61.94641,-37.661133
1766497525030,-0.8808594,-0.43310547,0.18310547,0.061035156,0.91552734,0.18310547,0.0,0.0,0.0,-66.96167,61.957397,-37.633667
1766497525118,-0.8847656,-0.4326172,0.17919922,0.36621094,0.24414062,0.18310547,0.0,0.0,0.0,-66.96167,61.957397,-37.633667
1766497525130,-0.8847656,-0.4326172,0.17919922,0.36621094,0.24414062,0.18310547,0.0,0.0,0.0,-66.90674,61.968384,-37.6062
1766497525218,-0.8857422,-0.4321289,0.18261719,0.9765625,0.0,-0.12207031,0.0,0.0,0.0,-66.90674,61.968384,-37.6062
1766497525229,-0.8857422,-0.4321289,0.18261719,0.9765625,0.0,-0.12207031,0.0,0.0,0.0,-66.86279,61.968384,-37.6062
1766497525317,-0.88623047,-0.42919922,0.18261719,1.6479492,-0.12207031,0.0,0.0,0.0,0.0,-66.86279,61.968384,-37.6062
1766497525329,-0.88623047,-0.42919922,0.18261719,1.6479492,-0.12207031,0.0,0.0,0.0,0.0,-66.73096,61.951904,-37.545776
1766497525417,-0.8876953,-0.4375,0.18798828,0.12207031,-0.48828125,0.48828125,0.0,0.0,0.0,-66.73096,61.951904,-37.545776
1766497525429,-0.8876953,-0.4375,0.18798828,0.12207031,-0.48828125,0.48828125,0.0,0.0,0.0,-66.725464,61.968384,-37.63916
1766497525517,-0.8833008,-0.42626953,0.18701172,-0.12207031,1.2817383,0.0,0.0,0.0,0.0,-66.725464,61.968384,-37.63916
1766497525529,-0.8833008,-0.42626953,0.18701172,-0.12207031,1.2817383,0.0,0.0,0.0,0.0,-66.78589,62.017822,-37.600708
1766497525617,-0.88427734,-0.42919922,0.17773438,-0.6713867,0.30517578,-0.4272461,0.0,0.0,0.0,-66.78589,62.017822,-37.600708
1766497525628,-0.88427734,-0.42919922,0.17773438,-0.6713867,0.30517578,-0.4272461,0.0,0.0,0.0,-66.91223,62.006836,-37.738037
1766497525716,-0.8833008,-0.4267578,0.17773438,-0.18310547,-0.24414062,0.061035156,0.0,0.0,0.0,-66.91223,62.006836,-37.738037
1766497525728,-0.8833008,-0.4267578,0.17773438,-0.18310547,-0.24414062,0.061035156,0.0,0.0,0.0,-66.94519,61.99585,-37.71057
1766497525816,-0.88720703,-0.43408203,0.17822266,0.91552734,1.2207031,0.0,0.0,0.0,0.0,-66.94519,61.99585,-37.71057
1766497525828,-0.88720703,-0.43408203,0.17822266,0.91552734,1.2207031,0.0,0.0,0.0,0.0,-67.01111,62.02881,-37.858887
1766497525916,-0.88378906,-0.42919922,0.17822266,0.36621094,0.18310547,-0.30517578,0.0,0.0,0.0,-67.01111,62.02881,-37.858887
1766497525928,-0.88378906,-0.42919922,0.17822266,0.36621094,0.18310547,-0.30517578,0.0,0.0,0.0,-67.08801,62.02881,-37.946777
1766497526016,-0.88623047,-0.43310547,0.17626953,1.0375977,0.12207031,-0.12207031,0.0,0.0,0.0,-67.08801,62.02881,-37.946777
1766497526027,-0.88623047,-0.43310547,0.17626953,1.0375977,0.12207031,-0.12207031,0.0,0.0,0.0,-67.06604,62.006836,-37.98523
1766497526115,-0.8847656,-0.43554688,0.1772461,0.5493164,0.061035156,-0.36621094,0.0,0.0,0.0,-67.06604,62.006836,-37.98523
1766497526127,-0.8847656,-0.43554688,0.1772461,0.5493164,0.061035156,-0.36621094,0.0,0.0,0.0,-67.06604,61.99585,-37.98523
1766497526215,-0.8857422,-0.43359375,0.17578125,0.7324219,-0.8544922,-0.30517578,0.0,0.0,0.0,-67.06604,61.99585,-37.98523
1766497526227,-0.8857422,-0.43359375,0.17578125,0.7324219,-0.8544922,-0.30517578,0.0,0.0,0.0,-67.099,61.935425,-38.04016
1766497526315,-0.8774414,-0.4296875,0.18261719,0.61035156,0.36621094,0.061035156,0.0,0.0,0.0,-67.099,61.935425,-38.04016
1766497526327,-0.8774414,-0.4296875,0.18261719,0.61035156,0.36621094,0.061035156,0.0,0.0,0.0,-67.197876,61.957397,-38.155518
1766497526415,-0.8847656,-0.43359375,0.17529297,-0.7324219,0.0,0.24414062,0.0,0.0,0.0,-67.197876,61.957397,-38.155518
1766497526426,-0.8847656,-0.43359375,0.17529297,-0.7324219,0.0,0.24414062,0.0,0.0,0.0,-67.13745,61.951904,-38.05664
1766497526514,-0.8857422,-0.4326172,0.1772461,-0.061035156,-0.61035156,0.4272461,0.0,0.0,0.0,-67.13745,61.951904,-38.05664
1766497526526,-0.8857422,-0.4326172,0.1772461,-0.061035156,-0.61035156,0.4272461,0.0,0.0,0.0,-67.07703,61.957397,-37.930298
1766497526614,-0.8833008,-0.43310547,0.18017578,-0.12207031,0.24414062,0.0,0.0,0.0,0.0,-67.07703,61.957397,-37.930298
1766497526625,-0.8833008,-0.43310547,0.18017578,-0.12207031,0.24414062,0.0,0.0,0.0,0.0,-67.13196,61.957397,-38.007202
1766497526714,-0.8847656,-0.4326172,0.17529297,0.0,-0.12207031,0.48828125,0.0,0.0,0.0,-67.13196,61.957397,-38.007202
1766497526725,-0.8847656,-0.4326172,0.17529297,0.0,-0.12207031,0.48828125,0.0,0.0,0.0,-67.08801,61.97937,-37.963257
1766497526813,-0.88720703,-0.4326172,0.17480469,0.36621094,-0.18310547,0.0,0.0,0.0,0.0,-67.08801,61.97937,-37.963257
1766497526825,-0.88720703,-0.4326172,0.17480469,0.36621094,-0.18310547,0.0,0.0,0.0,0.0,-67.07703,61.984863,-37.946777
1766497526913,-0.88134766,-0.4321289,0.17236328,1.4038086,1.5869141,-0.4272461,0.0,0.0,0.0,-67.07703,61.984863,-37.946777
1766497526925,-0.88134766,-0.4321289,0.17236328,1.4038086,1.5869141,-0.4272461,0.0,0.0,0.0,-67.23633,62.006836,-38.171997
1766497527013,-0.890625,-0.43603516,0.1694336,0.7324219,0.0,-0.18310547,0.0,0.0,0.0,-67.23633,62.006836,-38.171997
1766497527025,-0.890625,-0.43603516,0.1694336,0.7324219,0.0,-0.18310547,0.0,0.0,0.0,-67.47803,62.0343,-38.485107
1766497527113,-0.87841797,-0.42626953,0.18164062,0.79345703,1.2817383,0.061035156,0.0,0.0,0.0,-67.47803,62.0343,-38.485107
1766497527124,-0.87841797,-0.42626953,0.18164062,0.79345703,1.2817383,0.061035156,0.0,0.0,0.0,-67.68677,62.078247,-38.66638
1766497527212,-0.8828125,-0.42919922,0.17675781,1.2817383,2.2583008,-0.12207031,0.0,0.0,0.0,-67.68677,62.078247,-38.66638
1766497527224,-0.8828125,-0.42919922,0.17675781,1.2817383,2.2583008,-0.12207031,0.0,0.0,0.0,-67.631836,62.089233,-38.68286
1766497527312,-0.8857422,-0.43798828,0.16699219,1.4038086,0.24414062,0.18310547,0.0,0.0,0.0,-67.631836,62.089233,-38.68286
1766497527323,-0.8857422,-0.43798828,0.16699219,1.4038086,0.24414062,0.18310547,0.0,0.0,0.0,-67.456055,62.089233,-38.605957
1766497527412,-0.8911133,-0.4350586,0.17529297,0.36621094,-0.7324219,-0.061035156,0.0,0.0,0.0,-67.456055,62.089233,-38.605957
1766497527423,-0.8911133,-0.4350586,0.17529297,0.36621094,-0.7324219,-0.061035156,0.0,0.0,0.0,-67.49451,62.13318,-38.64441
1766497527511,-0.8769531,-0.43017578,0.18115234,0.36621094,0.30517578,0.36621094,0.0,0.0,0.0,-67.49451,62.13318,-38.64441
1766497527523,-0.8769531,-0.43017578,0.18115234,0.36621094,0.30517578,0.36621094,0.0,0.0,0.0,-67.59888,62.13867,-38.792725
1766497527611,-0.8876953,-0.4272461,0.1743164,1.3427734,0.61035156,0.5493164,0.0,0.0,0.0,-67.59888,62.13867,-38.792725
1766497527623,-0.8876953,-0.4272461,0.1743164,1.3427734,0.61035156,0.5493164,0.0,0.0,0.0,-67.46704,62.18811,-38.64441
1766497527711,-0.8847656,-0.41796875,0.17285156,2.6855469,0.18310547,0.9765625,0.0,0.0,0.0,-67.46704,62.18811,-38.64441
1766497527723,-0.8847656,-0.41796875,0.17285156,2.6855469,0.18310547,0.9765625,0.0,0.0,0.0,-67.26929,62.22107,-38.572998
1766497527811,-0.89404297,-0.4194336,0.18457031,0.6713867,0.24414062,3.8452148,0.0,0.0,0.0,-67.26929,62.22107,-38.572998
1766497527822,-0.89404297,-0.4194336,0.18457031,0.6713867,0.24414062,3.8452148,0.0,0.0,0.0,-66.97815,62.46277,-38.43567
1766497527910,-0.8911133,-0.4243164,0.18603516,1.2207031,1.2817383,1.953125,0.0,0.0,0.0,-66.97815,62.46277,-38.43567
1766497527922,-0.8911133,-0.4243164,0.18603516,1.2207031,1.2817383,1.953125,0.0,0.0,0.0,-66.80786,62.74292,-38.325806
1766497528010,-0.89501953,-0.41259766,0.16748047,0.4272461,0.0,2.1362305,0.0,0.0,0.0,-66.80786,62.74292,-38.325806
1766497528022,-0.89501953,-0.41259766,0.16748047,0.4272461,0.0,2.1362305,0.0,0.0,0.0,-66.604614,62.940674,-38.111572
1766497528110,-0.8979492,-0.4248047,0.18066406,-0.91552734,0.30517578,0.9765625,0.0,0.0,0.0,-66.604614,62.940674,-38.111572
1766497528121,-0.8979492,-0.4248047,0.18066406,-0.91552734,0.30517578,0.9765625,0.0,0.0,0.0,-66.63757,63.149414,-38.051147
1766497528210,-0.89501953,-0.4091797,0.17333984,-0.061035156,0.8544922,-0.7324219,0.0,0.0,0.0,-66.63757,63.149414,-38.051147
1766497528221,-0.89501953,-0.4091797,0.17333984,-0.061035156,0.8544922,-0.7324219,0.0,0.0,0.0,-66.76941,63.154907,-38.05664
1766497528309,-0.8959961,-0.41796875,0.17041016,-0.18310547,-0.18310547,-0.30517578,0.0,0.0,0.0,-66.76941,63.154907,-38.05664
1766497528321,-0.8959961,-0.41796875,0.17041016,-0.18310547,-0.18310547,-0.30517578,0.0,0.0,0.0,-66.92322,63.099976,-38.188477
1766497528409,-0.8925781,-0.41357422,0.171875,-0.91552734,0.4272461,0.48828125,0.0,0.0,0.0,-66.92322,63.099976,-38.188477
1766497528421,-0.8925781,-0.41357422,0.171875,-0.91552734,0.4272461,0.48828125,0.0,0.0,0.0,-67.06055,63.12195,-38.21045
1766497528509,-0.89746094,-0.41308594,0.16796875,-0.18310547,0.4272461,0.36621094,0.0,0.0,0.0,-67.06055,63.12195,-38.21045
1766497528520,-0.89746094,-0.41308594,0.16796875,-0.18310547,0.4272461,0.36621094,0.0,0.0,0.0,-67.142944,63.17688,-38.182983
1766497528609,-0.88720703,-0.41796875,0.16259766,0.48828125,0.7324219,-0.36621094,0.0,0.0,0.0,-67.142944,63.17688,-38.182983
1766497528620,-0.88720703,-0.41796875,0.16259766,0.48828125,0.7324219,-0.36621094,0.0,0.0,0.0,-67.20886,63.182373,-38.221436
1766497528708,-0.9003906,-0.41601562,0.1586914,-0.8544922,-1.2207031,0.79345703,0.0,0.0,0.0,-67.20886,63.182373,-38.221436
1766497528720,-0.9003906,-0.41601562,0.1586914,-0.8544922,-1.2207031,0.79345703,0.0,0.0,0.0,-67.1814,63.198853,-38.12256
1766497528808,-0.89501953,-0.4140625,0.16845703,0.5493164,-0.4272461,0.0,0.0,0.0,0.0,-67.1814,63.198853,-38.12256
1766497528819,-0.89501953,-0.4140625,0.16845703,0.5493164,-0.4272461,0.0,0.0,0.0,0.0,-67.24182,63.23181,-38.139038
1766497528908,-0.8911133,-0.41064453,0.17333984,0.061035156,-0.12207031,-0.18310547,0.0,0.0,0.0,-67.24182,63.23181,-38.139038
1766497528919,-0.8911133,-0.41064453,0.17333984,0.061035156,-0.12207031,-0.18310547,0.0,0.0,0.0,-67.22534,63.20984,-38.100586
1766497529008,-0.8955078,-0.41357422,0.16748047,0.7324219,0.12207031,0.061035156,0.0,0.0,0.0,-67.22534,63.20984,-38.100586
1766497529019,-0.8955078,-0.41357422,0.16748047,0.7324219,0.12207031,0.061035156,0.0,0.0,0.0,-67.159424,63.198853,-37.990723
1766497529107,-0.8925781,-0.4169922,0.17285156,-0.7324219,-0.12207031,0.30517578,0.0,0.0,0.0,-67.159424,63.198853,-37.990723
1766497529119,-0.8925781,-0.4169922,0.17285156,-0.7324219,-0.12207031,0.30517578,0.0,0.0,0.0,-67.24182,63.23181,-38.051147
1766497529207,-0.8964844,-0.41796875,0.16992188,0.36621094,0.79345703,0.18310547,0.0,0.0,0.0,-67.24182,63.23181,-38.051147
1766497529218,-0.8964844,-0.41796875,0.16992188,0.36621094,0.79345703,0.18310547,0.0,0.0,0.0,-67.23633,63.24829,-37.957764
1766497529307,-0.88964844,-0.41357422,0.16796875,0.0,0.30517578,-0.061035156,0.0,0.0,0.0,-67.23633,63.24829,-37.957764
1766497529318,-0.88964844,-0.41357422,0.16796875,0.0,0.30517578,-0.061035156,0.0,0.0,0.0,-67.17041,63.23181,-37.858887
1766497529406,-0.8955078,-0.4116211,0.17285156,0.0,0.0,0.4272461,0.0,0.0,0.0,-67.17041,63.23181,-37.858887
1766497529418,-0.8955078,-0.4116211,0.17285156,0.0,0.0,0.4272461,0.0,0.0,0.0,-67.13196,63.22632,-37.738037
1766497529506,-0.8955078,-0.40576172,0.17382812,0.48828125,0.5493164,0.0,0.0,0.0,0.0,-67.13196,63.22632,-37.738037
1766497529518,-0.8955078,-0.40576172,0.17382812,0.48828125,0.5493164,0.0,0.0,0.0,0.0,-67.04407,63.23181,-37.63916
1766497529606,-0.890625,-0.41259766,0.17285156,-0.48828125,0.4272461,0.061035156,0.0,0.0,0.0,-67.04407,63.23181,-37.63916
1766497529617,-0.890625,-0.41259766,0.17285156,-0.48828125,0.4272461,0.061035156,0.0,0.0,0.0,-67.005615,63.253784,-37.56775
1766497529705,-0.89501953,-0.41308594,0.16601562,0.8544922,-0.30517578,0.12207031,0.0,0.0,0.0,-67.005615,63.253784,-37.56775
1766497529717,-0.89501953,-0.41308594,0.16601562,0.8544922,-0.30517578,0.12207031,0.0,0.0,0.0,-66.87378,63.242798,-37.41394
1766497529805,-0.8925781,-0.4116211,0.17480469,0.5493164,0.0,-0.061035156,0.0,0.0,0.0,-66.87378,63.242798,-37.41394
1766497529817,-0.8925781,-0.4116211,0.17480469,0.5493164,0.0,-0.061035156,0.0,0.0,0.0,-66.796875,63.220825,-37.348022
1766497529905,-0.8989258,-0.4169922,0.17089844,0.6713867,1.2207031,-0.30517578,0.0,0.0,0.0,-66.796875,63.220825,-37.348022
1766497529916,-0.8989258,-0.4169922,0.17089844,0.6713867,1.2207031,-0.30517578,0.0,0.0,0.0,-66.75842,63.22632,-37.320557
1766497530005,-0.89453125,-0.41308594,0.16992188,0.30517578,1.0986328,-0.30517578,0.0,0.0,0.0,-66.75842,63.22632,-37.320557
1766497530016,-0.89453125,-0.41308594,0.16992188,0.30517578,1.0986328,-0.30517578,0.0,0.0,0.0,-66.92322,63.22632,-37.50183
1766497530104,-0.8930664,-0.41503906,0.17041016,0.12207031,0.79345703,-0.12207031,0.0,0.0,0.0,-66.92322,63.22632,-37.50183
1766497530116,-0.8930664,-0.41503906,0.17041016,0.12207031,0.79345703,-0.12207031,0.0,0.0,0.0,-67.093506,63.24829,-37.683105
1766497530204,-0.89404297,-0.41259766,0.16992188,0.0,0.8544922,0.0,0.0,0.0,0.0,-67.093506,63.24829,-37.683105
1766497530216,-0.89404297,-0.41259766,0.16992188,0.0,0.8544922,0.0,0.0,0.0,0.0,-67.21985,63.26477,-37.781982
1766497530304,-0.89501953,-0.41308594,0.16748047,0.0,1.0986328,0.12207031,0.0,0.0,0.0,-67.21985,63.26477,-37.781982
1766497530316,-0.89501953,-0.41308594,0.16748047,0.0,1.0986328,0.12207031,0.0,0.0,0.0,-67.37366,63.29773,-37.924805
1766497530404,-0.8925781,-0.41308594,0.17285156,0.061035156,1.5258789,0.12207031,0.0,0.0,0.0,-67.37366,63.29773,-37.924805
1766497530415,-0.8925781,-0.41308594,0.17285156,0.061035156,1.5258789,0.12207031,0.0,0.0,0.0,-67.60986,63.341675,-38.17749
1766497530504,-0.89208984,-0.4086914,0.16455078,-0.4272461,1.4038086,-0.18310547,0.0,0.0,0.0,-67.60986,63.341675,-38.17749
1766497530515,-0.89208984,-0.4086914,0.16455078,-0.4272461,1.4038086,-0.18310547,0.0,0.0,0.0,-67.70874,63.363647,-38.199463
1766497530603,-0.89990234,-0.41308594,0.16210938,-0.061035156,-3.479004,0.6713867,0.0,0.0,0.0,-67.70874,63.363647,-38.199463
1766497530615,-0.89990234,-0.41308594,0.16210938,-0.061035156,-3.479004,0.6713867,0.0,0.0,0.0,-67.45056,63.33069,-37.91931
1766497530703,-0.8881836,-0.41015625,0.17480469,-0.061035156,0.36621094,0.0,0.0,0.0,0.0,-67.45056,63.33069,-37.91931
1766497530714,-0.8881836,-0.41015625,0.17480469,-0.061035156,0.36621094,0.0,0.0,0.0,0.0,-67.423096,63.319702,-37.902832
1766497530803,-0.8989258,-0.41601562,0.16113281,0.48828125,1.0375977,-0.4272461,0.0,0.0,0.0,-67.423096,63.319702,-37.902832
1766497530814,-0.8989258,-0.41601562,0.16113281,0.48828125,1.0375977,-0.4272461,0.0,0.0,0.0,-67.42859,63.308716,-37.902832
1766497530902,-0.8935547,-0.41308594,0.16357422,0.5493164,-0.36621094,0.0,0.0,0.0,0.0,-67.42859,63.308716,-37.902832
1766497530914,-0.8935547,-0.41308594,0.16357422,0.5493164,-0.36621094,0.0,0.0,0.0,0.0,-67.543945,63.29773,-38.05664
1766497531002,-0.88964844,-0.41259766,0.17138672,0.4272461,0.30517578,0.12207031,0.0,0.0,0.0,-67.543945,63.29773,-38.05664
1766497531014,-0.88964844,-0.41259766,0.17138672,0.4272461,0.30517578,0.12207031,0.0,0.0,0.0,-67.47803,63.31421,-37.95227
1766497531102,-0.8911133,-0.41259766,0.17382812,-0.061035156,-0.36621094,0.12207031,0.0,0.0,0.0,-67.47803,63.31421,-37.95227
1766497531114,-0.8911133,-0.41259766,0.17382812,-0.061035156,-0.36621094,0.12207031,0.0,0.0,0.0,-67.368164,63.303223,-37.787476
1766497531202,-0.89501953,-0.40966797,0.17333984,0.8544922,0.061035156,-0.12207031,0.0,0.0,0.0,-67.368164,63.303223,-37.787476
1766497531213,-0.89501953,-0.40966797,0.17333984,0.8544922,0.061035156,-0.12207031,0.0,0.0,0.0,-67.29126,63.292236,-37.699585
1766497531301,-0.9003906,-0.41796875,0.17382812,0.4272461,-0.61035156,0.0,0.0,0.0,0.0,-67.29126,63.292236,-37.699585
1766497531313,-0.9003906,-0.41796875,0.17382812,0.4272461,-0.61035156,0.0,0.0,0.0,0.0,-67.1814,63.28125,-37.63916
1766497531401,-0.8881836,-0.40478516,0.18066406,0.061035156,0.36621094,0.4272461,0.0,0.0,0.0,-67.1814,63.28125,-37.63916
1766497531412,-0.8881836,-0.40478516,0.18066406,0.061035156,0.36621094,0.4272461,0.0,0.0,0.0,-67.18689,63.303223,-37.595215
1766497531501,-0.89697266,-0.41503906,0.16796875,0.18310547,0.24414062,0.24414062,0.0,0.0,0.0,-67.18689,63.303223,-37.595215
1766497531512,-0.89697266,-0.41503906,0.16796875,0.18310547,0.24414062,0.24414062,0.0,0.0,0.0,-67.093506,63.33069,-37.496338
1766497531600,-0.8955078,-0.41259766,0.17041016,-0.12207031,-0.79345703,0.18310547,0.0,0.0,0.0,-67.093506,63.33069,-37.496338
1766497531612,-0.8955078,-0.41259766,0.17041016,-0.12207031,-0.79345703,0.18310547,0.0,0.0,0.0,-67.02759,63.33069,-37.41394
1766497531700,-0.8979492,-0.40966797,0.17285156,-0.30517578,-0.12207031,0.12207031,0.0,0.0,0.0,-67.02759,63.33069,-37.41394
1766497531712,-0.8979492,-0.40966797,0.17285156,-0.30517578,-0.12207031,0.12207031,0.0,0.0,0.0,-66.989136,63.33069,-37.337036
1766497531800,-0.89404297,-0.41210938,0.17138672,0.0,0.0,0.18310547,0.0,0.0,0.0,-66.989136,63.33069,-37.337036
1766497531811,-0.89404297,-0.41210938,0.17138672,0.0,0.0,0.18310547,0.0,0.0,0.0,-66.95618,63.341675,-37.27661
1766497531900,-0.89501953,-0.4111328,0.17089844,-0.061035156,-0.8544922,0.24414062,0.0,0.0,0.0,-66.95618,63.341675,-37.27661
1766497531911,-0.89501953,-0.4111328,0.17089844,-0.061035156,-0.8544922,0.24414062,0.0,0.0,0.0,-66.84082,63.325195,-37.11731
1766497531999,-0.89746094,-0.4116211,0.16992188,0.061035156,0.0,0.061035156,0.0,0.0,0.0,-66.84082,63.325195,-37.11731
1766497532011,-0.89746094,-0.4116211,0.16992188,0.061035156,0.0,0.061035156,0.0,0.0,0.0,-66.75293,63.31421,-36.968994
1766497532099,-0.89208984,-0.41357422,0.17041016,1.5258789,0.48828125,-0.5493164,0.0,0.0,0.0,-66.75293,63.31421,-36.968994
1766497532111,-0.89208984,-0.41357422,0.17041016,1.5258789,0.48828125,-0.5493164,0.0,0.0,0.0,-66.75842,63.319702,-36.990967
1766497532199,-0.90283203,-0.41015625,0.1694336,2.2583008,-0.12207031,1.953125,0.0,0.0,0.0,-66.75842,63.319702,-36.990967
1766497532211,-0.90283203,-0.41015625,0.1694336,2.2583008,-0.12207031,1.953125,0.0,0.0,0.0,-66.52771,63.36914,-36.87561
1766497532299,-0.8979492,-0.4111328,0.16308594,2.8686523,1.3427734,0.24414062,0.0,0.0,0.0,-66.52771,63.36914,-36.87561
1766497532310,-0.8979492,-0.4111328,0.16308594,2.8686523,1.3427734,0.24414062,0.0,0.0,0.0,-66.483765,63.44055,-36.985474
1766497532398,-0.9194336,-0.40771484,0.17919922,2.319336,-0.30517578,3.6010742,0.0,0.0,0.0,-66.483765,63.44055,-36.985474
1766497532410,-0.9194336,-0.40771484,0.17919922,2.319336,-0.30517578,3.6010742,0.0,0.0,0.0,-66.26953,63.605347,-36.9635
1766497532498,-0.8803711,-0.39746094,0.18066406,7.019043,3.8452148,-1.0986328,0.0,0.0,0.0,-66.26953,63.605347,-36.9635
1766497532510,-0.8803711,-0.39746094,0.18066406,7.019043,3.8452148,-1.0986328,0.0,0.0,0.0,-65.95642,63.825073,-37.0459
1766497532598,-0.87109375,-0.43408203,0.171875,-0.8544922,0.8544922,-0.61035156,0.0,0.0,0.0,-65.95642,63.825073,-37.0459
1766497532609,-0.87109375,-0.43408203,0.171875,-0.8544922,0.8544922,-0.61035156,0.0,0.0,0.0,-65.98938,63.720703,-37.452393
1766497532697,-0.9013672,-0.39794922,0.16992188,-5.004883,-3.479004,-1.3427734,0.0,0.0,0.0,-65.98938,63.720703,-37.452393
1766497532709,-0.9013672,-0.39794922,0.16992188,-5.004883,-3.479004,-1.3427734,0.0,0.0,0.0,-65.753174,63.5614,-36.51306
1766497532797,-0.9082031,-0.3955078,0.1821289,-1.953125,-1.4038086,2.9296875,0.0,0.0,0.0,-65.753174,63.5614,-36.51306
1766497532809,-0.9082031,-0.3955078,0.1821289,-1.953125,-1.4038086,2.9296875,0.0,0.0,0.0,-65.86304,63.528442,-36.42517
1766497532897,-0.89746094,-0.41455078,0.1743164,-4.0283203,-0.79345703,-0.12207031,0.0,0.0,0.0,-65.86304,63.528442,-36.42517
1766497532909,-0.89746094,-0.41455078,0.1743164,-4.0283203,-0.79345703,-0.12207031,0.0,0.0,0.0,-65.91797,63.632812,-36.238403
1766497532997,-0.8911133,-0.3984375,0.1772461,-2.6245117,0.4272461,-0.7324219,0.0,0.0,0.0,-65.91797,63.632812,-36.238403
1766497533008,-0.8911133,-0.3984375,0.1772461,-2.6245117,0.4272461,-0.7324219,0.0,0.0,0.0,-66.12671,63.588867,-36.02417
1766497533096,-0.9003906,-0.4165039,0.16503906,-3.112793,-0.5493164,0.36621094,0.0,0.0,0.0,-66.12671,63.588867,-36.02417
1766497533108,-0.9003906,-0.4165039,0.16503906,-3.112793,-0.5493164,0.36621094,0.0,0.0,0.0,-66.28052,63.54492,-35.980225
1766497533196,-0.890625,-0.40722656,0.16552734,-0.6713867,-1.2817383,0.61035156,0.0,0.0,0.0,-66.28052,63.54492,-35.980225
1766497533208,-0.890625,-0.40722656,0.16552734,-0.6713867,-1.2817383,0.61035156,0.0,0.0,0.0,-66.379395,63.566895,-35.980225
1766497533296,-0.89160156,-0.4111328,0.1743164,-2.1362305,-0.6713867,0.24414062,0.0,0.0,0.0,-66.379395,63.566895,-35.980225
1766497533307,-0.89160156,-0.4111328,0.1743164,-2.1362305,-0.6713867,0.24414062,0.0,0.0,0.0,-66.500244,63.599854,-35.958252
1766497533396,-0.90234375,-0.40234375,0.16259766,-2.5634766,-0.5493164,0.12207031,0.0,0.0,0.0,-66.500244,63.599854,-35.958252
1766497533407,-0.90234375,-0.40234375,0.16259766,-2.5634766,-0.5493164,0.12207031,0.0,0.0,0.0,-66.50574,63.57788,-35.667114
1766497533495,-0.91064453,-0.4140625,0.16699219,-3.90625,-1.159668,0.79345703,0.0,0.0,0.0,-66.50574,63.57788,-35.667114
1766497533507,-0.91064453,-0.4140625,0.16699219,-3.90625,-1.159668,0.79345703,0.0,0.0,0.0,-66.571655,63.566895,-35.474854
1766497533595,-0.8989258,-0.40722656,0.18261719,3.3569336,-0.36621094,0.48828125,0.0,0.0,0.0,-66.571655,63.566895,-35.474854
1766497533607,-0.8989258,-0.40722656,0.18261719,3.3569336,-0.36621094,0.48828125,0.0,0.0,0.0,-66.80237,63.71521,-35.595703
1766497533695,-0.89746094,-0.4140625,0.17138672,5.3100586,3.2348633,0.9765625,0.0,0.0,0.0,-66.80237,63.71521,-35.595703
1766497533706,-0.89746094,-0.4140625,0.17138672,5.3100586,3.2348633,0.9765625,0.0,0.0,0.0,-66.23657,63.73169,-35.60669
1766497533794,-0.91259766,-0.40478516,0.18164062,4.0283203,1.8310547,-0.4272461,0.0,0.0,0.0,-66.23657,63.73169,-35.60669
1766497533806,-0.91259766,-0.40478516,0.18164062,4.0283203,1.8310547,-0.4272461,0.0,0.0,0.0,-66.19812,63.77014,-36.02417
1766497533894,-0.8886719,-0.4038086,0.16015625,0.9765625,1.7700195,0.061035156,0.0,0.0,0.0,-66.19812,63.77014,-36.02417
1766497533906,-0.8886719,-0.4038086,0.16015625,0.9765625,1.7700195,0.061035156,0.0,0.0,0.0,-66.346436,63.81958,-36.57898
1766497533994,-0.88378906,-0.40625,0.171875,-0.4272461,2.1362305,-1.2207031,0.0,0.0,0.0,-66.346436,63.81958,-36.57898
1766497534005,-0.88378906,-0.40625,0.171875,-0.4272461,2.1362305,-1.2207031,0.0,0.0,0.0,-66.87927,63.83606,-37.249146
1766497534094,-0.90527344,-0.4008789,0.15820312,-2.1972656,0.48828125,-1.2817383,0.0,0.0,0.0,-66.87927,63.83606,-37.249146
1766497534105,-0.90527344,-0.4008789,0.15820312,-2.1972656,0.48828125,-1.2817383,0.0,0.0,0.0,-67.17041,63.81958,-37.364502
1766497534193,-0.88671875,-0.4169922,0.17041016,-3.1738281,-0.12207031,-2.1362305,0.0,0.0,0.0,-67.17041,63.81958,-37.364502
1766497534205,-0.88671875,-0.4169922,0.17041016,-3.1738281,-0.12207031,-2.1362305,0.0,0.0,0.0,-67.736206,63.6438,-37.820435
1766497534293,-0.88378906,-0.42138672,0.15820312,-5.6762695,-1.7089844,-0.24414062,0.0,0.0,0.0,-67.736206,63.6438,-37.820435
1766497534305,-0.88378906,-0.42138672,0.15820312,-5.6762695,-1.7089844,-0.24414062,0.0,0.0,0.0,-68.04382,63.468018,-37.74353
1766497534393,-0.8979492,-0.40429688,0.14648438,-5.6152344,-3.0517578,0.5493164,0.0,0.0,0.0,-68.04382,63.468018,-37.74353
1766497534404,-0.8979492,-0.40429688,0.14648438,-5.6152344,-3.0517578,0.5493164,0.0,0.0,0.0,-68.04932,63.391113,-37.095337
1766497534493,-0.9038086,-0.3984375,0.1586914,1.4648438,-1.7089844,-1.3427734,0.0,0.0,0.0,-68.04932,63.391113,-37.095337
1766497534504,-0.9038086,-0.3984375,0.1586914,1.4648438,-1.7089844,-1.3427734,0.0,0.0,0.0,-67.91748,63.308716,-36.82068
1766497534592,-0.87890625,-0.43554688,0.16503906,-0.5493164,-1.3427734,-2.1362305,0.0,0.0,0.0,-67.91748,63.308716,-36.82068
1766497534604,-0.87890625,-0.43554688,0.16503906,-0.5493164,-1.3427734,-2.1362305,0.0,0.0,0.0,-67.785645,63.12744,-36.90857
1766497534692,-0.8886719,-0.4189453,0.1616211,-3.1738281,-4.638672,-2.6855469,0.0,0.0,0.0,-67.785645,63.12744,-36.90857
1766497534703,-0.8886719,-0.4189453,0.1616211,-3.1738281,-4.638672,-2.6855469,0.0,0.0,0.0,-67.40662,62.764893,-36.18347
1766497534792,-0.8857422,-0.42822266,0.16748047,-2.5024414,-1.7089844,-3.6010742,0.0,0.0,0.0,-67.40662,62.764893,-36.18347
1766497534803,-0.8857422,-0.42822266,0.16748047,-2.5024414,-1.7089844,-3.6010742,0.0,0.0,0.0,-67.4176,62.495728,-35.85388
1766497534891,-0.8833008,-0.4248047,0.17333984,2.2583008,-1.7700195,-0.48828125,0.0,0.0,0.0,-67.4176,62.495728,-35.85388
1766497534903,-0.8833008,-0.4248047,0.17333984,2.2583008,-1.7700195,-0.48828125,0.0,0.0,0.0,-67.39563,62.18811,-36.013184
1766497534991,-0.88916016,-0.43164062,0.18408203,-0.30517578,-0.91552734,-1.6479492,0.0,0.0,0.0,-67.39563,62.18811,-36.013184
1766497535003,-0.88916016,-0.43164062,0.18408203,-0.30517578,-0.91552734,-1.6479492,0.0,0.0,0.0,-67.22534,62.094727,-35.908813
1766497535091,-0.8852539,-0.44091797,0.17236328,2.4414062,-0.061035156,-0.8544922,0.0,0.0,0.0,-67.22534,62.094727,-35.908813
1766497535103,-0.8852539,-0.44091797,0.17236328,2.4414062,-0.061035156,-0.8544922,0.0,0.0,0.0,-66.92322,61.885986,-35.875854
1766497535191,-0.88623047,-0.43652344,0.18652344,0.6713867,-0.91552734,-0.48828125,0.0,0.0,0.0,-66.92322,61.885986,-35.875854
1766497535203,-0.88623047,-0.43652344,0.18652344,0.6713867,-0.91552734,-0.48828125,0.0,0.0,0.0,-66.78589,61.80359,-35.897827
1766497535290,-0.8691406,-0.43164062,0.16699219,0.30517578,-2.380371,-1.0375977,0.0,0.0,0.0,-66.78589,61.80359,-35.897827
1766497535302,-0.8691406,-0.43164062,0.16699219,0.30517578,-2.380371,-1.0375977,0.0,0.0,0.0,-66.81885,61.638794,-36.04065
1766497535390,-0.87890625,-0.42529297,0.17773438,4.699707,1.0986328,-1.4648438,0.0,0.0,0.0,-66.81885,61.638794,-36.04065
1766497535402,-0.87890625,-0.42529297,0.17773438,4.699707,1.0986328,-1.4648438,0.0,0.0,0.0,-66.71448,61.572876,-36.150513
1766497535490,-0.8720703,-0.45117188,0.1796875,-0.9765625,0.0,-0.061035156,0.0,0.0,0.0,-66.71448,61.572876,-36.150513
1766497535502,-0.8720703,-0.45117188,0.1796875,-0.9765625,0.0,-0.061035156,0.0,0.0,0.0,-66.70349,61.534424,-36.40869
1766497535590,-0.88671875,-0.43115234,0.1772461,0.0,-1.8310547,1.4038086,0.0,0.0,0.0,-66.70349,61.534424,-36.40869
1766497535601,-0.88671875,-0.43115234,0.1772461,0.0,-1.8310547,1.4038086,0.0,0.0,0.0,-66.63757,61.567383,-36.271362
1766497535689,-0.8720703,-0.43164062,0.18847656,0.6713867,0.5493164,1.4038086,0.0,0.0,0.0,-66.63757,61.567383,-36.271362
1766497535701,-0.8720703,-0.43164062,0.18847656,0.6713867,0.5493164,1.4038086,0.0,0.0,0.0,-66.604614,61.69922,-36.33728
1766497535789,-0.8847656,-0.44091797,0.18017578,0.4272461,0.91552734,-0.4272461,0.0,0.0,0.0,-66.604614,61.69922,-36.33728
1766497535800,-0.8847656,-0.44091797,0.18017578,0.4272461,0.91552734,-0.4272461,0.0,0.0,0.0,-66.58264,61.776123,-36.4032
1766497535889,-0.87890625,-0.43603516,0.18017578,-0.36621094,-0.9765625,0.061035156,0.0,0.0,0.0,-66.58264,61.776123,-36.4032
1766497535900,-0.87890625,-0.43603516,0.18017578,-0.36621094,-0.9765625,0.061035156,0.0,0.0,0.0,-66.6156,61.7157,-36.469116
1766497535988,-0.8847656,-0.42822266,0.18115234,0.6713867,-0.30517578,-0.30517578,0.0,0.0,0.0,-66.6156,61.7157,-36.469116
1766497536000,-0.8847656,-0.42822266,0.18115234,0.6713867,-0.30517578,-0.30517578,0.0,0.0,0.0,-66.58264,61.704712,-36.47461
1766497536088,-0.8823242,-0.43701172,0.1850586,-0.79345703,0.5493164,0.24414062,0.0,0.0,0.0,-66.58264,61.704712,-36.47461
1766497536100,-0.8823242,-0.43701172,0.1850586,-0.79345703,0.5493164,0.24414062,0.0,0.0,0.0,-66.71997,61.69922,-36.69983
1766497536188,-0.8828125,-0.44189453,0.1875,-1.0986328,-0.8544922,0.7324219,0.0,0.0,0.0,-66.71997,61.69922,-36.69983
1766497536199,-0.8828125,-0.44189453,0.1875,-1.0986328,-0.8544922,0.7324219,0.0,0.0,0.0,-66.71448,61.68274,-36.644897
1766497536288,-0.89453125,-0.46484375,0.18847656,-1.953125,-4.211426,4.8217773,0.0,0.0,0.0,-66.71448,61.68274,-36.644897
1766497536299,-0.89453125,-0.46484375,0.18847656,-1.953125,-4.211426,4.8217773,0.0,0.0,0.0,-66.275024,61.97937,-35.914307
1766497536387,-0.8652344,-0.4140625,0.1953125,5.554199,6.5307617,-3.8452148,0.0,0.0,0.0,-66.275024,61.97937,-35.914307
1766497536399,-0.8652344,-0.4140625,0.1953125,5.554199,6.5307617,-3.8452148,0.0,0.0,0.0,-66.4563,61.798096,-36.49109
1766497536487,-0.88623047,-0.44335938,0.1694336,-3.2348633,2.5634766,-1.6479492,0.0,0.0,0.0,-66.4563,61.798096,-36.49109
1766497536498,-0.88623047,-0.44335938,0.1694336,-3.2348633,2.5634766,-1.6479492,0.0,0.0,0.0,-66.67053,61.726685,-36.82068
1766497536587,-0.8769531,-0.421875,0.17382812,0.6713867,-1.7700195,-0.30517578,0.0,0.0,0.0,-66.67053,61.726685,-36.82068
1766497536599,-0.8769531,-0.421875,0.17382812,0.6713867,-1.7700195,-0.30517578,0.0,0.0,0.0,-66.75842,61.638794,-36.760254
1766497536686,-0.8833008,-0.43652344,0.18847656,-2.380371,-0.061035156,1.8310547,0.0,0.0,0.0,-66.75842,61.638794,-36.760254
1766497536698,-0.8833008,-0.43652344,0.18847656,-2.380371,-0.061035156,1.8310547,0.0,0.0,0.0,-66.87378,61.732178,-36.886597
1766497536786,-0.8876953,-0.4428711,0.1665039,-0.5493164,1.5869141,0.79345703,0.0,0.0,0.0,-66.87378,61.732178,-36.886597
1766497536798,-0.8876953,-0.4428711,0.1665039,-0.5493164,1.5869141,0.79345703,0.0,0.0,0.0,-66.901245,61.885986,-36.831665
1766497536886,-0.87939453,-0.4326172,0.1821289,-0.24414062,0.61035156,-0.6713867,0.0,0.0,0.0,-66.901245,61.885986,-36.831665
1766497536897,-0.87939453,-0.4326172,0.1821289,-0.24414062,0.61035156,-0.6713867,0.0,0.0,0.0,-67.31323,61.94641,-37.18872
1766497536986,-0.8857422,-0.43359375,0.17871094,2.5634766,0.6713867,-0.061035156,0.0,0.0,0.0,-67.31323,61.94641,-37.18872
1766497536997,-0.8857422,-0.43359375,0.17871094,2.5634766,0.6713867,-0.061035156,0.0,0.0,0.0,-67.2583,61.89148,-37.320557
1766497537085,-0.87890625,-0.4404297,0.17773438,0.18310547,0.0,0.18310547,0.0,0.0,0.0,-67.2583,61.89148,-37.320557
1766497537097,-0.87890625,-0.4404297,0.17773438,0.18310547,0.0,0.18310547,0.0,0.0,0.0,-67.08801,61.94641,-37.30957
1766497537185,-0.8886719,-0.43408203,0.17675781,3.2348633,1.4038086,-0.61035156,0.0,0.0,0.0,-67.08801,61.94641,-37.30957
1766497537197,-0.8886719,-0.43408203,0.17675781,3.2348633,1.4038086,-0.61035156,0.0,0.0,0.0,-66.917725,61.92444,-37.29309
1766497537285,-0.8833008,-0.4321289,0.19238281,0.4272461,-1.8310547,0.91552734,0.0,0.0,0.0,-66.917725,61.92444,-37.29309
1766497537296,-0.8833008,-0.4321289,0.19238281,0.4272461,-1.8310547,0.91552734,0.0,0.0,0.0,-67.05505,61.918945,-37.732544
1766497537385,-0.8803711,-0.4248047,0.19042969,0.12207031,2.0141602,0.24414062,0.0,0.0,0.0,-67.05505,61.918945,-37.732544
1766497537396,-0.8803711,-0.4248047,0.19042969,0.12207031,2.0141602,0.24414062,0.0,0.0,0.0,-66.96716,61.97937,-37.578735
1766497537484,-0.8886719,-0.43701172,0.17871094,-0.30517578,0.9765625,0.6713867,0.0,0.0,0.0,-66.96716,61.97937,-37.578735
1766497537496,-0.8886719,-0.43701172,0.17871094,-0.30517578,0.9765625,0.6713867,0.0,0.0,0.0,-66.87927,62.023315,-37.50183
1766497537584,-0.88378906,-0.4272461,0.18066406,-0.5493164,-1.2207031,-0.61035156,0.0,0.0,0.0,-66.87927,62.023315,-37.50183
1766497537595,-0.88378906,-0.4272461,0.18066406,-0.5493164,-1.2207031,-0.61035156,0.0,0.0,0.0,-66.92871,62.017822,-37.457886
1766497537684,-0.88378906,-0.4321289,0.17675781,0.5493164,1.5869141,-0.79345703,0.0,0.0,0.0,-66.92871,62.017822,-37.457886
1766497537695,-0.88378906,-0.4321289,0.17675781,0.5493164,1.5869141,-0.79345703,0.0,0.0,0.0,-66.98364,61.968384,-37.55127
1766497537783,-0.8876953,-0.43359375,0.17236328,0.30517578,0.30517578,-0.61035156,0.0,0.0,0.0,-66.98364,61.968384,-37.55127
1766497537795,-0.8876953,-0.43359375,0.17236328,0.30517578,0.30517578,-0.61035156,0.0,0.0,0.0,-67.12097,61.885986,-37.765503
1766497537883,-0.88671875,-0.43408203,0.18115234,-1.7089844,-2.0751953,1.5258789,0.0,0.0,0.0,-67.12097,61.885986,-37.765503
1766497537896,-0.88671875,-0.43408203,0.18115234,-1.7089844,-2.0751953,1.5258789,0.0,0.0,0.0,-67.07703,61.918945,-37.63916
1766497537983,-0.8881836,-0.43603516,0.17822266,0.48828125,-0.8544922,-0.79345703,0.0,0.0,0.0,-67.07703,61.918945,-37.63916
1766497537995,-0.8881836,-0.43603516,0.17822266,0.48828125,-0.8544922,-0.79345703,0.0,0.0,0.0,-66.868286,61.913452,-37.37549
1766497538083,-0.8779297,-0.43017578,0.18066406,-0.30517578,-1.7089844,-1.5869141,0.0,0.0,0.0,-66.868286,61.913452,-37.37549
1766497538095,-0.8779297,-0.43017578,0.18066406,-0.30517578,-1.7089844,-1.5869141,0.0,0.0,0.0,-67.0166,61.77063,-37.573242
1766497538182,-0.87841797,-0.43603516,0.18896484,0.7324219,0.12207031,-1.5869141,0.0,0.0,0.0,-67.0166,61.77063,-37.573242
1766497538194,-0.87841797,-0.43603516,0.18896484,0.7324219,0.12207031,-1.5869141,0.0,0.0,0.0,-66.90674,61.572876,-37.435913
1766497538282,-0.8754883,-0.4350586,0.18164062,-2.1362305,-1.953125,1.3427734,0.0,0.0,0.0,-66.90674,61.572876,-37.435913
1766497538294,-0.8754883,-0.4350586,0.18164062,-2.1362305,-1.953125,1.3427734,0.0,0.0,0.0,-66.698,61.539917,-37.111816
1766497538382,-0.8881836,-0.4321289,0.18017578,0.12207031,0.30517578,-0.12207031,0.0,0.0,0.0,-66.698,61.539917,-37.111816
1766497538393,-0.8881836,-0.4321289,0.18017578,0.12207031,0.30517578,-0.12207031,0.0,0.0,0.0,-66.6156,61.59485,-36.853638
1766497538482,-0.87060547,-0.45263672,0.1899414,0.30517578,-0.48828125,-0.8544922,0.0,0.0,0.0,-66.6156,61.59485,-36.853638
1766497538493,-0.87060547,-0.45263672,0.1899414,0.30517578,-0.48828125,-0.8544922,0.0,0.0,0.0,-66.71997,61.517944,-37.18872
1766497538581,-0.8798828,-0.42822266,0.17919922,0.36621094,-1.2207031,-0.24414062,0.0,0.0,0.0,-66.71997,61.517944,-37.18872
1766497538593,-0.8798828,-0.42822266,0.17919922,0.36621094,-1.2207031,-0.24414062,0.0,0.0,0.0,-66.58264,61.45752,-36.92505
1766497538681,-0.8828125,-0.4453125,0.18896484,1.953125,0.8544922,-1.5258789,0.0,0.0,0.0,-66.58264,61.45752,-36.92505
1766497538693,-0.8828125,-0.4453125,0.18896484,1.953125,0.8544922,-1.5258789,0.0,0.0,0.0,-66.64307,61.402588,-37.106323
1766497538781,-0.8808594,-0.45263672,0.19091797,-0.36621094,1.159668,0.30517578,0.0,0.0,0.0,-66.64307,61.402588,-37.106323
1766497538792,-0.8808594,-0.45263672,0.19091797,-0.36621094,1.159668,0.30517578,0.0,0.0,0.0,-66.71448,61.325684,-37.391968
1766497538880,-0.8798828,-0.42529297,0.17626953,-0.79345703,0.0,0.0,0.0,0.0,0.0,-66.71448,61.325684,-37.391968
1766497538892,-0.8798828,-0.42529297,0.17626953,-0.79345703,0.0,0.0,0.0,0.0,0.0,-66.884766,61.33667,-37.441406
1766497538980,-0.86865234,-0.45361328,0.17675781,4.0283203,1.4038086,-1.5869141,0.0,0.0,0.0,-66.884766,61.33667,-37.441406
1766497538992,-0.86865234,-0.45361328,0.17675781,4.0283203,1.4038086,-1.5869141,0.0,0.0,0.0,-66.97815,61.364136,-37.787476
1766497539080,-0.8774414,-0.45947266,0.18652344,-1.7700195,-1.6479492,0.9765625,0.0,0.0,0.0,-66.97815,61.364136,-37.787476
1766497539091,-0.8774414,-0.45947266,0.18652344,-1.7700195,-1.6479492,0.9765625,0.0,0.0,0.0,-66.90674,61.276245,-37.858887
1766497539180,-0.8857422,-0.4194336,0.19238281,0.0,-0.5493164,1.0375977,0.0,0.0,0.0,-66.90674,61.276245,-37.858887
1766497539191,-0.8857422,-0.4194336,0.19238281,0.0,-0.5493164,1.0375977,0.0,0.0,0.0,-66.82434,61.375122,-37.490845
1766497539279,-0.8701172,-0.4423828,0.17871094,1.5869141,1.0375977,-0.18310547,0.0,0.0,0.0,-66.82434,61.375122,-37.490845
1766497539291,-0.8701172,-0.4423828,0.17871094,1.5869141,1.0375977,-0.18310547,0.0,0.0,0.0,-66.81885,61.42456,-37.738037
1766497539379,-0.8774414,-0.4482422,0.1850586,-1.7700195,-1.159668,1.5258789,0.0,0.0,0.0,-66.81885,61.42456,-37.738037
1766497539391,-0.8774414,-0.4482422,0.1850586,-1.7700195,-1.159668,1.5258789,0.0,0.0,0.0,-66.7749,61.506958,-37.650146
1766497539479,-0.88916016,-0.4350586,0.17871094,-1.5869141,-0.36621094,3.112793,0.0,0.0,0.0,-66.7749,61.506958,-37.650146
1766497539491,-0.88916016,-0.4350586,0.17871094,-1.5869141,-0.36621094,3.112793,0.0,0.0,0.0,-66.64307,61.660767,-37.364502
1766497539579,-0.93115234,-0.43945312,0.18945312,-4.333496,-8.483887,6.8359375,0.0,0.0,0.0,-66.64307,61.660767,-37.364502
1766497539590,-0.93115234,-0.43945312,0.18945312,-4.333496,-8.483887,6.8359375,0.0,0.0,0.0,-66.06079,61.92993,-36.51306
1766497539678,-0.8623047,-0.3955078,0.22265625,6.8359375,15.014648,-2.8686523,0.0,0.0,0.0,-66.06079,61.92993,-36.51306
1766497539690,-0.8623047,-0.3955078,0.22265625,6.8359375,15.014648,-2.8686523,0.0,0.0,0.0,-65.40161,62.512207,-35.359497
1766497539778,-0.8774414,-0.46191406,0.16601562,-2.1972656,-4.638672,-1.3427734,0.0,0.0,0.0,-65.40161,62.512207,-35.359497
1766497539790,-0.8774414,-0.46191406,0.16601562,-2.1972656,-4.638672,-1.3427734,0.0,0.0,0.0,-65.74768,62.36389,-35.97473
1766497539878,-0.89941406,-0.41015625,0.18115234,-0.8544922,1.2207031,-2.2583008,0.0,0.0,0.0,-65.74768,62.36389,-35.97473
1766497539890,-0.89941406,-0.41015625,0.18115234,-0.8544922,1.2207031,-2.2583008,0.0,0.0,0.0,-66.42883,62.199097,-36.584473
1766497539978,-0.8466797,-0.4169922,0.2109375,1.0375977,3.8452148,-4.8828125,0.0,0.0,0.0,-66.42883,62.199097,-36.584473
1766497539989,-0.8466797,-0.4169922,0.2109375,1.0375977,3.8452148,-4.8828125,0.0,0.0,0.0,-66.64856,61.957397,-36.24939
1766497540077,-0.87939453,-0.4350586,0.15527344,2.746582,3.6621094,-0.4272461,0.0,0.0,0.0,-66.64856,61.957397,-36.24939
1766497540089,-0.87939453,-0.4350586,0.15527344,2.746582,3.6621094,-0.4272461,0.0,0.0,0.0,-67.15393,62.122192,-37.34253
1766497540177,-0.88671875,-0.43359375,0.17089844,-1.5869141,-1.7089844,1.2207031,0.0,0.0,0.0,-67.15393,62.122192,-37.34253
1766497540189,-0.88671875,-0.43359375,0.17089844,-1.5869141,-1.7089844,1.2207031,0.0,0.0,0.0,-67.59338,62.23755,-37.930298
1766497540277,-0.89746094,-0.41845703,0.17089844,-1.4038086,0.0,0.36621094,0.0,0.0,0.0,-67.59338,62.23755,-37.930298
1766497540289,-0.89746094,-0.41845703,0.17089844,-1.4038086,0.0,0.36621094,0.0,0.0,0.0,-67.697754,62.22107,-37.858887
1766497540377,-0.88134766,-0.42871094,0.16552734,-0.79345703,-0.061035156,0.5493164,0.0,0.0,0.0,-67.697754,62.22107,-37.858887
1766497540389,-0.88134766,-0.42871094,0.16552734,-0.79345703,-0.061035156,0.5493164,0.0,0.0,0.0,-67.79114,62.330933,-37.8479
1766497540476,-0.8623047,-0.48046875,0.19140625,-13.977051,-13.61084,10.681152,0.0,0.0,0.0,-67.79114,62.330933,-37.8479
1766497540488,-0.8623047,-0.48046875,0.19140625,-13.977051,-13.61084,10.681152,0.0,0.0,0.0,-67.247314,62.479248,-35.99121
1766497540576,-0.8955078,-0.42285156,0.16894531,10.192871,8.972168,-3.3569336,0.0,0.0,0.0,-67.247314,62.479248,-35.99121
1766497540587,-0.8955078,-0.42285156,0.16894531,10.192871,8.972168,-3.3569336,0.0,0.0,0.0,-67.664795,62.3584,-37.056885
1766497540676,-0.89453125,-0.4243164,0.17480469,1.6479492,0.24414062,-0.36621094,0.0,0.0,0.0,-67.664795,62.3584,-37.056885
1766497540687,-0.89453125,-0.4243164,0.17480469,1.6479492,0.24414062,-0.36621094,0.0,0.0,0.0,-67.8186,62.314453,-37.6886
1766497540775,-0.87841797,-0.42382812,0.16503906,3.2348633,0.48828125,0.4272461,0.0,0.0,0.0,-67.8186,62.314453,-37.6886
1766497540787,-0.87841797,-0.42382812,0.16503906,3.2348633,0.48828125,0.4272461,0.0,0.0,0.0,-67.71423,62.457275,-37.83142
1766497540875,-0.87939453,-0.44433594,0.15771484,3.2348633,2.4414062,-2.0141602,0.0,0.0,0.0,-67.71423,62.457275,-37.83142
1766497540887,-0.87939453,-0.44433594,0.15771484,3.2348633,2.4414062,-2.0141602,0.0,0.0,0.0,-67.84607,62.402344,-38.50708
1766497540975,-0.8964844,-0.4345703,0.18359375,2.0751953,0.36621094,-1.4038086,0.0,0.0,0.0,-67.84607,62.402344,-38.50708
1766497540986,-0.8964844,-0.4345703,0.18359375,2.0751953,0.36621094,-1.4038086,0.0,0.0,0.0,-68.04932,62.20459,-38.688354
1766497541075,-0.89453125,-0.42382812,0.1665039,0.79345703,1.7089844,-1.3427734,0.0,0.0,0.0,-68.04932,62.20459,-38.688354
1766497541086,-0.89453125,-0.42382812,0.1665039,0.79345703,1.7089844,-1.3427734,0.0,0.0,0.0,-67.95593,62.160645,-38.605957
1766497541174,-0.8803711,-0.42626953,0.16308594,2.9296875,-1.159668,-1.2817383,0.0,0.0,0.0,-67.95593,62.160645,-38.605957
1766497541186,-0.8803711,-0.42626953,0.16308594,2.9296875,-1.159668,-1.2817383,0.0,0.0,0.0,-68.115234,62.08374,-38.875122
1766497541274,-0.8808594,-0.44677734,0.1821289,-0.4272461,1.5869141,0.8544922,0.0,0.0,0.0,-68.115234,62.08374,-38.875122
1766497541286,-0.8808594,-0.44677734,0.1821289,-0.4272461,1.5869141,0.8544922,0.0,0.0,0.0,-68.31299,62.072754,-39.28711
1766497541374,-0.8803711,-0.42333984,0.15966797,-1.2817383,-0.5493164,1.2817383,0.0,0.0,0.0,-68.31299,62.072754,-39.28711
1766497541385,-0.8803711,-0.42333984,0.15966797,-1.2817383,-0.5493164,1.2817383,0.0,0.0,0.0,-68.065796,62.089233,-38.82019
1766497541474,-0.88427734,-0.44140625,0.17089844,2.9296875,0.0,-1.953125,0.0,0.0,0.0,-68.065796,62.089233,-38.82019
1766497541485,-0.88427734,-0.44140625,0.17089844,2.9296875,0.0,-1.953125,0.0,0.0,0.0,-68.082275,62.061768,-38.99048
1766497541573,-0.8847656,-0.4321289,0.16308594,1.5258789,0.36621094,0.0,0.0,0.0,0.0,-68.082275,62.061768,-38.99048
1766497541585,-0.8847656,-0.4321289,0.16308594,1.5258789,0.36621094,0.0,0.0,0.0,0.0,-67.994385,61.96289,-39.072876
1766497541673,-0.8803711,-0.43310547,0.1640625,2.9907227,0.8544922,-1.4648438,0.0,0.0,0.0,-67.994385,61.96289,-39.072876
1766497541685,-0.8803711,-0.43310547,0.1640625,2.9907227,0.8544922,-1.4648438,0.0,0.0,0.0,-67.9834,61.96289,-39.160767
1766497541773,-0.88916016,-0.44970703,0.16259766,0.79345703,-0.12207031,-0.9765625,0.0,0.0,0.0,-67.9834,61.96289,-39.160767
1766497541785,-0.88916016,-0.44970703,0.16259766,0.79345703,-0.12207031,-0.9765625,0.0,0.0,0.0,-67.96692,61.853027,-39.336548
1766497541872,-0.87890625,-0.4321289,0.17333984,0.18310547,-1.4038086,0.4272461,0.0,0.0,0.0,-67.96692,61.853027,-39.336548
1766497541884,-0.87890625,-0.4321289,0.17333984,0.18310547,-1.4038086,0.4272461,0.0,0.0,0.0,-68.065796,61.831055,-39.309082
1766497541972,-0.8779297,-0.43164062,0.17675781,0.0,0.36621094,-0.5493164,0.0,0.0,0.0,-68.065796,61.831055,-39.309082
1766497541985,-0.8779297,-0.43164062,0.17675781,0.0,0.36621094,-0.5493164,0.0,0.0,0.0,-68.00537,61.831055,-39.171753
1766497542072,-0.88671875,-0.4428711,0.16259766,0.6713867,-0.30517578,-0.061035156,0.0,0.0,0.0,-68.00537,61.831055,-39.171753
1766497542084,-0.88671875,-0.4428711,0.16259766,0.6713867,-0.30517578,-0.061035156,0.0,0.0,0.0,-67.89551,61.80359,-39.056396
1766497542172,-0.8833008,-0.43701172,0.17480469,1.4038086,-0.061035156,-0.24414062,0.0,0.0,0.0,-67.89551,61.80359,-39.056396
1766497542183,-0.8833008,-0.43701172,0.17480469,1.4038086,-0.061035156,-0.24414062,0.0,0.0,0.0,-67.82959,61.748657,-39.067383
1766497542271,-0.88134766,-0.43945312,0.17529297,-1.2207031,-1.0375977,0.7324219,0.0,0.0,0.0,-67.82959,61.748657,-39.067383
1766497542284,-0.88134766,-0.43945312,0.17529297,-1.2207031,-1.0375977,0.7324219,0.0,0.0,0.0,-67.8241,61.748657,-39.001465
1766497542371,-0.8769531,-0.43945312,0.16601562,-5.6762695,-5.7373047,4.3945312,0.0,0.0,0.0,-67.8241,61.748657,-39.001465
1766497542383,-0.8769531,-0.43945312,0.16601562,-5.6762695,-5.7373047,4.3945312,0.0,0.0,0.0,-67.46155,61.836548,-38.2489
1766497542471,-0.89746094,-0.41796875,0.1977539,6.164551,2.5634766,-2.380371,0.0,0.0,0.0,-67.46155,61.836548,-38.2489
1766497542483,-0.89746094,-0.41796875,0.1977539,6.164551,2.5634766,-2.380371,0.0,0.0,0.0,-66.95068,61.836548,-37.562256
1766497542571,-0.87841797,-0.43310547,0.19091797,0.7324219,-0.36621094,0.0,0.0,0.0,0.0,-66.95068,61.836548,-37.562256
1766497542583,-0.87841797,-0.43310547,0.19091797,0.7324219,-0.36621094,0.0,0.0,0.0,0.0,-67.099,61.80359,-38.303833
1766497542670,-0.8769531,-0.4345703,0.17626953,-1.8920898,0.8544922,1.5258789,0.0,0.0,0.0,-67.099,61.80359,-38.303833
1766497542683,-0.8769531,-0.4345703,0.17626953,-1.8920898,0.8544922,1.5258789,0.0,0.0,0.0,-66.95618,61.831055,-37.98523
1766497542770,-0.89208984,-0.43066406,0.17089844,-0.12207031,-0.6713867,2.0141602,0.0,0.0,0.0,-66.95618,61.831055,-37.98523
1766497542782,-0.89208984,-0.43066406,0.17089844,-0.12207031,-0.6713867,2.0141602,0.0,0.0,0.0,-66.80786,61.984863,-37.666626
1766497542870,-0.8828125,-0.4345703,0.19482422,2.0141602,2.5634766,-0.6713867,0.0,0.0,0.0,-66.80786,61.984863,-37.666626
1766497542881,-0.8828125,-0.4345703,0.19482422,2.0141602,2.5634766,-0.6713867,0.0,0.0,0.0,-66.83533,62.094727,-37.781982
1766497542970,-0.8886719,-0.42285156,0.16455078,-1.4038086,-0.9765625,0.061035156,0.0,0.0,0.0,-66.83533,62.094727,-37.781982
1766497542981,-0.8886719,-0.42285156,0.16455078,-1.4038086,-0.9765625,0.061035156,0.0,0.0,0.0,-66.73096,62.023315,-37.666626
1766497543069,-0.8886719,-0.4321289,0.17919922,0.8544922,-0.4272461,1.5258789,0.0,0.0,0.0,-66.73096,62.023315,-37.666626
1766497543081,-0.8886719,-0.4321289,0.17919922,0.8544922,-0.4272461,1.5258789,0.0,0.0,0.0,-66.71448,62.08374,-37.617188
1766497543169,-0.88427734,-0.42382812,0.18701172,0.8544922,0.91552734,-1.0986328,0.0,0.0,0.0,-66.71448,62.08374,-37.617188
1766497543181,-0.88427734,-0.42382812,0.18701172,0.8544922,0.91552734,-1.0986328,0.0,0.0,0.0,-66.65405,62.111206,-37.490845
1766497543269,-0.8901367,-0.43164062,0.17333984,0.24414062,-0.79345703,0.0,0.0,0.0,0.0,-66.65405,62.111206,-37.490845
1766497543280,-0.8901367,-0.43164062,0.17333984,0.24414062,-0.79345703,0.0,0.0,0.0,0.0,-66.571655,62.045288,-37.457886
1766497543368,-0.8857422,-0.42773438,0.1875,0.79345703,-0.61035156,0.9765625,0.0,0.0,0.0,-66.571655,62.045288,-37.457886
1766497543380,-0.8857422,-0.42773438,0.1875,0.79345703,-0.61035156,0.9765625,0.0,0.0,0.0,-66.6156,62.06726,-37.53479
1766497543468,-0.88671875,-0.43408203,0.18164062,1.3427734,0.18310547,-0.79345703,0.0,0.0,0.0,-66.6156,62.06726,-37.53479
1766497543480,-0.88671875,-0.43408203,0.18164062,1.3427734,0.18310547,-0.79345703,0.0,0.0,0.0,-66.54419,62.05078,-37.474365
1766497543568,-0.88183594,-0.43115234,0.18554688,-0.7324219,0.24414062,0.5493164,0.0,0.0,0.0,-66.54419,62.05078,-37.474365
1766497543579,-0.88183594,-0.43115234,0.18554688,-0.7324219,0.24414062,0.5493164,0.0,0.0,0.0,-66.59912,62.045288,-37.48535
1766497543668,-0.8857422,-0.42871094,0.18017578,0.48828125,0.6713867,-0.24414062,0.0,0.0,0.0,-66.59912,62.045288,-37.48535
1766497543679,-0.8857422,-0.42871094,0.18017578,0.48828125,0.6713867,-0.24414062,0.0,0.0,0.0,-66.63208,62.061768,-37.50183
1766497543767,-0.88427734,-0.4296875,0.18066406,0.12207031,-0.36621094,0.061035156,0.0,0.0,0.0,-66.63208,62.061768,-37.50183
1766497543779,-0.88427734,-0.4296875,0.18066406,0.12207031,-0.36621094,0.061035156,0.0,0.0,0.0,-66.58264,62.045288,-37.46338
1766497543867,-0.8876953,-0.42773438,0.17871094,-0.12207031,0.24414062,0.36621094,0.0,0.0,0.0,-66.58264,62.045288,-37.46338
1766497543878,-0.8876953,-0.42773438,0.17871094,-0.12207031,0.24414062,0.36621094,0.0,0.0,0.0,-66.56616,62.061768,-37.408447
1766497543967,-0.8847656,-0.42822266,0.18017578,0.91552734,0.5493164,-0.18310547,0.0,0.0,0.0,-66.56616,62.061768,-37.408447
1766497543979,-0.8847656,-0.42822266,0.18017578,0.91552734,0.5493164,-0.18310547,0.0,0.0,0.0,-66.59363,62.06726,-37.4469
1766497544067,-0.8833008,-0.4243164,0.17919922,1.2817383,0.61035156,0.12207031,0.0,0.0,0.0,-66.59363,62.06726,-37.4469
1766497544078,-0.8833008,-0.4243164,0.17919922,1.2817383,0.61035156,0.12207031,0.0,0.0,0.0,-66.54419,62.10022,-37.457886
1766497544166,-0.88671875,-0.43603516,0.17871094,0.0,-0.061035156,0.24414062,0.0,0.0,0.0,-66.54419,62.10022,-37.457886
1766497544178,-0.88671875,-0.43603516,0.17871094,0.0,-0.061035156,0.24414062,0.0,0.0,0.0,-66.571655,62.13867,-37.529297
1766497544266,-0.8881836,-0.42236328,0.171875,-0.7324219,-0.7324219,0.8544922,0.0,0.0,0.0,-66.571655,62.13867,-37.529297
1766497544278,-0.8881836,-0.42236328,0.171875,-0.7324219,-0.7324219,0.8544922,0.0,0.0,0.0,-66.47827,62.17163,-37.243652
1766497544366,-0.8852539,-0.44384766,0.17773438,1.0375977,0.61035156,-0.5493164,0.0,0.0,0.0,-66.47827,62.17163,-37.243652
1766497544377,-0.8852539,-0.44384766,0.17773438,1.0375977,0.61035156,-0.5493164,0.0,0.0,0.0,-66.59363,62.18811,-37.490845
1766497544465,-0.88916016,-0.41552734,0.18115234,0.061035156,0.30517578,0.36621094,0.0,0.0,0.0,-66.59363,62.18811,-37.490845
1766497544477,-0.88916016,-0.41552734,0.18115234,0.061035156,0.30517578,0.36621094,0.0,0.0,0.0,-66.6156,62.199097,-37.419434
1766497544565,-0.88427734,-0.4321289,0.18164062,-1.0375977,0.0,0.36621094,0.0,0.0,0.0,-66.6156,62.199097,-37.419434
1766497544577,-0.88427734,-0.4321289,0.18164062,-1.0375977,0.0,0.36621094,0.0,0.0,0.0,-66.796875,62.23755,-37.617188
1766497544665,-0.8911133,-0.4296875,0.17480469,-0.91552734,-0.6713867,0.91552734,0.0,0.0,0.0,-66.796875,62.23755,-37.617188
1766497544677,-0.8911133,-0.4296875,0.17480469,-0.91552734,-0.6713867,0.91552734,0.0,0.0,0.0,-66.78589,62.29248,-37.452393
1766497544765,-0.8857422,-0.4272461,0.17822266,0.8544922,1.159668,-0.30517578,0.0,0.0,0.0,-66.78589,62.29248,-37.452393
1766497544776,-0.8857422,-0.4272461,0.17822266,0.8544922,1.159668,-0.30517578,0.0,0.0,0.0,-66.91223,62.30896,-37.595215
1766497544864,-0.88916016,-0.42773438,0.17529297,-0.18310547,0.061035156,0.4272461,0.0,0.0,0.0,-66.91223,62.30896,-37.595215
1766497544876,-0.88916016,-0.42773438,0.17529297,-0.18310547,0.061035156,0.4272461,0.0,0.0,0.0,-66.9397,62.3584,-37.595215
1766497544964,-0.8876953,-0.42626953,0.17822266,0.48828125,0.24414062,-0.12207031,0.0,0.0,0.0,-66.9397,62.3584,-37.595215
1766497544976,-0.8876953,-0.42626953,0.17822266,0.48828125,0.24414062,-0.12207031,0.0,0.0,0.0,-66.934204,62.3584,-37.628174
1766497545064,-0.8886719,-0.42773438,0.17333984,-0.30517578,0.61035156,0.12207031,0.0,0.0,0.0,-66.934204,62.3584,-37.628174
1766497545076,-0.8886719,-0.42773438,0.17333984,-0.30517578,0.61035156,0.12207031,0.0,0.0,0.0,-67.02759,62.36389,-37.74353
1766497545164,-0.8857422,-0.4243164,0.17382812,-0.12207031,1.0375977,-0.61035156,0.0,0.0,0.0,-67.02759,62.36389,-37.74353
1766497545175,-0.8857422,-0.4243164,0.17382812,-0.12207031,1.0375977,-0.61035156,0.0,0.0,0.0,-67.18689,62.369385,-37.88086
1766497545263,-0.8847656,-0.42529297,0.16845703,-1.8310547,0.30517578,-0.79345703,0.0,0.0,0.0,-67.18689,62.369385,-37.88086
1766497545275,-0.8847656,-0.42529297,0.16845703,-1.8310547,0.30517578,-0.79345703,0.0,0.0,0.0,-67.318726,62.303467,-37.886353
1766497545363,-0.8930664,-0.43310547,0.16552734,0.61035156,0.18310547,-0.24414062,0.0,0.0,0.0,-67.318726,62.303467,-37.886353
1766497545375,-0.8930664,-0.43310547,0.16552734,0.61035156,0.18310547,-0.24414062,0.0,0.0,0.0,-67.456055,62.286987,-38.007202
1766497545463,-0.8769531,-0.4267578,0.17822266,0.8544922,0.48828125,-0.61035156,0.0,0.0,0.0,-67.456055,62.286987,-38.007202
1766497545474,-0.8769531,-0.4267578,0.17822266,0.8544922,0.48828125,-0.61035156,0.0,0.0,0.0,-67.62085,62.25952,-38.23242
1766497545563,-0.88916016,-0.43066406,0.16748047,0.8544922,1.2817383,-0.8544922,0.0,0.0,0.0,-67.62085,62.25952,-38.23242
1766497545574,-0.88916016,-0.43066406,0.16748047,0.8544922,1.2817383,-0.8544922,0.0,0.0,0.0,-67.65381,62.215576,-38.292847
1766497545662,-0.8852539,-0.4326172,0.16992188,0.0,0.7324219,0.061035156,0.0,0.0,0.0,-67.65381,62.215576,-38.292847
1766497545674,-0.8852539,-0.4326172,0.16992188,0.0,0.7324219,0.061035156,0.0,0.0,0.0,-67.785645,62.210083,-38.463135
1766497545762,-0.88427734,-0.43017578,0.1665039,0.18310547,0.0,-0.30517578,0.0,0.0,0.0,-67.785645,62.210083,-38.463135
1766497545773,-0.88427734,-0.43017578,0.1665039,0.18310547,0.0,-0.30517578,0.0,0.0,0.0,-67.8241,62.177124,-38.479614
1766497545862,-0.8852539,-0.43066406,0.17529297,0.36621094,0.4272461,-0.30517578,0.0,0.0,0.0,-67.8241,62.177124,-38.479614
1766497545873,-0.8852539,-0.43066406,0.17529297,0.36621094,0.4272461,-0.30517578,0.0,0.0,0.0,-67.890015,62.15515,-38.54004
1766497545961,-0.88378906,-0.4296875,0.17626953,0.24414062,0.8544922,-0.061035156,0.0,0.0,0.0,-67.890015,62.15515,-38.54004
1766497545973,-0.88378906,-0.4296875,0.17626953,0.24414062,0.8544922,-0.061035156,0.0,0.0,0.0,-67.977905,62.17163,-38.616943
1766497546061,-0.8886719,-0.43554688,0.17382812,-0.24414062,-0.48828125,0.0,0.0,0.0,0.0,-67.977905,62.17163,-38.616943
1766497546073,-0.8886719,-0.43554688,0.17382812,-0.24414062,-0.48828125,0.0,0.0,0.0,0.0,-67.901,62.14966,-38.534546
1766497546161,-0.87890625,-0.4272461,0.18310547,0.79345703,1.3427734,-0.36621094,0.0,0.0,0.0,-67.901,62.14966,-38.534546
1766497546172,-0.87890625,-0.4272461,0.18310547,0.79345703,1.3427734,-0.36621094,0.0,0.0,0.0,-68.04932,62.14966,-38.66089
1766497546261,-0.8833008,-0.4375,0.16894531,-0.36621094,1.2207031,0.30517578,0.0,0.0,0.0,-68.04932,62.14966,-38.66089
1766497546272,-0.8833008,-0.4375,0.16894531,-0.36621094,1.2207031,0.30517578,0.0,0.0,0.0,-68.082275,62.166138,-38.71582
1766497546361,-0.89697266,-0.43847656,0.16064453,-0.061035156,-1.6479492,-0.36621094,0.0,0.0,0.0,-68.082275,62.166138,-38.71582
1766497546372,-0.89697266,-0.43847656,0.16064453,-0.061035156,-1.6479492,-0.36621094,0.0,0.0,0.0,-68.04932,62.14966,-38.605957
1766497546460,-0.8847656,-0.44921875,0.1694336,5.9814453,0.8544922,-1.2817383,0.0,0.0,0.0,-68.04932,62.14966,-38.605957
1766497546472,-0.8847656,-0.44921875,0.1694336,5.9814453,0.8544922,-1.2817383,0.0,0.0,0.0,-68.115234,62.045288,-39.04541
1766497546560,-0.85253906,-0.41357422,0.203125,6.4086914,2.9907227,3.3569336,0.0,0.0,0.0,-68.115234,62.045288,-39.04541
1766497546572,-0.85253906,-0.41357422,0.203125,6.4086914,2.9907227,3.3569336,0.0,0.0,0.0,-68.09326,62.105713,-39.589233
1766497546660,-0.89746094,-0.43945312,0.17089844,8.056641,3.6621094,1.159668,0.0,0.0,0.0,-68.09326,62.105713,-39.589233
1766497546671,-0.89746094,-0.43945312,0.17089844,8.056641,3.6621094,1.159668,0.0,0.0,0.0,-67.26929,62.402344,-39.396973
1766497546759,-0.8808594,-0.4248047,0.16113281,4.211426,-1.159668,2.6855469,0.0,0.0,0.0,-67.26929,62.402344,-39.396973
1766497546771,-0.8808594,-0.4248047,0.16113281,4.211426,-1.159668,2.6855469,0.0,0.0,0.0,-66.19812,62.644043,-38.68286
1766497546859,-0.8911133,-0.42089844,0.18847656,2.8076172,0.4272461,-1.159668,0.0,0.0,0.0,-66.19812,62.644043,-38.68286
1766497546871,-0.8911133,-0.42089844,0.18847656,2.8076172,0.4272461,-1.159668,0.0,0.0,0.0,-66.3739,62.70996,-39.072876
1766497546959,-0.8901367,-0.4296875,0.1743164,-0.12207031,0.18310547,-2.0751953,0.0,0.0,0.0,-66.3739,62.70996,-39.072876
1766497546971,-0.8901367,-0.4296875,0.1743164,-0.12207031,0.18310547,-2.0751953,0.0,0.0,0.0,-66.48926,62.53418,-39.23767
1766497547058,-0.8935547,-0.42089844,0.18310547,-0.4272461,-0.30517578,-0.36621094,0.0,0.0,0.0,-66.48926,62.53418,-39.23767
