timestamp,accX,accY,accZ,gyroX,gyroY,gyroZ,magX,magY,magZ,roll,pitch,yaw
1768998910726,-0.9765625,0.07861328,0.19238281,-7.5683594,5.3100586,3.112793,0.0,0.0,0.0,18.720703,78.43689,42.385254
1768998910738,-0.9765625,0.07861328,0.19238281,-7.5683594,5.3100586,3.112793,0.0,0.0,0.0,19.995117,78.8324,44.972534
1768998910826,-1.0024414,0.080566406,0.18164062,-9.155273,3.4179688,3.7231445,0.0,0.0,0.0,19.995117,78.8324,44.972534
1768998910838,-1.0024414,0.080566406,0.18164062,-9.155273,3.4179688,3.7231445,0.0,0.0,0.0,21.577148,78.96973,47.58728
1768998910930,-0.9824219,0.13427734,0.15527344,3.6010742,5.6762695,2.1972656,0.0,0.0,0.0,21.577148,78.96973,47.58728
1768998910939,-0.9824219,0.13427734,0.15527344,3.6010742,5.6762695,2.1972656,0.0,0.0,0.0,24.625854,79.29932,51.17981
1768998911026,-0.96484375,0.083496094,0.1430664,0.061035156,4.3945312,-3.112793,0.0,0.0,0.0,24.625854,79.29932,51.17981
1768998911041,-0.96484375,0.083496094,0.1430664,0.061035156,4.3945312,-3.112793,0.0,0.0,0.0,26.471558,79.6344,52.77832
1768998911126,-0.99658203,0.083496094,0.12988281,-1.8310547,6.8969727,-0.61035156,0.0,0.0,0.0,26.471558,79.6344,52.77832
1768998911138,-0.99658203,0.083496094,0.12988281,-1.8310547,6.8969727,-0.61035156,0.0,0.0,0.0,27.15271,80.28259,53.635254
1768998911225,-0.9711914,0.07519531,0.16064453,1.4038086,1.159668,-1.0375977,0.0,0.0,0.0,27.15271,80.28259,53.635254
1768998911236,-0.9711914,0.07519531,0.16064453,1.4038086,1.159668,-1.0375977,0.0,0.0,0.0,28.02063,80.68909,54.574585
1768998911325,-0.98046875,0.079589844,0.13330078,3.6621094,-0.61035156,-0.36621094,0.0,0.0,0.0,28.02063,80.68909,54.574585
1768998911336,-0.98046875,0.079589844,0.13330078,3.6621094,-0.61035156,-0.36621094,0.0,0.0,0.0,27.965698,80.65613,54.508667
1768998911424,-1.0029297,0.087890625,0.13720703,-1.3427734,-0.18310547,0.9765625,0.0,0.0,0.0,27.965698,80.65613,54.508667
1768998911436,-1.0029297,0.087890625,0.13720703,-1.3427734,-0.18310547,0.9765625,0.0,0.0,0.0,27.8833,80.529785,54.431763
1768998911524,-0.99365234,0.08886719,0.13232422,-2.1972656,3.112793,1.0375977,0.0,0.0,0.0,27.8833,80.529785,54.431763
1768998911536,-0.99365234,0.08886719,0.13232422,-2.1972656,3.112793,1.0375977,0.0,0.0,0.0,28.921509,80.60669,55.810547
1768998911624,-0.9770508,0.08251953,0.13671875,0.5493164,1.4648438,-0.6713867,0.0,0.0,0.0,28.921509,80.60669,55.810547
1768998911636,-0.9770508,0.08251953,0.13671875,0.5493164,1.4648438,-0.6713867,0.0,0.0,0.0,29.899292,80.71655,56.920166
1768998911723,-0.99121094,0.08496094,0.12207031,-1.7700195,1.0986328,-0.061035156,0.0,0.0,0.0,29.899292,80.71655,56.920166
1768998911735,-0.99121094,0.08496094,0.12207031,-1.7700195,1.0986328,-0.061035156,0.0,0.0,0.0,30.097046,80.70557,57.387085
1768998911823,-0.97558594,0.099609375,0.13964844,2.380371,-1.3427734,-0.7324219,0.0,0.0,0.0,30.097046,80.70557,57.387085
1768998911835,-0.97558594,0.099609375,0.13964844,2.380371,-1.3427734,-0.7324219,0.0,0.0,0.0,30.377197,80.73303,57.738647
1768998911923,-0.98779297,0.095703125,0.15039062,-1.6479492,-1.0375977,0.7324219,0.0,0.0,0.0,30.377197,80.73303,57.738647
1768998911934,-0.98779297,0.095703125,0.15039062,-1.6479492,-1.0375977,0.7324219,0.0,0.0,0.0,30.108032,80.50781,57.529907
1768998912023,-1.0004883,0.09423828,0.14111328,1.6479492,1.953125,-3.112793,0.0,0.0,0.0,30.108032,80.50781,57.529907
1768998912034,-1.0004883,0.09423828,0.14111328,1.6479492,1.953125,-3.112793,0.0,0.0,0.0,29.976196,80.92529,57.27722
1768998912122,-1.0161133,0.084472656,0.122558594,-9.643555,3.479004,0.7324219,0.0,0.0,0.0,29.976196,80.92529,57.27722
1768998912134,-1.0161133,0.084472656,0.122558594,-9.643555,3.479004,0.7324219,0.0,0.0,0.0,29.404907,80.90332,57.2937
1768998912222,-0.9995117,0.088378906,0.13476562,-9.399414,-0.061035156,0.6713867,0.0,0.0,0.0,29.404907,80.90332,57.2937
1768998912233,-0.9995117,0.088378906,0.13476562,-9.399414,-0.061035156,0.6713867,0.0,0.0,0.0,29.251099,81.068115,57.749634
1768998912322,-0.9682617,0.09375,0.13623047,-2.6855469,-1.3427734,1.2207031,0.0,0.0,0.0,29.251099,81.068115,57.749634
1768998912333,-0.9682617,0.09375,0.13623047,-2.6855469,-1.3427734,1.2207031,0.0,0.0,0.0,29.63562,81.06262,58.45276
1768998912421,-0.99853516,0.10058594,0.12890625,0.79345703,0.24414062,-0.79345703,0.0,0.0,0.0,29.63562,81.06262,58.45276
1768998912433,-0.99853516,0.10058594,0.12890625,0.79345703,0.24414062,-0.79345703,0.0,0.0,0.0,30.146484,81.01868,58.97461
1768998912521,-0.9838867,0.09375,0.12451172,0.79345703,-0.4272461,-0.9765625,0.0,0.0,0.0,30.146484,81.01868,58.97461
1768998912533,-0.9838867,0.09375,0.12451172,0.79345703,-0.4272461,-0.9765625,0.0,0.0,0.0,29.954224,80.996704,58.61206
1768998912621,-0.9916992,0.072753906,0.12792969,0.8544922,-0.4272461,0.30517578,0.0,0.0,0.0,29.954224,80.996704,58.61206
1768998912632,-0.9916992,0.072753906,0.12792969,0.8544922,-0.4272461,0.30517578,0.0,0.0,0.0,30.360718,81.04614,58.650513
1768998912720,-0.98046875,0.08496094,0.14453125,-0.061035156,-2.319336,-0.061035156,0.0,0.0,0.0,30.360718,81.04614,58.650513
1768998912732,-0.98046875,0.08496094,0.14453125,-0.061035156,-2.319336,-0.061035156,0.0,0.0,0.0,30.119019,80.875854,58.37036
1768998912820,-0.96484375,0.096191406,0.15966797,2.1972656,-4.3945312,0.7324219,0.0,0.0,0.0,30.119019,80.875854,58.37036
1768998912832,-0.96484375,0.096191406,0.15966797,2.1972656,-4.3945312,0.7324219,0.0,0.0,0.0,29.569702,80.5957,57.71118
1768998912920,-1.0244141,0.08251953,0.11669922,0.0,-1.0375977,-0.30517578,0.0,0.0,0.0,29.569702,80.5957,57.71118
1768998912931,-1.0244141,0.08251953,0.11669922,0.0,-1.0375977,-0.30517578,0.0,0.0,0.0,29.102783,80.321045,57.06848
1768998913020,-0.97998047,0.09423828,0.1328125,0.4272461,0.8544922,-0.79345703,0.0,0.0,0.0,29.102783,80.321045,57.06848
1768998913032,-0.97998047,0.09423828,0.1328125,0.4272461,0.8544922,-0.79345703,0.0,0.0,0.0,29.63562,80.49133,57.513428
1768998913120,-0.97802734,0.08935547,0.13867188,0.24414062,1.6479492,-0.5493164,0.0,0.0,0.0,29.63562,80.49133,57.513428
1768998913131,-0.97802734,0.08935547,0.13867188,0.24414062,1.6479492,-0.5493164,0.0,0.0,0.0,29.871826,80.55176,57.738647
1768998913219,-0.9946289,0.09033203,0.13574219,-3.7231445,1.5258789,1.6479492,0.0,0.0,0.0,29.871826,80.55176,57.738647
1768998913230,-0.9946289,0.09033203,0.13574219,-3.7231445,1.5258789,1.6479492,0.0,0.0,0.0,30.119019,80.55725,58.10669
1768998913319,-0.9951172,0.096191406,0.13232422,1.159668,2.0141602,-0.18310547,0.0,0.0,0.0,30.119019,80.55725,58.10669
1768998913330,-0.9951172,0.096191406,0.13232422,1.159668,2.0141602,-0.18310547,0.0,0.0,0.0,31.04187,80.787964,59.07898
1768998913419,-0.97021484,0.10986328,0.14013672,2.6245117,-2.1362305,0.24414062,0.0,0.0,0.0,31.04187,80.787964,59.07898
1768998913430,-0.97021484,0.10986328,0.14013672,2.6245117,-2.1362305,0.24414062,0.0,0.0,0.0,31.816406,80.80444,59.749146
1768998913518,-0.99609375,0.08203125,0.11621094,1.7089844,-0.30517578,-1.953125,0.0,0.0,0.0,31.816406,80.80444,59.749146
1768998913530,-0.99609375,0.08203125,0.11621094,1.7089844,-0.30517578,-1.953125,0.0,0.0,0.0,31.602173,80.74402,59.210815
1768998913618,-0.9951172,0.09814453,0.13085938,-4.5166016,0.48828125,0.30517578,0.0,0.0,0.0,31.602173,80.74402,59.210815
1768998913630,-0.9951172,0.09814453,0.13085938,-4.5166016,0.48828125,0.30517578,0.0,0.0,0.0,31.096802,80.7605,58.831787
1768998913718,-0.98828125,0.096191406,0.11376953,5.2490234,2.1362305,-1.8920898,0.0,0.0,0.0,31.096802,80.7605,58.831787
1768998913729,-0.98828125,0.096191406,0.11376953,5.2490234,2.1362305,-1.8920898,0.0,0.0,0.0,31.959229,81.00769,59.49646
1768998913817,-0.98828125,0.07128906,0.12792969,2.8076172,0.91552734,0.6713867,0.0,0.0,0.0,31.959229,81.00769,59.49646
1768998913829,-0.98828125,0.07128906,0.12792969,2.8076172,0.91552734,0.6713867,0.0,0.0,0.0,32.980957,81.07361,60.177612
1768998913917,-0.9814453,0.106933594,0.107421875,-2.0141602,-1.159668,0.9765625,0.0,0.0,0.0,32.980957,81.07361,60.177612
1768998913929,-0.9814453,0.106933594,0.107421875,-2.0141602,-1.159668,0.9765625,0.0,0.0,0.0,33.294067,80.95825,60.776367
1768998914017,-0.99365234,0.114746094,0.13867188,0.30517578,-3.4179688,-0.61035156,0.0,0.0,0.0,33.294067,80.95825,60.776367
1768998914029,-0.99365234,0.114746094,0.13867188,0.30517578,-3.4179688,-0.61035156,0.0,0.0,0.0,32.41516,80.667114,59.957886
1768998914117,-1.0087891,0.079589844,0.1303711,-2.746582,-1.7700195,-1.159668,0.0,0.0,0.0,32.41516,80.667114,59.957886
1768998914128,-1.0087891,0.079589844,0.1303711,-2.746582,-1.7700195,-1.159668,0.0,0.0,0.0,31.360474,80.408936,58.83728
1768998914216,-0.99316406,0.07519531,0.13671875,-2.0751953,5.3100586,2.2583008,0.0,0.0,0.0,31.360474,80.408936,58.83728
1768998914228,-0.99316406,0.07519531,0.13671875,-2.0751953,5.3100586,2.2583008,0.0,0.0,0.0,32.799683,80.55176,60.60608
1768998914316,-0.9663086,0.10644531,0.1381836,1.159668,-0.61035156,0.4272461,0.0,0.0,0.0,32.799683,80.55176,60.60608
1768998914328,-0.9663086,0.10644531,0.1381836,1.159668,-0.61035156,0.4272461,0.0,0.0,0.0,34.23889,80.74951,62.25403
1768998914416,-0.99316406,0.10839844,0.114746094,-0.24414062,2.9296875,0.30517578,0.0,0.0,0.0,34.23889,80.74951,62.25403
1768998914427,-0.99316406,0.10839844,0.114746094,-0.24414062,2.9296875,0.30517578,0.0,0.0,0.0,35.112305,80.755005,63.20984
1768998914515,-0.98779297,0.12109375,0.11230469,-4.9438477,0.4272461,-0.4272461,0.0,0.0,0.0,35.112305,80.755005,63.20984
1768998914527,-0.98779297,0.12109375,0.11230469,-4.9438477,0.4272461,-0.4272461,0.0,0.0,0.0,35.628662,80.88684,63.880005
1768998914615,-0.9926758,0.09863281,0.119140625,6.0424805,2.380371,-2.8076172,0.0,0.0,0.0,35.628662,80.88684,63.880005
1768998914627,-0.9926758,0.09863281,0.119140625,6.0424805,2.380371,-2.8076172,0.0,0.0,0.0,36.524048,81.14502,64.53369
1768998914715,-0.9760742,0.088378906,0.1381836,6.8969727,0.91552734,-2.9296875,0.0,0.0,0.0,36.524048,81.14502,64.53369
1768998914727,-0.9760742,0.088378906,0.1381836,6.8969727,0.91552734,-2.9296875,0.0,0.0,0.0,36.968994,81.381226,64.54468
1768998914816,-1.0024414,0.092285156,0.10205078,-1.159668,2.8076172,-0.4272461,0.0,0.0,0.0,36.968994,81.381226,64.54468
1768998914827,-1.0024414,0.092285156,0.10205078,-1.159668,2.8076172,-0.4272461,0.0,0.0,0.0,36.238403,81.46362,63.858032
1768998914917,-0.984375,0.091796875,0.12109375,-1.159668,2.6855469,-1.0986328,0.0,0.0,0.0,36.238403,81.46362,63.858032
1768998914926,-0.984375,0.091796875,0.12109375,-1.159668,2.6855469,-1.0986328,0.0,0.0,0.0,37.17224,81.79321,64.96765
1768998915018,-0.9941406,0.09423828,0.10205078,-1.7700195,1.0375977,-0.6713867,0.0,0.0,0.0,37.17224,81.79321,64.96765
1768998915027,-0.9941406,0.09423828,0.10205078,-1.7700195,1.0375977,-0.6713867,0.0,0.0,0.0,37.79297,81.8811,65.93445
1768998915118,-0.99658203,0.099609375,0.10644531,-0.18310547,1.2207031,-1.159668,0.0,0.0,0.0,37.79297,81.8811,65.93445
1768998915126,-0.99658203,0.099609375,0.10644531,-0.18310547,1.2207031,-1.159668,0.0,0.0,0.0,38.067627,82.07886,66.329956
1768998915213,-0.9868164,0.092285156,0.10498047,1.0375977,1.4038086,-1.2817383,0.0,0.0,0.0,38.067627,82.07886,66.329956
1768998915225,-0.9868164,0.092285156,0.10498047,1.0375977,1.4038086,-1.2817383,0.0,0.0,0.0,38.35327,82.21069,66.76941
1768998915313,-0.9897461,0.088378906,0.09716797,0.61035156,1.2207031,-0.9765625,0.0,0.0,0.0,38.35327,82.21069,66.76941
1768998915326,-0.9897461,0.088378906,0.09716797,0.61035156,1.2207031,-0.9765625,0.0,0.0,0.0,38.408203,82.298584,67.01111
1768998915413,-0.9897461,0.087890625,0.10253906,-0.24414062,0.36621094,-0.18310547,0.0,0.0,0.0,38.408203,82.298584,67.01111
1768998915424,-0.9897461,0.087890625,0.10253906,-0.24414062,0.36621094,-0.18310547,0.0,0.0,0.0,38.66089,82.38098,67.35718
1768998915513,-0.9897461,0.09082031,0.09667969,-0.7324219,0.12207031,-0.061035156,0.0,0.0,0.0,38.66089,82.38098,67.35718
1768998915524,-0.9897461,0.09082031,0.09667969,-0.7324219,0.12207031,-0.061035156,0.0,0.0,0.0,38.754272,82.39746,67.58789
1768998915612,-0.98828125,0.09326172,0.095703125,0.18310547,-0.61035156,-0.061035156,0.0,0.0,0.0,38.754272,82.39746,67.58789
1768998915624,-0.98828125,0.09326172,0.095703125,0.18310547,-0.61035156,-0.061035156,0.0,0.0,0.0,38.798218,82.34802,67.76367
1768998915712,-0.9941406,0.087890625,0.09863281,0.9765625,-0.30517578,-0.48828125,0.0,0.0,0.0,38.798218,82.34802,67.76367
1768998915723,-0.9941406,0.087890625,0.09863281,0.9765625,-0.30517578,-0.48828125,0.0,0.0,0.0,38.770752,82.31506,67.74719
1768998915812,-0.99658203,0.08935547,0.09472656,0.18310547,0.30517578,-0.4272461,0.0,0.0,0.0,38.770752,82.31506,67.74719
1768998915823,-0.99658203,0.08935547,0.09472656,0.18310547,0.30517578,-0.4272461,0.0,0.0,0.0,38.974,82.35901,68.065796
1768998915911,-0.9921875,0.08984375,0.09716797,-0.12207031,-0.18310547,-0.061035156,0.0,0.0,0.0,38.974,82.35901,68.065796
1768998915923,-0.9921875,0.08984375,0.09716797,-0.12207031,-0.18310547,-0.061035156,0.0,0.0,0.0,39.09485,82.38098,68.23059
1768998916011,-0.99072266,0.091308594,0.095703125,0.7324219,0.24414062,-0.61035156,0.0,0.0,0.0,39.09485,82.38098,68.23059
1768998916022,-0.99072266,0.091308594,0.095703125,0.7324219,0.24414062,-0.61035156,0.0,0.0,0.0,39.16626,82.39197,68.34595
1768998916111,-0.99560547,0.087402344,0.09082031,0.30517578,0.6713867,-0.36621094,0.0,0.0,0.0,39.16626,82.39197,68.34595
1768998916123,-0.99560547,0.087402344,0.09082031,0.30517578,0.6713867,-0.36621094,0.0,0.0,0.0,39.51233,82.4469,68.71948
1768998916211,-0.9941406,0.088378906,0.088378906,-0.30517578,0.061035156,-0.24414062,0.0,0.0,0.0,39.51233,82.4469,68.71948
1768998916222,-0.9941406,0.088378906,0.088378906,-0.30517578,0.061035156,-0.24414062,0.0,0.0,0.0,39.73755,82.48535,69.04907
1768998916310,-0.9897461,0.087890625,0.09277344,0.7324219,0.061035156,-0.36621094,0.0,0.0,0.0,39.73755,82.48535,69.04907
1768998916323,-0.9897461,0.087890625,0.09277344,0.7324219,0.061035156,-0.36621094,0.0,0.0,0.0,39.852905,82.51282,69.191895
1768998916410,-0.99316406,0.088378906,0.095703125,0.061035156,-0.91552734,-0.30517578,0.0,0.0,0.0,39.852905,82.51282,69.191895
1768998916421,-0.99316406,0.088378906,0.095703125,0.061035156,-0.91552734,-0.30517578,0.0,0.0,0.0,39.682617,82.47986,69.054565
1768998916510,-0.9975586,0.092285156,0.09277344,-0.24414062,-0.4272461,-0.18310547,0.0,0.0,0.0,39.682617,82.47986,69.054565
1768998916521,-0.9975586,0.092285156,0.09277344,-0.24414062,-0.4272461,-0.18310547,0.0,0.0,0.0,39.75952,82.474365,69.18091
1768998916609,-0.9921875,0.08935547,0.096191406,-0.12207031,-0.12207031,-0.36621094,0.0,0.0,0.0,39.75952,82.474365,69.18091
1768998916621,-0.9921875,0.08935547,0.096191406,-0.12207031,-0.12207031,-0.36621094,0.0,0.0,0.0,39.67163,82.45239,69.15344
1768998916709,-0.9951172,0.09082031,0.09326172,0.48828125,-0.24414062,-0.6713867,0.0,0.0,0.0,39.67163,82.45239,69.15344
1768998916721,-0.9951172,0.09082031,0.09326172,0.48828125,-0.24414062,-0.6713867,0.0,0.0,0.0,39.545288,82.4469,69.04907
1768998916809,-0.99560547,0.087402344,0.08984375,0.36621094,0.5493164,-0.48828125,0.0,0.0,0.0,39.545288,82.4469,69.04907
1768998916820,-0.99560547,0.087402344,0.08984375,0.36621094,0.5493164,-0.48828125,0.0,0.0,0.0,39.715576,82.50183,69.22485
1768998916909,-0.99560547,0.091308594,0.09033203,0.0,0.4272461,-0.4272461,0.0,0.0,0.0,39.715576,82.50183,69.22485
1768998916920,-0.99560547,0.091308594,0.09033203,0.0,0.4272461,-0.4272461,0.0,0.0,0.0,39.748535,82.51282,69.279785
1768998917008,-0.9902344,0.08935547,0.09472656,-0.30517578,-0.24414062,-0.18310547,0.0,0.0,0.0,39.748535,82.51282,69.279785
1768998917020,-0.9902344,0.08935547,0.09472656,-0.30517578,-0.24414062,-0.18310547,0.0,0.0,0.0,39.902344,82.5238,69.4281
1768998917108,-0.9946289,0.09033203,0.09716797,0.24414062,-0.9765625,-0.24414062,0.0,0.0,0.0,39.902344,82.5238,69.4281
1768998917120,-0.9946289,0.09033203,0.09716797,0.24414062,-0.9765625,-0.24414062,0.0,0.0,0.0,39.644165,82.48535,69.16992
1768998917209,-0.99560547,0.08886719,0.09277344,0.18310547,-0.48828125,-0.12207031,0.0,0.0,0.0,39.644165,82.48535,69.16992
1768998917219,-0.99560547,0.08886719,0.09277344,0.18310547,-0.48828125,-0.12207031,0.0,0.0,0.0,39.627686,82.45239,69.12048
1768998917307,-0.9921875,0.08984375,0.09472656,0.061035156,-0.30517578,-0.36621094,0.0,0.0,0.0,39.627686,82.45239,69.12048
1768998917319,-0.9921875,0.08984375,0.09472656,0.061035156,-0.30517578,-0.36621094,0.0,0.0,0.0,39.622192,82.45239,69.13696
1768998917408,-0.99902344,0.09277344,0.095703125,0.6713867,0.24414062,-0.61035156,0.0,0.0,0.0,39.622192,82.45239,69.13696
1768998917419,-0.99902344,0.09277344,0.095703125,0.6713867,0.24414062,-0.61035156,0.0,0.0,0.0,39.699097,82.474365,69.20288
1768998917508,-0.99609375,0.08642578,0.08251953,-0.5493164,1.3427734,-0.48828125,0.0,0.0,0.0,39.699097,82.474365,69.20288
1768998917519,-0.99609375,0.08642578,0.08251953,-0.5493164,1.3427734,-0.48828125,0.0,0.0,0.0,39.935303,82.56775,69.41162
1768998917607,-0.99658203,0.08886719,0.08935547,-0.7324219,0.61035156,-0.6713867,0.0,0.0,0.0,39.935303,82.56775,69.41162
1768998917619,-0.99658203,0.08886719,0.08935547,-0.7324219,0.61035156,-0.6713867,0.0,0.0,0.0,40.10559,82.65015,69.59839
1768998917706,-0.99316406,0.08544922,0.087890625,-1.4038086,0.7324219,-0.36621094,0.0,0.0,0.0,40.10559,82.65015,69.59839
1768998917718,-0.99316406,0.08544922,0.087890625,-1.4038086,0.7324219,-0.36621094,0.0,0.0,0.0,40.286865,82.72705,69.8291
1768998917806,-0.9921875,0.08691406,0.092285156,-0.7324219,0.0,-0.5493164,0.0,0.0,0.0,40.286865,82.72705,69.8291
1768998917817,-0.9921875,0.08691406,0.092285156,-0.7324219,0.0,-0.5493164,0.0,0.0,0.0,40.144043,82.7655,69.77417
1768998917906,-0.9951172,0.08935547,0.0859375,-0.7324219,0.61035156,-0.61035156,0.0,0.0,0.0,40.144043,82.7655,69.77417
1768998917920,-0.9951172,0.08935547,0.0859375,-0.7324219,0.61035156,-0.61035156,0.0,0.0,0.0,40.198975,82.803955,69.955444
1768998918005,-0.9921875,0.087890625,0.09326172,-1.2207031,0.12207031,-0.36621094,0.0,0.0,0.0,40.198975,82.803955,69.955444
1768998918017,-0.9921875,0.087890625,0.09326172,-1.2207031,0.12207031,-0.36621094,0.0,0.0,0.0,40.20996,82.836914,70.03235
1768998918105,-0.99121094,0.088378906,0.09082031,-0.7324219,0.36621094,-0.5493164,0.0,0.0,0.0,40.20996,82.836914,70.03235
1768998918117,-0.99121094,0.088378906,0.09082031,-0.7324219,0.36621094,-0.5493164,0.0,0.0,0.0,40.231934,82.87537,70.147705
1768998918205,-0.99072266,0.087402344,0.092285156,1.953125,0.6713867,-1.0375977,0.0,0.0,0.0,40.231934,82.87537,70.147705
1768998918216,-0.99072266,0.087402344,0.092285156,1.953125,0.6713867,-1.0375977,0.0,0.0,0.0,40.336304,82.924805,70.30151
1768998918304,-0.9980469,0.0859375,0.084472656,-0.12207031,0.24414062,-0.4272461,0.0,0.0,0.0,40.336304,82.924805,70.30151
1768998918316,-0.9980469,0.0859375,0.084472656,-0.12207031,0.24414062,-0.4272461,0.0,0.0,0.0,40.2594,82.96326,70.24109
1768998918404,-0.98876953,0.08496094,0.09375,0.18310547,-0.30517578,-0.061035156,0.0,0.0,0.0,40.2594,82.96326,70.24109
1768998918416,-0.98876953,0.08496094,0.09375,0.18310547,-0.30517578,-0.061035156,0.0,0.0,0.0,40.27588,82.94678,70.26306
1768998918504,-0.99316406,0.087402344,0.08544922,1.0375977,-0.5493164,-0.36621094,0.0,0.0,0.0,40.27588,82.94678,70.26306
1768998918516,-0.99316406,0.087402344,0.08544922,1.0375977,-0.5493164,-0.36621094,0.0,0.0,0.0,40.286865,82.90283,70.26306
1768998918604,-0.99853516,0.088378906,0.083496094,1.6479492,0.0,-0.12207031,0.0,0.0,0.0,40.286865,82.90283,70.26306
1768998918615,-0.99853516,0.088378906,0.083496094,1.6479492,0.0,-0.12207031,0.0,0.0,0.0,40.31433,82.8479,70.20813
1768998918703,-0.99316406,0.08691406,0.08642578,0.24414062,0.0,0.24414062,0.0,0.0,0.0,40.31433,82.8479,70.20813
1768998918715,-0.99316406,0.08691406,0.08642578,0.24414062,0.0,0.24414062,0.0,0.0,0.0,40.715332,82.86438,70.44983
1768998918803,-0.99365234,0.0859375,0.08886719,1.6479492,-0.48828125,-0.48828125,0.0,0.0,0.0,40.715332,82.86438,70.44983
1768998918815,-0.99365234,0.0859375,0.08886719,1.6479492,-0.48828125,-0.48828125,0.0,0.0,0.0,41.00647,82.86438,70.65857
1768998918903,-1.0,0.08642578,0.088378906,-1.2817383,-2.380371,1.7089844,0.0,0.0,0.0,41.00647,82.86438,70.65857
1768998918914,-1.0,0.08642578,0.088378906,-1.2817383,-2.380371,1.7089844,0.0,0.0,0.0,41.04492,82.716064,70.69153
1768998919003,-1.0009766,0.111328125,0.09667969,1.953125,-3.2348633,0.36621094,0.0,0.0,0.0,41.04492,82.716064,70.69153
1768998919014,-1.0009766,0.111328125,0.09667969,1.953125,-3.2348633,0.36621094,0.0,0.0,0.0,40.18799,82.44141,69.818115
1768998919102,-0.9902344,0.087890625,0.107910156,2.1972656,-0.18310547,-0.5493164,0.0,0.0,0.0,40.18799,82.44141,69.818115
1768998919114,-0.9902344,0.087890625,0.107910156,2.1972656,-0.18310547,-0.5493164,0.0,0.0,0.0,39.995728,82.23816,69.400635
1768998919202,-1.0048828,0.072265625,0.07910156,-2.1972656,3.0517578,-0.79345703,0.0,0.0,0.0,39.995728,82.23816,69.400635
1768998919213,-1.0048828,0.072265625,0.07910156,-2.1972656,3.0517578,-0.79345703,0.0,0.0,0.0,40.984497,82.40845,70.339966
1768998919302,-0.9873047,0.091796875,0.095703125,-2.380371,0.9765625,1.5258789,0.0,0.0,0.0,40.984497,82.40845,70.339966
1768998919313,-0.9873047,0.091796875,0.095703125,-2.380371,0.9765625,1.5258789,0.0,0.0,0.0,41.77002,82.51831,71.2793
1768998919401,-0.9863281,0.10595703,0.09423828,0.7324219,-0.61035156,-0.8544922,0.0,0.0,0.0,41.77002,82.51831,71.2793
1768998919413,-0.9863281,0.10595703,0.09423828,0.7324219,-0.61035156,-0.8544922,0.0,0.0,0.0,42.214966,82.51831,71.87805
1768998919501,-1.0068359,0.1015625,0.07519531,-2.0141602,1.0986328,-0.30517578,0.0,0.0,0.0,42.214966,82.51831,71.87805
1768998919513,-1.0068359,0.1015625,0.07519531,-2.0141602,1.0986328,-0.30517578,0.0,0.0,0.0,41.759033,82.50183,71.49902
1768998919601,-0.99316406,0.08984375,0.084472656,-1.6479492,1.0986328,-0.30517578,0.0,0.0,0.0,41.759033,82.50183,71.49902
1768998919613,-0.99316406,0.08984375,0.084472656,-1.6479492,1.0986328,-0.30517578,0.0,0.0,0.0,42.511597,82.62268,72.41089
1768998919700,-0.9838867,0.08544922,0.09375,-0.6713867,-0.061035156,-0.12207031,0.0,0.0,0.0,42.511597,82.62268,72.41089
1768998919712,-0.9838867,0.08544922,0.09375,-0.6713867,-0.061035156,-0.12207031,0.0,0.0,0.0,42.50061,82.60071,72.5647
1768998919800,-0.9848633,0.09765625,0.119628906,-2.319336,-5.859375,0.91552734,0.0,0.0,0.0,42.50061,82.60071,72.5647
1768998919812,-0.9848633,0.09765625,0.119628906,-2.319336,-5.859375,0.91552734,0.0,0.0,0.0,41.37451,82.3645,71.658325
1768998919900,-0.9902344,0.10107422,0.11279297,-1.5869141,-2.9296875,0.9765625,0.0,0.0,0.0,41.37451,82.3645,71.658325
1768998919911,-0.9902344,0.10107422,0.11279297,-1.5869141,-2.9296875,0.9765625,0.0,0.0,0.0,39.468384,81.87561,70.0708
1768998920000,-1.0126953,0.09863281,0.10498047,0.79345703,-2.9296875,0.36621094,0.0,0.0,0.0,39.468384,81.87561,70.0708
1768998920011,-1.0126953,0.09863281,0.10498047,0.79345703,-2.9296875,0.36621094,0.0,0.0,0.0,38.94104,81.622925,69.32373
1768998920099,-0.98291016,0.10058594,0.119628906,2.380371,-1.159668,-1.0986328,0.0,0.0,0.0,38.94104,81.622925,69.32373
1768998920111,-0.98291016,0.10058594,0.119628906,2.380371,-1.159668,-1.0986328,0.0,0.0,0.0,38.55652,81.62842,68.68103
1768998920199,-0.9926758,0.09716797,0.111816406,2.4414062,1.8310547,-1.0375977,0.0,0.0,0.0,38.55652,81.62842,68.68103
1768998920210,-0.9926758,0.09716797,0.111816406,2.4414062,1.8310547,-1.0375977,0.0,0.0,0.0,38.831177,81.65039,68.75244
1768998920299,-0.99609375,0.09423828,0.09765625,0.30517578,3.90625,-0.79345703,0.0,0.0,0.0,38.831177,81.65039,68.75244
1768998920310,-0.99609375,0.09423828,0.09765625,0.30517578,3.90625,-0.79345703,0.0,0.0,0.0,40.22644,82.01294,69.93347
1768998920398,-0.98876953,0.095214844,0.095214844,0.36621094,1.7700195,-0.79345703,0.0,0.0,0.0,40.22644,82.01294,69.93347
1768998920410,-0.98876953,0.095214844,0.095214844,0.36621094,1.7700195,-0.79345703,0.0,0.0,0.0,41.187744,82.23816,70.823364
1768998920498,-0.99902344,0.09863281,0.09326172,-1.0986328,1.5258789,-0.6713867,0.0,0.0,0.0,41.187744,82.23816,70.823364
1768998920510,-0.99902344,0.09863281,0.09326172,-1.0986328,1.5258789,-0.6713867,0.0,0.0,0.0,41.75354,82.38098,71.50452
1768998920598,-0.9921875,0.095214844,0.08984375,-0.48828125,0.5493164,-0.24414062,0.0,0.0,0.0,41.75354,82.38098,71.50452
1768998920609,-0.9921875,0.095214844,0.08984375,-0.48828125,0.5493164,-0.24414062,0.0,0.0,0.0,42.264404,82.43591,72.092285
1768998920697,-0.9926758,0.09667969,0.091796875,-0.9765625,0.4272461,0.12207031,0.0,0.0,0.0,42.264404,82.43591,72.092285
1768998920709,-0.9926758,0.09667969,0.091796875,-0.9765625,0.4272461,0.12207031,0.0,0.0,0.0,42.555542,82.457886,72.48779
1768998920797,-0.9941406,0.09472656,0.09277344,0.4272461,0.6713867,0.30517578,0.0,0.0,0.0,42.555542,82.457886,72.48779
1768998920809,-0.9941406,0.09472656,0.09277344,0.4272461,0.6713867,0.30517578,0.0,0.0,0.0,42.978516,82.46338,72.95471
1768998920897,-0.98291016,0.1015625,0.09423828,-0.24414062,0.18310547,0.61035156,0.0,0.0,0.0,42.978516,82.46338,72.95471
1768998920908,-0.98291016,0.1015625,0.09423828,-0.24414062,0.18310547,0.61035156,0.0,0.0,0.0,43.582764,82.41943,73.59741
1768998920997,-0.98876953,0.100097656,0.083496094,-1.6479492,-2.5024414,0.9765625,0.0,0.0,0.0,43.582764,82.41943,73.59741
1768998921008,-0.98876953,0.100097656,0.083496094,-1.6479492,-2.5024414,0.9765625,0.0,0.0,0.0,43.68164,82.24365,73.80066
1768998921096,-0.99316406,0.10058594,0.09863281,0.18310547,-0.24414062,-0.79345703,0.0,0.0,0.0,43.68164,82.24365,73.80066
1768998921108,-0.99316406,0.10058594,0.09863281,0.18310547,-0.24414062,-0.79345703,0.0,0.0,0.0,43.242188,82.232666,73.35571
1768998921196,-0.9916992,0.091796875,0.09375,-0.12207031,-0.8544922,-0.7324219,0.0,0.0,0.0,43.242188,82.232666,73.35571
1768998921208,-0.9916992,0.091796875,0.09375,-0.12207031,-0.8544922,-0.7324219,0.0,0.0,0.0,43.02246,82.17224,73.081055
1768998921296,-0.99316406,0.099609375,0.09716797,0.0,-0.79345703,-1.159668,0.0,0.0,0.0,43.02246,82.17224,73.081055
1768998921309,-0.99316406,0.099609375,0.09716797,0.0,-0.79345703,-1.159668,0.0,0.0,0.0,42.473145,82.15027,72.53723
1768998921395,-0.9941406,0.104003906,0.10205078,0.24414062,-1.6479492,-0.5493164,0.0,0.0,0.0,42.473145,82.15027,72.53723
1768998921407,-0.9941406,0.104003906,0.10205078,0.24414062,-1.6479492,-0.5493164,0.0,0.0,0.0,41.775513,82.073364,71.73523
1768998921495,-0.99609375,0.099609375,0.095214844,0.0,0.0,-0.91552734,0.0,0.0,0.0,41.775513,82.073364,71.73523
1768998921507,-0.99609375,0.099609375,0.095214844,0.0,0.0,-0.91552734,0.0,0.0,0.0,41.121826,82.03491,70.90027
1768998921595,-0.9926758,0.091796875,0.09814453,2.319336,1.0375977,-2.1972656,0.0,0.0,0.0,41.121826,82.03491,70.90027
1768998921606,-0.9926758,0.091796875,0.09814453,2.319336,1.0375977,-2.1972656,0.0,0.0,0.0,40.786743,82.08984,70.36194
1768998921695,-0.99316406,0.09277344,0.09765625,-0.18310547,0.9765625,-0.36621094,0.0,0.0,0.0,40.786743,82.08984,70.36194
1768998921706,-0.99316406,0.09277344,0.09765625,-0.18310547,0.9765625,-0.36621094,0.0,0.0,0.0,40.720825,82.18323,70.14221
1768998921794,-0.99560547,0.08984375,0.092285156,0.12207031,0.7324219,-0.18310547,0.0,0.0,0.0,40.720825,82.18323,70.14221
1768998921806,-0.99560547,0.08984375,0.092285156,0.12207031,0.7324219,-0.18310547,0.0,0.0,0.0,41.0614,82.232666,70.40039
1768998921894,-0.9902344,0.09423828,0.087890625,-0.79345703,0.24414062,-0.061035156,0.0,0.0,0.0,41.0614,82.232666,70.40039
1768998921905,-0.9902344,0.09423828,0.087890625,-0.79345703,0.24414062,-0.061035156,0.0,0.0,0.0,41.47339,82.298584,70.80139
1768998921994,-0.99316406,0.095703125,0.09082031,0.61035156,0.0,-0.61035156,0.0,0.0,0.0,41.47339,82.298584,70.80139
1768998922005,-0.99316406,0.095703125,0.09082031,0.61035156,0.0,-0.61035156,0.0,0.0,0.0,41.539307,82.298584,70.823364
1768998922093,-0.9921875,0.09472656,0.091796875,0.24414062,-0.6713867,-0.48828125,0.0,0.0,0.0,41.539307,82.298584,70.823364
1768998922105,-0.9921875,0.09472656,0.091796875,0.24414062,-0.6713867,-0.48828125,0.0,0.0,0.0,41.380005,82.282104,70.58716
1768998922193,-0.99316406,0.09326172,0.09863281,0.0,-0.8544922,-0.4272461,0.0,0.0,0.0,41.380005,82.282104,70.58716
1768998922205,-0.99316406,0.09326172,0.09863281,0.0,-0.8544922,-0.4272461,0.0,0.0,0.0,40.891113,82.22168,70.0708
1768998922293,-0.99560547,0.095703125,0.09863281,0.12207031,-0.5493164,-0.4272461,0.0,0.0,0.0,40.891113,82.22168,70.0708
1768998922304,-0.99560547,0.095703125,0.09863281,0.12207031,-0.5493164,-0.4272461,0.0,0.0,0.0,40.649414,82.194214,69.78516
1768998922393,-0.9946289,0.095703125,0.095703125,0.12207031,-0.12207031,-0.30517578,0.0,0.0,0.0,40.649414,82.194214,69.78516
1768998922404,-0.9946289,0.095703125,0.095703125,0.12207031,-0.12207031,-0.30517578,0.0,0.0,0.0,40.52307,82.17224,69.64783
1768998922492,-0.9892578,0.09375,0.09814453,0.0,0.0,-0.36621094,0.0,0.0,0.0,40.52307,82.17224,69.64783
1768998922504,-0.9892578,0.09375,0.09814453,0.0,0.0,-0.36621094,0.0,0.0,0.0,40.512085,82.18323,69.57092
1768998922592,-0.9921875,0.095703125,0.103027344,0.4272461,0.8544922,-0.6713867,0.0,0.0,0.0,40.512085,82.18323,69.57092
1768998922604,-0.9921875,0.095703125,0.103027344,0.4272461,0.8544922,-0.6713867,0.0,0.0,0.0,40.567017,82.21069,69.56543
1768998922692,-0.9941406,0.09716797,0.096191406,0.30517578,-0.061035156,-0.18310547,0.0,0.0,0.0,40.567017,82.21069,69.56543
1768998922703,-0.9941406,0.09716797,0.096191406,0.30517578,-0.061035156,-0.18310547,0.0,0.0,0.0,40.737305,82.24365,69.72473
1768998922791,-0.9873047,0.09423828,0.100097656,0.30517578,-0.24414062,-0.30517578,0.0,0.0,0.0,40.737305,82.24365,69.72473
1768998922804,-0.9873047,0.09423828,0.100097656,0.30517578,-0.24414062,-0.30517578,0.0,0.0,0.0,40.786743,82.25464,69.74121
1768998922891,-0.9946289,0.09472656,0.095214844,0.12207031,-0.6713867,-0.24414062,0.0,0.0,0.0,40.786743,82.25464,69.74121
1768998922903,-0.9946289,0.09472656,0.095214844,0.12207031,-0.6713867,-0.24414062,0.0,0.0,0.0,40.682373,82.22168,69.55994
1768998922991,-0.99365234,0.09375,0.095214844,0.0,-0.30517578,-0.12207031,0.0,0.0,0.0,40.682373,82.22168,69.55994
1768998923002,-0.99365234,0.09375,0.095214844,0.0,-0.30517578,-0.12207031,0.0,0.0,0.0,40.654907,82.2052,69.49402
1768998923091,-0.9897461,0.095703125,0.100097656,0.0,-0.4272461,-0.30517578,0.0,0.0,0.0,40.654907,82.2052,69.49402
1768998923102,-0.9897461,0.095703125,0.100097656,0.0,-0.4272461,-0.30517578,0.0,0.0,0.0,40.57251,82.177734,69.367676
1768998923190,-0.99316406,0.095214844,0.099609375,0.24414062,-0.5493164,-0.30517578,0.0,0.0,0.0,40.57251,82.177734,69.367676
1768998923202,-0.99316406,0.095214844,0.099609375,0.24414062,-0.5493164,-0.30517578,0.0,0.0,0.0,40.446167,82.13928,69.208374
1768998923290,-0.99316406,0.096191406,0.099121094,0.0,-0.7324219,-0.12207031,0.0,0.0,0.0,40.446167,82.13928,69.208374
1768998923301,-0.99316406,0.096191406,0.099121094,0.0,-0.7324219,-0.12207031,0.0,0.0,0.0,40.341797,82.11182,69.054565
1768998923390,-0.9921875,0.095214844,0.10498047,0.30517578,0.24414062,-0.4272461,0.0,0.0,0.0,40.341797,82.11182,69.054565
1768998923401,-0.9921875,0.095214844,0.10498047,0.30517578,0.24414062,-0.4272461,0.0,0.0,0.0,40.341797,82.10083,68.97766
1768998923489,-0.9951172,0.096191406,0.09423828,0.61035156,-0.6713867,-0.24414062,0.0,0.0,0.0,40.341797,82.10083,68.97766
1768998923501,-0.9951172,0.096191406,0.09423828,0.61035156,-0.6713867,-0.24414062,0.0,0.0,0.0,40.4187,82.10083,68.99963
1768998923589,-0.99072266,0.09472656,0.09667969,0.12207031,0.0,-0.30517578,0.0,0.0,0.0,40.4187,82.10083,68.99963
1768998923601,-0.99072266,0.09472656,0.09667969,0.12207031,0.0,-0.30517578,0.0,0.0,0.0,40.48462,82.11182,68.98865
1768998923689,-0.9892578,0.09423828,0.09863281,0.18310547,-0.18310547,-0.48828125,0.0,0.0,0.0,40.48462,82.11182,68.98865
1768998923700,-0.9892578,0.09423828,0.09863281,0.18310547,-0.18310547,-0.48828125,0.0,0.0,0.0,40.39673,82.11182,68.87329
1768998923788,-0.9951172,0.095214844,0.09814453,0.4272461,0.12207031,-0.48828125,0.0,0.0,0.0,40.39673,82.11182,68.87329
1768998923800,-0.9951172,0.095214844,0.09814453,0.4272461,0.12207031,-0.48828125,0.0,0.0,0.0,40.440674,82.13379,68.90076
1768998923888,-0.9921875,0.09472656,0.09716797,-0.12207031,-0.18310547,-0.24414062,0.0,0.0,0.0,40.440674,82.13379,68.90076
1768998923900,-0.9921875,0.09472656,0.09716797,-0.12207031,-0.18310547,-0.24414062,0.0,0.0,0.0,40.39673,82.128296,68.829346
1768998923989,-0.98876953,0.095214844,0.100097656,0.12207031,-0.30517578,-0.36621094,0.0,0.0,0.0,40.39673,82.128296,68.829346
1768998924000,-0.98876953,0.095214844,0.100097656,0.12207031,-0.30517578,-0.36621094,0.0,0.0,0.0,40.352783,82.1228,68.75244
1768998924088,-0.99365234,0.09472656,0.099609375,0.4272461,-0.18310547,-0.4272461,0.0,0.0,0.0,40.352783,82.1228,68.75244
1768998924099,-0.99365234,0.09472656,0.099609375,0.4272461,-0.18310547,-0.4272461,0.0,0.0,0.0,40.22644,82.10632,68.59863
1768998924188,-0.99121094,0.095703125,0.104003906,0.36621094,0.18310547,-0.4272461,0.0,0.0,0.0,40.22644,82.10632,68.59863
1768998924199,-0.99121094,0.095703125,0.104003906,0.36621094,0.18310547,-0.4272461,0.0,0.0,0.0,40.20996,82.10632,68.50525
1768998924287,-0.99072266,0.099121094,0.1015625,0.5493164,0.0,-0.24414062,0.0,0.0,0.0,40.20996,82.10632,68.50525
1768998924298,-0.99072266,0.099121094,0.1015625,0.5493164,0.0,-0.24414062,0.0,0.0,0.0,40.308838,82.10632,68.58215
1768998924387,-0.9902344,0.09716797,0.10595703,0.18310547,0.061035156,-0.36621094,0.0,0.0,0.0,40.308838,82.10632,68.58215
1768998924399,-0.9902344,0.09716797,0.10595703,0.18310547,0.061035156,-0.36621094,0.0,0.0,0.0,40.36377,82.10632,68.670044
1768998924487,-0.99121094,0.095214844,0.099121094,0.30517578,-0.30517578,-0.48828125,0.0,0.0,0.0,40.36377,82.10632,68.670044
1768998924499,-0.99121094,0.095214844,0.099121094,0.30517578,-0.30517578,-0.48828125,0.0,0.0,0.0,40.336304,82.10632,68.637085
1768998924586,-0.9946289,0.095703125,0.09716797,0.5493164,0.0,-0.4272461,0.0,0.0,0.0,40.336304,82.10632,68.637085
1768998924598,-0.9946289,0.095703125,0.09716797,0.5493164,0.0,-0.4272461,0.0,0.0,0.0,40.457153,82.128296,68.73596
1768998924686,-0.99658203,0.095214844,0.09423828,0.30517578,1.0986328,-0.7324219,0.0,0.0,0.0,40.457153,82.128296,68.73596
1768998924697,-0.99658203,0.095214844,0.09423828,0.30517578,1.0986328,-0.7324219,0.0,0.0,0.0,40.704346,82.194214,68.95569
1768998924786,-0.9892578,0.09472656,0.095703125,-0.48828125,1.8920898,-0.7324219,0.0,0.0,0.0,40.704346,82.194214,68.95569
1768998924797,-0.9892578,0.09472656,0.095703125,-0.48828125,1.8920898,-0.7324219,0.0,0.0,0.0,41.539307,82.38098,69.87854
1768998924885,-0.98828125,0.09667969,0.095703125,0.7324219,1.6479492,-0.8544922,0.0,0.0,0.0,41.539307,82.38098,69.87854
1768998924897,-0.98828125,0.09667969,0.095703125,0.7324219,1.6479492,-0.8544922,0.0,0.0,0.0,42.143555,82.55127,70.477295
1768998924985,-0.9970703,0.096191406,0.08984375,0.48828125,1.2207031,-0.7324219,0.0,0.0,0.0,42.143555,82.55127,70.477295
1768998924996,-0.9970703,0.096191406,0.08984375,0.48828125,1.2207031,-0.7324219,0.0,0.0,0.0,42.84668,82.67761,71.224365
1768998925085,-0.9897461,0.099609375,0.095703125,0.18310547,0.5493164,-1.159668,0.0,0.0,0.0,42.84668,82.67761,71.224365
1768998925096,-0.9897461,0.099609375,0.095703125,0.18310547,0.5493164,-1.159668,0.0,0.0,0.0,43.121338,82.770996,71.52649
1768998925184,-0.98828125,0.09423828,0.09033203,0.9765625,-0.61035156,-0.18310547,0.0,0.0,0.0,43.121338,82.770996,71.52649
1768998925196,-0.98828125,0.09423828,0.09033203,0.9765625,-0.61035156,-0.18310547,0.0,0.0,0.0,43.165283,82.770996,71.66931
1768998925284,-0.9951172,0.09375,0.0859375,0.36621094,-0.4272461,-0.8544922,0.0,0.0,0.0,43.165283,82.770996,71.66931
1768998925295,-0.9951172,0.09375,0.0859375,0.36621094,-0.4272461,-0.8544922,0.0,0.0,0.0,42.923584,82.7655,71.47705
1768998925384,-0.99121094,0.087890625,0.08251953,1.159668,-0.6713867,-0.24414062,0.0,0.0,0.0,42.923584,82.7655,71.47705
1768998925395,-0.99121094,0.087890625,0.08251953,1.159668,-0.6713867,-0.24414062,0.0,0.0,0.0,42.62146,82.74902,71.13098
1768998925483,-0.9951172,0.09375,0.08642578,0.4272461,-0.61035156,-0.61035156,0.0,0.0,0.0,42.62146,82.74902,71.13098
1768998925495,-0.9951172,0.09375,0.08642578,0.4272461,-0.61035156,-0.61035156,0.0,0.0,0.0,42.17102,82.69409,70.69153
1768998925583,-0.99365234,0.09033203,0.09082031,0.0,-0.5493164,-0.24414062,0.0,0.0,0.0,42.17102,82.69409,70.69153
1768998925595,-0.99365234,0.09033203,0.09082031,0.0,-0.5493164,-0.24414062,0.0,0.0,0.0,41.940308,82.66113,70.45532
1768998925683,-0.9975586,0.091796875,0.08886719,0.79345703,-0.24414062,-0.91552734,0.0,0.0,0.0,41.940308,82.66113,70.45532
1768998925694,-0.9975586,0.091796875,0.08886719,0.79345703,-0.24414062,-0.91552734,0.0,0.0,0.0,41.709595,82.67761,70.21362
1768998925783,-1.0058594,0.088378906,0.08203125,0.5493164,1.953125,-0.9765625,0.0,0.0,0.0,41.709595,82.67761,70.21362
1768998925794,-1.0058594,0.088378906,0.08203125,0.5493164,1.953125,-0.9765625,0.0,0.0,0.0,41.89087,82.74902,70.44983
1768998925882,-1.0126953,0.08496094,0.07714844,-4.0283203,1.2207031,-0.24414062,0.0,0.0,0.0,41.89087,82.74902,70.44983
1768998925894,-1.0126953,0.08496094,0.07714844,-4.0283203,1.2207031,-0.24414062,0.0,0.0,0.0,41.918335,82.80945,70.669556
1768998925982,-0.9941406,0.09033203,0.096191406,-1.953125,-0.48828125,-0.30517578,0.0,0.0,0.0,41.918335,82.80945,70.669556
1768998925993,-0.9941406,0.09033203,0.096191406,-1.953125,-0.48828125,-0.30517578,0.0,0.0,0.0,41.791992,82.88635,70.702515
1768998926082,-1.0029297,0.09326172,0.099609375,-1.7700195,-2.0141602,-0.24414062,0.0,0.0,0.0,41.791992,82.88635,70.702515
1768998926093,-1.0029297,0.09326172,0.099609375,-1.7700195,-2.0141602,-0.24414062,0.0,0.0,0.0,41.050415,82.85339,70.19165
1768998926182,-0.9892578,0.09472656,0.09716797,2.1362305,0.12207031,-1.8310547,0.0,0.0,0.0,41.050415,82.85339,70.19165
1768998926193,-0.9892578,0.09472656,0.09716797,2.1362305,0.12207031,-1.8310547,0.0,0.0,0.0,40.665894,82.90283,69.922485
1768998926281,-0.98535156,0.0859375,0.10107422,0.24414062,-2.1972656,0.18310547,0.0,0.0,0.0,40.665894,82.90283,69.922485
1768998926293,-0.98535156,0.0859375,0.10107422,0.24414062,-2.1972656,0.18310547,0.0,0.0,0.0,40.38025,82.86987,69.54346
1768998926381,-1.0268555,0.06542969,0.05029297,-10.681152,-5.6762695,4.272461,0.0,0.0,0.0,40.38025,82.86987,69.54346
1768998926393,-1.0268555,0.06542969,0.05029297,-10.681152,-5.6762695,4.272461,0.0,0.0,0.0,39.138794,82.39197,68.52722
1768998926481,-1.0,0.09765625,0.07910156,-3.7841797,-3.479004,-0.4272461,0.0,0.0,0.0,39.138794,82.39197,68.52722
1768998926493,-1.0,0.09765625,0.07910156,-3.7841797,-3.479004,-0.4272461,0.0,0.0,0.0,37.72705,82.056885,67.43408
1768998926581,-0.99072266,0.09082031,0.115722656,0.18310547,-0.91552734,0.30517578,0.0,0.0,0.0,37.72705,82.056885,67.43408
1768998926592,-0.99072266,0.09082031,0.115722656,0.18310547,-0.91552734,0.30517578,0.0,0.0,0.0,36.710815,81.95801,66.23108
1768998926680,-1.0009766,0.08691406,0.096191406,-0.5493164,2.5634766,-0.12207031,0.0,0.0,0.0,36.710815,81.95801,66.23108
1768998926692,-1.0009766,0.08691406,0.096191406,-0.5493164,2.5634766,-0.12207031,0.0,0.0,0.0,37.71057,82.0459,67.126465
1768998926780,-0.99560547,0.087402344,0.096191406,-1.4038086,1.7089844,0.0,0.0,0.0,0.0,37.71057,82.0459,67.126465
1768998926791,-0.99560547,0.087402344,0.096191406,-1.4038086,1.7089844,0.0,0.0,0.0,0.0,39.06189,82.265625,68.34595
1768998926879,-0.9863281,0.103027344,0.096191406,3.479004,2.0141602,-1.4038086,0.0,0.0,0.0,39.06189,82.265625,68.34595
1768998926891,-0.9863281,0.103027344,0.096191406,3.479004,2.0141602,-1.4038086,0.0,0.0,0.0,39.385986,82.298584,68.5437
1768998926979,-0.9941406,0.09423828,0.11230469,3.3569336,-2.1972656,-0.36621094,0.0,0.0,0.0,39.385986,82.298584,68.5437
1768998926991,-0.9941406,0.09423828,0.11230469,3.3569336,-2.1972656,-0.36621094,0.0,0.0,0.0,39.451904,82.48535,68.00537
1768998927079,-1.0019531,0.08642578,0.107421875,2.0141602,-1.4038086,0.0,0.0,0.0,0.0,39.451904,82.48535,68.00537
1768998927090,-1.0019531,0.08642578,0.107421875,2.0141602,-1.4038086,0.0,0.0,0.0,0.0,38.50708,82.25464,66.89575
1768998927178,-0.984375,0.09814453,0.11035156,-2.4414062,-2.6855469,1.2207031,0.0,0.0,0.0,38.50708,82.25464,66.89575
1768998927190,-0.984375,0.09814453,0.11035156,-2.4414062,-2.6855469,1.2207031,0.0,0.0,0.0,38.166504,82.05139,66.74194
1768998927278,-0.99072266,0.09472656,0.10644531,0.79345703,0.48828125,-0.18310547,0.0,0.0,0.0,38.166504,82.05139,66.74194
1768998927290,-0.99072266,0.09472656,0.10644531,0.79345703,0.48828125,-0.18310547,0.0,0.0,0.0,38.07312,81.952515,66.62109
1768998927378,-1.0004883,0.08935547,0.09716797,1.2817383,0.12207031,-1.0986328,0.0,0.0,0.0,38.07312,81.952515,66.62109
1768998927390,-1.0004883,0.08935547,0.09716797,1.2817383,0.12207031,-1.0986328,0.0,0.0,0.0,38.19397,82.01294,66.56067
1768998927478,-0.9897461,0.09277344,0.09716797,2.1972656,0.79345703,-1.2817383,0.0,0.0,0.0,38.19397,82.01294,66.56067
1768998927489,-0.9897461,0.09277344,0.09716797,2.1972656,0.79345703,-1.2817383,0.0,0.0,0.0,38.583984,82.06787,66.74194
1768998927577,-0.99365234,0.08203125,0.10107422,0.5493164,0.4272461,-0.48828125,0.0,0.0,0.0,38.583984,82.06787,66.74194
1768998927589,-0.99365234,0.08203125,0.10107422,0.5493164,0.4272461,-0.48828125,0.0,0.0,0.0,38.688354,82.144775,66.73645
1768998927677,-0.99365234,0.09277344,0.10058594,2.9296875,-1.0375977,-0.5493164,0.0,0.0,0.0,38.688354,82.144775,66.73645
1768998927689,-0.99365234,0.09277344,0.10058594,2.9296875,-1.0375977,-0.5493164,0.0,0.0,0.0,38.375244,82.128296,66.2146
1768998927777,-1.0214844,0.087890625,0.084472656,-1.7700195,-0.24414062,-0.061035156,0.0,0.0,0.0,38.375244,82.128296,66.2146
1768998927788,-1.0214844,0.087890625,0.084472656,-1.7700195,-0.24414062,-0.061035156,0.0,0.0,0.0,37.80945,82.040405,65.4895
1768998927877,-0.97802734,0.100097656,0.11035156,0.18310547,-0.5493164,-0.12207031,0.0,0.0,0.0,37.80945,82.040405,65.4895
1768998927888,-0.97802734,0.100097656,0.11035156,0.18310547,-0.5493164,-0.12207031,0.0,0.0,0.0,37.88086,81.99097,65.67078
1768998927976,-1.0004883,0.09472656,0.11669922,2.1972656,-0.12207031,0.18310547,0.0,0.0,0.0,37.88086,81.99097,65.67078
1768998927988,-1.0004883,0.09472656,0.11669922,2.1972656,-0.12207031,0.18310547,0.0,0.0,0.0,37.963257,81.94702,65.65979
1768998928076,-1.0146484,0.09082031,0.10546875,-0.12207031,0.61035156,-0.4272461,0.0,0.0,0.0,37.963257,81.94702,65.65979
1768998928087,-1.0146484,0.09082031,0.10546875,-0.12207031,0.61035156,-0.4272461,0.0,0.0,0.0,38.342285,82.01294,65.96741
1768998928176,-0.9746094,0.09472656,0.103027344,-0.7324219,2.0751953,-0.5493164,0.0,0.0,0.0,38.342285,82.01294,65.96741
1768998928187,-0.9746094,0.09472656,0.103027344,-0.7324219,2.0751953,-0.5493164,0.0,0.0,0.0,39.34204,82.22717,67.005615
1768998928275,-0.98095703,0.095703125,0.104003906,0.24414062,0.30517578,-0.12207031,0.0,0.0,0.0,39.34204,82.22717,67.005615
1768998928287,-0.98095703,0.095703125,0.104003906,0.24414062,0.30517578,-0.12207031,0.0,0.0,0.0,39.52881,82.27661,67.25281
1768998928375,-1.0268555,0.087402344,0.083984375,-3.4179688,1.0375977,0.12207031,0.0,0.0,0.0,39.52881,82.27661,67.25281
1768998928387,-1.0268555,0.087402344,0.083984375,-3.4179688,1.0375977,0.12207031,0.0,0.0,0.0,40.00122,82.26013,67.88452
1768998928475,-0.98339844,0.09082031,0.095703125,-3.2958984,1.5258789,0.36621094,0.0,0.0,0.0,40.00122,82.26013,67.88452
1768998928487,-0.98339844,0.09082031,0.095703125,-3.2958984,1.5258789,0.36621094,0.0,0.0,0.0,40.429688,82.386475,68.516235
1768998928574,-0.9746094,0.088378906,0.09716797,-0.48828125,-1.0986328,-0.061035156,0.0,0.0,0.0,40.429688,82.386475,68.516235
1768998928586,-0.9746094,0.088378906,0.09716797,-0.48828125,-1.0986328,-0.061035156,0.0,0.0,0.0,40.62195,82.3645,68.85681
1768998928674,-1.0043945,0.09326172,0.09716797,1.7089844,0.91552734,-1.3427734,0.0,0.0,0.0,40.62195,82.3645,68.85681
1768998928686,-1.0043945,0.09326172,0.09716797,1.7089844,0.91552734,-1.3427734,0.0,0.0,0.0,40.39673,82.38098,68.66455
1768998928774,-0.9819336,0.100097656,0.09326172,0.24414062,0.061035156,-0.36621094,0.0,0.0,0.0,40.39673,82.38098,68.66455
1768998928785,-0.9819336,0.100097656,0.09326172,0.24414062,0.061035156,-0.36621094,0.0,0.0,0.0,40.407715,82.3645,68.67554
1768998928874,-0.9926758,0.096191406,0.10205078,0.8544922,-0.18310547,-1.0375977,0.0,0.0,0.0,40.407715,82.3645,68.67554
1768998928885,-0.9926758,0.096191406,0.10205078,0.8544922,-0.18310547,-1.0375977,0.0,0.0,0.0,39.951782,82.34802,68.15918
1768998928973,-0.98876953,0.087890625,0.09814453,1.5258789,-0.24414062,-1.5258789,0.0,0.0,0.0,39.951782,82.34802,68.15918
1768998928985,-0.98876953,0.087890625,0.09814453,1.5258789,-0.24414062,-1.5258789,0.0,0.0,0.0,39.375,82.41394,67.48352
1768998929073,-0.99560547,0.08544922,0.09472656,-0.36621094,-3.0517578,0.30517578,0.0,0.0,0.0,39.375,82.41394,67.48352
1768998929084,-0.99560547,0.08544922,0.09472656,-0.36621094,-3.0517578,0.30517578,0.0,0.0,0.0,38.94104,82.35901,67.0166
1768998929173,-0.9902344,0.10595703,0.12011719,1.4038086,-1.0375977,-1.0986328,0.0,0.0,0.0,38.94104,82.35901,67.0166
1768998929184,-0.9902344,0.10595703,0.12011719,1.4038086,-1.0375977,-1.0986328,0.0,0.0,0.0,38.139038,82.265625,66.19263
1768998929273,-1.0249023,0.091308594,0.10839844,-1.7700195,6.3476562,-2.5634766,0.0,0.0,0.0,38.139038,82.265625,66.19263
1768998929284,-1.0249023,0.091308594,0.10839844,-1.7700195,6.3476562,-2.5634766,0.0,0.0,0.0,39.089355,82.72705,67.15393
1768998929372,-0.9916992,0.087402344,0.12646484,-0.4272461,12.451172,2.0141602,0.0,0.0,0.0,39.089355,82.72705,67.15393
1768998929383,-0.9916992,0.087402344,0.12646484,-0.4272461,12.451172,2.0141602,0.0,0.0,0.0,44.022217,83.29834,72.44385
1768998929472,-0.97998047,0.049804688,0.09326172,-3.7231445,14.160156,5.493164,0.0,0.0,0.0,44.022217,83.29834,72.44385
1768998929483,-0.97998047,0.049804688,0.09326172,-3.7231445,14.160156,5.493164,0.0,0.0,0.0,56.78833,83.82019,85.81421
1768998929572,-0.98828125,0.078125,0.044921875,-2.1362305,22.460938,0.7324219,0.0,0.0,0.0,56.78833,83.82019,85.81421
1768998929583,-0.98828125,0.078125,0.044921875,-2.1362305,22.460938,0.7324219,0.0,0.0,0.0,73.87756,84.32007,103.568115
1768998929671,-1.0224609,0.048828125,-0.027832031,-16.113281,24.108887,-5.126953,0.0,0.0,0.0,73.87756,84.32007,103.568115
1768998929683,-1.0224609,0.048828125,-0.027832031,-16.113281,24.108887,-5.126953,0.0,0.0,0.0,98.41553,84.60022,129.776
1768998929771,-1.003418,0.13671875,-0.10644531,-26.611328,20.996094,2.746582,0.0,0.0,0.0,98.41553,84.60022,129.776
1768998929782,-1.003418,0.13671875,-0.10644531,-26.611328,20.996094,2.746582,0.0,0.0,0.0,120.89905,84.40796,155.04456
1768998929871,-0.9814453,0.1381836,-0.10595703,4.8828125,12.878418,5.126953,0.0,0.0,0.0,120.89905,84.40796,155.04456
1768998929882,-0.9814453,0.1381836,-0.10595703,4.8828125,12.878418,5.126953,0.0,0.0,0.0,129.91333,82.62268,164.8938
1768998929970,-0.9711914,0.14990234,-0.111816406,13.977051,3.8452148,2.746582,0.0,0.0,0.0,129.91333,82.62268,164.8938
1768998929982,-0.9711914,0.14990234,-0.111816406,13.977051,3.8452148,2.746582,0.0,0.0,0.0,133.40698,81.694336,167.34924
1768998930070,-1.0097656,0.13916016,-0.12548828,10.803223,0.4272461,2.6245117,0.0,0.0,0.0,133.40698,81.694336,167.34924
1768998930082,-1.0097656,0.13916016,-0.12548828,10.803223,0.4272461,2.6245117,0.0,0.0,0.0,135.55481,81.09558,168.45337
1768998930170,-0.9838867,0.08886719,-0.12011719,7.3242188,-2.746582,-2.6855469,0.0,0.0,0.0,135.55481,81.09558,168.45337
1768998930181,-0.9838867,0.08886719,-0.12011719,7.3242188,-2.746582,-2.6855469,0.0,0.0,0.0,135.79651,80.529785,167.95349
1768998930270,-0.9794922,0.11328125,-0.10449219,1.159668,4.211426,-7.080078,0.0,0.0,0.0,135.79651,80.529785,167.95349
1768998930281,-0.9794922,0.11328125,-0.10449219,1.159668,4.211426,-7.080078,0.0,0.0,0.0,137.59827,80.892334,170.18372
1768998930369,-0.9897461,0.060546875,-0.13867188,-8.7890625,4.0283203,-6.591797,0.0,0.0,0.0,137.59827,80.892334,170.18372
1768998930381,-0.9897461,0.060546875,-0.13867188,-8.7890625,4.0283203,-6.591797,0.0,0.0,0.0,141.64124,80.947266,175.22644
1768998930469,-0.98583984,0.15429688,-0.14501953,1.6479492,0.9765625,-1.6479492,0.0,0.0,0.0,141.64124,80.947266,175.22644
1768998930480,-0.98583984,0.15429688,-0.14501953,1.6479492,0.9765625,-1.6479492,0.0,0.0,0.0,143.80005,81.205444,178.61023
1768998930569,-1.0102539,0.080078125,-0.1430664,5.554199,-2.0751953,0.12207031,0.0,0.0,0.0,143.80005,81.205444,178.61023
1768998930580,-1.0102539,0.080078125,-0.1430664,5.554199,-2.0751953,0.12207031,0.0,0.0,0.0,144.30542,81.2384,178.76953
1768998930668,-0.9916992,0.0625,-0.15185547,-2.6855469,2.1362305,0.12207031,0.0,0.0,0.0,144.30542,81.2384,178.76953
1768998930680,-0.9916992,0.0625,-0.15185547,-2.6855469,2.1362305,0.12207031,0.0,0.0,0.0,145.38757,80.95825,-179.81873
1768998930768,-0.97802734,0.037597656,-0.14257812,-4.9438477,3.6010742,-0.61035156,0.0,0.0,0.0,145.38757,80.95825,-179.81873
1768998930779,-0.97802734,0.037597656,-0.14257812,-4.9438477,3.6010742,-0.61035156,0.0,0.0,0.0,147.01904,80.57922,-176.97876
1768998930868,-0.95410156,0.1430664,-0.15136719,-8.239746,6.4086914,-0.7324219,0.0,0.0,0.0,147.01904,80.57922,-176.97876
1768998930879,-0.95410156,0.1430664,-0.15136719,-8.239746,6.4086914,-0.7324219,0.0,0.0,0.0,148.62854,80.24414,-173.68286
1768998930968,-1.0126953,0.107910156,-0.17041016,5.859375,3.9672852,2.2583008,0.0,0.0,0.0,148.62854,80.24414,-173.68286
1768998930979,-1.0126953,0.107910156,-0.17041016,5.859375,3.9672852,2.2583008,0.0,0.0,0.0,148.26599,79.67285,-173.67188
1768998931067,-0.97509766,0.18408203,-0.17919922,8.300781,-3.9672852,10.498047,0.0,0.0,0.0,148.26599,79.67285,-173.67188
1768998931079,-0.97509766,0.18408203,-0.17919922,8.300781,-3.9672852,10.498047,0.0,0.0,0.0,146.80481,79.43115,-175.67688
1768998931167,-0.95654297,0.060546875,-0.1015625,-4.211426,6.286621,0.4272461,0.0,0.0,0.0,146.80481,79.43115,-175.67688
1768998931178,-0.95654297,0.060546875,-0.1015625,-4.211426,6.286621,0.4272461,0.0,0.0,0.0,145.67322,78.96973,-177.61597
1768998931267,-0.96533203,0.10644531,-0.1928711,-7.2021484,8.544922,-4.8828125,0.0,0.0,0.0,145.67322,78.96973,-177.61597
1768998931278,-0.96533203,0.10644531,-0.1928711,-7.2021484,8.544922,-4.8828125,0.0,0.0,0.0,146.20605,78.33801,-175.19348
1768998931366,-0.99316406,0.110839844,-0.20507812,-10.498047,4.760742,-0.48828125,0.0,0.0,0.0,146.20605,78.33801,-175.19348
1768998931378,-0.99316406,0.110839844,-0.20507812,-10.498047,4.760742,-0.48828125,0.0,0.0,0.0,149.47998,77.805176,-170.70557
1768998931466,-0.9736328,0.15673828,-0.21972656,0.18310547,3.1738281,3.7231445,0.0,0.0,0.0,149.47998,77.805176,-170.70557
1768998931477,-0.9736328,0.15673828,-0.21972656,0.18310547,3.1738281,3.7231445,0.0,0.0,0.0,148.47473,77.41516,-171.05164
1768998931566,-0.9555664,0.10498047,-0.17773438,2.2583008,-0.4272461,1.0375977,0.0,0.0,0.0,148.47473,77.41516,-171.05164
1768998931577,-0.9555664,0.10498047,-0.17773438,2.2583008,-0.4272461,1.0375977,0.0,0.0,0.0,148.61206,76.937256,-171.1615
1768998931665,-0.9765625,0.1430664,-0.21044922,-0.8544922,-3.3569336,1.5869141,0.0,0.0,0.0,148.61206,76.937256,-171.1615
1768998931677,-0.9765625,0.1430664,-0.21044922,-0.8544922,-3.3569336,1.5869141,0.0,0.0,0.0,147.71667,77.041626,-171.82617
1768998931765,-0.98535156,0.16748047,-0.21044922,11.230469,-10.620117,3.2958984,0.0,0.0,0.0,147.71667,77.041626,-171.82617
1768998931776,-0.98535156,0.16748047,-0.21044922,11.230469,-10.620117,3.2958984,0.0,0.0,0.0,145.72815,77.283325,-173.8147
1768998931865,-0.9477539,0.125,-0.17919922,12.6953125,-4.333496,4.4555664,0.0,0.0,0.0,145.72815,77.283325,-173.8147
1768998931876,-0.9477539,0.125,-0.17919922,12.6953125,-4.333496,4.4555664,0.0,0.0,0.0,142.99255,77.55249,-177.78076
1768998931964,-0.9663086,0.107421875,-0.15722656,10.986328,-1.5258789,0.79345703,0.0,0.0,0.0,142.99255,77.55249,-177.78076
1768998931976,-0.9663086,0.107421875,-0.15722656,10.986328,-1.5258789,0.79345703,0.0,0.0,0.0,141.5863,77.75574,179.89014
1768998932064,-0.97558594,0.15527344,-0.18066406,5.9814453,-1.4648438,-2.2583008,0.0,0.0,0.0,141.5863,77.75574,179.89014
1768998932076,-0.97558594,0.15527344,-0.18066406,5.9814453,-1.4648438,-2.2583008,0.0,0.0,0.0,142.26196,77.90405,-179.39026
1768998932164,-0.98828125,0.119140625,-0.18066406,0.0,-0.61035156,1.7089844,0.0,0.0,0.0,142.26196,77.90405,-179.39026
1768998932175,-0.98828125,0.119140625,-0.18066406,0.0,-0.61035156,1.7089844,0.0,0.0,0.0,142.40479,77.93152,-178.97827
1768998932264,-0.95703125,0.11669922,-0.18359375,-0.61035156,2.8076172,-1.4038086,0.0,0.0,0.0,142.40479,77.93152,-178.97827
1768998932275,-0.95703125,0.11669922,-0.18359375,-0.61035156,2.8076172,-1.4038086,0.0,0.0,0.0,143.16833,77.72278,-177.31384
1768998932363,-0.96972656,0.16259766,-0.17773438,-3.112793,0.36621094,-1.7089844,0.0,0.0,0.0,143.16833,77.72278,-177.31384
1768998932375,-0.96972656,0.16259766,-0.17773438,-3.112793,0.36621094,-1.7089844,0.0,0.0,0.0,143.09692,77.76123,-176.42944
1768998932463,-0.98046875,0.15966797,-0.18847656,1.8920898,-3.1738281,1.6479492,0.0,0.0,0.0,143.09692,77.76123,-176.42944
1768998932475,-0.98046875,0.15966797,-0.18847656,1.8920898,-3.1738281,1.6479492,0.0,0.0,0.0,142.72339,77.805176,-176.51733
1768998932563,-0.99072266,0.11767578,-0.16699219,2.9907227,1.7089844,-1.0375977,0.0,0.0,0.0,142.72339,77.805176,-176.51733
1768998932574,-0.99072266,0.11767578,-0.16699219,2.9907227,1.7089844,-1.0375977,0.0,0.0,0.0,142.97607,77.66235,-176.39099
1768998932662,-0.9838867,0.14404297,-0.17675781,1.0375977,-6.1035156,-0.8544922,0.0,0.0,0.0,142.97607,77.66235,-176.39099
1768998932674,-0.9838867,0.14404297,-0.17675781,1.0375977,-6.1035156,-0.8544922,0.0,0.0,0.0,142.61353,77.93701,-176.50635
1768998932762,-0.9770508,0.13720703,-0.1821289,-0.7324219,-0.12207031,-0.24414062,0.0,0.0,0.0,142.61353,77.93701,-176.50635
1768998932774,-0.9770508,0.13720703,-0.1821289,-0.7324219,-0.12207031,-0.24414062,0.0,0.0,0.0,142.42676,77.98645,-176.27563
1768998932862,-0.97021484,0.12890625,-0.17773438,-2.5634766,1.953125,-0.4272461,0.0,0.0,0.0,142.42676,77.98645,-176.27563
1768998932874,-0.97021484,0.12890625,-0.17773438,-2.5634766,1.953125,-0.4272461,0.0,0.0,0.0,143.05847,77.83264,-175.08362
1768998932962,-0.9873047,0.14257812,-0.1796875,-1.0375977,-0.9765625,0.4272461,0.0,0.0,0.0,143.05847,77.83264,-175.08362
1768998932973,-0.9873047,0.14257812,-0.1796875,-1.0375977,-0.9765625,0.4272461,0.0,0.0,0.0,142.98157,77.77222,-174.6112
1768998933061,-0.98291016,0.14111328,-0.1899414,-1.2207031,-1.7700195,1.5258789,0.0,0.0,0.0,142.98157,77.77222,-174.6112
1768998933074,-0.98291016,0.14111328,-0.1899414,-1.2207031,-1.7700195,1.5258789,0.0,0.0,0.0,142.44324,77.69531,-174.67163
1768998933161,-0.97509766,0.14208984,-0.18066406,-1.8310547,-0.79345703,1.8920898,0.0,0.0,0.0,142.44324,77.69531,-174.67163
1768998933173,-0.97509766,0.14208984,-0.18066406,-1.8310547,-0.79345703,1.8920898,0.0,0.0,0.0,141.68518,77.612915,-175.14404
1768998933261,-0.9785156,0.1484375,-0.16064453,-3.7231445,-0.36621094,2.9296875,0.0,0.0,0.0,141.68518,77.612915,-175.14404
1768998933272,-0.9785156,0.1484375,-0.16064453,-3.7231445,-0.36621094,2.9296875,0.0,0.0,0.0,140.60852,77.48657,-175.86914
1768998933360,-0.97558594,0.1538086,-0.17138672,-3.4179688,-0.6713867,0.24414062,0.0,0.0,0.0,140.60852,77.48657,-175.86914
1768998933372,-0.97558594,0.1538086,-0.17138672,-3.4179688,-0.6713867,0.24414062,0.0,0.0,0.0,140.65247,77.299805,-175.24292
1768998933460,-0.9838867,0.14892578,-0.18017578,-7.9956055,-3.2348633,1.4038086,0.0,0.0,0.0,140.65247,77.299805,-175.24292
1768998933472,-0.9838867,0.14892578,-0.18017578,-7.9956055,-3.2348633,1.4038086,0.0,0.0,0.0,139.83398,77.32178,-175.32532
1768998933560,-0.98095703,0.1640625,-0.1743164,-4.760742,-2.6245117,2.4414062,0.0,0.0,0.0,139.83398,77.32178,-175.32532
1768998933571,-0.98095703,0.1640625,-0.1743164,-4.760742,-2.6245117,2.4414062,0.0,0.0,0.0,138.0542,77.371216,-176.44592
1768998933660,-0.9663086,0.15722656,-0.17480469,-3.2348633,-1.8920898,3.8452148,0.0,0.0,0.0,138.0542,77.371216,-176.44592
1768998933671,-0.9663086,0.15722656,-0.17480469,-3.2348633,-1.8920898,3.8452148,0.0,0.0,0.0,136.84021,77.20642,-177.4237
1768998933759,-0.9790039,0.16552734,-0.16552734,-0.48828125,0.5493164,2.5024414,0.0,0.0,0.0,136.84021,77.20642,-177.4237
1768998933771,-0.9790039,0.16552734,-0.16552734,-0.48828125,0.5493164,2.5024414,0.0,0.0,0.0,136.11511,76.94275,-178.20923
1768998933859,-0.9770508,0.15917969,-0.1796875,-4.5776367,-1.8310547,3.2958984,0.0,0.0,0.0,136.11511,76.94275,-178.20923
1768998933870,-0.9770508,0.15917969,-0.1796875,-4.5776367,-1.8310547,3.2958984,0.0,0.0,0.0,134.77478,76.728516,-179.3628
1768998933959,-0.9770508,0.18164062,-0.16015625,-2.1972656,-1.953125,1.4648438,0.0,0.0,0.0,134.77478,76.728516,-179.3628
1768998933971,-0.9770508,0.18164062,-0.16015625,-2.1972656,-1.953125,1.4648438,0.0,0.0,0.0,133.29712,76.62964,179.34631
1768998934058,-0.96875,0.18896484,-0.15771484,-4.1503906,-2.8686523,2.8686523,0.0,0.0,0.0,133.29712,76.62964,179.34631
1768998934070,-0.96875,0.18896484,-0.15771484,-4.1503906,-2.8686523,2.8686523,0.0,0.0,0.0,131.4679,76.60217,177.59949
1768998934159,-0.9819336,0.19189453,-0.15478516,-0.36621094,-2.6245117,0.9765625,0.0,0.0,0.0,131.4679,76.60217,177.59949
1768998934170,-0.9819336,0.19189453,-0.15478516,-0.36621094,-2.6245117,0.9765625,0.0,0.0,0.0,130.5011,76.62964,176.5503
1768998934258,-0.9819336,0.20019531,-0.15576172,0.36621094,-2.0751953,2.1972656,0.0,0.0,0.0,130.5011,76.62964,176.5503
1768998934269,-0.9819336,0.20019531,-0.15576172,0.36621094,-2.0751953,2.1972656,0.0,0.0,0.0,129.35852,76.60217,175.177
1768998934357,-0.9741211,0.18896484,-0.14404297,2.746582,0.061035156,0.12207031,0.0,0.0,0.0,129.35852,76.60217,175.177
1768998934369,-0.9741211,0.18896484,-0.14404297,2.746582,0.061035156,0.12207031,0.0,0.0,0.0,128.7378,76.48682,174.23767
1768998934457,-0.9663086,0.20458984,-0.15136719,0.91552734,1.953125,-0.18310547,0.0,0.0,0.0,128.7378,76.48682,174.23767
1768998934469,-0.9663086,0.20458984,-0.15136719,0.91552734,1.953125,-0.18310547,0.0,0.0,0.0,129.10583,76.4209,174.34204
1768998934557,-0.96191406,0.1977539,-0.14794922,2.8686523,0.7324219,0.30517578,0.0,0.0,0.0,129.10583,76.4209,174.34204
1768998934568,-0.96191406,0.1977539,-0.14794922,2.8686523,0.7324219,0.30517578,0.0,0.0,0.0,129.95178,76.21765,174.97925
1768998934657,-0.984375,0.1821289,-0.16308594,-5.3710938,-7.2021484,3.7841797,0.0,0.0,0.0,129.95178,76.21765,174.97925
1768998934668,-0.984375,0.1821289,-0.16308594,-5.3710938,-7.2021484,3.7841797,0.0,0.0,0.0,128.64441,76.34949,173.46313
1768998934756,-0.9746094,0.19873047,-0.14746094,-4.638672,-4.9438477,1.159668,0.0,0.0,0.0,128.64441,76.34949,173.46313
1768998934768,-0.9746094,0.19873047,-0.14746094,-4.638672,-4.9438477,1.159668,0.0,0.0,0.0,126.42517,76.415405,171.46362
1768998934856,-0.98291016,0.203125,-0.14892578,-4.5776367,-1.0986328,3.6621094,0.0,0.0,0.0,126.42517,76.415405,171.46362
1768998934868,-0.98291016,0.203125,-0.14892578,-4.5776367,-1.0986328,3.6621094,0.0,0.0,0.0,125.47485,76.36597,170.71106
1768998934956,-0.9658203,0.17675781,-0.13671875,-0.9765625,-1.7700195,-0.36621094,0.0,0.0,0.0,125.47485,76.36597,170.71106
1768998934967,-0.9658203,0.17675781,-0.13671875,-0.9765625,-1.7700195,-0.36621094,0.0,0.0,0.0,124.469604,76.23413,169.93103
1768998935055,-0.95703125,0.20947266,-0.12939453,-5.126953,1.7089844,1.953125,0.0,0.0,0.0,124.469604,76.23413,169.93103
1768998935067,-0.95703125,0.20947266,-0.12939453,-5.126953,1.7089844,1.953125,0.0,0.0,0.0,123.74451,76.12976,169.49707
1768998935155,-0.9638672,0.2241211,-0.13378906,-6.164551,1.159668,3.6010742,0.0,0.0,0.0,123.74451,76.12976,169.49707
1768998935167,-0.9638672,0.2241211,-0.13378906,-6.164551,1.159668,3.6010742,0.0,0.0,0.0,122.75574,75.789185,168.88184
1768998935255,-0.9580078,0.2241211,-0.12451172,-2.6245117,0.0,2.9296875,0.0,0.0,0.0,122.75574,75.789185,168.88184
1768998935267,-0.9580078,0.2241211,-0.12451172,-2.6245117,0.0,2.9296875,0.0,0.0,0.0,121.90979,75.42114,168.37097
1768998935354,-0.9663086,0.27734375,-0.13476562,9.521484,-10.986328,4.8217773,0.0,0.0,0.0,121.90979,75.42114,168.37097
1768998935366,-0.9663086,0.27734375,-0.13476562,9.521484,-10.986328,4.8217773,0.0,0.0,0.0,119.262085,75.146484,165.32776
1768998935454,-0.97509766,0.19482422,-0.1328125,-2.0141602,-6.652832,2.0141602,0.0,0.0,0.0,119.262085,75.146484,165.32776
1768998935466,-0.97509766,0.19482422,-0.1328125,-2.0141602,-6.652832,2.0141602,0.0,0.0,0.0,116.64734,75.1355,161.85608
1768998935554,-0.9604492,0.24072266,-0.09814453,-2.6855469,-8.056641,1.6479492,0.0,0.0,0.0,116.64734,75.1355,161.85608
1768998935565,-0.9604492,0.24072266,-0.09814453,-2.6855469,-8.056641,1.6479492,0.0,0.0,0.0,113.76343,75.27283,158.96118
1768998935654,-0.96191406,0.25976562,-0.09814453,-6.652832,-8.117676,4.211426,0.0,0.0,0.0,113.76343,75.27283,158.96118
1768998935665,-0.96191406,0.25976562,-0.09814453,-6.652832,-8.117676,4.211426,0.0,0.0,0.0,110.15991,75.19592,155.67627
1768998935753,-0.953125,0.25683594,-0.07519531,-3.8452148,-1.2207031,5.065918,0.0,0.0,0.0,110.15991,75.19592,155.67627
1768998935765,-0.953125,0.25683594,-0.07519531,-3.8452148,-1.2207031,5.065918,0.0,0.0,0.0,107.53967,74.84985,153.20984
1768998935853,-0.9423828,0.26708984,-0.08203125,0.61035156,-4.0893555,6.225586,0.0,0.0,0.0,107.53967,74.84985,153.20984
1768998935864,-0.9423828,0.26708984,-0.08203125,0.61035156,-4.0893555,6.225586,0.0,0.0,0.0,105.65552,74.4928,151.50696
1768998935953,-0.97753906,0.23486328,-0.05908203,-8.117676,-3.112793,1.5258789,0.0,0.0,0.0,105.65552,74.4928,151.50696
1768998935964,-0.97753906,0.23486328,-0.05908203,-8.117676,-3.112793,1.5258789,0.0,0.0,0.0,103.13965,74.069824,148.7439
1768998936052,-0.9506836,0.28125,-0.037597656,-11.352539,-1.8920898,4.0283203,0.0,0.0,0.0,103.13965,74.069824,148.7439
1768998936064,-0.9506836,0.28125,-0.037597656,-11.352539,-1.8920898,4.0283203,0.0,0.0,0.0,101.26648,74.0918,147.33765
1768998936152,-0.9506836,0.33007812,-0.038085938,2.4414062,0.6713867,5.6152344,0.0,0.0,0.0,101.26648,74.0918,147.33765
1768998936163,-0.9506836,0.33007812,-0.038085938,2.4414062,0.6713867,5.6152344,0.0,0.0,0.0,100.530396,73.41614,146.76636
1768998936252,-0.98583984,0.31591797,-0.06591797,0.9765625,-4.9438477,2.1362305,0.0,0.0,0.0,100.530396,73.41614,146.76636
1768998936263,-0.98583984,0.31591797,-0.06591797,0.9765625,-4.9438477,2.1362305,0.0,0.0,0.0,99.33838,72.89978,144.67896
1768998936351,-0.9790039,0.3305664,-0.049804688,3.112793,-0.4272461,-3.7231445,0.0,0.0,0.0,99.33838,72.89978,144.67896
1768998936363,-0.9790039,0.3305664,-0.049804688,3.112793,-0.4272461,-3.7231445,0.0,0.0,0.0,98.53088,73.03162,143.15186
1768998936451,-0.94677734,0.31982422,-0.049804688,4.8828125,-5.9814453,-7.1411133,0.0,0.0,0.0,98.53088,73.03162,143.15186
1768998936463,-0.94677734,0.31982422,-0.049804688,4.8828125,-5.9814453,-7.1411133,0.0,0.0,0.0,98.00354,73.515015,141.56433
1768998936551,-1.0126953,0.29638672,-0.0034179688,-2.1972656,-0.7324219,-12.023926,0.0,0.0,0.0,98.00354,73.515015,141.56433
1768998936562,-1.0126953,0.29638672,-0.0034179688,-2.1972656,-0.7324219,-12.023926,0.0,0.0,0.0,97.17407,74.278564,139.92737
1768998936651,-0.9916992,0.27978516,-0.0390625,-7.9956055,-7.9345703,-18.188477,0.0,0.0,0.0,97.17407,74.278564,139.92737
1768998936662,-0.9916992,0.27978516,-0.0390625,-7.9956055,-7.9345703,-18.188477,0.0,0.0,0.0,95.93811,75.81116,138.90015
1768998936750,-0.95214844,0.26953125,-0.013671875,6.4086914,-11.84082,-26.855469,0.0,0.0,0.0,95.93811,75.81116,138.90015
1768998936762,-0.95214844,0.26953125,-0.013671875,6.4086914,-11.84082,-26.855469,0.0,0.0,0.0,91.87317,78.013916,133.98926
1768998936850,-1.0073242,0.20654297,-0.01171875,-4.3945312,-14.404297,-16.601562,0.0,0.0,0.0,91.87317,78.013916,133.98926
1768998936861,-1.0073242,0.20654297,-0.01171875,-4.3945312,-14.404297,-16.601562,0.0,0.0,0.0,86.92383,79.694824,128.46313
1768998936950,-0.98828125,0.12451172,0.018066406,-8.117676,-8.483887,-13.73291,0.0,0.0,0.0,86.92383,79.694824,128.46313
1768998936961,-0.98828125,0.12451172,0.018066406,-8.117676,-8.483887,-13.73291,0.0,0.0,0.0,78.53577,80.875854,120.15747
1768998937049,-0.9121094,0.106933594,0.0126953125,5.6762695,-3.0517578,-16.784668,0.0,0.0,0.0,78.53577,80.875854,120.15747
1768998937061,-0.9121094,0.106933594,0.0126953125,5.6762695,-3.0517578,-16.784668,0.0,0.0,0.0,71.5979,82.19971,112.736206
1768998937149,-0.9658203,0.036132812,0.01171875,-2.5024414,-13.916016,-7.5683594,0.0,0.0,0.0,71.5979,82.19971,112.736206
1768998937161,-0.9658203,0.036132812,0.01171875,-2.5024414,-13.916016,-7.5683594,0.0,0.0,0.0,60.1886,82.699585,100.88196
1768998937249,-0.9980469,0.041503906,0.10107422,-3.6010742,-15.563965,-4.8217773,0.0,0.0,0.0,60.1886,82.699585,100.88196
1768998937260,-0.9980469,0.041503906,0.10107422,-3.6010742,-15.563965,-4.8217773,0.0,0.0,0.0,50.663452,82.79297,91.14258
1768998937348,-0.98095703,0.041503906,0.09375,-2.8686523,-15.930176,-0.48828125,0.0,0.0,0.0,50.663452,82.79297,91.14258
1768998937360,-0.98095703,0.041503906,0.09375,-2.8686523,-15.930176,-0.48828125,0.0,0.0,0.0,39.940796,81.8866,80.21118
1768998937448,-0.9785156,0.068847656,0.12158203,-11.352539,-12.756348,6.4086914,0.0,0.0,0.0,39.940796,81.8866,80.21118
1768998937460,-0.9785156,0.068847656,0.12158203,-11.352539,-12.756348,6.4086914,0.0,0.0,0.0,36.23291,80.83191,76.761475
1768998937548,-0.9604492,0.095703125,0.17919922,-5.493164,-9.94873,10.681152,0.0,0.0,0.0,36.23291,80.83191,76.761475
1768998937560,-0.9604492,0.095703125,0.17919922,-5.493164,-9.94873,10.681152,0.0,0.0,0.0,36.260376,79.73877,76.92078
1768998937647,-0.9770508,0.10644531,0.18359375,-5.92041,-4.333496,13.916016,0.0,0.0,0.0,36.260376,79.73877,76.92078
1768998937659,-0.9770508,0.10644531,0.18359375,-5.92041,-4.333496,13.916016,0.0,0.0,0.0,38.40271,78.12927,79.37622
1768998937747,-0.98583984,0.1303711,0.16845703,-5.004883,-5.92041,14.709473,0.0,0.0,0.0,38.40271,78.12927,79.37622
1768998937759,-0.98583984,0.1303711,0.16845703,-5.004883,-5.92041,14.709473,0.0,0.0,0.0,40.962524,76.78894,81.68884
1768998937847,-0.9633789,0.19238281,0.19580078,-4.4555664,-9.643555,15.50293,0.0,0.0,0.0,40.962524,76.78894,81.68884
1768998937858,-0.9633789,0.19238281,0.19580078,-4.4555664,-9.643555,15.50293,0.0,0.0,0.0,43.308105,75.58594,83.809204
1768998937947,-0.94091797,0.2133789,0.23828125,-18.737793,-12.023926,22.644043,0.0,0.0,0.0,43.308105,75.58594,83.809204
1768998937958,-0.94091797,0.2133789,0.23828125,-18.737793,-12.023926,22.644043,0.0,0.0,0.0,43.901367,73.081055,85.44617
1768998938046,-0.9296875,0.24414062,0.22314453,4.0283203,3.7841797,13.000488,0.0,0.0,0.0,43.901367,73.081055,85.44617
1768998938058,-0.9296875,0.24414062,0.22314453,4.0283203,3.7841797,13.000488,0.0,0.0,0.0,46.241455,71.72424,87.75879
1768998938146,-0.9111328,0.30859375,0.22070312,-1.5869141,-3.9672852,8.544922,0.0,0.0,0.0,46.241455,71.72424,87.75879
1768998938157,-0.9111328,0.30859375,0.22070312,-1.5869141,-3.9672852,8.544922,0.0,0.0,0.0,49.01001,71.14197,89.37927
1768998938246,-0.93652344,0.28076172,0.22998047,6.7749023,1.2207031,4.1503906,0.0,0.0,0.0,49.01001,71.14197,89.37927
1768998938257,-0.93652344,0.28076172,0.22998047,6.7749023,1.2207031,4.1503906,0.0,0.0,0.0,50.26245,70.356445,90.14282
1768998938345,-0.94921875,0.28222656,0.22851562,1.7089844,0.79345703,3.2958984,0.0,0.0,0.0,50.26245,70.356445,90.14282
1768998938357,-0.94921875,0.28222656,0.22851562,1.7089844,0.79345703,3.2958984,0.0,0.0,0.0,51.432495,69.96643,90.12085
1768998938445,-0.94433594,0.27685547,0.20117188,0.5493164,0.91552734,5.065918,0.0,0.0,0.0,51.432495,69.96643,90.12085
1768998938457,-0.94433594,0.27685547,0.20117188,0.5493164,0.91552734,5.065918,0.0,0.0,0.0,52.56958,69.609375,90.43945
1768998938545,-0.9135742,0.23779297,0.20507812,4.760742,-7.2021484,-1.8310547,0.0,0.0,0.0,52.56958,69.609375,90.43945
1768998938556,-0.9135742,0.23779297,0.20507812,4.760742,-7.2021484,-1.8310547,0.0,0.0,0.0,53.62976,69.592896,90.582275
1768998938645,-0.9379883,0.3330078,0.203125,-6.8359375,-10.253906,4.0283203,0.0,0.0,0.0,53.62976,69.592896,90.582275
1768998938656,-0.9379883,0.3330078,0.203125,-6.8359375,-10.253906,4.0283203,0.0,0.0,0.0,51.40503,69.158936,88.24219
1768998938744,-0.9350586,0.28027344,0.2709961,3.479004,0.79345703,0.5493164,0.0,0.0,0.0,51.40503,69.158936,88.24219
1768998938756,-0.9350586,0.28027344,0.2709961,3.479004,0.79345703,0.5493164,0.0,0.0,0.0,50.526123,68.03833,87.58301
1768998938844,-0.9326172,0.3149414,0.24560547,-8.239746,-5.79834,0.4272461,0.0,0.0,0.0,50.526123,68.03833,87.58301
1768998938855,-0.9326172,0.3149414,0.24560547,-8.239746,-5.79834,0.4272461,0.0,0.0,0.0,50.394287,68.670044,86.23718
1768998938944,-0.93847656,0.31103516,0.29296875,10.375977,2.8686523,-5.1879883,0.0,0.0,0.0,50.394287,68.670044,86.23718
1768998938955,-0.93847656,0.31103516,0.29296875,10.375977,2.8686523,-5.1879883,0.0,0.0,0.0,48.482666,67.60437,85.55603
1768998939043,-0.9716797,0.28222656,0.24267578,-0.5493164,3.0517578,-5.9814453,0.0,0.0,0.0,48.482666,67.60437,85.55603
1768998939055,-0.9716797,0.28222656,0.24267578,-0.5493164,3.0517578,-5.9814453,0.0,0.0,0.0,49.509888,68.82385,83.792725
1768998939143,-0.91308594,0.3149414,0.27783203,0.4272461,6.225586,-7.6904297,0.0,0.0,0.0,49.509888,68.82385,83.792725
1768998939155,-0.91308594,0.3149414,0.27783203,0.4272461,6.225586,-7.6904297,0.0,0.0,0.0,48.845215,69.1864,83.583984
1768998939243,-0.94140625,0.28076172,0.23046875,6.286621,4.8828125,-14.404297,0.0,0.0,0.0,48.845215,69.1864,83.583984
1768998939254,-0.94140625,0.28076172,0.23046875,6.286621,4.8828125,-14.404297,0.0,0.0,0.0,48.50464,70.22461,81.293335
1768998939342,-0.95458984,0.29003906,0.20019531,12.817383,-5.1879883,-10.620117,0.0,0.0,0.0,48.50464,70.22461,81.293335
1768998939354,-0.95458984,0.29003906,0.20019531,12.817383,-5.1879883,-10.620117,0.0,0.0,0.0,46.2854,70.54321,78.480835
1768998939442,-0.9321289,0.2241211,0.23291016,15.869141,12.207031,-13.305664,0.0,0.0,0.0,46.2854,70.54321,78.480835
1768998939453,-0.9321289,0.2241211,0.23291016,15.869141,12.207031,-13.305664,0.0,0.0,0.0,46.42273,71.54297,75.72876
1768998939542,-0.9277344,0.2084961,0.20263672,13.793945,-1.953125,-21.057129,0.0,0.0,0.0,46.42273,71.54297,75.72876
1768998939553,-0.9277344,0.2084961,0.20263672,13.793945,-1.953125,-21.057129,0.0,0.0,0.0,45.725098,72.99866,73.23486
1768998939641,-0.94140625,0.15136719,0.18847656,14.221191,6.5307617,-25.024414,0.0,0.0,0.0,45.725098,72.99866,73.23486
1768998939653,-0.94140625,0.15136719,0.18847656,14.221191,6.5307617,-25.024414,0.0,0.0,0.0,41.550293,74.31702,67.58789
1768998939741,-1.0263672,0.11816406,0.17919922,-0.48828125,-5.79834,-25.32959,0.0,0.0,0.0,41.550293,74.31702,67.58789
1768998939753,-1.0263672,0.11816406,0.17919922,-0.48828125,-5.79834,-25.32959,0.0,0.0,0.0,35.403442,76.15723,59.9469
1768998939841,-1.0302734,0.056640625,0.10449219,-5.6762695,3.0517578,-10.375977,0.0,0.0,0.0,35.403442,76.15723,59.9469
1768998939852,-1.0302734,0.056640625,0.10449219,-5.6762695,3.0517578,-10.375977,0.0,0.0,0.0,27.471313,76.63513,52.684937
1768998939941,-0.88964844,0.03466797,0.20800781,7.019043,11.657715,-16.845703,0.0,0.0,0.0,27.471313,76.63513,52.684937
1768998939952,-0.88964844,0.03466797,0.20800781,7.019043,11.657715,-16.845703,0.0,0.0,0.0,23.637085,78.392944,48.71338
1768998940040,-0.9692383,-0.041992188,0.22167969,-5.6762695,-5.3710938,5.065918,0.0,0.0,0.0,23.637085,78.392944,48.71338
1768998940052,-0.9692383,-0.041992188,0.22167969,-5.6762695,-5.3710938,5.065918,0.0,0.0,0.0,20.895996,78.88733,46.098633
1768998940140,-1.0292969,0.0107421875,0.16503906,-9.521484,-1.4038086,7.8125,0.0,0.0,0.0,20.895996,78.88733,46.098633
1768998940151,-1.0292969,0.0107421875,0.16503906,-9.521484,-1.4038086,7.8125,0.0,0.0,0.0,21.456299,78.30505,47.180786
1768998940240,-0.96191406,0.076171875,0.16308594,3.6621094,2.4414062,10.986328,0.0,0.0,0.0,21.456299,78.30505,47.180786
1768998940251,-0.96191406,0.076171875,0.16308594,3.6621094,2.4414062,10.986328,0.0,0.0,0.0,24.142456,78.0249,50.64148
1768998940339,-0.95166016,0.095703125,0.1899414,-7.080078,0.79345703,20.446777,0.0,0.0,0.0,24.142456,78.0249,50.64148
1768998940351,-0.95166016,0.095703125,0.1899414,-7.080078,0.79345703,20.446777,0.0,0.0,0.0,30.855103,77.492065,57.65625
1768998940439,-0.9560547,0.1430664,0.17871094,-7.5683594,-2.6855469,30.334473,0.0,0.0,0.0,30.855103,77.492065,57.65625
1768998940451,-0.9560547,0.1430664,0.17871094,-7.5683594,-2.6855469,30.334473,0.0,0.0,0.0,38.638916,76.069336,66.02234
1768998940539,-0.95654297,0.20019531,0.16601562,2.9907227,-0.18310547,23.68164,0.0,0.0,0.0,38.638916,76.069336,66.02234
1768998940550,-0.95654297,0.20019531,0.16601562,2.9907227,-0.18310547,23.68164,0.0,0.0,0.0,45.07141,74.262085,73.11401
1768998940638,-0.9785156,0.27148438,0.19384766,0.30517578,-4.4555664,15.686035,0.0,0.0,0.0,45.07141,74.262085,73.11401
1768998940650,-0.9785156,0.27148438,0.19384766,0.30517578,-4.4555664,15.686035,0.0,0.0,0.0,49.4989,72.8009,78.05786
1768998940738,-0.9394531,0.31445312,0.1850586,12.145996,-8.850098,5.3710938,0.0,0.0,0.0,49.4989,72.8009,78.05786
1768998940750,-0.9394531,0.31445312,0.1850586,12.145996,-8.850098,5.3710938,0.0,0.0,0.0,50.81726,71.361694,79.04663
1768998940838,-0.94873047,0.27734375,0.25585938,-0.18310547,-0.061035156,-3.6621094,0.0,0.0,0.0,50.81726,71.361694,79.04663
1768998940849,-0.94873047,0.27734375,0.25585938,-0.18310547,-0.061035156,-3.6621094,0.0,0.0,0.0,51.311646,71.30127,78.046875
1768998940937,-0.9267578,0.2836914,0.21777344,-2.1972656,3.479004,-12.878418,0.0,0.0,0.0,51.311646,71.30127,78.046875
1768998940949,-0.9267578,0.2836914,0.21777344,-2.1972656,3.479004,-12.878418,0.0,0.0,0.0,48.933105,71.674805,76.49231
1768998941037,-0.9741211,0.23486328,0.20410156,2.380371,-5.1879883,-13.244629,0.0,0.0,0.0,48.933105,71.674805,76.49231
1768998941049,-0.9741211,0.23486328,0.20410156,2.380371,-5.1879883,-13.244629,0.0,0.0,0.0,45.653687,72.21863,72.58667
1768998941137,-0.95703125,0.18310547,0.22851562,0.9765625,-2.5634766,-13.366699,0.0,0.0,0.0,45.653687,72.21863,72.58667
1768998941148,-0.95703125,0.18310547,0.22851562,0.9765625,-2.5634766,-13.366699,0.0,0.0,0.0,42.87964,72.79541,69.16443
1768998941237,-0.9580078,0.15283203,0.23632812,-3.6621094,5.554199,-6.8359375,0.0,0.0,0.0,42.87964,72.79541,69.16443
1768998941248,-0.9580078,0.15283203,0.23632812,-3.6621094,5.554199,-6.8359375,0.0,0.0,0.0,39.484863,73.01514,65.70923
1768998941336,-0.9370117,0.16552734,0.21826172,4.638672,1.4648438,-4.699707,0.0,0.0,0.0,39.484863,73.01514,65.70923
1768998941348,-0.9370117,0.16552734,0.21826172,4.638672,1.4648438,-4.699707,0.0,0.0,0.0,38.215942,73.635864,64.105225
1768998941436,-0.98828125,0.12988281,0.19824219,8.605957,0.48828125,-0.18310547,0.0,0.0,0.0,38.215942,73.635864,64.105225
1768998941448,-0.98828125,0.12988281,0.19824219,8.605957,0.48828125,-0.18310547,0.0,0.0,0.0,38.166504,73.844604,63.083496
1768998941536,-0.96240234,0.16113281,0.21777344,1.5869141,0.30517578,3.2348633,0.0,0.0,0.0,38.166504,73.844604,63.083496
1768998941547,-0.96240234,0.16113281,0.21777344,1.5869141,0.30517578,3.2348633,0.0,0.0,0.0,39.193726,73.92151,63.896484
1768998941636,-0.86816406,0.13964844,0.20996094,6.3476562,9.460449,-3.4179688,0.0,0.0,0.0,39.193726,73.92151,63.896484
1768998941647,-0.86816406,0.13964844,0.20996094,6.3476562,9.460449,-3.4179688,0.0,0.0,0.0,40.286865,73.89404,65.05554
1768998941735,-0.9536133,0.19335938,0.22998047,-9.887695,21.484375,3.90625,0.0,0.0,0.0,40.286865,73.89404,65.05554
1768998941747,-0.9536133,0.19335938,0.22998047,-9.887695,21.484375,3.90625,0.0,0.0,0.0,40.929565,73.526,66.483765
1768998941835,-0.97558594,0.16601562,0.14453125,10.925293,-13.916016,2.4414062,0.0,0.0,0.0,40.929565,73.526,66.483765
1768998941846,-0.97558594,0.16601562,0.14453125,10.925293,-13.916016,2.4414062,0.0,0.0,0.0,40.924072,73.23486,66.22009
1768998941934,-0.99121094,0.23583984,0.22021484,-18.310547,-11.84082,1.0986328,0.0,0.0,0.0,40.924072,73.23486,66.22009
1768998941946,-0.99121094,0.23583984,0.22021484,-18.310547,-11.84082,1.0986328,0.0,0.0,0.0,41.187744,73.69629,65.857544
1768998942034,-0.91845703,0.27148438,0.28808594,10.253906,-1.7089844,-7.751465,0.0,0.0,0.0,41.187744,73.69629,65.857544
1768998942046,-0.91845703,0.27148438,0.28808594,10.253906,-1.7089844,-7.751465,0.0,0.0,0.0,41.03943,73.619385,66.23108
1768998942134,-0.9477539,0.17822266,0.19726562,18.981934,-5.432129,-15.075684,0.0,0.0,0.0,41.03943,73.619385,66.23108
1768998942145,-0.9477539,0.17822266,0.19726562,18.981934,-5.432129,-15.075684,0.0,0.0,0.0,37.441406,73.70178,60.545654
1768998942234,-0.9511719,0.095214844,0.26513672,-6.4697266,2.746582,-22.155762,0.0,0.0,0.0,37.441406,73.70178,60.545654
1768998942245,-0.9511719,0.095214844,0.26513672,-6.4697266,2.746582,-22.155762,0.0,0.0,0.0,33.217163,74.30603,56.21704
1768998942333,-0.98291016,0.12939453,0.18798828,-14.831543,-2.746582,-12.817383,0.0,0.0,0.0,33.217163,74.30603,56.21704
1768998942345,-0.98291016,0.12939453,0.18798828,-14.831543,-2.746582,-12.817383,0.0,0.0,0.0,24.58191,75.71228,48.24646
1768998942433,-0.9526367,0.09716797,0.2397461,17.51709,1.5258789,-19.958496,0.0,0.0,0.0,24.58191,75.71228,48.24646
1768998942444,-0.9526367,0.09716797,0.2397461,17.51709,1.5258789,-19.958496,0.0,0.0,0.0,20.214844,76.60217,43.66516
1768998942533,-0.96435547,0.020996094,0.234375,6.0424805,6.4697266,1.2817383,0.0,0.0,0.0,20.214844,76.60217,43.66516
1768998942544,-0.96435547,0.020996094,0.234375,6.0424805,6.4697266,1.2817383,0.0,0.0,0.0,17.924194,76.60217,39.347534
1768998942632,-0.9633789,0.11035156,0.16796875,5.1879883,-7.5683594,2.0141602,0.0,0.0,0.0,17.924194,76.60217,39.347534
1768998942644,-0.9633789,0.11035156,0.16796875,5.1879883,-7.5683594,2.0141602,0.0,0.0,0.0,17.682495,76.37695,38.979492
1768998942732,-0.9785156,0.060546875,0.20263672,14.404297,6.3476562,6.8969727,0.0,0.0,0.0,17.682495,76.37695,38.979492
1768998942744,-0.9785156,0.060546875,0.20263672,14.404297,6.3476562,6.8969727,0.0,0.0,0.0,20.945435,76.58569,40.951538
1768998942832,-1.0351562,-9.765625E-4,0.17675781,-23.07129,-2.8686523,7.873535,0.0,0.0,0.0,20.945435,76.58569,40.951538
1768998942843,-1.0351562,-9.765625E-4,0.17675781,-23.07129,-2.8686523,7.873535,0.0,0.0,0.0,21.291504,77.45361,42.62146
1768998942931,-0.9248047,0.12402344,0.1953125,-6.713867,-3.1738281,-4.0893555,0.0,0.0,0.0,21.291504,77.45361,42.62146
1768998942943,-0.9248047,0.12402344,0.1953125,-6.713867,-3.1738281,-4.0893555,0.0,0.0,0.0,20.917969,77.49756,43.796997
1768998943031,-1.0161133,0.05078125,0.18554688,-14.953613,3.6621094,6.4697266,0.0,0.0,0.0,20.917969,77.49756,43.796997
1768998943043,-1.0161133,0.05078125,0.18554688,-14.953613,3.6621094,6.4697266,0.0,0.0,0.0,21.126709,77.42615,44.857178
1768998943131,-0.9892578,0.09326172,0.18945312,0.0,-3.2958984,-4.760742,0.0,0.0,0.0,21.126709,77.42615,44.857178
1768998943142,-0.9892578,0.09326172,0.18945312,0.0,-3.2958984,-4.760742,0.0,0.0,0.0,20.43457,77.73926,44.961548
1768998943231,-0.9511719,0.099121094,0.17773438,-6.286621,5.004883,1.7700195,0.0,0.0,0.0,20.43457,77.73926,44.961548
1768998943243,-0.9511719,0.099121094,0.17773438,-6.286621,5.004883,1.7700195,0.0,0.0,0.0,20.857544,78.167725,45.791016
1768998943330,-1.0117188,0.08691406,0.20654297,-7.5683594,3.7841797,8.300781,0.0,0.0,0.0,20.857544,78.167725,45.791016
1768998943342,-1.0117188,0.08691406,0.20654297,-7.5683594,3.7841797,8.300781,0.0,0.0,0.0,24.554443,78.4314,49.954834
1768998943430,-1.0092773,0.07861328,0.16699219,9.094238,-0.5493164,-4.3945312,0.0,0.0,0.0,24.554443,78.4314,49.954834
1768998943442,-1.0092773,0.07861328,0.16699219,9.094238,-0.5493164,-4.3945312,0.0,0.0,0.0,26.207886,78.513794,51.784058
1768998943530,-0.96728516,0.05810547,0.15283203,-1.8920898,1.4038086,-1.7700195,0.0,0.0,0.0,26.207886,78.513794,51.784058
1768998943541,-0.96728516,0.05810547,0.15283203,-1.8920898,1.4038086,-1.7700195,0.0,0.0,0.0,24.58191,78.568726,49.696655
1768998943629,-0.96728516,0.14013672,0.15039062,-6.8359375,-3.3569336,1.8310547,0.0,0.0,0.0,24.58191,78.568726,49.696655
1768998943641,-0.96728516,0.14013672,0.15039062,-6.8359375,-3.3569336,1.8310547,0.0,0.0,0.0,24.488525,78.689575,49.817505
1768998943729,-0.98291016,0.06347656,0.1796875,8.666992,-2.0141602,0.30517578,0.0,0.0,0.0,24.488525,78.689575,49.817505
1768998943741,-0.98291016,0.06347656,0.1796875,8.666992,-2.0141602,0.30517578,0.0,0.0,0.0,24.993896,78.31055,49.729614
1768998943829,-0.9785156,0.09423828,0.18554688,3.1738281,0.6713867,4.211426,0.0,0.0,0.0,24.993896,78.31055,49.729614
1768998943840,-0.9785156,0.09423828,0.18554688,3.1738281,0.6713867,4.211426,0.0,0.0,0.0,26.625366,78.0249,51.28418
1768998943928,-1.0175781,0.072753906,0.1743164,-0.18310547,-1.8310547,2.0751953,0.0,0.0,0.0,26.625366,78.0249,51.28418
1768998943940,-1.0175781,0.072753906,0.1743164,-0.18310547,-1.8310547,2.0751953,0.0,0.0,0.0,27.476807,77.88208,52.03125
1768998944028,-0.97753906,0.08300781,0.18115234,0.61035156,-0.4272461,0.30517578,0.0,0.0,0.0,27.476807,77.88208,52.03125
1768998944040,-0.97753906,0.08300781,0.18115234,0.61035156,-0.4272461,0.30517578,0.0,0.0,0.0,26.850586,78.0249,51.23474
1768998944128,-0.9433594,0.10449219,0.19677734,-3.6621094,3.8452148,-0.79345703,0.0,0.0,0.0,26.850586,78.0249,51.23474
1768998944139,-0.9433594,0.10449219,0.19677734,-3.6621094,3.8452148,-0.79345703,0.0,0.0,0.0,26.482544,78.239136,51.25122
1768998944228,-0.97753906,0.115234375,0.1772461,-2.9907227,2.9296875,3.90625,0.0,0.0,0.0,26.482544,78.239136,51.25122
1768998944239,-0.97753906,0.115234375,0.1772461,-2.9907227,2.9296875,3.90625,0.0,0.0,0.0,27.89978,78.32153,53.250732
1768998944327,-0.9765625,0.111816406,0.17333984,9.094238,0.8544922,-0.7324219,0.0,0.0,0.0,27.89978,78.32153,53.250732
1768998944339,-0.9765625,0.111816406,0.17333984,9.094238,0.8544922,-0.7324219,0.0,0.0,0.0,30.113525,78.349,55.39856
1768998944427,-1.0146484,0.080566406,0.16845703,1.6479492,-3.2958984,1.159668,0.0,0.0,0.0,30.113525,78.349,55.39856
1768998944438,-1.0146484,0.080566406,0.16845703,1.6479492,-3.2958984,1.159668,0.0,0.0,0.0,30.234375,78.118286,54.87671
1768998944527,-0.96875,0.122558594,0.16748047,-10.009766,2.9296875,1.3427734,0.0,0.0,0.0,30.234375,78.118286,54.87671
1768998944538,-0.96875,0.122558594,0.16748047,-10.009766,2.9296875,1.3427734,0.0,0.0,0.0,30.355225,78.20618,55.618286
1768998944626,-0.9824219,0.106933594,0.15527344,1.3427734,1.8920898,-0.8544922,0.0,0.0,0.0,30.355225,78.20618,55.618286
1768998944638,-0.9824219,0.106933594,0.15527344,1.3427734,1.8920898,-0.8544922,0.0,0.0,0.0,30.80017,78.42041,56.326904
1768998944726,-0.9814453,0.087890625,0.16992188,3.2958984,2.0751953,-0.61035156,0.0,0.0,0.0,30.80017,78.42041,56.326904
1768998944737,-0.9814453,0.087890625,0.16992188,3.2958984,2.0751953,-0.61035156,0.0,0.0,0.0,31.530762,78.706055,56.727905
1768998944826,-0.9550781,0.10498047,0.14550781,-5.1879883,2.6855469,1.5869141,0.0,0.0,0.0,31.530762,78.706055,56.727905
1768998944837,-0.9550781,0.10498047,0.14550781,-5.1879883,2.6855469,1.5869141,0.0,0.0,0.0,32.574463,78.89282,58.150635
1768998944925,-0.9848633,0.106933594,0.15429688,3.90625,5.3710938,0.7324219,0.0,0.0,0.0,32.574463,78.89282,58.150635
1768998944937,-0.9848633,0.106933594,0.15429688,3.90625,5.3710938,0.7324219,0.0,0.0,0.0,33.832397,78.96423,59.40857
1768998945025,-1.0,0.107910156,0.13964844,-1.5869141,1.5258789,0.0,0.0,0.0,0.0,33.832397,78.96423,59.40857
1768998945037,-1.0,0.107910156,0.13964844,-1.5869141,1.5258789,0.0,0.0,0.0,0.0,34.40918,79.090576,60.045776
1768998945125,-0.9785156,0.118652344,0.14550781,2.1972656,-1.2817383,-2.8076172,0.0,0.0,0.0,34.40918,79.090576,60.045776
1768998945136,-0.9785156,0.118652344,0.14550781,2.1972656,-1.2817383,-2.8076172,0.0,0.0,0.0,34.277344,79.260864,59.837036
1768998945225,-0.9785156,0.10498047,0.14013672,2.746582,-3.112793,-3.3569336,0.0,0.0,0.0,34.277344,79.260864,59.837036
1768998945236,-0.9785156,0.10498047,0.14013672,2.746582,-3.112793,-3.3569336,0.0,0.0,0.0,33.167725,79.16199,58.55713
1768998945324,-0.99072266,0.095214844,0.12939453,6.286621,-4.8828125,-2.8686523,0.0,0.0,0.0,33.167725,79.16199,58.55713
1768998945336,-0.99072266,0.095214844,0.12939453,6.286621,-4.8828125,-2.8686523,0.0,0.0,0.0,30.426636,78.98071,54.98108
1768998945424,-0.9746094,0.107421875,0.16845703,10.253906,1.6479492,-0.9765625,0.0,0.0,0.0,30.426636,78.98071,54.98108
1768998945435,-0.9746094,0.107421875,0.16845703,10.253906,1.6479492,-0.9765625,0.0,0.0,0.0,30.201416,79.107056,53.69568
1768998945524,-0.97802734,0.11328125,0.15820312,4.699707,-2.5634766,1.4648438,0.0,0.0,0.0,30.201416,79.107056,53.69568
1768998945535,-0.97802734,0.11328125,0.15820312,4.699707,-2.5634766,1.4648438,0.0,0.0,0.0,30.525513,78.898315,53.52539
1768998945623,-0.99853516,0.10205078,0.15185547,7.446289,2.319336,-0.91552734,0.0,0.0,0.0,30.525513,78.898315,53.52539
1768998945635,-0.99853516,0.10205078,0.15185547,7.446289,2.319336,-0.91552734,0.0,0.0,0.0,31.486816,78.85437,54.091187
1768998945723,-0.9951172,0.09326172,0.16113281,0.9765625,-0.79345703,-0.91552734,0.0,0.0,0.0,31.486816,78.85437,54.091187
1768998945735,-0.9951172,0.09326172,0.16113281,0.9765625,-0.79345703,-0.91552734,0.0,0.0,0.0,31.640625,78.95325,53.811035
1768998945823,-0.9707031,0.10644531,0.16308594,-1.4038086,-1.8310547,-0.12207031,0.0,0.0,0.0,31.640625,78.95325,53.811035
1768998945835,-0.9707031,0.10644531,0.16308594,-1.4038086,-1.8310547,-0.12207031,0.0,0.0,0.0,31.168213,78.90381,53.48694
1768998945923,-0.9863281,0.110839844,0.16259766,-1.0375977,-1.4648438,0.061035156,0.0,0.0,0.0,31.168213,78.90381,53.48694
1768998945934,-0.9863281,0.110839844,0.16259766,-1.0375977,-1.4648438,0.061035156,0.0,0.0,0.0,30.80017,78.70056,53.459473
1768998946022,-0.9946289,0.096191406,0.1640625,2.1362305,-1.4648438,-0.061035156,0.0,0.0,0.0,30.80017,78.70056,53.459473
1768998946034,-0.9946289,0.096191406,0.1640625,2.1362305,-1.4648438,-0.061035156,0.0,0.0,0.0,30.6958,78.585205,53.33313
1768998946122,-0.9868164,0.09765625,0.15136719,2.4414062,-0.61035156,-0.12207031,0.0,0.0,0.0,30.6958,78.585205,53.33313
1768998946134,-0.9868164,0.09765625,0.15136719,2.4414062,-0.61035156,-0.12207031,0.0,0.0,0.0,30.481567,78.53577,52.992554
1768998946222,-0.9741211,0.10644531,0.16748047,1.3427734,-2.380371,0.5493164,0.0,0.0,0.0,30.481567,78.53577,52.992554
1768998946233,-0.9741211,0.10644531,0.16748047,1.3427734,-2.380371,0.5493164,0.0,0.0,0.0,30.717773,78.48633,53.168335
1768998946321,-0.9941406,0.10107422,0.17041016,0.5493164,-2.4414062,0.6713867,0.0,0.0,0.0,30.717773,78.48633,53.168335
1768998946333,-0.9941406,0.10107422,0.17041016,0.5493164,-2.4414062,0.6713867,0.0,0.0,0.0,30.734253,78.272095,53.26172
1768998946421,-0.9550781,0.119140625,0.16357422,0.18310547,-1.7700195,1.7700195,0.0,0.0,0.0,30.734253,78.272095,53.26172
1768998946433,-0.9550781,0.119140625,0.16357422,0.18310547,-1.7700195,1.7700195,0.0,0.0,0.0,30.404663,78.22266,52.98706
1768998946521,-1.0087891,0.11816406,0.17333984,8.117676,-3.2348633,2.319336,0.0,0.0,0.0,30.404663,78.22266,52.98706
1768998946532,-1.0087891,0.11816406,0.17333984,8.117676,-3.2348633,2.319336,0.0,0.0,0.0,32.129517,77.750244,54.3219
1768998946620,-0.9790039,0.115234375,0.16503906,-5.432129,-4.638672,-1.3427734,0.0,0.0,0.0,32.129517,77.750244,54.3219
1768998946632,-0.9790039,0.115234375,0.16503906,-5.432129,-4.638672,-1.3427734,0.0,0.0,0.0,31.300049,77.56348,53.49243
1768998946720,-0.95751953,0.08691406,0.19384766,2.8076172,-1.7089844,-3.112793,0.0,0.0,0.0,31.300049,77.56348,53.49243
1768998946732,-0.95751953,0.08691406,0.19384766,2.8076172,-1.7089844,-3.112793,0.0,0.0,0.0,29.454346,77.45361,51.43799
1768998946820,-0.9814453,0.119628906,0.17919922,-0.24414062,-2.9907227,0.0,0.0,0.0,0.0,29.454346,77.45361,51.43799
1768998946831,-0.9814453,0.119628906,0.17919922,-0.24414062,-2.9907227,0.0,0.0,0.0,0.0,29.020386,77.316284,51.207275
1768998946920,-0.9838867,0.103515625,0.19042969,-1.2207031,-0.30517578,0.30517578,0.0,0.0,0.0,29.020386,77.316284,51.207275
1768998946931,-0.9838867,0.103515625,0.19042969,-1.2207031,-0.30517578,0.30517578,0.0,0.0,0.0,28.7677,77.211914,51.14685
1768998947019,-0.97753906,0.107910156,0.18603516,0.5493164,-0.36621094,0.0,0.0,0.0,0.0,28.7677,77.211914,51.14685
1768998947031,-0.97753906,0.107910156,0.18603516,0.5493164,-0.36621094,0.0,0.0,0.0,0.0,28.613892,77.12952,51.1084
1768998947119,-0.96484375,0.1171875,0.20166016,1.5258789,-1.159668,-0.12207031,0.0,0.0,0.0,28.613892,77.12952,51.1084
1768998947131,-0.96484375,0.1171875,0.20166016,1.5258789,-1.159668,-0.12207031,0.0,0.0,0.0,28.75122,77.1405,51.262207
1768998947219,-0.9711914,0.111816406,0.19140625,0.8544922,0.0,-0.12207031,0.0,0.0,0.0,28.75122,77.1405,51.262207
1768998947230,-0.9711914,0.111816406,0.19140625,0.8544922,0.0,-0.12207031,0.0,0.0,0.0,28.668823,76.99219,51.23474
1768998947318,-0.97509766,0.109375,0.1899414,0.4272461,-2.5634766,0.12207031,0.0,0.0,0.0,28.668823,76.99219,51.23474
1768998947330,-0.97509766,0.109375,0.1899414,0.4272461,-2.5634766,0.12207031,0.0,0.0,0.0,28.536987,76.9043,51.053467
1768998947418,-0.96191406,0.11279297,0.19873047,0.4272461,-0.9765625,-0.12207031,0.0,0.0,0.0,28.536987,76.9043,51.053467
1768998947430,-0.96191406,0.11279297,0.19873047,0.4272461,-0.9765625,-0.12207031,0.0,0.0,0.0,28.476562,76.832886,50.965576
1768998947518,-0.9892578,0.109375,0.19335938,0.30517578,-1.0986328,0.61035156,0.0,0.0,0.0,28.476562,76.832886,50.965576
1768998947529,-0.9892578,0.109375,0.19335938,0.30517578,-1.0986328,0.61035156,0.0,0.0,0.0,28.498535,76.76697,50.910645
1768998947621,-0.9794922,0.11230469,0.20703125,-0.79345703,-1.4038086,0.36621094,0.0,0.0,0.0,28.498535,76.76697,50.910645
1768998947629,-0.9794922,0.11230469,0.20703125,-0.79345703,-1.4038086,0.36621094,0.0,0.0,0.0,28.47107,76.673584,50.916138
1768998947717,-0.97998047,0.11425781,0.19824219,-1.2817383,-0.36621094,1.0375977,0.0,0.0,0.0,28.47107,76.673584,50.916138
1768998947729,-0.97998047,0.11425781,0.19824219,-1.2817383,-0.36621094,1.0375977,0.0,0.0,0.0,28.55896,76.552734,51.152344
1768998947817,-0.9501953,0.13134766,0.19189453,-1.953125,-0.6713867,0.6713867,0.0,0.0,0.0,28.55896,76.552734,51.152344
1768998947829,-0.9501953,0.13134766,0.19189453,-1.953125,-0.6713867,0.6713867,0.0,0.0,0.0,28.668823,76.57471,51.366577
1768998947917,-0.94628906,0.08984375,0.22314453,-0.48828125,3.9672852,2.5024414,0.0,0.0,0.0,28.668823,76.57471,51.366577
1768998947929,-0.94628906,0.08984375,0.22314453,-0.48828125,3.9672852,2.5024414,0.0,0.0,0.0,30.130005,76.60217,52.684937
1768998948017,-0.9951172,0.109375,0.19726562,2.4414062,9.58252,-0.8544922,0.0,0.0,0.0,30.130005,76.60217,52.684937
1768998948028,-0.9951172,0.109375,0.19726562,2.4414062,9.58252,-0.8544922,0.0,0.0,0.0,31.256104,76.71753,54.09668
1768998948116,-1.0180664,0.08886719,0.18359375,-13.977051,2.319336,4.211426,0.0,0.0,0.0,31.256104,76.71753,54.09668
1768998948128,-1.0180664,0.08886719,0.18359375,-13.977051,2.319336,4.211426,0.0,0.0,0.0,31.849365,76.97571,55.217285
1768998948216,-0.9770508,0.16992188,0.16845703,-6.7749023,1.8920898,1.953125,0.0,0.0,0.0,31.849365,76.97571,55.217285
1768998948227,-0.9770508,0.16992188,0.16845703,-6.7749023,1.8920898,1.953125,0.0,0.0,0.0,32.508545,77.18994,56.59607
1768998948316,-0.98876953,0.11816406,0.17333984,-6.713867,-4.272461,3.2958984,0.0,0.0,0.0,32.508545,77.18994,56.59607
1768998948327,-0.98876953,0.11816406,0.17333984,-6.713867,-4.272461,3.2958984,0.0,0.0,0.0,32.96997,77.32178,57.266235
1768998948415,-0.95654297,0.1821289,0.18896484,4.1503906,-1.5258789,-1.2817383,0.0,0.0,0.0,32.96997,77.32178,57.266235
1768998948427,-0.95654297,0.1821289,0.18896484,4.1503906,-1.5258789,-1.2817383,0.0,0.0,0.0,33.530273,77.18445,58.029785
1768998948515,-0.93652344,0.13427734,0.18701172,1.6479492,0.24414062,-0.6713867,0.0,0.0,0.0,33.530273,77.18445,58.029785
1768998948527,-0.93652344,0.13427734,0.18701172,1.6479492,0.24414062,-0.6713867,0.0,0.0,0.0,33.458862,77.01416,57.58484
1768998948615,-0.9785156,0.1381836,0.15527344,1.6479492,-4.5776367,-1.3427734,0.0,0.0,0.0,33.458862,77.01416,57.58484
1768998948626,-0.9785156,0.1381836,0.15527344,1.6479492,-4.5776367,-1.3427734,0.0,0.0,0.0,32.541504,76.78894,56.211548
1768998948714,-1.0185547,0.067871094,0.20507812,-6.4697266,-4.699707,0.79345703,0.0,0.0,0.0,32.541504,76.78894,56.211548
1768998948726,-1.0185547,0.067871094,0.20507812,-6.4697266,-4.699707,0.79345703,0.0,0.0,0.0,31.311035,76.49231,55.05249
1768998948814,-0.953125,0.13916016,0.24560547,-3.9672852,-3.479004,1.953125,0.0,0.0,0.0,31.311035,76.49231,55.05249
1768998948826,-0.953125,0.13916016,0.24560547,-3.9672852,-3.479004,1.953125,0.0,0.0,0.0,30.618896,76.21216,54.645996
1768998948914,-0.9663086,0.14160156,0.23242188,-6.713867,1.2207031,-3.112793,0.0,0.0,0.0,30.618896,76.21216,54.645996
1768998948925,-0.9663086,0.14160156,0.23242188,-6.713867,1.2207031,-3.112793,0.0,0.0,0.0,29.179688,76.085815,53.87146
1768998949013,-0.9995117,0.14648438,0.21972656,3.112793,5.6762695,-4.5776367,0.0,0.0,0.0,29.179688,76.085815,53.87146
1768998949025,-0.9995117,0.14648438,0.21972656,3.112793,5.6762695,-4.5776367,0.0,0.0,0.0,28.861084,76.415405,53.569336
1768998949113,-0.98583984,0.095703125,0.17919922,-2.5024414,6.0424805,-3.4179688,0.0,0.0,0.0,28.861084,76.415405,53.569336
1768998949125,-0.98583984,0.095703125,0.17919922,-2.5024414,6.0424805,-3.4179688,0.0,0.0,0.0,28.87207,76.865845,53.096924
1768998949213,-0.9628906,0.079589844,0.18945312,-6.0424805,6.1035156,-1.8920898,0.0,0.0,0.0,28.87207,76.865845,53.096924
1768998949224,-0.9628906,0.079589844,0.18945312,-6.0424805,6.1035156,-1.8920898,0.0,0.0,0.0,28.97644,77.492065,53.31665
1768998949313,-0.98095703,0.09863281,0.14697266,1.159668,4.699707,0.12207031,0.0,0.0,0.0,28.97644,77.492065,53.31665
1768998949324,-0.98095703,0.09863281,0.14697266,1.159668,4.699707,0.12207031,0.0,0.0,0.0,30.119019,77.88757,54.596558
1768998949412,-0.9794922,0.09082031,0.17333984,-2.1362305,6.164551,-2.4414062,0.0,0.0,0.0,30.119019,77.88757,54.596558
1768998949424,-0.9794922,0.09082031,0.17333984,-2.1362305,6.164551,-2.4414062,0.0,0.0,0.0,30.684814,78.480835,55.11841
1768998949512,-0.9458008,0.125,0.14697266,1.2207031,1.4648438,-1.8920898,0.0,0.0,0.0,30.684814,78.480835,55.11841
1768998949524,-0.9458008,0.125,0.14697266,1.2207031,1.4648438,-1.8920898,0.0,0.0,0.0,30.997925,78.76648,55.55237
1768998949612,-0.99560547,0.095703125,0.15966797,1.8920898,2.9907227,0.061035156,0.0,0.0,0.0,30.997925,78.76648,55.55237
1768998949623,-0.99560547,0.095703125,0.15966797,1.8920898,2.9907227,0.061035156,0.0,0.0,0.0,31.635132,78.78845,55.96985
1768998949712,-0.9794922,0.096191406,0.13378906,5.065918,-2.9907227,-0.48828125,0.0,0.0,0.0,31.635132,78.78845,55.96985
1768998949723,-0.9794922,0.096191406,0.13378906,5.065918,-2.9907227,-0.48828125,0.0,0.0,0.0,30.860596,78.552246,54.77234
1768998949811,-0.984375,0.12451172,0.17285156,-0.48828125,-1.0375977,1.953125,0.0,0.0,0.0,30.860596,78.552246,54.77234
1768998949823,-0.984375,0.12451172,0.17285156,-0.48828125,-1.0375977,1.953125,0.0,0.0,0.0,31.052856,78.376465,54.761353
1768998949911,-1.0292969,0.07128906,0.1508789,-0.79345703,-10.314941,2.746582,0.0,0.0,0.0,31.052856,78.376465,54.761353
1768998949922,-1.0292969,0.07128906,0.1508789,-0.79345703,-10.314941,2.746582,0.0,0.0,0.0,30.569458,77.96997,53.745117
1768998950011,-0.97216797,0.1352539,0.23242188,-4.5776367,-4.5166016,-1.4038086,0.0,0.0,0.0,30.569458,77.96997,53.745117
1768998950023,-0.97216797,0.1352539,0.23242188,-4.5776367,-4.5166016,-1.4038086,0.0,0.0,0.0,30.08606,77.700806,53.26172
1768998950110,-0.9536133,0.119628906,0.20214844,1.5869141,-0.8544922,-1.4038086,0.0,0.0,0.0,30.08606,77.700806,53.26172
1768998950122,-0.9536133,0.119628906,0.20214844,1.5869141,-0.8544922,-1.4038086,0.0,0.0,0.0,29.295044,77.4646,52.509155
1768998950217,-0.97265625,0.09863281,0.20703125,0.8544922,1.8310547,-1.4648438,0.0,0.0,0.0,29.295044,77.4646,52.509155
1768998950222,-0.97265625,0.09863281,0.20703125,0.8544922,1.8310547,-1.4648438,0.0,0.0,0.0,28.674316,77.55249,51.68518
1768998950310,-0.96484375,0.10253906,0.18115234,0.8544922,6.225586,2.9296875,0.0,0.0,0.0,28.674316,77.55249,51.68518
1768998950321,-0.96484375,0.10253906,0.18115234,0.8544922,6.225586,2.9296875,0.0,0.0,0.0,30.113525,77.72278,53.031006
1768998950410,-1.0009766,0.08251953,0.19433594,-6.591797,5.7373047,1.7700195,0.0,0.0,0.0,30.113525,77.72278,53.031006
1768998950421,-1.0009766,0.08251953,0.19433594,-6.591797,5.7373047,1.7700195,0.0,0.0,0.0,31.56372,77.87659,54.854736
1768998950509,-0.97802734,0.14404297,0.14550781,-2.1972656,1.4038086,-2.0751953,0.0,0.0,0.0,31.56372,77.87659,54.854736
1768998950521,-0.97802734,0.14404297,0.14550781,-2.1972656,1.4038086,-2.0751953,0.0,0.0,0.0,31.140747,78.12378,55.145874
1768998950609,-0.9848633,0.13671875,0.16259766,8.483887,1.2207031,-6.591797,0.0,0.0,0.0,31.140747,78.12378,55.145874
1768998950621,-0.9848633,0.13671875,0.16259766,8.483887,1.2207031,-6.591797,0.0,0.0,0.0,30.602417,78.39844,54.102173
1768998950709,-0.9921875,0.12646484,0.1586914,12.6953125,-2.6855469,-9.460449,0.0,0.0,0.0,30.602417,78.39844,54.102173
1768998950720,-0.9921875,0.12646484,0.1586914,12.6953125,-2.6855469,-9.460449,0.0,0.0,0.0,28.185425,78.585205,50.427246
1768998950808,-0.98779297,0.11669922,0.16357422,17.150879,-3.7231445,-14.770508,0.0,0.0,0.0,28.185425,78.585205,50.427246
1768998950820,-0.98779297,0.11669922,0.16357422,17.150879,-3.7231445,-14.770508,0.0,0.0,0.0,24.406128,78.73901,44.972534
1768998950908,-0.9814453,0.028808594,0.15625,13.244629,0.7324219,-14.953613,0.0,0.0,0.0,24.406128,78.73901,44.972534
1768998950919,-0.9814453,0.028808594,0.15625,13.244629,0.7324219,-14.953613,0.0,0.0,0.0,18.26477,79.02466,36.881104
1768998951008,-0.95947266,0.023925781,0.18603516,9.521484,2.319336,-7.6904297,0.0,0.0,0.0,18.26477,79.02466,36.881104
1768998951019,-0.95947266,0.023925781,0.18603516,9.521484,2.319336,-7.6904297,0.0,0.0,0.0,15.062256,79.32129,32.426147
1768998951107,-0.9770508,-0.032714844,0.17382812,2.4414062,5.92041,-2.319336,0.0,0.0,0.0,15.062256,79.32129,32.426147
1768998951119,-0.9770508,-0.032714844,0.17382812,2.4414062,5.92041,-2.319336,0.0,0.0,0.0,13.74939,79.782715,30.83313
1768998951207,-0.96484375,0.023925781,0.15136719,0.061035156,8.544922,8.850098,0.0,0.0,0.0,13.74939,79.782715,30.83313
1768998951241,-0.96484375,0.023925781,0.15136719,0.061035156,8.544922,8.850098,0.0,0.0,0.0,16.968384,80.288086,34.716797
1768998951307,-0.9897461,0.045410156,0.09765625,1.6479492,8.728027,14.282227,0.0,0.0,0.0,16.968384,80.288086,34.716797
1768998951318,-0.9897461,0.045410156,0.09765625,1.6479492,8.728027,14.282227,0.0,0.0,0.0,25.114746,80.55176,43.73108
1768998951407,-0.9975586,0.11425781,0.07910156,2.380371,2.8076172,26.672363,0.0,0.0,0.0,25.114746,80.55176,43.73108
1768998951418,-0.9975586,0.11425781,0.07910156,2.380371,2.8076172,26.672363,0.0,0.0,0.0,34.799194,80.04089,53.668213
1768998951506,-0.9550781,0.18261719,0.100097656,30.456543,-6.225586,23.254395,0.0,0.0,0.0,34.799194,80.04089,53.668213
1768998951518,-0.9550781,0.18261719,0.100097656,30.456543,-6.225586,23.254395,0.0,0.0,0.0,47.680664,78.96423,65.06653
1768998951606,-0.96191406,0.19824219,0.11816406,45.288086,-16.601562,14.770508,0.0,0.0,0.0,47.680664,78.96423,65.06653
1768998951618,-0.96191406,0.19824219,0.11816406,45.288086,-16.601562,14.770508,0.0,0.0,0.0,51.59729,76.56372,66.59363
1768998951706,-0.9746094,0.19384766,0.08203125,20.690918,-34.179688,12.634277,0.0,0.0,0.0,51.59729,76.56372,66.59363
1768998951717,-0.9746094,0.19384766,0.08203125,20.690918,-34.179688,12.634277,0.0,0.0,0.0,51.948853,74.01489,64.209595
1768998951806,-0.87646484,0.19921875,0.20019531,-5.2490234,-21.911621,20.812988,0.0,0.0,0.0,51.948853,74.01489,64.209595
1768998951817,-0.87646484,0.19921875,0.20019531,-5.2490234,-21.911621,20.812988,0.0,0.0,0.0,49.01001,71.5979,61.193848
1768998951905,-1.0097656,0.1953125,0.27441406,-46.081543,-26.428223,12.145996,0.0,0.0,0.0,49.01001,71.5979,61.193848
1768998951917,-1.0097656,0.1953125,0.27441406,-46.081543,-26.428223,12.145996,0.0,0.0,0.0,46.675415,68.75244,63.83606
1768998952005,-0.9038086,0.38183594,0.3330078,-23.68164,-29.47998,3.3569336,0.0,0.0,0.0,46.675415,68.75244,63.83606
1768998952016,-0.9038086,0.38183594,0.3330078,-23.68164,-29.47998,3.3569336,0.0,0.0,0.0,37.39746,67.1759,58.69995
1768998952105,-0.82714844,0.2602539,0.39501953,-4.0893555,-7.8125,10.314941,0.0,0.0,0.0,37.39746,67.1759,58.69995
1768998952116,-0.82714844,0.2602539,0.39501953,-4.0893555,-7.8125,10.314941,0.0,0.0,0.0,35.20569,64.000854,58.14514
1768998952205,-0.91259766,0.21191406,0.4194336,35.461426,9.399414,-19.40918,0.0,0.0,0.0,35.20569,64.000854,58.14514
1768998952216,-0.91259766,0.21191406,0.4194336,35.461426,9.399414,-19.40918,0.0,0.0,0.0,37.65564,64.90173,57.08496
1768998952304,-0.91845703,0.29833984,0.43896484,-38.513184,-18.310547,12.329102,0.0,0.0,0.0,37.65564,64.90173,57.08496
1768998952316,-0.91845703,0.29833984,0.43896484,-38.513184,-18.310547,12.329102,0.0,0.0,0.0,36.09558,64.67102,56.052246
1768998952404,-0.9194336,0.2861328,0.23046875,11.230469,3.7841797,0.7324219,0.0,0.0,0.0,36.09558,64.67102,56.052246
1768998952415,-0.9194336,0.2861328,0.23046875,11.230469,3.7841797,0.7324219,0.0,0.0,0.0,32.711792,62.65503,53.986816
1768998952503,-0.9145508,0.23779297,0.40429688,15.258789,5.2490234,-9.277344,0.0,0.0,0.0,32.711792,62.65503,53.986816
1768998952515,-0.9145508,0.23779297,0.40429688,15.258789,5.2490234,-9.277344,0.0,0.0,0.0,35.568237,63.616333,54.014282
1768998952603,-0.91308594,0.29492188,0.3696289,-11.108398,-7.1411133,0.24414062,0.0,0.0,0.0,35.568237,63.616333,54.014282
1768998952615,-0.91308594,0.29492188,0.3696289,-11.108398,-7.1411133,0.24414062,0.0,0.0,0.0,35.304565,64.16565,52.04773
1768998952703,-0.9277344,0.25732422,0.35498047,1.0986328,6.286621,-7.2631836,0.0,0.0,0.0,35.304565,64.16565,52.04773
1768998952715,-0.9277344,0.25732422,0.35498047,1.0986328,6.286621,-7.2631836,0.0,0.0,0.0,33.552246,63.912964,50.88318
1768998952803,-0.9067383,0.2241211,0.36572266,-2.6855469,9.399414,-4.0893555,0.0,0.0,0.0,33.552246,63.912964,50.88318
1768998952814,-0.9067383,0.2241211,0.36572266,-2.6855469,9.399414,-4.0893555,0.0,0.0,0.0,33.447876,65.02258,50.24048
1768998952902,-0.8745117,0.21240234,0.36132812,-7.6293945,0.30517578,6.4697266,0.0,0.0,0.0,33.447876,65.02258,50.24048
1768998952915,-0.8745117,0.21240234,0.36132812,-7.6293945,0.30517578,6.4697266,0.0,0.0,0.0,34.052124,65.11047,51.679688
1768998953002,-0.9238281,0.19238281,0.3203125,-2.5634766,1.953125,3.90625,0.0,0.0,0.0,34.052124,65.11047,51.679688
1768998953014,-0.9238281,0.19238281,0.3203125,-2.5634766,1.953125,3.90625,0.0,0.0,0.0,34.453125,64.89075,52.091675
1768998953102,-0.9321289,0.24169922,0.33740234,2.8076172,-2.0751953,10.375977,0.0,0.0,0.0,34.453125,64.89075,52.091675
1768998953113,-0.9321289,0.24169922,0.33740234,2.8076172,-2.0751953,10.375977,0.0,0.0,0.0,36.254883,64.59412,53.78357
1768998953201,-0.9033203,0.2631836,0.3095703,1.159668,-9.460449,1.4038086,0.0,0.0,0.0,36.254883,64.59412,53.78357
1768998953213,-0.9033203,0.2631836,0.3095703,1.159668,-9.460449,1.4038086,0.0,0.0,0.0,35.95276,64.4458,52.84973
1768998953301,-0.89160156,0.30126953,0.36572266,-14.282227,-5.6152344,4.4555664,0.0,0.0,0.0,35.95276,64.4458,52.84973
1768998953312,-0.89160156,0.30126953,0.36572266,-14.282227,-5.6152344,4.4555664,0.0,0.0,0.0,34.88159,63.69873,53.025513
1768998953401,-0.8823242,0.2919922,0.36572266,6.1035156,-0.4272461,-1.6479492,0.0,0.0,0.0,34.88159,63.69873,53.025513
1768998953412,-0.8823242,0.2919922,0.36572266,6.1035156,-0.4272461,-1.6479492,0.0,0.0,0.0,34.68933,63.588867,52.053223
1768998953500,-0.8598633,0.27490234,0.41064453,-2.4414062,1.159668,3.1738281,0.0,0.0,0.0,34.68933,63.588867,52.053223
1768998953512,-0.8598633,0.27490234,0.41064453,-2.4414062,1.159668,3.1738281,0.0,0.0,0.0,34.99695,63.35266,52.245483
1768998953600,-0.8803711,0.2607422,0.37402344,-1.5258789,-3.2348633,-0.30517578,0.0,0.0,0.0,34.99695,63.35266,52.245483
1768998953612,-0.8803711,0.2607422,0.37402344,-1.5258789,-3.2348633,-0.30517578,0.0,0.0,0.0,34.44763,63.23181,51.23474
1768998953700,-0.8876953,0.23632812,0.37402344,-4.5776367,-2.0751953,0.4272461,0.0,0.0,0.0,34.44763,63.23181,51.23474
1768998953711,-0.8876953,0.23632812,0.37402344,-4.5776367,-2.0751953,0.4272461,0.0,0.0,0.0,33.62915,62.578125,50.76233
1768998953800,-0.95214844,0.20166016,0.37548828,-7.6904297,3.7841797,-6.5307617,0.0,0.0,0.0,33.62915,62.578125,50.76233
1768998953811,-0.95214844,0.20166016,0.37548828,-7.6904297,3.7841797,-6.5307617,0.0,0.0,0.0,33.46985,63.237305,49.570312
1768998953899,-0.8671875,0.20458984,0.34472656,-32.53174,11.169434,10.681152,0.0,0.0,0.0,33.46985,63.237305,49.570312
1768998953911,-0.8671875,0.20458984,0.34472656,-32.53174,11.169434,10.681152,0.0,0.0,0.0,33.398438,63.17688,51.09192
1768998953999,-0.8354492,0.23730469,0.34814453,16.540527,19.958496,-11.962891,0.0,0.0,0.0,33.398438,63.17688,51.09192
1768998954011,-0.8354492,0.23730469,0.34814453,16.540527,19.958496,-11.962891,0.0,0.0,0.0,34.48059,64.989624,51.740112
1768998954103,-0.90966797,0.23779297,0.37548828,-15.075684,-7.3242188,5.3710938,0.0,0.0,0.0,34.48059,64.989624,51.740112
1768998954110,-0.90966797,0.23779297,0.37548828,-15.075684,-7.3242188,5.3710938,0.0,0.0,0.0,34.865112,65.45654,51.52588
1768998954198,-0.8935547,0.2890625,0.37451172,-5.2490234,-9.765625,4.1503906,0.0,0.0,0.0,34.865112,65.45654,51.52588
1768998954210,-0.8935547,0.2890625,0.37451172,-5.2490234,-9.765625,4.1503906,0.0,0.0,0.0,33.771973,64.2041,51.124878
1768998954298,-0.89453125,0.25634766,0.35009766,2.6855469,-6.4086914,-2.4414062,0.0,0.0,0.0,33.771973,64.2041,51.124878
1768998954310,-0.89453125,0.25634766,0.35009766,2.6855469,-6.4086914,-2.4414062,0.0,0.0,0.0,32.904053,63.583374,49.586792
1768998954398,-0.88720703,0.27539062,0.38183594,-5.004883,2.1362305,4.333496,0.0,0.0,0.0,32.904053,63.583374,49.586792
1768998954409,-0.88720703,0.27539062,0.38183594,-5.004883,2.1362305,4.333496,0.0,0.0,0.0,33.17871,63.237305,49.65271
1768998954497,-0.90771484,0.28222656,0.36865234,7.2021484,-0.36621094,-6.3476562,0.0,0.0,0.0,33.17871,63.237305,49.65271
1768998954509,-0.90771484,0.28222656,0.36865234,7.2021484,-0.36621094,-6.3476562,0.0,0.0,0.0,33.771973,63.76465,48.6969
1768998954597,-0.91308594,0.23486328,0.37646484,-0.61035156,-5.3100586,-0.5493164,0.0,0.0,0.0,33.771973,63.76465,48.6969
1768998954609,-0.91308594,0.23486328,0.37646484,-0.61035156,-5.3100586,-0.5493164,0.0,0.0,0.0,33.206177,63.341675,47.9718
1768998954697,-0.9243164,0.26123047,0.37353516,-0.8544922,-4.0893555,-5.3710938,0.0,0.0,0.0,33.206177,63.341675,47.9718
1768998954709,-0.9243164,0.26123047,0.37353516,-0.8544922,-4.0893555,-5.3710938,0.0,0.0,0.0,32.579956,63.396606,46.279907
1768998954797,-0.89746094,0.2319336,0.35986328,-2.9907227,-6.4697266,-5.493164,0.0,0.0,0.0,32.579956,63.396606,46.279907
1768998954808,-0.89746094,0.2319336,0.35986328,-2.9907227,-6.4697266,-5.493164,0.0,0.0,0.0,30.74524,63.10547,43.928833
1768998954896,-0.8989258,0.19189453,0.375,-2.4414062,-0.8544922,-1.8310547,0.0,0.0,0.0,30.74524,63.10547,43.928833
1768998954908,-0.8989258,0.19189453,0.375,-2.4414062,-0.8544922,-1.8310547,0.0,0.0,0.0,29.915771,63.078003,42.62146
1768998954996,-0.89501953,0.19335938,0.3935547,-4.8217773,-2.0751953,1.159668,0.0,0.0,0.0,29.915771,63.078003,42.62146
1768998955008,-0.89501953,0.19335938,0.3935547,-4.8217773,-2.0751953,1.159668,0.0,0.0,0.0,29.465332,63.050537,41.90735
1768998955096,-0.8847656,0.18603516,0.39746094,-1.2207031,-0.5493164,-0.48828125,0.0,0.0,0.0,29.465332,63.050537,41.90735
1768998955108,-0.8847656,0.18603516,0.39746094,-1.2207031,-0.5493164,-0.48828125,0.0,0.0,0.0,29.042358,63.0011,40.98999
1768998955195,-0.92041016,0.19335938,0.4189453,-10.986328,-0.30517578,4.8217773,0.0,0.0,0.0,29.042358,63.0011,40.98999
1768998955207,-0.92041016,0.19335938,0.4189453,-10.986328,-0.30517578,4.8217773,0.0,0.0,0.0,28.745728,62.88025,40.819702
1768998955295,-0.88964844,0.23876953,0.421875,-13.85498,0.48828125,6.713867,0.0,0.0,0.0,28.745728,62.88025,40.819702
1768998955307,-0.88964844,0.23876953,0.421875,-13.85498,0.48828125,6.713867,0.0,0.0,0.0,28.372192,62.67151,41.083374
1768998955395,-0.9042969,0.20751953,0.42578125,-1.159668,-5.3100586,-0.61035156,0.0,0.0,0.0,28.372192,62.67151,41.083374
1768998955406,-0.9042969,0.20751953,0.42578125,-1.159668,-5.3100586,-0.61035156,0.0,0.0,0.0,28.075562,62.457275,40.567017
1768998955495,-0.88183594,0.23339844,0.40820312,-7.2631836,1.159668,1.8310547,0.0,0.0,0.0,28.075562,62.457275,40.567017
1768998955506,-0.88183594,0.23339844,0.40820312,-7.2631836,1.159668,1.8310547,0.0,0.0,0.0,27.213135,61.885986,39.468384
1768998955594,-0.8671875,0.234375,0.42919922,1.4038086,-0.18310547,-2.8686523,0.0,0.0,0.0,27.213135,61.885986,39.468384
1768998955606,-0.8671875,0.234375,0.42919922,1.4038086,-0.18310547,-2.8686523,0.0,0.0,0.0,27.421875,62.210083,38.633423
1768998955694,-0.8754883,0.2265625,0.39941406,6.713867,-0.6713867,-3.8452148,0.0,0.0,0.0,27.421875,62.210083,38.633423
1768998955705,-0.8754883,0.2265625,0.39941406,6.713867,-0.6713867,-3.8452148,0.0,0.0,0.0,27.218628,62.105713,37.39746
1768998955794,-0.86621094,0.19677734,0.40820312,4.5776367,3.7841797,1.5258789,0.0,0.0,0.0,27.218628,62.105713,37.39746
1768998955805,-0.86621094,0.19677734,0.40820312,4.5776367,3.7841797,1.5258789,0.0,0.0,0.0,27.575684,62.297974,36.78772
1768998955893,-0.890625,0.16552734,0.39501953,4.4555664,-2.1972656,-4.3945312,0.0,0.0,0.0,27.575684,62.297974,36.78772
1768998955905,-0.890625,0.16552734,0.39501953,4.4555664,-2.1972656,-4.3945312,0.0,0.0,0.0,27.328491,62.276,35.776978
1768998955993,-0.8857422,0.1928711,0.41503906,-2.5634766,0.7324219,0.4272461,0.0,0.0,0.0,27.328491,62.276,35.776978
1768998956004,-0.8857422,0.1928711,0.41503906,-2.5634766,0.7324219,0.4272461,0.0,0.0,0.0,27.13623,62.177124,35.178223
1768998956093,-0.8720703,0.21826172,0.40722656,-0.061035156,-2.5634766,-0.6713867,0.0,0.0,0.0,27.13623,62.177124,35.178223
1768998956104,-0.8720703,0.21826172,0.40722656,-0.061035156,-2.5634766,-0.6713867,0.0,0.0,0.0,27.086792,62.48474,34.140015
1768998956192,-0.8823242,0.23046875,0.40673828,7.3242188,-2.746582,-2.5634766,0.0,0.0,0.0,27.086792,62.48474,34.140015
1768998956204,-0.8823242,0.23046875,0.40673828,7.3242188,-2.746582,-2.5634766,0.0,0.0,0.0,26.965942,62.352905,33.61267
1768998956292,-0.9003906,0.17822266,0.42626953,2.4414062,-1.3427734,-1.0375977,0.0,0.0,0.0,26.965942,62.352905,33.61267
1768998956304,-0.9003906,0.17822266,0.42626953,2.4414062,-1.3427734,-1.0375977,0.0,0.0,0.0,26.834106,61.973877,33.024902
1768998956392,-0.8701172,0.20996094,0.40966797,-0.6713867,-1.6479492,0.7324219,0.0,0.0,0.0,26.834106,61.973877,33.024902
1768998956403,-0.8701172,0.20996094,0.40966797,-0.6713867,-1.6479492,0.7324219,0.0,0.0,0.0,26.795654,61.688232,32.651367
1768998956492,-0.8754883,0.2163086,0.42578125,-3.0517578,-1.5258789,2.0751953,0.0,0.0,0.0,26.795654,61.688232,32.651367
1768998956503,-0.8754883,0.2163086,0.42578125,-3.0517578,-1.5258789,2.0751953,0.0,0.0,0.0,26.8396,61.644287,32.16797
1768998956591,-0.8745117,0.22705078,0.4272461,4.8217773,-0.9765625,-0.9765625,0.0,0.0,0.0,26.8396,61.644287,32.16797
1768998956603,-0.8745117,0.22705078,0.4272461,4.8217773,-0.9765625,-0.9765625,0.0,0.0,0.0,26.993408,61.49048,31.849365
1768998956691,-0.87597656,0.20800781,0.42089844,-0.91552734,4.4555664,0.5493164,0.0,0.0,0.0,26.993408,61.49048,31.849365
1768998956703,-0.87597656,0.20800781,0.42089844,-0.91552734,4.4555664,0.5493164,0.0,0.0,0.0,27.246094,61.572876,31.618652
1768998956791,-0.89501953,0.19726562,0.4116211,-5.6762695,1.4648438,4.760742,0.0,0.0,0.0,27.246094,61.572876,31.618652
1768998956802,-0.89501953,0.19726562,0.4116211,-5.6762695,1.4648438,4.760742,0.0,0.0,0.0,27.559204,61.704712,32.025146
1768998956891,-0.8828125,0.20361328,0.39990234,-3.8452148,2.6855469,5.004883,0.0,0.0,0.0,27.559204,61.704712,32.025146
1768998956902,-0.8828125,0.20361328,0.39990234,-3.8452148,2.6855469,5.004883,0.0,0.0,0.0,27.960205,61.622314,32.64038
1768998956990,-0.8720703,0.22363281,0.41601562,6.652832,6.3476562,-1.4648438,0.0,0.0,0.0,27.960205,61.622314,32.64038
1768998957002,-0.8720703,0.22363281,0.41601562,6.652832,6.3476562,-1.4648438,0.0,0.0,0.0,28.69629,62.13318,32.88208
1768998957090,-0.88671875,0.22460938,0.42285156,-1.6479492,-6.1035156,0.8544922,0.0,0.0,0.0,28.69629,62.13318,32.88208
1768998957101,-0.88671875,0.22460938,0.42285156,-1.6479492,-6.1035156,0.8544922,0.0,0.0,0.0,28.78418,62.017822,32.81067
1768998957189,-0.8925781,0.21875,0.40576172,4.211426,-0.6713867,3.3569336,0.0,0.0,0.0,28.78418,62.017822,32.81067
1768998957202,-0.8925781,0.21875,0.40576172,4.211426,-0.6713867,3.3569336,0.0,0.0,0.0,28.718262,61.40808,32.64038
1768998957289,-0.87158203,0.21777344,0.4243164,18.005371,6.225586,-1.5258789,0.0,0.0,0.0,28.718262,61.40808,32.64038
1768998957301,-0.87158203,0.21777344,0.4243164,18.005371,6.225586,-1.5258789,0.0,0.0,0.0,30.618896,61.902466,32.860107
1768998957389,-0.90234375,0.27197266,0.43164062,17.089844,-5.1879883,2.9296875,0.0,0.0,0.0,30.618896,61.902466,32.860107
1768998957400,-0.90234375,0.27197266,0.43164062,17.089844,-5.1879883,2.9296875,0.0,0.0,0.0,32.20642,61.30371,33.579712
1768998957489,-0.87841797,0.28076172,0.3618164,7.507324,1.7089844,12.817383,0.0,0.0,0.0,32.20642,61.30371,33.579712
1768998957500,-0.87841797,0.28076172,0.3618164,7.507324,1.7089844,12.817383,0.0,0.0,0.0,35.024414,60.74341,35.10132
1768998957588,-0.8613281,0.2524414,0.3725586,16.113281,8.666992,0.30517578,0.0,0.0,0.0,35.024414,60.74341,35.10132
1768998957600,-0.8613281,0.2524414,0.3725586,16.113281,8.666992,0.30517578,0.0,0.0,0.0,37.27661,60.78186,36.87561
1768998957688,-0.89990234,0.28027344,0.3540039,-8.850098,4.3945312,8.911133,0.0,0.0,0.0,37.27661,60.78186,36.87561
1768998957699,-0.89990234,0.28027344,0.3540039,-8.850098,4.3945312,8.911133,0.0,0.0,0.0,38.95752,61.149902,38.54004
1768998957788,-0.8730469,0.31591797,0.3828125,6.958008,9.58252,1.5869141,0.0,0.0,0.0,38.95752,61.149902,38.54004
1768998957799,-0.8730469,0.31591797,0.3828125,6.958008,9.58252,1.5869141,0.0,0.0,0.0,40.374756,61.375122,41.187744
1768998957887,-0.8725586,0.29492188,0.3647461,1.8310547,6.8969727,1.7089844,0.0,0.0,0.0,40.374756,61.375122,41.187744
1768998957899,-0.8725586,0.29492188,0.3647461,1.8310547,6.8969727,1.7089844,0.0,0.0,0.0,42.182007,61.951904,43.14331
1768998957987,-0.8847656,0.34277344,0.32470703,-15.991211,-3.90625,8.728027,0.0,0.0,0.0,42.182007,61.951904,43.14331
1768998957999,-0.8847656,0.34277344,0.32470703,-15.991211,-3.90625,8.728027,0.0,0.0,0.0,41.956787,61.688232,44.30237
1768998958087,-0.88378906,0.3334961,0.34472656,5.1879883,3.7841797,0.0,0.0,0.0,0.0,41.956787,61.688232,44.30237
1768998958098,-0.88378906,0.3334961,0.34472656,5.1879883,3.7841797,0.0,0.0,0.0,0.0,42.06665,61.133423,46.0437
1768998958186,-0.88134766,0.33789062,0.3408203,-4.8217773,-0.8544922,4.8217773,0.0,0.0,0.0,42.06665,61.133423,46.0437
1768998958198,-0.88134766,0.33789062,0.3408203,-4.8217773,-0.8544922,4.8217773,0.0,0.0,0.0,42.86316,61.16089,47.054443
1768998958286,-0.8754883,0.3413086,0.36083984,-1.953125,1.4648438,1.2207031,0.0,0.0,0.0,42.86316,61.16089,47.054443
1768998958298,-0.8754883,0.3413086,0.36083984,-1.953125,1.4648438,1.2207031,0.0,0.0,0.0,42.978516,60.968628,47.801514
1768998958386,-0.8666992,0.33984375,0.36376953,-2.6855469,0.24414062,0.0,0.0,0.0,0.0,42.978516,60.968628,47.801514
1768998958397,-0.8666992,0.33984375,0.36376953,-2.6855469,0.24414062,0.0,0.0,0.0,0.0,42.994995,61.001587,48.40027
1768998958486,-0.87158203,0.33203125,0.34814453,-1.4648438,1.3427734,-1.5258789,0.0,0.0,0.0,42.994995,61.001587,48.40027
1768998958497,-0.87158203,0.33203125,0.34814453,-1.4648438,1.3427734,-1.5258789,0.0,0.0,0.0,42.6709,61.06201,48.548584
1768998958585,-0.8745117,0.32617188,0.35253906,1.4038086,-0.8544922,-2.6855469,0.0,0.0,0.0,42.6709,61.06201,48.548584
1768998958597,-0.8745117,0.32617188,0.35253906,1.4038086,-0.8544922,-2.6855469,0.0,0.0,0.0,42.53357,61.155396,48.845215
1768998958685,-0.8798828,0.32470703,0.3564453,0.18310547,0.0,-2.380371,0.0,0.0,0.0,42.53357,61.155396,48.845215
1768998958697,-0.8798828,0.32470703,0.3564453,0.18310547,0.0,-2.380371,0.0,0.0,0.0,42.165527,61.210327,48.75183
1768998958785,-0.86621094,0.32128906,0.35107422,-0.30517578,-1.5869141,-1.8310547,0.0,0.0,0.0,42.165527,61.210327,48.75183
1768998958796,-0.86621094,0.32128906,0.35107422,-0.30517578,-1.5869141,-1.8310547,0.0,0.0,0.0,41.59973,61.19934,48.114624
1768998958884,-0.8901367,0.31884766,0.37304688,1.3427734,-2.4414062,-5.9814453,0.0,0.0,0.0,41.59973,61.19934,48.114624
1768998958896,-0.8901367,0.31884766,0.37304688,1.3427734,-2.4414062,-5.9814453,0.0,0.0,0.0,41.05591,61.479492,47.817993
1768998958984,-0.88134766,0.3178711,0.3461914,1.3427734,-4.0283203,-3.8452148,0.0,0.0,0.0,41.05591,61.479492,47.817993
1768998958996,-0.88134766,0.3178711,0.3461914,1.3427734,-4.0283203,-3.8452148,0.0,0.0,0.0,40.248413,61.589355,46.829224
1768998959084,-0.90283203,0.30029297,0.35986328,-7.873535,-4.8217773,-0.7324219,0.0,0.0,0.0,40.248413,61.589355,46.829224
1768998959095,-0.90283203,0.30029297,0.35986328,-7.873535,-4.8217773,-0.7324219,0.0,0.0,0.0,39.001465,61.44104,45.83496
1768998959184,-0.8696289,0.30566406,0.39160156,-2.9296875,-2.9296875,-1.5869141,0.0,0.0,0.0,39.001465,61.44104,45.83496
1768998959195,-0.8696289,0.30566406,0.39160156,-2.9296875,-2.9296875,-1.5869141,0.0,0.0,0.0,38.034668,61.32019,45.444946
1768998959283,-0.890625,0.31445312,0.3857422,-3.90625,-1.8920898,5.3710938,0.0,0.0,0.0,38.034668,61.32019,45.444946
1768998959295,-0.890625,0.31445312,0.3857422,-3.90625,-1.8920898,5.3710938,0.0,0.0,0.0,37.48535,60.996094,45.08789
1768998959383,-0.88183594,0.21728516,0.38330078,7.446289,2.0141602,-0.79345703,0.0,0.0,0.0,37.48535,60.996094,45.08789
1768998959395,-0.88183594,0.21728516,0.38330078,7.446289,2.0141602,-0.79345703,0.0,0.0,0.0,38.534546,60.655518,46.219482
1768998959483,-0.8647461,0.29345703,0.3876953,-7.873535,1.4038086,9.643555,0.0,0.0,0.0,38.534546,60.655518,46.219482
1768998959495,-0.8647461,0.29345703,0.3876953,-7.873535,1.4038086,9.643555,0.0,0.0,0.0,39.226685,60.611572,47.04895
1768998959582,-0.88378906,0.30859375,0.38964844,7.080078,2.6245117,1.8310547,0.0,0.0,0.0,39.226685,60.611572,47.04895
1768998959594,-0.88378906,0.30859375,0.38964844,7.080078,2.6245117,1.8310547,0.0,0.0,0.0,40.215454,60.633545,48.0542
1768998959682,-0.84765625,0.30371094,0.35546875,5.432129,5.004883,9.216309,0.0,0.0,0.0,40.215454,60.633545,48.0542
1768998959694,-0.84765625,0.30371094,0.35546875,5.432129,5.004883,9.216309,0.0,0.0,0.0,41.676636,60.369873,49.68567
1768998959782,-0.8964844,0.33447266,0.3383789,5.2490234,-2.5024414,2.8686523,0.0,0.0,0.0,41.676636,60.369873,49.68567
1768998959793,-0.8964844,0.33447266,0.3383789,5.2490234,-2.5024414,2.8686523,0.0,0.0,0.0,43.291626,60.238037,50.773315
1768998959881,-0.90527344,0.36816406,0.38427734,-2.319336,2.1972656,8.422852,0.0,0.0,0.0,43.291626,60.238037,50.773315
1768998959893,-0.90527344,0.36816406,0.38427734,-2.319336,2.1972656,8.422852,0.0,0.0,0.0,43.791504,59.7052,51.97632
1768998959981,-0.8339844,0.36279297,0.3618164,-1.5258789,5.3710938,7.9956055,0.0,0.0,0.0,43.791504,59.7052,51.97632
1768998959993,-0.8339844,0.36279297,0.3618164,-1.5258789,5.3710938,7.9956055,0.0,0.0,0.0,45.07141,59.501953,53.569336
1768998960081,-0.85498047,0.3696289,0.34375,-3.6010742,-0.4272461,5.493164,0.0,0.0,0.0,45.07141,59.501953,53.569336
1768998960092,-0.85498047,0.3696289,0.34375,-3.6010742,-0.4272461,5.493164,0.0,0.0,0.0,45.90088,59.260254,55.03601
1768998960181,-0.84814453,0.38427734,0.34423828,-1.953125,-0.30517578,6.225586,0.0,0.0,0.0,45.90088,59.260254,55.03601
1768998960192,-0.84814453,0.38427734,0.34423828,-1.953125,-0.30517578,6.225586,0.0,0.0,0.0,46.279907,58.705444,56.244507
1768998960280,-0.8198242,0.38085938,0.34765625,4.9438477,-3.2958984,1.4038086,0.0,0.0,0.0,46.279907,58.705444,56.244507
1768998960292,-0.8198242,0.38085938,0.34765625,4.9438477,-3.2958984,1.4038086,0.0,0.0,0.0,46.829224,58.200073,57.057495
1768998960380,-0.89404297,0.3935547,0.35888672,-8.483887,-2.6245117,14.587402,0.0,0.0,0.0,46.829224,58.200073,57.057495
1768998960391,-0.89404297,0.3935547,0.35888672,-8.483887,-2.6245117,14.587402,0.0,0.0,0.0,46.867676,57.562866,57.216797
1768998960480,-0.8198242,0.4038086,0.40234375,-9.94873,-0.91552734,13.61084,0.0,0.0,0.0,46.867676,57.562866,57.216797
1768998960491,-0.8198242,0.4038086,0.40234375,-9.94873,-0.91552734,13.61084,0.0,0.0,0.0,47.175293,56.42578,59.210815
1768998960579,-0.8129883,0.4296875,0.37451172,0.48828125,0.12207031,9.765625,0.0,0.0,0.0,47.175293,56.42578,59.210815
1768998960591,-0.8129883,0.4296875,0.37451172,0.48828125,0.12207031,9.765625,0.0,0.0,0.0,47.702637,55.53589,60.221558
1768998960679,-0.81347656,0.43896484,0.3955078,-3.479004,1.4038086,12.084961,0.0,0.0,0.0,47.702637,55.53589,60.221558
1768998960691,-0.81347656,0.43896484,0.3955078,-3.479004,1.4038086,12.084961,0.0,0.0,0.0,48.52661,54.73938,61.49597
1768998960779,-0.80322266,0.44335938,0.40478516,10.131836,2.1972656,3.0517578,0.0,0.0,0.0,48.52661,54.73938,61.49597
