timestamp,accX,accY,accZ,gyroX,gyroY,gyroZ,magX,magY,magZ,roll,pitch,yaw
1766902635885,-0.6972656,-0.24316406,-0.6796875,0.0,0.24414062,0.0,0.0,0.0,0.0,-160.19714,43.720093,-164.0094
1766902635896,-0.6972656,-0.24316406,-0.6796875,0.0,0.24414062,0.0,0.0,0.0,0.0,-160.19165,43.709106,-163.99841
1766902635985,-0.6972656,-0.24121094,-0.67822266,-0.30517578,0.12207031,0.0,0.0,0.0,0.0,-160.19165,43.709106,-163.99841
1766902635996,-0.6972656,-0.24121094,-0.67822266,-0.30517578,0.12207031,0.0,0.0,0.0,0.0,-160.20264,43.7146,-163.99292
1766902636084,-0.69873047,-0.24267578,-0.6796875,0.24414062,-0.36621094,0.0,0.0,0.0,0.0,-160.20264,43.7146,-163.99292
1766902636096,-0.69873047,-0.24267578,-0.6796875,0.24414062,-0.36621094,0.0,0.0,0.0,0.0,-160.17517,43.720093,-164.0039
1766902636184,-0.6977539,-0.23535156,-0.6748047,-0.12207031,1.4038086,0.0,0.0,0.0,0.0,-160.17517,43.720093,-164.0039
1766902636195,-0.6977539,-0.23535156,-0.6748047,-0.12207031,1.4038086,0.0,0.0,0.0,0.0,-160.14221,43.68164,-164.0039
1766902636284,-0.69433594,-0.24316406,-0.6796875,-0.48828125,-0.24414062,0.24414062,0.0,0.0,0.0,-160.14221,43.68164,-164.0039
1766902636295,-0.69433594,-0.24316406,-0.6796875,-0.48828125,-0.24414062,0.24414062,0.0,0.0,0.0,-160.19165,43.703613,-163.98193
1766902636384,-0.69677734,-0.24121094,-0.68603516,-0.12207031,-0.4272461,0.061035156,0.0,0.0,0.0,-160.19165,43.703613,-163.98193
1766902636395,-0.69677734,-0.24121094,-0.68603516,-0.12207031,-0.4272461,0.061035156,0.0,0.0,0.0,-160.21362,43.7146,-164.02588
1766902636483,-0.6933594,-0.2446289,-0.6791992,-0.24414062,-0.4272461,0.18310547,0.0,0.0,0.0,-160.21362,43.7146,-164.02588
1766902636494,-0.6933594,-0.2446289,-0.6791992,-0.24414062,-0.4272461,0.18310547,0.0,0.0,0.0,-160.24109,43.7146,-164.04785
1766902636583,-0.69628906,-0.24169922,-0.6791992,0.0,-0.18310547,0.061035156,0.0,0.0,0.0,-160.24109,43.7146,-164.04785
1766902636594,-0.69628906,-0.24169922,-0.6791992,0.0,-0.18310547,0.061035156,0.0,0.0,0.0,-160.21912,43.725586,-164.0039
1766902636682,-0.69628906,-0.24072266,-0.67822266,0.0,0.24414062,-0.061035156,0.0,0.0,0.0,-160.21912,43.725586,-164.0039
1766902636694,-0.69628906,-0.24072266,-0.67822266,0.0,0.24414062,-0.061035156,0.0,0.0,0.0,-160.2301,43.709106,-163.99292
1766902636782,-0.69433594,-0.2397461,-0.6801758,-0.12207031,0.24414062,0.0,0.0,0.0,0.0,-160.2301,43.709106,-163.99292
1766902636793,-0.69433594,-0.2397461,-0.6801758,-0.12207031,0.24414062,0.0,0.0,0.0,0.0,-160.2356,43.720093,-163.99292
1766902636882,-0.6977539,-0.24560547,-0.6796875,0.48828125,-0.48828125,0.0,0.0,0.0,0.0,-160.2356,43.720093,-163.99292
1766902636893,-0.6977539,-0.24560547,-0.6796875,0.48828125,-0.48828125,0.0,0.0,0.0,0.0,-160.20813,43.736572,-164.0039
1766902636982,-0.6977539,-0.23828125,-0.67285156,-0.24414062,1.4648438,0.0,0.0,0.0,0.0,-160.20813,43.736572,-164.0039
1766902636993,-0.6977539,-0.23828125,-0.67285156,-0.24414062,1.4648438,0.0,0.0,0.0,0.0,-160.14221,43.720093,-163.98743
1766902637081,-0.6972656,-0.24267578,-0.6796875,0.061035156,1.2817383,-0.48828125,0.0,0.0,0.0,-160.14221,43.720093,-163.98743
1766902637093,-0.6972656,-0.24267578,-0.6796875,0.061035156,1.2817383,-0.48828125,0.0,0.0,0.0,-160.17517,43.676147,-163.98743
1766902637181,-0.6972656,-0.24023438,-0.68896484,0.5493164,0.0,-0.24414062,0.0,0.0,0.0,-160.17517,43.676147,-163.98743
1766902637192,-0.6972656,-0.24023438,-0.68896484,0.5493164,0.0,-0.24414062,0.0,0.0,0.0,-160.11475,43.588257,-164.0039
1766902637281,-0.69384766,-0.2475586,-0.6791992,1.8310547,0.79345703,-1.0986328,0.0,0.0,0.0,-160.11475,43.588257,-164.0039
1766902637292,-0.69384766,-0.2475586,-0.6791992,1.8310547,0.79345703,-1.0986328,0.0,0.0,0.0,-159.97192,43.4729,-163.97644
1766902637380,-0.6948242,-0.24658203,-0.6816406,0.6713867,0.24414062,-0.48828125,0.0,0.0,0.0,-159.97192,43.4729,-163.97644
1766902637392,-0.6948242,-0.24658203,-0.6816406,0.6713867,0.24414062,-0.48828125,0.0,0.0,0.0,-159.7522,43.36853,-163.82263
1766902637480,-0.68359375,-0.24951172,-0.6801758,0.4272461,0.4272461,-0.4272461,0.0,0.0,0.0,-159.7522,43.36853,-163.82263
1766902637492,-0.68359375,-0.24951172,-0.6801758,0.4272461,0.4272461,-0.4272461,0.0,0.0,0.0,-159.6753,43.286133,-163.83362
1766902637580,-0.69384766,-0.25,-0.67871094,-0.91552734,-0.48828125,0.18310547,0.0,0.0,0.0,-159.6753,43.286133,-163.83362
1766902637591,-0.69384766,-0.25,-0.67871094,-0.91552734,-0.48828125,0.18310547,0.0,0.0,0.0,-159.68079,43.31909,-163.86658
1766902637679,-0.68896484,-0.2475586,-0.67089844,-1.159668,0.36621094,0.0,0.0,0.0,0.0,-159.68079,43.31909,-163.86658
1766902637691,-0.68896484,-0.2475586,-0.67089844,-1.159668,0.36621094,0.0,0.0,0.0,0.0,-159.73572,43.363037,-163.88306
1766902637779,-0.69189453,-0.24609375,-0.67529297,-1.8310547,-1.7089844,0.12207031,0.0,0.0,0.0,-159.73572,43.363037,-163.88306
1766902637790,-0.69189453,-0.24609375,-0.67529297,-1.8310547,-1.7089844,0.12207031,0.0,0.0,0.0,-159.73022,43.450928,-163.90503
1766902637879,-0.6894531,-0.24951172,-0.6743164,-0.91552734,-0.61035156,0.36621094,0.0,0.0,0.0,-159.73022,43.450928,-163.90503
1766902637891,-0.6894531,-0.24951172,-0.6743164,-0.91552734,-0.61035156,0.36621094,0.0,0.0,0.0,-159.85657,43.64868,-163.94348
1766902637978,-0.69921875,-0.2446289,-0.68066406,-0.48828125,-0.9765625,0.4272461,0.0,0.0,0.0,-159.85657,43.64868,-163.94348
1766902637990,-0.69921875,-0.2446289,-0.68066406,-0.48828125,-0.9765625,0.4272461,0.0,0.0,0.0,-159.91699,43.736572,-163.95996
1766902638078,-0.69921875,-0.24414062,-0.67626953,-1.0375977,-1.4648438,0.5493164,0.0,0.0,0.0,-159.91699,43.736572,-163.95996
1766902638090,-0.69921875,-0.24414062,-0.67626953,-1.0375977,-1.4648438,0.5493164,0.0,0.0,0.0,-159.9939,43.824463,-163.95996
1766902638178,-0.69921875,-0.24511719,-0.6723633,-0.61035156,-0.61035156,0.4272461,0.0,0.0,0.0,-159.9939,43.824463,-163.95996
1766902638189,-0.69921875,-0.24511719,-0.6723633,-0.61035156,-0.61035156,0.4272461,0.0,0.0,0.0,-160.03235,43.950806,-163.89954
1766902638278,-0.7011719,-0.24072266,-0.67626953,-0.24414062,-0.48828125,0.24414062,0.0,0.0,0.0,-160.03235,43.950806,-163.89954
1766902638289,-0.7011719,-0.24072266,-0.67626953,-0.24414062,-0.48828125,0.24414062,0.0,0.0,0.0,-160.0708,44.005737,-163.87207
1766902638377,-0.7060547,-0.24316406,-0.6879883,-0.30517578,0.48828125,0.0,0.0,0.0,0.0,-160.0708,44.005737,-163.87207
1766902638389,-0.7060547,-0.24316406,-0.6879883,-0.30517578,0.48828125,0.0,0.0,0.0,0.0,-160.08179,43.99475,-163.82812
1766902638477,-0.7001953,-0.24316406,-0.6713867,-1.4648438,-8.300781,0.4272461,0.0,0.0,0.0,-160.08179,43.99475,-163.82812
1766902638489,-0.7001953,-0.24316406,-0.6713867,-1.4648438,-8.300781,0.4272461,0.0,0.0,0.0,-160.04883,44.384766,-163.54797
1766902638577,-0.70751953,-0.2397461,-0.67285156,-0.79345703,-1.4648438,0.48828125,0.0,0.0,0.0,-160.04883,44.384766,-163.54797
1766902638588,-0.70751953,-0.2397461,-0.67285156,-0.79345703,-1.4648438,0.48828125,0.0,0.0,0.0,-160.02136,44.577026,-163.3612
1766902638676,-0.70703125,-0.24023438,-0.6713867,0.7324219,1.4038086,0.12207031,0.0,0.0,0.0,-160.02136,44.577026,-163.3612
1766902638689,-0.70703125,-0.24023438,-0.6713867,0.7324219,1.4038086,0.12207031,0.0,0.0,0.0,-160.0708,44.560547,-163.27881
1766902638776,-0.7001953,-0.23925781,-0.66796875,0.79345703,3.112793,0.36621094,0.0,0.0,0.0,-160.0708,44.560547,-163.27881
1766902638788,-0.7001953,-0.23925781,-0.66796875,0.79345703,3.112793,0.36621094,0.0,0.0,0.0,-160.13123,44.351807,-163.26233
1766902638876,-0.7026367,-0.2397461,-0.67578125,0.24414062,1.2207031,0.0,0.0,0.0,0.0,-160.13123,44.351807,-163.26233
1766902638887,-0.7026367,-0.2397461,-0.67578125,0.24414062,1.2207031,0.0,0.0,0.0,0.0,-160.15869,44.18152,-163.22388
1766902638976,-0.7026367,-0.2397461,-0.67626953,0.12207031,1.0375977,0.18310547,0.0,0.0,0.0,-160.15869,44.18152,-163.22388
1766902638987,-0.7026367,-0.2397461,-0.67626953,0.12207031,1.0375977,0.18310547,0.0,0.0,0.0,-160.15869,44.088135,-163.17444
1766902639075,-0.7006836,-0.24169922,-0.67626953,0.24414062,0.18310547,-0.12207031,0.0,0.0,0.0,-160.15869,44.088135,-163.17444
1766902639087,-0.7006836,-0.24169922,-0.67626953,0.24414062,0.18310547,-0.12207031,0.0,0.0,0.0,-160.16968,44.02771,-163.1195
1766902639175,-0.6977539,-0.2397461,-0.67626953,1.0986328,0.9765625,-0.48828125,0.0,0.0,0.0,-160.16968,44.02771,-163.1195
1766902639187,-0.6977539,-0.2397461,-0.67626953,1.0986328,0.9765625,-0.48828125,0.0,0.0,0.0,-160.10376,43.983765,-163.05359
1766902639275,-0.70410156,-0.24511719,-0.6791992,-0.24414062,0.061035156,0.18310547,0.0,0.0,0.0,-160.10376,43.983765,-163.05359
1766902639286,-0.70410156,-0.24511719,-0.6791992,-0.24414062,0.061035156,0.18310547,0.0,0.0,0.0,-160.0653,43.934326,-163.0426
1766902639375,-0.69628906,-0.2397461,-0.6738281,-0.30517578,-0.24414062,0.12207031,0.0,0.0,0.0,-160.0653,43.934326,-163.0426
1766902639386,-0.69628906,-0.2397461,-0.6738281,-0.30517578,-0.24414062,0.12207031,0.0,0.0,0.0,-160.10925,43.9563,-163.0426
1766902639474,-0.70458984,-0.24169922,-0.67578125,-0.36621094,0.48828125,0.30517578,0.0,0.0,0.0,-160.10925,43.9563,-163.0426
1766902639486,-0.70458984,-0.24169922,-0.67578125,-0.36621094,0.48828125,0.30517578,0.0,0.0,0.0,-160.16418,43.9563,-163.09753
1766902639574,-0.7006836,-0.24121094,-0.6743164,-0.18310547,-0.30517578,0.12207031,0.0,0.0,0.0,-160.16418,43.9563,-163.09753
1766902639585,-0.7006836,-0.24121094,-0.6743164,-0.18310547,-0.30517578,0.12207031,0.0,0.0,0.0,-160.16418,43.950806,-163.10303
1766902639673,-0.7001953,-0.24072266,-0.67578125,0.0,0.5493164,0.0,0.0,0.0,0.0,-160.16418,43.950806,-163.10303
1766902639685,-0.7001953,-0.24072266,-0.67578125,0.0,0.5493164,0.0,0.0,0.0,0.0,-160.17517,43.93982,-163.125
1766902639773,-0.69873047,-0.2421875,-0.67529297,-0.36621094,-0.24414062,0.12207031,0.0,0.0,0.0,-160.17517,43.93982,-163.125
1766902639785,-0.69873047,-0.2421875,-0.67529297,-0.36621094,-0.24414062,0.12207031,0.0,0.0,0.0,-160.19165,43.92334,-163.1305
1766902639873,-0.6982422,-0.24316406,-0.67626953,0.5493164,0.0,0.12207031,0.0,0.0,0.0,-160.19165,43.92334,-163.1305
1766902639885,-0.6982422,-0.24316406,-0.67626953,0.5493164,0.0,0.12207031,0.0,0.0,0.0,-160.16418,43.92334,-163.1195
1766902639974,-0.6982422,-0.23583984,-0.671875,-0.12207031,1.2207031,0.0,0.0,0.0,0.0,-160.16418,43.92334,-163.1195
1766902639990,-0.6982422,-0.23583984,-0.671875,-0.12207031,1.2207031,0.0,0.0,0.0,0.0,-160.13672,43.895874,-163.125
1766902640073,-0.69970703,-0.24023438,-0.6772461,-0.61035156,-0.24414062,0.18310547,0.0,0.0,0.0,-160.13672,43.895874,-163.125
1766902640084,-0.69970703,-0.24023438,-0.6772461,-0.61035156,-0.24414062,0.18310547,0.0,0.0,0.0,-160.18616,43.901367,-163.1305
1766902640173,-0.6982422,-0.24267578,-0.6826172,-0.4272461,-0.6713867,0.12207031,0.0,0.0,0.0,-160.18616,43.901367,-163.1305
1766902640184,-0.6982422,-0.24267578,-0.6826172,-0.4272461,-0.6713867,0.12207031,0.0,0.0,0.0,-160.21912,43.912354,-163.14697
1766902640272,-0.7001953,-0.24267578,-0.6777344,-0.18310547,-0.061035156,0.12207031,0.0,0.0,0.0,-160.21912,43.912354,-163.14697
1766902640283,-0.7001953,-0.24267578,-0.6777344,-0.18310547,-0.061035156,0.12207031,0.0,0.0,0.0,-160.24109,43.90686,-163.16345
1766902640371,-0.7001953,-0.2397461,-0.6767578,0.0,0.061035156,0.0,0.0,0.0,0.0,-160.24109,43.90686,-163.16345
1766902640383,-0.7001953,-0.2397461,-0.6767578,0.0,0.061035156,0.0,0.0,0.0,0.0,-160.24109,43.912354,-163.14697
1766902640471,-0.69873047,-0.24023438,-0.67529297,-0.24414062,0.24414062,0.12207031,0.0,0.0,0.0,-160.24109,43.912354,-163.14697
1766902640483,-0.69873047,-0.24023438,-0.67529297,-0.24414062,0.24414062,0.12207031,0.0,0.0,0.0,-160.26306,43.89038,-163.13599
1766902640571,-0.6977539,-0.24072266,-0.67871094,0.18310547,0.0,0.0,0.0,0.0,0.0,-160.26306,43.89038,-163.13599
1766902640582,-0.6977539,-0.24072266,-0.67871094,0.18310547,0.0,0.0,0.0,0.0,0.0,-160.24658,43.895874,-163.1195
1766902640671,-0.6977539,-0.23632812,-0.6777344,0.061035156,0.5493164,0.0,0.0,0.0,0.0,-160.24658,43.895874,-163.1195
1766902640683,-0.6977539,-0.23632812,-0.6777344,0.061035156,0.5493164,0.0,0.0,0.0,0.0,-160.21362,43.8739,-163.1305
1766902640770,-0.7001953,-0.23925781,-0.6777344,-0.5493164,-0.24414062,0.18310547,0.0,0.0,0.0,-160.21362,43.8739,-163.1305
1766902640783,-0.7001953,-0.23925781,-0.6777344,-0.5493164,-0.24414062,0.18310547,0.0,0.0,0.0,-160.25757,43.86841,-163.15796
1766902640870,-0.69677734,-0.24072266,-0.6850586,-0.4272461,-0.24414062,0.18310547,0.0,0.0,0.0,-160.25757,43.86841,-163.15796
1766902640882,-0.69677734,-0.24072266,-0.6850586,-0.4272461,-0.24414062,0.18310547,0.0,0.0,0.0,-160.30151,43.86841,-163.19641
1766902640970,-0.69921875,-0.24121094,-0.6777344,0.0,-0.30517578,0.24414062,0.0,0.0,0.0,-160.30151,43.86841,-163.19641
1766902640981,-0.69921875,-0.24121094,-0.6777344,0.0,-0.30517578,0.24414062,0.0,0.0,0.0,-160.3125,43.8739,-163.25684
1766902641069,-0.6972656,-0.23828125,-0.6772461,0.12207031,0.061035156,0.0,0.0,0.0,0.0,-160.3125,43.8739,-163.25684
1766902641081,-0.6972656,-0.23828125,-0.6772461,0.12207031,0.061035156,0.0,0.0,0.0,0.0,-160.30151,43.879395,-163.26782
1766902641169,-0.69873047,-0.23828125,-0.67626953,-0.30517578,0.12207031,0.061035156,0.0,0.0,0.0,-160.30151,43.879395,-163.26782
1766902641181,-0.69873047,-0.23828125,-0.67626953,-0.30517578,0.12207031,0.061035156,0.0,0.0,0.0,-160.3125,43.86841,-163.2898
1766902641269,-0.6982422,-0.24121094,-0.6796875,0.0,-0.12207031,0.0,0.0,0.0,0.0,-160.3125,43.86841,-163.2898
1766902641280,-0.6982422,-0.24121094,-0.6796875,0.0,-0.12207031,0.0,0.0,0.0,0.0,-160.30151,43.879395,-163.27881
1766902641369,-0.6982422,-0.2397461,-0.68066406,0.30517578,0.0,0.18310547,0.0,0.0,0.0,-160.30151,43.879395,-163.27881
1766902641380,-0.6982422,-0.2397461,-0.68066406,0.30517578,0.0,0.18310547,0.0,0.0,0.0,-160.25208,43.86841,-163.26233
1766902641468,-0.7026367,-0.23925781,-0.6801758,-0.48828125,-0.36621094,0.30517578,0.0,0.0,0.0,-160.25208,43.86841,-163.26233
1766902641480,-0.7026367,-0.23925781,-0.6801758,-0.48828125,-0.36621094,0.30517578,0.0,0.0,0.0,-160.29053,43.862915,-163.29529
1766902641568,-0.69677734,-0.23925781,-0.6850586,-0.36621094,-0.12207031,0.12207031,0.0,0.0,0.0,-160.29053,43.862915,-163.29529
1766902641580,-0.69677734,-0.23925781,-0.6850586,-0.36621094,-0.12207031,0.12207031,0.0,0.0,0.0,-160.318,43.862915,-163.26782
1766902641668,-0.69873047,-0.24267578,-0.6743164,0.0,-0.48828125,0.30517578,0.0,0.0,0.0,-160.318,43.862915,-163.26782
1766902641679,-0.69873047,-0.24267578,-0.6743164,0.0,-0.48828125,0.30517578,0.0,0.0,0.0,-160.32349,43.879395,-163.27881
1766902641767,-0.70214844,-0.23925781,-0.6791992,0.12207031,-0.4272461,0.0,0.0,0.0,0.0,-160.32349,43.879395,-163.27881
1766902641779,-0.70214844,-0.23925781,-0.6791992,0.12207031,-0.4272461,0.0,0.0,0.0,0.0,-160.3125,43.97278,-163.25684
1766902641867,-0.70410156,-0.23730469,-0.6767578,-0.12207031,-0.18310547,0.12207031,0.0,0.0,0.0,-160.3125,43.97278,-163.25684
1766902641879,-0.70410156,-0.23730469,-0.6767578,-0.12207031,-0.18310547,0.12207031,0.0,0.0,0.0,-160.29602,43.99475,-163.26782
1766902641967,-0.69970703,-0.2421875,-0.6821289,0.5493164,0.61035156,-0.36621094,0.0,0.0,0.0,-160.29602,43.99475,-163.26782
1766902641978,-0.69970703,-0.2421875,-0.6821289,0.5493164,0.61035156,-0.36621094,0.0,0.0,0.0,-160.21362,43.945312,-163.27332
1766902642066,-0.69677734,-0.24169922,-0.6791992,1.4038086,1.5869141,-0.18310547,0.0,0.0,0.0,-160.21362,43.945312,-163.27332
1766902642078,-0.69677734,-0.24169922,-0.6791992,1.4038086,1.5869141,-0.18310547,0.0,0.0,0.0,-160.10925,43.829956,-163.26782
1766902642166,-0.7001953,-0.24072266,-0.68603516,1.0375977,2.319336,-0.8544922,0.0,0.0,0.0,-160.10925,43.829956,-163.26782
1766902642178,-0.7001953,-0.24072266,-0.68603516,1.0375977,2.319336,-0.8544922,0.0,0.0,0.0,-160.12573,43.632202,-163.30078
1766902642266,-0.6904297,-0.24414062,-0.6904297,0.36621094,-0.8544922,-0.7324219,0.0,0.0,0.0,-160.12573,43.632202,-163.30078
1766902642277,-0.6904297,-0.24414062,-0.6904297,0.36621094,-0.8544922,-0.7324219,0.0,0.0,0.0,-159.96094,43.45642,-163.29529
1766902642366,-0.6904297,-0.24511719,-0.6738281,-0.18310547,-2.380371,-0.48828125,0.0,0.0,0.0,-159.96094,43.45642,-163.29529
1766902642377,-0.6904297,-0.24511719,-0.6738281,-0.18310547,-2.380371,-0.48828125,0.0,0.0,0.0,-159.84009,43.588257,-163.22388
1766902642467,-0.69384766,-0.24609375,-0.66845703,-0.6713867,-4.3945312,-0.30517578,0.0,0.0,0.0,-159.84009,43.588257,-163.22388
1766902642477,-0.69384766,-0.24609375,-0.66845703,-0.6713867,-4.3945312,-0.30517578,0.0,0.0,0.0,-159.74121,43.89038,-163.13599
1766902642565,-0.7036133,-0.2524414,-0.6669922,-0.24414062,-3.112793,-0.30517578,0.0,0.0,0.0,-159.74121,43.89038,-163.13599
1766902642576,-0.7036133,-0.2524414,-0.6669922,-0.24414062,-3.112793,-0.30517578,0.0,0.0,0.0,-159.5929,44.214478,-162.93823
1766902642665,-0.7050781,-0.24560547,-0.66796875,0.061035156,-2.6245117,-1.2817383,0.0,0.0,0.0,-159.5929,44.214478,-162.93823
1766902642684,-0.7050781,-0.24560547,-0.66796875,0.061035156,-2.6245117,-1.2817383,0.0,0.0,0.0,-159.505,44.467163,-162.68005
1766902642764,-0.6923828,-0.24511719,-0.65722656,-1.3427734,-1.2207031,0.18310547,0.0,0.0,0.0,-159.505,44.467163,-162.68005
1766902642776,-0.6923828,-0.24511719,-0.65722656,-1.3427734,-1.2207031,0.18310547,0.0,0.0,0.0,-159.31274,44.577026,-162.38342
1766902642864,-0.70996094,-0.24609375,-0.66308594,0.061035156,-2.6245117,0.7324219,0.0,0.0,0.0,-159.31274,44.577026,-162.38342
1766902642876,-0.70996094,-0.24609375,-0.66308594,0.061035156,-2.6245117,0.7324219,0.0,0.0,0.0,-159.45557,44.73633,-162.39441
1766902642964,-0.7138672,-0.23925781,-0.6586914,2.380371,-8.483887,-0.5493164,0.0,0.0,0.0,-159.45557,44.73633,-162.39441
1766902642976,-0.7138672,-0.23925781,-0.6586914,2.380371,-8.483887,-0.5493164,0.0,0.0,0.0,-159.08752,45.17578,-162.02087
1766902643064,-0.7163086,-0.23486328,-0.6508789,5.92041,-6.7749023,1.3427734,0.0,0.0,0.0,-159.08752,45.17578,-162.02087
1766902643076,-0.7163086,-0.23486328,-0.6508789,5.92041,-6.7749023,1.3427734,0.0,0.0,0.0,-158.51074,45.845947,-161.6803
1766902643163,-0.74658203,-0.25341797,-0.6303711,10.437012,-5.493164,0.7324219,0.0,0.0,0.0,-158.51074,45.845947,-161.6803
1766902643175,-0.74658203,-0.25341797,-0.6303711,10.437012,-5.493164,0.7324219,0.0,0.0,0.0,-157.57141,46.340332,-161.5155
1766902643263,-0.7338867,-0.2915039,-0.61816406,12.573242,-5.1879883,-0.9765625,0.0,0.0,0.0,-157.57141,46.340332,-161.5155
1766902643275,-0.7338867,-0.2915039,-0.61816406,12.573242,-5.1879883,-0.9765625,0.0,0.0,0.0,-156.297,46.78528,-160.82886
1766902643363,-0.74853516,-0.29589844,-0.6064453,10.009766,-4.5776367,-7.019043,0.0,0.0,0.0,-156.297,46.78528,-160.82886
1766902643374,-0.74853516,-0.29589844,-0.6064453,10.009766,-4.5776367,-7.019043,0.0,0.0,0.0,-154.39636,47.092896,-159.01611
1766902643462,-0.73828125,-0.30419922,-0.6020508,9.82666,-3.7841797,-4.8217773,0.0,0.0,0.0,-154.39636,47.092896,-159.01611
1766902643475,-0.73828125,-0.30419922,-0.6020508,9.82666,-3.7841797,-4.8217773,0.0,0.0,0.0,-152.95715,47.180786,-157.10449
1766902643562,-0.7504883,-0.3359375,-0.58740234,7.873535,-0.4272461,-3.2348633,0.0,0.0,0.0,-152.95715,47.180786,-157.10449
1766902643574,-0.7504883,-0.3359375,-0.58740234,7.873535,-0.4272461,-3.2348633,0.0,0.0,0.0,-151.64429,47.367554,-155.26428
1766902643662,-0.7470703,-0.3486328,-0.5834961,0.79345703,-1.0986328,-1.4648438,0.0,0.0,0.0,-151.64429,47.367554,-155.26428
1766902643673,-0.7470703,-0.3486328,-0.5834961,0.79345703,-1.0986328,-1.4648438,0.0,0.0,0.0,-150.9851,47.30713,-153.33069
1766902643762,-0.7504883,-0.33251953,-0.59228516,0.24414062,1.0986328,0.18310547,0.0,0.0,0.0,-150.9851,47.30713,-153.33069
1766902643773,-0.7504883,-0.33251953,-0.59228516,0.24414062,1.0986328,0.18310547,0.0,0.0,0.0,-150.77087,47.367554,-151.35864
1766902643861,-0.7392578,-0.33642578,-0.5776367,-1.4648438,2.5634766,-0.7324219,0.0,0.0,0.0,-150.77087,47.367554,-151.35864
1766902643873,-0.7392578,-0.33642578,-0.5776367,-1.4648438,2.5634766,-0.7324219,0.0,0.0,0.0,-150.77087,47.191772,-149.59534
1766902643961,-0.7480469,-0.3359375,-0.60595703,0.12207031,0.36621094,0.36621094,0.0,0.0,0.0,-150.77087,47.191772,-149.59534
1766902643972,-0.7480469,-0.3359375,-0.60595703,0.12207031,0.36621094,0.36621094,0.0,0.0,0.0,-150.96863,47.147827,-147.82104
1766902644061,-0.7338867,-0.32714844,-0.58691406,0.48828125,2.8076172,0.12207031,0.0,0.0,0.0,-150.96863,47.147827,-147.82104
1766902644072,-0.7338867,-0.32714844,-0.58691406,0.48828125,2.8076172,0.12207031,0.0,0.0,0.0,-151.03455,46.966553,-146.35986
1766902644160,-0.73291016,-0.32128906,-0.60253906,-4.8217773,-0.48828125,3.0517578,0.0,0.0,0.0,-151.03455,46.966553,-146.35986
1766902644172,-0.73291016,-0.32128906,-0.60253906,-4.8217773,-0.48828125,3.0517578,0.0,0.0,0.0,-151.51794,47.010498,-145.17334
1766902644260,-0.7319336,-0.296875,-0.5991211,-2.6855469,3.2958984,2.1972656,0.0,0.0,0.0,-151.51794,47.010498,-145.17334
1766902644271,-0.7319336,-0.296875,-0.5991211,-2.6855469,3.2958984,2.1972656,0.0,0.0,0.0,-152.17712,46.900635,-144.44275
1766902644360,-0.71435547,-0.30126953,-0.61083984,-1.4648438,0.91552734,5.92041,0.0,0.0,0.0,-152.17712,46.900635,-144.44275
1766902644371,-0.71435547,-0.30126953,-0.61083984,-1.4648438,0.91552734,5.92041,0.0,0.0,0.0,-152.63306,46.867676,-144.1571
1766902644460,-0.74853516,-0.3022461,-0.6191406,-0.18310547,2.9907227,8.117676,0.0,0.0,0.0,-152.63306,46.867676,-144.1571
1766902644471,-0.74853516,-0.3022461,-0.6191406,-0.18310547,2.9907227,8.117676,0.0,0.0,0.0,-153.54492,46.97754,-144.52515
1766902644559,-0.74072266,-0.32421875,-0.6020508,-5.92041,0.79345703,1.3427734,0.0,0.0,0.0,-153.54492,46.97754,-144.52515
1766902644571,-0.74072266,-0.32421875,-0.6020508,-5.92041,0.79345703,1.3427734,0.0,0.0,0.0,-154.19861,46.97754,-144.0802
1766902644659,-0.7480469,-0.29101562,-0.62402344,-9.58252,3.8452148,0.12207031,0.0,0.0,0.0,-154.19861,46.97754,-144.0802
1766902644670,-0.7480469,-0.29101562,-0.62402344,-9.58252,3.8452148,0.12207031,0.0,0.0,0.0,-155.2478,46.812744,-143.29468
1766902644759,-0.7392578,-0.2890625,-0.6269531,-9.399414,4.3945312,-4.699707,0.0,0.0,0.0,-155.2478,46.812744,-143.29468
1766902644770,-0.7392578,-0.2890625,-0.6269531,-9.399414,4.3945312,-4.699707,0.0,0.0,0.0,-155.93994,46.367798,-142.44873
1766902644858,-0.75390625,-0.29296875,-0.6279297,-9.58252,2.5024414,-5.3710938,0.0,0.0,0.0,-155.93994,46.367798,-142.44873
1766902644870,-0.75390625,-0.29296875,-0.6279297,-9.58252,2.5024414,-5.3710938,0.0,0.0,0.0,-156.46729,46.02173,-141.55884
1766902644958,-0.72802734,-0.27929688,-0.6401367,-14.099121,3.7841797,-10.864258,0.0,0.0,0.0,-156.46729,46.02173,-141.55884
1766902644970,-0.72802734,-0.27929688,-0.6401367,-14.099121,3.7841797,-10.864258,0.0,0.0,0.0,-156.92871,45.373535,-140.43823
1766902645058,-0.7246094,-0.27539062,-0.66308594,-12.634277,3.112793,-10.314941,0.0,0.0,0.0,-156.92871,45.373535,-140.43823
1766902645069,-0.7246094,-0.27539062,-0.66308594,-12.634277,3.112793,-10.314941,0.0,0.0,0.0,-157.20337,44.752808,-139.3341
1766902645157,-0.68310547,-0.27539062,-0.65966797,-12.451172,7.446289,-13.061523,0.0,0.0,0.0,-157.20337,44.752808,-139.3341
1766902645169,-0.68310547,-0.27539062,-0.65966797,-12.451172,7.446289,-13.061523,0.0,0.0,0.0,-157.44507,43.83545,-138.38928
1766902645257,-0.68603516,-0.27197266,-0.6821289,-8.666992,2.8076172,-8.7890625,0.0,0.0,0.0,-157.44507,43.83545,-138.38928
1766902645269,-0.68603516,-0.27197266,-0.6821289,-8.666992,2.8076172,-8.7890625,0.0,0.0,0.0,-157.63184,42.978516,-138.08167
1766902645357,-0.6669922,-0.23925781,-0.69677734,-3.2958984,-0.91552734,-11.108398,0.0,0.0,0.0,-157.63184,42.978516,-138.08167
1766902645369,-0.6669922,-0.23925781,-0.69677734,-3.2958984,-0.91552734,-11.108398,0.0,0.0,0.0,-157.71973,42.648926,-137.99927
1766902645457,-0.6513672,-0.2788086,-0.6801758,-13.671875,-3.7231445,-7.6293945,0.0,0.0,0.0,-157.71973,42.648926,-137.99927
1766902645468,-0.6513672,-0.2788086,-0.6801758,-13.671875,-3.7231445,-7.6293945,0.0,0.0,0.0,-157.80762,42.368774,-138.32886
1766902645557,-0.67529297,-0.26513672,-0.70410156,-4.3945312,1.0986328,-2.6245117,0.0,0.0,0.0,-157.80762,42.368774,-138.32886
1766902645568,-0.67529297,-0.26513672,-0.70410156,-4.3945312,1.0986328,-2.6245117,0.0,0.0,0.0,-158.3075,42.209473,-139.40552
1766902645656,-0.65478516,-0.2705078,-0.6850586,-1.8310547,5.3100586,-3.4179688,0.0,0.0,0.0,-158.3075,42.209473,-139.40552
1766902645668,-0.65478516,-0.2705078,-0.6850586,-1.8310547,5.3100586,-3.4179688,0.0,0.0,0.0,-158.47229,42.01172,-140.60852
1766902645756,-0.65771484,-0.2602539,-0.6948242,0.24414062,0.4272461,-2.2583008,0.0,0.0,0.0,-158.47229,42.01172,-140.60852
1766902645768,-0.65771484,-0.2602539,-0.6948242,0.24414062,0.4272461,-2.2583008,0.0,0.0,0.0,-158.31848,41.863403,-141.80054
1766902645855,-0.66552734,-0.28027344,-0.6899414,-0.91552734,0.36621094,-1.0986328,0.0,0.0,0.0,-158.31848,41.863403,-141.80054
1766902645867,-0.66552734,-0.28027344,-0.6899414,-0.91552734,0.36621094,-1.0986328,0.0,0.0,0.0,-158.33496,41.660156,-143.30017
1766902645955,-0.6777344,-0.27294922,-0.7026367,-2.1972656,-3.6010742,0.48828125,0.0,0.0,0.0,-158.33496,41.660156,-143.30017
1766902645967,-0.6777344,-0.27294922,-0.7026367,-2.1972656,-3.6010742,0.48828125,0.0,0.0,0.0,-158.36243,41.85791,-144.4867
1766902646055,-0.6621094,-0.27001953,-0.6826172,3.1738281,2.6855469,1.4038086,0.0,0.0,0.0,-158.36243,41.85791,-144.4867
1766902646066,-0.6621094,-0.27001953,-0.6826172,3.1738281,2.6855469,1.4038086,0.0,0.0,0.0,-158.39539,41.813965,-145.86548
1766902646154,-0.6699219,-0.26416016,-0.70410156,-0.7324219,-1.6479492,6.286621,0.0,0.0,0.0,-158.39539,41.813965,-145.86548
1766902646166,-0.6699219,-0.26416016,-0.70410156,-0.7324219,-1.6479492,6.286621,0.0,0.0,0.0,-158.7909,42.000732,-147.68921
1766902646254,-0.67333984,-0.26416016,-0.6948242,1.8310547,1.5869141,4.5776367,0.0,0.0,0.0,-158.7909,42.000732,-147.68921
1766902646266,-0.67333984,-0.26416016,-0.6948242,1.8310547,1.5869141,4.5776367,0.0,0.0,0.0,-159.0271,42.22046,-149.52942
1766902646354,-0.67626953,-0.24804688,-0.6972656,2.2583008,-1.0986328,5.92041,0.0,0.0,0.0,-159.0271,42.22046,-149.52942
1766902646365,-0.67626953,-0.24804688,-0.6972656,2.2583008,-1.0986328,5.92041,0.0,0.0,0.0,-159.31274,42.198486,-151.57837
1766902646453,-0.6660156,-0.24511719,-0.6982422,3.2348633,-0.6713867,5.1879883,0.0,0.0,0.0,-159.31274,42.198486,-151.57837
1766902646465,-0.6660156,-0.24511719,-0.6982422,3.2348633,-0.6713867,5.1879883,0.0,0.0,0.0,-159.14246,42.632446,-153.05054
1766902646553,-0.69628906,-0.25585938,-0.6669922,0.18310547,2.1972656,16.662598,0.0,0.0,0.0,-159.14246,42.632446,-153.05054
1766902646565,-0.69628906,-0.25585938,-0.6669922,0.18310547,2.1972656,16.662598,0.0,0.0,0.0,-160.13672,42.945557,-155.56091
1766902646653,-0.69970703,-0.23583984,-0.65625,4.3945312,3.540039,1.7089844,0.0,0.0,0.0,-160.13672,42.945557,-155.56091
1766902646664,-0.69970703,-0.23583984,-0.65625,4.3945312,3.540039,1.7089844,0.0,0.0,0.0,-161.18591,43.363037,-157.62634
1766902646753,-0.7006836,-0.22802734,-0.6879883,1.4648438,4.272461,1.5258789,0.0,0.0,0.0,-161.18591,43.363037,-157.62634
1766902646765,-0.7006836,-0.22802734,-0.6879883,1.4648438,4.272461,1.5258789,0.0,0.0,0.0,-161.18042,43.165283,-158.42285
1766902646852,-0.7080078,-0.22802734,-0.6982422,2.5024414,-0.36621094,-3.6621094,0.0,0.0,0.0,-161.18042,43.165283,-158.42285
1766902646864,-0.7080078,-0.22802734,-0.6982422,2.5024414,-0.36621094,-3.6621094,0.0,0.0,0.0,-161.06506,43.20923,-158.7085
1766902646952,-0.66015625,-0.23925781,-0.6870117,1.8920898,0.0,-1.5869141,0.0,0.0,0.0,-161.06506,43.20923,-158.7085
1766902646964,-0.66015625,-0.23925781,-0.6870117,1.8920898,0.0,-1.5869141,0.0,0.0,0.0,-160.41138,43.060913,-158.63159
1766902647052,-0.703125,-0.2368164,-0.68896484,0.12207031,-1.4648438,-0.30517578,0.0,0.0,0.0,-160.41138,43.060913,-158.63159
1766902647063,-0.703125,-0.2368164,-0.68896484,0.12207031,-1.4648438,-0.30517578,0.0,0.0,0.0,-160.27405,43.099365,-159.12048
1766902647152,-0.68115234,-0.23535156,-0.6894531,-2.0751953,-5.9814453,1.0375977,0.0,0.0,0.0,-160.27405,43.099365,-159.12048
1766902647163,-0.68115234,-0.23535156,-0.6894531,-2.0751953,-5.9814453,1.0375977,0.0,0.0,0.0,-160.21362,43.33008,-159.44458
1766902647251,-0.7080078,-0.25341797,-0.6801758,-3.540039,-4.272461,2.1362305,0.0,0.0,0.0,-160.21362,43.33008,-159.44458
1766902647263,-0.7080078,-0.25341797,-0.6801758,-3.540039,-4.272461,2.1362305,0.0,0.0,0.0,-160.50476,43.901367,-159.90051
1766902647351,-0.7011719,-0.23583984,-0.66748047,-3.6010742,1.2817383,1.7089844,0.0,0.0,0.0,-160.50476,43.901367,-159.90051
1766902647362,-0.7011719,-0.23583984,-0.66748047,-3.6010742,1.2817383,1.7089844,0.0,0.0,0.0,-160.98816,44.18701,-160.318
1766902647450,-0.7055664,-0.23291016,-0.6796875,-4.3945312,1.5258789,0.48828125,0.0,0.0,0.0,-160.98816,44.18701,-160.318
1766902647462,-0.7055664,-0.23291016,-0.6796875,-4.3945312,1.5258789,0.48828125,0.0,0.0,0.0,-161.34521,44.093628,-160.719
1766902647550,-0.6953125,-0.21142578,-0.6816406,-1.6479492,2.9296875,0.0,0.0,0.0,0.0,-161.34521,44.093628,-160.719
1766902647562,-0.6953125,-0.21142578,-0.6816406,-1.6479492,2.9296875,0.0,0.0,0.0,0.0,-161.7572,43.983765,-161.02661
1766902647650,-0.69433594,-0.20117188,-0.6845703,3.1738281,1.3427734,-2.0141602,0.0,0.0,0.0,-161.7572,43.983765,-161.02661
1766902647662,-0.69433594,-0.20117188,-0.6845703,3.1738281,1.3427734,-2.0141602,0.0,0.0,0.0,-161.69128,43.76953,-161.2738
1766902647750,-0.6904297,-0.23535156,-0.68847656,6.164551,0.91552734,-3.2348633,0.0,0.0,0.0,-161.69128,43.76953,-161.2738
1766902647761,-0.6904297,-0.23535156,-0.68847656,6.164551,0.91552734,-3.2348633,0.0,0.0,0.0,-161.07056,43.621216,-161.31226
1766902647849,-0.66845703,-0.22607422,-0.6791992,6.5307617,0.7324219,-0.36621094,0.0,0.0,0.0,-161.07056,43.621216,-161.31226
1766902647862,-0.66845703,-0.22607422,-0.6791992,6.5307617,0.7324219,-0.36621094,0.0,0.0,0.0,-160.3894,43.43994,-161.51001
1766902647949,-0.69091797,-0.21826172,-0.6821289,9.460449,0.0,5.004883,0.0,0.0,0.0,-160.3894,43.43994,-161.51001
1766902647961,-0.69091797,-0.21826172,-0.6821289,9.460449,0.0,5.004883,0.0,0.0,0.0,-159.92249,43.467407,-162.42188
1766902648049,-0.6928711,-0.2241211,-0.67285156,14.282227,-3.479004,8.605957,0.0,0.0,0.0,-159.92249,43.467407,-162.42188
1766902648061,-0.6928711,-0.2241211,-0.67285156,14.282227,-3.479004,8.605957,0.0,0.0,0.0,-159.4281,43.989258,-163.6908
1766902648149,-0.7055664,-0.26464844,-0.63916016,11.230469,-0.24414062,19.104004,0.0,0.0,0.0,-159.4281,43.989258,-163.6908
1766902648160,-0.7055664,-0.26464844,-0.63916016,11.230469,-0.24414062,19.104004,0.0,0.0,0.0,-159.21936,44.67041,-165.5365
1766902648248,-0.7495117,-0.27783203,-0.64941406,6.225586,-0.9765625,8.911133,0.0,0.0,0.0,-159.21936,44.67041,-165.5365
1766902648260,-0.7495117,-0.27783203,-0.64941406,6.225586,-0.9765625,8.911133,0.0,0.0,0.0,-159.52148,45.324097,-166.64062
1766902648348,-0.74609375,-0.26416016,-0.6582031,3.1738281,4.272461,4.5776367,0.0,0.0,0.0,-159.52148,45.324097,-166.64062
1766902648359,-0.74609375,-0.26416016,-0.6582031,3.1738281,4.272461,4.5776367,0.0,0.0,0.0,-159.70825,45.34607,-166.71204
1766902648448,-0.72314453,-0.24169922,-0.6616211,-2.1362305,6.5307617,-0.6713867,0.0,0.0,0.0,-159.70825,45.34607,-166.71204
1766902648459,-0.72314453,-0.24169922,-0.6616211,-2.1362305,6.5307617,-0.6713867,0.0,0.0,0.0,-159.78516,44.934082,-166.13525
1766902648547,-0.69433594,-0.24316406,-0.68359375,-1.5258789,2.5634766,-1.4648438,0.0,0.0,0.0,-159.78516,44.934082,-166.13525
1766902648559,-0.69433594,-0.24316406,-0.68359375,-1.5258789,2.5634766,-1.4648438,0.0,0.0,0.0,-159.81812,44.40674,-165.31677
1766902648647,-0.6904297,-0.21191406,-0.6699219,-2.746582,4.5776367,2.2583008,0.0,0.0,0.0,-159.81812,44.40674,-165.31677
1766902648658,-0.6904297,-0.21191406,-0.6699219,-2.746582,4.5776367,2.2583008,0.0,0.0,0.0,-160.42786,44.110107,-165.17395
1766902648747,-0.7128906,-0.22998047,-0.67285156,0.0,1.8920898,1.3427734,0.0,0.0,0.0,-160.42786,44.110107,-165.17395
1766902648758,-0.7128906,-0.22998047,-0.67285156,0.0,1.8920898,1.3427734,0.0,0.0,0.0,-160.83984,43.961792,-165.27283
1766902648846,-0.6791992,-0.2548828,-0.65966797,-3.479004,6.225586,4.638672,0.0,0.0,0.0,-160.83984,43.961792,-165.27283
1766902648858,-0.6791992,-0.2548828,-0.65966797,-3.479004,6.225586,4.638672,0.0,0.0,0.0,-161.18042,43.780518,-165.17395
1766902648946,-0.6879883,-0.2211914,-0.6948242,-2.746582,0.12207031,-1.159668,0.0,0.0,0.0,-161.18042,43.780518,-165.17395
1766902648958,-0.6879883,-0.2211914,-0.6948242,-2.746582,0.12207031,-1.159668,0.0,0.0,0.0,-161.66382,43.61023,-164.84985
1766902649046,-0.6904297,-0.20263672,-0.68896484,-0.36621094,0.6713867,-1.159668,0.0,0.0,0.0,-161.66382,43.61023,-164.84985
1766902649057,-0.6904297,-0.20263672,-0.68896484,-0.36621094,0.6713867,-1.159668,0.0,0.0,0.0,-161.66382,43.571777,-164.4159
1766902649146,-0.69384766,-0.21972656,-0.6904297,0.12207031,-2.0751953,0.7324219,0.0,0.0,0.0,-161.66382,43.571777,-164.4159
1766902649157,-0.69384766,-0.21972656,-0.6904297,0.12207031,-2.0751953,0.7324219,0.0,0.0,0.0,-161.72424,43.64319,-164.28406
1766902649245,-0.7138672,-0.24072266,-0.68115234,0.7324219,-0.61035156,-2.380371,0.0,0.0,0.0,-161.72424,43.64319,-164.28406
1766902649257,-0.7138672,-0.24072266,-0.68115234,0.7324219,-0.61035156,-2.380371,0.0,0.0,0.0,-161.60889,43.736572,-163.99841
1766902649345,-0.68652344,-0.22363281,-0.69091797,0.12207031,0.8544922,-0.8544922,0.0,0.0,0.0,-161.60889,43.736572,-163.99841
1766902649356,-0.68652344,-0.22363281,-0.69091797,0.12207031,0.8544922,-0.8544922,0.0,0.0,0.0,-161.33423,43.588257,-163.54248
1766902649445,-0.7011719,-0.23095703,-0.6801758,1.2817383,0.8544922,-1.0986328,0.0,0.0,0.0,-161.33423,43.588257,-163.54248
1766902649456,-0.7011719,-0.23095703,-0.6801758,1.2817383,0.8544922,-1.0986328,0.0,0.0,0.0,-161.26282,43.59375,-163.38867
1766902649544,-0.68603516,-0.22705078,-0.6777344,-0.7324219,1.8310547,-0.48828125,0.0,0.0,0.0,-161.26282,43.59375,-163.38867
1766902649556,-0.68603516,-0.22705078,-0.6777344,-0.7324219,1.8310547,-0.48828125,0.0,0.0,0.0,-161.1969,43.467407,-163.2843
1766902649644,-0.69384766,-0.23242188,-0.68603516,-0.30517578,2.5024414,0.91552734,0.0,0.0,0.0,-161.1969,43.467407,-163.2843
1766902649655,-0.69384766,-0.23242188,-0.68603516,-0.30517578,2.5024414,0.91552734,0.0,0.0,0.0,-161.40015,43.478394,-163.27881
1766902649744,-0.69140625,-0.22460938,-0.69189453,-0.30517578,1.159668,0.4272461,0.0,0.0,0.0,-161.40015,43.478394,-163.27881
1766902649755,-0.69140625,-0.22460938,-0.69189453,-0.30517578,1.159668,0.4272461,0.0,0.0,0.0,-161.49353,43.35205,-163.42163
1766902649843,-0.6977539,-0.22802734,-0.6904297,-0.30517578,0.6713867,0.4272461,0.0,0.0,0.0,-161.49353,43.35205,-163.42163
1766902649855,-0.6977539,-0.22802734,-0.6904297,-0.30517578,0.6713867,0.4272461,0.0,0.0,0.0,-161.58691,43.302612,-163.61938
1766902649943,-0.6879883,-0.22949219,-0.6875,0.30517578,0.91552734,0.30517578,0.0,0.0,0.0,-161.58691,43.302612,-163.61938
1766902649955,-0.6879883,-0.22949219,-0.6875,0.30517578,0.91552734,0.30517578,0.0,0.0,0.0,-161.58691,43.187256,-163.80066
1766902650043,-0.68652344,-0.2265625,-0.6904297,-0.24414062,1.0986328,0.18310547,0.0,0.0,0.0,-161.58691,43.187256,-163.80066
1766902650055,-0.68652344,-0.2265625,-0.6904297,-0.24414062,1.0986328,0.18310547,0.0,0.0,0.0,-161.61987,43.11035,-164.0094
1766902650143,-0.6933594,-0.23144531,-0.6928711,0.0,-0.4272461,0.12207031,0.0,0.0,0.0,-161.61987,43.11035,-164.0094
1766902650154,-0.6933594,-0.23144531,-0.6928711,0.0,-0.4272461,0.12207031,0.0,0.0,0.0,-161.65283,43.11035,-164.19067
1766902650242,-0.6826172,-0.22753906,-0.6875,-0.61035156,1.3427734,0.0,0.0,0.0,0.0,-161.65283,43.11035,-164.19067
1766902650254,-0.6826172,-0.22753906,-0.6875,-0.61035156,1.3427734,0.0,0.0,0.0,0.0,-161.6034,43.077393,-164.37744
1766902650342,-0.6953125,-0.21826172,-0.69921875,-1.2207031,-0.4272461,0.0,0.0,0.0,0.0,-161.6034,43.077393,-164.37744
1766902650353,-0.6953125,-0.21826172,-0.69921875,-1.2207031,-0.4272461,0.0,0.0,0.0,0.0,-161.74072,43.121338,-164.58618
1766902650442,-0.68652344,-0.22851562,-0.69677734,0.24414062,-0.61035156,0.30517578,0.0,0.0,0.0,-161.74072,43.121338,-164.58618
1766902650453,-0.68652344,-0.22851562,-0.69677734,0.24414062,-0.61035156,0.30517578,0.0,0.0,0.0,-161.76819,43.132324,-164.80042
1766902650541,-0.6904297,-0.2319336,-0.6899414,0.24414062,0.18310547,0.7324219,0.0,0.0,0.0,-161.76819,43.132324,-164.80042
1766902650553,-0.6904297,-0.2319336,-0.6899414,0.24414062,0.18310547,0.7324219,0.0,0.0,0.0,-161.79565,43.115845,-165.07507
1766902650641,-0.6948242,-0.2241211,-0.69433594,-0.4272461,-0.061035156,0.061035156,0.0,0.0,0.0,-161.79565,43.115845,-165.07507
1766902650652,-0.6948242,-0.2241211,-0.69433594,-0.4272461,-0.061035156,0.061035156,0.0,0.0,0.0,-161.82312,43.14331,-165.23438
1766902650744,-0.68603516,-0.21923828,-0.6933594,-0.18310547,0.61035156,0.0,0.0,0.0,0.0,-161.82312,43.14331,-165.23438
1766902650752,-0.68603516,-0.21923828,-0.6933594,-0.18310547,0.61035156,0.0,0.0,0.0,0.0,-161.8451,43.093872,-165.42114
1766902650840,-0.6879883,-0.2290039,-0.69433594,0.5493164,0.61035156,0.48828125,0.0,0.0,0.0,-161.8451,43.093872,-165.42114
1766902650852,-0.6879883,-0.2290039,-0.69433594,0.5493164,0.61035156,0.48828125,0.0,0.0,0.0,-161.82861,43.060913,-165.67383
1766902650940,-0.68896484,-0.23291016,-0.6972656,0.7324219,-0.12207031,-0.12207031,0.0,0.0,0.0,-161.82861,43.060913,-165.67383
1766902650952,-0.68896484,-0.23291016,-0.6972656,0.7324219,-0.12207031,-0.12207031,0.0,0.0,0.0,-161.80115,43.077393,-165.83313
1766902651040,-0.6923828,-0.21728516,-0.7001953,-0.9765625,-0.48828125,0.48828125,0.0,0.0,0.0,-161.80115,43.077393,-165.83313
1766902651051,-0.6923828,-0.21728516,-0.7001953,-0.9765625,-0.48828125,0.48828125,0.0,0.0,0.0,-161.79016,43.016968,-166.0199
1766902651139,-0.6826172,-0.22802734,-0.69677734,-0.36621094,0.48828125,0.5493164,0.0,0.0,0.0,-161.79016,43.016968,-166.0199
1766902651151,-0.6826172,-0.22802734,-0.69677734,-0.36621094,0.48828125,0.5493164,0.0,0.0,0.0,-161.86157,43.027954,-166.29456
1766902651239,-0.68652344,-0.22607422,-0.6928711,-0.30517578,-0.12207031,-0.061035156,0.0,0.0,0.0,-161.86157,43.027954,-166.29456
1766902651251,-0.68652344,-0.22607422,-0.6928711,-0.30517578,-0.12207031,-0.061035156,0.0,0.0,0.0,-161.90002,43.016968,-166.56921
1766902651339,-0.6879883,-0.2211914,-0.6982422,0.30517578,-0.4272461,-0.48828125,0.0,0.0,0.0,-161.90002,43.016968,-166.56921
1766902651350,-0.6879883,-0.2211914,-0.6982422,0.30517578,-0.4272461,-0.48828125,0.0,0.0,0.0,-161.86157,43.033447,-166.70654
1766902651438,-0.6879883,-0.23242188,-0.69091797,-0.48828125,-0.24414062,0.061035156,0.0,0.0,0.0,-161.86157,43.033447,-166.70654
1766902651450,-0.6879883,-0.23242188,-0.69091797,-0.48828125,-0.24414062,0.061035156,0.0,0.0,0.0,-161.81763,43.033447,-166.84937
1766902651538,-0.6928711,-0.22070312,-0.69921875,0.79345703,0.0,-0.91552734,0.0,0.0,0.0,-161.81763,43.033447,-166.84937
1766902651550,-0.6928711,-0.22070312,-0.69921875,0.79345703,0.0,-0.91552734,0.0,0.0,0.0,-161.77917,43.03894,-166.93176
1766902651638,-0.68896484,-0.22753906,-0.6821289,-0.4272461,-0.91552734,0.24414062,0.0,0.0,0.0,-161.77917,43.03894,-166.93176
1766902651649,-0.68896484,-0.22753906,-0.6821289,-0.4272461,-0.91552734,0.24414062,0.0,0.0,0.0,-161.72424,43.00598,-167.04163
1766902651738,-0.6748047,-0.23632812,-0.6894531,-0.12207031,0.7324219,-0.91552734,0.0,0.0,0.0,-161.72424,43.00598,-167.04163
1766902651749,-0.6748047,-0.23632812,-0.6894531,-0.12207031,0.7324219,-0.91552734,0.0,0.0,0.0,-161.64185,42.96753,-167.08557
1766902651837,-0.68603516,-0.22802734,-0.69091797,-1.6479492,-1.6479492,0.0,0.0,0.0,0.0,-161.64185,42.96753,-167.08557
1766902651849,-0.68603516,-0.22802734,-0.69091797,-1.6479492,-1.6479492,0.0,0.0,0.0,0.0,-161.63086,43.033447,-167.10754
1766902651937,-0.69091797,-0.23095703,-0.6816406,-3.90625,-6.591797,-2.4414062,0.0,0.0,0.0,-161.63086,43.033447,-167.10754
1766902651948,-0.69091797,-0.23095703,-0.6816406,-3.90625,-6.591797,-2.4414062,0.0,0.0,0.0,-161.55396,43.33008,-166.90979
1766902652037,-0.7104492,-0.2241211,-0.6875,-0.18310547,-3.90625,-1.159668,0.0,0.0,0.0,-161.55396,43.33008,-166.90979
1766902652048,-0.7104492,-0.2241211,-0.6875,-0.18310547,-3.90625,-1.159668,0.0,0.0,0.0,-161.40015,43.917847,-166.4154
1766902652136,-0.6879883,-0.23291016,-0.67285156,-1.2207031,-2.5024414,-0.30517578,0.0,0.0,0.0,-161.40015,43.917847,-166.4154
1766902652148,-0.6879883,-0.23291016,-0.67285156,-1.2207031,-2.5024414,-0.30517578,0.0,0.0,0.0,-161.29578,43.961792,-166.27808
1766902652236,-0.70410156,-0.23242188,-0.67041016,-0.5493164,-1.3427734,-0.5493164,0.0,0.0,0.0,-161.29578,43.961792,-166.27808
1766902652248,-0.70410156,-0.23242188,-0.67041016,-0.5493164,-1.3427734,-0.5493164,0.0,0.0,0.0,-161.29578,44.06067,-166.23413
1766902652336,-0.7036133,-0.2265625,-0.6821289,0.0,-0.7324219,0.0,0.0,0.0,0.0,-161.29578,44.06067,-166.23413
1766902652348,-0.7036133,-0.2265625,-0.6821289,0.0,-0.7324219,0.0,0.0,0.0,0.0,-161.20789,44.25293,-165.98694
1766902652435,-0.7011719,-0.22949219,-0.67871094,0.18310547,2.5024414,0.4272461,0.0,0.0,0.0,-161.20789,44.25293,-165.98694
1766902652447,-0.7011719,-0.22949219,-0.67871094,0.18310547,2.5024414,0.4272461,0.0,0.0,0.0,-161.22437,44.143066,-165.99792
1766902652535,-0.7026367,-0.23046875,-0.6855469,0.24414062,2.0141602,0.12207031,0.0,0.0,0.0,-161.22437,44.143066,-165.99792
1766902652547,-0.7026367,-0.23046875,-0.6855469,0.24414062,2.0141602,0.12207031,0.0,0.0,0.0,-161.29028,43.912354,-166.0144
1766902652635,-0.6923828,-0.23144531,-0.69091797,-0.12207031,1.953125,0.24414062,0.0,0.0,0.0,-161.29028,43.912354,-166.0144
1766902652646,-0.6923828,-0.23144531,-0.69091797,-0.12207031,1.953125,0.24414062,0.0,0.0,0.0,-161.33972,43.68164,-166.07483
1766902652734,-0.6953125,-0.22802734,-0.68603516,0.79345703,3.7841797,0.12207031,0.0,0.0,0.0,-161.33972,43.68164,-166.07483
1766902652746,-0.6953125,-0.22802734,-0.68603516,0.79345703,3.7841797,0.12207031,0.0,0.0,0.0,-161.39465,43.357544,-166.23413
1766902652834,-0.68847656,-0.23046875,-0.6899414,0.0,0.91552734,0.12207031,0.0,0.0,0.0,-161.39465,43.357544,-166.23413
1766902652846,-0.68847656,-0.23046875,-0.6899414,0.0,0.91552734,0.12207031,0.0,0.0,0.0,-161.40564,43.187256,-166.33301
1766902652934,-0.6953125,-0.22802734,-0.68896484,0.12207031,1.6479492,0.30517578,0.0,0.0,0.0,-161.40564,43.187256,-166.33301
1766902652945,-0.6953125,-0.22802734,-0.68896484,0.12207031,1.6479492,0.30517578,0.0,0.0,0.0,-161.4331,43.093872,-166.44287
1766902653033,-0.68066406,-0.234375,-0.6879883,0.18310547,0.18310547,0.061035156,0.0,0.0,0.0,-161.4331,43.093872,-166.44287
1766902653045,-0.68066406,-0.234375,-0.6879883,0.18310547,0.18310547,0.061035156,0.0,0.0,0.0,-161.44409,43.0719,-166.5747
1766902653133,-0.6826172,-0.23046875,-0.6982422,0.12207031,0.12207031,0.0,0.0,0.0,0.0,-161.44409,43.0719,-166.5747
1766902653144,-0.6826172,-0.23046875,-0.6982422,0.12207031,0.12207031,0.0,0.0,0.0,0.0,-161.37817,42.989502,-166.72302
1766902653233,-0.6899414,-0.23486328,-0.69384766,-0.61035156,-0.8544922,0.24414062,0.0,0.0,0.0,-161.37817,42.989502,-166.72302
1766902653244,-0.6899414,-0.23486328,-0.69384766,-0.61035156,-0.8544922,0.24414062,0.0,0.0,0.0,-161.42212,42.96753,-166.9043
1766902653332,-0.68896484,-0.23144531,-0.69873047,-0.18310547,0.061035156,0.0,0.0,0.0,0.0,-161.42212,42.96753,-166.9043
1766902653344,-0.68896484,-0.23144531,-0.69873047,-0.18310547,0.061035156,0.0,0.0,0.0,0.0,-161.41663,42.989502,-167.01965
1766902653432,-0.68603516,-0.23046875,-0.69091797,0.24414062,0.0,0.12207031,0.0,0.0,0.0,-161.41663,42.989502,-167.01965
1766902653444,-0.68603516,-0.23046875,-0.69091797,0.24414062,0.0,0.12207031,0.0,0.0,0.0,-161.40015,42.98401,-167.12952
1766902653532,-0.6879883,-0.23535156,-0.6928711,0.12207031,-0.12207031,0.0,0.0,0.0,0.0,-161.40015,42.98401,-167.12952
1766902653543,-0.6879883,-0.23535156,-0.6928711,0.12207031,-0.12207031,0.0,0.0,0.0,0.0,-161.36719,43.00598,-167.2229
1766902653632,-0.6879883,-0.23388672,-0.69140625,0.36621094,0.0,-0.4272461,0.0,0.0,0.0,-161.36719,43.00598,-167.2229
1766902653643,-0.6879883,-0.23388672,-0.69140625,0.36621094,0.0,-0.4272461,0.0,0.0,0.0,-161.29578,42.994995,-167.26685
1766902653731,-0.6899414,-0.23388672,-0.69433594,0.48828125,-0.36621094,-0.12207031,0.0,0.0,0.0,-161.29578,42.994995,-167.26685
1766902653743,-0.6899414,-0.23388672,-0.69433594,0.48828125,-0.36621094,-0.12207031,0.0,0.0,0.0,-161.1969,42.994995,-167.32727
1766902653831,-0.6816406,-0.23632812,-0.6899414,0.8544922,0.4272461,-0.12207031,0.0,0.0,0.0,-161.1969,42.994995,-167.32727
1766902653842,-0.6816406,-0.23632812,-0.6899414,0.8544922,0.4272461,-0.12207031,0.0,0.0,0.0,-161.09253,42.962036,-167.39868
1766902653931,-0.69140625,-0.23339844,-0.69677734,-0.4272461,-0.36621094,0.0,0.0,0.0,0.0,-161.09253,42.962036,-167.39868
1766902653942,-0.69140625,-0.23339844,-0.69677734,-0.4272461,-0.36621094,0.0,0.0,0.0,0.0,-161.09253,42.945557,-167.44812
1766902654030,-0.68408203,-0.23632812,-0.69677734,-0.18310547,0.0,0.24414062,0.0,0.0,0.0,-161.09253,42.945557,-167.44812
1766902654042,-0.68408203,-0.23632812,-0.69677734,-0.18310547,0.0,0.24414062,0.0,0.0,0.0,-161.1145,42.89612,-167.5415
1766902654130,-0.6879883,-0.23583984,-0.68652344,-0.48828125,-0.7324219,0.24414062,0.0,0.0,0.0,-161.1145,42.89612,-167.5415
1766902654141,-0.6879883,-0.23583984,-0.68652344,-0.48828125,-0.7324219,0.24414062,0.0,0.0,0.0,-161.13647,42.91809,-167.64038
1766902654230,-0.6845703,-0.2368164,-0.6894531,-0.36621094,-0.12207031,0.18310547,0.0,0.0,0.0,-161.13647,42.91809,-167.64038
1766902654241,-0.6845703,-0.2368164,-0.6894531,-0.36621094,-0.12207031,0.18310547,0.0,0.0,0.0,-161.13647,42.96753,-167.66235
1766902654329,-0.6875,-0.234375,-0.6894531,-0.7324219,-0.24414062,0.18310547,0.0,0.0,0.0,-161.13647,42.96753,-167.66235
1766902654341,-0.6875,-0.234375,-0.6894531,-0.7324219,-0.24414062,0.18310547,0.0,0.0,0.0,-161.17493,42.978516,-167.74475
1766902654429,-0.6870117,-0.23583984,-0.69091797,0.18310547,-0.36621094,0.18310547,0.0,0.0,0.0,-161.17493,42.978516,-167.74475
1766902654441,-0.6870117,-0.23583984,-0.69091797,0.18310547,-0.36621094,0.18310547,0.0,0.0,0.0,-161.18591,43.033447,-167.82166
1766902654529,-0.68603516,-0.23046875,-0.68652344,-0.24414062,0.7324219,0.061035156,0.0,0.0,0.0,-161.18591,43.033447,-167.82166
1766902654540,-0.68603516,-0.23046875,-0.68652344,-0.24414062,0.7324219,0.061035156,0.0,0.0,0.0,-161.15845,43.027954,-167.92603
1766902654629,-0.6894531,-0.23388672,-0.6923828,-0.79345703,-0.61035156,0.4272461,0.0,0.0,0.0,-161.15845,43.027954,-167.92603
1766902654640,-0.6894531,-0.23388672,-0.6923828,-0.79345703,-0.61035156,0.4272461,0.0,0.0,0.0,-161.22437,43.082886,-168.00293
1766902654728,-0.68847656,-0.23486328,-0.69384766,0.24414062,-0.36621094,0.24414062,0.0,0.0,0.0,-161.22437,43.082886,-168.00293
1766902654740,-0.68847656,-0.23486328,-0.69384766,0.24414062,-0.36621094,0.24414062,0.0,0.0,0.0,-161.26282,43.08838,-168.06885
1766902654828,-0.6904297,-0.23242188,-0.68896484,-0.30517578,-0.061035156,0.24414062,0.0,0.0,0.0,-161.26282,43.08838,-168.06885
1766902654839,-0.6904297,-0.23242188,-0.68896484,-0.30517578,-0.061035156,0.24414062,0.0,0.0,0.0,-161.29028,43.08838,-168.1128
1766902654927,-0.68847656,-0.23291016,-0.6894531,0.0,0.12207031,0.061035156,0.0,0.0,0.0,-161.29028,43.08838,-168.1128
1766902654939,-0.68847656,-0.23291016,-0.6894531,0.0,0.12207031,0.061035156,0.0,0.0,0.0,-161.2793,43.099365,-168.13477
1766902655027,-0.68896484,-0.2319336,-0.68896484,-0.24414062,0.4272461,0.061035156,0.0,0.0,0.0,-161.2793,43.099365,-168.13477
1766902655039,-0.68896484,-0.2319336,-0.68896484,-0.24414062,0.4272461,0.061035156,0.0,0.0,0.0,-161.30127,43.066406,-168.1897
1766902655127,-0.6879883,-0.23535156,-0.69091797,0.4272461,-0.12207031,0.18310547,0.0,0.0,0.0,-161.30127,43.066406,-168.1897
1766902655139,-0.6879883,-0.23535156,-0.69091797,0.4272461,-0.12207031,0.18310547,0.0,0.0,0.0,-161.29578,43.0719,-168.20618
1766902655227,-0.6879883,-0.22851562,-0.68603516,-0.24414062,1.159668,-0.061035156,0.0,0.0,0.0,-161.29578,43.0719,-168.20618
1766902655238,-0.6879883,-0.22851562,-0.68603516,-0.24414062,1.159668,-0.061035156,0.0,0.0,0.0,-161.24634,43.03894,-168.20618
1766902655326,-0.6879883,-0.23242188,-0.6904297,-0.5493164,-0.18310547,0.24414062,0.0,0.0,0.0,-161.24634,43.03894,-168.20618
1766902655338,-0.6879883,-0.23242188,-0.6904297,-0.5493164,-0.18310547,0.24414062,0.0,0.0,0.0,-161.29028,43.03894,-168.23914
1766902655426,-0.6875,-0.23388672,-0.69433594,0.12207031,-0.30517578,0.12207031,0.0,0.0,0.0,-161.29028,43.03894,-168.23914
1766902655437,-0.6875,-0.23388672,-0.69433594,0.12207031,-0.30517578,0.12207031,0.0,0.0,0.0,-161.30676,43.03894,-168.25012
1766902655526,-0.6875,-0.23095703,-0.6904297,-0.12207031,-0.12207031,0.24414062,0.0,0.0,0.0,-161.30676,43.03894,-168.25012
1766902655537,-0.6875,-0.23095703,-0.6904297,-0.12207031,-0.12207031,0.24414062,0.0,0.0,0.0,-161.31775,43.03894,-168.2721
1766902655625,-0.68847656,-0.23144531,-0.69140625,0.0,0.061035156,0.0,0.0,0.0,0.0,-161.31775,43.03894,-168.2721
1766902655637,-0.68847656,-0.23144531,-0.69140625,0.0,0.061035156,0.0,0.0,0.0,0.0,-161.30676,43.044434,-168.28857
1766902655725,-0.6879883,-0.2319336,-0.6899414,-0.24414062,0.18310547,0.061035156,0.0,0.0,0.0,-161.30676,43.044434,-168.28857
1766902655737,-0.6879883,-0.2319336,-0.6899414,-0.24414062,0.18310547,0.061035156,0.0,0.0,0.0,-161.31775,43.027954,-168.31055
1766902655825,-0.6875,-0.23388672,-0.69091797,0.30517578,0.0,0.0,0.0,0.0,0.0,-161.31775,43.027954,-168.31055
1766902655836,-0.6875,-0.23388672,-0.69091797,0.30517578,0.0,0.0,0.0,0.0,0.0,-161.30676,43.027954,-168.31055
1766902655924,-0.6879883,-0.22949219,-0.6899414,0.061035156,0.6713867,0.0,0.0,0.0,0.0,-161.30676,43.027954,-168.31055
1766902655936,-0.6879883,-0.22949219,-0.6899414,0.061035156,0.6713867,0.0,0.0,0.0,0.0,-161.24634,43.011475,-168.29407
1766902656024,-0.6904297,-0.23144531,-0.69677734,-0.6713867,-0.48828125,0.36621094,0.0,0.0,0.0,-161.24634,43.011475,-168.29407
1766902656036,-0.6904297,-0.23144531,-0.69677734,-0.6713867,-0.48828125,0.36621094,0.0,0.0,0.0,-161.28479,43.00049,-168.30505
1766902656124,-0.6850586,-0.23388672,-0.6977539,-0.18310547,0.24414062,0.12207031,0.0,0.0,0.0,-161.28479,43.00049,-168.30505
1766902656136,-0.6850586,-0.23388672,-0.6977539,-0.18310547,0.24414062,0.12207031,0.0,0.0,0.0,-161.31226,42.989502,-168.3435
1766902656223,-0.6870117,-0.234375,-0.6899414,0.0,-0.12207031,0.12207031,0.0,0.0,0.0,-161.31226,42.989502,-168.3435
1766902656235,-0.6870117,-0.234375,-0.6899414,0.0,-0.12207031,0.12207031,0.0,0.0,0.0,-161.31775,42.994995,-168.39844
1766902656323,-0.68652344,-0.2319336,-0.69384766,0.0,-0.12207031,0.0,0.0,0.0,0.0,-161.31775,42.994995,-168.39844
1766902656335,-0.68652344,-0.2319336,-0.69384766,0.0,-0.12207031,0.0,0.0,0.0,0.0,-161.30127,43.00598,-168.4314
1766902656424,-0.68847656,-0.23339844,-0.69189453,-0.30517578,0.18310547,0.18310547,0.0,0.0,0.0,-161.30127,43.00598,-168.4314
1766902656434,-0.68847656,-0.23339844,-0.69189453,-0.30517578,0.18310547,0.18310547,0.0,0.0,0.0,-161.30676,42.989502,-168.49182
1766902656523,-0.6870117,-0.234375,-0.6933594,0.0,-0.061035156,0.0,0.0,0.0,0.0,-161.30676,42.989502,-168.49182
1766902656534,-0.6870117,-0.234375,-0.6933594,0.0,-0.061035156,0.0,0.0,0.0,0.0,-161.30676,42.989502,-168.48633
1766902656622,-0.6875,-0.23535156,-0.69628906,0.5493164,-0.12207031,0.0,0.0,0.0,0.0,-161.30676,42.989502,-168.48633
1766902656634,-0.6875,-0.23535156,-0.69628906,0.5493164,-0.12207031,0.0,0.0,0.0,0.0,-161.26282,42.96753,-168.49731
1766902656722,-0.68847656,-0.23583984,-0.69873047,-0.6713867,-0.5493164,0.30517578,0.0,0.0,0.0,-161.26282,42.96753,-168.49731
1766902656733,-0.68847656,-0.23583984,-0.69873047,-0.6713867,-0.5493164,0.30517578,0.0,0.0,0.0,-161.2738,42.945557,-168.53577
1766902656822,-0.6845703,-0.23388672,-0.6928711,-0.18310547,0.36621094,0.061035156,0.0,0.0,0.0,-161.2738,42.945557,-168.53577
1766902656834,-0.6845703,-0.23388672,-0.6928711,-0.18310547,0.36621094,0.061035156,0.0,0.0,0.0,-161.30127,42.940063,-168.56873
1766902656921,-0.68652344,-0.2319336,-0.6875,-0.18310547,0.30517578,0.18310547,0.0,0.0,0.0,-161.30127,42.940063,-168.56873
1766902656933,-0.68652344,-0.2319336,-0.6875,-0.18310547,0.30517578,0.18310547,0.0,0.0,0.0,-161.31775,42.940063,-168.59619
1766902657021,-0.68603516,-0.23486328,-0.6948242,-0.12207031,-0.061035156,0.0,0.0,0.0,0.0,-161.31775,42.940063,-168.59619
1766902657033,-0.68603516,-0.23486328,-0.6948242,-0.12207031,-0.061035156,0.0,0.0,0.0,0.0,-161.31226,42.956543,-168.5907
1766902657121,-0.6870117,-0.23242188,-0.6928711,-0.30517578,0.30517578,0.12207031,0.0,0.0,0.0,-161.31226,42.956543,-168.5907
1766902657132,-0.6870117,-0.23242188,-0.6928711,-0.30517578,0.30517578,0.12207031,0.0,0.0,0.0,-161.30676,42.940063,-168.60718
1766902657220,-0.68847656,-0.23486328,-0.6948242,-0.12207031,-0.061035156,0.0,0.0,0.0,0.0,-161.30676,42.940063,-168.60718
1766902657232,-0.68847656,-0.23486328,-0.6948242,-0.12207031,-0.061035156,0.0,0.0,0.0,0.0,-161.31226,42.940063,-168.61267
1766902657320,-0.6850586,-0.23291016,-0.69189453,0.5493164,0.18310547,-0.18310547,0.0,0.0,0.0,-161.31226,42.940063,-168.61267
1766902657332,-0.6850586,-0.23291016,-0.69189453,0.5493164,0.18310547,-0.18310547,0.0,0.0,0.0,-161.28479,42.91809,-168.61267
1766902657420,-0.68408203,-0.23583984,-0.6958008,-0.5493164,-0.24414062,0.12207031,0.0,0.0,0.0,-161.28479,42.91809,-168.61267
1766902657432,-0.68408203,-0.23583984,-0.6958008,-0.5493164,-0.24414062,0.12207031,0.0,0.0,0.0,-161.2738,42.89612,-168.62915
1766902657520,-0.68408203,-0.23388672,-0.69140625,-0.24414062,0.36621094,0.061035156,0.0,0.0,0.0,-161.2738,42.89612,-168.62915
1766902657531,-0.68408203,-0.23388672,-0.69140625,-0.24414062,0.36621094,0.061035156,0.0,0.0,0.0,-161.30676,42.91809,-168.65112
1766902657619,-0.6879883,-0.23144531,-0.6899414,-0.5493164,0.30517578,0.18310547,0.0,0.0,0.0,-161.30676,42.91809,-168.65112
1766902657631,-0.6879883,-0.23144531,-0.6899414,-0.5493164,0.30517578,0.18310547,0.0,0.0,0.0,-161.32324,42.912598,-168.70056
1766902657719,-0.6855469,-0.23535156,-0.69384766,-0.18310547,0.0,0.061035156,0.0,0.0,0.0,-161.32324,42.912598,-168.70056
1766902657730,-0.6855469,-0.23535156,-0.69384766,-0.18310547,0.0,0.061035156,0.0,0.0,0.0,-161.32874,42.929077,-168.70056
1766902657819,-0.6850586,-0.23242188,-0.6933594,-0.30517578,0.24414062,0.18310547,0.0,0.0,0.0,-161.32874,42.929077,-168.70056
1766902657830,-0.6850586,-0.23242188,-0.6933594,-0.30517578,0.24414062,0.18310547,0.0,0.0,0.0,-161.31775,42.91809,-168.71155
1766902657918,-0.6870117,-0.23339844,-0.6933594,-0.061035156,0.0,0.061035156,0.0,0.0,0.0,-161.31775,42.91809,-168.71155
1766902657930,-0.6870117,-0.23339844,-0.6933594,-0.061035156,0.0,0.061035156,0.0,0.0,0.0,-161.32874,42.91809,-168.72253
1766902658018,-0.68603516,-0.23095703,-0.68652344,-0.12207031,0.91552734,0.0,0.0,0.0,0.0,-161.32874,42.91809,-168.72253
1766902658030,-0.68603516,-0.23095703,-0.68652344,-0.12207031,0.91552734,0.0,0.0,0.0,0.0,-161.30127,42.907104,-168.72803
1766902658118,-0.68359375,-0.23486328,-0.6899414,-0.5493164,0.4272461,0.0,0.0,0.0,0.0,-161.30127,42.907104,-168.72803
1766902658129,-0.68359375,-0.23486328,-0.6899414,-0.5493164,0.4272461,0.0,0.0,0.0,0.0,-161.2738,42.874146,-168.73352
1766902658217,-0.68359375,-0.23388672,-0.6899414,-0.4272461,0.4272461,0.061035156,0.0,0.0,0.0,-161.2738,42.874146,-168.73352
1766902658229,-0.68359375,-0.23388672,-0.6899414,-0.4272461,0.4272461,0.061035156,0.0,0.0,0.0,-161.31775,42.89612,-168.7445
1766902658317,-0.6894531,-0.23144531,-0.69384766,-0.61035156,0.12207031,0.18310547,0.0,0.0,0.0,-161.31775,42.89612,-168.7445
1766902658329,-0.6894531,-0.23144531,-0.69384766,-0.61035156,0.12207031,0.18310547,0.0,0.0,0.0,-161.32874,42.89612,-168.77747
1766902658417,-0.68652344,-0.23486328,-0.6928711,-0.30517578,-0.061035156,0.061035156,0.0,0.0,0.0,-161.32874,42.89612,-168.77747
1766902658429,-0.68652344,-0.23486328,-0.6928711,-0.30517578,-0.061035156,0.061035156,0.0,0.0,0.0,-161.33972,42.907104,-168.78296
1766902658517,-0.68652344,-0.23291016,-0.6928711,-0.36621094,0.30517578,0.18310547,0.0,0.0,0.0,-161.33972,42.907104,-168.78296
1766902658529,-0.68652344,-0.23291016,-0.6928711,-0.36621094,0.30517578,0.18310547,0.0,0.0,0.0,-161.33972,42.907104,-168.78296
1766902658616,-0.68652344,-0.23242188,-0.6933594,-0.18310547,-0.12207031,0.0,0.0,0.0,0.0,-161.33972,42.907104,-168.78296
1766902658628,-0.68652344,-0.23242188,-0.6933594,-0.18310547,-0.12207031,0.0,0.0,0.0,0.0,-161.3617,42.90161,-168.76099
1766902658716,-0.68652344,-0.22998047,-0.6850586,-0.24414062,1.0986328,0.0,0.0,0.0,0.0,-161.3617,42.90161,-168.76099
1766902658727,-0.68652344,-0.22998047,-0.6850586,-0.24414062,1.0986328,0.0,0.0,0.0,0.0,-161.33423,42.89612,-168.76099
1766902658816,-0.6821289,-0.23339844,-0.68847656,-0.48828125,0.5493164,0.0,0.0,0.0,0.0,-161.33423,42.89612,-168.76099
1766902658827,-0.6821289,-0.23339844,-0.68847656,-0.48828125,0.5493164,0.0,0.0,0.0,0.0,-161.30676,42.874146,-168.76648
1766902658915,-0.68359375,-0.23291016,-0.6899414,-0.4272461,0.30517578,0.0,0.0,0.0,0.0,-161.30676,42.874146,-168.76648
1766902658927,-0.68359375,-0.23291016,-0.6899414,-0.4272461,0.30517578,0.0,0.0,0.0,0.0,-161.34521,42.90161,-168.78845
1766902659015,-0.69091797,-0.2319336,-0.6953125,-0.4272461,0.061035156,0.24414062,0.0,0.0,0.0,-161.34521,42.90161,-168.78845
1766902659026,-0.69091797,-0.2319336,-0.6953125,-0.4272461,0.061035156,0.24414062,0.0,0.0,0.0,-161.34521,42.912598,-168.78845
1766902659115,-0.6870117,-0.234375,-0.6928711,-0.30517578,-0.061035156,0.061035156,0.0,0.0,0.0,-161.34521,42.912598,-168.78845
1766902659126,-0.6870117,-0.234375,-0.6928711,-0.30517578,-0.061035156,0.061035156,0.0,0.0,0.0,-161.35071,42.923584,-168.85437
1766902659214,-0.6870117,-0.23242188,-0.6923828,-0.5493164,0.12207031,0.12207031,0.0,0.0,0.0,-161.35071,42.923584,-168.85437
1766902659226,-0.6870117,-0.23242188,-0.6923828,-0.5493164,0.12207031,0.12207031,0.0,0.0,0.0,-161.3562,42.929077,-168.8324
1766902659314,-0.6870117,-0.23291016,-0.6923828,-0.12207031,-0.061035156,0.0,0.0,0.0,0.0,-161.3562,42.929077,-168.8324
1766902659325,-0.6870117,-0.23291016,-0.6923828,-0.12207031,-0.061035156,0.0,0.0,0.0,0.0,-161.38367,42.929077,-168.84338
1766902659414,-0.68603516,-0.23095703,-0.68652344,-0.30517578,0.9765625,0.0,0.0,0.0,0.0,-161.38367,42.929077,-168.84338
1766902659426,-0.68603516,-0.23095703,-0.68652344,-0.30517578,0.9765625,0.0,0.0,0.0,0.0,-161.3562,42.929077,-168.85437
1766902659513,-0.68359375,-0.2319336,-0.68603516,-0.4272461,0.9765625,0.0,0.0,0.0,0.0,-161.3562,42.929077,-168.85437
1766902659525,-0.68359375,-0.2319336,-0.68603516,-0.4272461,0.9765625,0.0,0.0,0.0,0.0,-161.31775,42.90161,-168.88733
1766902659613,-0.6850586,-0.23339844,-0.6894531,-0.48828125,0.30517578,0.061035156,0.0,0.0,0.0,-161.31775,42.90161,-168.88733
1766902659625,-0.6850586,-0.23339844,-0.6894531,-0.48828125,0.30517578,0.061035156,0.0,0.0,0.0,-161.3617,42.91809,-168.9148
1766902659713,-0.6894531,-0.23095703,-0.6953125,-0.36621094,0.061035156,0.24414062,0.0,0.0,0.0,-161.3617,42.91809,-168.9148
1766902659724,-0.6894531,-0.23095703,-0.6953125,-0.36621094,0.061035156,0.24414062,0.0,0.0,0.0,-161.37817,42.912598,-168.94775
1766902659812,-0.6870117,-0.23291016,-0.6923828,-0.18310547,-0.061035156,0.12207031,0.0,0.0,0.0,-161.37817,42.912598,-168.94775
1766902659824,-0.6870117,-0.23291016,-0.6923828,-0.18310547,-0.061035156,0.12207031,0.0,0.0,0.0,-161.38916,42.923584,-168.98071
1766902659912,-0.6870117,-0.23388672,-0.6923828,-0.24414062,0.36621094,0.18310547,0.0,0.0,0.0,-161.38916,42.923584,-168.98071
1766902659924,-0.6870117,-0.23388672,-0.6923828,-0.24414062,0.36621094,0.18310547,0.0,0.0,0.0,-161.37268,42.91809,-168.97522
1766902660012,-0.68603516,-0.23144531,-0.6928711,-0.30517578,-0.12207031,0.0,0.0,0.0,0.0,-161.37268,42.91809,-168.97522
1766902660024,-0.68603516,-0.23144531,-0.6928711,-0.30517578,-0.12207031,0.0,0.0,0.0,0.0,-161.40564,42.907104,-168.9862
1766902660112,-0.6855469,-0.23486328,-0.69189453,0.5493164,0.061035156,0.0,0.0,0.0,0.0,-161.40564,42.907104,-168.9862
1766902660123,-0.6855469,-0.23486328,-0.69189453,0.5493164,0.061035156,0.0,0.0,0.0,0.0,-161.37817,42.912598,-168.97522
1766902660211,-0.6855469,-0.2290039,-0.68896484,0.0,1.0375977,0.0,0.0,0.0,0.0,-161.37817,42.912598,-168.97522
1766902660223,-0.6855469,-0.2290039,-0.68896484,0.0,1.0375977,0.0,0.0,0.0,0.0,-161.33972,42.88513,-168.98071
1766902660311,-0.6870117,-0.23144531,-0.69091797,-0.4272461,0.0,0.12207031,0.0,0.0,0.0,-161.33972,42.88513,-168.98071
1766902660322,-0.6870117,-0.23144531,-0.69091797,-0.4272461,0.0,0.12207031,0.0,0.0,0.0,-161.38367,42.907104,-169.01367
1766902660411,-0.6855469,-0.23242188,-0.6958008,0.061035156,-0.48828125,0.12207031,0.0,0.0,0.0,-161.38367,42.907104,-169.01367
1766902660422,-0.6855469,-0.23242188,-0.6958008,0.061035156,-0.48828125,0.12207031,0.0,0.0,0.0,-161.39465,42.907104,-169.02466
1766902660510,-0.68652344,-0.23046875,-0.6923828,-0.18310547,-0.24414062,0.24414062,0.0,0.0,0.0,-161.39465,42.907104,-169.02466
1766902660522,-0.68652344,-0.23046875,-0.6923828,-0.18310547,-0.24414062,0.24414062,0.0,0.0,0.0,-161.41663,42.907104,-169.05212
1766902660610,-0.68652344,-0.22998047,-0.6933594,0.0,0.18310547,0.061035156,0.0,0.0,0.0,-161.41663,42.907104,-169.05212
1766902660622,-0.68652344,-0.22998047,-0.6933594,0.0,0.18310547,0.061035156,0.0,0.0,0.0,-161.40564,42.907104,-169.05762
1766902660710,-0.68652344,-0.2319336,-0.6923828,-0.30517578,0.061035156,0.12207031,0.0,0.0,0.0,-161.40564,42.907104,-169.05762
1766902660721,-0.68652344,-0.2319336,-0.6923828,-0.30517578,0.061035156,0.12207031,0.0,0.0,0.0,-161.42212,42.890625,-169.04663
1766902660809,-0.6855469,-0.23242188,-0.6923828,0.24414062,0.0,0.0,0.0,0.0,0.0,-161.42212,42.890625,-169.04663
1766902660821,-0.6855469,-0.23242188,-0.6923828,0.24414062,0.0,0.0,0.0,0.0,0.0,-161.41113,42.890625,-169.02466
1766902660909,-0.68603516,-0.2290039,-0.6933594,0.12207031,0.5493164,0.0,0.0,0.0,0.0,-161.41113,42.890625,-169.02466
1766902660921,-0.68603516,-0.2290039,-0.6933594,0.12207031,0.5493164,0.0,0.0,0.0,0.0,-161.37268,42.874146,-169.04114
1766902661009,-0.6894531,-0.23144531,-0.69433594,-0.4272461,-0.18310547,0.18310547,0.0,0.0,0.0,-161.37268,42.874146,-169.04114
1766902661020,-0.6894531,-0.23144531,-0.69433594,-0.4272461,-0.18310547,0.18310547,0.0,0.0,0.0,-161.42212,42.874146,-169.04663
1766902661109,-0.6845703,-0.23095703,-0.7001953,-0.30517578,-0.24414062,0.061035156,0.0,0.0,0.0,-161.42212,42.874146,-169.04663
1766902661120,-0.6845703,-0.23095703,-0.7001953,-0.30517578,-0.24414062,0.061035156,0.0,0.0,0.0,-161.4386,42.857666,-169.05762
1766902661208,-0.6850586,-0.23291016,-0.6928711,-0.24414062,-0.24414062,0.30517578,0.0,0.0,0.0,-161.4386,42.857666,-169.05762
1766902661220,-0.6850586,-0.23291016,-0.6928711,-0.24414062,-0.24414062,0.30517578,0.0,0.0,0.0,-161.45508,42.86316,-169.11255
1766902661308,-0.6870117,-0.23046875,-0.69384766,0.061035156,0.061035156,0.0,0.0,0.0,0.0,-161.45508,42.86316,-169.11255
1766902661319,-0.6870117,-0.23046875,-0.69384766,0.061035156,0.061035156,0.0,0.0,0.0,0.0,-161.44958,42.868652,-169.12354
1766902661408,-0.68652344,-0.22998047,-0.69384766,-0.30517578,0.0,0.061035156,0.0,0.0,0.0,-161.44958,42.868652,-169.12354
1766902661419,-0.68652344,-0.22998047,-0.69384766,-0.30517578,0.0,0.061035156,0.0,0.0,0.0,-161.46057,42.86316,-169.08508
1766902661507,-0.6855469,-0.23291016,-0.6948242,-0.12207031,0.0,0.061035156,0.0,0.0,0.0,-161.46057,42.86316,-169.08508
1766902661519,-0.6855469,-0.23291016,-0.6948242,-0.12207031,0.0,0.061035156,0.0,0.0,0.0,-161.45508,42.86316,-169.0686
1766902661607,-0.6850586,-0.23632812,-0.7006836,0.30517578,-0.5493164,0.12207031,0.0,0.0,0.0,-161.45508,42.86316,-169.0686
1766902661618,-0.6850586,-0.23632812,-0.7006836,0.30517578,-0.5493164,0.12207031,0.0,0.0,0.0,-161.41663,42.857666,-169.06311
1766902661707,-0.6899414,-0.23095703,-0.69970703,-0.61035156,-0.61035156,0.4272461,0.0,0.0,0.0,-161.41663,42.857666,-169.06311
1766902661718,-0.6899414,-0.23095703,-0.69970703,-0.61035156,-0.61035156,0.4272461,0.0,0.0,0.0,-161.44409,42.841187,-169.10156
1766902661806,-0.6821289,-0.23144531,-0.6972656,-0.061035156,0.12207031,0.12207031,0.0,0.0,0.0,-161.44409,42.841187,-169.10156
1766902661818,-0.6821289,-0.23144531,-0.6972656,-0.061035156,0.12207031,0.12207031,0.0,0.0,0.0,-161.47156,42.841187,-169.12354
1766902661906,-0.6855469,-0.2319336,-0.6899414,0.0,0.061035156,0.18310547,0.0,0.0,0.0,-161.47156,42.841187,-169.12354
1766902661917,-0.6855469,-0.2319336,-0.6899414,0.0,0.061035156,0.18310547,0.0,0.0,0.0,-161.48254,42.84668,-169.151
1766902662006,-0.6855469,-0.2319336,-0.6953125,-0.061035156,-0.12207031,0.0,0.0,0.0,0.0,-161.48254,42.84668,-169.151
1766902662017,-0.6855469,-0.2319336,-0.6953125,-0.061035156,-0.12207031,0.0,0.0,0.0,0.0,-161.47705,42.86316,-169.14001
1766902662105,-0.6855469,-0.22949219,-0.69384766,-0.18310547,0.18310547,0.12207031,0.0,0.0,0.0,-161.47705,42.86316,-169.14001
1766902662117,-0.6855469,-0.22949219,-0.69384766,-0.18310547,0.18310547,0.12207031,0.0,0.0,0.0,-161.47705,42.852173,-169.151
1766902662205,-0.68603516,-0.23291016,-0.69628906,-0.12207031,0.0,0.061035156,0.0,0.0,0.0,-161.47705,42.852173,-169.151
1766902662217,-0.68603516,-0.23291016,-0.69628906,-0.12207031,0.0,0.061035156,0.0,0.0,0.0,-161.48804,42.857666,-169.16199
1766902662305,-0.6850586,-0.23095703,-0.69384766,0.48828125,0.0,0.0,0.0,0.0,0.0,-161.48804,42.857666,-169.16199
1766902662316,-0.6850586,-0.23095703,-0.69384766,0.48828125,0.0,0.0,0.0,0.0,0.0,-161.45508,42.841187,-169.18945
1766902662405,-0.68310547,-0.23486328,-0.69677734,-0.7324219,-0.30517578,0.0,0.0,0.0,0.0,-161.45508,42.841187,-169.18945
1766902662416,-0.68310547,-0.23486328,-0.69677734,-0.7324219,-0.30517578,0.0,0.0,0.0,0.0,-161.44958,42.819214,-169.20044
1766902662504,-0.68310547,-0.2319336,-0.69384766,-0.30517578,0.36621094,0.0,0.0,0.0,0.0,-161.44958,42.819214,-169.20044
1766902662516,-0.68310547,-0.2319336,-0.69384766,-0.30517578,0.36621094,0.0,0.0,0.0,0.0,-161.47705,42.835693,-169.2334
1766902662604,-0.6879883,-0.22802734,-0.69140625,-0.5493164,0.36621094,0.12207031,0.0,0.0,0.0,-161.47705,42.835693,-169.2334
1766902662616,-0.6879883,-0.22802734,-0.69140625,-0.5493164,0.36621094,0.12207031,0.0,0.0,0.0,-161.48804,42.841187,-169.28833
1766902662704,-0.6845703,-0.23388672,-0.6953125,-0.12207031,0.0,0.0,0.0,0.0,0.0,-161.48804,42.841187,-169.28833
1766902662715,-0.6845703,-0.23388672,-0.6953125,-0.12207031,0.0,0.0,0.0,0.0,0.0,-161.49902,42.852173,-169.3103
1766902662803,-0.68408203,-0.23095703,-0.6958008,-0.30517578,0.18310547,0.12207031,0.0,0.0,0.0,-161.49902,42.852173,-169.3103
1766902662815,-0.68408203,-0.23095703,-0.6958008,-0.30517578,0.18310547,0.12207031,0.0,0.0,0.0,-161.48254,42.84668,-169.32678
1766902662903,-0.6850586,-0.2319336,-0.6953125,-0.24414062,0.0,0.061035156,0.0,0.0,0.0,-161.48254,42.84668,-169.32678
1766902662915,-0.6850586,-0.2319336,-0.6953125,-0.24414062,0.0,0.061035156,0.0,0.0,0.0,-161.49353,42.84668,-169.35425
1766902663003,-0.6855469,-0.23144531,-0.6923828,0.12207031,0.24414062,0.0,0.0,0.0,0.0,-161.49353,42.84668,-169.35425
1766902663014,-0.6855469,-0.23144531,-0.6923828,0.12207031,0.24414062,0.0,0.0,0.0,0.0,-161.47156,42.84668,-169.37073
1766902663102,-0.68310547,-0.22949219,-0.6855469,-0.30517578,1.2817383,0.0,0.0,0.0,0.0,-161.47156,42.84668,-169.37073
1766902663114,-0.68310547,-0.22949219,-0.6855469,-0.30517578,1.2817383,0.0,0.0,0.0,0.0,-161.4386,42.819214,-169.36523
1766902663202,-0.68408203,-0.23242188,-0.69189453,-0.5493164,0.12207031,0.0,0.0,0.0,0.0,-161.4386,42.819214,-169.36523
1766902663213,-0.68408203,-0.23242188,-0.69189453,-0.5493164,0.12207031,0.0,0.0,0.0,0.0,-161.48254,42.8302,-169.35974
1766902663302,-0.6855469,-0.23144531,-0.6958008,0.061035156,-0.24414062,0.12207031,0.0,0.0,0.0,-161.48254,42.8302,-169.35974
1766902663313,-0.6855469,-0.23144531,-0.6958008,0.061035156,-0.24414062,0.12207031,0.0,0.0,0.0,-161.49353,42.824707,-169.37622
1766902663401,-0.6855469,-0.23144531,-0.69433594,-0.12207031,-0.24414062,0.24414062,0.0,0.0,0.0,-161.49353,42.824707,-169.37622
1766902663413,-0.6855469,-0.23144531,-0.69433594,-0.12207031,-0.24414062,0.24414062,0.0,0.0,0.0,-161.50452,42.835693,-169.41467
1766902663501,-0.68652344,-0.23095703,-0.69433594,0.0,0.30517578,0.061035156,0.0,0.0,0.0,-161.50452,42.835693,-169.41467
1766902663513,-0.68652344,-0.23095703,-0.69433594,0.0,0.30517578,0.061035156,0.0,0.0,0.0,-161.48254,42.841187,-169.40918
1766902663601,-0.6845703,-0.23046875,-0.69384766,-0.24414062,0.0,0.061035156,0.0,0.0,0.0,-161.48254,42.841187,-169.40918
1766902663612,-0.6845703,-0.23046875,-0.69384766,-0.24414062,0.0,0.061035156,0.0,0.0,0.0,-161.49902,42.8302,-169.42566
1766902663701,-0.6845703,-0.23242188,-0.6933594,0.24414062,-0.061035156,0.0,0.0,0.0,0.0,-161.49902,42.8302,-169.42566
1766902663712,-0.6845703,-0.23242188,-0.6933594,0.24414062,-0.061035156,0.0,0.0,0.0,0.0,-161.48804,42.8302,-169.3872
1766902663800,-0.6850586,-0.2265625,-0.6928711,0.12207031,0.48828125,0.0,0.0,0.0,0.0,-161.48804,42.8302,-169.3872
1766902663812,-0.6850586,-0.2265625,-0.6928711,0.12207031,0.48828125,0.0,0.0,0.0,0.0,-161.44409,42.8302,-169.34326
1766902663900,-0.68847656,-0.23046875,-0.6948242,-0.36621094,-0.12207031,0.24414062,0.0,0.0,0.0,-161.44409,42.8302,-169.34326
1766902663911,-0.68847656,-0.23046875,-0.6948242,-0.36621094,-0.12207031,0.24414062,0.0,0.0,0.0,-161.48804,42.824707,-169.34326
1766902664000,-0.68408203,-0.23095703,-0.7001953,-0.30517578,-0.30517578,0.061035156,0.0,0.0,0.0,-161.48804,42.824707,-169.34326
1766902664011,-0.68408203,-0.23095703,-0.7001953,-0.30517578,-0.30517578,0.061035156,0.0,0.0,0.0,-161.51001,42.81372,-169.35974
1766902664099,-0.68408203,-0.23046875,-0.6933594,-0.18310547,-0.30517578,0.24414062,0.0,0.0,0.0,-161.51001,42.81372,-169.35974
1766902664111,-0.68408203,-0.23046875,-0.6933594,-0.18310547,-0.30517578,0.24414062,0.0,0.0,0.0,-161.52649,42.819214,-169.3872
1766902664199,-0.6821289,-0.22998047,-0.6977539,0.0,-0.9765625,0.24414062,0.0,0.0,0.0,-161.52649,42.819214,-169.3872
1766902664211,-0.6821289,-0.22998047,-0.6977539,0.0,-0.9765625,0.24414062,0.0,0.0,0.0,-161.51001,42.86316,-169.3982
1766902664299,-0.69189453,-0.23242188,-0.69433594,-0.6713867,0.5493164,0.18310547,0.0,0.0,0.0,-161.51001,42.86316,-169.3982
1766902664310,-0.69189453,-0.23242188,-0.69433594,-0.6713867,0.5493164,0.18310547,0.0,0.0,0.0,-161.54846,42.868652,-169.45312
1766902664398,-0.6845703,-0.22607422,-0.6923828,-2.319336,-2.5024414,0.6713867,0.0,0.0,0.0,-161.54846,42.868652,-169.45312
1766902664410,-0.6845703,-0.22607422,-0.6923828,-2.319336,-2.5024414,0.6713867,0.0,0.0,0.0,-161.65283,42.994995,-169.40918
1766902664498,-0.6953125,-0.22949219,-0.69384766,-1.5869141,-4.1503906,1.159668,0.0,0.0,0.0,-161.65283,42.994995,-169.40918
1766902664510,-0.6953125,-0.22949219,-0.69384766,-1.5869141,-4.1503906,1.159668,0.0,0.0,0.0,-161.82861,43.308105,-169.45862
1766902664598,-0.6933594,-0.22558594,-0.6875,-2.6855469,-4.4555664,1.0375977,0.0,0.0,0.0,-161.82861,43.308105,-169.45862
1766902664610,-0.6933594,-0.22558594,-0.6875,-2.6855469,-4.4555664,1.0375977,0.0,0.0,0.0,-162.03735,43.687134,-169.40918
1766902664697,-0.70166016,-0.22265625,-0.68408203,-2.2583008,-2.2583008,0.91552734,0.0,0.0,0.0,-162.03735,43.687134,-169.40918
1766902664709,-0.70166016,-0.22265625,-0.68408203,-2.2583008,-2.2583008,0.91552734,0.0,0.0,0.0,-162.21863,44.066162,-169.26086
1766902664797,-0.7104492,-0.2163086,-0.6826172,-1.4648438,-0.91552734,0.6713867,0.0,0.0,0.0,-162.21863,44.066162,-169.26086
1766902664809,-0.7104492,-0.2163086,-0.6826172,-1.4648438,-0.91552734,0.6713867,0.0,0.0,0.0,-162.4054,44.241943,-169.1565
1766902664897,-0.7026367,-0.21728516,-0.6850586,-0.30517578,-0.61035156,-0.91552734,0.0,0.0,0.0,-162.4054,44.241943,-169.1565
1766902664909,-0.7026367,-0.21728516,-0.6850586,-0.30517578,-0.61035156,-0.91552734,0.0,0.0,0.0,-162.33948,44.32434,-168.79944
1766902664997,-0.703125,-0.20605469,-0.68066406,0.8544922,-0.7324219,-1.6479492,0.0,0.0,0.0,-162.33948,44.32434,-168.79944
1766902665008,-0.703125,-0.20605469,-0.68066406,0.8544922,-0.7324219,-1.6479492,0.0,0.0,0.0,-162.19666,44.362793,-168.42041
1766902665096,-0.70410156,-0.21826172,-0.6791992,0.4272461,-0.8544922,-0.9765625,0.0,0.0,0.0,-162.19666,44.362793,-168.42041
1766902665108,-0.70410156,-0.21826172,-0.6791992,0.4272461,-0.8544922,-0.9765625,0.0,0.0,0.0,-161.98792,44.384766,-168.07434
1766902665196,-0.70410156,-0.22998047,-0.68115234,3.6621094,0.79345703,-1.5869141,0.0,0.0,0.0,-161.98792,44.384766,-168.07434
1766902665207,-0.70410156,-0.22998047,-0.68115234,3.6621094,0.79345703,-1.5869141,0.0,0.0,0.0,-161.69678,44.258423,-167.80518
1766902665296,-0.69921875,-0.22460938,-0.6796875,0.79345703,-0.18310547,-1.4038086,0.0,0.0,0.0,-161.69678,44.258423,-167.80518
1766902665307,-0.69921875,-0.22460938,-0.6796875,0.79345703,-0.18310547,-1.4038086,0.0,0.0,0.0,-161.33423,44.104614,-167.42615
1766902665395,-0.6972656,-0.23388672,-0.6777344,0.30517578,0.48828125,0.48828125,0.0,0.0,0.0,-161.33423,44.104614,-167.42615
1766902665407,-0.6972656,-0.23388672,-0.6777344,0.30517578,0.48828125,0.48828125,0.0,0.0,0.0,-161.26282,44.049683,-167.31079
1766902665495,-0.7036133,-0.2397461,-0.6748047,-0.36621094,0.79345703,0.0,0.0,0.0,0.0,-161.26282,44.049683,-167.31079
1766902665507,-0.7036133,-0.2397461,-0.6748047,-0.36621094,0.79345703,0.0,0.0,0.0,0.0,-161.17493,44.055176,-167.18994
1766902665595,-0.70166016,-0.22607422,-0.6845703,1.3427734,0.8544922,-0.6713867,0.0,0.0,0.0,-161.17493,44.055176,-167.18994
1766902665606,-0.70166016,-0.22607422,-0.6845703,1.3427734,0.8544922,-0.6713867,0.0,0.0,0.0,-161.23535,43.961792,-167.10205
1766902665695,-0.6899414,-0.2241211,-0.68408203,1.6479492,1.7700195,-0.79345703,0.0,0.0,0.0,-161.23535,43.961792,-167.10205
1766902665706,-0.6899414,-0.2241211,-0.68408203,1.6479492,1.7700195,-0.79345703,0.0,0.0,0.0,-160.98267,43.80249,-166.84937
1766902665794,-0.7036133,-0.23242188,-0.68115234,1.3427734,1.8310547,0.6713867,0.0,0.0,0.0,-160.98267,43.80249,-166.84937
1766902665806,-0.7036133,-0.23242188,-0.68115234,1.3427734,1.8310547,0.6713867,0.0,0.0,0.0,-160.9497,43.621216,-166.97571
1766902665894,-0.69384766,-0.25195312,-0.68359375,0.24414062,0.7324219,-1.0986328,0.0,0.0,0.0,-160.9497,43.621216,-166.97571
1766902665906,-0.69384766,-0.25195312,-0.68359375,0.24414062,0.7324219,-1.0986328,0.0,0.0,0.0,-160.77942,43.500366,-166.83838
1766902665994,-0.6982422,-0.24267578,-0.6899414,-7.8125,-1.5869141,0.7324219,0.0,0.0,0.0,-160.77942,43.500366,-166.83838
1766902666006,-0.6982422,-0.24267578,-0.6899414,-7.8125,-1.5869141,0.7324219,0.0,0.0,0.0,-161.17493,43.483887,-166.68457
1766902666093,-0.71728516,-0.2446289,-0.69873047,-6.713867,0.4272461,-3.6010742,0.0,0.0,0.0,-161.17493,43.483887,-166.68457
1766902666105,-0.71728516,-0.2446289,-0.69873047,-6.713867,0.4272461,-3.6010742,0.0,0.0,0.0,-161.64185,43.61023,-166.22864
1766902666193,-0.6855469,-0.23583984,-0.6870117,-12.390137,-1.7700195,-10.009766,0.0,0.0,0.0,-161.64185,43.61023,-166.22864
1766902666205,-0.6855469,-0.23583984,-0.6870117,-12.390137,-1.7700195,-10.009766,0.0,0.0,0.0,-161.72974,43.38501,-164.80042
1766902666293,-0.69677734,-0.21777344,-0.70654297,-7.751465,-0.061035156,-4.8217773,0.0,0.0,0.0,-161.72974,43.38501,-164.80042
1766902666304,-0.69677734,-0.21777344,-0.70654297,-7.751465,-0.061035156,-4.8217773,0.0,0.0,0.0,-161.90552,43.36853,-163.63037
1766902666392,-0.6772461,-0.22314453,-0.69628906,-11.230469,2.5024414,-4.333496,0.0,0.0,0.0,-161.90552,43.36853,-163.63037
1766902666404,-0.6772461,-0.22314453,-0.69628906,-11.230469,2.5024414,-4.333496,0.0,0.0,0.0,-162.46582,43.044434,-163.15796
1766902666492,-0.6845703,-0.1850586,-0.6972656,-7.9956055,0.30517578,-6.225586,0.0,0.0,0.0,-162.46582,43.044434,-163.15796
1766902666504,-0.6845703,-0.1850586,-0.6972656,-7.9956055,0.30517578,-6.225586,0.0,0.0,0.0,-163.10852,42.75879,-162.74048
1766902666592,-0.66308594,-0.1850586,-0.6928711,-4.272461,2.5024414,-9.338379,0.0,0.0,0.0,-163.10852,42.75879,-162.74048
1766902666603,-0.66308594,-0.1850586,-0.6928711,-4.272461,2.5024414,-9.338379,0.0,0.0,0.0,-162.8064,42.51709,-162.03186
1766902666692,-0.65966797,-0.20361328,-0.70947266,0.5493164,-0.6713867,0.79345703,0.0,0.0,0.0,-162.8064,42.51709,-162.03186
1766902666703,-0.65966797,-0.20361328,-0.70947266,0.5493164,-0.6713867,0.79345703,0.0,0.0,0.0,-162.72949,42.34131,-161.93298
1766902666791,-0.66748047,-0.21923828,-0.70703125,2.319336,-3.479004,2.1362305,0.0,0.0,0.0,-162.72949,42.34131,-161.93298
1766902666803,-0.66748047,-0.21923828,-0.70703125,2.319336,-3.479004,2.1362305,0.0,0.0,0.0,-162.69104,42.62146,-162.4768
1766902666891,-0.6870117,-0.22265625,-0.69677734,2.8076172,-4.1503906,2.8686523,0.0,0.0,0.0,-162.69104,42.62146,-162.4768
1766902666902,-0.6870117,-0.22265625,-0.69677734,2.8076172,-4.1503906,2.8686523,0.0,0.0,0.0,-162.724,42.929077,-163.24585
1766902666991,-0.6982422,-0.22070312,-0.6899414,0.91552734,-0.79345703,-0.36621094,0.0,0.0,0.0,-162.724,42.929077,-163.24585
1766902667002,-0.6982422,-0.22070312,-0.6899414,0.91552734,-0.79345703,-0.36621094,0.0,0.0,0.0,-162.58118,43.165283,-163.57544
1766902667090,-0.68652344,-0.20751953,-0.7001953,0.91552734,-1.8310547,0.9765625,0.0,0.0,0.0,-162.58118,43.165283,-163.57544
1766902667102,-0.68652344,-0.20751953,-0.7001953,0.91552734,-1.8310547,0.9765625,0.0,0.0,0.0,-162.50427,43.3136,-163.72375
1766902667190,-0.6982422,-0.2163086,-0.69140625,2.1972656,-0.4272461,-2.2583008,0.0,0.0,0.0,-162.50427,43.3136,-163.72375
1766902667202,-0.6982422,-0.2163086,-0.69140625,2.1972656,-0.4272461,-2.2583008,0.0,0.0,0.0,-162.34497,43.357544,-163.85559
1766902667290,-0.69140625,-0.21484375,-0.69384766,0.9765625,-1.5869141,-1.7700195,0.0,0.0,0.0,-162.34497,43.357544,-163.85559
1766902667301,-0.69140625,-0.21484375,-0.69384766,0.9765625,-1.5869141,-1.7700195,0.0,0.0,0.0,-161.93848,43.374023,-163.56445
1766902667389,-0.69140625,-0.24023438,-0.6879883,-0.8544922,-0.12207031,1.4648438,0.0,0.0,0.0,-161.93848,43.374023,-163.56445
1766902667401,-0.69140625,-0.24023438,-0.6879883,-0.8544922,-0.12207031,1.4648438,0.0,0.0,0.0,-161.7572,43.374023,-163.6084
1766902667489,-0.6933594,-0.234375,-0.6879883,-0.8544922,-1.0986328,0.061035156,0.0,0.0,0.0,-161.7572,43.374023,-163.6084
1766902667501,-0.6933594,-0.234375,-0.6879883,-0.8544922,-1.0986328,0.061035156,0.0,0.0,0.0,-161.88904,43.412476,-163.7732
1766902667589,-0.68896484,-0.20605469,-0.68652344,-3.7231445,1.6479492,0.4272461,0.0,0.0,0.0,-161.88904,43.412476,-163.7732
1766902667601,-0.68896484,-0.20605469,-0.68652344,-3.7231445,1.6479492,0.4272461,0.0,0.0,0.0,-162.36694,43.461914,-163.97095
1766902667689,-0.68408203,-0.17919922,-0.6923828,5.004883,0.7324219,-2.5634766,0.0,0.0,0.0,-162.36694,43.461914,-163.97095
1766902667700,-0.68408203,-0.17919922,-0.6923828,5.004883,0.7324219,-2.5634766,0.0,0.0,0.0,-162.20215,43.36853,-163.90503
1766902667788,-0.66064453,-0.19140625,-0.70458984,17.150879,-3.0517578,3.479004,0.0,0.0,0.0,-162.20215,43.36853,-163.90503
1766902667800,-0.66064453,-0.19140625,-0.70458984,17.150879,-3.0517578,3.479004,0.0,0.0,0.0,-161.24084,43.390503,-163.97644
1766902667888,-0.7207031,-0.25927734,-0.6689453,16.296387,-3.6621094,12.268066,0.0,0.0,0.0,-161.24084,43.390503,-163.97644
1766902667899,-0.7207031,-0.25927734,-0.6689453,16.296387,-3.6621094,12.268066,0.0,0.0,0.0,-160.19165,43.950806,-165.3717
1766902667988,-0.68896484,-0.2890625,-0.65966797,9.094238,-2.319336,13.244629,0.0,0.0,0.0,-160.19165,43.950806,-165.3717
1766902667999,-0.68896484,-0.2890625,-0.65966797,9.094238,-2.319336,13.244629,0.0,0.0,0.0,-160.10925,44.72534,-166.69006
1766902668087,-0.72216797,-0.2133789,-0.66748047,7.873535,-1.0375977,11.474609,0.0,0.0,0.0,-160.10925,44.72534,-166.69006
1766902668099,-0.72216797,-0.2133789,-0.66748047,7.873535,-1.0375977,11.474609,0.0,0.0,0.0,-160.46082,45.247192,-167.85461
1766902668187,-0.7763672,-0.24316406,-0.671875,7.6904297,-0.061035156,6.652832,0.0,0.0,0.0,-160.46082,45.247192,-167.85461
1766902668199,-0.7763672,-0.24316406,-0.671875,7.6904297,-0.061035156,6.652832,0.0,0.0,0.0,-160.59265,45.681152,-168.69507
1766902668287,-0.7792969,-0.2758789,-0.57910156,-16.845703,15.74707,-2.0141602,0.0,0.0,0.0,-160.59265,45.681152,-168.69507
1766902668298,-0.7792969,-0.2758789,-0.57910156,-16.845703,15.74707,-2.0141602,0.0,0.0,0.0,-161.05408,45.25818,-168.22266
1766902668387,-0.6640625,-0.2553711,-0.7783203,12.023926,-1.8920898,-12.817383,0.0,0.0,0.0,-161.05408,45.25818,-168.22266
1766902668398,-0.6640625,-0.2553711,-0.7783203,12.023926,-1.8920898,-12.817383,0.0,0.0,0.0,-160.10925,44.483643,-166.08032
1766902668486,-0.63134766,-0.15039062,-0.6635742,-11.962891,1.4038086,2.746582,0.0,0.0,0.0,-160.10925,44.483643,-166.08032
1766902668498,-0.63134766,-0.15039062,-0.6635742,-11.962891,1.4038086,2.746582,0.0,0.0,0.0,-159.47754,43.75305,-164.87732
1766902668586,-0.73535156,-0.2446289,-0.7089844,-2.6245117,2.9296875,6.225586,0.0,0.0,0.0,-159.47754,43.75305,-164.87732
1766902668597,-0.73535156,-0.2446289,-0.7089844,-2.6245117,2.9296875,6.225586,0.0,0.0,0.0,-161.64185,43.69812,-166.56921
1766902668686,-0.6743164,-0.2421875,-0.6274414,1.2207031,-5.7373047,-3.2958984,0.0,0.0,0.0,-161.64185,43.69812,-166.56921
1766902668697,-0.6743164,-0.2421875,-0.6274414,1.2207031,-5.7373047,-3.2958984,0.0,0.0,0.0,-161.25183,43.76953,-165.99243
1766902668785,-0.68847656,-0.23388672,-0.69628906,2.6245117,0.061035156,-1.8310547,0.0,0.0,0.0,-161.25183,43.76953,-165.99243
1766902668797,-0.68847656,-0.23388672,-0.69628906,2.6245117,0.061035156,-1.8310547,0.0,0.0,0.0,-160.53772,44.296875,-165.01465
1766902668885,-0.70654297,-0.24267578,-0.65771484,1.5258789,1.0375977,0.48828125,0.0,0.0,0.0,-160.53772,44.296875,-165.01465
1766902668897,-0.70654297,-0.24267578,-0.65771484,1.5258789,1.0375977,0.48828125,0.0,0.0,0.0,-160.36743,44.154053,-165.03662
1766902668985,-0.6738281,-0.24609375,-0.6582031,-0.24414062,-2.9907227,-0.5493164,0.0,0.0,0.0,-160.36743,44.154053,-165.03662
1766902668996,-0.6738281,-0.24609375,-0.6582031,-0.24414062,-2.9907227,-0.5493164,0.0,0.0,0.0,-160.20264,44.30786,-164.55322
1766902669084,-0.7553711,-0.24169922,-0.6953125,1.0986328,-0.91552734,0.0,0.0,0.0,0.0,-160.20264,44.30786,-164.55322
1766902669096,-0.7553711,-0.24169922,-0.6953125,1.0986328,-0.91552734,0.0,0.0,0.0,0.0,-160.03235,44.500122,-164.23462
1766902669184,-0.7006836,-0.2421875,-0.6743164,2.6855469,-0.061035156,2.4414062,0.0,0.0,0.0,-160.03235,44.500122,-164.23462
1766902669196,-0.7006836,-0.2421875,-0.6743164,2.6855469,-0.061035156,2.4414062,0.0,0.0,0.0,-159.80164,44.379272,-163.96545
1766902669284,-0.7114258,-0.25878906,-0.6635742,1.0375977,1.7089844,1.0375977,0.0,0.0,0.0,-159.80164,44.379272,-163.96545
1766902669295,-0.7114258,-0.25878906,-0.6635742,1.0375977,1.7089844,1.0375977,0.0,0.0,0.0,-159.97192,44.46167,-163.95996
1766902669384,-0.7011719,-0.24707031,-0.6713867,-0.12207031,2.5024414,-0.6713867,0.0,0.0,0.0,-159.97192,44.46167,-163.95996
1766902669395,-0.7011719,-0.24707031,-0.6713867,-0.12207031,2.5024414,-0.6713867,0.0,0.0,0.0,-159.95544,44.30786,-163.65234
1766902669483,-0.6772461,-0.24511719,-0.6791992,0.48828125,2.6855469,-0.18310547,0.0,0.0,0.0,-159.95544,44.30786,-163.65234
1766902669495,-0.6772461,-0.24511719,-0.6791992,0.48828125,2.6855469,-0.18310547,0.0,0.0,0.0,-159.99939,44.02771,-163.45459
1766902669583,-0.7260742,-0.20751953,-0.7236328,-3.2958984,-3.112793,3.7231445,0.0,0.0,0.0,-159.99939,44.02771,-163.45459
1766902669595,-0.7260742,-0.20751953,-0.7236328,-3.2958984,-3.112793,3.7231445,0.0,0.0,0.0,-160.1532,43.81897,-163.5315
1766902669683,-0.73535156,-0.22998047,-0.640625,0.4272461,4.333496,-0.5493164,0.0,0.0,0.0,-160.1532,43.81897,-163.5315
1766902669695,-0.73535156,-0.22998047,-0.640625,0.4272461,4.333496,-0.5493164,0.0,0.0,0.0,-160.3949,43.81897,-163.58643
1766902669782,-0.64941406,-0.23730469,-0.6777344,0.8544922,2.380371,-1.953125,0.0,0.0,0.0,-160.3949,43.81897,-163.58643
1766902669794,-0.64941406,-0.23730469,-0.6777344,0.8544922,2.380371,-1.953125,0.0,0.0,0.0,-159.84558,43.654175,-162.93274
1766902669882,-0.70458984,-0.25390625,-0.6845703,0.6713867,0.7324219,0.6713867,0.0,0.0,0.0,-159.84558,43.654175,-162.93274
1766902669894,-0.70458984,-0.25390625,-0.6845703,0.6713867,0.7324219,0.6713867,0.0,0.0,0.0,-160.04883,43.632202,-163.10303
1766902669982,-0.70458984,-0.26220703,-0.6772461,0.7324219,-0.9765625,-1.0986328,0.0,0.0,0.0,-160.04883,43.632202,-163.10303
1766902669993,-0.70458984,-0.26220703,-0.6772461,0.7324219,-0.9765625,-1.0986328,0.0,0.0,0.0,-159.85107,43.566284,-162.90527
1766902670081,-0.70947266,-0.23876953,-0.6855469,5.859375,2.6855469,-1.4648438,0.0,0.0,0.0,-159.85107,43.566284,-162.90527
1766902670093,-0.70947266,-0.23876953,-0.6855469,5.859375,2.6855469,-1.4648438,0.0,0.0,0.0,-159.27429,43.374023,-162.50427
1766902670181,-0.6928711,-0.2578125,-0.6977539,2.4414062,-4.699707,1.0986328,0.0,0.0,0.0,-159.27429,43.374023,-162.50427
1766902670193,-0.6928711,-0.2578125,-0.6977539,2.4414062,-4.699707,1.0986328,0.0,0.0,0.0,-158.75793,43.40149,-162.4768
1766902670281,-0.73779297,-0.27148438,-0.6826172,-3.8452148,-21.484375,2.4414062,0.0,0.0,0.0,-158.75793,43.40149,-162.4768
1766902670292,-0.73779297,-0.27148438,-0.6826172,-3.8452148,-21.484375,2.4414062,0.0,0.0,0.0,-158.66455,44.752808,-162.08679
1766902670380,-0.7338867,-0.2680664,-0.60498047,-4.8217773,-0.061035156,4.211426,0.0,0.0,0.0,-158.66455,44.752808,-162.08679
1766902670392,-0.7338867,-0.2680664,-0.60498047,-4.8217773,-0.061035156,4.211426,0.0,0.0,0.0,-159.13696,45.840454,-161.6748
1766902670480,-0.64941406,-0.24902344,-0.61328125,-6.652832,-2.8076172,-1.0375977,0.0,0.0,0.0,-159.13696,45.840454,-161.6748
1766902670492,-0.64941406,-0.24902344,-0.61328125,-6.652832,-2.8076172,-1.0375977,0.0,0.0,0.0,-159.96643,45.97229,-161.10352
1766902670580,-0.7373047,-0.18115234,-0.7104492,-0.91552734,0.12207031,2.0751953,0.0,0.0,0.0,-159.96643,45.97229,-161.10352
1766902670591,-0.7373047,-0.18115234,-0.7104492,-0.91552734,0.12207031,2.0751953,0.0,0.0,0.0,-160.00488,46.087646,-160.66956
1766902670680,-0.6772461,-0.2421875,-0.60546875,5.9814453,15.441895,1.4648438,0.0,0.0,0.0,-160.00488,46.087646,-160.66956
1766902670691,-0.6772461,-0.2421875,-0.60546875,5.9814453,15.441895,1.4648438,0.0,0.0,0.0,-160.49927,45.802002,-161.66382
1766902670779,-0.74902344,-0.22167969,-0.6875,-0.4272461,8.361816,-1.7700195,0.0,0.0,0.0,-160.49927,45.802002,-161.66382
1766902670791,-0.74902344,-0.22167969,-0.6875,-0.4272461,8.361816,-1.7700195,0.0,0.0,0.0,-160.36743,44.631958,-161.70227
1766902670879,-0.7236328,-0.27441406,-0.69677734,-5.065918,-6.225586,-1.5869141,0.0,0.0,0.0,-160.36743,44.631958,-161.70227
1766902670891,-0.7236328,-0.27441406,-0.69677734,-5.065918,-6.225586,-1.5869141,0.0,0.0,0.0,-160.56519,44.58252,-161.16943
1766902670979,-0.7216797,-0.23291016,-0.65966797,-1.2817383,2.319336,-1.7089844,0.0,0.0,0.0,-160.56519,44.58252,-161.16943
1766902670990,-0.7216797,-0.23291016,-0.65966797,-1.2817383,2.319336,-1.7089844,0.0,0.0,0.0,-160.5487,44.626465,-160.76843
1766902671078,-0.6777344,-0.20703125,-0.65185547,0.5493164,5.859375,0.0,0.0,0.0,0.0,-160.5487,44.626465,-160.76843
1766902671090,-0.6777344,-0.20703125,-0.65185547,0.5493164,5.859375,0.0,0.0,0.0,0.0,-160.44434,44.038696,-160.66956
1766902671178,-0.71875,-0.2397461,-0.6972656,-2.1362305,0.12207031,3.9672852,0.0,0.0,0.0,-160.44434,44.038696,-160.66956
1766902671190,-0.71875,-0.2397461,-0.6972656,-2.1362305,0.12207031,3.9672852,0.0,0.0,0.0,-160.84534,44.263916,-161.02661
1766902671278,-0.69140625,-0.24658203,-0.66845703,-0.061035156,2.0141602,-0.61035156,0.0,0.0,0.0,-160.84534,44.263916,-161.02661
1766902671289,-0.69140625,-0.24658203,-0.66845703,-0.061035156,2.0141602,-0.61035156,0.0,0.0,0.0,-161.12,44.038696,-161.42212
1766902671378,-0.70751953,-0.2241211,-0.6875,-1.5869141,-0.4272461,-0.061035156,0.0,0.0,0.0,-161.12,44.038696,-161.42212
1766902671389,-0.70751953,-0.2241211,-0.6875,-1.5869141,-0.4272461,-0.061035156,0.0,0.0,0.0,-161.13647,43.97278,-161.3562
1766902671477,-0.6953125,-0.21777344,-0.6777344,-0.4272461,1.0986328,0.24414062,0.0,0.0,0.0,-161.13647,43.97278,-161.3562
1766902671489,-0.6953125,-0.21777344,-0.6777344,-0.4272461,1.0986328,0.24414062,0.0,0.0,0.0,-161.21338,43.928833,-161.51001
1766902671577,-0.69921875,-0.23730469,-0.68603516,0.12207031,0.061035156,0.8544922,0.0,0.0,0.0,-161.21338,43.928833,-161.51001
1766902671589,-0.69921875,-0.23730469,-0.68603516,0.12207031,0.061035156,0.8544922,0.0,0.0,0.0,-161.30676,43.85193,-161.77917
1766902671677,-0.6972656,-0.2290039,-0.6850586,0.30517578,0.48828125,-0.30517578,0.0,0.0,0.0,-161.30676,43.85193,-161.77917
1766902671688,-0.6972656,-0.2290039,-0.6850586,0.30517578,0.48828125,-0.30517578,0.0,0.0,0.0,-161.29028,43.824463,-161.94397
1766902671776,-0.7036133,-0.2241211,-0.6904297,-1.0375977,-0.7324219,0.48828125,0.0,0.0,0.0,-161.29028,43.824463,-161.94397
1766902671788,-0.7036133,-0.2241211,-0.6904297,-1.0375977,-0.7324219,0.48828125,0.0,0.0,0.0,-161.25732,43.775024,-162.02637
1766902671876,-0.69677734,-0.23046875,-0.6870117,0.12207031,0.18310547,0.30517578,0.0,0.0,0.0,-161.25732,43.775024,-162.02637
1766902671887,-0.69677734,-0.23046875,-0.6870117,0.12207031,0.18310547,0.30517578,0.0,0.0,0.0,-161.3562,43.78601,-162.25708
1766902671976,-0.7011719,-0.23046875,-0.68603516,-0.79345703,-2.1362305,0.48828125,0.0,0.0,0.0,-161.3562,43.78601,-162.25708
1766902671987,-0.7011719,-0.23046875,-0.68603516,-0.79345703,-2.1362305,0.48828125,0.0,0.0,0.0,-161.35071,43.862915,-162.39441
1766902672075,-0.69189453,-0.22998047,-0.68310547,2.1972656,2.0141602,-1.6479492,0.0,0.0,0.0,-161.35071,43.862915,-162.39441
1766902672087,-0.69189453,-0.22998047,-0.68310547,2.1972656,2.0141602,-1.6479492,0.0,0.0,0.0,-161.25183,43.846436,-162.44934
1766902672175,-0.6948242,-0.23144531,-0.6894531,1.8310547,2.380371,-0.48828125,0.0,0.0,0.0,-161.25183,43.846436,-162.44934
1766902672187,-0.6948242,-0.23144531,-0.6894531,1.8310547,2.380371,-0.48828125,0.0,0.0,0.0,-161.01013,43.61023,-162.4768
1766902672275,-0.6948242,-0.23486328,-0.6821289,0.6713867,1.3427734,-0.12207031,0.0,0.0,0.0,-161.01013,43.61023,-162.4768
1766902672286,-0.6948242,-0.23486328,-0.6821289,0.6713867,1.3427734,-0.12207031,0.0,0.0,0.0,-160.90576,43.445435,-162.6416
1766902672374,-0.6855469,-0.23828125,-0.6772461,-1.7089844,0.18310547,0.36621094,0.0,0.0,0.0,-160.90576,43.445435,-162.6416
1766902672386,-0.6855469,-0.23828125,-0.6772461,-1.7089844,0.18310547,0.36621094,0.0,0.0,0.0,-160.83435,43.357544,-162.77344
1766902672474,-0.68847656,-0.23046875,-0.67626953,-2.380371,-3.1738281,0.48828125,0.0,0.0,0.0,-160.83435,43.357544,-162.77344
1766902672486,-0.68847656,-0.23046875,-0.67626953,-2.380371,-3.1738281,0.48828125,0.0,0.0,0.0,-161.02112,43.566284,-162.8778
1766902672574,-0.7001953,-0.23486328,-0.68359375,-1.2817383,-4.0283203,1.0986328,0.0,0.0,0.0,-161.02112,43.566284,-162.8778
1766902672585,-0.7001953,-0.23486328,-0.68359375,-1.2817383,-4.0283203,1.0986328,0.0,0.0,0.0,-161.14746,43.967285,-162.93823
1766902672674,-0.70166016,-0.2319336,-0.6748047,0.79345703,0.0,-0.5493164,0.0,0.0,0.0,-161.14746,43.967285,-162.93823
1766902672686,-0.70166016,-0.2319336,-0.6748047,0.79345703,0.0,-0.5493164,0.0,0.0,0.0,-161.07605,44.016724,-162.93274
1766902672773,-0.7001953,-0.23144531,-0.68066406,-0.24414062,-0.61035156,0.12207031,0.0,0.0,0.0,-161.07605,44.016724,-162.93274
1766902672785,-0.7001953,-0.23144531,-0.68066406,-0.24414062,-0.61035156,0.12207031,0.0,0.0,0.0,-160.91675,44.07715,-162.84485
1766902672873,-0.6972656,-0.2319336,-0.67871094,0.4272461,-0.48828125,0.061035156,0.0,0.0,0.0,-160.91675,44.07715,-162.84485
1766902672884,-0.6972656,-0.2319336,-0.67871094,0.4272461,-0.48828125,0.061035156,0.0,0.0,0.0,-160.9552,44.055176,-162.94922
1766902672973,-0.70166016,-0.23095703,-0.6723633,0.7324219,1.6479492,-0.30517578,0.0,0.0,0.0,-160.9552,44.055176,-162.94922
1766902672984,-0.70166016,-0.23095703,-0.6723633,0.7324219,1.6479492,-0.30517578,0.0,0.0,0.0,-160.88928,44.055176,-162.94373
1766902673073,-0.7001953,-0.23730469,-0.6748047,0.4272461,-0.18310547,-0.48828125,0.0,0.0,0.0,-160.88928,44.055176,-162.94373
1766902673084,-0.7001953,-0.23730469,-0.6748047,0.4272461,-0.18310547,-0.48828125,0.0,0.0,0.0,-160.76294,44.005737,-162.91626
1766902673172,-0.7011719,-0.2265625,-0.6879883,-1.7700195,-1.7700195,-0.9765625,0.0,0.0,0.0,-160.76294,44.005737,-162.91626
1766902673184,-0.7011719,-0.2265625,-0.6879883,-1.7700195,-1.7700195,-0.9765625,0.0,0.0,0.0,-160.719,44.197998,-162.74048
1766902673272,-0.703125,-0.23339844,-0.6777344,1.4648438,3.9672852,-0.9765625,0.0,0.0,0.0,-160.719,44.197998,-162.74048
1766902673284,-0.703125,-0.23339844,-0.6777344,1.4648438,3.9672852,-0.9765625,0.0,0.0,0.0,-160.74097,44.049683,-162.70752
1766902673371,-0.7006836,-0.23828125,-0.67578125,0.91552734,-1.0986328,-1.2207031,0.0,0.0,0.0,-160.74097,44.049683,-162.70752
1766902673383,-0.7006836,-0.23828125,-0.67578125,0.91552734,-1.0986328,-1.2207031,0.0,0.0,0.0,-160.46082,43.89038,-162.53174
1766902673471,-0.6948242,-0.24072266,-0.6826172,-0.4272461,1.0375977,-0.24414062,0.0,0.0,0.0,-160.46082,43.89038,-162.53174
1766902673483,-0.6948242,-0.24072266,-0.6826172,-0.4272461,1.0375977,-0.24414062,0.0,0.0,0.0,-160.38391,43.879395,-162.42737
1766902673571,-0.6958008,-0.24121094,-0.67871094,-0.30517578,-0.18310547,-0.4272461,0.0,0.0,0.0,-160.38391,43.879395,-162.42737
1766902673582,-0.6958008,-0.24121094,-0.67871094,-0.30517578,-0.18310547,-0.4272461,0.0,0.0,0.0,-160.37292,43.829956,-162.43835
1766902673671,-0.68652344,-0.2421875,-0.6743164,-0.5493164,-1.2817383,0.4272461,0.0,0.0,0.0,-160.37292,43.829956,-162.43835
1766902673682,-0.68652344,-0.2421875,-0.6743164,-0.5493164,-1.2817383,0.4272461,0.0,0.0,0.0,-160.38391,43.85742,-162.41089
1766902673770,-0.7104492,-0.2397461,-0.68408203,-0.7324219,-1.0375977,0.9765625,0.0,0.0,0.0,-160.38391,43.85742,-162.41089
1766902673782,-0.7104492,-0.2397461,-0.68408203,-0.7324219,-1.0375977,0.9765625,0.0,0.0,0.0,-160.49927,44.005737,-162.4878
1766902673870,-0.69433594,-0.23779297,-0.67285156,-0.18310547,0.36621094,0.48828125,0.0,0.0,0.0,-160.49927,44.005737,-162.4878
1766902673882,-0.69433594,-0.23779297,-0.67285156,-0.18310547,0.36621094,0.48828125,0.0,0.0,0.0,-160.57617,43.950806,-162.57019
1766902673970,-0.6977539,-0.23291016,-0.67333984,-0.5493164,-0.18310547,0.0,0.0,0.0,0.0,-160.57617,43.950806,-162.57019
1766902673981,-0.6977539,-0.23291016,-0.67333984,-0.5493164,-0.18310547,0.0,0.0,0.0,0.0,-160.58167,44.005737,-162.61414
1766902674070,-0.69873047,-0.24072266,-0.67822266,0.79345703,-0.79345703,0.30517578,0.0,0.0,0.0,-160.58167,44.005737,-162.61414
1766902674082,-0.69873047,-0.24072266,-0.67822266,0.79345703,-0.79345703,0.30517578,0.0,0.0,0.0,-160.5487,44.08264,-162.63062
1766902674169,-0.7001953,-0.23535156,-0.6767578,0.8544922,0.48828125,-0.91552734,0.0,0.0,0.0,-160.5487,44.08264,-162.63062
1766902674181,-0.7001953,-0.23535156,-0.6767578,0.8544922,0.48828125,-0.91552734,0.0,0.0,0.0,-160.40588,44.055176,-162.60315
1766902674269,-0.7050781,-0.2421875,-0.67333984,-0.4272461,0.061035156,0.5493164,0.0,0.0,0.0,-160.40588,44.055176,-162.60315
1766902674280,-0.7050781,-0.2421875,-0.67333984,-0.4272461,0.061035156,0.5493164,0.0,0.0,0.0,-160.35645,44.126587,-162.50977
1766902674369,-0.6972656,-0.23339844,-0.6635742,-0.61035156,1.159668,0.0,0.0,0.0,0.0,-160.35645,44.126587,-162.50977
1766902674380,-0.6972656,-0.23339844,-0.6635742,-0.61035156,1.159668,0.0,0.0,0.0,0.0,-160.41138,44.066162,-162.50427
1766902674468,-0.70458984,-0.2368164,-0.67626953,-1.159668,0.4272461,0.5493164,0.0,0.0,0.0,-160.41138,44.066162,-162.50427
1766902674480,-0.70458984,-0.2368164,-0.67626953,-1.159668,0.4272461,0.5493164,0.0,0.0,0.0,-160.54321,44.137573,-162.50427
1766902674568,-0.7006836,-0.23632812,-0.67871094,0.48828125,0.061035156,0.061035156,0.0,0.0,0.0,-160.54321,44.137573,-162.50427
1766902674580,-0.7006836,-0.23632812,-0.67871094,0.48828125,0.061035156,0.061035156,0.0,0.0,0.0,-160.58167,44.071655,-162.55371
1766902674668,-0.7036133,-0.234375,-0.67822266,-0.5493164,-0.12207031,0.0,0.0,0.0,0.0,-160.58167,44.071655,-162.55371
1766902674679,-0.7036133,-0.234375,-0.67822266,-0.5493164,-0.12207031,0.0,0.0,0.0,0.0,-160.59814,44.049683,-162.5592
1766902674767,-0.6977539,-0.2368164,-0.67578125,-0.5493164,0.0,0.0,0.0,0.0,0.0,-160.59814,44.049683,-162.5592
1766902674779,-0.6977539,-0.2368164,-0.67578125,-0.5493164,0.0,0.0,0.0,0.0,0.0,-160.6311,44.066162,-162.55371
1766902674867,-0.70410156,-0.23388672,-0.67626953,-0.30517578,-0.061035156,0.0,0.0,0.0,0.0,-160.6311,44.066162,-162.55371
1766902674879,-0.70410156,-0.23388672,-0.67626953,-0.30517578,-0.061035156,0.0,0.0,0.0,0.0,-160.66406,44.06067,-162.54822
1766902674967,-0.69970703,-0.23388672,-0.67041016,-0.24414062,1.0375977,0.0,0.0,0.0,0.0,-160.66406,44.06067,-162.54822
1766902674978,-0.69970703,-0.23388672,-0.67041016,-0.24414062,1.0375977,0.0,0.0,0.0,0.0,-160.64209,44.066162,-162.5592
1766902675067,-0.70166016,-0.23535156,-0.671875,-0.12207031,0.4272461,-0.4272461,0.0,0.0,0.0,-160.64209,44.066162,-162.5592
1766902675078,-0.70166016,-0.23535156,-0.671875,-0.12207031,0.4272461,-0.4272461,0.0,0.0,0.0,-160.58716,44.04419,-162.53723
1766902675166,-0.69970703,-0.234375,-0.67529297,-0.30517578,-0.18310547,0.061035156,0.0,0.0,0.0,-160.58716,44.04419,-162.53723
1766902675178,-0.69970703,-0.234375,-0.67529297,-0.30517578,-0.18310547,0.061035156,0.0,0.0,0.0,-160.6311,44.104614,-162.4823
1766902675266,-0.70654297,-0.23486328,-0.67626953,-0.24414062,-0.12207031,0.061035156,0.0,0.0,0.0,-160.6311,44.104614,-162.4823
1766902675278,-0.70654297,-0.23486328,-0.67626953,-0.24414062,-0.12207031,0.061035156,0.0,0.0,0.0,-160.58716,44.126587,-162.46582
1766902675366,-0.70410156,-0.23632812,-0.67578125,-0.12207031,0.0,0.0,0.0,0.0,0.0,-160.58716,44.126587,-162.46582
1766902675377,-0.70410156,-0.23632812,-0.67578125,-0.12207031,0.0,0.0,0.0,0.0,0.0,-160.60364,44.126587,-162.46033
1766902675465,-0.7011719,-0.23388672,-0.67578125,-0.91552734,-0.4272461,0.0,0.0,0.0,0.0,-160.60364,44.126587,-162.46033
1766902675477,-0.7011719,-0.23388672,-0.67578125,-0.91552734,-0.4272461,0.0,0.0,0.0,0.0,-160.58167,44.159546,-162.36694
1766902675565,-0.70410156,-0.23535156,-0.6748047,-0.12207031,-0.18310547,-0.12207031,0.0,0.0,0.0,-160.58167,44.159546,-162.36694
1766902675577,-0.70410156,-0.23535156,-0.6748047,-0.12207031,-0.18310547,-0.12207031,0.0,0.0,0.0,-160.6311,44.170532,-162.33948
1766902675665,-0.7036133,-0.23535156,-0.66845703,0.18310547,0.9765625,-0.30517578,0.0,0.0,0.0,-160.6311,44.170532,-162.33948
1766902675676,-0.7036133,-0.23535156,-0.66845703,0.18310547,0.9765625,-0.30517578,0.0,0.0,0.0,-160.58716,44.192505,-162.29004
1766902675764,-0.70214844,-0.2368164,-0.67041016,-0.18310547,0.061035156,-0.30517578,0.0,0.0,0.0,-160.58716,44.192505,-162.29004
1766902675776,-0.70214844,-0.2368164,-0.67041016,-0.18310547,0.061035156,-0.30517578,0.0,0.0,0.0,-160.51025,44.159546,-162.21863
1766902675864,-0.7001953,-0.2368164,-0.6743164,-0.48828125,-0.061035156,0.061035156,0.0,0.0,0.0,-160.51025,44.159546,-162.21863
1766902675876,-0.7001953,-0.2368164,-0.6743164,-0.48828125,-0.061035156,0.061035156,0.0,0.0,0.0,-160.53772,44.21997,-162.15271
1766902675964,-0.7084961,-0.234375,-0.6743164,-0.7324219,0.36621094,0.12207031,0.0,0.0,0.0,-160.53772,44.21997,-162.15271
1766902675975,-0.7084961,-0.234375,-0.6743164,-0.7324219,0.36621094,0.12207031,0.0,0.0,0.0,-160.5487,44.225464,-162.14172
1766902676064,-0.7050781,-0.23730469,-0.6748047,-0.24414062,-0.12207031,0.0,0.0,0.0,0.0,-160.5487,44.225464,-162.14172
1766902676075,-0.7050781,-0.23730469,-0.6748047,-0.24414062,-0.12207031,0.0,0.0,0.0,0.0,-160.56519,44.230957,-162.10876
1766902676163,-0.7011719,-0.23632812,-0.6743164,-0.18310547,0.4272461,0.18310547,0.0,0.0,0.0,-160.56519,44.230957,-162.10876
1766902676175,-0.7011719,-0.23632812,-0.6743164,-0.18310547,0.4272461,0.18310547,0.0,0.0,0.0,-160.54321,44.25293,-162.03186
1766902676263,-0.7055664,-0.2368164,-0.67285156,-0.12207031,0.0,0.0,0.0,0.0,0.0,-160.54321,44.25293,-162.03186
1766902676274,-0.7055664,-0.2368164,-0.67285156,-0.12207031,0.0,0.0,0.0,0.0,0.0,-160.56519,44.241943,-162.04834
1766902676363,-0.7036133,-0.234375,-0.66796875,-0.30517578,0.91552734,0.0,0.0,0.0,0.0,-160.56519,44.241943,-162.04834
1766902676374,-0.7036133,-0.234375,-0.66796875,-0.30517578,0.91552734,0.0,0.0,0.0,0.0,-160.54321,44.247437,-162.03735
1766902676462,-0.7026367,-0.23388672,-0.6694336,-0.48828125,0.61035156,-0.36621094,0.0,0.0,0.0,-160.54321,44.247437,-162.03735
1766902676474,-0.7026367,-0.23388672,-0.6694336,-0.48828125,0.61035156,-0.36621094,0.0,0.0,0.0,-160.51025,44.208984,-162.00989
1766902676562,-0.69970703,-0.23583984,-0.67285156,-0.4272461,0.0,0.12207031,0.0,0.0,0.0,-160.51025,44.208984,-162.00989
1766902676573,-0.69970703,-0.23583984,-0.67285156,-0.4272461,0.0,0.12207031,0.0,0.0,0.0,-160.5487,44.25293,-161.97693
1766902676662,-0.7089844,-0.23291016,-0.6772461,-0.4272461,0.061035156,0.18310547,0.0,0.0,0.0,-160.5487,44.25293,-161.97693
1766902676673,-0.7089844,-0.23291016,-0.6772461,-0.4272461,0.061035156,0.18310547,0.0,0.0,0.0,-160.5487,44.263916,-161.95496
1766902676761,-0.7055664,-0.23632812,-0.6738281,-0.061035156,-0.24414062,0.061035156,0.0,0.0,0.0,-160.5487,44.263916,-161.95496
1766902676773,-0.7055664,-0.23632812,-0.6738281,-0.061035156,-0.24414062,0.061035156,0.0,0.0,0.0,-160.5597,44.263916,-161.91101
1766902676861,-0.70458984,-0.234375,-0.67333984,-0.12207031,-0.12207031,0.12207031,0.0,0.0,0.0,-160.5597,44.263916,-161.91101
1766902676873,-0.70458984,-0.234375,-0.67333984,-0.12207031,-0.12207031,0.12207031,0.0,0.0,0.0,-160.5542,44.30786,-161.89453
1766902676961,-0.7055664,-0.23535156,-0.671875,-0.30517578,-0.30517578,0.0,0.0,0.0,0.0,-160.5542,44.30786,-161.89453
1766902676972,-0.7055664,-0.23535156,-0.671875,-0.30517578,-0.30517578,0.0,0.0,0.0,0.0,-160.56519,44.30786,-161.91101
1766902677061,-0.7060547,-0.23388672,-0.6738281,0.061035156,0.061035156,0.0,0.0,0.0,0.0,-160.56519,44.30786,-161.91101
1766902677073,-0.7060547,-0.23388672,-0.6738281,0.061035156,0.061035156,0.0,0.0,0.0,0.0,-160.5597,44.3573,-161.8451
1766902677160,-0.70458984,-0.23730469,-0.67529297,0.7324219,-0.18310547,-0.061035156,0.0,0.0,0.0,-160.5597,44.3573,-161.8451
1766902677172,-0.70458984,-0.23730469,-0.67529297,0.7324219,-0.18310547,-0.061035156,0.0,0.0,0.0,-160.49377,44.34082,-161.7572
1766902677260,-0.70996094,-0.23291016,-0.6801758,-0.5493164,-0.4272461,-0.18310547,0.0,0.0,0.0,-160.49377,44.34082,-161.7572
1766902677271,-0.70996094,-0.23291016,-0.6801758,-0.5493164,-0.4272461,-0.18310547,0.0,0.0,0.0,-160.49377,44.32434,-161.69128
1766902677360,-0.7011719,-0.23388672,-0.68066406,0.24414062,0.18310547,-0.12207031,0.0,0.0,0.0,-160.49377,44.32434,-161.69128
1766902677371,-0.7011719,-0.23388672,-0.68066406,0.24414062,0.18310547,-0.12207031,0.0,0.0,0.0,-160.49927,44.29138,-161.70776
1766902677459,-0.70458984,-0.23535156,-0.6699219,0.5493164,-0.6713867,-0.5493164,0.0,0.0,0.0,-160.49927,44.29138,-161.70776
1766902677471,-0.70458984,-0.23535156,-0.6699219,0.5493164,-0.6713867,-0.5493164,0.0,0.0,0.0,-160.41138,44.318848,-161.68579
1766902677559,-0.70214844,-0.23876953,-0.6713867,-0.4272461,0.0,0.18310547,0.0,0.0,0.0,-160.41138,44.318848,-161.68579
1766902677571,-0.70214844,-0.23876953,-0.6713867,-0.4272461,0.0,0.18310547,0.0,0.0,0.0,-160.37842,44.362793,-161.66931
1766902677659,-0.703125,-0.23535156,-0.67041016,-0.061035156,0.36621094,-0.061035156,0.0,0.0,0.0,-160.37842,44.362793,-161.66931
1766902677670,-0.703125,-0.23535156,-0.67041016,-0.061035156,0.36621094,-0.061035156,0.0,0.0,0.0,-160.3894,44.318848,-161.6803
1766902677758,-0.70410156,-0.2397461,-0.67089844,-0.24414062,-0.5493164,0.0,0.0,0.0,0.0,-160.3894,44.318848,-161.6803
1766902677770,-0.70410156,-0.2397461,-0.67089844,-0.24414062,-0.5493164,0.0,0.0,0.0,0.0,-160.37842,44.351807,-161.62537
1766902677858,-0.70214844,-0.23779297,-0.67529297,0.4272461,-1.159668,0.36621094,0.0,0.0,0.0,-160.37842,44.351807,-161.62537
1766902677871,-0.70214844,-0.23779297,-0.67529297,0.4272461,-1.159668,0.36621094,0.0,0.0,0.0,-160.33447,44.401245,-161.54846
1766902677958,-0.71191406,-0.23730469,-0.67626953,-0.7324219,-1.2207031,0.48828125,0.0,0.0,0.0,-160.33447,44.401245,-161.54846
1766902677969,-0.71191406,-0.23730469,-0.67626953,-0.7324219,-1.2207031,0.48828125,0.0,0.0,0.0,-160.38391,44.467163,-161.54297
1766902678058,-0.7050781,-0.23388672,-0.67578125,-0.5493164,-0.61035156,0.30517578,0.0,0.0,0.0,-160.38391,44.467163,-161.54297
1766902678070,-0.7050781,-0.23388672,-0.67578125,-0.5493164,-0.61035156,0.30517578,0.0,0.0,0.0,-160.42236,44.53308,-161.51001
1766902678157,-0.7080078,-0.23730469,-0.6645508,-0.18310547,0.0,0.18310547,0.0,0.0,0.0,-160.42236,44.53308,-161.51001
1766902678169,-0.7080078,-0.23730469,-0.6645508,-0.18310547,0.0,0.18310547,0.0,0.0,0.0,-160.43335,44.593506,-161.49353
1766902678257,-0.7084961,-0.23828125,-0.6694336,0.12207031,-0.9765625,0.0,0.0,0.0,0.0,-160.43335,44.593506,-161.49353
1766902678269,-0.7084961,-0.23828125,-0.6694336,0.12207031,-0.9765625,0.0,0.0,0.0,0.0,-160.38391,44.692383,-161.3562
1766902678357,-0.7114258,-0.23632812,-0.66845703,-0.4272461,0.61035156,0.36621094,0.0,0.0,0.0,-160.38391,44.692383,-161.3562
1766902678369,-0.7114258,-0.23632812,-0.66845703,-0.4272461,0.61035156,0.36621094,0.0,0.0,0.0,-160.41138,44.708862,-161.29578
1766902678456,-0.7080078,-0.23242188,-0.6699219,0.0,-0.5493164,0.18310547,0.0,0.0,0.0,-160.41138,44.708862,-161.29578
1766902678468,-0.7080078,-0.23242188,-0.6699219,0.0,-0.5493164,0.18310547,0.0,0.0,0.0,-160.44434,44.72534,-161.22437
1766902678556,-0.71191406,-0.23095703,-0.66552734,0.18310547,0.0,-0.18310547,0.0,0.0,0.0,-160.44434,44.72534,-161.22437
1766902678567,-0.71191406,-0.23095703,-0.66552734,0.18310547,0.0,-0.18310547,0.0,0.0,0.0,-160.3949,44.730835,-161.14197
1766902678656,-0.7080078,-0.24365234,-0.6689453,-1.159668,-0.24414062,0.30517578,0.0,0.0,0.0,-160.3949,44.730835,-161.14197
1766902678667,-0.7080078,-0.24365234,-0.6689453,-1.159668,-0.24414062,0.30517578,0.0,0.0,0.0,-160.3894,44.7583,-160.97717
1766902678755,-0.7109375,-0.2290039,-0.67529297,-1.5258789,1.8310547,2.0141602,0.0,0.0,0.0,-160.3894,44.7583,-160.97717
1766902678767,-0.7109375,-0.2290039,-0.67529297,-1.5258789,1.8310547,2.0141602,0.0,0.0,0.0,-160.70801,44.664917,-161.18591
1766902678855,-0.70996094,-0.21679688,-0.67333984,-0.12207031,-0.30517578,-0.061035156,0.0,0.0,0.0,-160.70801,44.664917,-161.18591
1766902678867,-0.70996094,-0.21679688,-0.67333984,-0.12207031,-0.30517578,-0.061035156,0.0,0.0,0.0,-160.9497,44.599,-161.30127
1766902678955,-0.70214844,-0.23876953,-0.67041016,-0.79345703,1.0986328,-0.061035156,0.0,0.0,0.0,-160.9497,44.599,-161.30127
1766902678966,-0.70214844,-0.23876953,-0.67041016,-0.79345703,1.0986328,-0.061035156,0.0,0.0,0.0,-160.93323,44.577026,-161.18042
1766902679055,-0.71728516,-0.21923828,-0.67041016,-0.6713867,0.061035156,0.4272461,0.0,0.0,0.0,-160.93323,44.577026,-161.18042
1766902679066,-0.71728516,-0.21923828,-0.67041016,-0.6713867,0.061035156,0.4272461,0.0,0.0,0.0,-161.08154,44.489136,-161.28479
1766902679154,-0.7055664,-0.22998047,-0.6743164,0.4272461,0.18310547,0.061035156,0.0,0.0,0.0,-161.08154,44.489136,-161.28479
1766902679166,-0.7055664,-0.22998047,-0.6743164,0.4272461,0.18310547,0.061035156,0.0,0.0,0.0,-161.05957,44.49463,-161.1969
1766902679254,-0.7026367,-0.22460938,-0.6689453,-0.48828125,1.0375977,-0.24414062,0.0,0.0,0.0,-161.05957,44.49463,-161.1969
1766902679265,-0.7026367,-0.22460938,-0.6689453,-0.48828125,1.0375977,-0.24414062,0.0,0.0,0.0,-161.04309,44.439697,-161.26282
1766902679354,-0.70703125,-0.22851562,-0.67578125,-0.9765625,-0.061035156,0.12207031,0.0,0.0,0.0,-161.04309,44.439697,-161.26282
1766902679365,-0.70703125,-0.22851562,-0.67578125,-0.9765625,-0.061035156,0.12207031,0.0,0.0,0.0,-161.10352,44.44519,-161.26831
1766902679454,-0.7036133,-0.22851562,-0.6777344,0.18310547,-0.36621094,0.24414062,0.0,0.0,0.0,-161.10352,44.44519,-161.26831
1766902679465,-0.7036133,-0.22851562,-0.6777344,0.18310547,-0.36621094,0.24414062,0.0,0.0,0.0,-161.15845,44.423218,-161.35071
1766902679553,-0.70947266,-0.22802734,-0.6748047,0.0,0.12207031,0.12207031,0.0,0.0,0.0,-161.15845,44.423218,-161.35071
1766902679565,-0.70947266,-0.22802734,-0.6748047,0.0,0.12207031,0.12207031,0.0,0.0,0.0,-161.18591,44.42871,-161.42761
1766902679653,-0.7036133,-0.22460938,-0.67333984,-0.18310547,0.30517578,0.061035156,0.0,0.0,0.0,-161.18591,44.42871,-161.42761
1766902679665,-0.7036133,-0.22460938,-0.67333984,-0.18310547,0.30517578,0.061035156,0.0,0.0,0.0,-161.18591,44.434204,-161.44958
1766902679753,-0.70703125,-0.2265625,-0.6738281,-0.61035156,0.4272461,0.18310547,0.0,0.0,0.0,-161.18591,44.434204,-161.44958
1766902679764,-0.70703125,-0.2265625,-0.6738281,-0.61035156,0.4272461,0.18310547,0.0,0.0,0.0,-161.23535,44.401245,-161.47705
1766902679852,-0.7036133,-0.22802734,-0.6777344,0.4272461,-0.48828125,0.12207031,0.0,0.0,0.0,-161.23535,44.401245,-161.47705
1766902679864,-0.7036133,-0.22802734,-0.6777344,0.4272461,-0.48828125,0.12207031,0.0,0.0,0.0,-161.23535,44.41223,-161.48804
1766902679952,-0.70214844,-0.2241211,-0.67041016,-0.061035156,1.4038086,-0.061035156,0.0,0.0,0.0,-161.23535,44.41223,-161.48804
1766902679964,-0.70214844,-0.2241211,-0.67041016,-0.061035156,1.4038086,-0.061035156,0.0,0.0,0.0,-161.20789,44.39026,-161.54846
1766902680052,-0.7060547,-0.22705078,-0.67626953,-0.48828125,-0.24414062,0.0,0.0,0.0,0.0,-161.20789,44.39026,-161.54846
1766902680063,-0.7060547,-0.22705078,-0.67626953,-0.48828125,-0.24414062,0.0,0.0,0.0,0.0,-161.22437,44.384766,-161.57043
1766902680152,-0.7060547,-0.22753906,-0.67822266,0.0,0.12207031,0.18310547,0.0,0.0,0.0,-161.22437,44.384766,-161.57043
1766902680163,-0.7060547,-0.22753906,-0.67822266,0.0,0.12207031,0.18310547,0.0,0.0,0.0,-161.25183,44.346313,-161.5979
1766902680251,-0.7055664,-0.22949219,-0.67822266,-0.24414062,-0.30517578,0.18310547,0.0,0.0,0.0,-161.25183,44.346313,-161.5979
1766902680263,-0.7055664,-0.22949219,-0.67822266,-0.24414062,-0.30517578,0.18310547,0.0,0.0,0.0,-161.30127,44.313354,-161.64734
1766902680351,-0.703125,-0.22363281,-0.67529297,-0.18310547,0.4272461,0.061035156,0.0,0.0,0.0,-161.30127,44.313354,-161.64734
1766902680362,-0.703125,-0.22363281,-0.67529297,-0.18310547,0.4272461,0.061035156,0.0,0.0,0.0,-161.33972,44.313354,-161.70227
1766902680451,-0.7050781,-0.2241211,-0.6748047,-0.18310547,0.061035156,0.061035156,0.0,0.0,0.0,-161.33972,44.313354,-161.70227
1766902680462,-0.7050781,-0.2241211,-0.6748047,-0.18310547,0.061035156,0.061035156,0.0,0.0,0.0,-161.37268,44.29138,-161.7627
1766902680550,-0.70214844,-0.22753906,-0.6767578,0.61035156,-0.18310547,0.0,0.0,0.0,0.0,-161.37268,44.29138,-161.7627
1766902680562,-0.70214844,-0.22753906,-0.6767578,0.61035156,-0.18310547,0.0,0.0,0.0,0.0,-161.35071,44.30237,-161.7627
1766902680650,-0.7050781,-0.22216797,-0.671875,0.0,0.5493164,0.0,0.0,0.0,0.0,-161.35071,44.30237,-161.7627
1766902680661,-0.7050781,-0.22216797,-0.671875,0.0,0.5493164,0.0,0.0,0.0,0.0,-161.2793,44.30237,-161.79016
1766902680750,-0.7060547,-0.22753906,-0.67822266,-0.061035156,0.0,0.18310547,0.0,0.0,0.0,-161.2793,44.30237,-161.79016
1766902680761,-0.7060547,-0.22753906,-0.67822266,-0.061035156,0.0,0.18310547,0.0,0.0,0.0,-161.30676,44.335327,-161.81213
1766902680849,-0.70410156,-0.2265625,-0.6826172,1.0986328,0.91552734,-0.48828125,0.0,0.0,0.0,-161.30676,44.335327,-161.81213
1766902680861,-0.70410156,-0.2265625,-0.6826172,1.0986328,0.91552734,-0.48828125,0.0,0.0,0.0,-161.26831,44.263916,-161.86157
1766902680949,-0.7036133,-0.22753906,-0.6777344,0.30517578,0.91552734,0.0,0.0,0.0,0.0,-161.26831,44.263916,-161.86157
1766902680960,-0.7036133,-0.22753906,-0.6777344,0.30517578,0.91552734,0.0,0.0,0.0,0.0,-161.22986,44.1156,-161.95496
1766902681049,-0.7011719,-0.22998047,-0.6826172,0.18310547,0.36621094,-0.18310547,0.0,0.0,0.0,-161.22986,44.1156,-161.95496
1766902681060,-0.7011719,-0.22998047,-0.6826172,0.18310547,0.36621094,-0.18310547,0.0,0.0,0.0,-161.20789,44.1156,-161.94946
1766902681148,-0.7011719,-0.23046875,-0.6777344,0.91552734,1.2817383,-0.30517578,0.0,0.0,0.0,-161.20789,44.1156,-161.94946
1766902681160,-0.7011719,-0.23046875,-0.6777344,0.91552734,1.2817383,-0.30517578,0.0,0.0,0.0,-161.13098,44.005737,-161.97693
1766902681248,-0.7001953,-0.23339844,-0.6855469,0.6713867,0.5493164,-0.91552734,0.0,0.0,0.0,-161.13098,44.005737,-161.97693
1766902681259,-0.7001953,-0.23339844,-0.6855469,0.6713867,0.5493164,-0.91552734,0.0,0.0,0.0,-160.9607,43.895874,-161.98242
1766902681348,-0.69140625,-0.23388672,-0.6796875,0.5493164,0.48828125,-0.12207031,0.0,0.0,0.0,-160.9607,43.895874,-161.98242
1766902681360,-0.69140625,-0.23388672,-0.6796875,0.5493164,0.48828125,-0.12207031,0.0,0.0,0.0,-160.86182,43.807983,-162.07031
1766902681448,-0.7011719,-0.2319336,-0.6845703,-1.4648438,-1.4038086,0.61035156,0.0,0.0,0.0,-160.86182,43.807983,-162.07031
1766902681459,-0.7011719,-0.2319336,-0.6845703,-1.4648438,-1.4038086,0.61035156,0.0,0.0,0.0,-160.99915,43.85193,-162.13623
1766902681547,-0.69677734,-0.22998047,-0.68603516,-1.4038086,-2.0141602,0.30517578,0.0,0.0,0.0,-160.99915,43.85193,-162.13623
1766902681559,-0.69677734,-0.22998047,-0.68603516,-1.4038086,-2.0141602,0.30517578,0.0,0.0,0.0,-161.08154,43.928833,-162.20215
1766902681647,-0.7011719,-0.2290039,-0.6743164,-0.7324219,-0.5493164,0.4272461,0.0,0.0,0.0,-161.08154,43.928833,-162.20215
1766902681658,-0.7011719,-0.2290039,-0.6743164,-0.7324219,-0.5493164,0.4272461,0.0,0.0,0.0,-161.16394,44.06067,-162.30652
1766902681747,-0.69873047,-0.23046875,-0.67626953,-0.79345703,-1.7700195,0.24414062,0.0,0.0,0.0,-161.16394,44.06067,-162.30652
1766902681758,-0.69873047,-0.23046875,-0.67626953,-0.79345703,-1.7700195,0.24414062,0.0,0.0,0.0,-161.18591,44.18701,-162.31201
1766902681846,-0.7055664,-0.22851562,-0.67626953,-0.8544922,-0.7324219,0.4272461,0.0,0.0,0.0,-161.18591,44.18701,-162.31201
1766902681858,-0.7055664,-0.22851562,-0.67626953,-0.8544922,-0.7324219,0.4272461,0.0,0.0,0.0,-161.25732,44.29138,-162.37244
1766902681946,-0.7050781,-0.22705078,-0.67578125,0.30517578,-0.5493164,0.36621094,0.0,0.0,0.0,-161.25732,44.29138,-162.37244
1766902681957,-0.7050781,-0.22705078,-0.67578125,0.30517578,-0.5493164,0.36621094,0.0,0.0,0.0,-161.25732,44.384766,-162.36694
1766902682046,-0.70166016,-0.22558594,-0.6694336,0.12207031,1.3427734,0.0,0.0,0.0,0.0,-161.25732,44.384766,-162.36694
1766902682057,-0.70166016,-0.22558594,-0.6694336,0.12207031,1.3427734,0.0,0.0,0.0,0.0,-161.22986,44.351807,-162.45483
1766902682145,-0.7050781,-0.22851562,-0.67529297,0.0,-0.36621094,0.0,0.0,0.0,0.0,-161.22986,44.351807,-162.45483
1766902682157,-0.7050781,-0.22851562,-0.67529297,0.0,-0.36621094,0.0,0.0,0.0,0.0,-161.20789,44.41223,-162.45483
1766902682245,-0.7084961,-0.22509766,-0.6777344,-0.61035156,-2.5024414,0.61035156,0.0,0.0,0.0,-161.20789,44.41223,-162.45483
1766902682257,-0.7084961,-0.22509766,-0.6777344,-0.61035156,-2.5024414,0.61035156,0.0,0.0,0.0,-161.21338,44.47815,-162.44934
1766902682345,-0.71435547,-0.22705078,-0.67333984,-3.9672852,-5.9814453,0.24414062,0.0,0.0,0.0,-161.21338,44.47815,-162.44934
1766902682356,-0.71435547,-0.22705078,-0.67333984,-3.9672852,-5.9814453,0.24414062,0.0,0.0,0.0,-161.30676,44.884644,-162.26807
1766902682445,-0.71484375,-0.2241211,-0.6635742,-0.4272461,1.4038086,-1.0375977,0.0,0.0,0.0,-161.30676,44.884644,-162.26807
1766902682456,-0.71484375,-0.2241211,-0.6635742,-0.4272461,1.4038086,-1.0375977,0.0,0.0,0.0,-161.49353,45.03296,-162.08679
1766902682544,-0.71484375,-0.21044922,-0.6748047,0.061035156,-2.4414062,-1.0375977,0.0,0.0,0.0,-161.49353,45.03296,-162.08679
1766902682556,-0.71484375,-0.21044922,-0.6748047,0.061035156,-2.4414062,-1.0375977,0.0,0.0,0.0,-161.2024,45.109863,-161.64185
1766902682644,-0.70654297,-0.21679688,-0.6621094,-1.2817383,2.9296875,0.48828125,0.0,0.0,0.0,-161.2024,45.109863,-161.64185
1766902682656,-0.70654297,-0.21679688,-0.6621094,-1.2817383,2.9296875,0.48828125,0.0,0.0,0.0,-161.32874,45.082397,-161.6803
1766902682744,-0.71728516,-0.22753906,-0.6635742,-0.36621094,0.24414062,-0.18310547,0.0,0.0,0.0,-161.32874,45.082397,-161.6803
1766902682755,-0.71728516,-0.22753906,-0.6635742,-0.36621094,0.24414062,-0.18310547,0.0,0.0,0.0,-161.33423,45.038452,-161.63635
1766902682843,-0.7080078,-0.22021484,-0.66796875,-0.5493164,1.0375977,0.0,0.0,0.0,0.0,-161.33423,45.038452,-161.63635
1766902682855,-0.7080078,-0.22021484,-0.66796875,-0.5493164,1.0375977,0.0,0.0,0.0,0.0,-161.40015,45.07141,-161.5155
1766902682943,-0.7216797,-0.22167969,-0.6694336,-0.48828125,0.061035156,0.30517578,0.0,0.0,0.0,-161.40015,45.07141,-161.5155
1766902682954,-0.7216797,-0.22167969,-0.6694336,-0.48828125,0.061035156,0.30517578,0.0,0.0,0.0,-161.4331,45.082397,-161.48804
1766902683043,-0.71875,-0.22216797,-0.6689453,-0.18310547,0.36621094,0.12207031,0.0,0.0,0.0,-161.4331,45.082397,-161.48804
1766902683054,-0.71875,-0.22216797,-0.6689453,-0.18310547,0.36621094,0.12207031,0.0,0.0,0.0,-161.44958,45.07141,-161.40564
1766902683142,-0.7138672,-0.22314453,-0.6669922,-0.36621094,0.30517578,-0.061035156,0.0,0.0,0.0,-161.44958,45.07141,-161.40564
1766902683154,-0.7138672,-0.22314453,-0.6669922,-0.36621094,0.30517578,-0.061035156,0.0,0.0,0.0,-161.44958,45.060425,-161.30127
1766902683242,-0.71191406,-0.21972656,-0.6699219,-0.30517578,-0.36621094,-0.12207031,0.0,0.0,0.0,-161.44958,45.060425,-161.30127
1766902683254,-0.71191406,-0.21972656,-0.6699219,-0.30517578,-0.36621094,-0.12207031,0.0,0.0,0.0,-161.48254,45.03296,-161.26282
1766902683342,-0.7114258,-0.2211914,-0.66503906,-0.061035156,1.0375977,-0.24414062,0.0,0.0,0.0,-161.48254,45.03296,-161.26282
1766902683354,-0.7114258,-0.2211914,-0.66503906,-0.061035156,1.0375977,-0.24414062,0.0,0.0,0.0,-161.46606,45.038452,-161.1914
1766902683442,-0.7104492,-0.2265625,-0.6616211,-0.5493164,1.0986328,-0.18310547,0.0,0.0,0.0,-161.46606,45.038452,-161.1914
1766902683454,-0.7104492,-0.2265625,-0.6616211,-0.5493164,1.0986328,-0.18310547,0.0,0.0,0.0,-161.46606,44.934082,-161.12549
1766902683541,-0.7109375,-0.21826172,-0.6743164,-0.5493164,-0.061035156,0.36621094,0.0,0.0,0.0,-161.46606,44.934082,-161.12549
1766902683553,-0.7109375,-0.21826172,-0.6743164,-0.5493164,-0.061035156,0.36621094,0.0,0.0,0.0,-161.48254,44.87915,-161.08704
1766902683641,-0.71728516,-0.21777344,-0.6699219,-0.12207031,0.12207031,0.24414062,0.0,0.0,0.0,-161.48254,44.87915,-161.08704
1766902683652,-0.71728516,-0.21777344,-0.6699219,-0.12207031,0.12207031,0.24414062,0.0,0.0,0.0,-161.53748,44.917603,-161.14197
1766902683741,-0.71435547,-0.22705078,-0.6699219,0.9765625,-0.4272461,0.061035156,0.0,0.0,0.0,-161.53748,44.917603,-161.14197
1766902683752,-0.71435547,-0.22705078,-0.6699219,0.9765625,-0.4272461,0.061035156,0.0,0.0,0.0,-161.45508,44.96704,-161.10901
1766902683841,-0.70996094,-0.22314453,-0.6772461,0.9765625,3.8452148,0.0,0.0,0.0,0.0,-161.45508,44.96704,-161.10901
1766902683852,-0.70996094,-0.22314453,-0.6772461,0.9765625,3.8452148,0.0,0.0,0.0,0.0,-161.37268,44.890137,-161.1145
1766902683940,-0.70996094,-0.2265625,-0.6738281,0.4272461,2.2583008,0.12207031,0.0,0.0,0.0,-161.37268,44.890137,-161.1145
1766902683952,-0.70996094,-0.2265625,-0.6738281,0.4272461,2.2583008,0.12207031,0.0,0.0,0.0,-161.42761,44.5166,-161.32324
1766902684040,-0.70654297,-0.2241211,-0.67041016,0.61035156,2.6245117,-0.061035156,0.0,0.0,0.0,-161.42761,44.5166,-161.32324
1766902684051,-0.70654297,-0.2241211,-0.67041016,0.61035156,2.6245117,-0.061035156,0.0,0.0,0.0,-161.40015,44.40674,-161.39465
1766902684140,-0.7011719,-0.2265625,-0.67089844,0.4272461,1.5869141,-0.5493164,0.0,0.0,0.0,-161.40015,44.40674,-161.39465
1766902684151,-0.7011719,-0.2265625,-0.67089844,0.4272461,1.5869141,-0.5493164,0.0,0.0,0.0,-161.30676,44.263916,-161.47156
1766902684239,-0.7011719,-0.22851562,-0.6777344,0.36621094,0.12207031,-0.4272461,0.0,0.0,0.0,-161.30676,44.263916,-161.47156
1766902684251,-0.7011719,-0.22851562,-0.6777344,0.36621094,0.12207031,-0.4272461,0.0,0.0,0.0,-161.22437,44.26941,-161.46057
1766902684339,-0.7036133,-0.22802734,-0.6743164,-0.18310547,-0.061035156,0.0,0.0,0.0,0.0,-161.22437,44.26941,-161.46057
1766902684351,-0.7036133,-0.22802734,-0.6743164,-0.18310547,-0.061035156,0.0,0.0,0.0,0.0,-161.12,44.263916,-161.49353
1766902684439,-0.70654297,-0.23339844,-0.67626953,0.061035156,-0.30517578,-0.24414062,0.0,0.0,0.0,-161.12,44.263916,-161.49353
1766902684450,-0.70654297,-0.23339844,-0.67626953,0.061035156,-0.30517578,-0.24414062,0.0,0.0,0.0,-161.07056,44.313354,-161.53198
1766902684538,-0.69677734,-0.2290039,-0.6689453,0.061035156,0.7324219,0.0,0.0,0.0,0.0,-161.07056,44.313354,-161.53198
