timestamp,accX,accY,accZ,gyroX,gyroY,gyroZ,magX,magY,magZ,roll,pitch,yaw
1768707343613,-0.9477539,0.31640625,-0.072265625,-0.24414062,0.4272461,0.30517578,0.0,0.0,0.0,103.72742,70.22461,136.34583
1768707343701,-0.9477539,0.3203125,-0.076171875,-0.5493164,0.30517578,0.36621094,0.0,0.0,0.0,103.72742,70.22461,136.34583
1768707343712,-0.9477539,0.3203125,-0.076171875,-0.5493164,0.30517578,0.36621094,0.0,0.0,0.0,103.76587,70.22461,136.42822
1768707343800,-0.9482422,0.31445312,-0.072265625,-0.24414062,0.48828125,0.30517578,0.0,0.0,0.0,103.76587,70.22461,136.42822
1768707343812,-0.9482422,0.31445312,-0.072265625,-0.24414062,0.48828125,0.30517578,0.0,0.0,0.0,103.7439,70.22461,136.45569
1768707343900,-0.95166016,0.31689453,-0.076171875,-0.6713867,-0.18310547,0.36621094,0.0,0.0,0.0,103.7439,70.22461,136.45569
1768707343912,-0.95166016,0.31689453,-0.076171875,-0.6713867,-0.18310547,0.36621094,0.0,0.0,0.0,103.68347,70.235596,136.4447
1768707344000,-0.94970703,0.3178711,-0.07373047,-0.12207031,0.0,0.30517578,0.0,0.0,0.0,103.68347,70.235596,136.4447
1768707344013,-0.94970703,0.3178711,-0.07373047,-0.12207031,0.0,0.30517578,0.0,0.0,0.0,103.688965,70.235596,136.47217
1768707344099,-0.9482422,0.31591797,-0.072753906,-0.61035156,0.36621094,0.36621094,0.0,0.0,0.0,103.688965,70.235596,136.47217
1768707344111,-0.9482422,0.31591797,-0.072753906,-0.61035156,0.36621094,0.36621094,0.0,0.0,0.0,103.656006,70.235596,136.47766
1768707344199,-0.9526367,0.3178711,-0.075683594,-0.48828125,0.0,0.24414062,0.0,0.0,0.0,103.656006,70.235596,136.47766
1768707344211,-0.9526367,0.3178711,-0.075683594,-0.48828125,0.0,0.24414062,0.0,0.0,0.0,103.61206,70.2301,136.48865
1768707344299,-0.9506836,0.31640625,-0.07373047,-0.4272461,0.91552734,0.79345703,0.0,0.0,0.0,103.61206,70.2301,136.48865
1768707344310,-0.9506836,0.31640625,-0.07373047,-0.4272461,0.91552734,0.79345703,0.0,0.0,0.0,103.73291,70.20813,136.66443
1768707344399,-0.9482422,0.3178711,-0.076660156,-0.9765625,1.5258789,0.6713867,0.0,0.0,0.0,103.73291,70.20813,136.66443
1768707344410,-0.9482422,0.3178711,-0.076660156,-0.9765625,1.5258789,0.6713867,0.0,0.0,0.0,103.930664,70.14221,136.93909
1768707344498,-0.9477539,0.32177734,-0.07470703,-0.7324219,1.0986328,0.6713867,0.0,0.0,0.0,103.930664,70.14221,136.93909
1768707344510,-0.9477539,0.32177734,-0.07470703,-0.7324219,1.0986328,0.6713867,0.0,0.0,0.0,104.08447,70.08179,137.1753
1768707344598,-0.94628906,0.3203125,-0.079589844,-0.9765625,1.5869141,0.7324219,0.0,0.0,0.0,104.08447,70.08179,137.1753
1768707344610,-0.94628906,0.3203125,-0.079589844,-0.9765625,1.5869141,0.7324219,0.0,0.0,0.0,104.331665,70.00488,137.47192
1768707344698,-0.9458008,0.32177734,-0.07861328,-1.0375977,1.5869141,0.8544922,0.0,0.0,0.0,104.331665,70.00488,137.47192
1768707344709,-0.9458008,0.32177734,-0.07861328,-1.0375977,1.5869141,0.8544922,0.0,0.0,0.0,104.58435,69.93347,137.807
1768707344798,-0.9453125,0.31884766,-0.080078125,-1.0986328,1.4038086,0.6713867,0.0,0.0,0.0,104.58435,69.93347,137.807
1768707344809,-0.9453125,0.31884766,-0.080078125,-1.0986328,1.4038086,0.6713867,0.0,0.0,0.0,104.74365,69.86755,138.03772
1768707344898,-0.9506836,0.32421875,-0.08300781,-0.61035156,0.12207031,0.24414062,0.0,0.0,0.0,104.74365,69.86755,138.03772
1768707344909,-0.9506836,0.32421875,-0.08300781,-0.61035156,0.12207031,0.24414062,0.0,0.0,0.0,104.84253,69.86206,138.1311
1768707344997,-0.9399414,0.3227539,-0.08154297,-0.61035156,0.18310547,0.24414062,0.0,0.0,0.0,104.84253,69.86206,138.1311
1768707345008,-0.9399414,0.3227539,-0.08154297,-0.61035156,0.18310547,0.24414062,0.0,0.0,0.0,104.886475,69.84009,138.17505
1768707345097,-0.94873047,0.32177734,-0.08251953,-0.18310547,-0.24414062,0.0,0.0,0.0,0.0,104.886475,69.84009,138.17505
1768707345108,-0.94873047,0.32177734,-0.08251953,-0.18310547,-0.24414062,0.0,0.0,0.0,0.0,104.84253,69.84558,138.08716
1768707345196,-0.9472656,0.32128906,-0.08251953,-0.4272461,0.24414062,0.36621094,0.0,0.0,0.0,104.84253,69.84558,138.08716
1768707345208,-0.9472656,0.32128906,-0.08251953,-0.4272461,0.24414062,0.36621094,0.0,0.0,0.0,104.82605,69.85657,138.02124
1768707345296,-0.94628906,0.31982422,-0.08154297,-0.12207031,-0.18310547,0.24414062,0.0,0.0,0.0,104.82605,69.85657,138.02124
1768707345308,-0.94628906,0.31982422,-0.08154297,-0.12207031,-0.18310547,0.24414062,0.0,0.0,0.0,104.798584,69.87305,137.92786
1768707345396,-0.9477539,0.32080078,-0.08105469,-0.24414062,0.0,0.24414062,0.0,0.0,0.0,104.798584,69.87305,137.92786
1768707345407,-0.9477539,0.32080078,-0.08105469,-0.24414062,0.0,0.24414062,0.0,0.0,0.0,104.68872,69.88953,137.75757
1768707345496,-0.9477539,0.32080078,-0.080566406,-0.6713867,-0.061035156,0.4272461,0.0,0.0,0.0,104.68872,69.88953,137.75757
1768707345507,-0.9477539,0.32080078,-0.080566406,-0.6713867,-0.061035156,0.4272461,0.0,0.0,0.0,104.61182,69.88953,137.63672
1768707345595,-0.94677734,0.32177734,-0.07861328,-0.48828125,0.061035156,0.48828125,0.0,0.0,0.0,104.61182,69.88953,137.63672
1768707345607,-0.94677734,0.32177734,-0.07861328,-0.48828125,0.061035156,0.48828125,0.0,0.0,0.0,104.55139,69.87854,137.54883
1768707345695,-0.94628906,0.32226562,-0.080078125,-0.24414062,0.061035156,0.36621094,0.0,0.0,0.0,104.55139,69.87854,137.54883
1768707345706,-0.94628906,0.32226562,-0.080078125,-0.24414062,0.061035156,0.36621094,0.0,0.0,0.0,104.51843,69.86206,137.51587
1768707345795,-0.9448242,0.31884766,-0.07714844,0.24414062,0.18310547,0.18310547,0.0,0.0,0.0,104.51843,69.86206,137.51587
1768707345806,-0.9448242,0.31884766,-0.07714844,0.24414062,0.18310547,0.18310547,0.0,0.0,0.0,104.540405,69.86755,137.50488
1768707345894,-0.9511719,0.32128906,-0.083496094,-0.48828125,0.0,0.36621094,0.0,0.0,0.0,104.540405,69.86755,137.50488
1768707345906,-0.9511719,0.32128906,-0.083496094,-0.48828125,0.0,0.36621094,0.0,0.0,0.0,104.47449,69.89502,137.39502
1768707345994,-0.94677734,0.32128906,-0.080078125,-0.24414062,0.0,0.4272461,0.0,0.0,0.0,104.47449,69.89502,137.39502
1768707346006,-0.94677734,0.32128906,-0.080078125,-0.24414062,0.0,0.4272461,0.0,0.0,0.0,104.40857,69.89502,137.30164
1768707346094,-0.9453125,0.3203125,-0.078125,-0.5493164,0.12207031,0.36621094,0.0,0.0,0.0,104.40857,69.89502,137.30164
1768707346105,-0.9453125,0.3203125,-0.078125,-0.5493164,0.12207031,0.36621094,0.0,0.0,0.0,104.37012,69.90051,137.23022
1768707346194,-0.94873047,0.3232422,-0.07910156,-0.18310547,0.0,0.30517578,0.0,0.0,0.0,104.37012,69.90051,137.23022
1768707346205,-0.94873047,0.3232422,-0.07910156,-0.18310547,0.0,0.30517578,0.0,0.0,0.0,104.34265,69.906006,137.19727
1768707346293,-0.9448242,0.32080078,-0.078125,-0.48828125,0.30517578,0.4272461,0.0,0.0,0.0,104.34265,69.906006,137.19727
1768707346305,-0.9448242,0.32080078,-0.078125,-0.48828125,0.30517578,0.4272461,0.0,0.0,0.0,104.348145,69.91699,137.18628
1768707346393,-0.94677734,0.32128906,-0.07861328,-0.36621094,0.18310547,0.48828125,0.0,0.0,0.0,104.348145,69.91699,137.18628
1768707346405,-0.94677734,0.32128906,-0.07861328,-0.36621094,0.18310547,0.48828125,0.0,0.0,0.0,104.30969,69.88953,137.14783
1768707346493,-0.94677734,0.3227539,-0.076171875,-0.18310547,0.0,0.24414062,0.0,0.0,0.0,104.30969,69.88953,137.14783
1768707346504,-0.94677734,0.3227539,-0.076171875,-0.18310547,0.0,0.24414062,0.0,0.0,0.0,104.30969,69.87854,137.1643
1768707346593,-0.94628906,0.3232422,-0.076171875,-0.18310547,0.0,0.36621094,0.0,0.0,0.0,104.30969,69.87854,137.1643
1768707346604,-0.94628906,0.3232422,-0.076171875,-0.18310547,0.0,0.36621094,0.0,0.0,0.0,104.27124,69.88403,137.12036
1768707346692,-0.94677734,0.31982422,-0.07910156,-0.5493164,-0.12207031,0.18310547,0.0,0.0,0.0,104.27124,69.88403,137.12036
1768707346704,-0.94677734,0.31982422,-0.07910156,-0.5493164,-0.12207031,0.18310547,0.0,0.0,0.0,104.18335,69.90051,137.04346
1768707346792,-0.9477539,0.32128906,-0.06933594,0.36621094,0.6713867,0.061035156,0.0,0.0,0.0,104.18335,69.90051,137.04346
1768707346803,-0.9477539,0.32128906,-0.06933594,0.36621094,0.6713867,0.061035156,0.0,0.0,0.0,104.23279,69.91699,137.11487
1768707346892,-0.9458008,0.32177734,-0.07861328,-0.48828125,-0.12207031,0.7324219,0.0,0.0,0.0,104.23279,69.91699,137.11487
1768707346903,-0.9458008,0.32177734,-0.07861328,-0.48828125,-0.12207031,0.7324219,0.0,0.0,0.0,104.11743,69.938965,136.97205
1768707346991,-0.9501953,0.32373047,-0.07910156,0.24414062,-0.48828125,0.24414062,0.0,0.0,0.0,104.11743,69.938965,136.97205
1768707347003,-0.9501953,0.32373047,-0.07910156,0.24414062,-0.48828125,0.24414062,0.0,0.0,0.0,104.04602,69.91699,136.88965
1768707347091,-0.9423828,0.3203125,-0.07421875,-0.48828125,0.4272461,0.0,0.0,0.0,0.0,104.04602,69.91699,136.88965
1768707347103,-0.9423828,0.3203125,-0.07421875,-0.48828125,0.4272461,0.0,0.0,0.0,0.0,104.01306,69.93347,136.8512
1768707347191,-0.9472656,0.32128906,-0.07519531,0.24414062,-0.36621094,-0.4272461,0.0,0.0,0.0,104.01306,69.93347,136.8512
1768707347202,-0.9472656,0.32128906,-0.07519531,0.24414062,-0.36621094,-0.4272461,0.0,0.0,0.0,104.02954,69.9884,136.84021
1768707347291,-0.94677734,0.31835938,-0.078125,0.24414062,0.5493164,0.12207031,0.0,0.0,0.0,104.02954,69.9884,136.84021
1768707347302,-0.94677734,0.31835938,-0.078125,0.24414062,0.5493164,0.12207031,0.0,0.0,0.0,103.9801,70.03235,136.72485
1768707347390,-0.9501953,0.3203125,-0.07861328,0.0,0.0,0.36621094,0.0,0.0,0.0,103.9801,70.03235,136.72485
1768707347402,-0.9501953,0.3203125,-0.07861328,0.0,0.0,0.36621094,0.0,0.0,0.0,103.99109,70.043335,136.68091
1768707347490,-0.94873047,0.31835938,-0.07470703,0.18310547,-0.30517578,-0.061035156,0.0,0.0,0.0,103.99109,70.043335,136.68091
1768707347502,-0.94873047,0.31835938,-0.07470703,0.18310547,-0.30517578,-0.061035156,0.0,0.0,0.0,103.92517,70.059814,136.604
1768707347590,-0.94677734,0.31884766,-0.076171875,0.18310547,0.48828125,0.061035156,0.0,0.0,0.0,103.92517,70.059814,136.604
1768707347602,-0.94677734,0.31884766,-0.076171875,0.18310547,0.48828125,0.061035156,0.0,0.0,0.0,103.95813,70.09827,136.6095
1768707347693,-0.9482422,0.3203125,-0.07714844,0.24414062,0.30517578,0.18310547,0.0,0.0,0.0,103.95813,70.09827,136.6095
1768707347702,-0.9482422,0.3203125,-0.07714844,0.24414062,0.30517578,0.18310547,0.0,0.0,0.0,104.07349,70.114746,136.6864
1768707347789,-0.94921875,0.3178711,-0.078125,-0.12207031,-0.12207031,0.18310547,0.0,0.0,0.0,104.07349,70.114746,136.6864
1768707347801,-0.94921875,0.3178711,-0.078125,-0.12207031,-0.12207031,0.18310547,0.0,0.0,0.0,104.06799,70.12024,136.65344
1768707347889,-0.95214844,0.3178711,-0.07714844,0.6713867,-0.24414062,-0.24414062,0.0,0.0,0.0,104.06799,70.12024,136.65344
1768707347901,-0.95214844,0.3178711,-0.07714844,0.6713867,-0.24414062,-0.24414062,0.0,0.0,0.0,104.1449,70.15869,136.68091
1768707347989,-0.9477539,0.3173828,-0.076660156,0.12207031,0.061035156,0.061035156,0.0,0.0,0.0,104.1449,70.15869,136.68091
1768707348000,-0.9477539,0.3173828,-0.076660156,0.12207031,0.061035156,0.061035156,0.0,0.0,0.0,104.11194,70.17517,136.63147
1768707348092,-0.94970703,0.3173828,-0.078125,0.0,0.061035156,0.12207031,0.0,0.0,0.0,104.11194,70.17517,136.63147
1768707348100,-0.94970703,0.3173828,-0.078125,0.0,0.061035156,0.12207031,0.0,0.0,0.0,104.13391,70.19714,136.64246
1768707348188,-0.9458008,0.31591797,-0.07519531,0.061035156,0.18310547,0.12207031,0.0,0.0,0.0,104.13391,70.19714,136.64246
1768707348200,-0.9458008,0.31591797,-0.07519531,0.061035156,0.18310547,0.12207031,0.0,0.0,0.0,104.15588,70.20264,136.66992
1768707348288,-0.9482422,0.3154297,-0.07763672,-0.12207031,0.24414062,0.12207031,0.0,0.0,0.0,104.15588,70.20264,136.66992
1768707348300,-0.9482422,0.3154297,-0.07763672,-0.12207031,0.24414062,0.12207031,0.0,0.0,0.0,104.16138,70.21912,136.65894
1768707348388,-0.9501953,0.3173828,-0.07519531,-0.30517578,0.12207031,0.30517578,0.0,0.0,0.0,104.16138,70.21912,136.65894
1768707348399,-0.9501953,0.3173828,-0.07519531,-0.30517578,0.12207031,0.30517578,0.0,0.0,0.0,104.16687,70.22461,136.66992
1768707348487,-0.94873047,0.3154297,-0.07470703,-0.36621094,0.18310547,0.36621094,0.0,0.0,0.0,104.16687,70.22461,136.66992
1768707348499,-0.94873047,0.3154297,-0.07470703,-0.36621094,0.18310547,0.36621094,0.0,0.0,0.0,104.122925,70.22461,136.63696
1768707348587,-0.9501953,0.31689453,-0.07714844,-0.30517578,0.18310547,0.36621094,0.0,0.0,0.0,104.122925,70.22461,136.63696
1768707348599,-0.9501953,0.31689453,-0.07714844,-0.30517578,0.18310547,0.36621094,0.0,0.0,0.0,104.08447,70.22461,136.63696
1768707348687,-0.94873047,0.3178711,-0.07421875,-0.061035156,0.30517578,0.18310547,0.0,0.0,0.0,104.08447,70.22461,136.63696
1768707348698,-0.94873047,0.3178711,-0.07421875,-0.061035156,0.30517578,0.18310547,0.0,0.0,0.0,104.06799,70.22461,136.66443
1768707348787,-0.94677734,0.31640625,-0.072753906,-0.5493164,0.61035156,0.48828125,0.0,0.0,0.0,104.06799,70.22461,136.66443
1768707348798,-0.94677734,0.31640625,-0.072753906,-0.5493164,0.61035156,0.48828125,0.0,0.0,0.0,104.07349,70.21362,136.69739
1768707348886,-0.9472656,0.31591797,-0.07128906,0.30517578,0.48828125,0.12207031,0.0,0.0,0.0,104.07349,70.21362,136.69739
1768707348898,-0.9472656,0.31591797,-0.07128906,0.30517578,0.48828125,0.12207031,0.0,0.0,0.0,104.122925,70.21912,136.71387
1768707348986,-0.94628906,0.31591797,-0.07421875,-0.61035156,0.0,0.61035156,0.0,0.0,0.0,104.122925,70.21912,136.71387
1768707348998,-0.94628906,0.31591797,-0.07421875,-0.61035156,0.0,0.61035156,0.0,0.0,0.0,104.01306,70.2301,136.63147
1768707349086,-0.9506836,0.3173828,-0.07519531,-0.12207031,0.0,0.24414062,0.0,0.0,0.0,104.01306,70.2301,136.63147
1768707349097,-0.9506836,0.3173828,-0.07519531,-0.12207031,0.0,0.24414062,0.0,0.0,0.0,103.985596,70.235596,136.62048
1768707349186,-0.94628906,0.3154297,-0.07421875,-0.4272461,0.24414062,0.48828125,0.0,0.0,0.0,103.985596,70.235596,136.62048
1768707349197,-0.94628906,0.3154297,-0.07421875,-0.4272461,0.24414062,0.48828125,0.0,0.0,0.0,103.95264,70.2301,136.6095
1768707349285,-0.9506836,0.31689453,-0.075683594,-0.4272461,0.24414062,0.30517578,0.0,0.0,0.0,103.95264,70.2301,136.6095
1768707349297,-0.9506836,0.31689453,-0.075683594,-0.4272461,0.24414062,0.30517578,0.0,0.0,0.0,103.914185,70.2301,136.59302
1768707349385,-0.94970703,0.31640625,-0.07373047,-0.36621094,0.30517578,0.36621094,0.0,0.0,0.0,103.914185,70.2301,136.59302
1768707349397,-0.94970703,0.31640625,-0.07373047,-0.36621094,0.30517578,0.36621094,0.0,0.0,0.0,103.90869,70.2301,136.62048
1768707349485,-0.9477539,0.3154297,-0.07421875,-0.4272461,0.61035156,0.4272461,0.0,0.0,0.0,103.90869,70.2301,136.62048
1768707349496,-0.9477539,0.3154297,-0.07421875,-0.4272461,0.61035156,0.4272461,0.0,0.0,0.0,103.95813,70.21912,136.68091
1768707349584,-0.9506836,0.31689453,-0.075683594,-0.6713867,0.9765625,0.61035156,0.0,0.0,0.0,103.95813,70.21912,136.68091
1768707349596,-0.9506836,0.31689453,-0.075683594,-0.6713867,0.9765625,0.61035156,0.0,0.0,0.0,104.01306,70.19165,136.7688
1768707349684,-0.9472656,0.31835938,-0.076660156,-0.6713867,0.8544922,0.48828125,0.0,0.0,0.0,104.01306,70.19165,136.7688
1768707349696,-0.9472656,0.31835938,-0.076660156,-0.6713867,0.8544922,0.48828125,0.0,0.0,0.0,104.18335,70.1532,136.98853
1768707349784,-0.9472656,0.31933594,-0.076660156,-0.9765625,1.159668,0.7324219,0.0,0.0,0.0,104.18335,70.1532,136.98853
1768707349795,-0.9472656,0.31933594,-0.076660156,-0.9765625,1.159668,0.7324219,0.0,0.0,0.0,104.40857,70.10376,137.2522
1768707349884,-0.9448242,0.31689453,-0.075683594,-0.5493164,1.5258789,0.48828125,0.0,0.0,0.0,104.40857,70.10376,137.2522
1768707349895,-0.9448242,0.31689453,-0.075683594,-0.5493164,1.5258789,0.48828125,0.0,0.0,0.0,104.60632,70.043335,137.51038
1768707349983,-0.9526367,0.31933594,-0.083496094,-0.7324219,0.61035156,0.61035156,0.0,0.0,0.0,104.60632,70.043335,137.51038
1768707349995,-0.9526367,0.31933594,-0.083496094,-0.7324219,0.61035156,0.61035156,0.0,0.0,0.0,104.77661,70.01587,137.68616
1768707350083,-0.94628906,0.32080078,-0.08251953,-0.5493164,0.8544922,0.48828125,0.0,0.0,0.0,104.77661,70.01587,137.68616
1768707350095,-0.94628906,0.32080078,-0.08251953,-0.5493164,0.8544922,0.48828125,0.0,0.0,0.0,104.902954,69.971924,137.84546
1768707350186,-0.94433594,0.31884766,-0.083496094,-0.79345703,0.79345703,0.61035156,0.0,0.0,0.0,104.902954,69.971924,137.84546
1768707350196,-0.94433594,0.31884766,-0.083496094,-0.79345703,0.79345703,0.61035156,0.0,0.0,0.0,105.00183,69.938965,137.96082
1768707350283,-0.9482422,0.32226562,-0.084472656,-0.7324219,0.4272461,0.5493164,0.0,0.0,0.0,105.00183,69.938965,137.96082
1768707350295,-0.9482422,0.32226562,-0.084472656,-0.7324219,0.4272461,0.5493164,0.0,0.0,0.0,105.062256,69.906006,138.01575
1768707350382,-0.94433594,0.31982422,-0.080566406,-0.5493164,0.0,0.36621094,0.0,0.0,0.0,105.062256,69.906006,138.01575
1768707350394,-0.94433594,0.31982422,-0.080566406,-0.5493164,0.0,0.36621094,0.0,0.0,0.0,105.04028,69.88953,137.99927
1768707350482,-0.94628906,0.32177734,-0.080566406,-0.48828125,-0.24414062,0.30517578,0.0,0.0,0.0,105.04028,69.88953,137.99927
1768707350494,-0.94628906,0.32177734,-0.080566406,-0.48828125,-0.24414062,0.30517578,0.0,0.0,0.0,104.92493,69.89502,137.86743
1768707350582,-0.9482422,0.32080078,-0.08105469,-0.24414062,-0.061035156,0.18310547,0.0,0.0,0.0,104.92493,69.89502,137.86743
1768707350593,-0.9482422,0.32080078,-0.08105469,-0.24414062,-0.061035156,0.18310547,0.0,0.0,0.0,104.80408,69.906006,137.71912
1768707350681,-0.94677734,0.32080078,-0.080078125,-0.36621094,0.12207031,0.36621094,0.0,0.0,0.0,104.80408,69.906006,137.71912
1768707350693,-0.94677734,0.32080078,-0.080078125,-0.36621094,0.12207031,0.36621094,0.0,0.0,0.0,104.732666,69.9115,137.62024
1768707350781,-0.94677734,0.3203125,-0.08154297,-0.30517578,0.12207031,0.24414062,0.0,0.0,0.0,104.732666,69.9115,137.62024
1768707350793,-0.94677734,0.3203125,-0.08154297,-0.30517578,0.12207031,0.24414062,0.0,0.0,0.0,104.71069,69.91699,137.58728
1768707350881,-0.9453125,0.31933594,-0.07763672,0.18310547,0.12207031,0.18310547,0.0,0.0,0.0,104.71069,69.91699,137.58728
1768707350892,-0.9453125,0.31933594,-0.07763672,0.18310547,0.12207031,0.18310547,0.0,0.0,0.0,104.72168,69.922485,137.5653
1768707350981,-0.94873047,0.3203125,-0.08300781,-0.48828125,-0.18310547,0.48828125,0.0,0.0,0.0,104.72168,69.922485,137.5653
1768707350992,-0.94873047,0.3203125,-0.08300781,-0.48828125,-0.18310547,0.48828125,0.0,0.0,0.0,104.63379,69.94446,137.42798
1768707351080,-0.94921875,0.32128906,-0.07861328,-0.18310547,-0.30517578,0.36621094,0.0,0.0,0.0,104.63379,69.94446,137.42798
1768707351092,-0.94921875,0.32128906,-0.07861328,-0.18310547,-0.30517578,0.36621094,0.0,0.0,0.0,104.52942,69.938965,137.30713
1768707351180,-0.94433594,0.3203125,-0.07910156,-0.7324219,0.12207031,0.4272461,0.0,0.0,0.0,104.52942,69.938965,137.30713
1768707351192,-0.94433594,0.3203125,-0.07910156,-0.7324219,0.12207031,0.4272461,0.0,0.0,0.0,104.468994,69.94446,137.23022
1768707351280,-0.94873047,0.32373047,-0.079589844,-0.18310547,-0.18310547,0.24414062,0.0,0.0,0.0,104.468994,69.94446,137.23022
1768707351291,-0.94873047,0.32373047,-0.079589844,-0.18310547,-0.18310547,0.24414062,0.0,0.0,0.0,104.42505,69.94995,137.1753
1768707351380,-0.94628906,0.32080078,-0.076660156,-0.4272461,0.24414062,0.36621094,0.0,0.0,0.0,104.42505,69.94995,137.1753
1768707351391,-0.94628906,0.32080078,-0.076660156,-0.4272461,0.24414062,0.36621094,0.0,0.0,0.0,104.39758,69.955444,137.13135
1768707351479,-0.9477539,0.32080078,-0.07861328,-0.30517578,-0.12207031,0.24414062,0.0,0.0,0.0,104.39758,69.955444,137.13135
1768707351491,-0.9477539,0.32080078,-0.07861328,-0.30517578,-0.12207031,0.24414062,0.0,0.0,0.0,104.348145,69.96094,137.07092
1768707351579,-0.94873047,0.3203125,-0.07763672,-0.18310547,0.12207031,0.12207031,0.0,0.0,0.0,104.348145,69.96094,137.07092
1768707351590,-0.94873047,0.3203125,-0.07763672,-0.18310547,0.12207031,0.12207031,0.0,0.0,0.0,104.28223,69.98291,137.005
1768707351679,-0.94628906,0.32080078,-0.07861328,-0.24414062,0.061035156,0.24414062,0.0,0.0,0.0,104.28223,69.98291,137.005
1768707351690,-0.94628906,0.32080078,-0.07861328,-0.24414062,0.061035156,0.24414062,0.0,0.0,0.0,104.260254,69.9939,136.97205
1768707351779,-0.94873047,0.32080078,-0.078125,-0.061035156,-0.18310547,0.12207031,0.0,0.0,0.0,104.260254,69.9939,136.97205
1768707351790,-0.94873047,0.32080078,-0.078125,-0.061035156,-0.18310547,0.12207031,0.0,0.0,0.0,104.194336,70.00488,136.89514
1768707351878,-0.94677734,0.32226562,-0.079589844,0.0,-0.36621094,0.0,0.0,0.0,0.0,104.194336,70.00488,136.89514
1768707351890,-0.94677734,0.32226562,-0.079589844,0.0,-0.36621094,0.0,0.0,0.0,0.0,104.18335,70.02136,136.88416
1768707351978,-0.94970703,0.3203125,-0.07763672,0.12207031,-0.7324219,0.0,0.0,0.0,0.0,104.18335,70.02136,136.88416
1768707351989,-0.94970703,0.3203125,-0.07763672,0.12207031,-0.7324219,0.0,0.0,0.0,0.0,104.1449,70.05432,136.81824
1768707352078,-0.94433594,0.32080078,-0.07324219,0.12207031,-0.24414062,-0.061035156,0.0,0.0,0.0,104.1449,70.05432,136.81824
1768707352089,-0.94433594,0.32080078,-0.07324219,0.12207031,-0.24414062,-0.061035156,0.0,0.0,0.0,104.00757,70.076294,136.69739
1768707352177,-0.9482422,0.31835938,-0.07519531,-0.061035156,0.18310547,0.24414062,0.0,0.0,0.0,104.00757,70.076294,136.69739
1768707352189,-0.9482422,0.31835938,-0.07519531,-0.061035156,0.18310547,0.24414062,0.0,0.0,0.0,103.985596,70.10376,136.64795
1768707352277,-0.9482422,0.31884766,-0.07373047,0.30517578,0.48828125,0.061035156,0.0,0.0,0.0,103.985596,70.10376,136.64795
1768707352289,-0.9482422,0.31884766,-0.07373047,0.30517578,0.48828125,0.061035156,0.0,0.0,0.0,104.07349,70.10376,136.73035
1768707352377,-0.94873047,0.3173828,-0.080078125,0.0,0.30517578,0.0,0.0,0.0,0.0,104.07349,70.10376,136.73035
1768707352388,-0.94873047,0.3173828,-0.080078125,0.0,0.30517578,0.0,0.0,0.0,0.0,104.1449,70.131226,136.7633
1768707352477,-0.9477539,0.31982422,-0.076660156,-0.12207031,0.0,0.36621094,0.0,0.0,0.0,104.1449,70.131226,136.7633
1768707352488,-0.9477539,0.31982422,-0.076660156,-0.12207031,0.0,0.36621094,0.0,0.0,0.0,104.16138,70.131226,136.82373
1768707352576,-0.94873047,0.31689453,-0.07421875,-0.24414062,-0.061035156,0.30517578,0.0,0.0,0.0,104.16138,70.131226,136.82373
1768707352588,-0.94873047,0.31689453,-0.07421875,-0.24414062,-0.061035156,0.30517578,0.0,0.0,0.0,104.0625,70.131226,136.72485
1768707352676,-0.94970703,0.31933594,-0.076660156,-0.061035156,0.18310547,0.18310547,0.0,0.0,0.0,104.0625,70.131226,136.72485
1768707352688,-0.94970703,0.31933594,-0.076660156,-0.061035156,0.18310547,0.18310547,0.0,0.0,0.0,104.04602,70.147705,136.70837
1768707352776,-0.94873047,0.3173828,-0.07519531,-0.12207031,0.18310547,0.24414062,0.0,0.0,0.0,104.04602,70.147705,136.70837
1768707352787,-0.94873047,0.3173828,-0.07519531,-0.12207031,0.18310547,0.24414062,0.0,0.0,0.0,104.02954,70.15869,136.70288
1768707352876,-0.94921875,0.31689453,-0.07470703,-0.30517578,0.18310547,0.24414062,0.0,0.0,0.0,104.02954,70.15869,136.70288
1768707352887,-0.94921875,0.31689453,-0.07470703,-0.30517578,0.18310547,0.24414062,0.0,0.0,0.0,104.01306,70.17517,136.68091
1768707352975,-0.9458008,0.3178711,-0.06982422,0.4272461,0.6713867,0.0,0.0,0.0,0.0,104.01306,70.17517,136.68091
1768707352987,-0.9458008,0.3178711,-0.06982422,0.4272461,0.6713867,0.0,0.0,0.0,0.0,104.07349,70.19714,136.71936
1768707353075,-0.9477539,0.3178711,-0.07421875,-0.61035156,0.0,0.5493164,0.0,0.0,0.0,104.07349,70.19714,136.71936
1768707353087,-0.9477539,0.3178711,-0.07421875,-0.61035156,0.0,0.5493164,0.0,0.0,0.0,103.97461,70.20813,136.63147
1768707353175,-0.95214844,0.31640625,-0.075683594,-0.30517578,0.24414062,0.24414062,0.0,0.0,0.0,103.97461,70.20813,136.63147
1768707353186,-0.95214844,0.31640625,-0.075683594,-0.30517578,0.24414062,0.24414062,0.0,0.0,0.0,103.94714,70.21362,136.6095
1768707353274,-0.9448242,0.31689453,-0.07080078,-0.36621094,0.48828125,0.8544922,0.0,0.0,0.0,103.94714,70.21362,136.6095
1768707353286,-0.9448242,0.31689453,-0.07080078,-0.36621094,0.48828125,0.8544922,0.0,0.0,0.0,103.93616,70.19165,136.64795
1768707353374,-0.95214844,0.31591797,-0.07714844,-0.5493164,0.36621094,0.48828125,0.0,0.0,0.0,103.93616,70.19165,136.64795
1768707353386,-0.95214844,0.31591797,-0.07714844,-0.5493164,0.36621094,0.48828125,0.0,0.0,0.0,103.89221,70.17517,136.64795
1768707353474,-0.9482422,0.31933594,-0.075683594,-0.5493164,0.36621094,0.5493164,0.0,0.0,0.0,103.89221,70.17517,136.64795
1768707353485,-0.9482422,0.31933594,-0.075683594,-0.5493164,0.36621094,0.5493164,0.0,0.0,0.0,103.96362,70.1532,136.74683
1768707353574,-0.9453125,0.31982422,-0.07519531,-0.61035156,0.36621094,0.61035156,0.0,0.0,0.0,103.96362,70.1532,136.74683
1768707353585,-0.9453125,0.31982422,-0.07519531,-0.61035156,0.36621094,0.61035156,0.0,0.0,0.0,103.95813,70.12573,136.79077
1768707353673,-0.9477539,0.31884766,-0.07373047,-0.30517578,0.061035156,0.24414062,0.0,0.0,0.0,103.95813,70.12573,136.79077
1768707353685,-0.9477539,0.31884766,-0.07373047,-0.30517578,0.061035156,0.24414062,0.0,0.0,0.0,103.91968,70.10925,136.75781
1768707353773,-0.9472656,0.31835938,-0.076171875,-0.48828125,0.24414062,0.24414062,0.0,0.0,0.0,103.91968,70.10925,136.75781
1768707353785,-0.9472656,0.31835938,-0.076171875,-0.48828125,0.24414062,0.24414062,0.0,0.0,0.0,103.930664,70.10925,136.7688
1768707353873,-0.9501953,0.3173828,-0.07421875,-0.24414062,0.061035156,0.18310547,0.0,0.0,0.0,103.930664,70.10925,136.7688
1768707353884,-0.9501953,0.3173828,-0.07421875,-0.24414062,0.061035156,0.18310547,0.0,0.0,0.0,103.95813,70.12573,136.7633
1768707353973,-0.94677734,0.3173828,-0.076660156,-0.48828125,0.24414062,0.36621094,0.0,0.0,0.0,103.95813,70.12573,136.7633
1768707353984,-0.94677734,0.3173828,-0.076660156,-0.48828125,0.24414062,0.36621094,0.0,0.0,0.0,103.95813,70.114746,136.79077
1768707354072,-0.9536133,0.31835938,-0.07763672,-0.36621094,-0.4272461,0.24414062,0.0,0.0,0.0,103.95813,70.114746,136.79077
1768707354084,-0.9536133,0.31835938,-0.07763672,-0.36621094,-0.4272461,0.24414062,0.0,0.0,0.0,103.93616,70.14221,136.74133
1768707354188,-0.94628906,0.31933594,-0.07470703,-0.12207031,0.24414062,0.30517578,0.0,0.0,0.0,103.93616,70.14221,136.74133
1768707354189,-0.94628906,0.31933594,-0.07470703,-0.12207031,0.24414062,0.30517578,0.0,0.0,0.0,103.914185,70.131226,136.70837
1768707354272,-0.9477539,0.31884766,-0.076660156,-0.5493164,0.24414062,0.30517578,0.0,0.0,0.0,103.914185,70.131226,136.70837
1768707354283,-0.9477539,0.31884766,-0.076660156,-0.5493164,0.24414062,0.30517578,0.0,0.0,0.0,103.930664,70.13672,136.71936
1768707354371,-0.94921875,0.31982422,-0.076660156,-0.24414062,0.12207031,0.24414062,0.0,0.0,0.0,103.930664,70.13672,136.71936
1768707354383,-0.94921875,0.31982422,-0.076660156,-0.24414062,0.12207031,0.24414062,0.0,0.0,0.0,103.914185,70.13672,136.68091
1768707354471,-0.9477539,0.3178711,-0.07519531,-0.24414062,0.0,0.12207031,0.0,0.0,0.0,103.914185,70.13672,136.68091
1768707354483,-0.9477539,0.3178711,-0.07519531,-0.24414062,0.0,0.12207031,0.0,0.0,0.0,103.93616,70.147705,136.70288
1768707354571,-0.94873047,0.31884766,-0.07421875,-0.4272461,0.12207031,0.30517578,0.0,0.0,0.0,103.93616,70.147705,136.70288
1768707354582,-0.94873047,0.31884766,-0.07421875,-0.4272461,0.12207031,0.30517578,0.0,0.0,0.0,103.914185,70.15869,136.6864
1768707354671,-0.94921875,0.3173828,-0.07519531,-0.30517578,0.12207031,0.36621094,0.0,0.0,0.0,103.914185,70.15869,136.6864
1768707354682,-0.94921875,0.3173828,-0.07519531,-0.30517578,0.12207031,0.36621094,0.0,0.0,0.0,103.87024,70.1532,136.64795
1768707354770,-0.94921875,0.31884766,-0.075683594,-0.30517578,0.79345703,0.4272461,0.0,0.0,0.0,103.87024,70.1532,136.64795
1768707354782,-0.94921875,0.31884766,-0.075683594,-0.30517578,0.79345703,0.4272461,0.0,0.0,0.0,103.92517,70.147705,136.71387
1768707354870,-0.94970703,0.3178711,-0.07763672,-0.12207031,1.5258789,0.4272461,0.0,0.0,0.0,103.92517,70.147705,136.71387
1768707354882,-0.94970703,0.3178711,-0.07763672,-0.12207031,1.5258789,0.4272461,0.0,0.0,0.0,104.16138,70.12024,136.9281
1768707354970,-0.94970703,0.31884766,-0.08154297,-0.4272461,1.2817383,0.36621094,0.0,0.0,0.0,104.16138,70.12024,136.9281
1768707354981,-0.94970703,0.31884766,-0.08154297,-0.4272461,1.2817383,0.36621094,0.0,0.0,0.0,104.50745,70.076294,137.26868
1768707355070,-0.9511719,0.31982422,-0.08251953,-0.4272461,0.7324219,0.4272461,0.0,0.0,0.0,104.50745,70.076294,137.26868
1768707355081,-0.9511719,0.31982422,-0.08251953,-0.4272461,0.7324219,0.4272461,0.0,0.0,0.0,104.79309,70.04883,137.55981
1768707355169,-0.94384766,0.31982422,-0.08203125,-0.4272461,1.0375977,0.48828125,0.0,0.0,0.0,104.79309,70.04883,137.55981
1768707355181,-0.94384766,0.31982422,-0.08203125,-0.4272461,1.0375977,0.48828125,0.0,0.0,0.0,104.95239,69.99939,137.75208
1768707355269,-0.9482422,0.31933594,-0.084472656,-0.7324219,1.0986328,0.6713867,0.0,0.0,0.0,104.95239,69.99939,137.75208
1768707355281,-0.9482422,0.31933594,-0.084472656,-0.7324219,1.0986328,0.6713867,0.0,0.0,0.0,105.128174,69.955444,137.94983
1768707355369,-0.94873047,0.31982422,-0.08691406,-0.91552734,1.0375977,0.61035156,0.0,0.0,0.0,105.128174,69.955444,137.94983
1768707355380,-0.94873047,0.31982422,-0.08691406,-0.91552734,1.0375977,0.61035156,0.0,0.0,0.0,105.35339,69.9115,138.19702
1768707355469,-0.9453125,0.31982422,-0.0859375,-0.79345703,0.91552734,0.48828125,0.0,0.0,0.0,105.35339,69.9115,138.19702
1768707355480,-0.9453125,0.31982422,-0.0859375,-0.79345703,0.91552734,0.48828125,0.0,0.0,0.0,105.52368,69.86755,138.38928
1768707355568,-0.9472656,0.32080078,-0.08544922,-0.79345703,0.91552734,0.61035156,0.0,0.0,0.0,105.52368,69.86755,138.38928
1768707355580,-0.9472656,0.32080078,-0.08544922,-0.79345703,0.91552734,0.61035156,0.0,0.0,0.0,105.65552,69.82361,138.57056
1768707355668,-0.94433594,0.3203125,-0.08691406,-0.61035156,1.0375977,0.61035156,0.0,0.0,0.0,105.65552,69.82361,138.57056
1768707355680,-0.94433594,0.3203125,-0.08691406,-0.61035156,1.0375977,0.61035156,0.0,0.0,0.0,105.78735,69.77966,138.73535
1768707355768,-0.94384766,0.32177734,-0.08691406,-0.8544922,0.91552734,0.6713867,0.0,0.0,0.0,105.78735,69.77966,138.73535
1768707355779,-0.94384766,0.32177734,-0.08691406,-0.8544922,0.91552734,0.6713867,0.0,0.0,0.0,105.90271,69.73572,138.85071
1768707355868,-0.94384766,0.32177734,-0.088378906,-0.91552734,0.48828125,0.6713867,0.0,0.0,0.0,105.90271,69.73572,138.85071
1768707355879,-0.94384766,0.32177734,-0.088378906,-0.91552734,0.48828125,0.6713867,0.0,0.0,0.0,105.94116,69.697266,138.87268
1768707355967,-0.94433594,0.32080078,-0.087402344,0.0,-0.24414062,0.24414062,0.0,0.0,0.0,105.94116,69.697266,138.87268
1768707355979,-0.94433594,0.32080078,-0.087402344,0.0,-0.24414062,0.24414062,0.0,0.0,0.0,105.88623,69.69177,138.7738
1768707356067,-0.94677734,0.32226562,-0.092285156,-0.24414062,0.061035156,0.4272461,0.0,0.0,0.0,105.88623,69.69177,138.7738
1768707356079,-0.94677734,0.32226562,-0.092285156,-0.24414062,0.061035156,0.4272461,0.0,0.0,0.0,105.78186,69.70825,138.60901
1768707356167,-0.9482422,0.3232422,-0.08935547,-0.30517578,-0.48828125,0.24414062,0.0,0.0,0.0,105.78186,69.70825,138.60901
1768707356179,-0.9482422,0.3232422,-0.08935547,-0.30517578,-0.48828125,0.24414062,0.0,0.0,0.0,105.650024,69.72473,138.43323
1768707356267,-0.9448242,0.32128906,-0.083984375,-0.24414062,-0.24414062,0.12207031,0.0,0.0,0.0,105.650024,69.72473,138.43323
1768707356278,-0.9448242,0.32128906,-0.083984375,-0.24414062,-0.24414062,0.12207031,0.0,0.0,0.0,105.545654,69.75769,138.25745
1768707356366,-0.94677734,0.32177734,-0.08691406,-0.24414062,-0.18310547,0.24414062,0.0,0.0,0.0,105.545654,69.75769,138.25745
1768707356378,-0.94677734,0.32177734,-0.08691406,-0.24414062,-0.18310547,0.24414062,0.0,0.0,0.0,105.496216,69.77417,138.1311
1768707356466,-0.94628906,0.32226562,-0.084472656,-0.18310547,-0.4272461,0.12207031,0.0,0.0,0.0,105.496216,69.77417,138.1311
1768707356477,-0.94628906,0.32226562,-0.084472656,-0.18310547,-0.4272461,0.12207031,0.0,0.0,0.0,105.424805,69.801636,138.01575
1768707356566,-0.9448242,0.32177734,-0.08496094,-0.30517578,-0.18310547,0.36621094,0.0,0.0,0.0,105.424805,69.801636,138.01575
1768707356577,-0.9448242,0.32177734,-0.08496094,-0.30517578,-0.18310547,0.36621094,0.0,0.0,0.0,105.320435,69.80713,137.88391
1768707356666,-0.94677734,0.32226562,-0.08300781,-0.18310547,-0.48828125,0.4272461,0.0,0.0,0.0,105.320435,69.80713,137.88391
1768707356677,-0.94677734,0.32226562,-0.08300781,-0.18310547,-0.48828125,0.4272461,0.0,0.0,0.0,105.19409,69.81262,137.71912
1768707356765,-0.94873047,0.32128906,-0.08203125,0.48828125,0.30517578,0.24414062,0.0,0.0,0.0,105.19409,69.81262,137.71912
1768707356777,-0.94873047,0.32128906,-0.08203125,0.48828125,0.30517578,0.24414062,0.0,0.0,0.0,105.21057,69.818115,137.66418
1768707356865,-0.93603516,0.3227539,-0.08886719,0.12207031,-0.18310547,0.0,0.0,0.0,0.0,105.21057,69.818115,137.66418
1768707356876,-0.93603516,0.3227539,-0.08886719,0.12207031,-0.18310547,0.0,0.0,0.0,0.0,105.2655,69.801636,137.67517
1768707356965,-0.9482422,0.32421875,-0.08935547,1.2817383,-2.8076172,-1.3427734,0.0,0.0,0.0,105.2655,69.801636,137.67517
1768707356976,-0.9482422,0.32421875,-0.08935547,1.2817383,-2.8076172,-1.3427734,0.0,0.0,0.0,105.0238,69.93347,137.2522
1768707357064,-0.9448242,0.31884766,-0.07714844,0.48828125,-1.5869141,-0.61035156,0.0,0.0,0.0,105.0238,69.93347,137.2522
1768707357076,-0.9448242,0.31884766,-0.07714844,0.48828125,-1.5869141,-0.61035156,0.0,0.0,0.0,104.60632,70.08179,136.69739
1768707357164,-0.9555664,0.31445312,-0.07128906,0.24414062,-1.8920898,-0.5493164,0.0,0.0,0.0,104.60632,70.08179,136.69739
1768707357176,-0.9555664,0.31445312,-0.07128906,0.24414062,-1.8920898,-0.5493164,0.0,0.0,0.0,104.16138,70.20813,136.19751
1768707357264,-0.95166016,0.31201172,-0.07128906,0.79345703,-0.61035156,-0.36621094,0.0,0.0,0.0,104.16138,70.20813,136.19751
1768707357276,-0.95166016,0.31201172,-0.07128906,0.79345703,-0.61035156,-0.36621094,0.0,0.0,0.0,103.91968,70.30701,135.90637
1768707357363,-0.9511719,0.31201172,-0.078125,1.7700195,1.6479492,-0.18310547,0.0,0.0,0.0,103.91968,70.30701,135.90637
1768707357375,-0.9511719,0.31201172,-0.078125,1.7700195,1.6479492,-0.18310547,0.0,0.0,0.0,104.089966,70.372925,135.98328
1768707357463,-0.94873047,0.31445312,-0.080078125,1.0986328,-0.48828125,-0.24414062,0.0,0.0,0.0,104.089966,70.372925,135.98328
1768707357475,-0.94873047,0.31445312,-0.080078125,1.0986328,-0.48828125,-0.24414062,0.0,0.0,0.0,104.23828,70.42236,136.08215
1768707357563,-0.9555664,0.3154297,-0.07324219,0.7324219,-0.5493164,-0.061035156,0.0,0.0,0.0,104.23828,70.42236,136.08215
1768707357574,-0.9555664,0.3154297,-0.07324219,0.7324219,-0.5493164,-0.061035156,0.0,0.0,0.0,104.15039,70.493774,135.91187
1768707357663,-0.94677734,0.30810547,-0.07080078,0.0,0.9765625,0.18310547,0.0,0.0,0.0,104.15039,70.493774,135.91187
1768707357675,-0.94677734,0.30810547,-0.07080078,0.0,0.9765625,0.18310547,0.0,0.0,0.0,104.34265,70.477295,136.14807
1768707357762,-0.94873047,0.3149414,-0.080078125,0.30517578,-0.30517578,0.0,0.0,0.0,0.0,104.34265,70.477295,136.14807
1768707357774,-0.94873047,0.3149414,-0.080078125,0.30517578,-0.30517578,0.0,0.0,0.0,0.0,104.41406,70.510254,136.23596
1768707357862,-0.94970703,0.30664062,-0.080078125,0.24414062,0.91552734,0.0,0.0,0.0,0.0,104.41406,70.510254,136.23596
1768707357874,-0.94970703,0.30664062,-0.080078125,0.24414062,0.91552734,0.0,0.0,0.0,0.0,104.468994,70.54321,136.2799
1768707357962,-0.9526367,0.3100586,-0.07714844,-0.30517578,-0.24414062,0.30517578,0.0,0.0,0.0,104.468994,70.54321,136.2799
1768707357973,-0.9526367,0.3100586,-0.07714844,-0.30517578,-0.24414062,0.30517578,0.0,0.0,0.0,104.61182,70.565186,136.41174
1768707358062,-0.9526367,0.30859375,-0.076171875,0.5493164,0.061035156,-0.12207031,0.0,0.0,0.0,104.61182,70.565186,136.41174
1768707358073,-0.9526367,0.30859375,-0.076171875,0.5493164,0.061035156,-0.12207031,0.0,0.0,0.0,104.60083,70.57617,136.42822
1768707358162,-0.9477539,0.3100586,-0.07714844,-0.12207031,0.6713867,0.18310547,0.0,0.0,0.0,104.60083,70.57617,136.42822
1768707358173,-0.9477539,0.3100586,-0.07714844,-0.12207031,0.6713867,0.18310547,0.0,0.0,0.0,104.71069,70.62012,136.5326
1768707358261,-0.9526367,0.3095703,-0.080566406,-0.24414062,0.061035156,0.36621094,0.0,0.0,0.0,104.71069,70.62012,136.5326
1768707358273,-0.9526367,0.3095703,-0.080566406,-0.24414062,0.061035156,0.36621094,0.0,0.0,0.0,104.782104,70.62561,136.63696
1768707358361,-0.94873047,0.30859375,-0.07861328,-0.061035156,-0.18310547,0.061035156,0.0,0.0,0.0,104.782104,70.62561,136.63696
1768707358373,-0.94873047,0.30859375,-0.07861328,-0.061035156,-0.18310547,0.061035156,0.0,0.0,0.0,104.732666,70.64209,136.62048
1768707358461,-0.95166016,0.30664062,-0.07714844,-0.30517578,0.6713867,0.48828125,0.0,0.0,0.0,104.732666,70.64209,136.62048
1768707358473,-0.95166016,0.30664062,-0.07714844,-0.30517578,0.6713867,0.48828125,0.0,0.0,0.0,104.7052,70.6366,136.62598
1768707358560,-0.9501953,0.3095703,-0.07763672,-0.12207031,0.4272461,0.24414062,0.0,0.0,0.0,104.7052,70.6366,136.62598
1768707358572,-0.9501953,0.3095703,-0.07763672,-0.12207031,0.4272461,0.24414062,0.0,0.0,0.0,104.82605,70.62561,136.77429
1768707358660,-0.9501953,0.30859375,-0.07714844,-0.061035156,0.4272461,0.18310547,0.0,0.0,0.0,104.82605,70.62561,136.77429
1768707358672,-0.9501953,0.30859375,-0.07714844,-0.061035156,0.4272461,0.18310547,0.0,0.0,0.0,104.83154,70.64209,136.79626
1768707358760,-0.9526367,0.30810547,-0.080566406,-0.6713867,0.5493164,0.7324219,0.0,0.0,0.0,104.83154,70.64209,136.79626
1768707358771,-0.9526367,0.30810547,-0.080566406,-0.6713867,0.5493164,0.7324219,0.0,0.0,0.0,104.89746,70.6311,136.91162
1768707358860,-0.9501953,0.30664062,-0.076171875,0.30517578,0.79345703,0.0,0.0,0.0,0.0,104.89746,70.6311,136.91162
1768707358871,-0.9501953,0.30664062,-0.076171875,0.30517578,0.79345703,0.0,0.0,0.0,0.0,104.94141,70.6311,137.005
1768707358959,-0.95166016,0.3076172,-0.080078125,-0.6713867,0.30517578,0.48828125,0.0,0.0,0.0,104.94141,70.6311,137.005
1768707358971,-0.95166016,0.3076172,-0.080078125,-0.6713867,0.30517578,0.48828125,0.0,0.0,0.0,104.98535,70.66406,137.04895
1768707359059,-0.9526367,0.3076172,-0.08154297,-0.24414062,0.30517578,0.24414062,0.0,0.0,0.0,104.98535,70.66406,137.04895
1768707359071,-0.9526367,0.3076172,-0.08154297,-0.24414062,0.30517578,0.24414062,0.0,0.0,0.0,105.04578,70.653076,137.10938
1768707359159,-0.94970703,0.3071289,-0.07763672,-0.5493164,0.24414062,0.4272461,0.0,0.0,0.0,105.04578,70.653076,137.10938
1768707359170,-0.94970703,0.3071289,-0.07763672,-0.5493164,0.24414062,0.4272461,0.0,0.0,0.0,105.08423,70.669556,137.1753
1768707359258,-0.9536133,0.30664062,-0.080566406,-0.79345703,0.30517578,0.5493164,0.0,0.0,0.0,105.08423,70.669556,137.1753
1768707359270,-0.9536133,0.30664062,-0.080566406,-0.79345703,0.30517578,0.5493164,0.0,0.0,0.0,105.095215,70.64758,137.2522
1768707359358,-0.94873047,0.30810547,-0.07861328,-0.5493164,0.061035156,0.30517578,0.0,0.0,0.0,105.095215,70.64758,137.2522
1768707359370,-0.94873047,0.30810547,-0.07861328,-0.5493164,0.061035156,0.30517578,0.0,0.0,0.0,105.15564,70.6311,137.37854
1768707359458,-0.9511719,0.3100586,-0.079589844,-0.48828125,0.061035156,0.061035156,0.0,0.0,0.0,105.15564,70.6311,137.37854
1768707359469,-0.9511719,0.3100586,-0.079589844,-0.48828125,0.061035156,0.061035156,0.0,0.0,0.0,105.15564,70.64209,137.4115
1768707359558,-0.95214844,0.30908203,-0.080078125,-0.6713867,-0.24414062,0.30517578,0.0,0.0,0.0,105.15564,70.64209,137.4115
1768707359569,-0.95214844,0.30908203,-0.080078125,-0.6713867,-0.24414062,0.30517578,0.0,0.0,0.0,105.1062,70.669556,137.38953
1768707359658,-0.95410156,0.30664062,-0.08105469,-0.7324219,0.79345703,0.61035156,0.0,0.0,0.0,105.1062,70.669556,137.38953
1768707359669,-0.95410156,0.30664062,-0.08105469,-0.7324219,0.79345703,0.61035156,0.0,0.0,0.0,105.062256,70.653076,137.38403
1768707359757,-0.9526367,0.30908203,-0.08154297,-0.61035156,1.6479492,0.5493164,0.0,0.0,0.0,105.062256,70.653076,137.38403
1768707359769,-0.9526367,0.30908203,-0.08154297,-0.61035156,1.6479492,0.5493164,0.0,0.0,0.0,105.30945,70.6311,137.68616
1768707359857,-0.94433594,0.30566406,-0.08105469,-0.24414062,2.1972656,0.12207031,0.0,0.0,0.0,105.30945,70.6311,137.68616
1768707359868,-0.94433594,0.30566406,-0.08105469,-0.24414062,2.1972656,0.12207031,0.0,0.0,0.0,105.73242,70.58716,138.18054
1768707359957,-0.95458984,0.30810547,-0.09033203,-1.0375977,0.91552734,0.9765625,0.0,0.0,0.0,105.73242,70.58716,138.18054
1768707359969,-0.95458984,0.30810547,-0.09033203,-1.0375977,0.91552734,0.9765625,0.0,0.0,0.0,105.963135,70.565186,138.43872
1768707360056,-0.94873047,0.30810547,-0.08642578,-0.48828125,1.0375977,0.61035156,0.0,0.0,0.0,105.963135,70.565186,138.43872
1768707360068,-0.94873047,0.30810547,-0.08642578,-0.48828125,1.0375977,0.61035156,0.0,0.0,0.0,106.100464,70.493774,138.63647
1768707360156,-0.9472656,0.30810547,-0.08935547,-0.7324219,1.2817383,0.36621094,0.0,0.0,0.0,106.100464,70.493774,138.63647
1768707360168,-0.9472656,0.30810547,-0.08935547,-0.7324219,1.2817383,0.36621094,0.0,0.0,0.0,106.34766,70.45532,138.94409
1768707360256,-0.9555664,0.31054688,-0.091308594,-1.159668,0.7324219,0.061035156,0.0,0.0,0.0,106.34766,70.45532,138.94409
1768707360267,-0.9555664,0.31054688,-0.091308594,-1.159668,0.7324219,0.061035156,0.0,0.0,0.0,106.46301,70.444336,139.14734
1768707360355,-0.9477539,0.30810547,-0.08935547,-1.4038086,1.0375977,0.79345703,0.0,0.0,0.0,106.46301,70.444336,139.14734
1768707360367,-0.9477539,0.30810547,-0.08935547,-1.4038086,1.0375977,0.79345703,0.0,0.0,0.0,106.58386,70.38391,139.35608
1768707360455,-0.94873047,0.31103516,-0.088378906,-1.0986328,0.48828125,0.61035156,0.0,0.0,0.0,106.58386,70.38391,139.35608
1768707360467,-0.94873047,0.31103516,-0.088378906,-1.0986328,0.48828125,0.61035156,0.0,0.0,0.0,106.64978,70.32898,139.50989
1768707360555,-0.94873047,0.31152344,-0.088378906,-0.91552734,0.7324219,0.48828125,0.0,0.0,0.0,106.64978,70.32898,139.50989
1768707360566,-0.94873047,0.31152344,-0.088378906,-0.91552734,0.7324219,0.48828125,0.0,0.0,0.0,106.622314,70.30701,139.51538
1768707360655,-0.9472656,0.3125,-0.08886719,-0.48828125,0.79345703,0.48828125,0.0,0.0,0.0,106.622314,70.30701,139.51538
1768707360666,-0.9472656,0.3125,-0.08886719,-0.48828125,0.79345703,0.48828125,0.0,0.0,0.0,106.69922,70.268555,139.63623
1768707360754,-0.94873047,0.31298828,-0.08984375,-0.61035156,0.48828125,0.30517578,0.0,0.0,0.0,106.69922,70.268555,139.63623
1768707360766,-0.94873047,0.31298828,-0.08984375,-0.61035156,0.48828125,0.30517578,0.0,0.0,0.0,106.70471,70.25757,139.63623
1768707360854,-0.94677734,0.31396484,-0.087402344,0.0,0.12207031,0.0,0.0,0.0,0.0,106.70471,70.25757,139.63623
1768707360866,-0.94677734,0.31396484,-0.087402344,0.0,0.12207031,0.0,0.0,0.0,0.0,106.68823,70.27954,139.54834
1768707360954,-0.94677734,0.30908203,-0.08984375,-0.4272461,0.18310547,0.4272461,0.0,0.0,0.0,106.68823,70.27954,139.54834
1768707360965,-0.94677734,0.30908203,-0.08984375,-0.4272461,0.18310547,0.4272461,0.0,0.0,0.0,106.64978,70.29602,139.44397
1768707361053,-0.95214844,0.31201172,-0.08984375,-0.18310547,0.061035156,0.18310547,0.0,0.0,0.0,106.64978,70.29602,139.44397
1768707361065,-0.95214844,0.31201172,-0.08984375,-0.18310547,0.061035156,0.18310547,0.0,0.0,0.0,106.638794,70.30151,139.38354
1768707361153,-0.9472656,0.31152344,-0.08642578,0.12207031,0.0,0.12207031,0.0,0.0,0.0,106.638794,70.30151,139.38354
1768707361165,-0.9472656,0.31152344,-0.08642578,0.12207031,0.0,0.12207031,0.0,0.0,0.0,106.60034,70.3125,139.26819
1768707361253,-0.94970703,0.31054688,-0.092285156,-0.4272461,0.24414062,0.24414062,0.0,0.0,0.0,106.60034,70.3125,139.26819
1768707361265,-0.94970703,0.31054688,-0.092285156,-0.4272461,0.24414062,0.24414062,0.0,0.0,0.0,106.572876,70.31799,139.18579
1768707361353,-0.9511719,0.31201172,-0.08886719,-0.18310547,0.0,0.30517578,0.0,0.0,0.0,106.572876,70.31799,139.18579
1768707361364,-0.9511719,0.31201172,-0.08886719,-0.18310547,0.0,0.30517578,0.0,0.0,0.0,106.54541,70.32349,139.12537
1768707361452,-0.94921875,0.31103516,-0.088378906,-0.18310547,0.061035156,0.24414062,0.0,0.0,0.0,106.54541,70.32349,139.12537
1768707361464,-0.94921875,0.31103516,-0.088378906,-0.18310547,0.061035156,0.24414062,0.0,0.0,0.0,106.47949,70.33447,139.00452
1768707361552,-0.94970703,0.31103516,-0.091796875,-0.48828125,0.12207031,0.4272461,0.0,0.0,0.0,106.47949,70.33447,139.00452
1768707361564,-0.94970703,0.31103516,-0.091796875,-0.48828125,0.12207031,0.4272461,0.0,0.0,0.0,106.46301,70.339966,138.92212
1768707361652,-0.94970703,0.31054688,-0.08691406,-0.30517578,0.0,0.18310547,0.0,0.0,0.0,106.46301,70.339966,138.92212
1768707361664,-0.94970703,0.31054688,-0.08691406,-0.30517578,0.0,0.18310547,0.0,0.0,0.0,106.46301,70.33447,138.88916
1768707361752,-0.94970703,0.3095703,-0.087890625,-0.4272461,0.24414062,0.30517578,0.0,0.0,0.0,106.46301,70.33447,138.88916
1768707361763,-0.94970703,0.3095703,-0.087890625,-0.4272461,0.24414062,0.30517578,0.0,0.0,0.0,106.44653,70.34546,138.83423
1768707361851,-0.95166016,0.3125,-0.08886719,0.061035156,-0.5493164,0.0,0.0,0.0,0.0,106.44653,70.34546,138.83423
1768707361863,-0.95166016,0.3125,-0.08886719,0.061035156,-0.5493164,0.0,0.0,0.0,0.0,106.380615,70.372925,138.7024
1768707361951,-0.9458008,0.31152344,-0.08544922,0.0,-0.7324219,0.24414062,0.0,0.0,0.0,106.380615,70.372925,138.7024
1768707361964,-0.9458008,0.31152344,-0.08544922,0.0,-0.7324219,0.24414062,0.0,0.0,0.0,106.25427,70.38391,138.57056
1768707362051,-0.9506836,0.3100586,-0.08496094,0.12207031,-0.7324219,0.061035156,0.0,0.0,0.0,106.25427,70.38391,138.57056
1768707362063,-0.9506836,0.3100586,-0.08496094,0.12207031,-0.7324219,0.061035156,0.0,0.0,0.0,106.067505,70.41687,138.33984
1768707362151,-0.95214844,0.30908203,-0.0859375,0.0,-0.7324219,0.18310547,0.0,0.0,0.0,106.067505,70.41687,138.33984
1768707362162,-0.95214844,0.30908203,-0.0859375,0.0,-0.7324219,0.18310547,0.0,0.0,0.0,105.88074,70.46631,138.11462
1768707362250,-0.9501953,0.30859375,-0.08642578,0.0,-0.6713867,0.0,0.0,0.0,0.0,105.88074,70.46631,138.11462
1768707362262,-0.9501953,0.30859375,-0.08642578,0.0,-0.6713867,0.0,0.0,0.0,0.0,105.65552,70.50476,137.82349
1768707362350,-0.95166016,0.30908203,-0.08300781,0.24414062,-0.36621094,0.061035156,0.0,0.0,0.0,105.65552,70.50476,137.82349
1768707362362,-0.95166016,0.30908203,-0.08300781,0.24414062,-0.36621094,0.061035156,0.0,0.0,0.0,105.55664,70.548706,137.67517
1768707362450,-0.95166016,0.30859375,-0.08203125,0.36621094,-0.18310547,0.0,0.0,0.0,0.0,105.55664,70.548706,137.67517
1768707362461,-0.95166016,0.30859375,-0.08203125,0.36621094,-0.18310547,0.0,0.0,0.0,0.0,105.545654,70.581665,137.62573
1768707362550,-0.95166016,0.30810547,-0.083984375,-0.4272461,0.0,0.4272461,0.0,0.0,0.0,105.545654,70.581665,137.62573
1768707362561,-0.95166016,0.30810547,-0.083984375,-0.4272461,0.0,0.4272461,0.0,0.0,0.0,105.52368,70.60913,137.59827
1768707362649,-0.95214844,0.30908203,-0.08251953,-0.12207031,-0.4272461,0.24414062,0.0,0.0,0.0,105.52368,70.60913,137.59827
1768707362661,-0.95214844,0.30908203,-0.08251953,-0.12207031,-0.4272461,0.24414062,0.0,0.0,0.0,105.391846,70.62012,137.47742
1768707362749,-0.9526367,0.30664062,-0.083984375,-0.24414062,-0.24414062,0.18310547,0.0,0.0,0.0,105.391846,70.62012,137.47742
1768707362760,-0.9526367,0.30664062,-0.083984375,-0.24414062,-0.24414062,0.18310547,0.0,0.0,0.0,105.31494,70.6366,137.38953
1768707362849,-0.9550781,0.30810547,-0.083496094,-0.4272461,-0.5493164,0.36621094,0.0,0.0,0.0,105.31494,70.6366,137.38953
1768707362860,-0.9550781,0.30810547,-0.083496094,-0.4272461,-0.5493164,0.36621094,0.0,0.0,0.0,105.28198,70.65857,137.32361
1768707362949,-0.9506836,0.30664062,-0.079589844,-0.12207031,-0.12207031,0.18310547,0.0,0.0,0.0,105.28198,70.65857,137.32361
1768707362960,-0.9506836,0.30664062,-0.079589844,-0.12207031,-0.12207031,0.18310547,0.0,0.0,0.0,105.15015,70.65857,137.20825
1768707363048,-0.9536133,0.3076172,-0.079589844,-0.36621094,0.12207031,0.30517578,0.0,0.0,0.0,105.15015,70.65857,137.20825
1768707363060,-0.9536133,0.3076172,-0.079589844,-0.36621094,0.12207031,0.30517578,0.0,0.0,0.0,105.1062,70.67505,137.18628
1768707363148,-0.95214844,0.30810547,-0.080566406,-0.24414062,0.0,0.30517578,0.0,0.0,0.0,105.1062,70.67505,137.18628
1768707363159,-0.95214844,0.30810547,-0.080566406,-0.24414062,0.0,0.30517578,0.0,0.0,0.0,105.10071,70.669556,137.20276
1768707363248,-0.9511719,0.30810547,-0.07910156,-0.48828125,0.4272461,0.30517578,0.0,0.0,0.0,105.10071,70.669556,137.20276
1768707363259,-0.9511719,0.30810547,-0.07910156,-0.48828125,0.4272461,0.30517578,0.0,0.0,0.0,105.11719,70.66406,137.2467
1768707363347,-0.9506836,0.30810547,-0.080566406,-0.18310547,0.24414062,0.36621094,0.0,0.0,0.0,105.11719,70.66406,137.2467
1768707363360,-0.9506836,0.30810547,-0.080566406,-0.18310547,0.24414062,0.36621094,0.0,0.0,0.0,105.128174,70.653076,137.31812
1768707363447,-0.94970703,0.30908203,-0.07714844,-0.061035156,0.30517578,0.4272461,0.0,0.0,0.0,105.128174,70.653076,137.31812
1768707363459,-0.94970703,0.30908203,-0.07714844,-0.061035156,0.30517578,0.4272461,0.0,0.0,0.0,105.15564,70.64209,137.39502
1768707363547,-0.9506836,0.30908203,-0.079589844,-0.5493164,0.12207031,0.4272461,0.0,0.0,0.0,105.15564,70.64209,137.39502
1768707363558,-0.9506836,0.30908203,-0.079589844,-0.5493164,0.12207031,0.4272461,0.0,0.0,0.0,105.14465,70.6311,137.40051
1768707363647,-0.95166016,0.30859375,-0.08105469,-0.36621094,0.0,0.30517578,0.0,0.0,0.0,105.14465,70.6311,137.40051
1768707363658,-0.95166016,0.30859375,-0.08105469,-0.36621094,0.0,0.30517578,0.0,0.0,0.0,105.1062,70.6311,137.39502
1768707363746,-0.95214844,0.3095703,-0.083496094,-0.061035156,-0.24414062,0.061035156,0.0,0.0,0.0,105.1062,70.6311,137.39502
1768707363758,-0.95214844,0.3095703,-0.083496094,-0.061035156,-0.24414062,0.061035156,0.0,0.0,0.0,105.10071,70.62561,137.4115
1768707363846,-0.9506836,0.30908203,-0.080078125,0.061035156,-0.36621094,0.0,0.0,0.0,0.0,105.10071,70.62561,137.4115
1768707363858,-0.9506836,0.30908203,-0.080078125,0.061035156,-0.36621094,0.0,0.0,0.0,0.0,105.13916,70.6366,137.46094
1768707363946,-0.9477539,0.3076172,-0.078125,0.0,0.24414062,0.18310547,0.0,0.0,0.0,105.13916,70.6366,137.46094
1768707363958,-0.9477539,0.3076172,-0.078125,0.0,0.24414062,0.18310547,0.0,0.0,0.0,105.05127,70.64758,137.406
1768707364046,-0.953125,0.3095703,-0.080078125,-0.061035156,0.0,0.12207031,0.0,0.0,0.0,105.05127,70.64758,137.406
1768707364057,-0.953125,0.3095703,-0.080078125,-0.061035156,0.0,0.12207031,0.0,0.0,0.0,105.062256,70.65857,137.44446
1768707364145,-0.9477539,0.30859375,-0.076660156,-0.18310547,0.24414062,0.36621094,0.0,0.0,0.0,105.062256,70.65857,137.44446
1768707364157,-0.9477539,0.30859375,-0.076660156,-0.18310547,0.24414062,0.36621094,0.0,0.0,0.0,105.05127,70.64758,137.46643
1768707364245,-0.9511719,0.3071289,-0.080566406,-0.48828125,0.5493164,0.4272461,0.0,0.0,0.0,105.05127,70.64758,137.46643
1768707364257,-0.9511719,0.3071289,-0.080566406,-0.48828125,0.5493164,0.4272461,0.0,0.0,0.0,105.0293,70.6366,137.47192
1768707364345,-0.9536133,0.30908203,-0.07910156,-0.5493164,0.061035156,0.30517578,0.0,0.0,0.0,105.0293,70.6366,137.47192
1768707364356,-0.9536133,0.30908203,-0.07910156,-0.5493164,0.061035156,0.30517578,0.0,0.0,0.0,105.05127,70.62561,137.54883
1768707364445,-0.94970703,0.3095703,-0.079589844,-0.30517578,0.36621094,0.48828125,0.0,0.0,0.0,105.05127,70.62561,137.54883
1768707364456,-0.94970703,0.3095703,-0.079589844,-0.30517578,0.36621094,0.48828125,0.0,0.0,0.0,105.04028,70.62012,137.5708
1768707364544,-0.9506836,0.3100586,-0.080566406,-0.7324219,0.18310547,0.4272461,0.0,0.0,0.0,105.04028,70.62012,137.5708
1768707364557,-0.9506836,0.3100586,-0.080566406,-0.7324219,0.18310547,0.4272461,0.0,0.0,0.0,104.95239,70.60364,137.52686
1768707364645,-0.95166016,0.30859375,-0.07763672,-0.5493164,0.0,0.24414062,0.0,0.0,0.0,104.95239,70.60364,137.52686
1768707364656,-0.95166016,0.30859375,-0.07763672,-0.5493164,0.0,0.24414062,0.0,0.0,0.0,104.94141,70.60913,137.54883
1768707364744,-0.9526367,0.30810547,-0.079589844,-0.48828125,1.0986328,0.4272461,0.0,0.0,0.0,104.94141,70.60913,137.54883
1768707364755,-0.9526367,0.30810547,-0.079589844,-0.48828125,1.0986328,0.4272461,0.0,0.0,0.0,104.96338,70.598145,137.62573
1768707364843,-0.9536133,0.3046875,-0.08154297,0.30517578,2.380371,0.12207031,0.0,0.0,0.0,104.96338,70.598145,137.62573
1768707364855,-0.9536133,0.3046875,-0.08154297,0.30517578,2.380371,0.12207031,0.0,0.0,0.0,105.31494,70.58716,137.98279
1768707364943,-0.9536133,0.30810547,-0.087890625,-1.4648438,2.6855469,1.2207031,0.0,0.0,0.0,105.31494,70.58716,137.98279
1768707364955,-0.9536133,0.30810547,-0.087890625,-1.4648438,2.6855469,1.2207031,0.0,0.0,0.0,105.8313,70.510254,138.5376
1768707365043,-0.94873047,0.3100586,-0.092285156,-1.5258789,2.380371,0.24414062,0.0,0.0,0.0,105.8313,70.510254,138.5376
1768707365054,-0.94873047,0.3100586,-0.092285156,-1.5258789,2.380371,0.24414062,0.0,0.0,0.0,106.534424,70.45532,139.35059
1768707365143,-0.94433594,0.30859375,-0.087890625,-1.3427734,1.8920898,0.5493164,0.0,0.0,0.0,106.534424,70.45532,139.35059
1768707365154,-0.94433594,0.30859375,-0.087890625,-1.3427734,1.8920898,0.5493164,0.0,0.0,0.0,106.902466,70.40039,139.79004
1768707365242,-0.9555664,0.31298828,-0.08984375,-1.7089844,2.0751953,0.8544922,0.0,0.0,0.0,106.902466,70.40039,139.79004
1768707365254,-0.9555664,0.31298828,-0.08984375,-1.7089844,2.0751953,0.8544922,0.0,0.0,0.0,107.08923,70.30701,140.04822
1768707365342,-0.9394531,0.31103516,-0.09375,-1.6479492,1.4648438,0.7324219,0.0,0.0,0.0,107.08923,70.30701,140.04822
1768707365354,-0.9394531,0.31103516,-0.09375,-1.6479492,1.4648438,0.7324219,0.0,0.0,0.0,107.38037,70.235596,140.42175
1768707365442,-0.94628906,0.31201172,-0.08984375,-0.79345703,-0.36621094,0.6713867,0.0,0.0,0.0,107.38037,70.235596,140.42175
1768707365453,-0.94628906,0.31201172,-0.08984375,-0.79345703,-0.36621094,0.6713867,0.0,0.0,0.0,107.22107,70.16968,140.3009
1768707365542,-0.9477539,0.3100586,-0.09033203,-0.4272461,0.061035156,0.12207031,0.0,0.0,0.0,107.22107,70.16968,140.3009
1768707365553,-0.9477539,0.3100586,-0.09033203,-0.4272461,0.061035156,0.12207031,0.0,0.0,0.0,107.10571,70.20264,140.13611
1768707365641,-0.9477539,0.31640625,-0.09326172,0.24414062,-0.061035156,0.61035156,0.0,0.0,0.0,107.10571,70.20264,140.13611
1768707365653,-0.9477539,0.31640625,-0.09326172,0.24414062,-0.061035156,0.61035156,0.0,0.0,0.0,107.07825,70.20264,140.00977
1768707365741,-0.95166016,0.3095703,-0.09765625,0.24414062,0.061035156,0.5493164,0.0,0.0,0.0,107.07825,70.20264,140.00977
1768707365753,-0.95166016,0.3095703,-0.09765625,0.24414062,0.061035156,0.5493164,0.0,0.0,0.0,106.951904,70.17517,139.76807
1768707365841,-0.9511719,0.31445312,-0.09423828,-0.48828125,-0.061035156,0.18310547,0.0,0.0,0.0,106.951904,70.17517,139.76807
1768707365852,-0.9511719,0.31445312,-0.09423828,-0.48828125,-0.061035156,0.18310547,0.0,0.0,0.0,106.94092,70.19714,139.66919
1768707365941,-0.94433594,0.3125,-0.0859375,0.061035156,0.0,0.12207031,0.0,0.0,0.0,106.94092,70.19714,139.66919
1768707365952,-0.94433594,0.3125,-0.0859375,0.061035156,0.0,0.12207031,0.0,0.0,0.0,106.94092,70.20264,139.61975
1768707366040,-0.94921875,0.31445312,-0.091796875,0.0,0.5493164,0.4272461,0.0,0.0,0.0,106.94092,70.20264,139.61975
1768707366052,-0.94921875,0.31445312,-0.091796875,0.0,0.5493164,0.4272461,0.0,0.0,0.0,106.97388,70.19165,139.58679
1768707366140,-0.9511719,0.31396484,-0.10058594,-0.12207031,0.18310547,0.24414062,0.0,0.0,0.0,106.97388,70.19165,139.58679
1768707366152,-0.9511719,0.31396484,-0.10058594,-0.12207031,0.18310547,0.24414062,0.0,0.0,0.0,107.00134,70.18616,139.52087
1768707366240,-0.9458008,0.31103516,-0.091796875,-0.6713867,0.24414062,0.36621094,0.0,0.0,0.0,107.00134,70.18616,139.52087
1768707366251,-0.9458008,0.31103516,-0.091796875,-0.6713867,0.24414062,0.36621094,0.0,0.0,0.0,107.01233,70.180664,139.50989
1768707366340,-0.95166016,0.31054688,-0.091796875,-0.18310547,-0.79345703,0.0,0.0,0.0,0.0,107.01233,70.180664,139.50989
1768707366351,-0.95166016,0.31054688,-0.091796875,-0.18310547,-0.79345703,0.0,0.0,0.0,0.0,106.82007,70.21912,139.26819
1768707366439,-0.9477539,0.31152344,-0.087890625,-0.30517578,0.30517578,0.4272461,0.0,0.0,0.0,106.82007,70.21912,139.26819
1768707366451,-0.9477539,0.31152344,-0.087890625,-0.30517578,0.30517578,0.4272461,0.0,0.0,0.0,106.80359,70.235596,139.20776
1768707366539,-0.94677734,0.3125,-0.09375,-0.48828125,0.061035156,0.61035156,0.0,0.0,0.0,106.80359,70.235596,139.20776
1768707366551,-0.94677734,0.3125,-0.09375,-0.48828125,0.061035156,0.61035156,0.0,0.0,0.0,106.73767,70.22461,139.11987
1768707366639,-0.94921875,0.3154297,-0.087890625,-0.24414062,0.24414062,0.4272461,0.0,0.0,0.0,106.73767,70.22461,139.11987
1768707366650,-0.94921875,0.3154297,-0.087890625,-0.24414062,0.24414062,0.4272461,0.0,0.0,0.0,106.6333,70.21362,138.97705
1768707366738,-0.9428711,0.3125,-0.08642578,0.0,-0.48828125,0.0,0.0,0.0,0.0,106.6333,70.21362,138.97705
1768707366750,-0.9428711,0.3125,-0.08642578,0.0,-0.48828125,0.0,0.0,0.0,0.0,106.58386,70.22461,138.87817
1768707366838,-0.9482422,0.31201172,-0.084472656,-0.18310547,-1.2817383,0.24414062,0.0,0.0,0.0,106.58386,70.22461,138.87817
1768707366850,-0.9482422,0.31201172,-0.084472656,-0.18310547,-1.2817383,0.24414062,0.0,0.0,0.0,106.2323,70.27405,138.48267
1768707366938,-0.9526367,0.31201172,-0.087402344,0.0,-0.61035156,0.061035156,0.0,0.0,0.0,106.2323,70.27405,138.48267
1768707366949,-0.9526367,0.31201172,-0.087402344,0.0,-0.61035156,0.061035156,0.0,0.0,0.0,105.9137,70.33447,138.07068
1768707367038,-0.94677734,0.31103516,-0.08105469,0.48828125,-0.48828125,0.0,0.0,0.0,0.0,105.9137,70.33447,138.07068
1768707367049,-0.94677734,0.31103516,-0.08105469,0.48828125,-0.48828125,0.0,0.0,0.0,0.0,105.75989,70.38391,137.84546
1768707367138,-0.95166016,0.31201172,-0.083984375,0.061035156,-0.48828125,0.18310547,0.0,0.0,0.0,105.75989,70.38391,137.84546
1768707367150,-0.95166016,0.31201172,-0.083984375,0.061035156,-0.48828125,0.18310547,0.0,0.0,0.0,105.60608,70.42236,137.63672
1768707367237,-0.9501953,0.3095703,-0.080566406,0.18310547,-0.12207031,0.12207031,0.0,0.0,0.0,105.60608,70.42236,137.63672
1768707367249,-0.9501953,0.3095703,-0.080566406,0.18310547,-0.12207031,0.12207031,0.0,0.0,0.0,105.55664,70.46631,137.52136
1768707367337,-0.9501953,0.3100586,-0.08105469,0.0,-0.4272461,0.24414062,0.0,0.0,0.0,105.55664,70.46631,137.52136
1768707367348,-0.9501953,0.3100586,-0.08105469,0.0,-0.4272461,0.24414062,0.0,0.0,0.0,105.424805,70.49927,137.35107
1768707367437,-0.95166016,0.31054688,-0.08251953,0.0,-0.7324219,0.12207031,0.0,0.0,0.0,105.424805,70.49927,137.35107
1768707367448,-0.95166016,0.31054688,-0.08251953,0.0,-0.7324219,0.12207031,0.0,0.0,0.0,105.2655,70.53223,137.15881
1768707367536,-0.95166016,0.3100586,-0.08105469,0.12207031,-0.36621094,0.12207031,0.0,0.0,0.0,105.2655,70.53223,137.15881
1768707367548,-0.95166016,0.3100586,-0.08105469,0.12207031,-0.36621094,0.12207031,0.0,0.0,0.0,105.15564,70.5542,137.02698
1768707367636,-0.95166016,0.3100586,-0.079589844,0.4272461,-0.48828125,0.0,0.0,0.0,0.0,105.15564,70.5542,137.02698
1768707367648,-0.95166016,0.3100586,-0.079589844,0.4272461,-0.48828125,0.0,0.0,0.0,0.0,105.1062,70.57617,136.95007
1768707367736,-0.9511719,0.3100586,-0.07910156,0.7324219,-0.30517578,-0.12207031,0.0,0.0,0.0,105.1062,70.57617,136.95007
1768707367747,-0.9511719,0.3100586,-0.07910156,0.7324219,-0.30517578,-0.12207031,0.0,0.0,0.0,105.15564,70.614624,136.95557
1768707367836,-0.94873047,0.3076172,-0.07910156,0.061035156,-0.30517578,0.24414062,0.0,0.0,0.0,105.15564,70.614624,136.95557
1768707367847,-0.94873047,0.3076172,-0.07910156,0.061035156,-0.30517578,0.24414062,0.0,0.0,0.0,105.00183,70.6366,136.78528
1768707367935,-0.9536133,0.3076172,-0.079589844,-0.061035156,0.18310547,0.24414062,0.0,0.0,0.0,105.00183,70.6366,136.78528
1768707367947,-0.9536133,0.3076172,-0.079589844,-0.061035156,0.18310547,0.24414062,0.0,0.0,0.0,104.9469,70.65857,136.71936
1768707368035,-0.9511719,0.30908203,-0.076660156,-0.30517578,0.12207031,0.5493164,0.0,0.0,0.0,104.9469,70.65857,136.71936
1768707368046,-0.9511719,0.30908203,-0.076660156,-0.30517578,0.12207031,0.5493164,0.0,0.0,0.0,104.91394,70.653076,136.71387
1768707368135,-0.95166016,0.30810547,-0.080078125,-0.36621094,0.4272461,0.48828125,0.0,0.0,0.0,104.91394,70.653076,136.71387
1768707368146,-0.95166016,0.30810547,-0.080078125,-0.36621094,0.4272461,0.48828125,0.0,0.0,0.0,104.8645,70.6311,136.69739
1768707368235,-0.95214844,0.3100586,-0.07861328,-0.6713867,0.36621094,0.7324219,0.0,0.0,0.0,104.8645,70.6311,136.69739
1768707368246,-0.95214844,0.3100586,-0.07861328,-0.6713867,0.36621094,0.7324219,0.0,0.0,0.0,104.90845,70.598145,136.77429
1768707368334,-0.95214844,0.31054688,-0.076660156,-0.36621094,0.36621094,0.48828125,0.0,0.0,0.0,104.90845,70.598145,136.77429
1768707368346,-0.95214844,0.31054688,-0.076660156,-0.36621094,0.36621094,0.48828125,0.0,0.0,0.0,104.869995,70.57068,136.79077
1768707368434,-0.9511719,0.31054688,-0.07910156,-0.4272461,0.36621094,0.48828125,0.0,0.0,0.0,104.869995,70.57068,136.79077
1768707368445,-0.9511719,0.31054688,-0.07910156,-0.4272461,0.36621094,0.48828125,0.0,0.0,0.0,104.85901,70.565186,136.82922
1768707368534,-0.9526367,0.3100586,-0.080078125,-0.36621094,0.18310547,0.18310547,0.0,0.0,0.0,104.85901,70.565186,136.82922
1768707368545,-0.9526367,0.3100586,-0.080078125,-0.36621094,0.18310547,0.18310547,0.0,0.0,0.0,104.837036,70.565186,136.83472
1768707368633,-0.95166016,0.3100586,-0.07910156,0.0,-0.24414062,0.061035156,0.0,0.0,0.0,104.837036,70.565186,136.83472
1768707368645,-0.95166016,0.3100586,-0.07910156,0.0,-0.24414062,0.061035156,0.0,0.0,0.0,104.837036,70.57068,136.86768
1768707368733,-0.94873047,0.3100586,-0.07421875,0.24414062,-0.12207031,0.0,0.0,0.0,0.0,104.837036,70.57068,136.86768
1768707368745,-0.94873047,0.3100586,-0.07421875,0.24414062,-0.12207031,0.0,0.0,0.0,0.0,104.85901,70.598145,136.90613
1768707368833,-0.9472656,0.3095703,-0.07421875,0.0,0.0,0.24414062,0.0,0.0,0.0,104.85901,70.598145,136.90613
1768707368844,-0.9472656,0.3095703,-0.07421875,0.0,0.0,0.24414062,0.0,0.0,0.0,104.75464,70.60913,136.81824
1768707368933,-0.95214844,0.30908203,-0.078125,-0.18310547,0.30517578,0.18310547,0.0,0.0,0.0,104.75464,70.60913,136.81824
1768707368944,-0.95214844,0.30908203,-0.078125,-0.18310547,0.30517578,0.18310547,0.0,0.0,0.0,104.76013,70.62012,136.83472
1768707369032,-0.94873047,0.30908203,-0.078125,-0.30517578,0.18310547,0.30517578,0.0,0.0,0.0,104.76013,70.62012,136.83472
1768707369044,-0.94873047,0.30908203,-0.078125,-0.30517578,0.18310547,0.30517578,0.0,0.0,0.0,104.76013,70.62012,136.88965
1768707369132,-0.9511719,0.30810547,-0.078125,-0.30517578,0.30517578,0.30517578,0.0,0.0,0.0,104.76013,70.62012,136.88965
1768707369144,-0.9511719,0.30810547,-0.078125,-0.30517578,0.30517578,0.30517578,0.0,0.0,0.0,104.71619,70.614624,136.9226
1768707369232,-0.953125,0.3095703,-0.076171875,-0.4272461,0.36621094,0.4272461,0.0,0.0,0.0,104.71619,70.614624,136.9226
1768707369243,-0.953125,0.3095703,-0.076171875,-0.4272461,0.36621094,0.4272461,0.0,0.0,0.0,104.694214,70.614624,136.94458
1768707369332,-0.9536133,0.3095703,-0.078125,-0.61035156,0.91552734,0.30517578,0.0,0.0,0.0,104.694214,70.614624,136.94458
1768707369343,-0.9536133,0.3095703,-0.078125,-0.61035156,0.91552734,0.30517578,0.0,0.0,0.0,104.74365,70.60913,137.04346
1768707369431,-0.953125,0.30908203,-0.080566406,-0.36621094,1.159668,0.48828125,0.0,0.0,0.0,104.74365,70.60913,137.04346
1768707369443,-0.953125,0.30908203,-0.080566406,-0.36621094,1.159668,0.48828125,0.0,0.0,0.0,104.974365,70.55969,137.34558
1768707369531,-0.94970703,0.31201172,-0.08154297,-0.5493164,1.6479492,0.4272461,0.0,0.0,0.0,104.974365,70.55969,137.34558
1768707369542,-0.94970703,0.31201172,-0.08154297,-0.5493164,1.6479492,0.4272461,0.0,0.0,0.0,105.30945,70.510254,137.77405
1768707369631,-0.9482422,0.31103516,-0.080566406,-0.7324219,1.2207031,0.61035156,0.0,0.0,0.0,105.30945,70.510254,137.77405
1768707369643,-0.9482422,0.31103516,-0.080566406,-0.7324219,1.2207031,0.61035156,0.0,0.0,0.0,105.53467,70.44983,138.08167
1768707369730,-0.9482422,0.31396484,-0.08105469,-0.48828125,0.79345703,0.36621094,0.0,0.0,0.0,105.53467,70.44983,138.08167
1768707369742,-0.9482422,0.31396484,-0.08105469,-0.48828125,0.79345703,0.36621094,0.0,0.0,0.0,105.69397,70.42786,138.30139
1768707369830,-0.94677734,0.31103516,-0.08105469,-0.61035156,1.159668,0.5493164,0.0,0.0,0.0,105.69397,70.42786,138.30139
1768707369842,-0.94677734,0.31103516,-0.08105469,-0.61035156,1.159668,0.5493164,0.0,0.0,0.0,105.74341,70.38391,138.38379
1768707369930,-0.95166016,0.3125,-0.083984375,-0.6713867,0.8544922,0.4272461,0.0,0.0,0.0,105.74341,70.38391,138.38379
1768707369941,-0.95166016,0.3125,-0.083984375,-0.6713867,0.8544922,0.4272461,0.0,0.0,0.0,105.86975,70.356445,138.5376
1768707370030,-0.9458008,0.31201172,-0.084472656,-0.30517578,0.61035156,0.12207031,0.0,0.0,0.0,105.86975,70.356445,138.5376
1768707370041,-0.9458008,0.31201172,-0.084472656,-0.30517578,0.61035156,0.12207031,0.0,0.0,0.0,105.95764,70.32898,138.65845
1768707370129,-0.9477539,0.31103516,-0.08691406,-0.48828125,0.24414062,0.24414062,0.0,0.0,0.0,105.95764,70.32898,138.65845
1768707370141,-0.9477539,0.31103516,-0.08691406,-0.48828125,0.24414062,0.24414062,0.0,0.0,0.0,105.94116,70.33447,138.64197
1768707370229,-0.94970703,0.3125,-0.08496094,-0.4272461,-0.18310547,0.4272461,0.0,0.0,0.0,105.94116,70.33447,138.64197
1768707370241,-0.94970703,0.3125,-0.08496094,-0.4272461,-0.18310547,0.4272461,0.0,0.0,0.0,105.83679,70.339966,138.51562
1768707370329,-0.9501953,0.31152344,-0.083984375,-0.24414062,-0.36621094,0.30517578,0.0,0.0,0.0,105.83679,70.339966,138.51562
1768707370340,-0.9501953,0.31152344,-0.083984375,-0.24414062,-0.36621094,0.30517578,0.0,0.0,0.0,105.64453,70.36194,138.27393
1768707370429,-0.9501953,0.31201172,-0.08300781,-0.12207031,0.18310547,0.18310547,0.0,0.0,0.0,105.64453,70.36194,138.27393
1768707370440,-0.9501953,0.31201172,-0.08300781,-0.12207031,0.18310547,0.18310547,0.0,0.0,0.0,105.58411,70.37842,138.16956
1768707370528,-0.9501953,0.31201172,-0.083984375,-0.5493164,0.061035156,0.36621094,0.0,0.0,0.0,105.58411,70.37842,138.16956
1768707370540,-0.9501953,0.31201172,-0.083984375,-0.5493164,0.061035156,0.36621094,0.0,0.0,0.0,105.5896,70.37842,138.18054
1768707370628,-0.9506836,0.3100586,-0.088378906,-0.36621094,-0.18310547,0.30517578,0.0,0.0,0.0,105.5896,70.37842,138.18054
1768707370640,-0.9506836,0.3100586,-0.088378906,-0.36621094,-0.18310547,0.30517578,0.0,0.0,0.0,105.529175,70.37842,138.11462
1768707370728,-0.9506836,0.3125,-0.08251953,0.061035156,-0.30517578,0.061035156,0.0,0.0,0.0,105.529175,70.37842,138.11462
1768707370739,-0.9506836,0.3125,-0.08251953,0.061035156,-0.30517578,0.061035156,0.0,0.0,0.0,105.51819,70.40588,138.0597
1768707370828,-0.94628906,0.31152344,-0.08251953,0.0,0.061035156,0.24414062,0.0,0.0,0.0,105.51819,70.40588,138.0597
1768707370839,-0.94628906,0.31152344,-0.08251953,0.0,0.061035156,0.24414062,0.0,0.0,0.0,105.4303,70.40588,137.93884
1768707370927,-0.95166016,0.31201172,-0.083984375,-0.30517578,0.12207031,0.30517578,0.0,0.0,0.0,105.4303,70.40588,137.93884
1768707370939,-0.95166016,0.31201172,-0.083984375,-0.30517578,0.12207031,0.30517578,0.0,0.0,0.0,105.38635,70.41687,137.83997
1768707371027,-0.9526367,0.31152344,-0.084472656,-0.12207031,0.12207031,0.18310547,0.0,0.0,0.0,105.38635,70.41687,137.83997
1768707371039,-0.9526367,0.31152344,-0.084472656,-0.12207031,0.12207031,0.18310547,0.0,0.0,0.0,105.35339,70.42786,137.77405
1768707371127,-0.94921875,0.31103516,-0.08251953,-0.24414062,0.12207031,0.18310547,0.0,0.0,0.0,105.35339,70.42786,137.77405
1768707371138,-0.94921875,0.31103516,-0.08251953,-0.24414062,0.12207031,0.18310547,0.0,0.0,0.0,105.34241,70.43335,137.7356
1768707371226,-0.94921875,0.31054688,-0.08105469,0.0,-0.12207031,0.24414062,0.0,0.0,0.0,105.34241,70.43335,137.7356
1768707371238,-0.94921875,0.31054688,-0.08105469,0.0,-0.12207031,0.24414062,0.0,0.0,0.0,105.287476,70.444336,137.66418
1768707371326,-0.9511719,0.31152344,-0.080566406,-0.12207031,-0.24414062,0.18310547,0.0,0.0,0.0,105.287476,70.444336,137.66418
1768707371338,-0.9511719,0.31152344,-0.080566406,-0.12207031,-0.24414062,0.18310547,0.0,0.0,0.0,105.21057,70.460815,137.5763
1768707371426,-0.94970703,0.31152344,-0.080078125,-0.12207031,-0.36621094,0.24414062,0.0,0.0,0.0,105.21057,70.460815,137.5763
1768707371437,-0.94970703,0.31152344,-0.080078125,-0.12207031,-0.36621094,0.24414062,0.0,0.0,0.0,105.111694,70.48279,137.45544
1768707371526,-0.9536133,0.31103516,-0.08154297,0.0,-0.061035156,0.061035156,0.0,0.0,0.0,105.111694,70.48279,137.45544
1768707371537,-0.9536133,0.31103516,-0.08154297,0.0,-0.061035156,0.061035156,0.0,0.0,0.0,105.04028,70.50476,137.36206
1768707371625,-0.9511719,0.31152344,-0.08203125,0.061035156,-0.30517578,0.12207031,0.0,0.0,0.0,105.04028,70.50476,137.36206
1768707371638,-0.9511719,0.31152344,-0.08203125,0.061035156,-0.30517578,0.12207031,0.0,0.0,0.0,105.01831,70.51575,137.3291
1768707371725,-0.9506836,0.3100586,-0.080566406,0.30517578,-0.5493164,-0.061035156,0.0,0.0,0.0,105.01831,70.51575,137.3291
1768707371737,-0.9506836,0.3100586,-0.080566406,0.30517578,-0.5493164,-0.061035156,0.0,0.0,0.0,104.98535,70.548706,137.26868
1768707371825,-0.94921875,0.30908203,-0.07714844,0.0,-0.18310547,0.18310547,0.0,0.0,0.0,104.98535,70.548706,137.26868
1768707371837,-0.94921875,0.30908203,-0.07714844,0.0,-0.18310547,0.18310547,0.0,0.0,0.0,104.80957,70.57617,137.07642
1768707371925,-0.953125,0.30810547,-0.07910156,-0.18310547,0.061035156,0.18310547,0.0,0.0,0.0,104.80957,70.57617,137.07642
1768707371937,-0.953125,0.30810547,-0.07910156,-0.18310547,0.061035156,0.18310547,0.0,0.0,0.0,104.749146,70.598145,136.99951
1768707372024,-0.94873047,0.3095703,-0.078125,-0.12207031,0.18310547,0.18310547,0.0,0.0,0.0,104.749146,70.598145,136.99951
1768707372036,-0.94873047,0.3095703,-0.078125,-0.12207031,0.18310547,0.18310547,0.0,0.0,0.0,104.71619,70.60913,136.97205
1768707372124,-0.9506836,0.30859375,-0.07861328,-0.30517578,0.24414062,0.30517578,0.0,0.0,0.0,104.71619,70.60913,136.97205
1768707372136,-0.9506836,0.30859375,-0.07861328,-0.30517578,0.24414062,0.30517578,0.0,0.0,0.0,104.71069,70.60913,136.97754
1768707372224,-0.9501953,0.3095703,-0.076171875,-0.30517578,0.12207031,0.36621094,0.0,0.0,0.0,104.71069,70.60913,136.97754
1768707372236,-0.9501953,0.3095703,-0.076171875,-0.30517578,0.12207031,0.36621094,0.0,0.0,0.0,104.694214,70.60913,136.97205
1768707372324,-0.9501953,0.3095703,-0.075683594,-0.24414062,0.24414062,0.30517578,0.0,0.0,0.0,104.694214,70.60913,136.97205
1768707372335,-0.9501953,0.3095703,-0.075683594,-0.24414062,0.24414062,0.30517578,0.0,0.0,0.0,104.66675,70.60364,136.95007
1768707372423,-0.95214844,0.3100586,-0.07714844,-0.36621094,0.18310547,0.4272461,0.0,0.0,0.0,104.66675,70.60364,136.95007
1768707372435,-0.95214844,0.3100586,-0.07714844,-0.36621094,0.18310547,0.4272461,0.0,0.0,0.0,104.644775,70.60364,136.95007
1768707372523,-0.9506836,0.3095703,-0.07373047,-0.30517578,0.36621094,0.30517578,0.0,0.0,0.0,104.644775,70.60364,136.95007
1768707372534,-0.9506836,0.3095703,-0.07373047,-0.30517578,0.36621094,0.30517578,0.0,0.0,0.0,104.61182,70.598145,136.9281
1768707372623,-0.9501953,0.3095703,-0.076171875,-0.61035156,0.61035156,0.5493164,0.0,0.0,0.0,104.61182,70.598145,136.9281
1768707372634,-0.9501953,0.3095703,-0.076171875,-0.61035156,0.61035156,0.5493164,0.0,0.0,0.0,104.58984,70.59265,136.91711
1768707372722,-0.9506836,0.3095703,-0.07324219,0.12207031,0.7324219,0.18310547,0.0,0.0,0.0,104.58984,70.59265,136.91711
1768707372734,-0.9506836,0.3095703,-0.07324219,0.12207031,0.7324219,0.18310547,0.0,0.0,0.0,104.61731,70.59265,136.93909
1768707372822,-0.94873047,0.31054688,-0.075683594,-0.5493164,0.0,0.6713867,0.0,0.0,0.0,104.61731,70.59265,136.93909
1768707372834,-0.94873047,0.31054688,-0.075683594,-0.5493164,0.0,0.6713867,0.0,0.0,0.0,104.58435,70.59265,136.88965
1768707372922,-0.9526367,0.3100586,-0.07519531,-0.12207031,0.18310547,0.4272461,0.0,0.0,0.0,104.58435,70.59265,136.88965
1768707372934,-0.9526367,0.3100586,-0.07519531,-0.12207031,0.18310547,0.4272461,0.0,0.0,0.0,104.540405,70.58716,136.8457
1768707373022,-0.9477539,0.31054688,-0.07421875,-0.36621094,0.36621094,0.61035156,0.0,0.0,0.0,104.540405,70.58716,136.8457
1768707373033,-0.9477539,0.31054688,-0.07421875,-0.36621094,0.36621094,0.61035156,0.0,0.0,0.0,104.540405,70.57068,136.86218
1768707373122,-0.95214844,0.31103516,-0.078125,-0.4272461,0.18310547,0.4272461,0.0,0.0,0.0,104.540405,70.57068,136.86218
1768707373133,-0.95214844,0.31103516,-0.078125,-0.4272461,0.18310547,0.4272461,0.0,0.0,0.0,104.51294,70.55969,136.8457
1768707373221,-0.94873047,0.31103516,-0.076660156,-0.48828125,0.36621094,0.48828125,0.0,0.0,0.0,104.51294,70.55969,136.8457
1768707373233,-0.94873047,0.31103516,-0.076660156,-0.48828125,0.36621094,0.48828125,0.0,0.0,0.0,104.540405,70.53772,136.90613
1768707373321,-0.9506836,0.31152344,-0.076171875,-0.4272461,0.12207031,0.30517578,0.0,0.0,0.0,104.540405,70.53772,136.90613
1768707373332,-0.9506836,0.31152344,-0.076171875,-0.4272461,0.12207031,0.30517578,0.0,0.0,0.0,104.53491,70.52673,136.94458
1768707373421,-0.9501953,0.31103516,-0.07714844,-0.30517578,0.061035156,0.30517578,0.0,0.0,0.0,104.53491,70.52673,136.94458
1768707373432,-0.9501953,0.31103516,-0.07714844,-0.30517578,0.061035156,0.30517578,0.0,0.0,0.0,104.51294,70.53223,136.93909
1768707373520,-0.9506836,0.31103516,-0.07763672,-0.30517578,0.24414062,0.18310547,0.0,0.0,0.0,104.51294,70.53223,136.93909
1768707373532,-0.9506836,0.31103516,-0.07763672,-0.30517578,0.24414062,0.18310547,0.0,0.0,0.0,104.51843,70.53772,136.96106
1768707373620,-0.9511719,0.3125,-0.07714844,-0.36621094,0.36621094,0.30517578,0.0,0.0,0.0,104.51843,70.53772,136.96106
1768707373632,-0.9511719,0.3125,-0.07714844,-0.36621094,0.36621094,0.30517578,0.0,0.0,0.0,104.540405,70.53772,137.0105
1768707373720,-0.94873047,0.31054688,-0.07324219,-0.061035156,0.48828125,0.30517578,0.0,0.0,0.0,104.540405,70.53772,137.0105
1768707373731,-0.94873047,0.31054688,-0.07324219,-0.061035156,0.48828125,0.30517578,0.0,0.0,0.0,104.556885,70.52124,137.03247
1768707373820,-0.9482422,0.31201172,-0.075683594,0.18310547,-0.12207031,0.061035156,0.0,0.0,0.0,104.556885,70.52124,137.03247
1768707373831,-0.9482422,0.31201172,-0.075683594,0.18310547,-0.12207031,0.061035156,0.0,0.0,0.0,104.573364,70.54321,137.03247
1768707373919,-0.94677734,0.31152344,-0.07470703,-0.12207031,0.18310547,0.36621094,0.0,0.0,0.0,104.573364,70.54321,137.03247
1768707373931,-0.94677734,0.31152344,-0.07470703,-0.12207031,0.18310547,0.36621094,0.0,0.0,0.0,104.468994,70.548706,136.9281
1768707374019,-0.9526367,0.31103516,-0.07763672,-0.12207031,0.18310547,0.18310547,0.0,0.0,0.0,104.468994,70.548706,136.9281
1768707374031,-0.9526367,0.31103516,-0.07763672,-0.12207031,0.18310547,0.18310547,0.0,0.0,0.0,104.42505,70.5542,136.86218
1768707374119,-0.9477539,0.31103516,-0.076171875,-0.061035156,0.24414062,0.12207031,0.0,0.0,0.0,104.42505,70.5542,136.86218
1768707374130,-0.9477539,0.31103516,-0.076171875,-0.061035156,0.24414062,0.12207031,0.0,0.0,0.0,104.43054,70.565186,136.88416
1768707374219,-0.9501953,0.31054688,-0.07861328,-0.30517578,0.061035156,0.18310547,0.0,0.0,0.0,104.43054,70.565186,136.88416
1768707374231,-0.9501953,0.31054688,-0.07861328,-0.30517578,0.061035156,0.18310547,0.0,0.0,0.0,104.403076,70.57617,136.86218
1768707374318,-0.9526367,0.31054688,-0.07421875,-0.4272461,0.30517578,0.4272461,0.0,0.0,0.0,104.403076,70.57617,136.86218
1768707374330,-0.9526367,0.31054688,-0.07421875,-0.4272461,0.30517578,0.4272461,0.0,0.0,0.0,104.3866,70.57617,136.85669
1768707374418,-0.94970703,0.3100586,-0.07373047,-0.12207031,0.24414062,0.24414062,0.0,0.0,0.0,104.3866,70.57617,136.85669
1768707374430,-0.94970703,0.3100586,-0.07373047,-0.12207031,0.24414062,0.24414062,0.0,0.0,0.0,104.42505,70.57068,136.90613
1768707374518,-0.9536133,0.31152344,-0.07763672,-0.12207031,1.2817383,0.4272461,0.0,0.0,0.0,104.42505,70.57068,136.90613
1768707374529,-0.9536133,0.31152344,-0.07763672,-0.12207031,1.2817383,0.4272461,0.0,0.0,0.0,104.58984,70.548706,137.07642
1768707374617,-0.9506836,0.31152344,-0.078125,-0.4272461,1.7089844,0.5493164,0.0,0.0,0.0,104.58984,70.548706,137.07642
1768707374629,-0.9506836,0.31152344,-0.078125,-0.4272461,1.7089844,0.5493164,0.0,0.0,0.0,104.94141,70.49927,137.47742
1768707374717,-0.9477539,0.31201172,-0.08154297,-0.9765625,1.5869141,0.7324219,0.0,0.0,0.0,104.94141,70.49927,137.47742
1768707374729,-0.9477539,0.31201172,-0.08154297,-0.9765625,1.5869141,0.7324219,0.0,0.0,0.0,105.31494,70.42786,137.88391
1768707374817,-0.9477539,0.3125,-0.08105469,-0.18310547,1.953125,0.4272461,0.0,0.0,0.0,105.31494,70.42786,137.88391
1768707374828,-0.9477539,0.3125,-0.08105469,-0.18310547,1.953125,0.4272461,0.0,0.0,0.0,105.55664,70.372925,138.16406
1768707374917,-0.94921875,0.31201172,-0.08496094,-0.91552734,0.8544922,0.7324219,0.0,0.0,0.0,105.55664,70.372925,138.16406
1768707374928,-0.94921875,0.31201172,-0.08496094,-0.91552734,0.8544922,0.7324219,0.0,0.0,0.0,105.650024,70.339966,138.30688
1768707375016,-0.95166016,0.31396484,-0.08251953,-0.8544922,0.61035156,0.5493164,0.0,0.0,0.0,105.650024,70.339966,138.30688
1768707375028,-0.95166016,0.31396484,-0.08251953,-0.8544922,0.61035156,0.5493164,0.0,0.0,0.0,105.73242,70.30151,138.41125
1768707375116,-0.9458008,0.31396484,-0.08251953,-0.79345703,0.7324219,0.36621094,0.0,0.0,0.0,105.73242,70.30151,138.41125
1768707375128,-0.9458008,0.31396484,-0.08251953,-0.79345703,0.7324219,0.36621094,0.0,0.0,0.0,105.77637,70.27954,138.4552
1768707375216,-0.9501953,0.31445312,-0.08642578,-0.48828125,0.30517578,0.24414062,0.0,0.0,0.0,105.77637,70.27954,138.4552
1768707375227,-0.9501953,0.31445312,-0.08642578,-0.48828125,0.30517578,0.24414062,0.0,0.0,0.0,105.77637,70.27954,138.44421
1768707375316,-0.9482422,0.31201172,-0.08496094,-0.6713867,0.36621094,0.30517578,0.0,0.0,0.0,105.77637,70.27954,138.44421
1768707375328,-0.9482422,0.31201172,-0.08496094,-0.6713867,0.36621094,0.30517578,0.0,0.0,0.0,105.85327,70.27954,138.51013
1768707375415,-0.9482422,0.3125,-0.083984375,-0.36621094,-0.18310547,0.24414062,0.0,0.0,0.0,105.85327,70.27954,138.51013
1768707375427,-0.9482422,0.3125,-0.083984375,-0.36621094,-0.18310547,0.24414062,0.0,0.0,0.0,105.80383,70.285034,138.44421
1768707375515,-0.94921875,0.31298828,-0.084472656,-0.24414062,0.061035156,0.4272461,0.0,0.0,0.0,105.80383,70.285034,138.44421
1768707375527,-0.94921875,0.31298828,-0.084472656,-0.24414062,0.061035156,0.4272461,0.0,0.0,0.0,105.73242,70.285034,138.31787
1768707375615,-0.9477539,0.31396484,-0.08251953,-0.18310547,0.061035156,0.48828125,0.0,0.0,0.0,105.73242,70.285034,138.31787
1768707375626,-0.9477539,0.31396484,-0.08251953,-0.18310547,0.061035156,0.48828125,0.0,0.0,0.0,105.672,70.27405,138.2135
1768707375714,-0.94873047,0.31396484,-0.08544922,-0.30517578,0.12207031,0.36621094,0.0,0.0,0.0,105.672,70.27405,138.2135
1768707375726,-0.94873047,0.31396484,-0.08544922,-0.30517578,0.12207031,0.36621094,0.0,0.0,0.0,105.633545,70.268555,138.16406
1768707375814,-0.9482422,0.31298828,-0.083496094,0.18310547,0.061035156,0.061035156,0.0,0.0,0.0,105.633545,70.268555,138.16406
1768707375827,-0.9482422,0.31298828,-0.083496094,0.18310547,0.061035156,0.061035156,0.0,0.0,0.0,105.650024,70.268555,138.18054
1768707375914,-0.9506836,0.31298828,-0.08642578,-0.4272461,0.18310547,0.4272461,0.0,0.0,0.0,105.650024,70.268555,138.18054
1768707375925,-0.9506836,0.31298828,-0.08642578,-0.4272461,0.18310547,0.4272461,0.0,0.0,0.0,105.59509,70.285034,138.08716
1768707376014,-0.94970703,0.31347656,-0.083984375,-0.24414062,-0.061035156,0.36621094,0.0,0.0,0.0,105.59509,70.285034,138.08716
1768707376025,-0.94970703,0.31347656,-0.083984375,-0.24414062,-0.061035156,0.36621094,0.0,0.0,0.0,105.545654,70.285034,137.98279
1768707376113,-0.9458008,0.31201172,-0.08154297,-0.24414062,0.061035156,0.30517578,0.0,0.0,0.0,105.545654,70.285034,137.98279
1768707376125,-0.9458008,0.31201172,-0.08154297,-0.24414062,0.061035156,0.30517578,0.0,0.0,0.0,105.51819,70.29602,137.94434
1768707376213,-0.9511719,0.31445312,-0.084472656,-0.12207031,0.0,0.24414062,0.0,0.0,0.0,105.51819,70.29602,137.94434
1768707376225,-0.9511719,0.31445312,-0.084472656,-0.12207031,0.0,0.24414062,0.0,0.0,0.0,105.48523,70.30701,137.91687
1768707376313,-0.9482422,0.31396484,-0.08154297,-0.48828125,0.0,0.36621094,0.0,0.0,0.0,105.48523,70.30701,137.91687
1768707376324,-0.9482422,0.31396484,-0.08154297,-0.48828125,0.0,0.36621094,0.0,0.0,0.0,105.46875,70.3125,137.8894
1768707376413,-0.94873047,0.31347656,-0.08154297,-0.4272461,0.0,0.30517578,0.0,0.0,0.0,105.46875,70.3125,137.8894
1768707376424,-0.94873047,0.31347656,-0.08154297,-0.4272461,0.0,0.30517578,0.0,0.0,0.0,105.37537,70.3125,137.79053
1768707376512,-0.94873047,0.31396484,-0.08203125,-0.24414062,0.0,0.18310547,0.0,0.0,0.0,105.37537,70.3125,137.79053
1768707376524,-0.94873047,0.31396484,-0.08203125,-0.24414062,0.0,0.18310547,0.0,0.0,0.0,105.320435,70.32898,137.7356
1768707376612,-0.9511719,0.31445312,-0.07714844,0.30517578,-0.18310547,0.0,0.0,0.0,0.0,105.320435,70.32898,137.7356
1768707376623,-0.9511719,0.31445312,-0.07714844,0.30517578,-0.18310547,0.0,0.0,0.0,0.0,105.25452,70.339966,137.63672
1768707376712,-0.9458008,0.3125,-0.080566406,0.061035156,0.12207031,0.24414062,0.0,0.0,0.0,105.25452,70.339966,137.63672
1768707376724,-0.9458008,0.3125,-0.080566406,0.061035156,0.12207031,0.24414062,0.0,0.0,0.0,105.22705,70.37842,137.51038
1768707376811,-0.9506836,0.31103516,-0.080078125,0.6713867,-0.18310547,-0.12207031,0.0,0.0,0.0,105.22705,70.37842,137.51038
1768707376823,-0.9506836,0.31103516,-0.080078125,0.6713867,-0.18310547,-0.12207031,0.0,0.0,0.0,105.166626,70.40588,137.38953
1768707376911,-0.9511719,0.31201172,-0.07763672,-0.12207031,-0.7324219,0.061035156,0.0,0.0,0.0,105.166626,70.40588,137.38953
1768707376923,-0.9511719,0.31201172,-0.07763672,-0.12207031,-0.7324219,0.061035156,0.0,0.0,0.0,104.96338,70.48279,137.14233
1768707377011,-0.9506836,0.30859375,-0.08105469,0.0,0.36621094,0.12207031,0.0,0.0,0.0,104.96338,70.48279,137.14233
1768707377022,-0.9506836,0.30859375,-0.08105469,0.0,0.36621094,0.12207031,0.0,0.0,0.0,104.80408,70.53223,136.96655
1768707377111,-0.9501953,0.31152344,-0.076171875,-0.12207031,0.4272461,0.18310547,0.0,0.0,0.0,104.80408,70.53223,136.96655
1768707377122,-0.9501953,0.31152344,-0.076171875,-0.12207031,0.4272461,0.18310547,0.0,0.0,0.0,104.89746,70.54321,137.04346
1768707377210,-0.95458984,0.30908203,-0.07861328,0.0,1.0375977,0.0,0.0,0.0,0.0,104.89746,70.54321,137.04346
1768707377222,-0.95458984,0.30908203,-0.07861328,0.0,1.0375977,0.0,0.0,0.0,0.0,105.00183,70.57068,137.13135
1768707377310,-0.95214844,0.30664062,-0.08105469,-0.48828125,0.48828125,0.91552734,0.0,0.0,0.0,105.00183,70.57068,137.13135
1768707377321,-0.95214844,0.30664062,-0.08105469,-0.48828125,0.48828125,0.91552734,0.0,0.0,0.0,105.14465,70.5542,137.29614
1768707377410,-0.9526367,0.3100586,-0.08154297,-0.24414062,0.18310547,0.4272461,0.0,0.0,0.0,105.14465,70.5542,137.29614
1768707377421,-0.9526367,0.3100586,-0.08154297,-0.24414062,0.18310547,0.4272461,0.0,0.0,0.0,105.183105,70.510254,137.37305
1768707377509,-0.95214844,0.3095703,-0.080078125,-0.48828125,0.24414062,0.36621094,0.0,0.0,0.0,105.183105,70.510254,137.37305
1768707377521,-0.95214844,0.3095703,-0.080078125,-0.48828125,0.24414062,0.36621094,0.0,0.0,0.0,105.111694,70.52673,137.3291
1768707377609,-0.9506836,0.31054688,-0.07763672,-0.6713867,0.061035156,0.48828125,0.0,0.0,0.0,105.111694,70.52673,137.3291
1768707377621,-0.9506836,0.31054688,-0.07763672,-0.6713867,0.061035156,0.48828125,0.0,0.0,0.0,105.078735,70.52124,137.3291
1768707377709,-0.94970703,0.3125,-0.08105469,-0.91552734,0.24414062,0.91552734,0.0,0.0,0.0,105.078735,70.52124,137.3291
1768707377721,-0.94970703,0.3125,-0.08105469,-0.91552734,0.24414062,0.91552734,0.0,0.0,0.0,105.04028,70.477295,137.34009
1768707377809,-0.94921875,0.31054688,-0.080566406,-0.30517578,0.4272461,0.18310547,0.0,0.0,0.0,105.04028,70.477295,137.34009
1768707377820,-0.94921875,0.31054688,-0.080566406,-0.30517578,0.4272461,0.18310547,0.0,0.0,0.0,105.00183,70.43884,137.35657
1768707377908,-0.9536133,0.31054688,-0.080566406,-0.91552734,-0.36621094,0.36621094,0.0,0.0,0.0,105.00183,70.43884,137.35657
1768707377920,-0.9536133,0.31054688,-0.080566406,-0.91552734,-0.36621094,0.36621094,0.0,0.0,0.0,104.89746,70.4718,137.26868
1768707378008,-0.9501953,0.31054688,-0.07763672,-0.4272461,0.24414062,0.24414062,0.0,0.0,0.0,104.89746,70.4718,137.26868
1768707378020,-0.9501953,0.31054688,-0.07763672,-0.4272461,0.24414062,0.24414062,0.0,0.0,0.0,104.869995,70.4718,137.29065
1768707378108,-0.9501953,0.31054688,-0.07861328,-0.91552734,0.61035156,0.4272461,0.0,0.0,0.0,104.869995,70.4718,137.29065
1768707378119,-0.9501953,0.31054688,-0.07861328,-0.91552734,0.61035156,0.4272461,0.0,0.0,0.0,104.886475,70.4718,137.36206
1768707378208,-0.9506836,0.31201172,-0.07910156,-0.7324219,0.24414062,0.36621094,0.0,0.0,0.0,104.886475,70.4718,137.36206
1768707378219,-0.9506836,0.31201172,-0.07910156,-0.7324219,0.24414062,0.36621094,0.0,0.0,0.0,104.853516,70.4718,137.37305
1768707378307,-0.9511719,0.3125,-0.08154297,-0.24414062,0.4272461,0.36621094,0.0,0.0,0.0,104.853516,70.4718,137.37305
1768707378319,-0.9511719,0.3125,-0.08154297,-0.24414062,0.4272461,0.36621094,0.0,0.0,0.0,104.91394,70.45532,137.45544
1768707378407,-0.9501953,0.31103516,-0.07861328,-0.24414062,0.48828125,0.79345703,0.0,0.0,0.0,104.91394,70.45532,137.45544
1768707378419,-0.9501953,0.31103516,-0.07861328,-0.24414062,0.48828125,0.79345703,0.0,0.0,0.0,104.9469,70.42236,137.47742
1768707378507,-0.9511719,0.3100586,-0.07910156,-0.18310547,0.18310547,0.30517578,0.0,0.0,0.0,104.9469,70.42236,137.47742
1768707378518,-0.9511719,0.3100586,-0.07910156,-0.18310547,0.18310547,0.30517578,0.0,0.0,0.0,104.87549,70.41138,137.37305
1768707378607,-0.9511719,0.31103516,-0.08154297,-0.30517578,0.0,0.24414062,0.0,0.0,0.0,104.87549,70.41138,137.37305
1768707378618,-0.9511719,0.31103516,-0.08154297,-0.30517578,0.0,0.24414062,0.0,0.0,0.0,104.84802,70.42786,137.3291
1768707378706,-0.9482422,0.3154297,-0.079589844,-0.5493164,0.36621094,0.4272461,0.0,0.0,0.0,104.84802,70.42786,137.3291
1768707378718,-0.9482422,0.3154297,-0.079589844,-0.5493164,0.36621094,0.4272461,0.0,0.0,0.0,104.85901,70.41687,137.34009
1768707378806,-0.94970703,0.31103516,-0.07910156,-0.48828125,0.0,0.30517578,0.0,0.0,0.0,104.85901,70.41687,137.34009
1768707378817,-0.94970703,0.31103516,-0.07910156,-0.48828125,0.0,0.30517578,0.0,0.0,0.0,104.82056,70.40588,137.30164
1768707378906,-0.95410156,0.3125,-0.08105469,-0.5493164,-0.24414062,0.36621094,0.0,0.0,0.0,104.82056,70.40588,137.30164
1768707378917,-0.95410156,0.3125,-0.08105469,-0.5493164,-0.24414062,0.36621094,0.0,0.0,0.0,104.77661,70.41138,137.25769
1768707379006,-0.95166016,0.31201172,-0.08300781,-0.61035156,0.30517578,0.4272461,0.0,0.0,0.0,104.77661,70.41138,137.25769
1768707379017,-0.95166016,0.31201172,-0.08300781,-0.61035156,0.30517578,0.4272461,0.0,0.0,0.0,104.72168,70.40588,137.24121
1768707379105,-0.9501953,0.3125,-0.080566406,-0.30517578,0.7324219,0.36621094,0.0,0.0,0.0,104.72168,70.40588,137.24121
1768707379117,-0.9501953,0.3125,-0.080566406,-0.30517578,0.7324219,0.36621094,0.0,0.0,0.0,104.93591,70.37842,137.48291
1768707379205,-0.9536133,0.31201172,-0.083984375,-0.7324219,1.159668,0.6713867,0.0,0.0,0.0,104.93591,70.37842,137.48291
1768707379216,-0.9536133,0.31201172,-0.083984375,-0.7324219,1.159668,0.6713867,0.0,0.0,0.0,105.1062,70.32898,137.68616
1768707379305,-0.9472656,0.3125,-0.083496094,-0.5493164,1.2817383,0.4272461,0.0,0.0,0.0,105.1062,70.32898,137.68616
1768707379316,-0.9472656,0.3125,-0.083496094,-0.5493164,1.2817383,0.4272461,0.0,0.0,0.0,105.36438,70.27954,137.9718
1768707379405,-0.9501953,0.3154297,-0.083984375,-0.6713867,1.159668,0.61035156,0.0,0.0,0.0,105.36438,70.27954,137.9718
1768707379416,-0.9501953,0.3154297,-0.083984375,-0.6713867,1.159668,0.61035156,0.0,0.0,0.0,105.62805,70.2301,138.26843
1768707379504,-0.94628906,0.31591797,-0.083984375,-0.91552734,1.2817383,0.79345703,0.0,0.0,0.0,105.62805,70.2301,138.26843
1768707379516,-0.94628906,0.31591797,-0.083984375,-0.91552734,1.2817383,0.79345703,0.0,0.0,0.0,105.83679,70.15869,138.52112
1768707379604,-0.9472656,0.31640625,-0.088378906,-0.9765625,1.0375977,1.0375977,0.0,0.0,0.0,105.83679,70.15869,138.52112
1768707379615,-0.9472656,0.31640625,-0.088378906,-0.9765625,1.0375977,1.0375977,0.0,0.0,0.0,105.979614,70.08728,138.70789
1768707379704,-0.94677734,0.31445312,-0.09082031,-0.91552734,0.5493164,0.7324219,0.0,0.0,0.0,105.979614,70.08728,138.70789
1768707379715,-0.94677734,0.31445312,-0.09082031,-0.91552734,0.5493164,0.7324219,0.0,0.0,0.0,106.034546,70.02136,138.7738
1768707379803,-0.9458008,0.3149414,-0.08642578,-0.79345703,0.36621094,0.48828125,0.0,0.0,0.0,106.034546,70.02136,138.7738
1768707379815,-0.9458008,0.3149414,-0.08642578,-0.79345703,0.36621094,0.48828125,0.0,0.0,0.0,106.13342,69.97742,138.88916
1768707379903,-0.9472656,0.3203125,-0.087890625,-0.30517578,-0.12207031,0.4272461,0.0,0.0,0.0,106.13342,69.97742,138.88916
1768707379915,-0.9472656,0.3203125,-0.087890625,-0.30517578,-0.12207031,0.4272461,0.0,0.0,0.0,106.11694,69.97742,138.83972
1768707380003,-0.94433594,0.3232422,-0.087402344,-0.061035156,0.36621094,0.6713867,0.0,0.0,0.0,106.11694,69.97742,138.83972
1768707380014,-0.94433594,0.3232422,-0.087402344,-0.061035156,0.36621094,0.6713867,0.0,0.0,0.0,106.05652,69.93347,138.74634
1768707380103,-0.9448242,0.3173828,-0.087890625,-0.48828125,0.0,0.5493164,0.0,0.0,0.0,106.05652,69.93347,138.74634
1768707380114,-0.9448242,0.3173828,-0.087890625,-0.48828125,0.0,0.5493164,0.0,0.0,0.0,106.00159,69.906006,138.64197
1768707380202,-0.9501953,0.31982422,-0.08886719,0.0,-0.30517578,0.0,0.0,0.0,0.0,106.00159,69.906006,138.64197
1768707380214,-0.9501953,0.31982422,-0.08886719,0.0,-0.30517578,0.0,0.0,0.0,0.0,105.91919,69.922485,138.49365
1768707380303,-0.94628906,0.3178711,-0.08935547,-0.36621094,0.36621094,0.4272461,0.0,0.0,0.0,105.91919,69.922485,138.49365
1768707380314,-0.94628906,0.3178711,-0.08935547,-0.36621094,0.36621094,0.4272461,0.0,0.0,0.0,105.9082,69.938965,138.39478
1768707380402,-0.94677734,0.31933594,-0.08544922,-0.18310547,0.0,0.36621094,0.0,0.0,0.0,105.9082,69.938965,138.39478
1768707380413,-0.94677734,0.31933594,-0.08544922,-0.18310547,0.0,0.36621094,0.0,0.0,0.0,105.89172,69.92798,138.33435
1768707380502,-0.94873047,0.3178711,-0.08691406,-0.36621094,0.0,0.36621094,0.0,0.0,0.0,105.89172,69.92798,138.33435
1768707380513,-0.94873047,0.3178711,-0.08691406,-0.36621094,0.0,0.36621094,0.0,0.0,0.0,105.8313,69.92798,138.219
1768707380601,-0.94677734,0.31933594,-0.08642578,-0.30517578,0.0,0.18310547,0.0,0.0,0.0,105.8313,69.92798,138.219
1768707380613,-0.94677734,0.31933594,-0.08642578,-0.30517578,0.0,0.18310547,0.0,0.0,0.0,105.80383,69.94446,138.15857
1768707380701,-0.94677734,0.31884766,-0.0859375,-0.24414062,0.12207031,0.24414062,0.0,0.0,0.0,105.80383,69.94446,138.15857
1768707380713,-0.94677734,0.31884766,-0.0859375,-0.24414062,0.12207031,0.24414062,0.0,0.0,0.0,105.770874,69.94446,138.10913
1768707380801,-0.9477539,0.31835938,-0.09082031,-0.36621094,0.0,0.18310547,0.0,0.0,0.0,105.770874,69.94446,138.10913
1768707380813,-0.9477539,0.31835938,-0.09082031,-0.36621094,0.0,0.18310547,0.0,0.0,0.0,105.77637,69.94995,138.08167
1768707380900,-0.94873047,0.31884766,-0.08642578,0.0,-0.4272461,0.0,0.0,0.0,0.0,105.77637,69.94995,138.08167
1768707380912,-0.94873047,0.31884766,-0.08642578,0.0,-0.4272461,0.0,0.0,0.0,0.0,105.75989,69.97742,138.01025
1768707381000,-0.94384766,0.3173828,-0.083984375,0.0,-0.24414062,0.18310547,0.0,0.0,0.0,105.75989,69.97742,138.01025
1768707381012,-0.94384766,0.3173828,-0.083984375,0.0,-0.24414062,0.18310547,0.0,0.0,0.0,105.666504,69.9884,137.86194
1768707381100,-0.94970703,0.3173828,-0.08544922,-0.18310547,-0.12207031,0.12207031,0.0,0.0,0.0,105.666504,69.9884,137.86194
1768707381111,-0.94970703,0.3173828,-0.08544922,-0.18310547,-0.12207031,0.12207031,0.0,0.0,0.0,105.633545,70.01587,137.76855
1768707381200,-0.9472656,0.3178711,-0.08544922,-0.12207031,-0.12207031,0.12207031,0.0,0.0,0.0,105.633545,70.01587,137.76855
1768707381211,-0.9472656,0.3178711,-0.08544922,-0.12207031,-0.12207031,0.12207031,0.0,0.0,0.0,105.57312,70.03235,137.66418
1768707381299,-0.9472656,0.31591797,-0.084472656,-0.18310547,0.0,0.12207031,0.0,0.0,0.0,105.57312,70.03235,137.66418
1768707381311,-0.9472656,0.31591797,-0.084472656,-0.18310547,0.0,0.12207031,0.0,0.0,0.0,105.5072,70.04883,137.58179
1768707381399,-0.94921875,0.3173828,-0.08251953,-0.18310547,-0.18310547,0.30517578,0.0,0.0,0.0,105.5072,70.04883,137.58179
1768707381411,-0.94921875,0.3173828,-0.08251953,-0.18310547,-0.18310547,0.30517578,0.0,0.0,0.0,105.46875,70.059814,137.52136
1768707381499,-0.9477539,0.31689453,-0.08251953,-0.30517578,0.0,0.30517578,0.0,0.0,0.0,105.46875,70.059814,137.52136
1768707381510,-0.9477539,0.31689453,-0.08251953,-0.30517578,0.0,0.30517578,0.0,0.0,0.0,105.36987,70.0708,137.40051
1768707381599,-0.94677734,0.31689453,-0.083496094,-0.18310547,-0.061035156,0.24414062,0.0,0.0,0.0,105.36987,70.0708,137.40051
1768707381610,-0.94677734,0.31689453,-0.083496094,-0.18310547,-0.061035156,0.24414062,0.0,0.0,0.0,105.336914,70.076294,137.36755
1768707381698,-0.9482422,0.31689453,-0.08203125,0.0,0.24414062,0.24414062,0.0,0.0,0.0,105.336914,70.076294,137.36755
1768707381710,-0.9482422,0.31689453,-0.08203125,0.0,0.24414062,0.24414062,0.0,0.0,0.0,105.31494,70.08179,137.35657
1768707381798,-0.94628906,0.3173828,-0.078125,-0.061035156,0.7324219,0.4272461,0.0,0.0,0.0,105.31494,70.08179,137.35657
1768707381810,-0.94628906,0.3173828,-0.078125,-0.061035156,0.7324219,0.4272461,0.0,0.0,0.0,105.40283,70.076294,137.43347
1768707381898,-0.94628906,0.31689453,-0.07910156,0.91552734,0.061035156,0.0,0.0,0.0,0.0,105.40283,70.076294,137.43347
1768707381909,-0.94628906,0.31689453,-0.07910156,0.91552734,0.061035156,0.0,0.0,0.0,0.0,105.46875,70.08728,137.46094
1768707381998,-0.9458008,0.31640625,-0.08251953,-0.4272461,0.0,0.7324219,0.0,0.0,0.0,105.46875,70.08728,137.46094
1768707382009,-0.9458008,0.31640625,-0.08251953,-0.4272461,0.0,0.7324219,0.0,0.0,0.0,105.3479,70.08728,137.31262
1768707382097,-0.94970703,0.31835938,-0.083984375,0.0,0.48828125,0.30517578,0.0,0.0,0.0,105.3479,70.08728,137.31262
1768707382109,-0.94970703,0.31835938,-0.083984375,0.0,0.48828125,0.30517578,0.0,0.0,0.0,105.303955,70.09277,137.21924
1768707382197,-0.9458008,0.3154297,-0.08251953,0.0,0.24414062,0.24414062,0.0,0.0,0.0,105.303955,70.09277,137.21924
1768707382208,-0.9458008,0.3154297,-0.08251953,0.0,0.24414062,0.24414062,0.0,0.0,0.0,105.31494,70.09827,137.21375
1768707382297,-0.94921875,0.31689453,-0.08203125,-0.12207031,0.0,0.30517578,0.0,0.0,0.0,105.31494,70.09827,137.21375
1768707382309,-0.94921875,0.31689453,-0.08203125,-0.12207031,0.0,0.30517578,0.0,0.0,0.0,105.28198,70.10925,137.1753
1768707382397,-0.94873047,0.31591797,-0.08203125,-0.18310547,0.061035156,0.24414062,0.0,0.0,0.0,105.28198,70.10925,137.1753
1768707382408,-0.94873047,0.31591797,-0.08203125,-0.18310547,0.061035156,0.24414062,0.0,0.0,0.0,105.26001,70.131226,137.12036
1768707382497,-0.94873047,0.3154297,-0.08300781,-0.18310547,-0.18310547,0.18310547,0.0,0.0,0.0,105.26001,70.131226,137.12036
1768707382508,-0.94873047,0.3154297,-0.08300781,-0.18310547,-0.18310547,0.18310547,0.0,0.0,0.0,105.17212,70.1532,137.02148
1768707382596,-0.94921875,0.31591797,-0.08203125,-0.30517578,0.061035156,0.24414062,0.0,0.0,0.0,105.17212,70.1532,137.02148
1768707382608,-0.94921875,0.31591797,-0.08203125,-0.30517578,0.061035156,0.24414062,0.0,0.0,0.0,105.13367,70.164185,136.98853
1768707382696,-0.94873047,0.3154297,-0.080566406,-0.30517578,0.061035156,0.30517578,0.0,0.0,0.0,105.13367,70.164185,136.98853
1768707382707,-0.94873047,0.3154297,-0.080566406,-0.30517578,0.061035156,0.30517578,0.0,0.0,0.0,105.095215,70.16968,136.96655
1768707382796,-0.94873047,0.31591797,-0.08105469,-0.36621094,0.24414062,0.30517578,0.0,0.0,0.0,105.095215,70.16968,136.96655
1768707382807,-0.94873047,0.31591797,-0.08105469,-0.36621094,0.24414062,0.30517578,0.0,0.0,0.0,105.11719,70.17517,137.03796
1768707382895,-0.94873047,0.31396484,-0.08300781,-0.4272461,0.24414062,0.18310547,0.0,0.0,0.0,105.11719,70.17517,137.03796
1768707382907,-0.94873047,0.31396484,-0.08300781,-0.4272461,0.24414062,0.18310547,0.0,0.0,0.0,105.111694,70.17517,137.06543
1768707382995,-0.9526367,0.3149414,-0.0859375,-0.7324219,-0.48828125,0.36621094,0.0,0.0,0.0,105.111694,70.17517,137.06543
1768707383006,-0.9526367,0.3149414,-0.0859375,-0.7324219,-0.48828125,0.36621094,0.0,0.0,0.0,105.10071,70.19714,137.04346
1768707383095,-0.9506836,0.31396484,-0.08105469,-0.12207031,-0.12207031,0.4272461,0.0,0.0,0.0,105.10071,70.19714,137.04346
1768707383106,-0.9506836,0.31396484,-0.08105469,-0.12207031,-0.12207031,0.4272461,0.0,0.0,0.0,104.97986,70.18616,136.94458
1768707383194,-0.9477539,0.3154297,-0.080078125,-0.4272461,0.18310547,0.48828125,0.0,0.0,0.0,104.97986,70.18616,136.94458
1768707383206,-0.9477539,0.3154297,-0.080078125,-0.4272461,0.18310547,0.48828125,0.0,0.0,0.0,104.95239,70.18616,136.91162
1768707383294,-0.9506836,0.3178711,-0.08300781,-0.36621094,0.12207031,0.24414062,0.0,0.0,0.0,104.95239,70.18616,136.91162
1768707383306,-0.9506836,0.3178711,-0.08300781,-0.36621094,0.12207031,0.24414062,0.0,0.0,0.0,104.957886,70.19165,136.93909
1768707383394,-0.9472656,0.3154297,-0.080566406,-0.4272461,0.061035156,0.24414062,0.0,0.0,0.0,104.957886,70.19165,136.93909
1768707383405,-0.9472656,0.3154297,-0.080566406,-0.4272461,0.061035156,0.24414062,0.0,0.0,0.0,104.9469,70.18616,136.96106
1768707383494,-0.94970703,0.31689453,-0.080566406,-0.30517578,-0.30517578,0.12207031,0.0,0.0,0.0,104.9469,70.18616,136.96106
1768707383506,-0.94970703,0.31689453,-0.080566406,-0.30517578,-0.30517578,0.12207031,0.0,0.0,0.0,104.89197,70.19714,136.93909
1768707383593,-0.94677734,0.31640625,-0.078125,-0.30517578,-0.061035156,0.12207031,0.0,0.0,0.0,104.89197,70.19714,136.93909
1768707383605,-0.94677734,0.31640625,-0.078125,-0.30517578,-0.061035156,0.12207031,0.0,0.0,0.0,104.79309,70.20813,136.87317
1768707383693,-0.9482422,0.31689453,-0.078125,-0.5493164,0.36621094,0.5493164,0.0,0.0,0.0,104.79309,70.20813,136.87317
1768707383705,-0.9482422,0.31689453,-0.078125,-0.5493164,0.36621094,0.5493164,0.0,0.0,0.0,104.75464,70.20813,136.8512
1768707383793,-0.94970703,0.31689453,-0.07910156,-0.061035156,0.12207031,0.061035156,0.0,0.0,0.0,104.75464,70.20813,136.8512
1768707383804,-0.94970703,0.31689453,-0.07910156,-0.061035156,0.12207031,0.061035156,0.0,0.0,0.0,104.749146,70.20813,136.86218
1768707383893,-0.9448242,0.3173828,-0.072753906,-0.4272461,0.79345703,0.5493164,0.0,0.0,0.0,104.749146,70.20813,136.86218
1768707383904,-0.9448242,0.3173828,-0.072753906,-0.4272461,0.79345703,0.5493164,0.0,0.0,0.0,104.798584,70.19714,136.97205
1768707383992,-0.94873047,0.31689453,-0.076660156,-0.061035156,0.30517578,0.24414062,0.0,0.0,0.0,104.798584,70.19714,136.97205
1768707384004,-0.94873047,0.31689453,-0.076660156,-0.061035156,0.30517578,0.24414062,0.0,0.0,0.0,104.83154,70.19165,137.02148
1768707384092,-0.9453125,0.31591797,-0.076171875,-0.24414062,0.18310547,0.4272461,0.0,0.0,0.0,104.83154,70.19165,137.02148
1768707384103,-0.9453125,0.31591797,-0.076171875,-0.24414062,0.18310547,0.4272461,0.0,0.0,0.0,104.749146,70.19714,136.9281
1768707384192,-0.9511719,0.31689453,-0.080078125,-0.061035156,0.48828125,0.18310547,0.0,0.0,0.0,104.749146,70.19714,136.9281
1768707384203,-0.9511719,0.31689453,-0.080078125,-0.061035156,0.48828125,0.18310547,0.0,0.0,0.0,104.74365,70.20264,136.90613
1768707384292,-0.94873047,0.31640625,-0.07861328,0.061035156,0.30517578,0.4272461,0.0,0.0,0.0,104.74365,70.20264,136.90613
1768707384303,-0.94873047,0.31640625,-0.07861328,0.061035156,0.30517578,0.4272461,0.0,0.0,0.0,104.75464,70.20264,136.9281
1768707384391,-0.9501953,0.31445312,-0.08105469,-0.48828125,0.4272461,0.24414062,0.0,0.0,0.0,104.75464,70.20264,136.9281
1768707384403,-0.9501953,0.31445312,-0.08105469,-0.48828125,0.4272461,0.24414062,0.0,0.0,0.0,104.77112,70.19714,136.9336
1768707384491,-0.9506836,0.31640625,-0.07714844,-0.36621094,0.18310547,0.4272461,0.0,0.0,0.0,104.77112,70.19714,136.9336
1768707384502,-0.9506836,0.31640625,-0.07714844,-0.36621094,0.18310547,0.4272461,0.0,0.0,0.0,104.798584,70.20264,136.97205
1768707384591,-0.94873047,0.31689453,-0.080566406,-0.4272461,0.4272461,0.36621094,0.0,0.0,0.0,104.798584,70.20264,136.97205
1768707384602,-0.94873047,0.31689453,-0.080566406,-0.4272461,0.4272461,0.36621094,0.0,0.0,0.0,104.82056,70.180664,137.03247
1768707384690,-0.9501953,0.31591797,-0.08105469,-0.24414062,0.12207031,0.4272461,0.0,0.0,0.0,104.82056,70.180664,137.03247
1768707384702,-0.9501953,0.31591797,-0.08105469,-0.24414062,0.12207031,0.4272461,0.0,0.0,0.0,104.798584,70.18616,137.02698
1768707384790,-0.9482422,0.31689453,-0.07861328,-0.4272461,0.061035156,0.24414062,0.0,0.0,0.0,104.798584,70.18616,137.02698
1768707384802,-0.9482422,0.31689453,-0.07861328,-0.4272461,0.061035156,0.24414062,0.0,0.0,0.0,104.79309,70.17517,137.03247
1768707384890,-0.9501953,0.3173828,-0.080566406,-0.4272461,0.24414062,0.4272461,0.0,0.0,0.0,104.79309,70.17517,137.03247
1768707384901,-0.9501953,0.3173828,-0.080566406,-0.4272461,0.24414062,0.4272461,0.0,0.0,0.0,104.82605,70.16968,137.07642
1768707384990,-0.9526367,0.3149414,-0.08544922,-0.24414062,1.0986328,0.24414062,0.0,0.0,0.0,104.82605,70.16968,137.07642
1768707385001,-0.9526367,0.3149414,-0.08544922,-0.24414062,1.0986328,0.24414062,0.0,0.0,0.0,104.957886,70.15869,137.20825
1768707385089,-0.95410156,0.3178711,-0.088378906,-0.18310547,0.61035156,0.12207031,0.0,0.0,0.0,104.957886,70.15869,137.20825
1768707385101,-0.95410156,0.3178711,-0.088378906,-0.18310547,0.61035156,0.12207031,0.0,0.0,0.0,105.43579,70.131226,137.66418
1768707385189,-0.94433594,0.31835938,-0.08935547,-0.18310547,1.4038086,0.12207031,0.0,0.0,0.0,105.43579,70.131226,137.66418
1768707385201,-0.94433594,0.31835938,-0.08935547,-0.18310547,1.4038086,0.12207031,0.0,0.0,0.0,105.666504,70.09827,137.91138
1768707385289,-0.9482422,0.3173828,-0.088378906,-1.2817383,1.2207031,0.4272461,0.0,0.0,0.0,105.666504,70.09827,137.91138
1768707385300,-0.9482422,0.3173828,-0.088378906,-1.2817383,1.2207031,0.4272461,0.0,0.0,0.0,106.02356,70.06531,138.31787
1768707385388,-0.9501953,0.3173828,-0.091796875,-2.380371,0.061035156,0.8544922,0.0,0.0,0.0,106.02356,70.06531,138.31787
1768707385400,-0.9501953,0.3173828,-0.091796875,-2.380371,0.061035156,0.8544922,0.0,0.0,0.0,106.05652,70.010376,138.47168
1768707385488,-0.94677734,0.31591797,-0.08544922,-1.2817383,0.8544922,0.48828125,0.0,0.0,0.0,106.05652,70.010376,138.47168
1768707385500,-0.94677734,0.31591797,-0.08544922,-1.2817383,0.8544922,0.48828125,0.0,0.0,0.0,106.02905,69.955444,138.55957
1768707385588,-0.94433594,0.3154297,-0.08642578,-1.4038086,1.159668,0.48828125,0.0,0.0,0.0,106.02905,69.955444,138.55957
1768707385600,-0.94433594,0.3154297,-0.08642578,-1.4038086,1.159668,0.48828125,0.0,0.0,0.0,106.12793,69.91699,138.72986
1768707385688,-0.9433594,0.32080078,-0.084472656,-0.79345703,1.0986328,0.6713867,0.0,0.0,0.0,106.12793,69.91699,138.72986
1768707385699,-0.9433594,0.32080078,-0.084472656,-0.79345703,1.0986328,0.6713867,0.0,0.0,0.0,106.1499,69.88403,138.84521
1768707385787,-0.94433594,0.31933594,-0.08691406,-0.4272461,0.79345703,0.36621094,0.0,0.0,0.0,106.1499,69.88403,138.84521
1768707385799,-0.94433594,0.31933594,-0.08691406,-0.4272461,0.79345703,0.36621094,0.0,0.0,0.0,106.21582,69.84009,138.88367
1768707385887,-0.9453125,0.32128906,-0.08935547,-0.48828125,-0.061035156,0.36621094,0.0,0.0,0.0,106.21582,69.84009,138.88367
1768707385899,-0.9453125,0.32128906,-0.08935547,-0.48828125,-0.061035156,0.36621094,0.0,0.0,0.0,106.2323,69.851074,138.81775
1768707385987,-0.9458008,0.3173828,-0.087890625,-0.12207031,-0.24414062,0.18310547,0.0,0.0,0.0,106.2323,69.851074,138.81775
1768707385999,-0.9458008,0.3173828,-0.087890625,-0.12207031,-0.24414062,0.18310547,0.0,0.0,0.0,106.10596,69.851074,138.6145
1768707386087,-0.9511719,0.31835938,-0.091796875,0.12207031,-0.18310547,0.061035156,0.0,0.0,0.0,106.10596,69.851074,138.6145
1768707386099,-0.9511719,0.31835938,-0.091796875,0.12207031,-0.18310547,0.061035156,0.0,0.0,0.0,106.02905,69.90051,138.4497
1768707386186,-0.94628906,0.3203125,-0.08935547,0.12207031,-0.12207031,0.12207031,0.0,0.0,0.0,106.02905,69.90051,138.4497
1768707386198,-0.94628906,0.3203125,-0.08935547,0.12207031,-0.12207031,0.12207031,0.0,0.0,0.0,106.01807,69.9115,138.39478
1768707386286,-0.9453125,0.31884766,-0.088378906,-0.36621094,0.24414062,0.18310547,0.0,0.0,0.0,106.01807,69.9115,138.39478
1768707386298,-0.9453125,0.31884766,-0.088378906,-0.36621094,0.24414062,0.18310547,0.0,0.0,0.0,105.97412,69.92798,138.32336
1768707386386,-0.94873047,0.3178711,-0.08886719,0.0,-0.12207031,0.24414062,0.0,0.0,0.0,105.97412,69.92798,138.32336
1768707386397,-0.94873047,0.3178711,-0.08886719,0.0,-0.12207031,0.24414062,0.0,0.0,0.0,105.92468,69.94995,138.19702
1768707386486,-0.94628906,0.3178711,-0.087402344,-0.30517578,0.18310547,0.30517578,0.0,0.0,0.0,105.92468,69.94995,138.19702
1768707386497,-0.94628906,0.3178711,-0.087402344,-0.30517578,0.18310547,0.30517578,0.0,0.0,0.0,105.91919,69.96094,138.14758
1768707386585,-0.94677734,0.31884766,-0.087402344,-0.48828125,0.12207031,0.48828125,0.0,0.0,0.0,105.91919,69.96094,138.14758
1768707386597,-0.94677734,0.31884766,-0.087402344,-0.48828125,0.12207031,0.48828125,0.0,0.0,0.0,105.9137,69.96643,138.12561
1768707386685,-0.94873047,0.31835938,-0.087890625,-0.18310547,0.061035156,0.18310547,0.0,0.0,0.0,105.9137,69.96643,138.12561
1768707386697,-0.94873047,0.31835938,-0.087890625,-0.18310547,0.061035156,0.18310547,0.0,0.0,0.0,105.88623,69.97742,138.08167
1768707386785,-0.9482422,0.31835938,-0.08984375,-0.18310547,0.4272461,0.4272461,0.0,0.0,0.0,105.88623,69.97742,138.08167
1768707386796,-0.9482422,0.31835938,-0.08984375,-0.18310547,0.4272461,0.4272461,0.0,0.0,0.0,105.92468,69.96094,138.12012
1768707386885,-0.9472656,0.3178711,-0.08642578,0.0,0.30517578,0.24414062,0.0,0.0,0.0,105.92468,69.96094,138.12012
1768707386896,-0.9472656,0.3178711,-0.08642578,0.0,0.30517578,0.24414062,0.0,0.0,0.0,105.930176,69.96094,138.12561
1768707386984,-0.94677734,0.31982422,-0.08544922,0.061035156,-0.7324219,0.0,0.0,0.0,0.0,105.930176,69.96094,138.12561
1768707386996,-0.94677734,0.31982422,-0.08544922,0.061035156,-0.7324219,0.0,0.0,0.0,0.0,105.858765,69.9939,138.01025
1768707387084,-0.94433594,0.31689453,-0.08203125,0.0,-0.36621094,0.30517578,0.0,0.0,0.0,105.858765,69.9939,138.01025
1768707387095,-0.94433594,0.31689453,-0.08203125,0.0,-0.36621094,0.30517578,0.0,0.0,0.0,105.65552,70.01587,137.77405
1768707387184,-0.9506836,0.31835938,-0.08544922,0.4272461,0.30517578,0.0,0.0,0.0,0.0,105.65552,70.01587,137.77405
1768707387195,-0.9506836,0.31835938,-0.08544922,0.4272461,0.30517578,0.0,0.0,0.0,0.0,105.62256,70.043335,137.66418
1768707387283,-0.9453125,0.31689453,-0.08496094,0.6713867,0.0,0.061035156,0.0,0.0,0.0,105.62256,70.043335,137.66418
1768707387295,-0.9453125,0.31689453,-0.08496094,0.6713867,0.0,0.061035156,0.0,0.0,0.0,105.69397,70.06531,137.66968
1768707387383,-0.9501953,0.31640625,-0.08886719,0.36621094,-0.12207031,0.12207031,0.0,0.0,0.0,105.69397,70.06531,137.66968
1768707387395,-0.9501953,0.31640625,-0.08886719,0.36621094,-0.12207031,0.12207031,0.0,0.0,0.0,105.69946,70.08728,137.62024
1768707387483,-0.94921875,0.31591797,-0.0859375,0.061035156,-0.12207031,0.12207031,0.0,0.0,0.0,105.69946,70.08728,137.62024
1768707387494,-0.94921875,0.31591797,-0.0859375,0.061035156,-0.12207031,0.12207031,0.0,0.0,0.0,105.68848,70.12024,137.54883
1768707387583,-0.94677734,0.3173828,-0.083496094,-0.061035156,-0.24414062,0.30517578,0.0,0.0,0.0,105.68848,70.12024,137.54883
1768707387594,-0.94677734,0.3173828,-0.083496094,-0.061035156,-0.24414062,0.30517578,0.0,0.0,0.0,105.5896,70.131226,137.43347
1768707387682,-0.94921875,0.3149414,-0.087402344,0.061035156,0.061035156,0.12207031,0.0,0.0,0.0,105.5896,70.131226,137.43347
1768707387694,-0.94921875,0.3149414,-0.087402344,0.061035156,0.061035156,0.12207031,0.0,0.0,0.0,105.53467,70.147705,137.36206
1768707387782,-0.94970703,0.3173828,-0.087402344,-0.12207031,-0.36621094,0.12207031,0.0,0.0,0.0,105.53467,70.147705,137.36206
1768707387794,-0.94970703,0.3173828,-0.087402344,-0.12207031,-0.36621094,0.12207031,0.0,0.0,0.0,105.53467,70.17517,137.34558
1768707387882,-0.94873047,0.31396484,-0.0859375,0.0,-0.4272461,0.0,0.0,0.0,0.0,105.53467,70.17517,137.34558
1768707387894,-0.94873047,0.31396484,-0.0859375,0.0,-0.4272461,0.0,0.0,0.0,0.0,105.46326,70.19714,137.2522
1768707387982,-0.95214844,0.31396484,-0.08496094,-0.30517578,-0.6713867,0.18310547,0.0,0.0,0.0,105.46326,70.19714,137.2522
1768707387993,-0.95214844,0.31396484,-0.08496094,-0.30517578,-0.6713867,0.18310547,0.0,0.0,0.0,105.45776,70.2301,137.18079
1768707388081,-0.9482422,0.31347656,-0.08300781,0.0,-0.48828125,0.24414062,0.0,0.0,0.0,105.45776,70.2301,137.18079
1768707388093,-0.9482422,0.31347656,-0.08300781,0.0,-0.48828125,0.24414062,0.0,0.0,0.0,105.29297,70.24658,136.99951
1768707388181,-0.9482422,0.31347656,-0.08154297,-0.18310547,0.18310547,0.36621094,0.0,0.0,0.0,105.29297,70.24658,136.99951
1768707388193,-0.9482422,0.31347656,-0.08154297,-0.18310547,0.18310547,0.36621094,0.0,0.0,0.0,105.28198,70.252075,136.97205
1768707388281,-0.95166016,0.31689453,-0.083496094,0.0,-0.36621094,0.061035156,0.0,0.0,0.0,105.28198,70.252075,136.97205
1768707388292,-0.95166016,0.31689453,-0.083496094,0.0,-0.36621094,0.061035156,0.0,0.0,0.0,105.2655,70.26306,136.95557
1768707388381,-0.9472656,0.31396484,-0.08154297,-0.30517578,0.36621094,0.24414062,0.0,0.0,0.0,105.2655,70.26306,136.95557
1768707388392,-0.9472656,0.31396484,-0.08154297,-0.30517578,0.36621094,0.24414062,0.0,0.0,0.0,105.20508,70.27405,136.9226
1768707388481,-0.9501953,0.31445312,-0.07910156,-0.30517578,-0.24414062,0.30517578,0.0,0.0,0.0,105.20508,70.27405,136.9226
1768707388492,-0.9501953,0.31445312,-0.07910156,-0.30517578,-0.24414062,0.30517578,0.0,0.0,0.0,105.111694,70.27405,136.86218
1768707388580,-0.9511719,0.31396484,-0.079589844,0.0,0.18310547,0.18310547,0.0,0.0,0.0,105.111694,70.27405,136.86218
1768707388591,-0.9511719,0.31396484,-0.079589844,0.0,0.18310547,0.18310547,0.0,0.0,0.0,105.08972,70.285034,136.82922
1768707388680,-0.94628906,0.31445312,-0.08105469,-0.24414062,0.18310547,0.36621094,0.0,0.0,0.0,105.08972,70.285034,136.82922
1768707388691,-0.94628906,0.31445312,-0.08105469,-0.24414062,0.18310547,0.36621094,0.0,0.0,0.0,105.15564,70.29053,136.88965
1768707388780,-0.9511719,0.3149414,-0.083496094,-0.30517578,-0.12207031,0.36621094,0.0,0.0,0.0,105.15564,70.29053,136.88965
1768707388791,-0.9511719,0.3149414,-0.083496094,-0.30517578,-0.12207031,0.36621094,0.0,0.0,0.0,105.08423,70.30151,136.82922
1768707388879,-0.94873047,0.31152344,-0.07910156,-0.24414062,0.36621094,0.30517578,0.0,0.0,0.0,105.08423,70.30151,136.82922
1768707388891,-0.94873047,0.31152344,-0.07910156,-0.24414062,0.36621094,0.30517578,0.0,0.0,0.0,104.990845,70.30701,136.74133
1768707388979,-0.95214844,0.31445312,-0.080566406,-0.7324219,-0.30517578,0.4272461,0.0,0.0,0.0,104.990845,70.30701,136.74133
1768707388990,-0.95214844,0.31445312,-0.080566406,-0.7324219,-0.30517578,0.4272461,0.0,0.0,0.0,104.95239,70.32349,136.73584
1768707389079,-0.94873047,0.31591797,-0.07519531,0.18310547,0.061035156,0.18310547,0.0,0.0,0.0,104.95239,70.32349,136.73584
1768707389090,-0.94873047,0.31591797,-0.07519531,0.18310547,0.061035156,0.18310547,0.0,0.0,0.0,104.869995,70.31799,136.65894
1768707389178,-0.9453125,0.31298828,-0.08300781,0.5493164,-0.36621094,1.159668,0.0,0.0,0.0,104.869995,70.31799,136.65894
1768707389190,-0.9453125,0.31298828,-0.08300781,0.5493164,-0.36621094,1.159668,0.0,0.0,0.0,104.72717,70.33447,136.3678
1768707389278,-0.9472656,0.3173828,-0.07519531,1.159668,0.061035156,0.7324219,0.0,0.0,0.0,104.72717,70.33447,136.3678
1768707389290,-0.9472656,0.3173828,-0.07519531,1.159668,0.061035156,0.7324219,0.0,0.0,0.0,104.677734,70.268555,136.21948
1768707389378,-0.9560547,0.3100586,-0.07763672,1.7089844,-0.4272461,0.36621094,0.0,0.0,0.0,104.677734,70.268555,136.21948
1768707389390,-0.9560547,0.3100586,-0.07763672,1.7089844,-0.4272461,0.36621094,0.0,0.0,0.0,104.51294,70.285034,135.92285
1768707389478,-0.94921875,0.31201172,-0.080566406,1.3427734,-0.12207031,0.79345703,0.0,0.0,0.0,104.51294,70.285034,135.92285
1768707389489,-0.94921875,0.31201172,-0.080566406,1.3427734,-0.12207031,0.79345703,0.0,0.0,0.0,104.61731,70.25757,135.86792
1768707389577,-0.9482422,0.30664062,-0.079589844,2.380371,-0.48828125,0.0,0.0,0.0,0.0,104.61731,70.25757,135.86792
1768707389589,-0.9482422,0.30664062,-0.079589844,2.380371,-0.48828125,0.0,0.0,0.0,0.0,104.765625,70.26306,135.85693
1768707389677,-0.9472656,0.3149414,-0.079589844,1.7089844,-0.12207031,1.2817383,0.0,0.0,0.0,104.765625,70.26306,135.85693
1768707389689,-0.9472656,0.3149414,-0.079589844,1.7089844,-0.12207031,1.2817383,0.0,0.0,0.0,104.88098,70.27954,135.77454
1768707389777,-0.94189453,0.3154297,-0.079589844,1.2817383,0.6713867,1.5869141,0.0,0.0,0.0,104.88098,70.27954,135.77454
1768707389788,-0.94189453,0.3154297,-0.079589844,1.2817383,0.6713867,1.5869141,0.0,0.0,0.0,105.062256,70.19165,135.78552
1768707389877,-0.9501953,0.30615234,-0.096191406,0.8544922,1.6479492,0.0,0.0,0.0,0.0,105.062256,70.19165,135.78552
1768707389888,-0.9501953,0.30615234,-0.096191406,0.8544922,1.6479492,0.0,0.0,0.0,0.0,105.36987,70.147705,135.99976
1768707389976,-0.95703125,0.31835938,-0.083984375,-0.61035156,1.7700195,1.4648438,0.0,0.0,0.0,105.36987,70.147705,135.99976
1768707389988,-0.95703125,0.31835938,-0.083984375,-0.61035156,1.7700195,1.4648438,0.0,0.0,0.0,106.00708,70.09277,136.6864
1768707390076,-0.9448242,0.31884766,-0.08984375,1.3427734,1.2207031,0.61035156,0.0,0.0,0.0,106.00708,70.09277,136.6864
1768707390088,-0.9448242,0.31884766,-0.08984375,1.3427734,1.2207031,0.61035156,0.0,0.0,0.0,106.21582,69.99939,136.9226
1768707390176,-0.94970703,0.31933594,-0.09716797,-2.5024414,2.6245117,1.0375977,0.0,0.0,0.0,106.21582,69.99939,136.9226
1768707390187,-0.94970703,0.31933594,-0.09716797,-2.5024414,2.6245117,1.0375977,0.0,0.0,0.0,106.49048,69.9115,137.18628
1768707390275,-0.9433594,0.328125,-0.09082031,-1.0375977,0.79345703,1.3427734,0.0,0.0,0.0,106.49048,69.9115,137.18628
1768707390287,-0.9433594,0.328125,-0.09082031,-1.0375977,0.79345703,1.3427734,0.0,0.0,0.0,106.66077,69.730225,137.46094
1768707390375,-0.94189453,0.31982422,-0.09277344,-1.6479492,1.159668,-1.6479492,0.0,0.0,0.0,106.66077,69.730225,137.46094
1768707390387,-0.94189453,0.31982422,-0.09277344,-1.6479492,1.159668,-1.6479492,0.0,0.0,0.0,106.743164,69.697266,137.58179
1768707390475,-0.9458008,0.31591797,-0.09667969,-2.2583008,0.79345703,-5.554199,0.0,0.0,0.0,106.743164,69.697266,137.58179
1768707390487,-0.9458008,0.31591797,-0.09667969,-2.2583008,0.79345703,-5.554199,0.0,0.0,0.0,107.02881,69.938965,137.90588
1768707390575,-0.95458984,0.3149414,-0.09082031,-3.112793,0.061035156,2.5634766,0.0,0.0,0.0,107.02881,69.938965,137.90588
1768707390586,-0.95458984,0.3149414,-0.09082031,-3.112793,0.061035156,2.5634766,0.0,0.0,0.0,106.77063,69.938965,137.79602
1768707390674,-0.9458008,0.3173828,-0.09375,-1.2817383,1.7700195,1.6479492,0.0,0.0,0.0,106.77063,69.938965,137.79602
1768707390686,-0.9458008,0.3173828,-0.09375,-1.2817383,1.7700195,1.6479492,0.0,0.0,0.0,106.69922,69.72473,137.88391
1768707390774,-0.9448242,0.33007812,-0.10107422,-1.159668,0.6713867,0.79345703,0.0,0.0,0.0,106.69922,69.72473,137.88391
1768707390786,-0.9448242,0.33007812,-0.10107422,-1.159668,0.6713867,0.79345703,0.0,0.0,0.0,106.82556,69.64783,138.03772
1768707390874,-0.9423828,0.32177734,-0.09765625,-2.0751953,1.0986328,1.6479492,0.0,0.0,0.0,106.82556,69.64783,138.03772
1768707390885,-0.9423828,0.32177734,-0.09765625,-2.0751953,1.0986328,1.6479492,0.0,0.0,0.0,106.89697,69.47754,138.17505
1768707390974,-0.94433594,0.3232422,-0.091308594,-1.3427734,-0.24414062,0.5493164,0.0,0.0,0.0,106.89697,69.47754,138.17505
1768707390985,-0.94433594,0.3232422,-0.091308594,-1.3427734,-0.24414062,0.5493164,0.0,0.0,0.0,106.83655,69.41162,138.15308
1768707391073,-0.94189453,0.32763672,-0.08642578,-0.48828125,0.4272461,0.12207031,0.0,0.0,0.0,106.83655,69.41162,138.15308
1768707391085,-0.94189453,0.32763672,-0.08642578,-0.48828125,0.4272461,0.12207031,0.0,0.0,0.0,106.73767,69.417114,138.03772
1768707391173,-0.9448242,0.328125,-0.095214844,-0.61035156,0.48828125,0.24414062,0.0,0.0,0.0,106.73767,69.417114,138.03772
1768707391185,-0.9448242,0.328125,-0.095214844,-0.61035156,0.48828125,0.24414062,0.0,0.0,0.0,106.78711,69.45007,138.01025
1768707391273,-0.94384766,0.3256836,-0.09326172,-0.24414062,0.12207031,-0.061035156,0.0,0.0,0.0,106.78711,69.45007,138.01025
1768707391284,-0.94384766,0.3256836,-0.09326172,-0.24414062,0.12207031,-0.061035156,0.0,0.0,0.0,106.76514,69.45007,137.91687
1768707391372,-0.9458008,0.32177734,-0.09326172,-0.18310547,0.0,0.4272461,0.0,0.0,0.0,106.76514,69.45007,137.91687
1768707391384,-0.9458008,0.32177734,-0.09326172,-0.18310547,0.0,0.4272461,0.0,0.0,0.0,106.693726,69.46655,137.76306
1768707391472,-0.9482422,0.32421875,-0.09472656,0.0,-0.12207031,-0.12207031,0.0,0.0,0.0,106.693726,69.46655,137.76306
1768707391484,-0.9482422,0.32421875,-0.09472656,0.0,-0.12207031,-0.12207031,0.0,0.0,0.0,106.605835,69.49951,137.5708
1768707391572,-0.94091797,0.3256836,-0.09326172,-0.4272461,0.061035156,0.30517578,0.0,0.0,0.0,106.605835,69.49951,137.5708
1768707391583,-0.94091797,0.3256836,-0.09326172,-0.4272461,0.061035156,0.30517578,0.0,0.0,0.0,106.61682,69.51599,137.4939
1768707391672,-0.9458008,0.32421875,-0.09277344,-0.61035156,-0.061035156,0.4272461,0.0,0.0,0.0,106.61682,69.51599,137.4939
1768707391683,-0.9458008,0.32421875,-0.09277344,-0.61035156,-0.061035156,0.4272461,0.0,0.0,0.0,106.5564,69.521484,137.35657
1768707391771,-0.94628906,0.32470703,-0.091796875,-0.30517578,0.061035156,0.30517578,0.0,0.0,0.0,106.5564,69.521484,137.35657
1768707391784,-0.94628906,0.32470703,-0.091796875,-0.30517578,0.061035156,0.30517578,0.0,0.0,0.0,106.49597,69.52698,137.22473
1768707391871,-0.94433594,0.32226562,-0.095214844,-0.061035156,0.0,0.0,0.0,0.0,0.0,106.49597,69.52698,137.22473
1768707391883,-0.94433594,0.32226562,-0.095214844,-0.061035156,0.0,0.0,0.0,0.0,0.0,106.484985,69.54895,137.13684
1768707391971,-0.9477539,0.32373047,-0.09326172,-0.061035156,-0.6713867,-0.061035156,0.0,0.0,0.0,106.484985,69.54895,137.13684
1768707391982,-0.9477539,0.32373047,-0.09326172,-0.061035156,-0.6713867,-0.061035156,0.0,0.0,0.0,106.484985,69.5874,137.05994
1768707392072,-0.9433594,0.32128906,-0.09082031,0.18310547,0.0,0.12207031,0.0,0.0,0.0,106.484985,69.5874,137.05994
1768707392082,-0.9433594,0.32128906,-0.09082031,0.18310547,0.0,0.12207031,0.0,0.0,0.0,106.40808,69.609375,136.90613
1768707392170,-0.94628906,0.32177734,-0.091308594,-0.061035156,0.12207031,0.12207031,0.0,0.0,0.0,106.40808,69.609375,136.90613
1768707392182,-0.94628906,0.32177734,-0.091308594,-0.061035156,0.12207031,0.12207031,0.0,0.0,0.0,106.397095,69.625854,136.84021
1768707392270,-0.94628906,0.3232422,-0.091796875,-0.24414062,0.12207031,0.30517578,0.0,0.0,0.0,106.397095,69.625854,136.84021
1768707392281,-0.94628906,0.3232422,-0.091796875,-0.24414062,0.12207031,0.30517578,0.0,0.0,0.0,106.3916,69.64783,136.78528
1768707392370,-0.9453125,0.32080078,-0.09082031,-0.18310547,0.4272461,0.12207031,0.0,0.0,0.0,106.3916,69.64783,136.78528
1768707392381,-0.9453125,0.32080078,-0.09082031,-0.18310547,0.4272461,0.12207031,0.0,0.0,0.0,106.41907,69.642334,136.7688
1768707392469,-0.94677734,0.32226562,-0.09033203,0.0,0.12207031,0.36621094,0.0,0.0,0.0,106.41907,69.642334,136.7688
1768707392481,-0.94677734,0.32226562,-0.09033203,0.0,0.12207031,0.36621094,0.0,0.0,0.0,106.41907,69.64783,136.74683
1768707392569,-0.94628906,0.32226562,-0.091796875,-0.12207031,0.48828125,0.18310547,0.0,0.0,0.0,106.41907,69.64783,136.74683
1768707392581,-0.94628906,0.32226562,-0.091796875,-0.12207031,0.48828125,0.18310547,0.0,0.0,0.0,106.43005,69.65881,136.71387
1768707392669,-0.94384766,0.32373047,-0.09375,-0.4272461,0.061035156,0.30517578,0.0,0.0,0.0,106.43005,69.65881,136.71387
1768707392681,-0.94384766,0.32373047,-0.09375,-0.4272461,0.061035156,0.30517578,0.0,0.0,0.0,106.47949,69.65881,136.74133
1768707392769,-0.9472656,0.3203125,-0.09375,-0.30517578,0.12207031,0.30517578,0.0,0.0,0.0,106.47949,69.65881,136.74133
1768707392780,-0.9472656,0.3203125,-0.09375,-0.30517578,0.12207031,0.30517578,0.0,0.0,0.0,106.44104,69.66431,136.69739
1768707392868,-0.9453125,0.32373047,-0.09277344,0.0,-0.12207031,0.0,0.0,0.0,0.0,106.44104,69.66431,136.69739
