DateTime,UnixTimestamp,AccX,AccY,AccZ,GyroX,GyroY,GyroZ,MagX,MagY,MagZ,Roll,Pitch,Yaw
2026-03-22 17:39:36.073,1774172376073,1774172376073,-0.9790039,-0.13134766,-0.1665039,-0.12207031,-0.12207031,0.0,0.0,0.0,0.0,-142.7893,77.3053,-129.47388
2026-03-22 17:39:36.085,1774172376085,1774172376085,-0.9790039,-0.13134766,-0.1665039,-0.12207031,-0.12207031,0.0,0.0,0.0,0.0,-142.7124,77.32178,-129.44641
2026-03-22 17:39:36.173,1774172376173,1774172376173,-0.9790039,-0.13427734,-0.16748047,-0.30517578,-0.36621094,0.0,0.0,0.0,0.0,-142.7124,77.32178,-129.44641
2026-03-22 17:39:36.185,1774172376185,1774172376185,-0.9790039,-0.13427734,-0.16748047,-0.30517578,-0.36621094,0.0,0.0,0.0,0.0,-142.58057,77.33826,-129.39697
2026-03-22 17:39:36.273,1774172376273,1774172376273,-0.9790039,-0.13330078,-0.16601562,0.061035156,-0.48828125,0.0,0.0,0.0,0.0,-142.58057,77.33826,-129.39697
2026-03-22 17:39:36.284,1774172376284,1774172376284,-0.9790039,-0.13330078,-0.16601562,0.061035156,-0.48828125,0.0,0.0,0.0,0.0,-142.37183,77.37671,-129.28711
2026-03-22 17:39:36.373,1774172376373,1774172376373,-0.97802734,-0.13427734,-0.16503906,0.18310547,-0.48828125,0.0,0.0,0.0,0.0,-142.37183,77.37671,-129.28711
2026-03-22 17:39:36.384,1774172376384,1774172376384,-0.97802734,-0.13427734,-0.16503906,0.18310547,-0.48828125,0.0,0.0,0.0,0.0,-142.13013,77.420654,-129.15527
2026-03-22 17:39:36.472,1774172376472,1774172376472,-0.9819336,-0.13476562,-0.16455078,0.0,-0.5493164,0.36621094,0.0,0.0,0.0,-142.13013,77.420654,-129.15527
2026-03-22 17:39:36.484,1774172376484,1774172376484,-0.9819336,-0.13476562,-0.16455078,0.0,-0.5493164,0.36621094,0.0,0.0,0.0,-141.96533,77.47009,-129.08386
2026-03-22 17:39:36.572,1774172376572,1774172376572,-0.98046875,-0.13330078,-0.16308594,0.12207031,-0.061035156,0.4272461,0.0,0.0,0.0,-141.96533,77.47009,-129.08386
2026-03-22 17:39:36.583,1774172376583,1774172376583,-0.98046875,-0.13330078,-0.16308594,0.12207031,-0.061035156,0.4272461,0.0,0.0,0.0,-141.94885,77.508545,-129.16626
2026-03-22 17:39:36.672,1774172376672,1774172376672,-0.98291016,-0.13378906,-0.16113281,0.12207031,-0.18310547,0.7324219,0.0,0.0,0.0,-141.94885,77.508545,-129.16626
2026-03-22 17:39:36.683,1774172376683,1774172376683,-0.98291016,-0.13378906,-0.16113281,0.12207031,-0.18310547,0.7324219,0.0,0.0,0.0,-141.98181,77.56897,-129.31458
2026-03-22 17:39:36.771,1774172376771,1774172376771,-0.98046875,-0.13134766,-0.15771484,-0.18310547,0.6713867,1.0375977,0.0,0.0,0.0,-141.98181,77.56897,-129.31458
2026-03-22 17:39:36.783,1774172376783,1774172376783,-0.98046875,-0.13134766,-0.15771484,-0.18310547,0.6713867,1.0375977,0.0,0.0,0.0,-142.28394,77.58545,-129.75403
2026-03-22 17:39:36.871,1774172376871,1774172376871,-0.98095703,-0.12597656,-0.16259766,1.4648438,0.18310547,2.1362305,0.0,0.0,0.0,-142.28394,77.58545,-129.75403
2026-03-22 17:39:36.883,1774172376883,1774172376883,-0.98095703,-0.12597656,-0.16259766,1.4648438,0.18310547,2.1362305,0.0,0.0,0.0,-142.69043,77.700806,-130.34729
2026-03-22 17:39:36.971,1774172376971,1774172376971,-0.9838867,-0.11376953,-0.15673828,4.638672,0.12207031,2.8686523,0.0,0.0,0.0,-142.69043,77.700806,-130.34729
2026-03-22 17:39:36.982,1774172376982,1774172376982,-0.9838867,-0.11376953,-0.15673828,4.638672,0.12207031,2.8686523,0.0,0.0,0.0,-143.37708,77.821655,-131.45691
2026-03-22 17:39:37.071,1774172377071,1774172377071,-0.984375,-0.115234375,-0.1640625,7.9956055,0.18310547,2.8686523,0.0,0.0,0.0,-143.37708,77.821655,-131.45691
2026-03-22 17:39:37.082,1774172377082,1774172377082,-0.984375,-0.115234375,-0.1640625,7.9956055,0.18310547,2.8686523,0.0,0.0,0.0,-143.78357,78.01941,-132.594
2026-03-22 17:39:37.170,1774172377170,1774172377170,-0.9838867,-0.111816406,-0.15625,9.94873,1.0986328,3.112793,0.0,0.0,0.0,-143.78357,78.01941,-132.594
2026-03-22 17:39:37.182,1774172377182,1774172377182,-0.9838867,-0.111816406,-0.15625,9.94873,1.0986328,3.112793,0.0,0.0,0.0,-144.2395,78.12927,-134.0387
2026-03-22 17:39:37.270,1774172377270,1774172377270,-0.98583984,-0.11621094,-0.15771484,10.192871,1.5258789,3.2958984,0.0,0.0,0.0,-144.2395,78.12927,-134.0387
2026-03-22 17:39:37.282,1774172377282,1774172377282,-0.98583984,-0.11621094,-0.15771484,10.192871,1.5258789,3.2958984,0.0,0.0,0.0,-144.78882,78.239136,-135.68115
2026-03-22 17:39:37.370,1774172377370,1774172377370,-0.98095703,-0.118652344,-0.15136719,7.9956055,0.9765625,2.9907227,0.0,0.0,0.0,-144.78882,78.239136,-135.68115
2026-03-22 17:39:37.381,1774172377381,1774172377381,-0.98095703,-0.118652344,-0.15136719,7.9956055,0.9765625,2.9907227,0.0,0.0,0.0,-145.50293,78.31604,-137.44995
2026-03-22 17:39:37.469,1774172377469,1774172377469,-0.9824219,-0.11767578,-0.15576172,6.1035156,1.2207031,2.1362305,0.0,0.0,0.0,-145.50293,78.31604,-137.44995
2026-03-22 17:39:37.481,1774172377481,1774172377481,-0.9824219,-0.11767578,-0.15576172,6.1035156,1.2207031,2.1362305,0.0,0.0,0.0,-145.93689,78.40393,-138.80676
2026-03-22 17:39:37.569,1774172377569,1774172377569,-0.98046875,-0.110839844,-0.15576172,3.540039,0.7324219,2.319336,0.0,0.0,0.0,-145.93689,78.40393,-138.80676
2026-03-22 17:39:37.580,1774172377580,1774172377580,-0.98046875,-0.110839844,-0.15576172,3.540039,0.7324219,2.319336,0.0,0.0,0.0,-146.35986,78.464355,-139.94934
2026-03-22 17:39:37.669,1774172377669,1774172377669,-0.98828125,-0.10986328,-0.15429688,0.30517578,0.4272461,2.746582,0.0,0.0,0.0,-146.35986,78.464355,-139.94934
2026-03-22 17:39:37.680,1774172377680,1774172377680,-0.98828125,-0.10986328,-0.15429688,0.30517578,0.4272461,2.746582,0.0,0.0,0.0,-147.2992,78.54675,-141.31714
2026-03-22 17:39:37.768,1774172377768,1774172377768,-0.97753906,-0.100097656,-0.15673828,-0.79345703,1.4648438,2.0751953,0.0,0.0,0.0,-147.2992,78.54675,-141.31714
2026-03-22 17:39:37.780,1774172377780,1774172377780,-0.97753906,-0.100097656,-0.15673828,-0.79345703,1.4648438,2.0751953,0.0,0.0,0.0,-148.37036,78.601685,-142.58057
2026-03-22 17:39:37.868,1774172377868,1774172377868,-0.9848633,-0.10449219,-0.1640625,-2.0141602,1.6479492,1.3427734,0.0,0.0,0.0,-148.37036,78.601685,-142.58057
2026-03-22 17:39:37.880,1774172377880,1774172377880,-0.9848633,-0.10449219,-0.1640625,-2.0141602,1.6479492,1.3427734,0.0,0.0,0.0,-149.32068,78.5907,-143.61328
2026-03-22 17:39:37.968,1774172377968,1774172377968,-0.98046875,-0.09716797,-0.16455078,-2.5024414,0.91552734,0.91552734,0.0,0.0,0.0,-149.32068,78.5907,-143.61328
2026-03-22 17:39:37.979,1774172377979,1774172377979,-0.98046875,-0.09716797,-0.16455078,-2.5024414,0.91552734,0.91552734,0.0,0.0,0.0,-150.271,78.52478,-144.54712
2026-03-22 17:39:38.067,1774172378067,1774172378067,-0.98535156,-0.10253906,-0.16552734,-2.4414062,0.0,-0.061035156,0.0,0.0,0.0,-150.271,78.52478,-144.54712
2026-03-22 17:39:38.080,1774172378080,1774172378080,-0.98535156,-0.10253906,-0.16552734,-2.4414062,0.0,-0.061035156,0.0,0.0,0.0,-150.64453,78.51929,-144.83826
2026-03-22 17:39:38.167,1774172378167,1774172378167,-0.98291016,-0.09814453,-0.16552734,-2.0141602,-0.30517578,-0.8544922,0.0,0.0,0.0,-150.64453,78.51929,-144.83826
2026-03-22 17:39:38.179,1774172378179,1774172378179,-0.98291016,-0.09814453,-0.16552734,-2.0141602,-0.30517578,-0.8544922,0.0,0.0,0.0,-150.48523,78.513794,-144.60754
2026-03-22 17:39:38.267,1774172378267,1774172378267,-0.9824219,-0.100097656,-0.16503906,-1.0986328,-0.12207031,-1.2817383,0.0,0.0,0.0,-150.48523,78.513794,-144.60754
2026-03-22 17:39:38.278,1774172378278,1774172378278,-0.9824219,-0.100097656,-0.16503906,-1.0986328,-0.12207031,-1.2817383,0.0,0.0,0.0,-150.06775,78.480835,-144.10767
2026-03-22 17:39:38.367,1774172378367,1774172378367,-0.98339844,-0.1015625,-0.16796875,-0.79345703,-0.8544922,-1.2207031,0.0,0.0,0.0,-150.06775,78.480835,-144.10767
2026-03-22 17:39:38.378,1774172378378,1774172378378,-0.98339844,-0.1015625,-0.16796875,-0.79345703,-0.8544922,-1.2207031,0.0,0.0,0.0,-149.52942,78.464355,-143.53638
2026-03-22 17:39:38.467,1774172378467,1774172378467,-0.98095703,-0.10205078,-0.16357422,0.30517578,-0.36621094,-1.4648438,0.0,0.0,0.0,-149.52942,78.464355,-143.53638
2026-03-22 17:39:38.478,1774172378478,1774172378478,-0.98095703,-0.10205078,-0.16357422,0.30517578,-0.36621094,-1.4648438,0.0,0.0,0.0,-148.74939,78.45886,-142.77832
2026-03-22 17:39:38.566,1774172378566,1774172378566,-0.9838867,-0.1015625,-0.16503906,0.24414062,-0.8544922,-0.9765625,0.0,0.0,0.0,-148.74939,78.45886,-142.77832
2026-03-22 17:39:38.578,1774172378578,1774172378578,-0.9838867,-0.1015625,-0.16503906,0.24414062,-0.8544922,-0.9765625,0.0,0.0,0.0,-148.08472,78.40393,-142.17407
2026-03-22 17:39:38.666,1774172378666,1774172378666,-0.9848633,-0.10644531,-0.16748047,0.0,0.18310547,-0.61035156,0.0,0.0,0.0,-148.08472,78.40393,-142.17407
2026-03-22 17:39:38.677,1774172378677,1774172378677,-0.9848633,-0.10644531,-0.16748047,0.0,0.18310547,-0.61035156,0.0,0.0,0.0,-147.59033,78.41492,-141.70715
2026-03-22 17:39:38.766,1774172378766,1774172378766,-0.98291016,-0.107910156,-0.16455078,-0.061035156,-0.12207031,-0.4272461,0.0,0.0,0.0,-147.59033,78.41492,-141.70715
2026-03-22 17:39:38.777,1774172378777,1774172378777,-0.98291016,-0.107910156,-0.16455078,-0.061035156,-0.12207031,-0.4272461,0.0,0.0,0.0,-147.32666,78.38745,-141.46545
2026-03-22 17:39:38.865,1774172378865,1774172378865,-0.9814453,-0.106933594,-0.1616211,-0.7324219,-0.30517578,0.0,0.0,0.0,0.0,-147.32666,78.38745,-141.46545
2026-03-22 17:39:38.877,1774172378877,1774172378877,-0.9814453,-0.106933594,-0.1616211,-0.7324219,-0.30517578,0.0,0.0,0.0,0.0,-147.27722,78.38196,-141.39404
2026-03-22 17:39:38.965,1774172378965,1774172378965,-0.9838867,-0.106933594,-0.16113281,-1.2207031,-0.79345703,0.0,0.0,0.0,0.0,-147.27722,78.38196,-141.39404
2026-03-22 17:39:38.976,1774172378976,1774172378976,-0.9838867,-0.106933594,-0.16113281,-1.2207031,-0.79345703,0.0,0.0,0.0,0.0,-147.23328,78.4259,-141.29517
2026-03-22 17:39:39.065,1774172379065,1774172379065,-0.9838867,-0.109375,-0.1616211,-1.2207031,-1.0375977,-0.061035156,0.0,0.0,0.0,-147.23328,78.4259,-141.29517
2026-03-22 17:39:39.076,1774172379076,1774172379076,-0.9838867,-0.109375,-0.1616211,-1.2207031,-1.0375977,-0.061035156,0.0,0.0,0.0,-147.09045,78.497314,-141.06995
2026-03-22 17:39:39.164,1774172379164,1774172379164,-0.98339844,-0.11035156,-0.15576172,-1.4038086,-1.4038086,-0.12207031,0.0,0.0,0.0,-147.09045,78.497314,-141.06995
2026-03-22 17:39:39.176,1774172379176,1774172379176,-0.98339844,-0.11035156,-0.15576172,-1.4038086,-1.4038086,-0.12207031,0.0,0.0,0.0,-146.77185,78.60718,-140.67993
2026-03-22 17:39:39.264,1774172379264,1774172379264,-0.98291016,-0.107421875,-0.1508789,-1.4038086,-0.9765625,-0.24414062,0.0,0.0,0.0,-146.77185,78.60718,-140.67993
2026-03-22 17:39:39.275,1774172379275,1774172379275,-0.98291016,-0.107421875,-0.1508789,-1.4038086,-0.9765625,-0.24414062,0.0,0.0,0.0,-146.46423,78.67859,-140.31738
2026-03-22 17:39:39.364,1774172379364,1774172379364,-0.98339844,-0.107910156,-0.15185547,-1.0986328,-0.30517578,-0.18310547,0.0,0.0,0.0,-146.46423,78.67859,-140.31738
2026-03-22 17:39:39.376,1774172379376,1774172379376,-0.98339844,-0.107910156,-0.15185547,-1.0986328,-0.30517578,-0.18310547,0.0,0.0,0.0,-146.18408,78.76099,-140.00977
2026-03-22 17:39:39.464,1774172379464,1774172379464,-0.98339844,-0.10888672,-0.1508789,-0.9765625,-0.8544922,-0.24414062,0.0,0.0,0.0,-146.18408,78.76099,-140.00977
2026-03-22 17:39:39.475,1774172379475,1774172379475,-0.98339844,-0.10888672,-0.1508789,-0.9765625,-0.8544922,-0.24414062,0.0,0.0,0.0,-145.99182,78.79944,-139.80103
2026-03-22 17:39:39.563,1774172379563,1774172379563,-0.98583984,-0.11035156,-0.14990234,-0.4272461,-0.79345703,-0.36621094,0.0,0.0,0.0,-145.99182,78.79944,-139.80103
2026-03-22 17:39:39.575,1774172379575,1774172379575,-0.98583984,-0.11035156,-0.14990234,-0.4272461,-0.79345703,-0.36621094,0.0,0.0,0.0,-145.62378,78.87085,-139.46045
2026-03-22 17:39:39.663,1774172379663,1774172379663,-0.98535156,-0.111816406,-0.14550781,-0.61035156,-0.7324219,-0.36621094,0.0,0.0,0.0,-145.62378,78.87085,-139.46045
2026-03-22 17:39:39.674,1774172379674,1774172379674,-0.98535156,-0.111816406,-0.14550781,-0.61035156,-0.7324219,-0.36621094,0.0,0.0,0.0,-145.15686,78.92029,-139.06494
2026-03-22 17:39:39.763,1774172379763,1774172379763,-0.9848633,-0.10986328,-0.14501953,-0.6713867,-0.79345703,-0.18310547,0.0,0.0,0.0,-145.15686,78.92029,-139.06494
2026-03-22 17:39:39.774,1774172379774,1774172379774,-0.9848633,-0.10986328,-0.14501953,-0.6713867,-0.79345703,-0.18310547,0.0,0.0,0.0,-144.69543,78.986206,-138.68591
2026-03-22 17:39:39.862,1774172379862,1774172379862,-0.9863281,-0.11328125,-0.14404297,-0.5493164,-0.61035156,-0.5493164,0.0,0.0,0.0,-144.69543,78.986206,-138.68591
2026-03-22 17:39:39.874,1774172379874,1774172379874,-0.9863281,-0.11328125,-0.14404297,-0.5493164,-0.61035156,-0.5493164,0.0,0.0,0.0,-144.2395,79.03015,-138.30139
2026-03-22 17:39:39.962,1774172379962,1774172379962,-0.9848633,-0.11035156,-0.14111328,-0.18310547,0.12207031,-0.30517578,0.0,0.0,0.0,-144.2395,79.03015,-138.30139
2026-03-22 17:39:39.974,1774172379974,1774172379974,-0.9848633,-0.11035156,-0.14111328,-0.18310547,0.12207031,-0.30517578,0.0,0.0,0.0,-143.9154,79.02466,-138.0597
2026-03-22 17:39:40.062,1774172380062,1774172380062,-0.9868164,-0.11279297,-0.14257812,-0.24414062,0.18310547,-0.12207031,0.0,0.0,0.0,-143.9154,79.02466,-138.0597
2026-03-22 17:39:40.073,1774172380073,1774172380073,-0.9868164,-0.11279297,-0.14257812,-0.24414062,0.18310547,-0.12207031,0.0,0.0,0.0,-143.7616,79.035645,-138.00476
2026-03-22 17:39:40.161,1774172380161,1774172380161,-0.98583984,-0.11425781,-0.1430664,-0.12207031,0.79345703,-0.36621094,0.0,0.0,0.0,-143.7616,79.035645,-138.00476
2026-03-22 17:39:40.173,1774172380173,1774172380173,-0.98583984,-0.11425781,-0.1430664,-0.12207031,0.79345703,-0.36621094,0.0,0.0,0.0,-143.64624,79.002686,-138.02124
2026-03-22 17:39:40.261,1774172380261,1774172380261,-0.984375,-0.11425781,-0.14404297,0.12207031,1.2207031,0.0,0.0,0.0,0.0,-143.64624,79.002686,-138.02124
2026-03-22 17:39:40.272,1774172380272,1774172380272,-0.984375,-0.11425781,-0.14404297,0.12207031,1.2207031,0.0,0.0,0.0,0.0,-143.79456,78.92029,-138.31787
2026-03-22 17:39:40.361,1774172380361,1774172380361,-0.9814453,-0.11328125,-0.14453125,-0.61035156,0.061035156,0.18310547,0.0,0.0,0.0,-143.79456,78.92029,-138.31787
2026-03-22 17:39:40.378,1774172380378,1774172380378,-0.9814453,-0.11328125,-0.14453125,-0.61035156,0.061035156,0.18310547,0.0,0.0,0.0,-143.93188,78.914795,-138.54858
2026-03-22 17:39:40.460,1774172380460,1774172380460,-0.984375,-0.114746094,-0.15039062,-0.12207031,0.24414062,-0.61035156,0.0,0.0,0.0,-143.93188,78.914795,-138.54858
2026-03-22 17:39:40.472,1774172380472,1774172380472,-0.984375,-0.114746094,-0.15039062,-0.12207031,0.24414062,-0.61035156,0.0,0.0,0.0,-143.7616,78.89282,-138.49915
2026-03-22 17:39:40.560,1774172380560,1774172380560,-0.98583984,-0.11669922,-0.15136719,-0.4272461,0.6713867,-0.30517578,0.0,0.0,0.0,-143.7616,78.89282,-138.49915
2026-03-22 17:39:40.572,1774172380572,1774172380572,-0.98583984,-0.11669922,-0.15136719,-0.4272461,0.6713867,-0.30517578,0.0,0.0,0.0,-143.61328,78.82141,-138.4607
2026-03-22 17:39:40.660,1774172380660,1774172380660,-0.984375,-0.11425781,-0.1508789,-0.7324219,0.6713867,0.12207031,0.0,0.0,0.0,-143.61328,78.82141,-138.4607
2026-03-22 17:39:40.671,1774172380671,1774172380671,-0.984375,-0.11425781,-0.1508789,-0.7324219,0.6713867,0.12207031,0.0,0.0,0.0,-143.71216,78.793945,-138.60901
2026-03-22 17:39:40.760,1774172380760,1774172380760,-0.9863281,-0.115722656,-0.15234375,-0.61035156,1.2817383,0.12207031,0.0,0.0,0.0,-143.71216,78.793945,-138.60901
2026-03-22 17:39:40.771,1774172380771,1774172380771,-0.9863281,-0.115722656,-0.15234375,-0.61035156,1.2817383,0.12207031,0.0,0.0,0.0,-144.02527,78.71155,-138.97705
2026-03-22 17:39:40.859,1774172380859,1774172380859,-0.98339844,-0.115722656,-0.15283203,-0.48828125,1.2207031,0.12207031,0.0,0.0,0.0,-144.02527,78.71155,-138.97705
2026-03-22 17:39:40.871,1774172380871,1774172380871,-0.98339844,-0.115722656,-0.15283203,-0.48828125,1.2207031,0.12207031,0.0,0.0,0.0,-144.42078,78.61267,-139.44946
2026-03-22 17:39:40.959,1774172380959,1774172380959,-0.9838867,-0.115234375,-0.15820312,-0.48828125,1.5258789,0.0,0.0,0.0,0.0,-144.42078,78.61267,-139.44946
2026-03-22 17:39:40.971,1774172380971,1774172380971,-0.9838867,-0.115234375,-0.15820312,-0.48828125,1.5258789,0.0,0.0,0.0,0.0,-144.73389,78.513794,-139.86145
2026-03-22 17:39:41.059,1774172381059,1774172381059,-0.97998047,-0.11621094,-0.15966797,-0.24414062,1.3427734,0.0,0.0,0.0,0.0,-144.73389,78.513794,-139.86145
2026-03-22 17:39:41.070,1774172381070,1774172381070,-0.97998047,-0.11621094,-0.15966797,-0.24414062,1.3427734,0.0,0.0,0.0,0.0,-144.97559,78.41492,-140.20203
2026-03-22 17:39:41.159,1774172381159,1774172381159,-0.98583984,-0.12011719,-0.15820312,-0.4272461,0.79345703,0.0,0.0,0.0,0.0,-144.97559,78.41492,-140.20203
2026-03-22 17:39:41.170,1774172381170,1774172381170,-0.98583984,-0.12011719,-0.15820312,-0.4272461,0.79345703,0.0,0.0,0.0,0.0,-145.25574,78.31055,-140.59204
2026-03-22 17:39:41.258,1774172381258,1774172381258,-0.98046875,-0.1171875,-0.1640625,-0.12207031,0.6713867,0.0,0.0,0.0,0.0,-145.25574,78.31055,-140.59204
2026-03-22 17:39:41.270,1774172381270,1774172381270,-0.98046875,-0.1171875,-0.1640625,-0.12207031,0.6713867,0.0,0.0,0.0,0.0,-145.32715,78.2666,-140.77332
2026-03-22 17:39:41.358,1774172381358,1774172381358,-0.9819336,-0.11767578,-0.16064453,-0.12207031,0.79345703,0.0,0.0,0.0,0.0,-145.32715,78.2666,-140.77332
2026-03-22 17:39:41.370,1774172381370,1774172381370,-0.9819336,-0.11767578,-0.16064453,-0.12207031,0.79345703,0.0,0.0,0.0,0.0,-145.43152,78.21167,-140.97656
2026-03-22 17:39:41.458,1774172381458,1774172381458,-0.98095703,-0.1171875,-0.16308594,-0.48828125,-0.36621094,0.24414062,0.0,0.0,0.0,-145.43152,78.21167,-140.97656
2026-03-22 17:39:41.470,1774172381470,1774172381470,-0.98095703,-0.1171875,-0.16308594,-0.48828125,-0.36621094,0.24414062,0.0,0.0,0.0,-145.4425,78.21716,-141.07544
2026-03-22 17:39:41.557,1774172381557,1774172381557,-0.984375,-0.115722656,-0.16064453,-0.24414062,-0.18310547,0.18310547,0.0,0.0,0.0,-145.4425,78.21716,-141.07544
2026-03-22 17:39:41.569,1774172381569,1774172381569,-0.984375,-0.115722656,-0.16064453,-0.24414062,-0.18310547,0.18310547,0.0,0.0,0.0,-145.38208,78.24463,-141.1029
2026-03-22 17:39:41.657,1774172381657,1774172381657,-0.98046875,-0.115234375,-0.16015625,-0.30517578,-0.4272461,0.30517578,0.0,0.0,0.0,-145.38208,78.24463,-141.1029
2026-03-22 17:39:41.669,1774172381669,1774172381669,-0.98046875,-0.115234375,-0.16015625,-0.30517578,-0.4272461,0.30517578,0.0,0.0,0.0,-145.31067,78.288574,-141.11389
2026-03-22 17:39:41.757,1774172381757,1774172381757,-0.98339844,-0.115234375,-0.15625,-0.61035156,-0.5493164,0.4272461,0.0,0.0,0.0,-145.31067,78.288574,-141.11389
2026-03-22 17:39:41.768,1774172381768,1774172381768,-0.98339844,-0.115234375,-0.15625,-0.61035156,-0.5493164,0.4272461,0.0,0.0,0.0,-145.24475,78.359985,-141.09741
2026-03-22 17:39:41.856,1774172381856,1774172381856,-0.9819336,-0.11621094,-0.15722656,-0.61035156,-0.5493164,0.30517578,0.0,0.0,0.0,-145.24475,78.359985,-141.09741
2026-03-22 17:39:41.868,1774172381868,1774172381868,-0.9819336,-0.11621094,-0.15722656,-0.61035156,-0.5493164,0.30517578,0.0,0.0,0.0,-145.16235,78.43689,-141.07544
2026-03-22 17:39:41.956,1774172381956,1774172381956,-0.9863281,-0.11376953,-0.15527344,-0.5493164,-0.12207031,0.30517578,0.0,0.0,0.0,-145.16235,78.43689,-141.07544
2026-03-22 17:39:41.968,1774172381968,1774172381968,-0.9863281,-0.11376953,-0.15527344,-0.5493164,-0.12207031,0.30517578,0.0,0.0,0.0,-145.16785,78.47534,-141.16882
2026-03-22 17:39:42.056,1774172382056,1774172382056,-0.9785156,-0.111816406,-0.15332031,-0.91552734,-0.12207031,0.5493164,0.0,0.0,0.0,-145.16785,78.47534,-141.16882
2026-03-22 17:39:42.068,1774172382068,1774172382068,-0.9785156,-0.111816406,-0.15332031,-0.91552734,-0.12207031,0.5493164,0.0,0.0,0.0,-145.25574,78.53577,-141.30615
2026-03-22 17:39:42.156,1774172382156,1774172382156,-0.9848633,-0.11279297,-0.15332031,-1.0375977,-0.061035156,0.36621094,0.0,0.0,0.0,-145.25574,78.53577,-141.30615
2026-03-22 17:39:42.167,1774172382167,1774172382167,-0.9848633,-0.11279297,-0.15332031,-1.0375977,-0.061035156,0.36621094,0.0,0.0,0.0,-145.39307,78.57422,-141.49292
2026-03-22 17:39:42.255,1774172382255,1774172382255,-0.9838867,-0.111816406,-0.1538086,-0.79345703,0.24414062,0.061035156,0.0,0.0,0.0,-145.39307,78.57422,-141.49292
2026-03-22 17:39:42.267,1774172382267,1774172382267,-0.9838867,-0.111816406,-0.1538086,-0.79345703,0.24414062,0.061035156,0.0,0.0,0.0,-145.46997,78.57422,-141.63025
2026-03-22 17:39:42.355,1774172382355,1774172382355,-0.9838867,-0.11279297,-0.15429688,-0.24414062,0.36621094,-0.061035156,0.0,0.0,0.0,-145.46997,78.57422,-141.63025
2026-03-22 17:39:42.366,1774172382366,1774172382366,-0.9838867,-0.11279297,-0.15429688,-0.24414062,0.36621094,-0.061035156,0.0,0.0,0.0,-145.3711,78.57422,-141.63574
2026-03-22 17:39:42.455,1774172382455,1774172382455,-0.984375,-0.11328125,-0.1538086,0.0,0.48828125,0.0,0.0,0.0,0.0,-145.3711,78.57422,-141.63574
2026-03-22 17:39:42.466,1774172382466,1774172382466,-0.984375,-0.11328125,-0.1538086,0.0,0.48828125,0.0,0.0,0.0,0.0,-145.35461,78.552246,-141.7456
2026-03-22 17:39:42.555,1774172382555,1774172382555,-0.984375,-0.11376953,-0.15673828,0.30517578,0.8544922,0.061035156,0.0,0.0,0.0,-145.35461,78.552246,-141.7456
2026-03-22 17:39:42.566,1774172382566,1774172382566,-0.984375,-0.11376953,-0.15673828,0.30517578,0.8544922,0.061035156,0.0,0.0,0.0,-145.41504,78.5083,-141.95435
2026-03-22 17:39:42.654,1774172382654,1774172382654,-0.9824219,-0.11425781,-0.16015625,0.12207031,0.4272461,0.30517578,0.0,0.0,0.0,-145.41504,78.5083,-141.95435
2026-03-22 17:39:42.666,1774172382666,1774172382666,-0.9824219,-0.11425781,-0.16015625,0.12207031,0.4272461,0.30517578,0.0,0.0,0.0,-145.59631,78.46985,-142.28394
2026-03-22 17:39:42.754,1774172382754,1774172382754,-0.98339844,-0.11425781,-0.15673828,0.0,0.6713867,0.24414062,0.0,0.0,0.0,-145.59631,78.46985,-142.28394
2026-03-22 17:39:42.765,1774172382765,1774172382765,-0.98339844,-0.11425781,-0.15673828,0.0,0.6713867,0.24414062,0.0,0.0,0.0,-145.70618,78.45337,-142.53662
2026-03-22 17:39:42.854,1774172382854,1774172382854,-0.9814453,-0.111816406,-0.15673828,-0.18310547,0.24414062,0.24414062,0.0,0.0,0.0,-145.70618,78.45337,-142.53662
2026-03-22 17:39:42.865,1774172382865,1774172382865,-0.9814453,-0.111816406,-0.15673828,-0.18310547,0.24414062,0.24414062,0.0,0.0,0.0,-145.81604,78.409424,-142.7948
2026-03-22 17:39:42.953,1774172382953,1774172382953,-0.9863281,-0.11279297,-0.1586914,-0.61035156,0.8544922,0.48828125,0.0,0.0,0.0,-145.81604,78.409424,-142.7948
2026-03-22 17:39:42.965,1774172382965,1774172382965,-0.9863281,-0.11279297,-0.1586914,-0.61035156,0.8544922,0.48828125,0.0,0.0,0.0,-146.04126,78.39844,-143.1134
2026-03-22 17:39:43.053,1774172383053,1774172383053,-0.9814453,-0.11279297,-0.15917969,-0.91552734,0.91552734,0.61035156,0.0,0.0,0.0,-146.04126,78.39844,-143.1134
2026-03-22 17:39:43.064,1774172383064,1774172383064,-0.9814453,-0.11279297,-0.15917969,-0.91552734,0.91552734,0.61035156,0.0,0.0,0.0,-146.42578,78.36548,-143.56934
2026-03-22 17:39:43.153,1774172383153,1774172383153,-0.9838867,-0.110839844,-0.15966797,-0.7324219,0.8544922,0.4272461,0.0,0.0,0.0,-146.42578,78.36548,-143.56934
2026-03-22 17:39:43.164,1774172383164,1774172383164,-0.9838867,-0.110839844,-0.15966797,-0.7324219,0.8544922,0.4272461,0.0,0.0,0.0,-146.82678,78.33252,-144.04175
2026-03-22 17:39:43.252,1774172383252,1774172383252,-0.9819336,-0.10888672,-0.1616211,-0.4272461,0.8544922,0.12207031,0.0,0.0,0.0,-146.82678,78.33252,-144.04175
2026-03-22 17:39:43.264,1774172383264,1774172383264,-0.9819336,-0.10888672,-0.1616211,-0.4272461,0.8544922,0.12207031,0.0,0.0,0.0,-147.16187,78.272095,-144.45923
2026-03-22 17:39:43.352,1774172383352,1774172383352,-0.9824219,-0.111328125,-0.16503906,-0.36621094,0.8544922,0.061035156,0.0,0.0,0.0,-147.16187,78.272095,-144.45923
2026-03-22 17:39:43.364,1774172383364,1774172383364,-0.9824219,-0.111328125,-0.16503906,-0.36621094,0.8544922,0.061035156,0.0,0.0,0.0,-147.39258,78.21716,-144.78333
2026-03-22 17:39:43.452,1774172383452,1774172383452,-0.984375,-0.111816406,-0.16894531,0.0,1.0986328,-0.24414062,0.0,0.0,0.0,-147.39258,78.21716,-144.78333
2026-03-22 17:39:43.463,1774172383463,1774172383463,-0.984375,-0.111816406,-0.16894531,0.0,1.0986328,-0.24414062,0.0,0.0,0.0,-147.5354,78.14026,-145.03052
2026-03-22 17:39:43.551,1774172383551,1774172383551,-0.98046875,-0.110839844,-0.16992188,0.12207031,0.7324219,-0.12207031,0.0,0.0,0.0,-147.5354,78.14026,-145.03052
2026-03-22 17:39:43.563,1774172383563,1774172383563,-0.98046875,-0.110839844,-0.16992188,0.12207031,0.7324219,-0.12207031,0.0,0.0,0.0,-147.55188,78.05786,-145.16235
2026-03-22 17:39:43.651,1774172383651,1774172383651,-0.9838867,-0.11328125,-0.16601562,-0.48828125,0.0,0.24414062,0.0,0.0,0.0,-147.55188,78.05786,-145.16235
2026-03-22 17:39:43.663,1774172383663,1774172383663,-0.9838867,-0.11328125,-0.16601562,-0.48828125,0.0,0.24414062,0.0,0.0,0.0,-147.66724,78.00842,-145.3601
2026-03-22 17:39:43.751,1774172383751,1774172383751,-0.9824219,-0.110839844,-0.171875,-0.30517578,0.18310547,0.24414062,0.0,0.0,0.0,-147.66724,78.00842,-145.3601
2026-03-22 17:39:43.763,1774172383763,1774172383763,-0.9824219,-0.110839844,-0.171875,-0.30517578,0.18310547,0.24414062,0.0,0.0,0.0,-147.63977,78.04138,-145.39856
2026-03-22 17:39:43.851,1774172383851,1774172383851,-0.9814453,-0.107421875,-0.17041016,-0.6713867,0.12207031,0.30517578,0.0,0.0,0.0,-147.63977,78.04138,-145.39856
2026-03-22 17:39:43.863,1774172383863,1774172383863,-0.9814453,-0.107421875,-0.17041016,-0.6713867,0.12207031,0.30517578,0.0,0.0,0.0,-147.74963,78.03589,-145.55786
2026-03-22 17:39:43.950,1774172383950,1774172383950,-0.98339844,-0.111816406,-0.171875,-0.7324219,0.18310547,0.36621094,0.0,0.0,0.0,-147.74963,78.03589,-145.55786
2026-03-22 17:39:43.962,1774172383962,1774172383962,-0.98339844,-0.111816406,-0.171875,-0.7324219,0.18310547,0.36621094,0.0,0.0,0.0,-147.92542,78.05237,-145.7666
2026-03-22 17:39:44.050,1774172384050,1774172384050,-0.98046875,-0.10839844,-0.16894531,-0.7324219,0.5493164,0.18310547,0.0,0.0,0.0,-147.92542,78.05237,-145.7666
2026-03-22 17:39:44.062,1774172384062,1774172384062,-0.98046875,-0.10839844,-0.16894531,-0.7324219,0.5493164,0.18310547,0.0,0.0,0.0,-148.15063,78.01941,-146.04126
2026-03-22 17:39:44.150,1774172384150,1774172384150,-0.9819336,-0.10986328,-0.16894531,-0.4272461,0.36621094,0.0,0.0,0.0,0.0,-148.15063,78.01941,-146.04126
2026-03-22 17:39:44.161,1774172384161,1774172384161,-0.9819336,-0.10986328,-0.16894531,-0.4272461,0.36621094,0.0,0.0,0.0,0.0,-148.21655,78.00293,-146.15662
2026-03-22 17:39:44.249,1774172384249,1774172384249,-0.9814453,-0.10986328,-0.16992188,-0.48828125,0.0,-0.24414062,0.0,0.0,0.0,-148.21655,78.00293,-146.15662
2026-03-22 17:39:44.261,1774172384261,1774172384261,-0.9814453,-0.10986328,-0.16992188,-0.48828125,0.0,-0.24414062,0.0,0.0,0.0,-148.12866,77.99744,-146.13464
2026-03-22 17:39:44.349,1774172384349,1774172384349,-0.98046875,-0.10986328,-0.17089844,-0.48828125,-0.12207031,-0.30517578,0.0,0.0,0.0,-148.12866,77.99744,-146.13464
2026-03-22 17:39:44.361,1774172384361,1774172384361,-0.98046875,-0.10986328,-0.17089844,-0.48828125,-0.12207031,-0.30517578,0.0,0.0,0.0,-148.00781,77.96997,-146.06323
2026-03-22 17:39:44.449,1774172384449,1774172384449,-0.98095703,-0.111328125,-0.1694336,-0.30517578,0.48828125,-0.30517578,0.0,0.0,0.0,-148.00781,77.96997,-146.06323
2026-03-22 17:39:44.460,1774172384460,1774172384460,-0.98095703,-0.111328125,-0.1694336,-0.30517578,0.48828125,-0.30517578,0.0,0.0,0.0,-147.87598,77.95349,-145.98083
2026-03-22 17:39:44.549,1774172384549,1774172384549,-0.98046875,-0.110839844,-0.1694336,-0.48828125,-0.48828125,-0.30517578,0.0,0.0,0.0,-147.87598,77.95349,-145.98083
2026-03-22 17:39:44.560,1774172384560,1774172384560,-0.98046875,-0.110839844,-0.1694336,-0.48828125,-0.48828125,-0.30517578,0.0,0.0,0.0,-147.72766,77.948,-145.87646
2026-03-22 17:39:44.648,1774172384648,1774172384648,-0.9824219,-0.11328125,-0.16894531,0.0,0.061035156,-0.24414062,0.0,0.0,0.0,-147.72766,77.948,-145.87646
2026-03-22 17:39:44.661,1774172384661,1774172384661,-0.9824219,-0.11328125,-0.16894531,0.0,0.061035156,-0.24414062,0.0,0.0,0.0,-147.60132,77.93701,-145.79956
2026-03-22 17:39:44.748,1774172384748,1774172384748,-0.97998047,-0.115234375,-0.16845703,-0.30517578,-0.4272461,0.0,0.0,0.0,0.0,-147.60132,77.93701,-145.79956
2026-03-22 17:39:44.759,1774172384759,1774172384759,-0.97998047,-0.115234375,-0.16845703,-0.30517578,-0.4272461,0.0,0.0,0.0,0.0,-147.43652,77.96448,-145.70068
2026-03-22 17:39:44.848,1774172384848,1774172384848,-0.9824219,-0.11328125,-0.1694336,-0.061035156,-0.5493164,-0.18310547,0.0,0.0,0.0,-147.43652,77.96448,-145.70068
2026-03-22 17:39:44.859,1774172384859,1774172384859,-0.9824219,-0.11328125,-0.1694336,-0.061035156,-0.5493164,-0.18310547,0.0,0.0,0.0,-147.18384,78.00842,-145.5249
2026-03-22 17:39:44.947,1774172384947,1774172384947,-0.98095703,-0.11376953,-0.16699219,0.0,-0.79345703,-0.18310547,0.0,0.0,0.0,-147.18384,78.00842,-145.5249
2026-03-22 17:39:44.959,1774172384959,1774172384959,-0.98095703,-0.11376953,-0.16699219,0.0,-0.79345703,-0.18310547,0.0,0.0,0.0,-146.87073,78.046875,-145.2887
2026-03-22 17:39:45.047,1774172385047,1774172385047,-0.9819336,-0.115234375,-0.16552734,0.0,-0.61035156,0.0,0.0,0.0,0.0,-146.87073,78.046875,-145.2887
2026-03-22 17:39:45.059,1774172385059,1774172385059,-0.9819336,-0.115234375,-0.16552734,0.0,-0.61035156,0.0,0.0,0.0,0.0,-146.57959,78.1073,-145.08545
2026-03-22 17:39:45.147,1774172385147,1774172385147,-0.98583984,-0.115722656,-0.16699219,0.24414062,-0.61035156,0.0,0.0,0.0,0.0,-146.57959,78.1073,-145.08545
2026-03-22 17:39:45.158,1774172385158,1774172385158,-0.98583984,-0.115722656,-0.16699219,0.24414062,-0.61035156,0.0,0.0,0.0,0.0,-146.30493,78.16223,-144.91516
2026-03-22 17:39:45.246,1774172385246,1774172385246,-0.9814453,-0.11621094,-0.16064453,0.30517578,-0.18310547,-0.24414062,0.0,0.0,0.0,-146.30493,78.16223,-144.91516
2026-03-22 17:39:45.258,1774172385258,1774172385258,-0.9814453,-0.11621094,-0.16064453,0.30517578,-0.18310547,-0.24414062,0.0,0.0,0.0,-146.07422,78.17871,-144.8053
2026-03-22 17:39:45.346,1774172385346,1774172385346,-0.98583984,-0.118652344,-0.1586914,-0.18310547,-0.18310547,-0.24414062,0.0,0.0,0.0,-146.07422,78.17871,-144.8053
2026-03-22 17:39:45.358,1774172385358,1774172385358,-0.98583984,-0.118652344,-0.1586914,-0.18310547,-0.18310547,-0.24414062,0.0,0.0,0.0,-145.85449,78.16223,-144.7174
2026-03-22 17:39:45.446,1774172385446,1774172385446,-0.9819336,-0.1171875,-0.16259766,-0.12207031,0.30517578,-0.24414062,0.0,0.0,0.0,-145.85449,78.16223,-144.7174
2026-03-22 17:39:45.457,1774172385457,1774172385457,-0.9819336,-0.1171875,-0.16259766,-0.12207031,0.30517578,-0.24414062,0.0,0.0,0.0,-145.62378,78.15674,-144.60205
2026-03-22 17:39:45.546,1774172385546,1774172385546,-0.98339844,-0.11767578,-0.15966797,0.12207031,0.36621094,-0.48828125,0.0,0.0,0.0,-145.62378,78.15674,-144.60205
2026-03-22 17:39:45.557,1774172385557,1774172385557,-0.98339844,-0.11767578,-0.15966797,0.12207031,0.36621094,-0.48828125,0.0,0.0,0.0,-145.46997,78.11279,-144.5636
2026-03-22 17:39:45.645,1774172385645,1774172385645,-0.97998047,-0.119628906,-0.16064453,-0.36621094,0.12207031,-0.061035156,0.0,0.0,0.0,-145.46997,78.11279,-144.5636
2026-03-22 17:39:45.657,1774172385657,1774172385657,-0.97998047,-0.119628906,-0.16064453,-0.36621094,0.12207031,-0.061035156,0.0,0.0,0.0,-145.39856,78.08533,-144.59106
2026-03-22 17:39:45.745,1774172385745,1774172385745,-0.9838867,-0.11669922,-0.16113281,-0.5493164,0.24414062,0.0,0.0,0.0,0.0,-145.39856,78.08533,-144.59106
2026-03-22 17:39:45.756,1774172385756,1774172385756,-0.9838867,-0.11669922,-0.16113281,-0.5493164,0.24414062,0.0,0.0,0.0,0.0,-145.39856,78.063354,-144.68445
2026-03-22 17:39:45.845,1774172385845,1774172385845,-0.97998047,-0.118652344,-0.16064453,-0.12207031,0.0,0.12207031,0.0,0.0,0.0,-145.39856,78.063354,-144.68445
2026-03-22 17:39:45.856,1774172385856,1774172385856,-0.97998047,-0.118652344,-0.16064453,-0.12207031,0.0,0.12207031,0.0,0.0,0.0,-145.33813,78.063354,-144.7229
2026-03-22 17:39:45.944,1774172385944,1774172385944,-0.9814453,-0.1171875,-0.16015625,0.0,-0.18310547,0.0,0.0,0.0,0.0,-145.33813,78.063354,-144.7229
2026-03-22 17:39:45.956,1774172385956,1774172385956,-0.9814453,-0.1171875,-0.16015625,0.0,-0.18310547,0.0,0.0,0.0,0.0,-145.18982,78.09631,-144.67346
2026-03-22 17:39:46.044,1774172386044,1774172386044,-0.9814453,-0.119140625,-0.16015625,-0.061035156,-0.61035156,0.061035156,0.0,0.0,0.0,-145.18982,78.09631,-144.67346
2026-03-22 17:39:46.056,1774172386056,1774172386056,-0.9814453,-0.119140625,-0.16015625,-0.061035156,-0.61035156,0.061035156,0.0,0.0,0.0,-144.99756,78.134766,-144.58557
2026-03-22 17:39:46.144,1774172386144,1774172386144,-0.98583984,-0.118652344,-0.16210938,-0.5493164,0.0,0.30517578,0.0,0.0,0.0,-144.99756,78.134766,-144.58557
2026-03-22 17:39:46.156,1774172386156,1774172386156,-0.98583984,-0.118652344,-0.16210938,-0.5493164,0.0,0.30517578,0.0,0.0,0.0,-144.91516,78.17322,-144.59106
2026-03-22 17:39:46.243,1774172386243,1774172386243,-0.9790039,-0.115722656,-0.1586914,-0.24414062,0.61035156,0.24414062,0.0,0.0,0.0,-144.91516,78.17322,-144.59106
2026-03-22 17:39:46.255,1774172386255,1774172386255,-0.9790039,-0.115722656,-0.1586914,-0.24414062,0.61035156,0.24414062,0.0,0.0,0.0,-145.00854,78.17871,-144.75586
2026-03-22 17:39:46.343,1774172386343,1774172386343,-0.98339844,-0.11767578,-0.16064453,-0.30517578,0.61035156,0.061035156,0.0,0.0,0.0,-145.00854,78.17871,-144.75586
2026-03-22 17:39:46.355,1774172386355,1774172386355,-0.98339844,-0.11767578,-0.16064453,-0.30517578,0.61035156,0.061035156,0.0,0.0,0.0,-145.16235,78.151245,-144.99756
2026-03-22 17:39:46.443,1774172386443,1774172386443,-0.98095703,-0.118652344,-0.16308594,-0.48828125,0.79345703,0.061035156,0.0,0.0,0.0,-145.16235,78.151245,-144.99756
2026-03-22 17:39:46.454,1774172386454,1774172386454,-0.98095703,-0.118652344,-0.16308594,-0.48828125,0.79345703,0.061035156,0.0,0.0,0.0,-145.33813,78.1073,-145.27222
2026-03-22 17:39:46.543,1774172386543,1774172386543,-0.9824219,-0.11669922,-0.16064453,-0.36621094,0.79345703,-0.061035156,0.0,0.0,0.0,-145.33813,78.1073,-145.27222
2026-03-22 17:39:46.554,1774172386554,1774172386554,-0.9824219,-0.11669922,-0.16064453,-0.36621094,0.79345703,-0.061035156,0.0,0.0,0.0,-145.45898,78.04138,-145.50842
2026-03-22 17:39:46.642,1774172386642,1774172386642,-0.97998047,-0.11767578,-0.16308594,-0.061035156,1.2207031,-0.061035156,0.0,0.0,0.0,-145.45898,78.04138,-145.50842
2026-03-22 17:39:46.654,1774172386654,1774172386654,-0.97998047,-0.11767578,-0.16308594,-0.061035156,1.2207031,-0.061035156,0.0,0.0,0.0,-145.56885,77.96997,-145.74463
2026-03-22 17:39:46.742,1774172386742,1774172386742,-0.98095703,-0.119628906,-0.16357422,-0.061035156,0.4272461,0.0,0.0,0.0,0.0,-145.56885,77.96997,-145.74463
2026-03-22 17:39:46.754,1774172386754,1774172386754,-0.98095703,-0.119628906,-0.16357422,-0.061035156,0.4272461,0.0,0.0,0.0,0.0,-145.65674,77.91504,-145.96436
2026-03-22 17:39:46.842,1774172386842,1774172386842,-0.97998047,-0.11816406,-0.1665039,0.18310547,0.48828125,0.0,0.0,0.0,0.0,-145.65674,77.91504,-145.96436
2026-03-22 17:39:46.853,1774172386853,1774172386853,-0.97998047,-0.11816406,-0.1665039,0.18310547,0.48828125,0.0,0.0,0.0,0.0,-145.72815,77.86011,-146.17859
2026-03-22 17:39:46.941,1774172386941,1774172386941,-0.98046875,-0.11669922,-0.16552734,-0.061035156,1.3427734,0.36621094,0.0,0.0,0.0,-145.72815,77.86011,-146.17859
2026-03-22 17:39:46.953,1774172386953,1774172386953,-0.98046875,-0.11669922,-0.16552734,-0.061035156,1.3427734,0.36621094,0.0,0.0,0.0,-145.82703,77.81616,-146.40381
2026-03-22 17:39:47.041,1774172387041,1774172387041,-0.98046875,-0.11816406,-0.16992188,-0.24414062,0.5493164,0.48828125,0.0,0.0,0.0,-145.82703,77.81616,-146.40381
2026-03-22 17:39:47.053,1774172387053,1774172387053,-0.98046875,-0.11816406,-0.16992188,-0.24414062,0.5493164,0.48828125,0.0,0.0,0.0,-146.16211,77.76123,-146.84875
2026-03-22 17:39:47.141,1774172387141,1774172387141,-0.98291016,-0.11816406,-0.17236328,-0.18310547,0.4272461,0.36621094,0.0,0.0,0.0,-146.16211,77.76123,-146.84875
2026-03-22 17:39:47.152,1774172387152,1774172387152,-0.98291016,-0.11816406,-0.17236328,-0.18310547,0.4272461,0.36621094,0.0,0.0,0.0,-146.43127,77.750244,-147.22229
2026-03-22 17:39:47.240,1774172387240,1774172387240,-0.9814453,-0.119140625,-0.16992188,-0.6713867,0.30517578,0.36621094,0.0,0.0,0.0,-146.43127,77.750244,-147.22229
2026-03-22 17:39:47.252,1774172387252,1774172387252,-0.9814453,-0.119140625,-0.16992188,-0.6713867,0.30517578,0.36621094,0.0,0.0,0.0,-146.53015,77.750244,-147.40356
2026-03-22 17:39:47.340,1774172387340,1774172387340,-0.9785156,-0.118652344,-0.16845703,-0.91552734,-0.12207031,0.30517578,0.0,0.0,0.0,-146.53015,77.750244,-147.40356
2026-03-22 17:39:47.352,1774172387352,1774172387352,-0.9785156,-0.118652344,-0.16845703,-0.91552734,-0.12207031,0.30517578,0.0,0.0,0.0,-146.68945,77.76123,-147.60132
2026-03-22 17:39:47.440,1774172387440,1774172387440,-0.9765625,-0.119628906,-0.16992188,-0.8544922,-0.30517578,0.0,0.0,0.0,0.0,-146.68945,77.76123,-147.60132
2026-03-22 17:39:47.451,1774172387451,1774172387451,-0.9765625,-0.119628906,-0.16992188,-0.8544922,-0.30517578,0.0,0.0,0.0,0.0,-146.72241,77.7887,-147.65076
2026-03-22 17:39:47.540,1774172387540,1774172387540,-0.97998047,-0.118652344,-0.1743164,-1.0986328,-0.061035156,-0.18310547,0.0,0.0,0.0,-146.72241,77.7887,-147.65076
2026-03-22 17:39:47.551,1774172387551,1774172387551,-0.97998047,-0.118652344,-0.1743164,-1.0986328,-0.061035156,-0.18310547,0.0,0.0,0.0,-146.6565,77.79968,-147.58484
2026-03-22 17:39:47.639,1774172387639,1774172387639,-0.9824219,-0.11621094,-0.1743164,-0.18310547,-0.18310547,-0.36621094,0.0,0.0,0.0,-146.6565,77.79968,-147.58484
2026-03-22 17:39:47.651,1774172387651,1774172387651,-0.9824219,-0.11621094,-0.1743164,-0.18310547,-0.18310547,-0.36621094,0.0,0.0,0.0,-146.4862,77.7832,-147.44751
2026-03-22 17:39:47.739,1774172387739,1774172387739,-0.97998047,-0.119140625,-0.16992188,1.0986328,-0.4272461,-0.4272461,0.0,0.0,0.0,-146.4862,77.7832,-147.44751
2026-03-22 17:39:47.750,1774172387750,1774172387750,-0.97998047,-0.119140625,-0.16992188,1.0986328,-0.4272461,-0.4272461,0.0,0.0,0.0,-146.29395,77.7832,-147.33765
2026-03-22 17:39:47.839,1774172387839,1774172387839,-0.9838867,-0.1171875,-0.16796875,0.8544922,-0.24414062,-0.18310547,0.0,0.0,0.0,-146.29395,77.7832,-147.33765
2026-03-22 17:39:47.850,1774172387850,1774172387850,-0.9838867,-0.1171875,-0.16796875,0.8544922,-0.24414062,-0.18310547,0.0,0.0,0.0,-145.95337,77.76672,-147.15637
2026-03-22 17:39:47.938,1774172387938,1774172387938,-0.97998047,-0.11816406,-0.16601562,0.9765625,0.0,0.24414062,0.0,0.0,0.0,-145.95337,77.76672,-147.15637
2026-03-22 17:39:47.950,1774172387950,1774172387950,-0.97998047,-0.11816406,-0.16601562,0.9765625,0.0,0.24414062,0.0,0.0,0.0,-145.72815,77.805176,-147.08496
2026-03-22 17:39:48.038,1774172388038,1774172388038,-0.98095703,-0.12060547,-0.1665039,-0.12207031,0.0,0.30517578,0.0,0.0,0.0,-145.72815,77.805176,-147.08496
2026-03-22 17:39:48.050,1774172388050,1774172388050,-0.98095703,-0.12060547,-0.1665039,-0.12207031,0.0,0.30517578,0.0,0.0,0.0,-145.74463,77.83264,-147.24976
2026-03-22 17:39:48.138,1774172388138,1774172388138,-0.9838867,-0.12207031,-0.1665039,-0.48828125,-0.4272461,0.12207031,0.0,0.0,0.0,-145.74463,77.83264,-147.24976
2026-03-22 17:39:48.149,1774172388149,1774172388149,-0.9838867,-0.12207031,-0.1665039,-0.48828125,-0.4272461,0.12207031,0.0,0.0,0.0,-145.6842,77.86011,-147.2992
2026-03-22 17:39:48.238,1774172388238,1774172388238,-0.9824219,-0.12109375,-0.16259766,-1.159668,-0.12207031,0.12207031,0.0,0.0,0.0,-145.6842,77.86011,-147.2992
2026-03-22 17:39:48.249,1774172388249,1774172388249,-0.9824219,-0.12109375,-0.16259766,-1.159668,-0.12207031,0.12207031,0.0,0.0,0.0,-145.57983,77.89856,-147.24976
2026-03-22 17:39:48.337,1774172388337,1774172388337,-0.9814453,-0.11816406,-0.1640625,-1.0986328,-0.18310547,0.12207031,0.0,0.0,0.0,-145.57983,77.89856,-147.24976
2026-03-22 17:39:48.349,1774172388349,1774172388349,-0.9814453,-0.11816406,-0.1640625,-1.0986328,-0.18310547,0.12207031,0.0,0.0,0.0,-145.57983,77.91504,-147.27173
2026-03-22 17:39:48.437,1774172388437,1774172388437,-0.98095703,-0.11816406,-0.1616211,-0.9765625,-0.061035156,0.18310547,0.0,0.0,0.0,-145.57983,77.91504,-147.27173
2026-03-22 17:39:48.448,1774172388448,1774172388448,-0.98095703,-0.11816406,-0.1616211,-0.9765625,-0.061035156,0.18310547,0.0,0.0,0.0,-145.64026,77.926025,-147.35962
2026-03-22 17:39:48.537,1774172388537,1774172388537,-0.9814453,-0.119140625,-0.16601562,-0.12207031,-0.18310547,0.0,0.0,0.0,0.0,-145.64026,77.926025,-147.35962
2026-03-22 17:39:48.548,1774172388548,1774172388548,-0.9814453,-0.119140625,-0.16601562,-0.12207031,-0.18310547,0.0,0.0,0.0,0.0,-145.57983,77.958984,-147.3706
2026-03-22 17:39:48.636,1774172388636,1774172388636,-0.9824219,-0.1171875,-0.16308594,0.6713867,-0.061035156,0.0,0.0,0.0,0.0,-145.57983,77.958984,-147.3706
2026-03-22 17:39:48.648,1774172388648,1774172388648,-0.9824219,-0.1171875,-0.16308594,0.6713867,-0.061035156,0.0,0.0,0.0,0.0,-145.39856,77.975464,-147.34314
2026-03-22 17:39:48.736,1774172388736,1774172388736,-0.98046875,-0.115722656,-0.1640625,1.0986328,-0.12207031,0.0,0.0,0.0,0.0,-145.39856,77.975464,-147.34314
2026-03-22 17:39:48.747,1774172388747,1774172388747,-0.98046875,-0.115722656,-0.1640625,1.0986328,-0.12207031,0.0,0.0,0.0,0.0,-145.29968,77.96448,-147.42554
2026-03-22 17:39:48.836,1774172388836,1774172388836,-0.9824219,-0.119140625,-0.16601562,0.9765625,0.4272461,0.0,0.0,0.0,0.0,-145.29968,77.96448,-147.42554
2026-03-22 17:39:48.847,1774172388847,1774172388847,-0.9824219,-0.119140625,-0.16601562,0.9765625,0.4272461,0.0,0.0,0.0,0.0,-145.11841,77.975464,-147.42554
2026-03-22 17:39:48.935,1774172388935,1774172388935,-0.98291016,-0.12060547,-0.1640625,0.4272461,0.24414062,0.0,0.0,0.0,0.0,-145.11841,77.975464,-147.42554
2026-03-22 17:39:48.947,1774172388947,1774172388947,-0.98291016,-0.12060547,-0.1640625,0.4272461,0.24414062,0.0,0.0,0.0,0.0,-145.07996,77.948,-147.5409
2026-03-22 17:39:49.035,1774172389035,1774172389035,-0.9814453,-0.11816406,-0.1616211,-0.12207031,0.6713867,0.30517578,0.0,0.0,0.0,-145.07996,77.948,-147.5409
2026-03-22 17:39:49.047,1774172389047,1774172389047,-0.9814453,-0.11816406,-0.1616211,-0.12207031,0.6713867,0.30517578,0.0,0.0,0.0,-145.27222,77.91504,-147.82104
2026-03-22 17:39:49.135,1774172389135,1774172389135,-0.9814453,-0.119628906,-0.16601562,-0.48828125,0.24414062,0.0,0.0,0.0,0.0,-145.27222,77.91504,-147.82104
2026-03-22 17:39:49.146,1774172389146,1774172389146,-0.9814453,-0.119628906,-0.16601562,-0.48828125,0.24414062,0.0,0.0,0.0,0.0,-145.32166,77.91504,-147.9364
2026-03-22 17:39:49.234,1774172389234,1774172389234,-0.9814453,-0.118652344,-0.16308594,-0.18310547,0.061035156,-0.36621094,0.0,0.0,0.0,-145.32166,77.91504,-147.9364
2026-03-22 17:39:49.246,1774172389246,1774172389246,-0.9814453,-0.118652344,-0.16308594,-0.18310547,0.061035156,-0.36621094,0.0,0.0,0.0,-145.30518,77.88757,-147.98584
2026-03-22 17:39:49.334,1774172389334,1774172389334,-0.9819336,-0.12011719,-0.16455078,0.6713867,0.36621094,-0.9765625,0.0,0.0,0.0,-145.30518,77.88757,-147.98584
2026-03-22 17:39:49.346,1774172389346,1774172389346,-0.9819336,-0.12011719,-0.16455078,0.6713867,0.36621094,-0.9765625,0.0,0.0,0.0,-144.86572,77.8656,-147.66174
2026-03-22 17:39:49.434,1774172389434,1774172389434,-0.98095703,-0.12060547,-0.16064453,0.79345703,0.61035156,-0.6713867,0.0,0.0,0.0,-144.86572,77.8656,-147.66174
2026-03-22 17:39:49.445,1774172389445,1774172389445,-0.98095703,-0.12060547,-0.16064453,0.79345703,0.61035156,-0.6713867,0.0,0.0,0.0,-144.5581,77.77222,-147.50244
2026-03-22 17:39:49.533,1774172389533,1774172389533,-0.9814453,-0.12451172,-0.16748047,0.6713867,0.6713867,-0.48828125,0.0,0.0,0.0,-144.5581,77.77222,-147.50244
2026-03-22 17:39:49.545,1774172389545,1774172389545,-0.9814453,-0.12451172,-0.16748047,0.6713867,0.6713867,-0.48828125,0.0,0.0,0.0,-144.33289,77.717285,-147.44202
2026-03-22 17:39:49.633,1774172389633,1774172389633,-0.9790039,-0.12548828,-0.16503906,0.61035156,0.18310547,-0.4272461,0.0,0.0,0.0,-144.33289,77.717285,-147.44202
2026-03-22 17:39:49.645,1774172389645,1774172389645,-0.9790039,-0.12548828,-0.16503906,0.61035156,0.18310547,-0.4272461,0.0,0.0,0.0,-144.0747,77.68982,-147.33765
2026-03-22 17:39:49.733,1774172389733,1774172389733,-0.9794922,-0.12597656,-0.16552734,0.18310547,0.36621094,-0.12207031,0.0,0.0,0.0,-144.0747,77.68982,-147.33765
2026-03-22 17:39:49.745,1774172389745,1774172389745,-0.9794922,-0.12597656,-0.16552734,0.18310547,0.36621094,-0.12207031,0.0,0.0,0.0,-143.88245,77.66785,-147.28271
2026-03-22 17:39:49.833,1774172389833,1774172389833,-0.98046875,-0.12646484,-0.16601562,-0.36621094,0.0,0.4272461,0.0,0.0,0.0,-143.88245,77.66785,-147.28271
2026-03-22 17:39:49.845,1774172389845,1774172389845,-0.98046875,-0.12646484,-0.16601562,-0.36621094,0.0,0.4272461,0.0,0.0,0.0,-143.93738,77.66785,-147.44751
2026-03-22 17:39:49.932,1774172389932,1774172389932,-0.98046875,-0.1274414,-0.16552734,0.0,0.61035156,0.24414062,0.0,0.0,0.0,-143.93738,77.66785,-147.44751
2026-03-22 17:39:49.944,1774172389944,1774172389944,-0.98046875,-0.1274414,-0.16552734,0.0,0.61035156,0.24414062,0.0,0.0,0.0,-144.0033,77.67334,-147.62329
2026-03-22 17:39:50.032,1774172390032,1774172390032,-0.9794922,-0.12548828,-0.16552734,0.30517578,-0.4272461,0.12207031,0.0,0.0,0.0,-144.0033,77.67334,-147.62329
2026-03-22 17:39:50.043,1774172390043,1774172390043,-0.9794922,-0.12548828,-0.16552734,0.30517578,-0.4272461,0.12207031,0.0,0.0,0.0,-143.9154,77.684326,-147.68372
2026-03-22 17:39:50.132,1774172390132,1774172390132,-0.97998047,-0.12597656,-0.16210938,0.18310547,-0.12207031,0.12207031,0.0,0.0,0.0,-143.9154,77.684326,-147.68372
2026-03-22 17:39:50.143,1774172390143,1774172390143,-0.97998047,-0.12597656,-0.16210938,0.18310547,-0.12207031,0.12207031,0.0,0.0,0.0,-143.74512,77.7063,-147.66724
2026-03-22 17:39:50.232,1774172390232,1774172390232,-0.9794922,-0.12597656,-0.16357422,0.12207031,-0.061035156,0.4272461,0.0,0.0,0.0,-143.74512,77.7063,-147.66724
2026-03-22 17:39:50.244,1774172390244,1774172390244,-0.9794922,-0.12597656,-0.16357422,0.12207031,-0.061035156,0.4272461,0.0,0.0,0.0,-143.6847,77.733765,-147.75513
2026-03-22 17:39:50.331,1774172390331,1774172390331,-0.97802734,-0.12548828,-0.16210938,-0.61035156,1.0375977,0.91552734,0.0,0.0,0.0,-143.6847,77.733765,-147.75513
2026-03-22 17:39:50.343,1774172390343,1774172390343,-0.97802734,-0.12548828,-0.16210938,-0.61035156,1.0375977,0.91552734,0.0,0.0,0.0,-143.94287,77.76123,-148.11218
2026-03-22 17:39:50.431,1774172390431,1774172390431,-0.9814453,-0.122558594,-0.16455078,-0.8544922,1.5258789,0.79345703,0.0,0.0,0.0,-143.94287,77.76123,-148.11218
2026-03-22 17:39:50.442,1774172390442,1774172390442,-0.9814453,-0.122558594,-0.16455078,-0.8544922,1.5258789,0.79345703,0.0,0.0,0.0,-144.70093,77.67883,-148.94714
2026-03-22 17:39:50.530,1774172390530,1774172390530,-0.98095703,-0.12451172,-0.16748047,-1.2817383,0.6713867,0.61035156,0.0,0.0,0.0,-144.70093,77.67883,-148.94714
2026-03-22 17:39:50.542,1774172390542,1774172390542,-0.98095703,-0.12451172,-0.16748047,-1.2817383,0.6713867,0.61035156,0.0,0.0,0.0,-145.25024,77.64038,-149.56787
2026-03-22 17:39:50.630,1774172390630,1774172390630,-0.98095703,-0.12207031,-0.16845703,-1.2207031,0.48828125,0.36621094,0.0,0.0,0.0,-145.25024,77.64038,-149.56787
2026-03-22 17:39:50.642,1774172390642,1774172390642,-0.98095703,-0.12207031,-0.16845703,-1.2207031,0.48828125,0.36621094,0.0,0.0,0.0,-145.49744,77.629395,-149.87549
2026-03-22 17:39:50.730,1774172390730,1774172390730,-0.9814453,-0.118652344,-0.16796875,-1.0986328,0.0,0.36621094,0.0,0.0,0.0,-145.49744,77.629395,-149.87549
2026-03-22 17:39:50.741,1774172390741,1774172390741,-0.9814453,-0.118652344,-0.16796875,-1.0986328,0.0,0.36621094,0.0,0.0,0.0,-145.71716,77.64038,-150.11719
2026-03-22 17:39:50.829,1774172390829,1774172390829,-0.98095703,-0.11767578,-0.1665039,-0.91552734,-0.061035156,0.24414062,0.0,0.0,0.0,-145.71716,77.64038,-150.11719
2026-03-22 17:39:50.841,1774172390841,1774172390841,-0.98095703,-0.11767578,-0.1665039,-0.91552734,-0.061035156,0.24414062,0.0,0.0,0.0,-145.90393,77.65137,-150.31494
2026-03-22 17:39:50.929,1774172390929,1774172390929,-0.98046875,-0.119628906,-0.16699219,-0.24414062,-0.48828125,0.12207031,0.0,0.0,0.0,-145.90393,77.65137,-150.31494
2026-03-22 17:39:50.941,1774172390941,1774172390941,-0.98046875,-0.119628906,-0.16699219,-0.24414062,-0.48828125,0.12207031,0.0,0.0,0.0,-145.91492,77.700806,-150.36987
2026-03-22 17:39:51.029,1774172391029,1774172391029,-0.9814453,-0.118652344,-0.17089844,0.12207031,0.48828125,-0.30517578,0.0,0.0,0.0,-145.91492,77.700806,-150.36987
2026-03-22 17:39:51.040,1774172391040,1774172391040,-0.9814453,-0.118652344,-0.17089844,0.12207031,0.48828125,-0.30517578,0.0,0.0,0.0,-145.72266,77.72827,-150.2655
2026-03-22 17:39:51.129,1774172391129,1774172391129,-0.98046875,-0.11816406,-0.1694336,0.4272461,-0.061035156,0.0,0.0,0.0,0.0,-145.72266,77.72827,-150.2655
2026-03-22 17:39:51.140,1774172391140,1774172391140,-0.98046875,-0.11816406,-0.1694336,0.4272461,-0.061035156,0.0,0.0,0.0,0.0,-145.58533,77.7063,-150.23254
2026-03-22 17:39:51.228,1774172391228,1774172391228,-0.984375,-0.12109375,-0.16992188,0.0,0.8544922,-0.061035156,0.0,0.0,0.0,-145.58533,77.7063,-150.23254
2026-03-22 17:39:51.240,1774172391240,1774172391240,-0.984375,-0.12109375,-0.16992188,0.0,0.8544922,-0.061035156,0.0,0.0,0.0,-145.59631,77.67334,-150.3424
2026-03-22 17:39:51.328,1774172391328,1774172391328,-0.9770508,-0.119628906,-0.16894531,0.24414062,0.4272461,0.12207031,0.0,0.0,0.0,-145.59631,77.67334,-150.3424
2026-03-22 17:39:51.340,1774172391340,1774172391340,-0.9770508,-0.119628906,-0.16894531,0.24414062,0.4272461,0.12207031,0.0,0.0,0.0,-145.62927,77.65686,-150.46326
2026-03-22 17:39:51.428,1774172391428,1774172391428,-0.98291016,-0.12109375,-0.17138672,-0.18310547,0.5493164,0.061035156,0.0,0.0,0.0,-145.62927,77.65686,-150.46326
2026-03-22 17:39:51.439,1774172391439,1774172391439,-0.98291016,-0.12109375,-0.17138672,-0.18310547,0.5493164,0.061035156,0.0,0.0,0.0,-145.73914,77.629395,-150.65552
2026-03-22 17:39:51.527,1774172391527,1774172391527,-0.9790039,-0.12207031,-0.17285156,-0.61035156,0.061035156,0.12207031,0.0,0.0,0.0,-145.73914,77.629395,-150.65552
2026-03-22 17:39:51.539,1774172391539,1774172391539,-0.9790039,-0.12207031,-0.17285156,-0.61035156,0.061035156,0.12207031,0.0,0.0,0.0,-145.89294,77.60742,-150.85876
2026-03-22 17:39:51.627,1774172391627,1774172391627,-0.98095703,-0.122558594,-0.16992188,-0.79345703,0.0,-0.061035156,0.0,0.0,0.0,-145.89294,77.60742,-150.85876
2026-03-22 17:39:51.639,1774172391639,1774172391639,-0.98095703,-0.122558594,-0.16992188,-0.79345703,0.0,-0.061035156,0.0,0.0,0.0,-145.87646,77.612915,-150.88074
2026-03-22 17:39:51.727,1774172391727,1774172391727,-0.9790039,-0.12011719,-0.17236328,-0.79345703,-0.30517578,-0.4272461,0.0,0.0,0.0,-145.87646,77.612915,-150.88074
2026-03-22 17:39:51.738,1774172391738,1774172391738,-0.9790039,-0.12011719,-0.17236328,-0.79345703,-0.30517578,-0.4272461,0.0,0.0,0.0,-145.71716,77.61841,-150.7544
2026-03-22 17:39:51.826,1774172391826,1774172391826,-0.9814453,-0.122558594,-0.16894531,-0.6713867,-0.61035156,-0.12207031,0.0,0.0,0.0,-145.71716,77.61841,-150.7544
2026-03-22 17:39:51.838,1774172391838,1774172391838,-0.9814453,-0.122558594,-0.16894531,-0.6713867,-0.61035156,-0.12207031,0.0,0.0,0.0,-145.39856,77.63489,-150.46875
2026-03-22 17:39:51.926,1774172391926,1774172391926,-0.97998047,-0.12158203,-0.16894531,-0.36621094,-0.061035156,0.0,0.0,0.0,0.0,-145.39856,77.63489,-150.46875
2026-03-22 17:39:51.938,1774172391938,1774172391938,-0.97998047,-0.12158203,-0.16894531,-0.36621094,-0.061035156,0.0,0.0,0.0,0.0,-145.26123,77.65686,-150.35889
2026-03-22 17:39:52.026,1774172392026,1774172392026,-0.9794922,-0.12060547,-0.16699219,-0.36621094,0.0,0.12207031,0.0,0.0,0.0,-145.26123,77.65686,-150.35889
2026-03-22 17:39:52.038,1774172392038,1774172392038,-0.9794922,-0.12060547,-0.16699219,-0.36621094,0.0,0.12207031,0.0,0.0,0.0,-145.21179,77.66235,-150.36987
2026-03-22 17:39:52.126,1774172392126,1774172392126,-0.98095703,-0.119628906,-0.16308594,-0.18310547,-0.24414062,0.30517578,0.0,0.0,0.0,-145.21179,77.66235,-150.36987
2026-03-22 17:39:52.137,1774172392137,1774172392137,-0.98095703,-0.119628906,-0.16308594,-0.18310547,-0.24414062,0.30517578,0.0,0.0,0.0,-145.22827,77.67334,-150.46326
2026-03-22 17:39:52.225,1774172392225,1774172392225,-0.9819336,-0.122558594,-0.16601562,-0.061035156,0.0,0.12207031,0.0,0.0,0.0,-145.22827,77.67334,-150.46326
2026-03-22 17:39:52.237,1774172392237,1774172392237,-0.9819336,-0.122558594,-0.16601562,-0.061035156,0.0,0.12207031,0.0,0.0,0.0,-145.15686,77.71179,-150.48523
2026-03-22 17:39:52.325,1774172392325,1774172392325,-0.97998047,-0.12109375,-0.16601562,0.0,0.24414062,0.061035156,0.0,0.0,0.0,-145.15686,77.71179,-150.48523
2026-03-22 17:39:52.337,1774172392337,1774172392337,-0.97998047,-0.12109375,-0.16601562,0.0,0.24414062,0.061035156,0.0,0.0,0.0,-145.0415,77.7063,-150.47974
2026-03-22 17:39:52.425,1774172392425,1774172392425,-0.97998047,-0.123046875,-0.1640625,-0.30517578,-0.36621094,0.061035156,0.0,0.0,0.0,-145.0415,77.7063,-150.47974
2026-03-22 17:39:52.436,1774172392436,1774172392436,-0.97998047,-0.123046875,-0.1640625,-0.30517578,-0.36621094,0.061035156,0.0,0.0,0.0,-144.99756,77.72278,-150.5127
2026-03-22 17:39:52.525,1774172392525,1774172392525,-0.9824219,-0.122558594,-0.16503906,-0.30517578,0.0,0.0,0.0,0.0,0.0,-144.99756,77.72278,-150.5127
2026-03-22 17:39:52.536,1774172392536,1774172392536,-0.9824219,-0.122558594,-0.16503906,-0.30517578,0.0,0.0,0.0,0.0,0.0,-144.92615,77.73926,-150.51819
2026-03-22 17:39:52.624,1774172392624,1774172392624,-0.9814453,-0.123046875,-0.16699219,0.0,0.30517578,0.0,0.0,0.0,0.0,-144.92615,77.73926,-150.51819
2026-03-22 17:39:52.636,1774172392636,1774172392636,-0.9814453,-0.123046875,-0.16699219,0.0,0.30517578,0.0,0.0,0.0,0.0,-144.86023,77.733765,-150.55664
2026-03-22 17:39:52.724,1774172392724,1774172392724,-0.98095703,-0.122558594,-0.16455078,0.18310547,0.24414062,0.0,0.0,0.0,0.0,-144.86023,77.733765,-150.55664
2026-03-22 17:39:52.735,1774172392735,1774172392735,-0.98095703,-0.122558594,-0.16455078,0.18310547,0.24414062,0.0,0.0,0.0,0.0,-144.78882,77.72827,-150.5951
2026-03-22 17:39:52.823,1774172392823,1774172392823,-0.9819336,-0.12402344,-0.16699219,0.18310547,0.91552734,0.0,0.0,0.0,0.0,-144.78882,77.72827,-150.5951
2026-03-22 17:39:52.835,1774172392835,1774172392835,-0.9819336,-0.12402344,-0.16699219,0.18310547,0.91552734,0.0,0.0,0.0,0.0,-144.81628,77.68982,-150.7544
2026-03-22 17:39:52.923,1774172392923,1774172392923,-0.9814453,-0.123046875,-0.16748047,0.24414062,1.4038086,0.0,0.0,0.0,0.0,-144.81628,77.68982,-150.7544
2026-03-22 17:39:52.935,1774172392935,1774172392935,-0.9814453,-0.123046875,-0.16748047,0.24414062,1.4038086,0.0,0.0,0.0,0.0,-145.05249,77.59094,-151.12793
2026-03-22 17:39:53.023,1774172393023,1774172393023,-0.9760742,-0.123535156,-0.16894531,-0.24414062,0.6713867,0.0,0.0,0.0,0.0,-145.05249,77.59094,-151.12793
2026-03-22 17:39:53.034,1774172393034,1774172393034,-0.9760742,-0.123535156,-0.16894531,-0.24414062,0.6713867,0.0,0.0,0.0,0.0,-145.1239,77.55249,-151.28723
2026-03-22 17:39:53.123,1774172393123,1774172393123,-0.9819336,-0.12548828,-0.16894531,-0.30517578,0.12207031,-0.30517578,0.0,0.0,0.0,-145.1239,77.55249,-151.28723
2026-03-22 17:39:53.134,1774172393134,1774172393134,-0.9819336,-0.12548828,-0.16894531,-0.30517578,0.12207031,-0.30517578,0.0,0.0,0.0,-145.15137,77.51404,-151.42456
2026-03-22 17:39:53.222,1774172393222,1774172393222,-0.9790039,-0.122558594,-0.17089844,-0.7324219,0.48828125,-0.061035156,0.0,0.0,0.0,-145.15137,77.51404,-151.42456
2026-03-22 17:39:53.234,1774172393234,1774172393234,-0.9790039,-0.122558594,-0.17089844,-0.7324219,0.48828125,-0.061035156,0.0,0.0,0.0,-145.11841,77.4646,-151.474
2026-03-22 17:39:53.322,1774172393322,1774172393322,-0.98046875,-0.12402344,-0.17041016,-0.36621094,0.0,0.0,0.0,0.0,0.0,-145.11841,77.4646,-151.474
2026-03-22 17:39:53.334,1774172393334,1774172393334,-0.98046875,-0.12402344,-0.17041016,-0.36621094,0.0,0.0,0.0,0.0,0.0,-145.07446,77.47009,-151.47949
2026-03-22 17:39:53.422,1774172393422,1774172393422,-0.9785156,-0.123535156,-0.17041016,0.061035156,0.061035156,0.0,0.0,0.0,0.0,-145.07446,77.47009,-151.47949
2026-03-22 17:39:53.433,1774172393433,1774172393433,-0.9785156,-0.123535156,-0.17041016,0.061035156,0.061035156,0.0,0.0,0.0,0.0,-145.00854,77.47009,-151.50146
2026-03-22 17:39:53.521,1774172393521,1774172393521,-0.9794922,-0.12451172,-0.17041016,0.30517578,0.18310547,0.0,0.0,0.0,0.0,-145.00854,77.47009,-151.50146
2026-03-22 17:39:53.533,1774172393533,1774172393533,-0.9794922,-0.12451172,-0.17041016,0.30517578,0.18310547,0.0,0.0,0.0,0.0,-144.92065,77.47009,-151.53442
2026-03-22 17:39:53.621,1774172393621,1774172393621,-0.9790039,-0.12646484,-0.17236328,0.5493164,0.48828125,0.061035156,0.0,0.0,0.0,-144.92065,77.47009,-151.53442
2026-03-22 17:39:53.633,1774172393633,1774172393633,-0.9790039,-0.12646484,-0.17236328,0.5493164,0.48828125,0.061035156,0.0,0.0,0.0,-144.94263,77.44263,-151.7102
2026-03-22 17:39:53.721,1774172393721,1774172393721,-0.97753906,-0.1274414,-0.16796875,0.18310547,0.61035156,0.36621094,0.0,0.0,0.0,-144.94263,77.44263,-151.7102
2026-03-22 17:39:53.732,1774172393732,1774172393732,-0.97753906,-0.1274414,-0.16796875,0.18310547,0.61035156,0.36621094,0.0,0.0,0.0,-145.0415,77.43713,-151.94092
2026-03-22 17:39:53.821,1774172393821,1774172393821,-0.9746094,-0.125,-0.16992188,-0.4272461,0.30517578,0.24414062,0.0,0.0,0.0,-145.0415,77.43713,-151.94092
2026-03-22 17:39:53.832,1774172393832,1774172393832,-0.9746094,-0.125,-0.16992188,-0.4272461,0.30517578,0.24414062,0.0,0.0,0.0,-145.1239,77.43164,-152.13318
2026-03-22 17:39:53.920,1774172393920,1774172393920,-0.98291016,-0.12597656,-0.17236328,-1.159668,0.0,0.24414062,0.0,0.0,0.0,-145.1239,77.43164,-152.13318
2026-03-22 17:39:53.932,1774172393932,1774172393932,-0.98291016,-0.12597656,-0.17236328,-1.159668,0.0,0.24414062,0.0,0.0,0.0,-145.21179,77.45911,-152.27051
2026-03-22 17:39:54.020,1774172394020,1774172394020,-0.97802734,-0.12548828,-0.17041016,-1.2207031,0.0,0.18310547,0.0,0.0,0.0,-145.21179,77.45911,-152.27051
2026-03-22 17:39:54.032,1774172394032,1774172394032,-0.97802734,-0.12548828,-0.17041016,-1.2207031,0.0,0.18310547,0.0,0.0,0.0,-145.32715,77.475586,-152.39136
2026-03-22 17:39:54.120,1774172394120,1774172394120,-0.9814453,-0.12158203,-0.17089844,-0.6713867,0.18310547,0.0,0.0,0.0,0.0,-145.32715,77.475586,-152.39136
2026-03-22 17:39:54.131,1774172394131,1774172394131,-0.9814453,-0.12158203,-0.17089844,-0.6713867,0.18310547,0.0,0.0,0.0,0.0,-145.31616,77.492065,-152.40234
2026-03-22 17:39:54.219,1774172394219,1774172394219,-0.98046875,-0.12011719,-0.17089844,-0.36621094,0.0,0.30517578,0.0,0.0,0.0,-145.31616,77.492065,-152.40234
2026-03-22 17:39:54.231,1774172394231,1774172394231,-0.98046875,-0.12011719,-0.17089844,-0.36621094,0.0,0.30517578,0.0,0.0,0.0,-145.35461,77.49756,-152.47375
2026-03-22 17:39:54.319,1774172394319,1774172394319,-0.98095703,-0.123535156,-0.17089844,-0.24414062,0.12207031,0.48828125,0.0,0.0,0.0,-145.35461,77.49756,-152.47375
2026-03-22 17:39:54.331,1774172394331,1774172394331,-0.98095703,-0.123535156,-0.17089844,-0.24414062,0.12207031,0.48828125,0.0,0.0,0.0,-145.49744,77.525024,-152.67151
2026-03-22 17:39:54.419,1774172394419,1774172394419,-0.9819336,-0.12011719,-0.17480469,-0.18310547,0.30517578,0.6713867,0.0,0.0,0.0,-145.49744,77.525024,-152.67151
2026-03-22 17:39:54.430,1774172394430,1774172394430,-0.9819336,-0.12011719,-0.17480469,-0.18310547,0.30517578,0.6713867,0.0,0.0,0.0,-145.63477,77.547,-152.90771
2026-03-22 17:39:54.518,1774172394518,1774172394518,-0.9814453,-0.12158203,-0.17236328,0.061035156,-0.18310547,0.12207031,0.0,0.0,0.0,-145.63477,77.547,-152.90771
2026-03-22 17:39:54.530,1774172394530,1774172394530,-0.9814453,-0.12158203,-0.17236328,0.061035156,-0.18310547,0.12207031,0.0,0.0,0.0,-145.58533,77.56897,-152.98462
2026-03-22 17:39:54.618,1774172394618,1774172394618,-0.98046875,-0.12207031,-0.16748047,-0.8544922,-0.5493164,0.48828125,0.0,0.0,0.0,-145.58533,77.56897,-152.98462
2026-03-22 17:39:54.630,1774172394630,1774172394630,-0.98046875,-0.12207031,-0.16748047,-0.8544922,-0.5493164,0.48828125,0.0,0.0,0.0,-145.64575,77.60742,-153.08899
2026-03-22 17:39:54.718,1774172394718,1774172394718,-0.9814453,-0.123535156,-0.171875,-0.12207031,-0.30517578,-0.24414062,0.0,0.0,0.0,-145.64575,77.60742,-153.08899
2026-03-22 17:39:54.730,1774172394730,1774172394730,-0.9814453,-0.123535156,-0.171875,-0.12207031,-0.30517578,-0.24414062,0.0,0.0,0.0,-145.50293,77.65686,-153.01758
2026-03-22 17:39:54.818,1774172394818,1774172394818,-0.98046875,-0.12060547,-0.16796875,-0.4272461,0.18310547,0.0,0.0,0.0,0.0,-145.50293,77.65686,-153.01758
2026-03-22 17:39:54.829,1774172394829,1774172394829,-0.98046875,-0.12060547,-0.16796875,-0.4272461,0.18310547,0.0,0.0,0.0,0.0,-145.33264,77.645874,-152.90771
2026-03-22 17:39:54.917,1774172394917,1774172394917,-0.98095703,-0.119140625,-0.16699219,-0.91552734,0.12207031,0.48828125,0.0,0.0,0.0,-145.33264,77.645874,-152.90771
2026-03-22 17:39:54.930,1774172394930,1774172394930,-0.98095703,-0.119140625,-0.16699219,-0.91552734,0.12207031,0.48828125,0.0,0.0,0.0,-145.51941,77.64038,-153.09998
2026-03-22 17:39:55.017,1774172395017,1774172395017,-0.9824219,-0.119628906,-0.1665039,-0.18310547,0.5493164,-0.18310547,0.0,0.0,0.0,-145.51941,77.64038,-153.09998
2026-03-22 17:39:55.028,1774172395028,1774172395028,-0.9824219,-0.119628906,-0.1665039,-0.18310547,0.5493164,-0.18310547,0.0,0.0,0.0,-145.55786,77.61841,-153.20984
2026-03-22 17:39:55.117,1774172395117,1774172395117,-0.97998047,-0.12158203,-0.16796875,0.0,0.5493164,0.18310547,0.0,0.0,0.0,-145.55786,77.61841,-153.20984
2026-03-22 17:39:55.128,1774172395128,1774172395128,-0.97998047,-0.12158203,-0.16796875,0.0,0.5493164,0.18310547,0.0,0.0,0.0,-145.59082,77.59094,-153.33069
2026-03-22 17:39:55.216,1774172395216,1774172395216,-0.98046875,-0.12109375,-0.16796875,0.0,0.061035156,-0.18310547,0.0,0.0,0.0,-145.59082,77.59094,-153.33069
2026-03-22 17:39:55.228,1774172395228,1774172395228,-0.98046875,-0.12109375,-0.16796875,0.0,0.061035156,-0.18310547,0.0,0.0,0.0,-145.47546,77.579956,-153.34717
2026-03-22 17:39:55.316,1774172395316,1774172395316,-0.9794922,-0.12207031,-0.16601562,-0.061035156,0.0,0.4272461,0.0,0.0,0.0,-145.47546,77.579956,-153.34717
2026-03-22 17:39:55.328,1774172395328,1774172395328,-0.9794922,-0.12207031,-0.16601562,-0.061035156,0.0,0.4272461,0.0,0.0,0.0,-145.40955,77.60193,-153.36914
2026-03-22 17:39:55.416,1774172395416,1774172395416,-0.9838867,-0.123046875,-0.17041016,-0.18310547,0.12207031,0.0,0.0,0.0,0.0,-145.40955,77.60193,-153.36914
2026-03-22 17:39:55.427,1774172395427,1774172395427,-0.9838867,-0.123046875,-0.17041016,-0.18310547,0.12207031,0.0,0.0,0.0,0.0,-145.448,77.612915,-153.51746
2026-03-22 17:39:55.516,1774172395516,1774172395516,-0.97802734,-0.12011719,-0.17138672,0.0,0.7324219,0.061035156,0.0,0.0,0.0,-145.448,77.612915,-153.51746
2026-03-22 17:39:55.528,1774172395528,1774172395528,-0.97802734,-0.12011719,-0.17138672,0.0,0.7324219,0.061035156,0.0,0.0,0.0,-145.37659,77.60742,-153.5614
2026-03-22 17:39:55.615,1774172395615,1774172395615,-0.9814453,-0.12109375,-0.17138672,-0.61035156,0.36621094,0.4272461,0.0,0.0,0.0,-145.37659,77.60742,-153.5614
2026-03-22 17:39:55.627,1774172395627,1774172395627,-0.9814453,-0.12109375,-0.17138672,-0.61035156,0.36621094,0.4272461,0.0,0.0,0.0,-145.59631,77.579956,-153.85803
2026-03-22 17:39:55.715,1774172395715,1774172395715,-0.9790039,-0.123535156,-0.17138672,-0.4272461,0.12207031,0.30517578,0.0,0.0,0.0,-145.59631,77.579956,-153.85803
2026-03-22 17:39:55.727,1774172395727,1774172395727,-0.9790039,-0.123535156,-0.17138672,-0.4272461,0.12207031,0.30517578,0.0,0.0,0.0,-145.82703,77.58545,-154.14917
2026-03-22 17:39:55.815,1774172395815,1774172395815,-0.98046875,-0.119140625,-0.17138672,-0.48828125,0.36621094,0.24414062,0.0,0.0,0.0,-145.82703,77.58545,-154.14917
2026-03-22 17:39:55.826,1774172395826,1774172395826,-0.98046875,-0.119140625,-0.17138672,-0.48828125,0.36621094,0.24414062,0.0,0.0,0.0,-145.91492,77.56897,-154.32495
2026-03-22 17:39:55.914,1774172395914,1774172395914,-0.9790039,-0.12011719,-0.171875,-0.5493164,-0.061035156,0.36621094,0.0,0.0,0.0,-145.91492,77.56897,-154.32495
2026-03-22 17:39:55.926,1774172395926,1774172395926,-0.9790039,-0.12011719,-0.171875,-0.5493164,-0.061035156,0.36621094,0.0,0.0,0.0,-145.96985,77.59094,-154.4458
2026-03-22 17:39:56.014,1774172396014,1774172396014,-0.98046875,-0.12109375,-0.17041016,-0.12207031,-0.30517578,0.061035156,0.0,0.0,0.0,-145.96985,77.59094,-154.4458
2026-03-22 17:39:56.026,1774172396026,1774172396026,-0.98046875,-0.12109375,-0.17041016,-0.12207031,-0.30517578,0.061035156,0.0,0.0,0.0,-145.93689,77.629395,-154.48975
2026-03-22 17:39:56.114,1774172396114,1774172396114,-0.97998047,-0.119628906,-0.17138672,0.0,-0.36621094,0.24414062,0.0,0.0,0.0,-145.93689,77.629395,-154.48975
2026-03-22 17:39:56.126,1774172396126,1774172396126,-0.97998047,-0.119628906,-0.17138672,0.0,-0.36621094,0.24414062,0.0,0.0,0.0,-145.8435,77.65137,-154.48975
2026-03-22 17:39:56.214,1774172396214,1774172396214,-0.98046875,-0.11669922,-0.16992188,-0.12207031,-0.18310547,0.18310547,0.0,0.0,0.0,-145.8435,77.65137,-154.48975
2026-03-22 17:39:56.225,1774172396225,1774172396225,-0.98046875,-0.11669922,-0.16992188,-0.12207031,-0.18310547,0.18310547,0.0,0.0,0.0,-145.80505,77.67883,-154.5227
2026-03-22 17:39:56.313,1774172396313,1774172396313,-0.9790039,-0.11816406,-0.16845703,-0.12207031,-0.061035156,0.0,0.0,0.0,0.0,-145.80505,77.67883,-154.5227
2026-03-22 17:39:56.325,1774172396325,1774172396325,-0.9790039,-0.11816406,-0.16845703,-0.12207031,-0.061035156,0.0,0.0,0.0,0.0,-145.72266,77.684326,-154.51721
2026-03-22 17:39:56.413,1774172396413,1774172396413,-0.98339844,-0.12109375,-0.17138672,-0.7324219,0.24414062,0.36621094,0.0,0.0,0.0,-145.72266,77.684326,-154.51721
2026-03-22 17:39:56.425,1774172396425,1774172396425,-0.98339844,-0.12109375,-0.17138672,-0.7324219,0.24414062,0.36621094,0.0,0.0,0.0,-145.78857,77.700806,-154.63257
2026-03-22 17:39:56.513,1774172396513,1774172396513,-0.9790039,-0.12060547,-0.16845703,-0.12207031,-0.061035156,0.0,0.0,0.0,0.0,-145.78857,77.700806,-154.63257
2026-03-22 17:39:56.524,1774172396524,1774172396524,-0.9790039,-0.12060547,-0.16845703,-0.12207031,-0.061035156,0.0,0.0,0.0,0.0,-145.79956,77.7063,-154.70947
2026-03-22 17:39:56.612,1774172396612,1774172396612,-0.98095703,-0.119140625,-0.16601562,-0.48828125,-0.48828125,0.0,0.0,0.0,0.0,-145.79956,77.7063,-154.70947
2026-03-22 17:39:56.624,1774172396624,1774172396624,-0.98095703,-0.119140625,-0.16601562,-0.48828125,-0.48828125,0.0,0.0,0.0,0.0,-145.67322,77.72827,-154.64355
2026-03-22 17:39:56.712,1774172396712,1774172396712,-0.9814453,-0.119628906,-0.16601562,-0.061035156,-0.4272461,-0.24414062,0.0,0.0,0.0,-145.67322,77.72827,-154.64355
2026-03-22 17:39:56.724,1774172396724,1774172396724,-0.9814453,-0.119628906,-0.16601562,-0.061035156,-0.4272461,-0.24414062,0.0,0.0,0.0,-145.45349,77.76123,-154.48425
2026-03-22 17:39:56.812,1774172396812,1774172396812,-0.9838867,-0.123535156,-0.16796875,0.18310547,-0.18310547,-0.36621094,0.0,0.0,0.0,-145.45349,77.76123,-154.48425
2026-03-22 17:39:56.823,1774172396823,1774172396823,-0.9838867,-0.123535156,-0.16796875,0.18310547,-0.18310547,-0.36621094,0.0,0.0,0.0,-145.11292,77.77771,-154.24255
2026-03-22 17:39:56.911,1774172396911,1774172396911,-0.98046875,-0.119628906,-0.16455078,0.36621094,0.18310547,-0.18310547,0.0,0.0,0.0,-145.11292,77.77771,-154.24255
2026-03-22 17:39:56.923,1774172396923,1774172396923,-0.98046875,-0.119628906,-0.16455078,0.36621094,0.18310547,-0.18310547,0.0,0.0,0.0,-144.98108,77.76123,-154.21509
2026-03-22 17:39:57.011,1774172397011,1774172397011,-0.9814453,-0.12402344,-0.16503906,0.36621094,0.061035156,-0.12207031,0.0,0.0,0.0,-144.98108,77.76123,-154.21509
2026-03-22 17:39:57.023,1774172397023,1774172397023,-0.9814453,-0.12402344,-0.16503906,0.36621094,0.061035156,-0.12207031,0.0,0.0,0.0,-144.78882,77.7832,-154.1217
2026-03-22 17:39:57.111,1774172397111,1774172397111,-0.98291016,-0.123046875,-0.16552734,-0.061035156,0.061035156,-0.36621094,0.0,0.0,0.0,-144.78882,77.7832,-154.1217
2026-03-22 17:39:57.123,1774172397123,1774172397123,-0.98291016,-0.123046875,-0.16552734,-0.061035156,0.061035156,-0.36621094,0.0,0.0,0.0,-144.646,77.750244,-154.10522
2026-03-22 17:39:57.211,1774172397211,1774172397211,-0.9760742,-0.12109375,-0.16210938,-0.18310547,0.4272461,0.0,0.0,0.0,0.0,-144.646,77.750244,-154.10522
2026-03-22 17:39:57.222,1774172397222,1774172397222,-0.9760742,-0.12109375,-0.16210938,-0.18310547,0.4272461,0.0,0.0,0.0,0.0,-144.5636,77.73926,-154.08875
2026-03-22 17:39:57.310,1774172397310,1774172397310,-0.97998047,-0.12402344,-0.16357422,-1.0986328,-0.24414062,0.18310547,0.0,0.0,0.0,-144.5636,77.73926,-154.08875
2026-03-22 17:39:57.322,1774172397322,1774172397322,-0.97998047,-0.12402344,-0.16357422,-1.0986328,-0.24414062,0.18310547,0.0,0.0,0.0,-144.54712,77.76672,-154.09424
2026-03-22 17:39:57.410,1774172397410,1774172397410,-0.9819336,-0.125,-0.16552734,-0.6713867,-0.48828125,0.0,0.0,0.0,0.0,-144.54712,77.76672,-154.09424
2026-03-22 17:39:57.422,1774172397422,1774172397422,-0.9819336,-0.125,-0.16552734,-0.6713867,-0.48828125,0.0,0.0,0.0,0.0,-144.40979,77.81067,-154.01184
2026-03-22 17:39:57.510,1774172397510,1774172397510,-0.9819336,-0.123535156,-0.1640625,-0.24414062,-0.61035156,0.0,0.0,0.0,0.0,-144.40979,77.81067,-154.01184
2026-03-22 17:39:57.522,1774172397522,1774172397522,-0.9819336,-0.123535156,-0.1640625,-0.24414062,-0.61035156,0.0,0.0,0.0,0.0,-144.16809,77.86011,-153.84705
2026-03-22 17:39:57.609,1774172397609,1774172397609,-0.9838867,-0.123046875,-0.16308594,0.0,-0.61035156,0.0,0.0,0.0,0.0,-144.16809,77.86011,-153.84705
2026-03-22 17:39:57.621,1774172397621,1774172397621,-0.9838867,-0.123046875,-0.16308594,0.0,-0.61035156,0.0,0.0,0.0,0.0,-143.89343,77.926025,-153.64929
2026-03-22 17:39:57.709,1774172397709,1774172397709,-0.9824219,-0.123535156,-0.16015625,0.36621094,0.5493164,0.0,0.0,0.0,0.0,-143.89343,77.926025,-153.64929
2026-03-22 17:39:57.721,1774172397721,1774172397721,-0.9824219,-0.123535156,-0.16015625,0.36621094,0.5493164,0.0,0.0,0.0,0.0,-143.80554,77.92053,-153.68225
2026-03-22 17:39:57.809,1774172397809,1774172397809,-0.9814453,-0.12402344,-0.15771484,-0.4272461,0.36621094,0.48828125,0.0,0.0,0.0,-143.80554,77.92053,-153.68225
2026-03-22 17:39:57.820,1774172397820,1774172397820,-0.9814453,-0.12402344,-0.15771484,-0.4272461,0.36621094,0.48828125,0.0,0.0,0.0,-144.04724,77.87659,-154.00635
2026-03-22 17:39:57.909,1774172397909,1774172397909,-0.98046875,-0.12451172,-0.15673828,-0.36621094,0.6713867,0.48828125,0.0,0.0,0.0,-144.04724,77.87659,-154.00635
2026-03-22 17:39:57.920,1774172397920,1774172397920,-0.98046875,-0.12451172,-0.15673828,-0.36621094,0.6713867,0.48828125,0.0,0.0,0.0,-144.19556,77.89856,-154.27002
2026-03-22 17:39:58.008,1774172398008,1774172398008,-0.98095703,-0.12207031,-0.16210938,-0.6713867,0.48828125,0.061035156,0.0,0.0,0.0,-144.19556,77.89856,-154.27002
2026-03-22 17:39:58.020,1774172398020,1774172398020,-0.98095703,-0.12207031,-0.16210938,-0.6713867,0.48828125,0.061035156,0.0,0.0,0.0,-144.33289,77.8656,-154.5227
2026-03-22 17:39:58.108,1774172398108,1774172398108,-0.98339844,-0.12402344,-0.16210938,-0.61035156,0.12207031,0.24414062,0.0,0.0,0.0,-144.33289,77.8656,-154.5227
2026-03-22 17:39:58.120,1774172398120,1774172398120,-0.98339844,-0.12402344,-0.16210938,-0.61035156,0.12207031,0.24414062,0.0,0.0,0.0,-144.45923,77.86011,-154.73145
2026-03-22 17:39:58.208,1774172398208,1774172398208,-0.97802734,-0.122558594,-0.1616211,-0.30517578,0.4272461,0.12207031,0.0,0.0,0.0,-144.45923,77.86011,-154.73145
2026-03-22 17:39:58.219,1774172398219,1774172398219,-0.97802734,-0.122558594,-0.1616211,-0.30517578,0.4272461,0.12207031,0.0,0.0,0.0,-144.49219,77.854614,-154.85779
2026-03-22 17:39:58.307,1774172398307,1774172398307,-0.97998047,-0.12158203,-0.1640625,0.24414062,0.4272461,-0.061035156,0.0,0.0,0.0,-144.49219,77.854614,-154.85779
2026-03-22 17:39:58.319,1774172398319,1774172398319,-0.97998047,-0.12158203,-0.1640625,0.24414062,0.4272461,-0.061035156,0.0,0.0,0.0,-144.45374,77.84363,-154.9347
2026-03-22 17:39:58.407,1774172398407,1774172398407,-0.97802734,-0.12060547,-0.16357422,-0.061035156,0.24414062,0.12207031,0.0,0.0,0.0,-144.45374,77.84363,-154.9347
2026-03-22 17:39:58.419,1774172398419,1774172398419,-0.97802734,-0.12060547,-0.16357422,-0.061035156,0.24414062,0.12207031,0.0,0.0,0.0,-144.49768,77.821655,-155.0885
2026-03-22 17:39:58.507,1774172398507,1774172398507,-0.9838867,-0.119628906,-0.16699219,-0.12207031,1.4038086,0.36621094,0.0,0.0,0.0,-144.49768,77.821655,-155.0885
2026-03-22 17:39:58.519,1774172398519,1774172398519,-0.9838867,-0.119628906,-0.16699219,-0.12207031,1.4038086,0.36621094,0.0,0.0,0.0,-144.7229,77.79419,-155.39612
2026-03-22 17:39:58.607,1774172398607,1774172398607,-0.98095703,-0.122558594,-0.1640625,-0.61035156,0.24414062,0.79345703,0.0,0.0,0.0,-144.7229,77.79419,-155.39612
2026-03-22 17:39:58.618,1774172398618,1774172398618,-0.98095703,-0.122558594,-0.1640625,-0.61035156,0.24414062,0.79345703,0.0,0.0,0.0,-145.14587,77.76123,-155.896
2026-03-22 17:39:58.706,1774172398706,1774172398706,-0.98046875,-0.12158203,-0.16259766,-0.7324219,0.4272461,0.5493164,0.0,0.0,0.0,-145.14587,77.76123,-155.896
2026-03-22 17:39:58.718,1774172398718,1774172398718,-0.98046875,-0.12158203,-0.16259766,-0.7324219,0.4272461,0.5493164,0.0,0.0,0.0,-145.43152,77.79968,-156.2201
2026-03-22 17:39:58.806,1774172398806,1774172398806,-0.9819336,-0.11816406,-0.16894531,-0.24414062,0.5493164,0.0,0.0,0.0,0.0,-145.43152,77.79968,-156.2201
2026-03-22 17:39:58.817,1774172398817,1774172398817,-0.9819336,-0.11816406,-0.16894531,-0.24414062,0.5493164,0.0,0.0,0.0,0.0,-145.55786,77.7832,-156.4508
2026-03-22 17:39:58.906,1774172398906,1774172398906,-0.97802734,-0.1171875,-0.16748047,-0.48828125,0.30517578,0.18310547,0.0,0.0,0.0,-145.55786,77.7832,-156.4508
2026-03-22 17:39:58.917,1774172398917,1774172398917,-0.97802734,-0.1171875,-0.16748047,-0.48828125,0.30517578,0.18310547,0.0,0.0,0.0,-145.6128,77.77771,-156.55518
2026-03-22 17:39:59.005,1774172399005,1774172399005,-0.98291016,-0.119628906,-0.16455078,-0.061035156,-0.4272461,0.0,0.0,0.0,0.0,-145.6128,77.77771,-156.55518
2026-03-22 17:39:59.018,1774172399018,1774172399018,-0.98291016,-0.119628906,-0.16455078,-0.061035156,-0.4272461,0.0,0.0,0.0,0.0,-145.57434,77.79968,-156.58264
2026-03-22 17:39:59.105,1774172399105,1774172399105,-0.9819336,-0.12060547,-0.16796875,-0.18310547,0.061035156,0.061035156,0.0,0.0,0.0,-145.57434,77.79968,-156.58264
2026-03-22 17:39:59.117,1774172399117,1774172399117,-0.9819336,-0.12060547,-0.16796875,-0.18310547,0.061035156,0.061035156,0.0,0.0,0.0,-145.48645,77.81616,-156.59363
2026-03-22 17:39:59.205,1774172399205,1774172399205,-0.9824219,-0.11816406,-0.1665039,-0.061035156,0.0,0.24414062,0.0,0.0,0.0,-145.48645,77.81616,-156.59363
2026-03-22 17:39:59.216,1774172399216,1774172399216,-0.9824219,-0.11816406,-0.1665039,-0.061035156,0.0,0.24414062,0.0,0.0,0.0,-145.47546,77.83264,-156.68152
2026-03-22 17:39:59.304,1774172399304,1774172399304,-0.98046875,-0.119628906,-0.16552734,-0.18310547,-0.12207031,0.0,0.0,0.0,0.0,-145.47546,77.83264,-156.68152
2026-03-22 17:39:59.316,1774172399316,1774172399316,-0.98046875,-0.119628906,-0.16552734,-0.18310547,-0.12207031,0.0,0.0,0.0,0.0,-145.43152,77.854614,-156.70349
2026-03-22 17:39:59.404,1774172399404,1774172399404,-0.98095703,-0.12060547,-0.16503906,-0.24414062,-0.30517578,0.0,0.0,0.0,0.0,-145.43152,77.854614,-156.70349
2026-03-22 17:39:59.416,1774172399416,1774172399416,-0.98095703,-0.12060547,-0.16503906,-0.24414062,-0.30517578,0.0,0.0,0.0,0.0,-145.29968,77.88208,-156.64856
2026-03-22 17:39:59.504,1774172399504,1774172399504,-0.98046875,-0.118652344,-0.16601562,-0.24414062,0.0,0.0,0.0,0.0,0.0,-145.29968,77.88208,-156.64856
2026-03-22 17:39:59.515,1774172399515,1774172399515,-0.98046875,-0.118652344,-0.16601562,-0.24414062,0.0,0.0,0.0,0.0,0.0,-145.18982,77.89307,-156.6211
2026-03-22 17:39:59.604,1774172399604,1774172399604,-0.98291016,-0.119140625,-0.1665039,-0.12207031,-0.24414062,0.0,0.0,0.0,0.0,-145.18982,77.89307,-156.6211
2026-03-22 17:39:59.615,1774172399615,1774172399615,-0.98291016,-0.119140625,-0.1665039,-0.12207031,-0.24414062,0.0,0.0,0.0,0.0,-145.07996,77.91504,-156.57166
2026-03-22 17:39:59.703,1774172399703,1774172399703,-0.98291016,-0.12109375,-0.16113281,-0.36621094,0.061035156,0.0,0.0,0.0,0.0,-145.07996,77.91504,-156.57166
2026-03-22 17:39:59.715,1774172399715,1774172399715,-0.98291016,-0.12109375,-0.16113281,-0.36621094,0.061035156,0.0,0.0,0.0,0.0,-145.06348,77.909546,-156.62659
2026-03-22 17:39:59.803,1774172399803,1774172399803,-0.9824219,-0.12060547,-0.16503906,-0.24414062,0.12207031,0.0,0.0,0.0,0.0,-145.06348,77.909546,-156.62659
2026-03-22 17:39:59.815,1774172399815,1774172399815,-0.9824219,-0.12060547,-0.16503906,-0.24414062,0.12207031,0.0,0.0,0.0,0.0,-144.9701,77.92053,-156.60461
2026-03-22 17:39:59.903,1774172399903,1774172399903,-0.98046875,-0.12109375,-0.1640625,-0.12207031,0.0,0.0,0.0,0.0,0.0,-144.9701,77.92053,-156.60461
2026-03-22 17:39:59.915,1774172399915,1774172399915,-0.98046875,-0.12109375,-0.1640625,-0.12207031,0.0,0.0,0.0,0.0,0.0,-144.87122,77.93701,-156.58813
2026-03-22 17:40:00.003,1774172400003,1774172400003,-0.98291016,-0.12109375,-0.16210938,-0.4272461,-0.48828125,0.0,0.0,0.0,0.0,-144.87122,77.93701,-156.58813
2026-03-22 17:40:00.014,1774172400014,1774172400014,-0.98291016,-0.12109375,-0.16210938,-0.4272461,-0.48828125,0.0,0.0,0.0,0.0,-144.77234,77.948,-156.56616
2026-03-22 17:40:00.102,1774172400102,1774172400102,-0.9814453,-0.12011719,-0.16259766,-0.18310547,-0.18310547,0.0,0.0,0.0,0.0,-144.77234,77.948,-156.56616
2026-03-22 17:40:00.114,1774172400114,1774172400114,-0.9814453,-0.12011719,-0.16259766,-0.18310547,-0.18310547,0.0,0.0,0.0,0.0,-144.60205,77.98096,-156.47278
2026-03-22 17:40:00.202,1774172400202,1774172400202,-0.9819336,-0.12109375,-0.16210938,-0.18310547,-0.36621094,0.0,0.0,0.0,0.0,-144.60205,77.98096,-156.47278
2026-03-22 17:40:00.213,1774172400213,1774172400213,-0.9819336,-0.12109375,-0.16210938,-0.18310547,-0.36621094,0.0,0.0,0.0,0.0,-144.43176,78.013916,-156.38489
2026-03-22 17:40:00.302,1774172400302,1774172400302,-0.98291016,-0.12060547,-0.16064453,-0.12207031,0.0,0.0,0.0,0.0,0.0,-144.43176,78.013916,-156.38489
2026-03-22 17:40:00.313,1774172400313,1774172400313,-0.98291016,-0.12060547,-0.16064453,-0.12207031,0.0,0.0,0.0,0.0,0.0,-144.3164,78.030396,-156.34644
2026-03-22 17:40:00.401,1774172400401,1774172400401,-0.9824219,-0.119140625,-0.16113281,-0.4272461,0.30517578,0.30517578,0.0,0.0,0.0,-144.3164,78.030396,-156.34644
2026-03-22 17:40:00.413,1774172400413,1774172400413,-0.9824219,-0.119140625,-0.16113281,-0.4272461,0.30517578,0.30517578,0.0,0.0,0.0,-144.36584,78.01941,-156.46179
2026-03-22 17:40:00.501,1774172400501,1774172400501,-0.98291016,-0.122558594,-0.15966797,-0.30517578,0.12207031,0.24414062,0.0,0.0,0.0,-144.36584,78.01941,-156.46179
2026-03-22 17:40:00.513,1774172400513,1774172400513,-0.98291016,-0.122558594,-0.15966797,-0.30517578,0.12207031,0.24414062,0.0,0.0,0.0,-144.49768,78.03589,-156.64856
2026-03-22 17:40:00.601,1774172400601,1774172400601,-0.984375,-0.1171875,-0.15966797,-0.4272461,0.0,0.0,0.0,0.0,0.0,-144.49768,78.03589,-156.64856
2026-03-22 17:40:00.612,1774172400612,1774172400612,-0.984375,-0.1171875,-0.15966797,-0.4272461,0.0,0.0,0.0,0.0,0.0,-144.44275,78.030396,-156.698
2026-03-22 17:40:00.700,1774172400700,1774172400700,-0.98583984,-0.12011719,-0.16259766,-0.6713867,-0.061035156,0.5493164,0.0,0.0,0.0,-144.44275,78.030396,-156.698
2026-03-22 17:40:00.712,1774172400712,1774172400712,-0.98583984,-0.12011719,-0.16259766,-0.6713867,-0.061035156,0.5493164,0.0,0.0,0.0,-144.50317,78.06885,-156.80237
2026-03-22 17:40:00.800,1774172400800,1774172400800,-0.9819336,-0.12011719,-0.15966797,0.0,0.0,0.12207031,0.0,0.0,0.0,-144.50317,78.06885,-156.80237
2026-03-22 17:40:00.812,1774172400812,1774172400812,-0.9819336,-0.12011719,-0.15966797,0.0,0.0,0.12207031,0.0,0.0,0.0,-144.58008,78.10181,-156.94519
2026-03-22 17:40:00.900,1774172400900,1774172400900,-0.9838867,-0.119140625,-0.15966797,0.061035156,-0.4272461,-0.061035156,0.0,0.0,0.0,-144.58008,78.10181,-156.94519
2026-03-22 17:40:00.911,1774172400911,1774172400911,-0.9838867,-0.119140625,-0.15966797,0.061035156,-0.4272461,-0.061035156,0.0,0.0,0.0,-144.43176,78.12378,-156.89026
2026-03-22 17:40:01.000,1774172401000,1774172401000,-0.9824219,-0.1171875,-0.15917969,-0.18310547,0.48828125,0.0,0.0,0.0,0.0,-144.43176,78.12378,-156.89026
2026-03-22 17:40:01.011,1774172401011,1774172401011,-0.9824219,-0.1171875,-0.15917969,-0.18310547,0.48828125,0.0,0.0,0.0,0.0,-144.3988,78.118286,-156.9397
2026-03-22 17:40:01.099,1774172401099,1774172401099,-0.9819336,-0.12060547,-0.16064453,-0.18310547,0.91552734,-0.12207031,0.0,0.0,0.0,-144.3988,78.118286,-156.9397
2026-03-22 17:40:01.111,1774172401111,1774172401111,-0.9819336,-0.12060547,-0.16064453,-0.18310547,0.91552734,-0.12207031,0.0,0.0,0.0,-144.4867,78.079834,-157.10449
2026-03-22 17:40:01.199,1774172401199,1774172401199,-0.9814453,-0.12060547,-0.15917969,-0.4272461,0.61035156,-0.24414062,0.0,0.0,0.0,-144.4867,78.079834,-157.10449
2026-03-22 17:40:01.211,1774172401211,1774172401211,-0.9814453,-0.12060547,-0.15917969,-0.4272461,0.61035156,-0.24414062,0.0,0.0,0.0,-144.59106,77.99194,-157.30774
2026-03-22 17:40:01.299,1774172401299,1774172401299,-0.97998047,-0.12109375,-0.16064453,-0.18310547,0.4272461,-0.48828125,0.0,0.0,0.0,-144.59106,77.99194,-157.30774
2026-03-22 17:40:01.310,1774172401310,1774172401310,-0.97998047,-0.12109375,-0.16064453,-0.18310547,0.4272461,-0.48828125,0.0,0.0,0.0,-144.50317,77.926025,-157.32422
2026-03-22 17:40:01.398,1774172401398,1774172401398,-0.9785156,-0.12109375,-0.1616211,-0.061035156,0.9765625,-0.36621094,0.0,0.0,0.0,-144.50317,77.926025,-157.32422
2026-03-22 17:40:01.410,1774172401410,1774172401410,-0.9785156,-0.12109375,-0.1616211,-0.061035156,0.9765625,-0.36621094,0.0,0.0,0.0,-144.40979,77.87109,-157.32422
2026-03-22 17:40:01.498,1774172401498,1774172401498,-0.98046875,-0.12158203,-0.16503906,-0.30517578,0.61035156,-0.12207031,0.0,0.0,0.0,-144.40979,77.87109,-157.32422
2026-03-22 17:40:01.510,1774172401510,1774172401510,-0.98046875,-0.12158203,-0.16503906,-0.30517578,0.61035156,-0.12207031,0.0,0.0,0.0,-144.50317,77.805176,-157.48901
2026-03-22 17:40:01.598,1774172401598,1774172401598,-0.98291016,-0.12207031,-0.16699219,-0.12207031,0.91552734,-0.061035156,0.0,0.0,0.0,-144.50317,77.805176,-157.48901
2026-03-22 17:40:01.609,1774172401609,1774172401609,-0.98291016,-0.12207031,-0.16699219,-0.12207031,0.91552734,-0.061035156,0.0,0.0,0.0,-144.65698,77.733765,-157.70874
2026-03-22 17:40:01.698,1774172401698,1774172401698,-0.97753906,-0.123046875,-0.16748047,-0.061035156,1.0375977,0.061035156,0.0,0.0,0.0,-144.65698,77.733765,-157.70874
2026-03-22 17:40:01.709,1774172401709,1774172401709,-0.97753906,-0.123046875,-0.16748047,-0.061035156,1.0375977,0.061035156,0.0,0.0,0.0,-144.81079,77.67334,-157.93945
2026-03-22 17:40:01.797,1774172401797,1774172401797,-0.9794922,-0.122558594,-0.16748047,-0.061035156,0.4272461,0.061035156,0.0,0.0,0.0,-144.81079,77.67334,-157.93945
2026-03-22 17:40:01.809,1774172401809,1774172401809,-0.9794922,-0.122558594,-0.16748047,-0.061035156,0.4272461,0.061035156,0.0,0.0,0.0,-144.95361,77.63489,-158.17017
2026-03-22 17:40:01.897,1774172401897,1774172401897,-0.97802734,-0.123046875,-0.1665039,0.0,0.0,-0.24414062,0.0,0.0,0.0,-144.95361,77.63489,-158.17017
2026-03-22 17:40:01.908,1774172401908,1774172401908,-0.97802734,-0.123046875,-0.1665039,0.0,0.0,-0.24414062,0.0,0.0,0.0,-144.89319,77.6239,-158.20862
2026-03-22 17:40:01.997,1774172401997,1774172401997,-0.98095703,-0.12597656,-0.16845703,-0.12207031,0.48828125,-0.24414062,0.0,0.0,0.0,-144.89319,77.6239,-158.20862
2026-03-22 17:40:02.008,1774172402008,1774172402008,-0.98095703,-0.12597656,-0.16845703,-0.12207031,0.48828125,-0.24414062,0.0,0.0,0.0,-144.74487,77.596436,-158.17017
2026-03-22 17:40:02.096,1774172402096,1774172402096,-0.9794922,-0.125,-0.16894531,-0.30517578,0.0,-0.18310547,0.0,0.0,0.0,-144.74487,77.596436,-158.17017
2026-03-22 17:40:02.108,1774172402108,1774172402108,-0.9794922,-0.125,-0.16894531,-0.30517578,0.0,-0.18310547,0.0,0.0,0.0,-144.59106,77.58545,-158.10974
2026-03-22 17:40:02.196,1774172402196,1774172402196,-0.98095703,-0.12597656,-0.16894531,-0.061035156,0.0,-0.36621094,0.0,0.0,0.0,-144.59106,77.58545,-158.10974
2026-03-22 17:40:02.208,1774172402208,1774172402208,-0.98095703,-0.12597656,-0.16894531,-0.061035156,0.0,-0.36621094,0.0,0.0,0.0,-144.43176,77.56348,-158.04932
2026-03-22 17:40:02.296,1774172402296,1774172402296,-0.9794922,-0.12646484,-0.16699219,0.24414062,0.79345703,-0.24414062,0.0,0.0,0.0,-144.43176,77.56348,-158.04932
2026-03-22 17:40:02.307,1774172402307,1774172402307,-0.9794922,-0.12646484,-0.16699219,0.24414062,0.79345703,-0.24414062,0.0,0.0,0.0,-144.3274,77.53052,-158.04932
2026-03-22 17:40:02.395,1774172402395,1774172402395,-0.97753906,-0.12597656,-0.16894531,-0.18310547,0.18310547,0.0,0.0,0.0,0.0,-144.3274,77.53052,-158.04932
2026-03-22 17:40:02.407,1774172402407,1774172402407,-0.97753906,-0.12597656,-0.16894531,-0.18310547,0.18310547,0.0,0.0,0.0,0.0,-144.28894,77.51404,-158.09326
2026-03-22 17:40:02.495,1774172402495,1774172402495,-0.9819336,-0.12695312,-0.16845703,-0.061035156,0.18310547,0.061035156,0.0,0.0,0.0,-144.28894,77.51404,-158.09326
2026-03-22 17:40:02.507,1774172402507,1774172402507,-0.9819336,-0.12695312,-0.16845703,-0.061035156,0.18310547,0.061035156,0.0,0.0,0.0,-144.35486,77.492065,-158.24707
2026-03-22 17:40:02.595,1774172402595,1774172402595,-0.9785156,-0.12597656,-0.1694336,-0.4272461,0.48828125,0.24414062,0.0,0.0,0.0,-144.35486,77.492065,-158.24707
2026-03-22 17:40:02.606,1774172402606,1774172402606,-0.9785156,-0.12597656,-0.1694336,-0.4272461,0.48828125,0.24414062,0.0,0.0,0.0,-144.40979,77.475586,-158.3789
2026-03-22 17:40:02.694,1774172402694,1774172402694,-0.97998047,-0.12597656,-0.1694336,-0.18310547,-0.18310547,0.061035156,0.0,0.0,0.0,-144.40979,77.475586,-158.3789
2026-03-22 17:40:02.706,1774172402706,1774172402706,-0.97998047,-0.12597656,-0.1694336,-0.18310547,-0.18310547,0.061035156,0.0,0.0,0.0,-144.39331,77.48657,-158.43384
2026-03-22 17:40:02.794,1774172402794,1774172402794,-0.9794922,-0.12548828,-0.16748047,-0.24414062,-0.48828125,0.0,0.0,0.0,0.0,-144.39331,77.48657,-158.43384
2026-03-22 17:40:02.806,1774172402806,1774172402806,-0.9794922,-0.12548828,-0.16748047,-0.24414062,-0.48828125,0.0,0.0,0.0,0.0,-144.25049,77.51404,-158.35693
2026-03-22 17:40:02.894,1774172402894,1774172402894,-0.98095703,-0.125,-0.16845703,0.0,-0.61035156,0.0,0.0,0.0,0.0,-144.25049,77.51404,-158.35693
2026-03-22 17:40:02.906,1774172402906,1774172402906,-0.98095703,-0.125,-0.16845703,0.0,-0.61035156,0.0,0.0,0.0,0.0,-143.9978,77.57446,-158.17017
2026-03-22 17:40:02.994,1774172402994,1774172402994,-0.97998047,-0.1274414,-0.16455078,-0.18310547,-0.30517578,0.0,0.0,0.0,0.0,-143.9978,77.57446,-158.17017
2026-03-22 17:40:03.005,1774172403005,1774172403005,-0.97998047,-0.1274414,-0.16455078,-0.18310547,-0.30517578,0.0,0.0,0.0,0.0,-143.7616,77.629395,-157.99438
2026-03-22 17:40:03.093,1774172403093,1774172403093,-0.9824219,-0.12646484,-0.16308594,-0.18310547,-0.18310547,0.0,0.0,0.0,0.0,-143.7616,77.629395,-157.99438
2026-03-22 17:40:03.105,1774172403105,1774172403105,-0.9824219,-0.12646484,-0.16308594,-0.18310547,-0.18310547,0.0,0.0,0.0,0.0,-143.5968,77.66235,-157.901
2026-03-22 17:40:03.193,1774172403193,1774172403193,-0.9819336,-0.12597656,-0.16357422,-0.12207031,0.061035156,0.24414062,0.0,0.0,0.0,-143.5968,77.66235,-157.901
2026-03-22 17:40:03.204,1774172403204,1774172403204,-0.9819336,-0.12597656,-0.16357422,-0.12207031,0.061035156,0.24414062,0.0,0.0,0.0,-143.58582,77.684326,-157.9834
2026-03-22 17:40:03.293,1774172403293,1774172403293,-0.97802734,-0.12402344,-0.16113281,-0.30517578,-0.24414062,0.30517578,0.0,0.0,0.0,-143.58582,77.684326,-157.9834
2026-03-22 17:40:03.305,1774172403305,1774172403305,-0.97802734,-0.12402344,-0.16113281,-0.30517578,-0.24414062,0.30517578,0.0,0.0,0.0,-143.63525,77.72827,-158.09326
2026-03-22 17:40:03.392,1774172403392,1774172403392,-0.9824219,-0.125,-0.1616211,-0.24414062,-0.061035156,0.0,0.0,0.0,0.0,-143.63525,77.72827,-158.09326
2026-03-22 17:40:03.404,1774172403404,1774172403404,-0.9824219,-0.125,-0.1616211,-0.24414062,-0.061035156,0.0,0.0,0.0,0.0,-143.59131,77.76672,-158.13171
2026-03-22 17:40:03.492,1774172403492,1774172403492,-0.98095703,-0.125,-0.16357422,-0.36621094,-0.36621094,0.12207031,0.0,0.0,0.0,-143.59131,77.76672,-158.13171
2026-03-22 17:40:03.504,1774172403504,1774172403504,-0.98095703,-0.125,-0.16357422,-0.36621094,-0.36621094,0.12207031,0.0,0.0,0.0,-143.48694,77.79968,-158.11523
2026-03-22 17:40:03.592,1774172403592,1774172403592,-0.9824219,-0.12451172,-0.16064453,-0.18310547,0.0,0.30517578,0.0,0.0,0.0,-143.48694,77.79968,-158.11523
2026-03-22 17:40:03.603,1774172403603,1774172403603,-0.9824219,-0.12451172,-0.16064453,-0.18310547,0.0,0.30517578,0.0,0.0,0.0,-143.44849,77.838135,-158.1427
2026-03-22 17:40:03.691,1774172403691,1774172403691,-0.98046875,-0.12451172,-0.16113281,-0.061035156,0.36621094,0.24414062,0.0,0.0,0.0,-143.44849,77.838135,-158.1427
2026-03-22 17:40:03.703,1774172403703,1774172403703,-0.98046875,-0.12451172,-0.16113281,-0.061035156,0.36621094,0.24414062,0.0,0.0,0.0,-143.49792,77.854614,-158.28552
2026-03-22 17:40:03.791,1774172403791,1774172403791,-0.98291016,-0.12207031,-0.16064453,-0.061035156,0.24414062,0.30517578,0.0,0.0,0.0,-143.49792,77.854614,-158.28552
2026-03-22 17:40:03.803,1774172403803,1774172403803,-0.98291016,-0.12207031,-0.16064453,-0.061035156,0.24414062,0.30517578,0.0,0.0,0.0,-143.61877,77.854614,-158.49976
2026-03-22 17:40:03.891,1774172403891,1774172403891,-0.98095703,-0.12451172,-0.16259766,-0.061035156,0.7324219,0.30517578,0.0,0.0,0.0,-143.61877,77.854614,-158.49976
2026-03-22 17:40:03.903,1774172403903,1774172403903,-0.98095703,-0.12451172,-0.16259766,-0.061035156,0.7324219,0.30517578,0.0,0.0,0.0,-143.78906,77.854614,-158.75244
2026-03-22 17:40:03.991,1774172403991,1774172403991,-0.9814453,-0.125,-0.1640625,-0.18310547,0.48828125,0.18310547,0.0,0.0,0.0,-143.78906,77.854614,-158.75244
2026-03-22 17:40:04.002,1774172404002,1774172404002,-0.9814453,-0.125,-0.1640625,-0.18310547,0.48828125,0.18310547,0.0,0.0,0.0,-143.97583,77.83264,-159.03809
2026-03-22 17:40:04.090,1774172404090,1774172404090,-0.9824219,-0.123535156,-0.16210938,-0.79345703,0.5493164,0.30517578,0.0,0.0,0.0,-143.97583,77.83264,-159.03809
2026-03-22 17:40:04.102,1774172404102,1774172404102,-0.9824219,-0.123535156,-0.16210938,-0.79345703,0.5493164,0.30517578,0.0,0.0,0.0,-144.20654,77.79419,-159.36218
2026-03-22 17:40:04.190,1774172404190,1774172404190,-0.9819336,-0.123046875,-0.16699219,-0.18310547,0.91552734,0.061035156,0.0,0.0,0.0,-144.20654,77.79419,-159.36218
2026-03-22 17:40:04.202,1774172404202,1774172404202,-0.9819336,-0.123046875,-0.16699219,-0.18310547,0.91552734,0.061035156,0.0,0.0,0.0,-144.29443,77.7887,-159.52148
2026-03-22 17:40:04.290,1774172404290,1774172404290,-0.97998047,-0.119628906,-0.1665039,0.0,1.0986328,-0.12207031,0.0,0.0,0.0,-144.29443,77.7887,-159.52148
2026-03-22 17:40:04.301,1774172404301,1774172404301,-0.97998047,-0.119628906,-0.1665039,0.0,1.0986328,-0.12207031,0.0,0.0,0.0,-144.45923,77.717285,-159.79614
2026-03-22 17:40:04.389,1774172404389,1774172404389,-0.98291016,-0.12207031,-0.16894531,0.30517578,1.0375977,-0.061035156,0.0,0.0,0.0,-144.45923,77.717285,-159.79614
2026-03-22 17:40:04.401,1774172404401,1774172404401,-0.98291016,-0.12207031,-0.16894531,0.30517578,1.0375977,-0.061035156,0.0,0.0,0.0,-144.61853,77.63489,-160.0763
2026-03-22 17:40:04.489,1774172404489,1774172404489,-0.9794922,-0.123535156,-0.16845703,0.061035156,0.6713867,0.18310547,0.0,0.0,0.0,-144.61853,77.63489,-160.0763
2026-03-22 17:40:04.501,1774172404501,1774172404501,-0.9794922,-0.123535156,-0.16845703,0.061035156,0.6713867,0.18310547,0.0,0.0,0.0,-144.70093,77.596436,-160.27405
2026-03-22 17:40:04.589,1774172404589,1774172404589,-0.98046875,-0.125,-0.16894531,0.18310547,0.8544922,0.061035156,0.0,0.0,0.0,-144.70093,77.596436,-160.27405
2026-03-22 17:40:04.600,1774172404600,1774172404600,-0.98046875,-0.125,-0.16894531,0.18310547,0.8544922,0.061035156,0.0,0.0,0.0,-144.83276,77.55249,-160.53223
2026-03-22 17:40:04.688,1774172404688,1774172404688,-0.9760742,-0.12207031,-0.17382812,0.0,1.0375977,0.0,0.0,0.0,0.0,-144.83276,77.55249,-160.53223
2026-03-22 17:40:04.700,1774172404700,1774172404700,-0.9760742,-0.12207031,-0.17382812,0.0,1.0375977,0.0,0.0,0.0,0.0,-144.99207,77.48108,-160.80139
2026-03-22 17:40:04.788,1774172404788,1774172404788,-0.9814453,-0.123046875,-0.17529297,-0.18310547,0.9765625,0.0,0.0,0.0,0.0,-144.99207,77.48108,-160.80139
2026-03-22 17:40:04.800,1774172404800,1774172404800,-0.9814453,-0.123046875,-0.17529297,-0.18310547,0.9765625,0.0,0.0,0.0,0.0,-145.17334,77.41516,-161.05957
2026-03-22 17:40:04.888,1774172404888,1774172404888,-0.9765625,-0.12402344,-0.17236328,-0.18310547,0.91552734,0.0,0.0,0.0,0.0,-145.17334,77.41516,-161.05957
2026-03-22 17:40:04.899,1774172404899,1774172404899,-0.9765625,-0.12402344,-0.17236328,-0.18310547,0.91552734,0.0,0.0,0.0,0.0,-145.32715,77.34924,-161.30676
2026-03-22 17:40:04.988,1774172404988,1774172404988,-0.9814453,-0.12451172,-0.16992188,-0.6713867,0.36621094,0.0,0.0,0.0,0.0,-145.32715,77.34924,-161.30676
2026-03-22 17:40:04.999,1774172404999,1774172404999,-0.9814453,-0.12451172,-0.16992188,-0.6713867,0.36621094,0.0,0.0,0.0,0.0,-145.50842,77.28882,-161.55945
2026-03-22 17:40:05.087,1774172405087,1774172405087,-0.97998047,-0.125,-0.17480469,-0.18310547,0.18310547,0.0,0.0,0.0,0.0,-145.50842,77.28882,-161.55945
2026-03-22 17:40:05.099,1774172405099,1774172405099,-0.97998047,-0.125,-0.17480469,-0.18310547,0.18310547,0.0,0.0,0.0,0.0,-145.49194,77.283325,-161.62537
2026-03-22 17:40:05.187,1774172405187,1774172405187,-0.9785156,-0.125,-0.1772461,0.0,0.5493164,0.0,0.0,0.0,0.0,-145.49194,77.283325,-161.62537
2026-03-22 17:40:05.199,1774172405199,1774172405199,-0.9785156,-0.125,-0.1772461,0.0,0.5493164,0.0,0.0,0.0,0.0,-145.46448,77.27234,-161.69128
2026-03-22 17:40:05.287,1774172405287,1774172405287,-0.9785156,-0.122558594,-0.1772461,0.36621094,-0.12207031,0.0,0.0,0.0,0.0,-145.46448,77.27234,-161.69128
2026-03-22 17:40:05.298,1774172405298,1774172405298,-0.9785156,-0.122558594,-0.1772461,0.36621094,-0.12207031,0.0,0.0,0.0,0.0,-145.43152,77.26135,-161.74622
2026-03-22 17:40:05.386,1774172405386,1774172405386,-0.9790039,-0.125,-0.17236328,0.6713867,0.061035156,0.0,0.0,0.0,0.0,-145.43152,77.26135,-161.74622
2026-03-22 17:40:05.398,1774172405398,1774172405398,-0.9790039,-0.125,-0.17236328,0.6713867,0.061035156,0.0,0.0,0.0,0.0,-145.33813,77.26135,-161.76819
2026-03-22 17:40:05.486,1774172405486,1774172405486,-0.9785156,-0.12109375,-0.17529297,1.6479492,-0.12207031,0.0,0.0,0.0,0.0,-145.33813,77.26135,-161.76819
2026-03-22 17:40:05.498,1774172405498,1774172405498,-0.9785156,-0.12109375,-0.17529297,1.6479492,-0.12207031,0.0,0.0,0.0,0.0,-145.15686,77.27234,-161.76819
2026-03-22 17:40:05.586,1774172405586,1774172405586,-0.98046875,-0.12060547,-0.17236328,3.479004,1.2817383,1.2817383,0.0,0.0,0.0,-145.15686,77.27234,-161.76819
2026-03-22 17:40:05.597,1774172405597,1774172405597,-0.98046875,-0.12060547,-0.17236328,3.479004,1.2817383,1.2817383,0.0,0.0,0.0,-145.21729,77.25586,-162.12524
2026-03-22 17:40:05.686,1774172405686,1774172405686,-0.97802734,-0.12011719,-0.17382812,4.8217773,0.91552734,2.0751953,0.0,0.0,0.0,-145.21729,77.25586,-162.12524
2026-03-22 17:40:05.697,1774172405697,1774172405697,-0.97802734,-0.12011719,-0.17382812,4.8217773,0.91552734,2.0751953,0.0,0.0,0.0,-145.81604,77.266846,-163.22937
2026-03-22 17:40:05.785,1774172405785,1774172405785,-0.97753906,-0.12695312,-0.17138672,5.1879883,1.4038086,1.0986328,0.0,0.0,0.0,-145.81604,77.266846,-163.22937
2026-03-22 17:40:05.797,1774172405797,1774172405797,-0.97753906,-0.12695312,-0.17138672,5.1879883,1.4038086,1.0986328,0.0,0.0,0.0,-146.11816,77.283325,-164.14673
2026-03-22 17:40:05.885,1774172405885,1774172405885,-0.97509766,-0.13232422,-0.17480469,2.0141602,0.5493164,0.6713867,0.0,0.0,0.0,-146.11816,77.283325,-164.14673
2026-03-22 17:40:05.896,1774172405896,1774172405896,-0.97509766,-0.13232422,-0.17480469,2.0141602,0.5493164,0.6713867,0.0,0.0,0.0,-146.14014,77.27783,-164.66309
2026-03-22 17:40:05.985,1774172405985,1774172405985,-0.9790039,-0.12988281,-0.17675781,-0.48828125,-0.061035156,0.12207031,0.0,0.0,0.0,-146.14014,77.27783,-164.66309
2026-03-22 17:40:05.996,1774172405996,1774172405996,-0.9790039,-0.12988281,-0.17675781,-0.48828125,-0.061035156,0.12207031,0.0,0.0,0.0,-146.07422,77.27783,-164.84436
2026-03-22 17:40:06.084,1774172406084,1774172406084,-0.9794922,-0.123046875,-0.1772461,-0.91552734,0.0,0.0,0.0,0.0,0.0,-146.07422,77.27783,-164.84436
2026-03-22 17:40:06.096,1774172406096,1774172406096,-0.9794922,-0.123046875,-0.1772461,-0.91552734,0.0,0.0,0.0,0.0,0.0,-146.0028,77.27783,-164.86084
2026-03-22 17:40:06.184,1774172406184,1774172406184,-0.9790039,-0.11767578,-0.17529297,-0.12207031,0.0,0.0,0.0,0.0,0.0,-146.0028,77.27783,-164.86084
2026-03-22 17:40:06.196,1774172406196,1774172406196,-0.9790039,-0.11767578,-0.17529297,-0.12207031,0.0,0.0,0.0,0.0,0.0,-145.95886,77.27234,-164.87183
2026-03-22 17:40:06.284,1774172406284,1774172406284,-0.9790039,-0.12158203,-0.17822266,1.2817383,0.36621094,-0.061035156,0.0,0.0,0.0,-145.95886,77.27234,-164.87183
2026-03-22 17:40:06.295,1774172406295,1774172406295,-0.9790039,-0.12158203,-0.17822266,1.2817383,0.36621094,-0.061035156,0.0,0.0,0.0,-145.87097,77.266846,-164.89929
2026-03-22 17:40:06.383,1774172406383,1774172406383,-0.9794922,-0.12646484,-0.1772461,1.5869141,0.6713867,0.0,0.0,0.0,0.0,-145.87097,77.266846,-164.89929
2026-03-22 17:40:06.395,1774172406395,1774172406395,-0.9794922,-0.12646484,-0.1772461,1.5869141,0.6713867,0.0,0.0,0.0,0.0,-145.7721,77.2229,-165.03662
2026-03-22 17:40:06.483,1774172406483,1774172406483,-0.97802734,-0.1274414,-0.17626953,0.30517578,-0.12207031,0.0,0.0,0.0,0.0,-145.7721,77.2229,-165.03662
2026-03-22 17:40:06.495,1774172406495,1774172406495,-0.97802734,-0.1274414,-0.17626953,0.30517578,-0.12207031,0.0,0.0,0.0,0.0,-145.65674,77.20093,-165.11902
2026-03-22 17:40:06.583,1774172406583,1774172406583,-0.9790039,-0.13085938,-0.17529297,-0.30517578,-0.91552734,-0.4272461,0.0,0.0,0.0,-145.65674,77.20093,-165.11902
2026-03-22 17:40:06.594,1774172406594,1774172406594,-0.9790039,-0.13085938,-0.17529297,-0.30517578,-0.91552734,-0.4272461,0.0,0.0,0.0,-145.37659,77.26135,-164.92676
2026-03-22 17:40:06.683,1774172406683,1774172406683,-0.9819336,-0.1274414,-0.171875,-2.1972656,-0.79345703,0.0,0.0,0.0,0.0,-145.37659,77.26135,-164.92676
2026-03-22 17:40:06.694,1774172406694,1774172406694,-0.9819336,-0.1274414,-0.171875,-2.1972656,-0.79345703,0.0,0.0,0.0,0.0,-145.08545,77.283325,-164.6576
2026-03-22 17:40:06.782,1774172406782,1774172406782,-0.9785156,-0.123046875,-0.17333984,-2.1972656,-1.159668,0.0,0.0,0.0,0.0,-145.08545,77.283325,-164.6576
2026-03-22 17:40:06.794,1774172406794,1774172406794,-0.9785156,-0.123046875,-0.17333984,-2.1972656,-1.159668,0.0,0.0,0.0,0.0,-144.83826,77.39319,-164.30054
2026-03-22 17:40:06.882,1774172406882,1774172406882,-0.9794922,-0.123535156,-0.16748047,-1.7089844,-1.3427734,-0.061035156,0.0,0.0,0.0,-144.83826,77.39319,-164.30054
2026-03-22 17:40:06.894,1774172406894,1774172406894,-0.9794922,-0.123535156,-0.16748047,-1.7089844,-1.3427734,-0.061035156,0.0,0.0,0.0,-144.60754,77.48657,-163.94348
2026-03-22 17:40:06.982,1774172406982,1774172406982,-0.97998047,-0.12158203,-0.16748047,-1.2207031,-1.0986328,0.36621094,0.0,0.0,0.0,-144.60754,77.48657,-163.94348
2026-03-22 17:40:06.994,1774172406994,1774172406994,-0.97998047,-0.12158203,-0.16748047,-1.2207031,-1.0986328,0.36621094,0.0,0.0,0.0,-144.42627,77.579956,-163.69629
2026-03-22 17:40:07.081,1774172407081,1774172407081,-0.98095703,-0.122558594,-0.16503906,-0.061035156,-0.9765625,0.30517578,0.0,0.0,0.0,-144.42627,77.579956,-163.69629
2026-03-22 17:40:07.093,1774172407093,1774172407093,-0.98095703,-0.122558594,-0.16503906,-0.061035156,-0.9765625,0.30517578,0.0,0.0,0.0,-144.2395,77.69531,-163.51501
2026-03-22 17:40:07.181,1774172407181,1774172407181,-0.9819336,-0.12158203,-0.16357422,0.4272461,-0.9765625,0.48828125,0.0,0.0,0.0,-144.2395,77.69531,-163.51501
2026-03-22 17:40:07.193,1774172407193,1774172407193,-0.9819336,-0.12158203,-0.16357422,0.4272461,-0.9765625,0.48828125,0.0,0.0,0.0,-144.0033,77.805176,-163.3667
2026-03-22 17:40:07.281,1774172407281,1774172407281,-0.98291016,-0.119140625,-0.1616211,0.9765625,-1.0375977,0.061035156,0.0,0.0,0.0,-144.0033,77.805176,-163.3667
2026-03-22 17:40:07.293,1774172407293,1774172407293,-0.98291016,-0.119140625,-0.1616211,0.9765625,-1.0375977,0.061035156,0.0,0.0,0.0,-143.76709,77.92053,-163.24585
2026-03-22 17:40:07.380,1774172407380,1774172407380,-0.9819336,-0.1171875,-0.16357422,3.9672852,-0.61035156,-1.0375977,0.0,0.0,0.0,-143.76709,77.92053,-163.24585
2026-03-22 17:40:07.392,1774172407392,1774172407392,-0.9819336,-0.1171875,-0.16357422,3.9672852,-0.61035156,-1.0375977,0.0,0.0,0.0,-143.1903,77.958984,-162.89429
2026-03-22 17:40:07.480,1774172407480,1774172407480,-0.984375,-0.12060547,-0.15722656,5.79834,-0.30517578,-1.5258789,0.0,0.0,0.0,-143.1903,77.958984,-162.89429
2026-03-22 17:40:07.492,1774172407492,1774172407492,-0.984375,-0.12060547,-0.15722656,5.79834,-0.30517578,-1.5258789,0.0,0.0,0.0,-142.0697,77.93152,-162.22961
2026-03-22 17:40:07.580,1774172407580,1774172407580,-0.98339844,-0.11669922,-0.15820312,4.760742,-0.6713867,-0.6713867,0.0,0.0,0.0,-142.0697,77.93152,-162.22961
2026-03-22 17:40:07.592,1774172407592,1774172407592,-0.98339844,-0.11669922,-0.15820312,4.760742,-0.6713867,-0.6713867,0.0,0.0,0.0,-141.06445,77.89307,-161.70227
2026-03-22 17:40:07.680,1774172407680,1774172407680,-0.9848633,-0.12597656,-0.15625,4.211426,-0.30517578,-0.4272461,0.0,0.0,0.0,-141.06445,77.89307,-161.70227
2026-03-22 17:40:07.691,1774172407691,1774172407691,-0.9848633,-0.12597656,-0.15625,4.211426,-0.30517578,-0.4272461,0.0,0.0,0.0,-140.43274,77.93701,-161.39465
2026-03-22 17:40:07.779,1774172407779,1774172407779,-0.98535156,-0.12988281,-0.15917969,3.540039,0.7324219,-0.4272461,0.0,0.0,0.0,-140.43274,77.93701,-161.39465
2026-03-22 17:40:07.791,1774172407791,1774172407791,-0.98535156,-0.12988281,-0.15917969,3.540039,0.7324219,-0.4272461,0.0,0.0,0.0,-139.8999,77.92053,-161.18591
2026-03-22 17:40:07.879,1774172407879,1774172407879,-0.97998047,-0.12792969,-0.15478516,2.0141602,-0.61035156,-0.91552734,0.0,0.0,0.0,-139.8999,77.92053,-161.18591
2026-03-22 17:40:07.891,1774172407891,1774172407891,-0.97998047,-0.12792969,-0.15478516,2.0141602,-0.61035156,-0.91552734,0.0,0.0,0.0,-139.54834,77.8656,-161.05957
2026-03-22 17:40:07.979,1774172407979,1774172407979,-0.984375,-0.13916016,-0.15429688,-0.6713867,0.9765625,-1.0986328,0.0,0.0,0.0,-139.54834,77.8656,-161.05957
2026-03-22 17:40:07.990,1774172407990,1774172407990,-0.984375,-0.13916016,-0.15429688,-0.6713867,0.9765625,-1.0986328,0.0,0.0,0.0,-139.15833,77.79968,-160.70251
2026-03-22 17:40:08.079,1774172408079,1774172408079,-0.97802734,-0.13427734,-0.15234375,-4.0283203,0.7324219,-0.5493164,0.0,0.0,0.0,-139.15833,77.79968,-160.70251
2026-03-22 17:40:08.090,1774172408090,1774172408090,-0.97802734,-0.13427734,-0.15234375,-4.0283203,0.7324219,-0.5493164,0.0,0.0,0.0,-139.30664,77.67334,-160.68604
2026-03-22 17:40:08.178,1774172408178,1774172408178,-0.9819336,-0.13134766,-0.15771484,-6.7749023,2.746582,0.12207031,0.0,0.0,0.0,-139.30664,77.67334,-160.68604
2026-03-22 17:40:08.190,1774172408190,1774172408190,-0.9819336,-0.13134766,-0.15771484,-6.7749023,2.746582,0.12207031,0.0,0.0,0.0,-139.92737,77.60742,-160.8728
2026-03-22 17:40:08.278,1774172408278,1774172408278,-0.9873047,-0.14257812,-0.17529297,-9.70459,5.3100586,0.8544922,0.0,0.0,0.0,-139.92737,77.60742,-160.8728
2026-03-22 17:40:08.289,1774172408289,1774172408289,-0.9873047,-0.14257812,-0.17529297,-9.70459,5.3100586,0.8544922,0.0,0.0,0.0,-141.92139,77.3822,-162.10876
2026-03-22 17:40:08.378,1774172408378,1774172408378,-0.97314453,-0.13134766,-0.16210938,-3.6621094,3.9672852,-0.8544922,0.0,0.0,0.0,-141.92139,77.3822,-162.10876
2026-03-22 17:40:08.389,1774172408389,1774172408389,-0.97314453,-0.13134766,-0.16210938,-3.6621094,3.9672852,-0.8544922,0.0,0.0,0.0,-143.48694,77.05261,-163.24036
2026-03-22 17:40:08.477,1774172408477,1774172408477,-0.97558594,-0.13916016,-0.1665039,-3.4179688,1.159668,-0.4272461,0.0,0.0,0.0,-143.48694,77.05261,-163.24036
2026-03-22 17:40:08.489,1774172408489,1774172408489,-0.97558594,-0.13916016,-0.1665039,-3.4179688,1.159668,-0.4272461,0.0,0.0,0.0,-143.85498,76.9043,-163.52051
2026-03-22 17:40:08.577,1774172408577,1774172408577,-0.9785156,-0.13769531,-0.16552734,-4.760742,1.4648438,0.0,0.0,0.0,0.0,-143.85498,76.9043,-163.52051
2026-03-22 17:40:08.589,1774172408589,1774172408589,-0.9785156,-0.13769531,-0.16552734,-4.760742,1.4648438,0.0,0.0,0.0,0.0,-144.49219,76.78345,-164.0094
2026-03-22 17:40:08.677,1774172408677,1774172408677,-0.9741211,-0.14501953,-0.16796875,-5.004883,-1.7089844,-0.36621094,0.0,0.0,0.0,-144.49219,76.78345,-164.0094
2026-03-22 17:40:08.688,1774172408688,1774172408688,-0.9741211,-0.14501953,-0.16796875,-5.004883,-1.7089844,-0.36621094,0.0,0.0,0.0,-144.46472,76.83838,-163.82263
2026-03-22 17:40:08.776,1774172408776,1774172408776,-0.97314453,-0.14746094,-0.16748047,-5.9814453,-0.79345703,-0.6713867,0.0,0.0,0.0,-144.46472,76.83838,-163.82263
2026-03-22 17:40:08.788,1774172408788,1774172408788,-0.97314453,-0.14746094,-0.16748047,-5.9814453,-0.79345703,-0.6713867,0.0,0.0,0.0,-144.14062,76.94824,-163.21838
2026-03-22 17:40:08.876,1774172408876,1774172408876,-0.9814453,-0.140625,-0.17285156,-7.8125,-3.4179688,-0.18310547,0.0,0.0,0.0,-144.14062,76.94824,-163.21838
2026-03-22 17:40:08.888,1774172408888,1774172408888,-0.9814453,-0.140625,-0.17285156,-7.8125,-3.4179688,-0.18310547,0.0,0.0,0.0,-143.97034,77.08557,-162.63611
2026-03-22 17:40:08.976,1774172408976,1774172408976,-0.9736328,-0.1352539,-0.1665039,-8.911133,-2.5634766,1.2817383,0.0,0.0,0.0,-143.97034,77.08557,-162.63611
2026-03-22 17:40:08.987,1774172408987,1774172408987,-0.9736328,-0.1352539,-0.1665039,-8.911133,-2.5634766,1.2817383,0.0,0.0,0.0,-144.0857,77.36572,-162.1637
2026-03-22 17:40:09.075,1774172409075,1774172409075,-0.98291016,-0.12207031,-0.15625,-10.070801,-4.211426,2.5024414,0.0,0.0,0.0,-144.0857,77.36572,-162.1637
2026-03-22 17:40:09.087,1774172409087,1774172409087,-0.98291016,-0.12207031,-0.15625,-10.070801,-4.211426,2.5024414,0.0,0.0,0.0,-144.54712,77.77771,-161.90002
2026-03-22 17:40:09.175,1774172409175,1774172409175,-0.98291016,-0.119628906,-0.1640625,-8.239746,-2.0141602,1.953125,0.0,0.0,0.0,-144.54712,77.77771,-161.90002
2026-03-22 17:40:09.187,1774172409187,1774172409187,-0.98291016,-0.119628906,-0.1640625,-8.239746,-2.0141602,1.953125,0.0,0.0,0.0,-145.16235,78.16223,-161.81763
2026-03-22 17:40:09.275,1774172409275,1774172409275,-0.9868164,-0.12402344,-0.15966797,-6.958008,-2.2583008,1.2207031,0.0,0.0,0.0,-145.16235,78.16223,-161.81763
2026-03-22 17:40:09.286,1774172409286,1774172409286,-0.9868164,-0.12402344,-0.15966797,-6.958008,-2.2583008,1.2207031,0.0,0.0,0.0,-145.7666,78.376465,-161.87805
2026-03-22 17:40:09.375,1774172409375,1774172409375,-0.9838867,-0.12451172,-0.16210938,-5.92041,-0.4272461,0.61035156,0.0,0.0,0.0,-145.7666,78.376465,-161.87805
2026-03-22 17:40:09.386,1774172409386,1774172409386,-0.9838867,-0.12451172,-0.16210938,-5.92041,-0.4272461,0.61035156,0.0,0.0,0.0,-146.13464,78.54675,-161.79016
2026-03-22 17:40:09.474,1774172409474,1774172409474,-0.9863281,-0.10986328,-0.16503906,-4.211426,-0.36621094,0.18310547,0.0,0.0,0.0,-146.13464,78.54675,-161.79016
2026-03-22 17:40:09.486,1774172409486,1774172409486,-0.9863281,-0.10986328,-0.16503906,-4.211426,-0.36621094,0.18310547,0.0,0.0,0.0,-146.46973,78.55774,-161.80664
2026-03-22 17:40:09.574,1774172409574,1774172409574,-0.97998047,-0.12060547,-0.16455078,-2.746582,0.6713867,-0.5493164,0.0,0.0,0.0,-146.46973,78.55774,-161.80664
2026-03-22 17:40:09.586,1774172409586,1774172409586,-0.97998047,-0.12060547,-0.16455078,-2.746582,0.6713867,-0.5493164,0.0,0.0,0.0,-146.56311,78.53027,-161.70776
2026-03-22 17:40:09.674,1774172409674,1774172409674,-0.98779297,-0.1274414,-0.15966797,-4.1503906,0.36621094,-1.2817383,0.0,0.0,0.0,-146.56311,78.53027,-161.70776
2026-03-22 17:40:09.685,1774172409685,1774172409685,-0.98779297,-0.1274414,-0.15966797,-4.1503906,0.36621094,-1.2817383,0.0,0.0,0.0,-146.37085,78.41492,-161.32874
2026-03-22 17:40:09.773,1774172409773,1774172409773,-0.97558594,-0.12402344,-0.15625,-6.0424805,-0.7324219,-1.7089844,0.0,0.0,0.0,-146.37085,78.41492,-161.32874
2026-03-22 17:40:09.785,1774172409785,1774172409785,-0.97558594,-0.12402344,-0.15625,-6.0424805,-0.7324219,-1.7089844,0.0,0.0,0.0,-145.9259,78.33252,-160.60364
2026-03-22 17:40:09.873,1774172409873,1774172409873,-0.9824219,-0.12646484,-0.15673828,-6.7749023,-0.7324219,-2.1972656,0.0,0.0,0.0,-145.9259,78.33252,-160.60364
2026-03-22 17:40:09.885,1774172409885,1774172409885,-0.9824219,-0.12646484,-0.15673828,-6.7749023,-0.7324219,-2.1972656,0.0,0.0,0.0,-145.24475,78.29407,-159.47754
2026-03-22 17:40:09.973,1774172409973,1774172409973,-0.97802734,-0.12011719,-0.15722656,-4.638672,-1.6479492,-1.5869141,0.0,0.0,0.0,-145.24475,78.29407,-159.47754
2026-03-22 17:40:09.985,1774172409985,1774172409985,-0.97802734,-0.12011719,-0.15722656,-4.638672,-1.6479492,-1.5869141,0.0,0.0,0.0,-144.61853,78.239136,-158.49426
2026-03-22 17:40:10.073,1774172410073,1774172410073,-0.9760742,-0.13134766,-0.15917969,-3.7841797,-1.159668,-1.2207031,0.0,0.0,0.0,-144.61853,78.239136,-158.49426
2026-03-22 17:40:10.084,1774172410084,1774172410084,-0.9760742,-0.13134766,-0.15917969,-3.7841797,-1.159668,-1.2207031,0.0,0.0,0.0,-143.82751,78.29407,-157.4231
2026-03-22 17:40:10.172,1774172410172,1774172410172,-0.9770508,-0.14404297,-0.17578125,-0.36621094,-0.9765625,-1.7089844,0.0,0.0,0.0,-143.82751,78.29407,-157.4231
2026-03-22 17:40:10.184,1774172410184,1774172410184,-0.9770508,-0.14404297,-0.17578125,-0.36621094,-0.9765625,-1.7089844,0.0,0.0,0.0,-142.88818,78.27759,-156.44531
2026-03-22 17:40:10.272,1774172410272,1774172410272,-0.9970703,-0.15917969,-0.17480469,2.319336,2.8076172,-1.8920898,0.0,0.0,0.0,-142.88818,78.27759,-156.44531
2026-03-22 17:40:10.283,1774172410283,1774172410283,-0.9970703,-0.15917969,-0.17480469,2.319336,2.8076172,-1.8920898,0.0,0.0,0.0,-142.3169,78.00293,-156.14319
2026-03-22 17:40:10.372,1774172410372,1774172410372,-0.9921875,-0.16601562,-0.17529297,6.3476562,4.3945312,-3.112793,0.0,0.0,0.0,-142.3169,78.00293,-156.14319
2026-03-22 17:40:10.383,1774172410383,1774172410383,-0.9921875,-0.16601562,-0.17529297,6.3476562,4.3945312,-3.112793,0.0,0.0,0.0,-141.70715,77.525024,-156.17065
2026-03-22 17:40:10.471,1774172410471,1774172410471,-0.97558594,-0.13574219,-0.16357422,9.460449,3.90625,-0.30517578,0.0,0.0,0.0,-141.70715,77.525024,-156.17065
2026-03-22 17:40:10.483,1774172410483,1774172410483,-0.97558594,-0.13574219,-0.16357422,9.460449,3.90625,-0.30517578,0.0,0.0,0.0,-141.54785,77.041626,-157.00562
2026-03-22 17:40:10.571,1774172410571,1774172410571,-0.9663086,-0.14550781,-0.16503906,11.047363,3.3569336,1.3427734,0.0,0.0,0.0,-141.54785,77.041626,-157.00562
2026-03-22 17:40:10.583,1774172410583,1774172410583,-0.9663086,-0.14550781,-0.16503906,11.047363,3.3569336,1.3427734,0.0,0.0,0.0,-141.54236,76.87683,-158.18665
2026-03-22 17:40:10.671,1774172410671,1774172410671,-0.9941406,-0.14697266,-0.16357422,9.399414,2.9907227,0.91552734,0.0,0.0,0.0,-141.54236,76.87683,-158.18665
2026-03-22 17:40:10.682,1774172410682,1774172410682,-0.9941406,-0.14697266,-0.16357422,9.399414,2.9907227,0.91552734,0.0,0.0,0.0,-141.63025,76.68457,-159.56543
2026-03-22 17:40:10.771,1774172410771,1774172410771,-0.97509766,-0.12841797,-0.17138672,8.605957,3.7231445,1.0375977,0.0,0.0,0.0,-141.63025,76.68457,-159.56543
2026-03-22 17:40:10.782,1774172410782,1774172410782,-0.97509766,-0.12841797,-0.17138672,8.605957,3.7231445,1.0375977,0.0,0.0,0.0,-141.66321,76.569214,-160.65308
2026-03-22 17:40:10.870,1774172410870,1774172410870,-0.9770508,-0.119140625,-0.16064453,7.8125,3.90625,3.2958984,0.0,0.0,0.0,-141.66321,76.569214,-160.65308
2026-03-22 17:40:10.882,1774172410882,1774172410882,-0.9770508,-0.119140625,-0.16064453,7.8125,3.90625,3.2958984,0.0,0.0,0.0,-142.7179,76.38794,-162.65259
2026-03-22 17:40:10.970,1774172410970,1774172410970,-0.9814453,-0.123535156,-0.1665039,4.638672,2.5024414,4.272461,0.0,0.0,0.0,-142.7179,76.38794,-162.65259
2026-03-22 17:40:10.982,1774172410982,1774172410982,-0.9814453,-0.123535156,-0.1665039,4.638672,2.5024414,4.272461,0.0,0.0,0.0,-144.19556,76.431885,-164.95422
2026-03-22 17:40:11.070,1774172411070,1774172411070,-0.96533203,-0.11767578,-0.17675781,3.3569336,1.8310547,2.2583008,0.0,0.0,0.0,-144.19556,76.431885,-164.95422
2026-03-22 17:40:11.081,1774172411081,1774172411081,-0.96533203,-0.11767578,-0.17675781,3.3569336,1.8310547,2.2583008,0.0,0.0,0.0,-145.30518,76.536255,-166.64612
2026-03-22 17:40:11.169,1774172411169,1774172411169,-0.97314453,-0.118652344,-0.1850586,2.9296875,2.380371,1.159668,0.0,0.0,0.0,-145.30518,76.536255,-166.64612
2026-03-22 17:40:11.181,1774172411181,1774172411181,-0.97314453,-0.118652344,-0.1850586,2.9296875,2.380371,1.159668,0.0,0.0,0.0,-145.83252,76.536255,-167.61841
2026-03-22 17:40:11.269,1774172411269,1774172411269,-0.97265625,-0.12011719,-0.1850586,-0.5493164,2.9907227,1.953125,0.0,0.0,0.0,-145.83252,76.536255,-167.61841
2026-03-22 17:40:11.280,1774172411280,1774172411280,-0.97265625,-0.12011719,-0.1850586,-0.5493164,2.9907227,1.953125,0.0,0.0,0.0,-146.92017,76.40991,-168.94226
2026-03-22 17:40:11.369,1774172411369,1774172411369,-0.9716797,-0.12451172,-0.19091797,-5.126953,0.7324219,1.8920898,0.0,0.0,0.0,-146.92017,76.40991,-168.94226
2026-03-22 17:40:11.381,1774172411381,1774172411381,-0.9716797,-0.12451172,-0.19091797,-5.126953,0.7324219,1.8920898,0.0,0.0,0.0,-148.36487,76.40991,-170.23865
2026-03-22 17:40:11.469,1774172411469,1774172411469,-0.98095703,-0.13134766,-0.19384766,-7.751465,-0.36621094,-0.5493164,0.0,0.0,0.0,-148.36487,76.40991,-170.23865
2026-03-22 17:40:11.480,1774172411480,1774172411480,-0.98095703,-0.13134766,-0.19384766,-7.751465,-0.36621094,-0.5493164,0.0,0.0,0.0,-149.09546,76.45935,-170.54626
2026-03-22 17:40:11.568,1774172411568,1774172411568,-0.984375,-0.123535156,-0.19238281,-10.131836,-2.6245117,-2.319336,0.0,0.0,0.0,-149.09546,76.45935,-170.54626
2026-03-22 17:40:11.580,1774172411580,1774172411580,-0.984375,-0.123535156,-0.19238281,-10.131836,-2.6245117,-2.319336,0.0,0.0,0.0,-148.86475,76.50879,-169.62341
2026-03-22 17:40:11.668,1774172411668,1774172411668,-0.9741211,-0.119628906,-0.19238281,-7.446289,-5.7373047,-3.6010742,0.0,0.0,0.0,-148.86475,76.50879,-169.62341
2026-03-22 17:40:11.680,1774172411680,1774172411680,-0.9741211,-0.119628906,-0.19238281,-7.446289,-5.7373047,-3.6010742,0.0,0.0,0.0,-147.65076,76.72302,-167.57996
2026-03-22 17:40:11.768,1774172411768,1774172411768,-0.96875,-0.123046875,-0.19677734,-3.2348633,-1.4648438,-5.065918,0.0,0.0,0.0,-147.65076,76.72302,-167.57996
2026-03-22 17:40:11.779,1774172411779,1774172411779,-0.96875,-0.123046875,-0.19677734,-3.2348633,-1.4648438,-5.065918,0.0,0.0,0.0,-145.74463,76.81091,-165.06409
2026-03-22 17:40:11.867,1774172411867,1774172411867,-0.98535156,-0.12939453,-0.18164062,1.0986328,-1.4648438,-4.333496,0.0,0.0,0.0,-145.74463,76.81091,-165.06409
2026-03-22 17:40:11.879,1774172411879,1774172411879,-0.98535156,-0.12939453,-0.18164062,1.0986328,-1.4648438,-4.333496,0.0,0.0,0.0,-143.9978,76.624146,-163.03711
2026-03-22 17:40:11.967,1774172411967,1774172411967,-0.9760742,-0.13085938,-0.18603516,4.272461,-1.953125,-2.0141602,0.0,0.0,0.0,-143.9978,76.624146,-163.03711
2026-03-22 17:40:11.978,1774172411978,1774172411978,-0.9760742,-0.13085938,-0.18603516,4.272461,-1.953125,-2.0141602,0.0,0.0,0.0,-142.32788,76.60217,-161.48254
2026-03-22 17:40:12.067,1774172412067,1774172412067,-0.9785156,-0.1352539,-0.18359375,6.286621,1.0986328,0.36621094,0.0,0.0,0.0,-142.32788,76.60217,-161.48254
2026-03-22 17:40:12.078,1774172412078,1774172412078,-0.9785156,-0.1352539,-0.18359375,6.286621,1.0986328,0.36621094,0.0,0.0,0.0,-141.54236,76.61865,-161.05957
2026-03-22 17:40:12.167,1774172412167,1774172412167,-0.98046875,-0.1381836,-0.1821289,8.422852,1.8920898,2.0141602,0.0,0.0,0.0,-141.54236,76.61865,-161.05957
2026-03-22 17:40:12.178,1774172412178,1774172412178,-0.98046875,-0.1381836,-0.1821289,8.422852,1.8920898,2.0141602,0.0,0.0,0.0,-141.64124,76.59119,-161.8396
2026-03-22 17:40:12.266,1774172412266,1774172412266,-0.97265625,-0.14160156,-0.17626953,9.094238,1.7089844,3.112793,0.0,0.0,0.0,-141.64124,76.59119,-161.8396
2026-03-22 17:40:12.278,1774172412278,1774172412278,-0.97265625,-0.14160156,-0.17626953,9.094238,1.7089844,3.112793,0.0,0.0,0.0,-142.11914,76.607666,-163.24585
2026-03-22 17:40:12.366,1774172412366,1774172412366,-0.97509766,-0.14160156,-0.1772461,8.239746,1.8920898,3.2348633,0.0,0.0,0.0,-142.11914,76.607666,-163.24585
2026-03-22 17:40:12.377,1774172412377,1774172412377,-0.97509766,-0.14160156,-0.1772461,8.239746,1.8920898,3.2348633,0.0,0.0,0.0,-142.73987,76.6626,-164.87183
2026-03-22 17:40:12.466,1774172412466,1774172412466,-0.97753906,-0.1328125,-0.17675781,6.591797,1.2207031,3.540039,0.0,0.0,0.0,-142.73987,76.6626,-164.87183
2026-03-22 17:40:12.477,1774172412477,1774172412477,-0.97753906,-0.1328125,-0.17675781,6.591797,1.2207031,3.540039,0.0,0.0,0.0,-143.49792,76.70105,-166.5747
2026-03-22 17:40:12.565,1774172412565,1774172412565,-0.9765625,-0.13183594,-0.17285156,5.9814453,0.9765625,2.9296875,0.0,0.0,0.0,-143.49792,76.70105,-166.5747
2026-03-22 17:40:12.577,1774172412577,1774172412577,-0.9765625,-0.13183594,-0.17285156,5.9814453,0.9765625,2.9296875,0.0,0.0,0.0,-144.17908,76.832886,-168.07434
2026-03-22 17:40:12.665,1774172412665,1774172412665,-0.97802734,-0.12841797,-0.1743164,5.065918,0.48828125,2.5634766,0.0,0.0,0.0,-144.17908,76.832886,-168.07434
2026-03-22 17:40:12.676,1774172412676,1774172412676,-0.97802734,-0.12841797,-0.1743164,5.065918,0.48828125,2.5634766,0.0,0.0,0.0,-144.74487,76.93176,-169.36523
2026-03-22 17:40:12.765,1774172412765,1774172412765,-0.98046875,-0.12695312,-0.17626953,3.90625,0.30517578,1.8920898,0.0,0.0,0.0,-144.74487,76.93176,-169.36523
2026-03-22 17:40:12.776,1774172412776,1774172412776,-0.98046875,-0.12695312,-0.17626953,3.90625,0.30517578,1.8920898,0.0,0.0,0.0,-145.03052,77.03064,-170.2716
2026-03-22 17:40:12.864,1774172412864,1774172412864,-0.98046875,-0.12109375,-0.1743164,3.112793,0.12207031,1.2817383,0.0,0.0,0.0,-145.03052,77.03064,-170.2716
2026-03-22 17:40:12.876,1774172412876,1774172412876,-0.98046875,-0.12109375,-0.1743164,3.112793,0.12207031,1.2817383,0.0,0.0,0.0,-145.14587,77.11304,-170.85938
2026-03-22 17:40:12.964,1774172412964,1774172412964,-0.9790039,-0.11328125,-0.1743164,2.5024414,0.5493164,1.8310547,0.0,0.0,0.0,-145.14587,77.11304,-170.85938
2026-03-22 17:40:12.976,1774172412976,1774172412976,-0.9790039,-0.11328125,-0.1743164,2.5024414,0.5493164,1.8310547,0.0,0.0,0.0,-145.49744,77.18445,-171.54053
2026-03-22 17:40:13.064,1774172413064,1774172413064,-0.9824219,-0.111328125,-0.17138672,1.4648438,0.7324219,2.0141602,0.0,0.0,0.0,-145.49744,77.18445,-171.54053
2026-03-22 17:40:13.075,1774172413075,1774172413075,-0.9824219,-0.111328125,-0.17138672,1.4648438,0.7324219,2.0141602,0.0,0.0,0.0,-146.2445,77.25037,-172.5293
2026-03-22 17:40:13.164,1774172413164,1774172413164,-0.97802734,-0.11328125,-0.1743164,0.61035156,0.30517578,1.7700195,0.0,0.0,0.0,-146.2445,77.25037,-172.5293
