timestamp,accX,accY,accZ,gyroX,gyroY,gyroZ,magX,magY,magZ,roll,pitch,yaw
1766812004226,-0.86621094,0.5917969,-0.14794922,-3.3569336,25.817871,-6.225586,0.0,0.0,0.0,112.5824,55.568848,1.2634277
1766812004237,-0.86621094,0.5917969,-0.14794922,-3.3569336,25.817871,-6.225586,0.0,0.0,0.0,115.21912,55.387573,3.7738037
1766812004326,-0.9482422,0.5786133,-0.09326172,-19.104004,-32.165527,-1.2207031,0.0,0.0,0.0,115.21912,55.387573,3.7738037
1766812004337,-0.9482422,0.5786133,-0.09326172,-19.104004,-32.165527,-1.2207031,0.0,0.0,0.0,112.67578,55.881958,3.2904053
1766812004426,-0.69140625,0.4194336,-0.3310547,5.7373047,-28.442383,5.3710938,0.0,0.0,0.0,112.67578,55.881958,3.2904053
1766812004437,-0.69140625,0.4194336,-0.3310547,5.7373047,-28.442383,5.3710938,0.0,0.0,0.0,105.60608,57.06848,-3.9440918
1766812004526,-0.73535156,0.5571289,-0.33642578,-7.6293945,28.808594,-13.061523,0.0,0.0,0.0,105.60608,57.06848,-3.9440918
1766812004537,-0.73535156,0.5571289,-0.33642578,-7.6293945,28.808594,-13.061523,0.0,0.0,0.0,105.64453,57.76062,-4.01001
1766812004625,-0.9375,0.4013672,-0.05517578,-20.202637,24.719238,-28.442383,0.0,0.0,0.0,105.64453,57.76062,-4.01001
1766812004636,-0.9375,0.4013672,-0.05517578,-20.202637,24.719238,-28.442383,0.0,0.0,0.0,112.76367,57.854004,5.0701904
1766812004724,-0.7558594,0.6098633,-0.19921875,-13.85498,27.526855,-8.728027,0.0,0.0,0.0,112.76367,57.854004,5.0701904
1766812004736,-0.7558594,0.6098633,-0.19921875,-13.85498,27.526855,-8.728027,0.0,0.0,0.0,113.950195,58.6615,6.828003
1766812004824,-0.87109375,0.51660156,-0.17919922,-6.286621,2.6855469,1.5258789,0.0,0.0,0.0,113.950195,58.6615,6.828003
1766812004835,-0.87109375,0.51660156,-0.17919922,-6.286621,2.6855469,1.5258789,0.0,0.0,0.0,115.74646,58.13965,10.491943
1766812004924,-0.95947266,0.5175781,-0.0390625,-3.2348633,-11.413574,8.361816,0.0,0.0,0.0,115.74646,58.13965,10.491943
1766812004935,-0.95947266,0.5175781,-0.0390625,-3.2348633,-11.413574,8.361816,0.0,0.0,0.0,114.45557,57.5354,9.212036
1766812005023,-1.03125,0.390625,-0.27783203,10.253906,-31.433105,5.1879883,0.0,0.0,0.0,114.45557,57.5354,9.212036
1766812005035,-1.03125,0.390625,-0.27783203,10.253906,-31.433105,5.1879883,0.0,0.0,0.0,109.30847,57.491455,3.4442139
1766812005123,-0.63134766,0.55615234,-0.27001953,12.207031,-8.666992,8.605957,0.0,0.0,0.0,109.30847,57.491455,3.4442139
1766812005135,-0.63134766,0.55615234,-0.27001953,12.207031,-8.666992,8.605957,0.0,0.0,0.0,108.51196,57.442017,1.6809082
1766812005223,-0.87353516,0.46777344,-0.24316406,13.061523,14.709473,5.9814453,0.0,0.0,0.0,108.51196,57.442017,1.6809082
1766812005234,-0.87353516,0.46777344,-0.24316406,13.061523,14.709473,5.9814453,0.0,0.0,0.0,109.64905,56.749878,-0.23620605
1766812005323,-0.81640625,0.46826172,-0.23144531,24.230957,2.9296875,6.4697266,0.0,0.0,0.0,109.64905,56.749878,-0.23620605
1766812005334,-0.81640625,0.46826172,-0.23144531,24.230957,2.9296875,6.4697266,0.0,0.0,0.0,111.58264,55.997314,-1.2963867
1766812005422,-0.8886719,0.53564453,-0.16796875,15.50293,0.91552734,-3.479004,0.0,0.0,0.0,111.58264,55.997314,-1.2963867
1766812005434,-0.8886719,0.53564453,-0.16796875,15.50293,0.91552734,-3.479004,0.0,0.0,0.0,114.58191,55.788574,0.010986328
1766812005522,-0.8642578,0.5571289,-0.1508789,-5.004883,16.418457,-8.483887,0.0,0.0,0.0,114.58191,55.788574,0.010986328
1766812005533,-0.8642578,0.5571289,-0.1508789,-5.004883,16.418457,-8.483887,0.0,0.0,0.0,116.88904,55.87097,2.1862793
1766812005622,-0.90527344,0.57128906,-0.060058594,-25.32959,-22.644043,-1.0986328,0.0,0.0,0.0,116.88904,55.87097,2.1862793
1766812005633,-0.90527344,0.57128906,-0.060058594,-25.32959,-22.644043,-1.0986328,0.0,0.0,0.0,114.67529,56.50818,2.1478271
1766812005721,-0.7294922,0.453125,-0.3725586,1.159668,-17.39502,-4.4555664,0.0,0.0,0.0,114.67529,56.50818,2.1478271
1766812005733,-0.7294922,0.453125,-0.3725586,1.159668,-17.39502,-4.4555664,0.0,0.0,0.0,107.3584,58.007812,-4.691162
1766812005821,-0.7167969,0.5625,-0.33642578,-22.705078,28.320312,-16.723633,0.0,0.0,0.0,107.3584,58.007812,-4.691162
1766812005833,-0.7167969,0.5625,-0.33642578,-22.705078,28.320312,-16.723633,0.0,0.0,0.0,107.86926,59.11743,-3.2080078
1766812005921,-0.95703125,0.3642578,-0.11816406,-32.165527,31.433105,-28.503418,0.0,0.0,0.0,107.86926,59.11743,-3.2080078
1766812005932,-0.95703125,0.3642578,-0.11816406,-32.165527,31.433105,-28.503418,0.0,0.0,0.0,113.99963,58.99109,6.064453
1766812006021,-0.81152344,0.54345703,-0.15917969,-16.662598,24.414062,-6.3476562,0.0,0.0,0.0,113.99963,58.99109,6.064453
1766812006032,-0.81152344,0.54345703,-0.15917969,-16.662598,24.414062,-6.3476562,0.0,0.0,0.0,115.81238,59.67224,9.832764
1766812006120,-0.91845703,0.44628906,-0.16503906,0.36621094,2.6245117,5.6762695,0.0,0.0,0.0,115.81238,59.67224,9.832764
1766812006132,-0.91845703,0.44628906,-0.16503906,0.36621094,2.6245117,5.6762695,0.0,0.0,0.0,117.31201,59.084473,12.749634
1766812006220,-0.93603516,0.5605469,-0.06542969,4.699707,-15.869141,11.779785,0.0,0.0,0.0,117.31201,59.084473,12.749634
1766812006231,-0.93603516,0.5605469,-0.06542969,4.699707,-15.869141,11.779785,0.0,0.0,0.0,115.90027,58.666992,10.788574
1766812006320,-1.0771484,0.46484375,-0.1796875,-4.272461,-32.104492,8.972168,0.0,0.0,0.0,115.90027,58.666992,10.788574
1766812006331,-1.0771484,0.46484375,-0.1796875,-4.272461,-32.104492,8.972168,0.0,0.0,0.0,110.824585,58.34839,5.251465
1766812006419,-0.48779297,0.4375,-0.23095703,4.3945312,-2.5634766,6.8969727,0.0,0.0,0.0,110.824585,58.34839,5.251465
1766812006431,-0.48779297,0.4375,-0.23095703,4.3945312,-2.5634766,6.8969727,0.0,0.0,0.0,107.38037,58.55713,1.340332
1766812006519,-0.9892578,0.37158203,-0.23925781,34.973145,11.169434,9.338379,0.0,0.0,0.0,107.38037,58.55713,1.340332
1766812006531,-0.9892578,0.37158203,-0.23925781,34.973145,11.169434,9.338379,0.0,0.0,0.0,108.75366,57.249756,-1.0217285
1766812006619,-0.71533203,0.56396484,-0.23535156,23.864746,-14.099121,10.986328,0.0,0.0,0.0,108.75366,57.249756,-1.0217285
1766812006631,-0.71533203,0.56396484,-0.23535156,23.864746,-14.099121,10.986328,0.0,0.0,0.0,111.033325,56.52466,-2.2192383
1766812006719,-0.9399414,0.4633789,-0.12060547,9.70459,26.123047,-2.1972656,0.0,0.0,0.0,111.033325,56.52466,-2.2192383
1766812006730,-0.9399414,0.4633789,-0.12060547,9.70459,26.123047,-2.1972656,0.0,0.0,0.0,114.54895,55.55237,-0.5987549
1766812006818,-0.8535156,0.5751953,-0.22167969,-0.30517578,8.483887,-6.286621,0.0,0.0,0.0,114.54895,55.55237,-0.5987549
1766812006830,-0.8535156,0.5751953,-0.22167969,-0.30517578,8.483887,-6.286621,0.0,0.0,0.0,116.553955,55.508423,1.0931396
1766812006918,-0.9428711,0.5678711,-0.021972656,-25.57373,-8.422852,-2.9907227,0.0,0.0,0.0,116.553955,55.508423,1.0931396
1766812006929,-0.9428711,0.5678711,-0.021972656,-25.57373,-8.422852,-2.9907227,0.0,0.0,0.0,116.048584,55.7666,2.7026367
1766812007018,-0.7910156,0.55078125,-0.32421875,-2.9296875,-33.691406,2.8076172,0.0,0.0,0.0,116.048584,55.7666,2.7026367
1766812007029,-0.7910156,0.55078125,-0.32421875,-2.9296875,-33.691406,2.8076172,0.0,0.0,0.0,109.09973,57.387085,-3.8671875
1766812007117,-0.75927734,0.46826172,-0.3461914,-17.822266,-6.7749023,-16.174316,0.0,0.0,0.0,109.09973,57.387085,-3.8671875
1766812007129,-0.75927734,0.46826172,-0.3461914,-17.822266,-6.7749023,-16.174316,0.0,0.0,0.0,107.144165,58.172607,-5.9765625
1766812007217,-0.9765625,0.39453125,-0.13769531,-2.746582,53.16162,-21.606445,0.0,0.0,0.0,107.144165,58.172607,-5.9765625
1766812007229,-0.9765625,0.39453125,-0.13769531,-2.746582,53.16162,-21.606445,0.0,0.0,0.0,113.63159,58.007812,-0.12084961
1766812007317,-0.7348633,0.5751953,-0.21777344,17.089844,-15.74707,-1.953125,0.0,0.0,0.0,113.63159,58.007812,-0.12084961
1766812007328,-0.7348633,0.5751953,-0.21777344,17.089844,-15.74707,-1.953125,0.0,0.0,0.0,114.99939,59.144897,1.0821533
1766812007417,-0.88183594,0.5102539,-0.140625,-9.399414,20.751953,-5.3100586,0.0,0.0,0.0,114.99939,59.144897,1.0821533
1766812007428,-0.88183594,0.5102539,-0.140625,-9.399414,20.751953,-5.3100586,0.0,0.0,0.0,118.01514,58.562622,5.8062744
1766812007516,-0.95947266,0.53027344,-0.12597656,3.479004,0.9765625,6.3476562,0.0,0.0,0.0,118.01514,58.562622,5.8062744
1766812007528,-0.95947266,0.53027344,-0.12597656,3.479004,0.9765625,6.3476562,0.0,0.0,0.0,118.37219,58.09021,6.635742
1766812007616,-1.1035156,0.5864258,-0.17041016,-16.540527,-32.592773,12.451172,0.0,0.0,0.0,118.37219,58.09021,6.635742
1766812007628,-1.1035156,0.5864258,-0.17041016,-16.540527,-32.592773,12.451172,0.0,0.0,0.0,113.428345,57.974854,2.1588135
1766812007716,-0.4868164,0.359375,-0.24023438,-13.183594,16.174316,2.8686523,0.0,0.0,0.0,113.428345,57.974854,2.1588135
1766812007727,-0.4868164,0.359375,-0.24023438,-13.183594,16.174316,2.8686523,0.0,0.0,0.0,108.984375,58.36487,-2.0324707
1766812007815,-0.9638672,0.37109375,-0.29833984,30.822754,-11.962891,13.427734,0.0,0.0,0.0,108.984375,58.36487,-2.0324707
1766812007827,-0.9638672,0.37109375,-0.29833984,30.822754,-11.962891,13.427734,0.0,0.0,0.0,110.269775,57.67273,-3.180542
1766812007915,-0.79003906,0.49902344,-0.2211914,28.137207,-15.930176,10.681152,0.0,0.0,0.0,110.269775,57.67273,-3.180542
1766812007927,-0.79003906,0.49902344,-0.2211914,28.137207,-15.930176,10.681152,0.0,0.0,0.0,111.41785,56.96411,-5.4327393
1766812008015,-0.88916016,0.49169922,-0.140625,17.578125,2.6855469,-0.8544922,0.0,0.0,0.0,111.41785,56.96411,-5.4327393
1766812008026,-0.88916016,0.49169922,-0.140625,17.578125,2.6855469,-0.8544922,0.0,0.0,0.0,113.81836,56.63452,-5.2734375
1766812008115,-0.86621094,0.53466797,-0.16357422,1.2207031,15.136719,-4.0283203,0.0,0.0,0.0,113.81836,56.63452,-5.2734375
1766812008130,-0.86621094,0.53466797,-0.16357422,1.2207031,15.136719,-4.0283203,0.0,0.0,0.0,116.36719,56.62903,-2.9553223
1766812008214,-0.93310547,0.53027344,-0.09326172,-13.183594,-23.864746,0.061035156,0.0,0.0,0.0,116.36719,56.62903,-2.9553223
1766812008226,-0.93310547,0.53027344,-0.09326172,-13.183594,-23.864746,0.061035156,0.0,0.0,0.0,114.62036,56.986084,-3.5650635
1766812008314,-0.8364258,0.5307617,-0.359375,2.9907227,-27.160645,8.300781,0.0,0.0,0.0,114.62036,56.986084,-3.5650635
1766812008331,-0.8364258,0.5307617,-0.359375,2.9907227,-27.160645,8.300781,0.0,0.0,0.0,107.995605,58.04077,-10.123901
1766812008414,-0.71875,0.5229492,-0.3540039,-12.878418,7.1411133,-12.939453,0.0,0.0,0.0,107.995605,58.04077,-10.123901
1766812008426,-0.71875,0.5229492,-0.3540039,-12.878418,7.1411133,-12.939453,0.0,0.0,0.0,107.039795,58.397827,-11.398315
1766812008513,-0.92578125,0.4013672,-0.11376953,-16.845703,11.657715,-21.1792,0.0,0.0,0.0,107.039795,58.397827,-11.398315
1766812008526,-0.92578125,0.4013672,-0.11376953,-16.845703,11.657715,-21.1792,0.0,0.0,0.0,111.049805,58.78235,-5.6359863
1766812008614,-0.77441406,0.5786133,-0.15332031,-20.874023,23.19336,-13.305664,0.0,0.0,0.0,111.049805,58.78235,-5.6359863
1766812008625,-0.77441406,0.5786133,-0.15332031,-20.874023,23.19336,-13.305664,0.0,0.0,0.0,112.31323,59.75464,-2.8894043
1766812008713,-0.890625,0.50341797,-0.1616211,-12.512207,16.540527,-2.8076172,0.0,0.0,0.0,112.31323,59.75464,-2.8894043
1766812008724,-0.890625,0.50341797,-0.1616211,-12.512207,16.540527,-2.8076172,0.0,0.0,0.0,113.55469,59.44702,0.76904297
1766812008813,-0.99560547,0.49169922,-0.024414062,-4.211426,1.6479492,7.1411133,0.0,0.0,0.0,113.55469,59.44702,0.76904297
1766812008824,-0.99560547,0.49169922,-0.024414062,-4.211426,1.6479492,7.1411133,0.0,0.0,0.0,114.44458,58.727417,2.9223633
1766812008912,-1.0576172,0.5932617,-0.16015625,-10.131836,-39.0625,18.676758,0.0,0.0,0.0,114.44458,58.727417,2.9223633
1766812008924,-1.0576172,0.5932617,-0.16015625,-10.131836,-39.0625,18.676758,0.0,0.0,0.0,108.39111,58.38684,-2.8894043
1766812009012,-0.53808594,0.28955078,-0.27148438,-13.305664,-8.728027,16.540527,0.0,0.0,0.0,108.39111,58.38684,-2.8894043
1766812009023,-0.53808594,0.28955078,-0.27148438,-13.305664,-8.728027,16.540527,0.0,0.0,0.0,102.524414,58.34839,-10.2282715
1766812009112,-0.9145508,0.484375,-0.234375,36.010742,41.748047,4.1503906,0.0,0.0,0.0,102.524414,58.34839,-10.2282715
1766812009123,-0.9145508,0.484375,-0.234375,36.010742,41.748047,4.1503906,0.0,0.0,0.0,105.5896,57.041016,-11.431274
1766812009211,-0.7470703,0.484375,-0.21875,26.672363,-22.033691,13.73291,0.0,0.0,0.0,105.5896,57.041016,-11.431274
1766812009223,-0.7470703,0.484375,-0.21875,26.672363,-22.033691,13.73291,0.0,0.0,0.0,107.9187,55.97534,-12.562866
1766812009311,-0.92822266,0.53125,-0.061035156,15.625,18.676758,-1.0375977,0.0,0.0,0.0,107.9187,55.97534,-12.562866
1766812009323,-0.92822266,0.53125,-0.061035156,15.625,18.676758,-1.0375977,0.0,0.0,0.0,111.68701,55.316162,-11.063232
1766812009411,-0.80566406,0.59814453,-0.22802734,-1.7089844,22.460938,-11.169434,0.0,0.0,0.0,111.68701,55.316162,-11.063232
1766812009422,-0.80566406,0.59814453,-0.22802734,-1.7089844,22.460938,-11.169434,0.0,0.0,0.0,113.90625,55.530396,-9.794312
1766812009510,-0.94091797,0.5004883,-0.049316406,-14.038086,-21.850586,-0.48828125,0.0,0.0,0.0,113.90625,55.530396,-9.794312
1766812009522,-0.94091797,0.5004883,-0.049316406,-14.038086,-21.850586,-0.48828125,0.0,0.0,0.0,114.12598,55.464478,-7.2070312
1766812009610,-0.8154297,0.60791016,-0.3466797,-4.760742,-31.555176,4.1503906,0.0,0.0,0.0,114.12598,55.464478,-7.2070312
1766812009622,-0.8154297,0.60791016,-0.3466797,-4.760742,-31.555176,4.1503906,0.0,0.0,0.0,107.36389,56.903687,-13.309937
1766812009710,-0.7504883,0.4658203,-0.3544922,-21.240234,3.1738281,-17.150879,0.0,0.0,0.0,107.36389,56.903687,-13.309937
1766812009722,-0.7504883,0.4658203,-0.3544922,-21.240234,3.1738281,-17.150879,0.0,0.0,0.0,105.512695,57.628784,-15.133667
1766812009810,-1.0039062,0.40234375,-0.06298828,-29.23584,52.4292,-29.418945,0.0,0.0,0.0,105.512695,57.628784,-15.133667
1766812009821,-1.0039062,0.40234375,-0.06298828,-29.23584,52.4292,-29.418945,0.0,0.0,0.0,111.70349,57.84851,-7.7508545
1766812009909,-0.6850586,0.6308594,-0.1977539,3.2348633,5.7373047,-14.282227,0.0,0.0,0.0,111.70349,57.84851,-7.7508545
1766812009921,-0.6850586,0.6308594,-0.1977539,3.2348633,5.7373047,-14.282227,0.0,0.0,0.0,112.527466,59.430542,-6.49292
1766812010009,-0.9165039,0.51220703,-0.12011719,-0.24414062,13.366699,-3.7841797,0.0,0.0,0.0,112.527466,59.430542,-6.49292
1766812010020,-0.9165039,0.51220703,-0.12011719,-0.24414062,13.366699,-3.7841797,0.0,0.0,0.0,116.66931,59.0625,-0.72509766
1766812010109,-0.9667969,0.49902344,-0.16894531,17.700195,6.286621,11.962891,0.0,0.0,0.0,116.66931,59.0625,-0.72509766
1766812010120,-0.9667969,0.49902344,-0.16894531,17.700195,6.286621,11.962891,0.0,0.0,0.0,118.13599,58.12317,0.21972656
1766812010208,-0.9013672,0.6201172,-0.16210938,7.080078,-33.691406,24.047852,0.0,0.0,0.0,118.13599,58.12317,0.21972656
1766812010220,-0.9013672,0.6201172,-0.16210938,7.080078,-33.691406,24.047852,0.0,0.0,0.0,115.372925,57.562866,-3.416748
1766812010308,-0.5673828,0.27734375,-0.26416016,-20.446777,-8.239746,9.460449,0.0,0.0,0.0,115.372925,57.562866,-3.416748
1766812010320,-0.5673828,0.27734375,-0.26416016,-20.446777,-8.239746,9.460449,0.0,0.0,0.0,109.90173,57.84851,-10.420532
1766812010408,-0.9501953,0.35302734,-0.33740234,39.30664,0.61035156,12.817383,0.0,0.0,0.0,109.90173,57.84851,-10.420532
1766812010420,-0.9501953,0.35302734,-0.33740234,39.30664,0.61035156,12.817383,0.0,0.0,0.0,109.48425,57.052002,-12.903442
1766812010508,-0.71240234,0.6254883,-0.19384766,20.751953,-25.32959,10.375977,0.0,0.0,0.0,109.48425,57.052002,-12.903442
1766812010519,-0.71240234,0.6254883,-0.19384766,20.751953,-25.32959,10.375977,0.0,0.0,0.0,111.57715,56.173096,-13.491211
1766812010607,-0.9560547,0.42138672,-0.12060547,7.2021484,13.48877,2.4414062,0.0,0.0,0.0,111.57715,56.173096,-13.491211
1766812010619,-0.9560547,0.42138672,-0.12060547,7.2021484,13.48877,2.4414062,0.0,0.0,0.0,113.00537,55.601807,-13.738403
1766812010707,-0.80859375,0.5576172,-0.21142578,-2.0751953,15.869141,-8.422852,0.0,0.0,0.0,113.00537,55.601807,-13.738403
1766812010719,-0.80859375,0.5576172,-0.21142578,-2.0751953,15.869141,-8.422852,0.0,0.0,0.0,114.18091,55.733643,-13.721924
1766812010807,-0.9472656,0.5883789,-0.05859375,-20.446777,-10.559082,-1.0986328,0.0,0.0,0.0,114.18091,55.733643,-13.721924
1766812010819,-0.9472656,0.5883789,-0.05859375,-20.446777,-10.559082,-1.0986328,0.0,0.0,0.0,114.87305,55.892944,-11.651001
1766812010907,-0.8828125,0.6069336,-0.27246094,-8.300781,-45.47119,3.6010742,0.0,0.0,0.0,114.87305,55.892944,-11.651001
1766812010919,-0.8828125,0.6069336,-0.27246094,-8.300781,-45.47119,3.6010742,0.0,0.0,0.0,107.77588,56.969604,-16.940918
1766812011007,-0.6777344,0.35986328,-0.3227539,-11.413574,0.61035156,-16.479492,0.0,0.0,0.0,107.77588,56.969604,-16.940918
1766812011018,-0.6777344,0.35986328,-0.3227539,-11.413574,0.61035156,-16.479492,0.0,0.0,0.0,104.65027,57.529907,-21.280518
1766812011106,-0.94433594,0.50390625,-0.092285156,-20.935059,33.14209,-14.831543,0.0,0.0,0.0,104.65027,57.529907,-21.280518
1766812011118,-0.94433594,0.50390625,-0.092285156,-20.935059,33.14209,-14.831543,0.0,0.0,0.0,108.12195,58.095703,-16.814575
1766812011206,-0.7583008,0.5234375,-0.1694336,-19.28711,19.16504,-22.460938,0.0,0.0,0.0,108.12195,58.095703,-16.814575
1766812011217,-0.7583008,0.5234375,-0.1694336,-19.28711,19.16504,-22.460938,0.0,0.0,0.0,108.8855,59.79309,-14.408569
1766812011305,-0.85546875,0.51464844,-0.14990234,-19.28711,23.254395,-8.239746,0.0,0.0,0.0,108.8855,59.79309,-14.408569
1766812011317,-0.85546875,0.51464844,-0.14990234,-19.28711,23.254395,-8.239746,0.0,0.0,0.0,111.64307,59.935913,-8.816528
1766812011405,-0.91748047,0.4560547,-0.09716797,-5.859375,9.887695,-3.2348633,0.0,0.0,0.0,111.64307,59.935913,-8.816528
1766812011417,-0.91748047,0.4560547,-0.09716797,-5.859375,9.887695,-3.2348633,0.0,0.0,0.0,113.67554,59.397583,-5.08667
1766812011505,-0.90234375,0.54345703,-0.05517578,-1.7089844,-25.024414,9.521484,0.0,0.0,0.0,113.67554,59.397583,-5.08667
1766812011516,-0.90234375,0.54345703,-0.05517578,-1.7089844,-25.024414,9.521484,0.0,0.0,0.0,111.10474,59.348145,-7.67395
1766812011604,-0.95947266,0.36865234,-0.24658203,-0.30517578,-15.563965,0.48828125,0.0,0.0,0.0,111.10474,59.348145,-7.67395
1766812011616,-0.95947266,0.36865234,-0.24658203,-0.30517578,-15.563965,0.48828125,0.0,0.0,0.0,106.33118,59.3042,-12.480469
1766812011704,-0.7841797,0.45410156,-0.31982422,9.521484,-4.5166016,10.437012,0.0,0.0,0.0,106.33118,59.3042,-12.480469
1766812011716,-0.7841797,0.45410156,-0.31982422,9.521484,-4.5166016,10.437012,0.0,0.0,0.0,107.1991,58.68347,-11.348877
1766812011804,-0.87841797,0.55566406,-0.15136719,16.479492,12.451172,12.390137,0.0,0.0,0.0,107.1991,58.68347,-11.348877
1766812011815,-0.87841797,0.55566406,-0.15136719,16.479492,12.451172,12.390137,0.0,0.0,0.0,109.75891,57.41455,-12.172852
1766812011904,-0.8227539,0.44921875,-0.21044922,15.50293,19.958496,2.9907227,0.0,0.0,0.0,109.75891,57.41455,-12.172852
1766812011915,-0.8227539,0.44921875,-0.21044922,15.50293,19.958496,2.9907227,0.0,0.0,0.0,112.75818,56.574097,-11.431274
1766812012003,-0.8803711,0.50097656,-0.19921875,17.51709,-2.4414062,1.7089844,0.0,0.0,0.0,112.75818,56.574097,-11.431274
1766812012015,-0.8803711,0.50097656,-0.19921875,17.51709,-2.4414062,1.7089844,0.0,0.0,0.0,115.54321,56.260986,-9.728394
1766812012103,-0.8876953,0.61035156,-0.09765625,-12.023926,18.432617,-5.9814453,0.0,0.0,0.0,115.54321,56.260986,-9.728394
1766812012114,-0.8876953,0.61035156,-0.09765625,-12.023926,18.432617,-5.9814453,0.0,0.0,0.0,117.84485,56.206055,-6.1523438
1766812012203,-1.0766602,0.5527344,-0.18310547,-23.31543,-39.123535,-1.5258789,0.0,0.0,0.0,117.84485,56.206055,-6.1523438
1766812012214,-1.0766602,0.5527344,-0.18310547,-23.31543,-39.123535,-1.5258789,0.0,0.0,0.0,113.26904,56.782837,-8.355103
1766812012303,-0.63720703,0.35839844,-0.265625,9.155273,-27.70996,5.126953,0.0,0.0,0.0,113.26904,56.782837,-8.355103
1766812012314,-0.63720703,0.35839844,-0.265625,9.155273,-27.70996,5.126953,0.0,0.0,0.0,106.78162,57.63977,-16.45752
1766812012402,-0.8017578,0.52734375,-0.35009766,7.385254,9.033203,-3.6621094,0.0,0.0,0.0,106.78162,57.63977,-16.45752
1766812012413,-0.8017578,0.52734375,-0.35009766,7.385254,9.033203,-3.6621094,0.0,0.0,0.0,105.35339,58.31543,-18.566895
1766812012502,-0.95947266,0.43847656,0.015625,-29.174805,22.888184,-18.737793,0.0,0.0,0.0,105.35339,58.31543,-18.566895
1766812012513,-0.95947266,0.43847656,0.015625,-29.174805,22.888184,-18.737793,0.0,0.0,0.0,113.33496,58.337402,-8.986816
1766812012601,-0.7368164,0.56591797,-0.24707031,-12.756348,24.291992,-12.084961,0.0,0.0,0.0,113.33496,58.337402,-8.986816
1766812012613,-0.7368164,0.56591797,-0.24707031,-12.756348,24.291992,-12.084961,0.0,0.0,0.0,112.5,59.381104,-10.799561
1766812012701,-0.91064453,0.5136719,-0.11279297,-5.1879883,15.441895,-3.2348633,0.0,0.0,0.0,112.5,59.381104,-10.799561
1766812012713,-0.91064453,0.5136719,-0.11279297,-5.1879883,15.441895,-3.2348633,0.0,0.0,0.0,116.84509,58.656006,-4.6032715
1766812012801,-0.97265625,0.54003906,-0.06738281,1.159668,-6.8359375,7.019043,0.0,0.0,0.0,116.84509,58.656006,-4.6032715
1766812012812,-0.97265625,0.54003906,-0.06738281,1.159668,-6.8359375,7.019043,0.0,0.0,0.0,115.90027,58.09021,-6.2512207
1766812012901,-1.0458984,0.45361328,-0.27929688,1.4648438,-36.193848,7.1411133,0.0,0.0,0.0,115.90027,58.09021,-6.2512207
1766812012912,-1.0458984,0.45361328,-0.27929688,1.4648438,-36.193848,7.1411133,0.0,0.0,0.0,109.96216,58.304443,-12.321167
1766812013000,-0.57910156,0.44921875,-0.27001953,6.4697266,7.019043,3.7841797,0.0,0.0,0.0,109.96216,58.304443,-12.321167
1766812013012,-0.57910156,0.44921875,-0.27001953,6.4697266,7.019043,3.7841797,0.0,0.0,0.0,109.03381,58.150635,-12.897949
1766812013100,-0.87353516,0.4633789,-0.24121094,8.422852,5.6762695,15.380859,0.0,0.0,0.0,109.03381,58.150635,-12.897949
1766812013112,-0.87353516,0.4633789,-0.24121094,8.422852,5.6762695,15.380859,0.0,0.0,0.0,110.74768,57.354126,-13.831787
1766812013200,-0.82666016,0.4716797,-0.20996094,12.512207,-2.319336,7.446289,0.0,0.0,0.0,110.74768,57.354126,-13.831787
1766812013211,-0.82666016,0.4716797,-0.20996094,12.512207,-2.319336,7.446289,0.0,0.0,0.0,111.57715,56.37085,-15.314941
1766812013299,-0.9189453,0.5209961,-0.1430664,10.192871,1.4038086,-2.5634766,0.0,0.0,0.0,111.57715,56.37085,-15.314941
1766812013311,-0.9189453,0.5209961,-0.1430664,10.192871,1.4038086,-2.5634766,0.0,0.0,0.0,113.274536,56.167603,-14.661255
1766812013399,-0.84521484,0.57421875,-0.16015625,-12.329102,16.479492,-8.300781,0.0,0.0,0.0,113.274536,56.167603,-14.661255
1766812013411,-0.84521484,0.57421875,-0.16015625,-12.329102,16.479492,-8.300781,0.0,0.0,0.0,114.625854,56.535645,-12.848511
1766812013499,-0.9291992,0.5366211,-0.017578125,-24.414062,-23.19336,0.30517578,0.0,0.0,0.0,114.625854,56.535645,-12.848511
1766812013510,-0.9291992,0.5366211,-0.017578125,-24.414062,-23.19336,0.30517578,0.0,0.0,0.0,111.83533,56.722412,-13.590088
1766812013599,-0.71533203,0.42822266,-0.36816406,5.432129,-19.40918,-0.30517578,0.0,0.0,0.0,111.83533,56.722412,-13.590088
1766812013610,-0.71533203,0.42822266,-0.36816406,5.432129,-19.40918,-0.30517578,0.0,0.0,0.0,103.84277,57.947388,-21.357422
1766812013698,-0.78466797,0.53222656,-0.3046875,-9.216309,26.062012,-12.756348,0.0,0.0,0.0,103.84277,57.947388,-21.357422
1766812013710,-0.78466797,0.53222656,-0.3046875,-9.216309,26.062012,-12.756348,0.0,0.0,0.0,105.33142,58.71643,-19.731445
1766812013798,-0.8881836,0.40527344,-0.14501953,-8.178711,-2.1972656,-17.028809,0.0,0.0,0.0,105.33142,58.71643,-19.731445
1766812013810,-0.8881836,0.40527344,-0.14501953,-8.178711,-2.1972656,-17.028809,0.0,0.0,0.0,108.66577,59.699707,-14.842529
1766812013898,-0.8071289,0.53466797,-0.12207031,-6.591797,14.343262,-4.3945312,0.0,0.0,0.0,108.66577,59.699707,-14.842529
1766812013909,-0.8071289,0.53466797,-0.12207031,-6.591797,14.343262,-4.3945312,0.0,0.0,0.0,110.10498,60.342407,-12.474976
1766812013997,-0.89404297,0.45361328,-0.12011719,1.953125,8.300781,0.24414062,0.0,0.0,0.0,110.10498,60.342407,-12.474976
1766812014009,-0.89404297,0.45361328,-0.12011719,1.953125,8.300781,0.24414062,0.0,0.0,0.0,111.75293,59.941406,-9.887695
1766812014097,-0.97265625,0.5805664,-0.037597656,9.277344,-15.319824,8.911133,0.0,0.0,0.0,111.75293,59.941406,-9.887695
1766812014110,-0.97265625,0.5805664,-0.037597656,9.277344,-15.319824,8.911133,0.0,0.0,0.0,111.59912,59.661255,-10.684204
1766812014197,-1.09375,0.5097656,-0.06640625,0.79345703,-28.686523,15.869141,0.0,0.0,0.0,111.59912,59.661255,-10.684204
1766812014208,-1.09375,0.5097656,-0.06640625,0.79345703,-28.686523,15.869141,0.0,0.0,0.0,107.46826,58.95813,-15.715942
1766812014296,-0.50341797,0.41796875,-0.2631836,-2.0751953,-0.30517578,5.004883,0.0,0.0,0.0,107.46826,58.95813,-15.715942
1766812014308,-0.50341797,0.41796875,-0.2631836,-2.0751953,-0.30517578,5.004883,0.0,0.0,0.0,102.3761,58.859253,-21.994629
1766812014396,-0.9404297,0.43115234,-0.27246094,30.944824,24.475098,9.70459,0.0,0.0,0.0,102.3761,58.859253,-21.994629
1766812014408,-0.9404297,0.43115234,-0.27246094,30.944824,24.475098,9.70459,0.0,0.0,0.0,105.3479,57.722168,-21.63208
1766812014496,-0.79052734,0.4970703,-0.20263672,15.74707,-8.239746,9.765625,0.0,0.0,0.0,105.3479,57.722168,-21.63208
1766812014507,-0.79052734,0.4970703,-0.20263672,15.74707,-8.239746,9.765625,0.0,0.0,0.0,108.45154,56.381836,-20.396118
1766812014595,-0.9111328,0.4580078,-0.11621094,13.85498,10.192871,1.2817383,0.0,0.0,0.0,108.45154,56.381836,-20.396118
1766812014607,-0.9111328,0.4580078,-0.11621094,13.85498,10.192871,1.2817383,0.0,0.0,0.0,111.41785,55.794067,-18.495483
1766812014695,-0.8574219,0.5908203,-0.2133789,-0.4272461,18.554688,-8.728027,0.0,0.0,0.0,111.41785,55.794067,-18.495483
1766812014707,-0.8574219,0.5908203,-0.2133789,-0.4272461,18.554688,-8.728027,0.0,0.0,0.0,113.41736,55.90393,-17.490234
1766812014795,-0.92529297,0.546875,-0.05419922,-24.047852,-5.004883,-5.6152344,0.0,0.0,0.0,113.41736,55.90393,-17.490234
1766812014806,-0.92529297,0.546875,-0.05419922,-24.047852,-5.004883,-5.6152344,0.0,0.0,0.0,114.61487,56.07422,-14.084473
1766812014895,-0.8803711,0.6323242,-0.26464844,-6.3476562,-46.203613,2.5634766,0.0,0.0,0.0,114.61487,56.07422,-14.084473
1766812014906,-0.8803711,0.6323242,-0.26464844,-6.3476562,-46.203613,2.5634766,0.0,0.0,0.0,108.66577,57.39807,-17.506714
1766812014994,-0.6357422,0.34472656,-0.28027344,-21.911621,-8.117676,-10.864258,0.0,0.0,0.0,108.66577,57.39807,-17.506714
1766812015006,-0.6357422,0.34472656,-0.28027344,-21.911621,-8.117676,-10.864258,0.0,0.0,0.0,103.77136,57.903442,-23.186646
1766812015094,-0.94628906,0.4477539,-0.19433594,-6.8969727,58.898926,-17.8833,0.0,0.0,0.0,103.77136,57.903442,-23.186646
1766812015105,-0.94628906,0.4477539,-0.19433594,-6.8969727,58.898926,-17.8833,0.0,0.0,0.0,106.5564,58.496704,-19.302979
1766812015194,-0.7636719,0.50390625,-0.16552734,21.1792,-30.944824,4.638672,0.0,0.0,0.0,106.5564,58.496704,-19.302979
1766812015205,-0.7636719,0.50390625,-0.16552734,21.1792,-30.944824,4.638672,0.0,0.0,0.0,110.50049,59.56787,-13.782349
1766812015293,-0.8183594,0.5073242,-0.17285156,-4.1503906,31.00586,-7.507324,0.0,0.0,0.0,110.50049,59.56787,-13.782349
1766812015305,-0.8183594,0.5073242,-0.17285156,-4.1503906,31.00586,-7.507324,0.0,0.0,0.0,111.83533,59.782104,-12.595825
1766812015393,-0.90625,0.50341797,-0.16308594,13.793945,-13.366699,8.605957,0.0,0.0,0.0,111.83533,59.782104,-12.595825
1766812015405,-0.90625,0.50341797,-0.16308594,13.793945,-13.366699,8.605957,0.0,0.0,0.0,112.96692,59.419556,-11.282959
1766812015493,-0.92578125,0.5756836,0.008300781,6.0424805,-23.68164,13.671875,0.0,0.0,0.0,112.96692,59.419556,-11.282959
1766812015504,-0.92578125,0.5756836,0.008300781,6.0424805,-23.68164,13.671875,0.0,0.0,0.0,111.467285,59.00757,-13.573608
1766812015592,-0.97314453,0.3671875,-0.26757812,7.2631836,-29.418945,6.7749023,0.0,0.0,0.0,111.467285,59.00757,-13.573608
1766812015604,-0.97314453,0.3671875,-0.26757812,7.2631836,-29.418945,6.7749023,0.0,0.0,0.0,105.28198,58.793335,-21.395874
1766812015692,-0.7626953,0.5126953,-0.32470703,5.7373047,1.0986328,8.239746,0.0,0.0,0.0,105.28198,58.793335,-21.395874
1766812015704,-0.7626953,0.5126953,-0.32470703,5.7373047,1.0986328,8.239746,0.0,0.0,0.0,104.869995,58.33191,-22.230835
1766812015792,-0.85791016,0.57128906,-0.10107422,-4.0893555,19.348145,14.526367,0.0,0.0,0.0,104.869995,58.33191,-22.230835
1766812015803,-0.85791016,0.57128906,-0.10107422,-4.0893555,19.348145,14.526367,0.0,0.0,0.0,108.83057,56.83777,-20.286255
1766812015892,-0.8154297,0.4404297,-0.22460938,7.080078,19.958496,1.8310547,0.0,0.0,0.0,108.83057,56.83777,-20.286255
1766812015903,-0.8154297,0.4404297,-0.22460938,7.080078,19.958496,1.8310547,0.0,0.0,0.0,109.70947,56.140137,-21.099243
1766812015991,-0.8881836,0.5649414,-0.1303711,11.71875,-5.7373047,-1.159668,0.0,0.0,0.0,109.70947,56.140137,-21.099243
1766812016003,-0.8881836,0.5649414,-0.1303711,11.71875,-5.7373047,-1.159668,0.0,0.0,0.0,112.04956,55.980835,-19.456787
1766812016091,-0.92041016,0.56152344,-0.09667969,-14.953613,14.465332,-3.6621094,0.0,0.0,0.0,112.04956,55.980835,-19.456787
1766812016103,-0.92041016,0.56152344,-0.09667969,-14.953613,14.465332,-3.6621094,0.0,0.0,0.0,112.82959,56.068726,-17.330933
1766812016191,-1.0512695,0.7006836,-0.12792969,-4.5776367,-35.461426,9.216309,0.0,0.0,0.0,112.82959,56.068726,-17.330933
1766812016202,-1.0512695,0.7006836,-0.12792969,-4.5776367,-35.461426,9.216309,0.0,0.0,0.0,109.01184,56.61255,-20.00061
1766812016290,-0.6743164,0.27539062,-0.2998047,11.474609,-4.5776367,-4.5166016,0.0,0.0,0.0,109.01184,56.61255,-20.00061
1766812016302,-0.6743164,0.27539062,-0.2998047,11.474609,-4.5776367,-4.5166016,0.0,0.0,0.0,104.84253,57.2937,-24.702759
1766812016390,-0.80322266,0.65185547,-0.17773438,-7.080078,11.352539,-13.122559,0.0,0.0,0.0,104.84253,57.2937,-24.702759
1766812016402,-0.80322266,0.65185547,-0.17773438,-7.080078,11.352539,-13.122559,0.0,0.0,0.0,106.32568,58.57361,-23.296509
1766812016490,-0.8666992,0.40576172,-0.11669922,-6.164551,-7.1411133,-11.962891,0.0,0.0,0.0,106.32568,58.57361,-23.296509
1766812016501,-0.8666992,0.40576172,-0.11669922,-6.164551,-7.1411133,-11.962891,0.0,0.0,0.0,106.40259,59.798584,-22.41211
1766812016590,-0.7758789,0.56640625,-0.1171875,-1.159668,9.82666,-6.3476562,0.0,0.0,0.0,106.40259,59.798584,-22.41211
1766812016601,-0.7758789,0.56640625,-0.1171875,-1.159668,9.82666,-6.3476562,0.0,0.0,0.0,106.91345,60.754395,-21.851807
1766812016689,-0.8769531,0.49414062,-0.0703125,-0.8544922,4.760742,-3.540039,0.0,0.0,0.0,106.91345,60.754395,-21.851807
1766812016701,-0.8769531,0.49414062,-0.0703125,-0.8544922,4.760742,-3.540039,0.0,0.0,0.0,108.43506,60.66101,-19.577637
1766812016789,-0.9663086,0.5595703,0.0126953125,-1.159668,-2.0751953,2.1972656,0.0,0.0,0.0,108.43506,60.66101,-19.577637
1766812016800,-0.9663086,0.5595703,0.0126953125,-1.159668,-2.0751953,2.1972656,0.0,0.0,0.0,108.3197,60.57312,-19.528198
1766812016890,-1.0698242,0.5083008,-0.13964844,2.5634766,-29.47998,15.50293,0.0,0.0,0.0,108.3197,60.57312,-19.528198
1766812016901,-1.0698242,0.5083008,-0.13964844,2.5634766,-29.47998,15.50293,0.0,0.0,0.0,103.62854,60.100708,-24.53247
1766812016988,-0.5439453,0.4296875,-0.21875,-5.6152344,30.090332,6.652832,0.0,0.0,0.0,103.62854,60.100708,-24.53247
1766812017000,-0.5439453,0.4296875,-0.21875,-5.6152344,30.090332,6.652832,0.0,0.0,0.0,104.58435,59.315186,-23.17566
1766812017088,-0.9580078,0.41992188,-0.1796875,8.361816,10.375977,5.7373047,0.0,0.0,0.0,104.58435,59.315186,-23.17566
1766812017100,-0.9580078,0.41992188,-0.1796875,8.361816,10.375977,5.7373047,0.0,0.0,0.0,106.501465,58.408813,-23.269043
1766812017188,-0.76123047,0.51708984,-0.19091797,13.48877,16.906738,5.1879883,0.0,0.0,0.0,106.501465,58.408813,-23.269043
1766812017204,-0.76123047,0.51708984,-0.19091797,13.48877,16.906738,5.1879883,0.0,0.0,0.0,109.017334,57.650757,-22.7417
1766812017287,-0.91064453,0.4560547,-0.16064453,16.052246,2.6855469,1.3427734,0.0,0.0,0.0,109.017334,57.650757,-22.7417
1766812017299,-0.91064453,0.4560547,-0.16064453,16.052246,2.6855469,1.3427734,0.0,0.0,0.0,112.07703,57.08496,-20.802612
1766812017387,-0.8676758,0.5888672,-0.17333984,-4.699707,22.888184,-5.7373047,0.0,0.0,0.0,112.07703,57.08496,-20.802612
1766812017399,-0.8676758,0.5888672,-0.17333984,-4.699707,22.888184,-5.7373047,0.0,0.0,0.0,114.730225,57.041016,-17.896729
1766812017487,-1.0224609,0.5595703,-0.030761719,-17.63916,-22.460938,2.4414062,0.0,0.0,0.0,114.730225,57.041016,-17.896729
1766812017498,-1.0224609,0.5595703,-0.030761719,-17.63916,-22.460938,2.4414062,0.0,0.0,0.0,114.07654,56.96411,-16.732178
1766812017587,-0.68847656,0.38134766,-0.30566406,14.709473,-11.047363,4.1503906,0.0,0.0,0.0,114.07654,56.96411,-16.732178
1766812017599,-0.68847656,0.38134766,-0.30566406,14.709473,-11.047363,4.1503906,0.0,0.0,0.0,108.325195,57.886963,-22.835083
1766812017686,-0.8442383,0.5463867,-0.3515625,3.540039,-3.540039,-9.094238,0.0,0.0,0.0,108.325195,57.886963,-22.835083
1766812017698,-0.8442383,0.5463867,-0.3515625,3.540039,-3.540039,-9.094238,0.0,0.0,0.0,108.91846,58.52417,-22.82959
1766812017786,-0.90185547,0.38427734,-0.12695312,-4.8217773,22.216797,-20.812988,0.0,0.0,0.0,108.91846,58.52417,-22.82959
1766812017798,-0.90185547,0.38427734,-0.12695312,-4.8217773,22.216797,-20.812988,0.0,0.0,0.0,113.12622,58.62854,-19.47876
1766812017886,-0.74560547,0.59375,-0.19238281,-10.131836,15.380859,-6.958008,0.0,0.0,0.0,113.12622,58.62854,-19.47876
1766812017897,-0.74560547,0.59375,-0.19238281,-10.131836,15.380859,-6.958008,0.0,0.0,0.0,114.938965,59.414062,-17.20459
1766812017985,-0.87646484,0.50634766,-0.1665039,-2.1972656,14.282227,-2.380371,0.0,0.0,0.0,114.938965,59.414062,-17.20459
1766812017997,-0.87646484,0.50634766,-0.1665039,-2.1972656,14.282227,-2.380371,0.0,0.0,0.0,116.61987,58.95813,-14.024048
1766812018085,-0.92822266,0.57373047,-0.091796875,3.479004,-12.390137,7.3242188,0.0,0.0,0.0,116.61987,58.95813,-14.024048
1766812018097,-0.92822266,0.57373047,-0.091796875,3.479004,-12.390137,7.3242188,0.0,0.0,0.0,116.56494,58.529663,-14.320679
1766812018185,-1.1044922,0.4711914,-0.29785156,-0.24414062,-38.69629,12.939453,0.0,0.0,0.0,116.56494,58.529663,-14.320679
1766812018196,-1.1044922,0.4711914,-0.29785156,-0.24414062,-38.69629,12.939453,0.0,0.0,0.0,110.91797,58.287964,-19.46228
1766812018285,-0.5493164,0.4428711,-0.29833984,-1.8920898,8.972168,-1.3427734,0.0,0.0,0.0,110.91797,58.287964,-19.46228
1766812018296,-0.5493164,0.4428711,-0.29833984,-1.8920898,8.972168,-1.3427734,0.0,0.0,0.0,108.9624,58.13965,-20.20935
1766812018384,-0.92871094,0.43554688,-0.1977539,-1.2207031,32.043457,6.3476562,0.0,0.0,0.0,108.9624,58.13965,-20.20935
1766812018396,-0.92871094,0.43554688,-0.1977539,-1.2207031,32.043457,6.3476562,0.0,0.0,0.0,112.52197,57.041016,-18.781128
1766812018484,-0.79785156,0.45654297,-0.25634766,11.71875,7.873535,1.953125,0.0,0.0,0.0,112.52197,57.041016,-18.781128
1766812018496,-0.79785156,0.45654297,-0.25634766,11.71875,7.873535,1.953125,0.0,0.0,0.0,113.96118,56.16211,-18.748169
1766812018584,-0.93896484,0.49902344,-0.16357422,11.474609,1.8310547,0.36621094,0.0,0.0,0.0,113.96118,56.16211,-18.748169
1766812018595,-0.93896484,0.49902344,-0.16357422,11.474609,1.8310547,0.36621094,0.0,0.0,0.0,117.04834,55.689697,-16.42456
1766812018684,-0.84228516,0.5678711,-0.19042969,-9.277344,13.48877,-9.887695,0.0,0.0,0.0,117.04834,55.689697,-16.42456
1766812018695,-0.84228516,0.5678711,-0.19042969,-9.277344,13.48877,-9.887695,0.0,0.0,0.0,117.79541,56.107178,-15.628052
1766812018783,-1.0371094,0.4897461,-0.104003906,-18.188477,-31.738281,-0.9765625,0.0,0.0,0.0,117.79541,56.107178,-15.628052
1766812018795,-1.0371094,0.4897461,-0.104003906,-18.188477,-31.738281,-0.9765625,0.0,0.0,0.0,115.911255,56.640015,-15.479736
1766812018883,-0.6894531,0.41357422,-0.31347656,-5.3710938,-26.794434,5.004883,0.0,0.0,0.0,115.911255,56.640015,-15.479736
1766812018894,-0.6894531,0.41357422,-0.31347656,-5.3710938,-26.794434,5.004883,0.0,0.0,0.0,107.27051,58.4198,-24.4281
1766812018983,-0.8178711,0.61083984,-0.34472656,-19.40918,12.329102,-16.784668,0.0,0.0,0.0,107.27051,58.4198,-24.4281
1766812018994,-0.8178711,0.61083984,-0.34472656,-19.40918,12.329102,-16.784668,0.0,0.0,0.0,105.13916,59.040527,-25.631104
1766812019083,-0.8510742,0.3959961,-0.06201172,-0.91552734,-13.73291,-3.0517578,0.0,0.0,0.0,105.13916,59.040527,-25.631104
1766812019094,-0.8510742,0.3959961,-0.06201172,-0.91552734,-13.73291,-3.0517578,0.0,0.0,0.0,105.858765,59.067993,-23.3844
1766812019182,-0.7832031,0.55810547,-0.104003906,-4.1503906,5.1879883,-2.9296875,0.0,0.0,0.0,105.858765,59.067993,-23.3844
1766812019194,-0.7832031,0.55810547,-0.104003906,-4.1503906,5.1879883,-2.9296875,0.0,0.0,0.0,104.20532,59.52942,-25.345459
1766812019282,-0.86376953,0.5229492,-0.075683594,7.3242188,-4.4555664,-4.3945312,0.0,0.0,0.0,104.20532,59.52942,-25.345459
1766812019293,-0.86376953,0.5229492,-0.075683594,7.3242188,-4.4555664,-4.3945312,0.0,0.0,0.0,104.23279,59.77661,-25.482788
1766812019381,-0.8823242,0.56103516,0.0048828125,18.127441,-15.625,2.0141602,0.0,0.0,0.0,104.23279,59.77661,-25.482788
1766812019393,-0.8823242,0.56103516,0.0048828125,18.127441,-15.625,2.0141602,0.0,0.0,0.0,103.74939,60.17212,-27.130737
1766812019481,-1.0981445,0.46484375,-0.14355469,35.583496,-36.499023,4.8828125,0.0,0.0,0.0,103.74939,60.17212,-27.130737
1766812019493,-1.0981445,0.46484375,-0.14355469,35.583496,-36.499023,4.8828125,0.0,0.0,0.0,100.475464,60.21057,-32.876587
1766812019581,-0.5830078,0.4970703,-0.1616211,39.18457,15.441895,17.822266,0.0,0.0,0.0,100.475464,60.21057,-32.876587
1766812019592,-0.5830078,0.4970703,-0.1616211,39.18457,15.441895,17.822266,0.0,0.0,0.0,102.51343,59.534912,-34.140015
1766812019681,-0.9033203,0.36572266,-0.20605469,33.02002,-10.986328,5.2490234,0.0,0.0,0.0,102.51343,59.534912,-34.140015
1766812019692,-0.9033203,0.36572266,-0.20605469,33.02002,-10.986328,5.2490234,0.0,0.0,0.0,105.4303,58.639526,-36.194458
1766812019780,-0.79833984,0.54589844,-0.059570312,24.475098,2.1362305,7.2021484,0.0,0.0,0.0,105.4303,58.639526,-36.194458
1766812019792,-0.79833984,0.54589844,-0.059570312,24.475098,2.1362305,7.2021484,0.0,0.0,0.0,108.4845,57.634277,-37.13379
1766812019880,-0.93066406,0.48779297,-0.16796875,7.385254,15.441895,-10.314941,0.0,0.0,0.0,108.4845,57.634277,-37.13379
1766812019892,-0.93066406,0.48779297,-0.16796875,7.385254,15.441895,-10.314941,0.0,0.0,0.0,110.44006,57.91992,-36.188965
1766812019980,-0.86279297,0.5317383,-0.14111328,-5.6762695,3.2958984,-0.4272461,0.0,0.0,0.0,110.44006,57.91992,-36.188965
1766812019991,-0.86279297,0.5317383,-0.14111328,-5.6762695,3.2958984,-0.4272461,0.0,0.0,0.0,111.796875,58.26599,-34.140015
1766812020079,-1.034668,0.6274414,-0.11816406,-20.080566,-39.55078,-6.5307617,0.0,0.0,0.0,111.796875,58.26599,-34.140015
1766812020091,-1.034668,0.6274414,-0.11816406,-20.080566,-39.55078,-6.5307617,0.0,0.0,0.0,108.05054,59.067993,-36.694336
1766812020180,-0.7763672,0.2915039,-0.32714844,1.5869141,24.902344,-21.54541,0.0,0.0,0.0,108.05054,59.067993,-36.694336
1766812020191,-0.7763672,0.2915039,-0.32714844,1.5869141,24.902344,-21.54541,0.0,0.0,0.0,107.29248,60.353394,-38.78174
1766812020279,-0.7919922,0.52783203,-0.2265625,-26.184082,20.141602,-23.07129,0.0,0.0,0.0,107.29248,60.353394,-38.78174
1766812020291,-0.7919922,0.52783203,-0.2265625,-26.184082,20.141602,-23.07129,0.0,0.0,0.0,107.04529,62.01233,-39.18274
1766812020379,-0.77490234,0.48632812,-0.1899414,-22.399902,1.2817383,-5.9814453,0.0,0.0,0.0,107.04529,62.01233,-39.18274
1766812020390,-0.77490234,0.48632812,-0.1899414,-22.399902,1.2817383,-5.9814453,0.0,0.0,0.0,108.29224,62.67151,-35.040894
1766812020478,-0.91796875,0.44384766,-0.06738281,-20.080566,1.7089844,-8.7890625,0.0,0.0,0.0,108.29224,62.67151,-35.040894
1766812020490,-0.91796875,0.44384766,-0.06738281,-20.080566,1.7089844,-8.7890625,0.0,0.0,0.0,108.61084,63.116455,-32.20642
1766812020578,-0.87841797,0.5004883,0.016113281,-8.7890625,-14.526367,1.0375977,0.0,0.0,0.0,108.61084,63.116455,-32.20642
1766812020589,-0.87841797,0.5004883,0.016113281,-8.7890625,-14.526367,1.0375977,0.0,0.0,0.0,105.809326,63.528442,-33.62915
1766812020678,-1.1025391,0.5473633,-0.03466797,-12.268066,-21.1792,0.61035156,0.0,0.0,0.0,105.809326,63.528442,-33.62915
1766812020690,-1.1025391,0.5473633,-0.03466797,-12.268066,-21.1792,0.61035156,0.0,0.0,0.0,101.36536,63.649292,-37.062378
1766812020777,-0.5488281,0.44091797,-0.28466797,-9.94873,11.71875,21.850586,0.0,0.0,0.0,101.36536,63.649292,-37.062378
1766812020789,-0.5488281,0.44091797,-0.28466797,-9.94873,11.71875,21.850586,0.0,0.0,0.0,97.13013,62.907715,-41.21521
1766812020877,-1.0175781,0.37060547,-0.020996094,-28.9917,23.986816,0.91552734,0.0,0.0,0.0,97.13013,62.907715,-41.21521
1766812020889,-1.0175781,0.37060547,-0.020996094,-28.9917,23.986816,0.91552734,0.0,0.0,0.0,102.03552,61.001587,-35.760498
1766812020977,-0.79785156,0.41992188,-0.1303711,-3.7231445,25.20752,3.9672852,0.0,0.0,0.0,102.03552,61.001587,-35.760498
1766812020988,-0.79785156,0.41992188,-0.1303711,-3.7231445,25.20752,3.9672852,0.0,0.0,0.0,102.8595,59.177856,-36.194458
1766812021077,-0.88427734,0.5097656,-0.1640625,-6.652832,28.137207,-4.0893555,0.0,0.0,0.0,102.8595,59.177856,-36.194458
1766812021088,-0.88427734,0.5097656,-0.1640625,-6.652832,28.137207,-4.0893555,0.0,0.0,0.0,105.875244,58.969116,-32.68982
1766812021176,-0.8642578,0.5136719,-0.07128906,-17.211914,15.50293,2.0141602,0.0,0.0,0.0,105.875244,58.969116,-32.68982
1766812021188,-0.8642578,0.5136719,-0.07128906,-17.211914,15.50293,2.0141602,0.0,0.0,0.0,108.654785,58.238525,-28.103027
1766812021276,-1.0712891,0.54345703,0.0024414062,-35.095215,-20.202637,-0.30517578,0.0,0.0,0.0,108.654785,58.238525,-28.103027
1766812021287,-1.0712891,0.54345703,0.0024414062,-35.095215,-20.202637,-0.30517578,0.0,0.0,0.0,105.44678,58.205566,-28.070068
1766812021376,-0.6826172,0.34228516,-0.19042969,-4.760742,5.3710938,-0.79345703,0.0,0.0,0.0,105.44678,58.205566,-28.070068
1766812021387,-0.6826172,0.34228516,-0.19042969,-4.760742,5.3710938,-0.79345703,0.0,0.0,0.0,100.667725,58.40332,-32.60193
1766812021475,-0.89208984,0.6123047,-0.23876953,-16.967773,-2.2583008,-13.977051,0.0,0.0,0.0,100.667725,58.40332,-32.60193
1766812021487,-0.89208984,0.6123047,-0.23876953,-16.967773,-2.2583008,-13.977051,0.0,0.0,0.0,99.66797,59.699707,-31.832886
1766812021575,-0.8354492,0.4189453,-0.075683594,-4.699707,-2.5024414,-11.413574,0.0,0.0,0.0,99.66797,59.699707,-31.832886
1766812021587,-0.8354492,0.4189453,-0.075683594,-4.699707,-2.5024414,-11.413574,0.0,0.0,0.0,99.766846,60.69397,-31.376953
1766812021675,-0.8979492,0.51123047,-0.055664062,2.8686523,6.4086914,-2.8686523,0.0,0.0,0.0,99.766846,60.69397,-31.376953
1766812021687,-0.8979492,0.51123047,-0.055664062,2.8686523,6.4086914,-2.8686523,0.0,0.0,0.0,99.975586,61.24878,-31.635132
1766812021775,-0.9135742,0.55859375,0.040527344,0.18310547,-8.361816,1.7700195,0.0,0.0,0.0,99.975586,61.24878,-31.635132
1766812021786,-0.9135742,0.55859375,0.040527344,0.18310547,-8.361816,1.7700195,0.0,0.0,0.0,99.8822,61.28174,-31.959229
1766812021874,-0.81591797,0.52001953,0.06591797,-6.1035156,-20.202637,3.3569336,0.0,0.0,0.0,99.8822,61.28174,-31.959229
1766812021886,-0.81591797,0.52001953,0.06591797,-6.1035156,-20.202637,3.3569336,0.0,0.0,0.0,96.05896,61.02356,-35.54077
1766812021974,-0.6508789,0.42089844,-0.2421875,1.8920898,11.108398,11.962891,0.0,0.0,0.0,96.05896,61.02356,-35.54077
1766812021985,-0.6508789,0.42089844,-0.2421875,1.8920898,11.108398,11.962891,0.0,0.0,0.0,90.03845,60.76538,-41.48987
1766812022074,-1.0512695,0.41259766,-0.12890625,13.61084,-21.1792,7.2631836,0.0,0.0,0.0,90.03845,60.76538,-41.48987
1766812022085,-1.0512695,0.41259766,-0.12890625,13.61084,-21.1792,7.2631836,0.0,0.0,0.0,91.46118,59.19983,-40.061646
1766812022174,-0.8305664,0.49804688,-0.0087890625,15.563965,0.6713867,11.535645,0.0,0.0,0.0,91.46118,59.19983,-40.061646
1766812022185,-0.8305664,0.49804688,-0.0087890625,15.563965,0.6713867,11.535645,0.0,0.0,0.0,92.9718,58.16162,-40.10559
1766812022273,-0.8564453,0.45751953,-0.07519531,15.258789,12.817383,0.4272461,0.0,0.0,0.0,92.9718,58.16162,-40.10559
1766812022285,-0.8564453,0.45751953,-0.07519531,15.258789,12.817383,0.4272461,0.0,0.0,0.0,95.24048,57.821045,-39.09485
1766812022373,-0.90625,0.55078125,0.0390625,8.361816,9.643555,-0.48828125,0.0,0.0,0.0,95.24048,57.821045,-39.09485
1766812022384,-0.90625,0.55078125,0.0390625,8.361816,9.643555,-0.48828125,0.0,0.0,0.0,99.41528,57.974854,-35.595703
1766812022473,-0.91503906,0.4663086,0.068847656,-7.9345703,-10.620117,-3.112793,0.0,0.0,0.0,99.41528,57.974854,-35.595703
1766812022484,-0.91503906,0.4663086,0.068847656,-7.9345703,-10.620117,-3.112793,0.0,0.0,0.0,98.74512,58.222046,-35.529785
1766812022572,-0.79003906,0.5341797,-0.2163086,12.817383,-15.50293,5.6762695,0.0,0.0,0.0,98.74512,58.222046,-35.529785
1766812022584,-0.79003906,0.5341797,-0.2163086,12.817383,-15.50293,5.6762695,0.0,0.0,0.0,93.1311,58.69995,-41.209717
1766812022672,-0.7729492,0.640625,-0.22753906,-8.361816,-8.056641,-9.521484,0.0,0.0,0.0,93.1311,58.69995,-41.209717
1766812022684,-0.7729492,0.640625,-0.22753906,-8.361816,-8.056641,-9.521484,0.0,0.0,0.0,92.96631,59.024048,-41.467896
1766812022772,-0.8808594,0.45166016,0.0034179688,-1.8920898,3.90625,-11.71875,0.0,0.0,0.0,92.96631,59.024048,-41.467896
1766812022784,-0.8808594,0.45166016,0.0034179688,-1.8920898,3.90625,-11.71875,0.0,0.0,0.0,94.77905,59.996338,-39.2157
1766812022871,-0.8510742,0.47705078,-0.045898438,-3.2958984,7.9345703,-2.1362305,0.0,0.0,0.0,94.77905,59.996338,-39.2157
1766812022883,-0.8510742,0.47705078,-0.045898438,-3.2958984,7.9345703,-2.1362305,0.0,0.0,0.0,95.37781,60.3479,-38.31482
1766812022971,-0.8569336,0.5649414,-0.0126953125,3.9672852,0.79345703,-2.6855469,0.0,0.0,0.0,95.37781,60.3479,-38.31482
1766812022983,-0.8569336,0.5649414,-0.0126953125,3.9672852,0.79345703,-2.6855469,0.0,0.0,0.0,96.25122,60.551147,-37.468872
1766812023071,-0.8364258,0.5410156,0.06689453,5.1879883,-17.089844,1.6479492,0.0,0.0,0.0,96.25122,60.551147,-37.468872
1766812023082,-0.8364258,0.5410156,0.06689453,5.1879883,-17.089844,1.6479492,0.0,0.0,0.0,95.26245,60.60608,-38.534546
1766812023171,-0.97314453,0.5498047,-0.084472656,4.9438477,-19.53125,3.8452148,0.0,0.0,0.0,95.26245,60.60608,-38.534546
1766812023183,-0.97314453,0.5498047,-0.084472656,4.9438477,-19.53125,3.8452148,0.0,0.0,0.0,90.999756,60.402832,-43.555298
1766812023270,-0.95703125,0.4345703,-0.03564453,3.0517578,-12.512207,11.535645,0.0,0.0,0.0,90.999756,60.402832,-43.555298
1766812023282,-0.95703125,0.4345703,-0.03564453,3.0517578,-12.512207,11.535645,0.0,0.0,0.0,91.91162,59.282227,-42.17102
1766812023370,-0.85498047,0.5083008,0.0,17.211914,2.8686523,10.925293,0.0,0.0,0.0,91.91162,59.282227,-42.17102
1766812023382,-0.85498047,0.5083008,0.0,17.211914,2.8686523,10.925293,0.0,0.0,0.0,93.2135,59.139404,-42.077637
1766812023470,-0.80908203,0.47021484,-0.056152344,9.033203,12.207031,-0.61035156,0.0,0.0,0.0,93.2135,59.139404,-42.077637
1766812023481,-0.80908203,0.47021484,-0.056152344,9.033203,12.207031,-0.61035156,0.0,0.0,0.0,95.218506,58.864746,-41.621704
1766812023570,-0.9277344,0.5161133,-0.0029296875,12.878418,13.61084,-7.1411133,0.0,0.0,0.0,95.218506,58.864746,-41.621704
1766812023581,-0.9277344,0.5161133,-0.0029296875,12.878418,13.61084,-7.1411133,0.0,0.0,0.0,99.06372,58.980103,-38.303833
1766812023669,-0.92871094,0.51123047,0.0107421875,7.019043,5.432129,6.286621,0.0,0.0,0.0,99.06372,58.980103,-38.303833
1766812023681,-0.92871094,0.51123047,0.0107421875,7.019043,5.432129,6.286621,0.0,0.0,0.0,101.62903,59.122925,-35.88684
1766812023769,-1.0380859,0.66015625,-0.16894531,11.291504,-45.043945,2.5024414,0.0,0.0,0.0,101.62903,59.122925,-35.88684
1766812023780,-1.0380859,0.66015625,-0.16894531,11.291504,-45.043945,2.5024414,0.0,0.0,0.0,97.89917,58.980103,-39.79248
1766812023869,-0.6586914,0.3701172,-0.12792969,7.019043,28.686523,-4.760742,0.0,0.0,0.0,97.89917,58.980103,-39.79248
1766812023880,-0.6586914,0.3701172,-0.12792969,7.019043,28.686523,-4.760742,0.0,0.0,0.0,99.3219,58.496704,-40.79773
1766812023968,-0.94677734,0.43945312,-0.18408203,2.9296875,8.728027,-6.164551,0.0,0.0,0.0,99.3219,58.496704,-40.79773
1766812023980,-0.94677734,0.43945312,-0.18408203,2.9296875,8.728027,-6.164551,0.0,0.0,0.0,100.46997,58.930664,-39.732056
1766812024068,-0.6977539,0.60595703,-0.14697266,-2.746582,4.0893555,-1.4038086,0.0,0.0,0.0,100.46997,58.930664,-39.732056
1766812024080,-0.6977539,0.60595703,-0.14697266,-2.746582,4.0893555,-1.4038086,0.0,0.0,0.0,101.31592,59.35913,-38.66638
1766812024168,-0.8779297,0.5185547,-0.05517578,0.0,10.070801,-6.713867,0.0,0.0,0.0,101.31592,59.35913,-38.66638
1766812024179,-0.8779297,0.5185547,-0.05517578,0.0,10.070801,-6.713867,0.0,0.0,0.0,103.0957,59.35913,-36.436157
1766812024268,-0.8847656,0.5517578,0.022949219,3.2348633,-15.319824,-2.9296875,0.0,0.0,0.0,103.0957,59.35913,-36.436157
1766812024279,-0.8847656,0.5517578,0.022949219,3.2348633,-15.319824,-2.9296875,0.0,0.0,0.0,102.40906,59.72168,-37.056885
1766812024367,-1.0356445,0.58691406,-0.0546875,5.92041,-34.729004,-2.380371,0.0,0.0,0.0,102.40906,59.72168,-37.056885
1766812024379,-1.0356445,0.58691406,-0.0546875,5.92041,-34.729004,-2.380371,0.0,0.0,0.0,98.33862,60.177612,-42.072144
1766812024467,-0.5180664,0.43701172,-0.24609375,3.0517578,13.85498,-3.4179688,0.0,0.0,0.0,98.33862,60.177612,-42.072144
1766812024479,-0.5180664,0.43701172,-0.24609375,3.0517578,13.85498,-3.4179688,0.0,0.0,0.0,95.372314,61.270752,-45.889893
1766812024567,-0.9082031,0.29638672,-0.114746094,17.8833,-8.117676,-6.3476562,0.0,0.0,0.0,95.372314,61.270752,-45.889893
1766812024578,-0.9082031,0.29638672,-0.114746094,17.8833,-8.117676,-6.3476562,0.0,0.0,0.0,98.96484,60.864258,-44.01123
1766812024667,-0.8178711,0.50341797,-0.067871094,7.3242188,22.766113,2.1362305,0.0,0.0,0.0,98.96484,60.864258,-44.01123
1766812024678,-0.8178711,0.50341797,-0.067871094,7.3242188,22.766113,2.1362305,0.0,0.0,0.0,101.95862,59.80957,-43.258667
1766812024766,-0.9038086,0.49658203,-0.12011719,-3.1738281,31.677246,-9.338379,0.0,0.0,0.0,101.95862,59.80957,-43.258667
1766812024778,-0.9038086,0.49658203,-0.12011719,-3.1738281,31.677246,-9.338379,0.0,0.0,0.0,106.01807,59.848022,-39.07837
1766812024866,-0.89404297,0.46142578,-0.064941406,-9.94873,5.126953,-3.112793,0.0,0.0,0.0,106.01807,59.848022,-39.07837
1766812024877,-0.89404297,0.46142578,-0.064941406,-9.94873,5.126953,-3.112793,0.0,0.0,0.0,107.95715,59.749146,-35.60669
1766812024966,-1.097168,0.6098633,-0.07519531,-12.939453,-36.621094,4.333496,0.0,0.0,0.0,107.95715,59.749146,-35.60669
1766812024977,-1.097168,0.6098633,-0.07519531,-12.939453,-36.621094,4.333496,0.0,0.0,0.0,104.45801,60.01831,-37.974243
1766812025065,-0.6777344,0.39794922,-0.14697266,5.9814453,18.493652,-6.652832,0.0,0.0,0.0,104.45801,60.01831,-37.974243
1766812025077,-0.6777344,0.39794922,-0.14697266,5.9814453,18.493652,-6.652832,0.0,0.0,0.0,102.50244,60.12268,-41.92383
1766812025165,-0.85498047,0.42041016,-0.2944336,10.131836,0.6713867,-5.1879883,0.0,0.0,0.0,102.50244,60.12268,-41.92383
1766812025177,-0.85498047,0.42041016,-0.2944336,10.131836,0.6713867,-5.1879883,0.0,0.0,0.0,101.71692,60.76538,-43.582764
1766812025265,-0.7285156,0.58935547,-0.092285156,7.2021484,-17.700195,-8.728027,0.0,0.0,0.0,101.71692,60.76538,-43.582764
1766812025276,-0.7285156,0.58935547,-0.092285156,7.2021484,-17.700195,-8.728027,0.0,0.0,0.0,104.87549,61.847534,-39.885864
1766812025365,-0.8959961,0.47265625,-0.07910156,-19.53125,35.27832,-10.986328,0.0,0.0,0.0,104.87549,61.847534,-39.885864
1766812025376,-0.8959961,0.47265625,-0.07910156,-19.53125,35.27832,-10.986328,0.0,0.0,0.0,107.023315,62.14966,-36.639404
1766812025464,-0.9223633,0.5180664,-0.059570312,-18.371582,10.314941,-4.8217773,0.0,0.0,0.0,107.023315,62.14966,-36.639404
1766812025476,-0.9223633,0.5180664,-0.059570312,-18.371582,10.314941,-4.8217773,0.0,0.0,0.0,107.786865,62.105713,-33.250122
1766812025564,-0.859375,0.43896484,-0.0048828125,0.0,-17.333984,-6.591797,0.0,0.0,0.0,107.786865,62.105713,-33.250122
1766812025575,-0.859375,0.43896484,-0.0048828125,0.0,-17.333984,-6.591797,0.0,0.0,0.0,105.979614,62.69348,-34.002686
1766812025664,-0.7294922,0.42773438,-0.22509766,-6.1035156,-2.0751953,8.605957,0.0,0.0,0.0,105.979614,62.69348,-34.002686
1766812025675,-0.7294922,0.42773438,-0.22509766,-6.1035156,-2.0751953,8.605957,0.0,0.0,0.0,101.651,62.786865,-38.287354
1766812025763,-1.0366211,0.28125,-0.16357422,12.878418,15.991211,12.268066,0.0,0.0,0.0,101.651,62.786865,-38.287354
1766812025775,-1.0366211,0.28125,-0.16357422,12.878418,15.991211,12.268066,0.0,0.0,0.0,104.34265,60.320435,-36.134033
1766812025863,-0.79003906,0.4711914,-0.16845703,23.68164,-4.4555664,24.291992,0.0,0.0,0.0,104.34265,60.320435,-36.134033
1766812025875,-0.79003906,0.4711914,-0.16845703,23.68164,-4.4555664,24.291992,0.0,0.0,0.0,106.204834,59.21631,-35.897827
1766812025963,-0.9272461,0.43945312,-0.17919922,2.319336,22.949219,-0.91552734,0.0,0.0,0.0,106.204834,59.21631,-35.897827
1766812025974,-0.9272461,0.43945312,-0.17919922,2.319336,22.949219,-0.91552734,0.0,0.0,0.0,109.48425,58.842773,-33.47534
1766812026063,-0.87353516,0.48291016,-0.08691406,0.0,17.8833,-1.4648438,0.0,0.0,0.0,109.48425,58.842773,-33.47534
1766812026074,-0.87353516,0.48291016,-0.08691406,0.0,17.8833,-1.4648438,0.0,0.0,0.0,113.302,58.326416,-29.141235
1766812026162,-0.93603516,0.46923828,-0.041503906,-7.6904297,-4.9438477,5.065918,0.0,0.0,0.0,113.302,58.326416,-29.141235
1766812026174,-0.93603516,0.46923828,-0.041503906,-7.6904297,-4.9438477,5.065918,0.0,0.0,0.0,113.76343,58.156128,-27.383423
1766812026262,-0.8833008,0.5625,-0.3935547,10.803223,-19.470215,5.554199,0.0,0.0,0.0,113.76343,58.156128,-27.383423
1766812026274,-0.8833008,0.5625,-0.3935547,10.803223,-19.470215,5.554199,0.0,0.0,0.0,108.19885,58.831787,-33.38745
1766812026362,-0.78222656,0.53564453,-0.28027344,-27.648926,-17.150879,-11.108398,0.0,0.0,0.0,108.19885,58.831787,-33.38745
1766812026373,-0.78222656,0.53564453,-0.28027344,-27.648926,-17.150879,-11.108398,0.0,0.0,0.0,108.82507,58.919678,-31.651611
1766812026462,-0.8520508,0.36621094,-0.099121094,-19.40918,40.771484,-20.263672,0.0,0.0,0.0,108.82507,58.919678,-31.651611
1766812026473,-0.8520508,0.36621094,-0.099121094,-19.40918,40.771484,-20.263672,0.0,0.0,0.0,109.747925,59.91394,-30.404663
1766812026561,-0.74658203,0.54296875,-0.29492188,-5.432129,0.18310547,-2.6855469,0.0,0.0,0.0,109.747925,59.91394,-30.404663
1766812026573,-0.74658203,0.54296875,-0.29492188,-5.432129,0.18310547,-2.6855469,0.0,0.0,0.0,109.39087,60.320435,-31.35498
1766812026661,-0.93359375,0.5209961,-0.017089844,2.2583008,5.6152344,0.36621094,0.0,0.0,0.0,109.39087,60.320435,-31.35498
1766812026673,-0.93359375,0.5209961,-0.017089844,2.2583008,5.6152344,0.36621094,0.0,0.0,0.0,112.37915,59.60083,-27.982178
1766812026761,-0.8925781,0.55029297,-0.084472656,2.9296875,-4.211426,-2.0141602,0.0,0.0,0.0,112.37915,59.60083,-27.982178
1766812026772,-0.8925781,0.55029297,-0.084472656,2.9296875,-4.211426,-2.0141602,0.0,0.0,0.0,111.884766,59.699707,-29.421387
1766812026860,-1.0639648,0.55615234,-0.06201172,-11.962891,-31.25,7.5683594,0.0,0.0,0.0,111.884766,59.699707,-29.421387
1766812026872,-1.0639648,0.55615234,-0.06201172,-11.962891,-31.25,7.5683594,0.0,0.0,0.0,108.20984,59.80957,-32.84912
1766812026960,-0.5205078,0.47558594,-0.23779297,-18.066406,7.873535,5.493164,0.0,0.0,0.0,108.20984,59.80957,-32.84912
1766812026972,-0.5205078,0.47558594,-0.23779297,-18.066406,7.873535,5.493164,0.0,0.0,0.0,101.447754,59.924927,-39.501343
1766812027060,-1.0146484,0.36376953,-0.13085938,8.361816,16.479492,2.380371,0.0,0.0,0.0,101.447754,59.924927,-39.501343
1766812027071,-1.0146484,0.36376953,-0.13085938,8.361816,16.479492,2.380371,0.0,0.0,0.0,103.94714,59.067993,-37.946777
1766812027159,-0.75439453,0.50146484,-0.23339844,6.4697266,14.6484375,2.746582,0.0,0.0,0.0,103.94714,59.067993,-37.946777
1766812027171,-0.75439453,0.50146484,-0.23339844,6.4697266,14.6484375,2.746582,0.0,0.0,0.0,106.28174,57.95288,-36.84265
1766812027259,-0.91308594,0.5083008,-0.103027344,-3.7231445,31.37207,-4.1503906,0.0,0.0,0.0,106.28174,57.95288,-36.84265
1766812027271,-0.91308594,0.5083008,-0.103027344,-3.7231445,31.37207,-4.1503906,0.0,0.0,0.0,111.51672,57.474976,-31.113281
1766812027359,-0.85302734,0.5234375,-0.15771484,-9.460449,35.27832,1.5258789,0.0,0.0,0.0,111.51672,57.474976,-31.113281
1766812027371,-0.85302734,0.5234375,-0.15771484,-9.460449,35.27832,1.5258789,0.0,0.0,0.0,115.059814,56.123657,-25.9552
1766812027459,-1.0102539,0.5336914,-0.028320312,-4.8217773,-11.108398,-2.0751953,0.0,0.0,0.0,115.059814,56.123657,-25.9552
1766812027470,-1.0102539,0.5336914,-0.028320312,-4.8217773,-11.108398,-2.0751953,0.0,0.0,0.0,116.36719,55.67871,-22.5
1766812027558,-0.75146484,0.47460938,-0.36035156,25.08545,-31.677246,6.8969727,0.0,0.0,0.0,116.36719,55.67871,-22.5
1766812027570,-0.75146484,0.47460938,-0.36035156,25.08545,-31.677246,6.8969727,0.0,0.0,0.0,111.28601,56.486206,-29.058838
1766812027658,-0.80322266,0.52246094,-0.34960938,-9.216309,3.8452148,-16.418457,0.0,0.0,0.0,111.28601,56.486206,-29.058838
1766812027670,-0.80322266,0.52246094,-0.34960938,-9.216309,3.8452148,-16.418457,0.0,0.0,0.0,111.82434,57.211304,-30.300293
1766812027758,-0.8857422,0.3564453,-0.26611328,-15.014648,33.325195,-16.906738,0.0,0.0,0.0,111.82434,57.211304,-30.300293
1766812027769,-0.8857422,0.3564453,-0.26611328,-15.014648,33.325195,-16.906738,0.0,0.0,0.0,114.37317,57.244263,-28.053589
1766812027858,-0.7919922,0.5449219,-0.21289062,-10.131836,1.3427734,-2.6245117,0.0,0.0,0.0,114.37317,57.244263,-28.053589
1766812027869,-0.7919922,0.5449219,-0.21289062,-10.131836,1.3427734,-2.6245117,0.0,0.0,0.0,117.59766,57.469482,-22.543945
1766812027957,-0.8417969,0.6020508,-0.2631836,-7.8125,37.902832,-12.634277,0.0,0.0,0.0,117.59766,57.469482,-22.543945
1766812027969,-0.8417969,0.6020508,-0.2631836,-7.8125,37.902832,-12.634277,0.0,0.0,0.0,118.916016,57.41455,-19.379883
1766812028057,-0.9370117,0.46484375,-0.22607422,-5.7373047,-15.441895,5.6152344,0.0,0.0,0.0,118.916016,57.41455,-19.379883
1766812028068,-0.9370117,0.46484375,-0.22607422,-5.7373047,-15.441895,5.6152344,0.0,0.0,0.0,120.38269,56.75537,-15.69397
1766812028157,-0.8881836,0.5751953,-0.08300781,-22.888184,-22.277832,7.9956055,0.0,0.0,0.0,120.38269,56.75537,-15.69397
1766812028168,-0.8881836,0.5751953,-0.08300781,-22.888184,-22.277832,7.9956055,0.0,0.0,0.0,115.83435,57.008057,-18.770142
1766812028256,-0.67285156,0.3095703,-0.31884766,-24.108887,-15.808105,6.7749023,0.0,0.0,0.0,115.83435,57.008057,-18.770142
1766812028268,-0.67285156,0.3095703,-0.31884766,-24.108887,-15.808105,6.7749023,0.0,0.0,0.0,108.15491,57.958374,-26.334229
1766812028356,-0.9501953,0.41308594,-0.2626953,27.22168,10.070801,18.249512,0.0,0.0,0.0,108.15491,57.958374,-26.334229
1766812028368,-0.9501953,0.41308594,-0.2626953,27.22168,10.070801,18.249512,0.0,0.0,0.0,109.819336,56.656494,-25.41687
1766812028456,-0.72802734,0.5419922,-0.2607422,29.296875,-30.212402,8.850098,0.0,0.0,0.0,109.819336,56.656494,-25.41687
1766812028467,-0.72802734,0.5419922,-0.2607422,29.296875,-30.212402,8.850098,0.0,0.0,0.0,109.30298,55.90393,-29.020386
1766812028556,-0.8935547,0.5263672,-0.1274414,14.526367,12.390137,0.9765625,0.0,0.0,0.0,109.30298,55.90393,-29.020386
1766812028567,-0.8935547,0.5263672,-0.1274414,14.526367,12.390137,0.9765625,0.0,0.0,0.0,112.247314,55.568848,-28.43811
1766812028655,-0.80371094,0.5878906,-0.16455078,9.216309,14.892578,8.911133,0.0,0.0,0.0,112.247314,55.568848,-28.43811
1766812028667,-0.80371094,0.5878906,-0.16455078,9.216309,14.892578,8.911133,0.0,0.0,0.0,113.60962,54.552612,-28.311768
1766812028755,-0.89990234,0.5932617,-0.08642578,-3.1738281,-2.4414062,-3.7841797,0.0,0.0,0.0,113.60962,54.552612,-28.311768
1766812028766,-0.89990234,0.5932617,-0.08642578,-3.1738281,-2.4414062,-3.7841797,0.0,0.0,0.0,114.43909,54.190063,-26.790161
1766812028855,-0.8881836,0.69091797,-0.27392578,-12.451172,-41.625977,-4.0893555,0.0,0.0,0.0,114.43909,54.190063,-26.790161
1766812028866,-0.8881836,0.69091797,-0.27392578,-12.451172,-41.625977,-4.0893555,0.0,0.0,0.0,109.64905,55.513916,-30.59143
1766812028954,-0.71533203,0.2241211,-0.2475586,12.939453,-7.3242188,-11.413574,0.0,0.0,0.0,109.64905,55.513916,-30.59143
1766812028966,-0.71533203,0.2241211,-0.2475586,12.939453,-7.3242188,-11.413574,0.0,0.0,0.0,107.9187,55.838013,-34.370728
1766812029054,-0.75341797,0.62158203,-0.29101562,-7.1411133,34.973145,-8.911133,0.0,0.0,0.0,107.9187,55.838013,-34.370728
1766812029066,-0.75341797,0.62158203,-0.29101562,-7.1411133,34.973145,-8.911133,0.0,0.0,0.0,109.58313,56.607056,-31.810913
1766812029154,-0.8461914,0.42822266,-0.13232422,2.5634766,-6.591797,-7.1411133,0.0,0.0,0.0,109.58313,56.607056,-31.810913
1766812029165,-0.8461914,0.42822266,-0.13232422,2.5634766,-6.591797,-7.1411133,0.0,0.0,0.0,112.38464,57.178345,-27.57019
1766812029254,-0.8178711,0.5620117,-0.15332031,-8.7890625,19.042969,-3.9672852,0.0,0.0,0.0,112.38464,57.178345,-27.57019
1766812029265,-0.8178711,0.5620117,-0.15332031,-8.7890625,19.042969,-3.9672852,0.0,0.0,0.0,113.48877,57.35962,-26.136475
1766812029353,-0.91503906,0.49023438,-0.18164062,7.019043,-1.7089844,8.178711,0.0,0.0,0.0,113.48877,57.35962,-26.136475
1766812029365,-0.91503906,0.49023438,-0.18164062,7.019043,-1.7089844,8.178711,0.0,0.0,0.0,114.30725,56.661987,-25.032349
1766812029453,-0.88183594,0.6166992,-0.060058594,-1.5258789,-27.770996,12.878418,0.0,0.0,0.0,114.30725,56.661987,-25.032349
1766812029464,-0.88183594,0.6166992,-0.060058594,-1.5258789,-27.770996,12.878418,0.0,0.0,0.0,111.84082,56.381836,-28.048096
1766812029553,-0.85009766,0.3798828,-0.32226562,2.4414062,-28.869629,1.7089844,0.0,0.0,0.0,111.84082,56.381836,-28.048096
1766812029564,-0.85009766,0.3798828,-0.32226562,2.4414062,-28.869629,1.7089844,0.0,0.0,0.0,105.2655,56.832275,-35.10132
1766812029652,-0.87158203,0.48388672,-0.2602539,24.108887,-20.568848,17.822266,0.0,0.0,0.0,105.2655,56.832275,-35.10132
1766812029664,-0.87158203,0.48388672,-0.2602539,24.108887,-20.568848,17.822266,0.0,0.0,0.0,106.17737,56.381836,-35.546265
1766812029752,-0.81689453,0.60058594,-0.15332031,19.53125,-6.8969727,3.3569336,0.0,0.0,0.0,106.17737,56.381836,-35.546265
1766812029764,-0.81689453,0.60058594,-0.15332031,19.53125,-6.8969727,3.3569336,0.0,0.0,0.0,107.16614,56.156616,-37.80945
1766812029852,-0.84277344,0.44189453,-0.14794922,7.446289,10.437012,0.48828125,0.0,0.0,0.0,107.16614,56.156616,-37.80945
1766812029863,-0.84277344,0.44189453,-0.14794922,7.446289,10.437012,0.48828125,0.0,0.0,0.0,108.59985,55.739136,-38.111572
1766812029952,-0.8442383,0.58154297,-0.1665039,4.699707,5.79834,-8.911133,0.0,0.0,0.0,108.59985,55.739136,-38.111572
1766812029964,-0.8442383,0.58154297,-0.1665039,4.699707,5.79834,-8.911133,0.0,0.0,0.0,109.95117,56.052246,-37.628174
1766812030051,-0.88427734,0.60839844,-0.03125,-12.6953125,10.131836,-4.4555664,0.0,0.0,0.0,109.95117,56.052246,-37.628174
1766812030063,-0.88427734,0.60839844,-0.03125,-12.6953125,10.131836,-4.4555664,0.0,0.0,0.0,111.6156,56.315918,-34.700317
1766812030151,-0.9916992,0.6118164,-0.1538086,-12.817383,-46.50879,-4.211426,0.0,0.0,0.0,111.6156,56.315918,-34.700317
1766812030163,-0.9916992,0.6118164,-0.1538086,-12.817383,-46.50879,-4.211426,0.0,0.0,0.0,106.88049,57.16736,-37.507324
1766812030251,-0.5722656,0.31054688,-0.25195312,7.2021484,-0.5493164,-5.2490234,0.0,0.0,0.0,106.88049,57.16736,-37.507324
1766812030262,-0.5722656,0.31054688,-0.25195312,7.2021484,-0.5493164,-5.2490234,0.0,0.0,0.0,103.60657,57.722168,-42.15454
1766812030350,-0.8725586,0.5683594,-0.15136719,-12.573242,26.184082,-12.512207,0.0,0.0,0.0,103.60657,57.722168,-42.15454
1766812030362,-0.8725586,0.5683594,-0.15136719,-12.573242,26.184082,-12.512207,0.0,0.0,0.0,106.677246,58.535156,-37.924805
1766812030450,-0.8408203,0.4008789,-0.12011719,-16.479492,26.855469,-20.141602,0.0,0.0,0.0,106.677246,58.535156,-37.924805
1766812030462,-0.8408203,0.4008789,-0.12011719,-16.479492,26.855469,-20.141602,0.0,0.0,0.0,110.55542,59.210815,-32.645874
1766812030550,-0.8461914,0.51660156,-0.15820312,-10.620117,22.644043,-10.192871,0.0,0.0,0.0,110.55542,59.210815,-32.645874
1766812030561,-0.8461914,0.51660156,-0.15820312,-10.620117,22.644043,-10.192871,0.0,0.0,0.0,113.24707,59.68872,-28.306274
1766812030650,-0.9111328,0.5253906,-0.1508789,1.4648438,5.432129,2.0141602,0.0,0.0,0.0,113.24707,59.68872,-28.306274
1766812030661,-0.9111328,0.5253906,-0.1508789,1.4648438,5.432129,2.0141602,0.0,0.0,0.0,115.3949,59.52942,-24.818115
1766812030749,-0.91503906,0.56933594,-0.044433594,5.065918,-23.68164,15.197754,0.0,0.0,0.0,115.3949,59.52942,-24.818115
1766812030761,-0.91503906,0.56933594,-0.044433594,5.065918,-23.68164,15.197754,0.0,0.0,0.0,113.274536,58.99109,-27.246094
1766812030849,-0.7758789,0.3256836,-0.2602539,-3.6010742,-6.225586,-1.2207031,0.0,0.0,0.0,113.274536,58.99109,-27.246094
1766812030861,-0.7758789,0.3256836,-0.2602539,-3.6010742,-6.225586,-1.2207031,0.0,0.0,0.0,108.358154,58.99109,-33.431396
1766812030949,-0.8876953,0.40820312,-0.37402344,38.69629,-19.53125,21.66748,0.0,0.0,0.0,108.358154,58.99109,-33.431396
1766812030960,-0.8876953,0.40820312,-0.37402344,38.69629,-19.53125,21.66748,0.0,0.0,0.0,108.91846,58.200073,-33.9917
1766812031049,-0.82666016,0.6069336,-0.18115234,24.780273,10.253906,10.864258,0.0,0.0,0.0,108.91846,58.200073,-33.9917
1766812031060,-0.82666016,0.6069336,-0.18115234,24.780273,10.253906,10.864258,0.0,0.0,0.0,112.80762,56.640015,-33.97522
1766812031148,-0.8798828,0.42236328,-0.2211914,12.451172,15.319824,-0.7324219,0.0,0.0,0.0,112.80762,56.640015,-33.97522
1766812031160,-0.8798828,0.42236328,-0.2211914,12.451172,15.319824,-0.7324219,0.0,0.0,0.0,115.565186,55.914917,-33.5083
1766812031248,-0.85546875,0.5292969,-0.20947266,-0.8544922,11.230469,-8.728027,0.0,0.0,0.0,115.565186,55.914917,-33.5083
1766812031259,-0.85546875,0.5292969,-0.20947266,-0.8544922,11.230469,-8.728027,0.0,0.0,0.0,117.84485,55.87097,-31.777954
1766812031348,-0.95654297,0.57177734,-0.10986328,-17.028809,-4.0283203,-7.9956055,0.0,0.0,0.0,117.84485,55.87097,-31.777954
1766812031359,-0.95654297,0.57177734,-0.10986328,-17.028809,-4.0283203,-7.9956055,0.0,0.0,0.0,118.59192,56.4093,-29.196167
1766812031447,-0.9165039,0.578125,-0.26464844,-15.991211,-50.476074,-5.79834,0.0,0.0,0.0,118.59192,56.4093,-29.196167
1766812031459,-0.9165039,0.578125,-0.26464844,-15.991211,-50.476074,-5.79834,0.0,0.0,0.0,112.44507,58.051758,-32.84912
1766812031547,-0.63183594,0.28710938,-0.26660156,-11.535645,-8.605957,-5.493164,0.0,0.0,0.0,112.44507,58.051758,-32.84912
1766812031559,-0.63183594,0.28710938,-0.26660156,-11.535645,-8.605957,-5.493164,0.0,0.0,0.0,106.083984,58.8208,-39.666138
1766812031647,-0.9067383,0.46435547,-0.17236328,-8.605957,32.287598,-12.390137,0.0,0.0,0.0,106.083984,58.8208,-39.666138
1766812031658,-0.9067383,0.46435547,-0.17236328,-8.605957,32.287598,-12.390137,0.0,0.0,0.0,108.09448,59.523926,-36.870117
1766812031747,-0.80322266,0.4584961,-0.15625,2.746582,-5.2490234,-3.540039,0.0,0.0,0.0,108.09448,59.523926,-36.870117
1766812031758,-0.80322266,0.4584961,-0.15625,2.746582,-5.2490234,-3.540039,0.0,0.0,0.0,110.599365,60.430298,-33.689575
1766812031846,-0.88134766,0.48828125,-0.1171875,-0.48828125,9.58252,-4.699707,0.0,0.0,0.0,110.599365,60.430298,-33.689575
1766812031859,-0.88134766,0.48828125,-0.1171875,-0.48828125,9.58252,-4.699707,0.0,0.0,0.0,112.099,60.650024,-31.920776
1766812031946,-0.9375,0.51953125,-0.115234375,14.770508,-0.5493164,4.699707,0.0,0.0,0.0,112.099,60.650024,-31.920776
1766812031958,-0.9375,0.51953125,-0.115234375,14.770508,-0.5493164,4.699707,0.0,0.0,0.0,113.48328,60.545654,-30.514526
1766812032046,-0.8911133,0.5678711,-0.060546875,11.474609,-24.597168,16.845703,0.0,0.0,0.0,113.48328,60.545654,-30.514526
1766812032057,-0.8911133,0.5678711,-0.060546875,11.474609,-24.597168,16.845703,0.0,0.0,0.0,111.483765,59.974365,-33.684082
1766812032145,-0.74365234,0.3100586,-0.2763672,0.0,-9.94873,10.253906,0.0,0.0,0.0,111.483765,59.974365,-33.684082
1766812032157,-0.74365234,0.3100586,-0.2763672,0.0,-9.94873,10.253906,0.0,0.0,0.0,105.36987,59.397583,-41.506348
1766812032245,-0.9604492,0.4140625,-0.28857422,31.433105,-25.08545,16.418457,0.0,0.0,0.0,105.36987,59.397583,-41.506348
1766812032257,-0.9604492,0.4140625,-0.28857422,31.433105,-25.08545,16.418457,0.0,0.0,0.0,106.70471,58.743896,-41.40747
1766812032345,-0.7993164,0.60009766,-0.12939453,20.751953,2.1972656,9.765625,0.0,0.0,0.0,106.70471,58.743896,-41.40747
1766812032356,-0.7993164,0.60009766,-0.12939453,20.751953,2.1972656,9.765625,0.0,0.0,0.0,108.08899,57.86499,-43.044434
1766812032444,-0.8852539,0.41210938,-0.15576172,7.6293945,13.244629,-1.3427734,0.0,0.0,0.0,108.08899,57.86499,-43.044434
1766812032456,-0.8852539,0.41210938,-0.15576172,7.6293945,13.244629,-1.3427734,0.0,0.0,0.0,110.527954,57.183838,-42.17102
1766812032544,-0.8671875,0.5390625,-0.1459961,1.7700195,4.211426,-4.5776367,0.0,0.0,0.0,110.527954,57.183838,-42.17102
1766812032556,-0.8671875,0.5390625,-0.1459961,1.7700195,4.211426,-4.5776367,0.0,0.0,0.0,112.247314,57.299194,-41.000977
1766812032644,-0.9160156,0.60009766,-0.07519531,-21.484375,15.380859,-5.859375,0.0,0.0,0.0,112.247314,57.299194,-41.000977
1766812032655,-0.9160156,0.60009766,-0.07519531,-21.484375,15.380859,-5.859375,0.0,0.0,0.0,113.04932,57.491455,-38.204956
1766812032744,-1.0234375,0.5600586,-0.1171875,-28.808594,-41.503906,-1.8310547,0.0,0.0,0.0,113.04932,57.491455,-38.204956
1766812032755,-1.0234375,0.5600586,-0.1171875,-28.808594,-41.503906,-1.8310547,0.0,0.0,0.0,107.41333,57.980347,-41.0614
1766812032843,-0.5986328,0.34375,-0.25195312,-7.019043,3.479004,-4.272461,0.0,0.0,0.0,107.41333,57.980347,-41.0614
1766812032855,-0.5986328,0.34375,-0.25195312,-7.019043,3.479004,-4.272461,0.0,0.0,0.0,103.12317,58.55713,-45.19226
1766812032943,-0.89208984,0.55566406,-0.19580078,-20.690918,24.597168,-14.587402,0.0,0.0,0.0,103.12317,58.55713,-45.19226
1766812032954,-0.89208984,0.55566406,-0.19580078,-20.690918,24.597168,-14.587402,0.0,0.0,0.0,104.7052,59.611816,-41.676636
1766812033043,-0.8496094,0.39697266,-0.110839844,-19.28711,14.587402,-18.005371,0.0,0.0,0.0,104.7052,59.611816,-41.676636
1766812033054,-0.8496094,0.39697266,-0.110839844,-19.28711,14.587402,-18.005371,0.0,0.0,0.0,107.51221,60.875244,-36.117554
1766812033142,-0.8598633,0.484375,-0.12060547,-11.169434,16.479492,-6.4697266,0.0,0.0,0.0,107.51221,60.875244,-36.117554
1766812033154,-0.8598633,0.484375,-0.12060547,-11.169434,16.479492,-6.4697266,0.0,0.0,0.0,109.330444,61.36963,-32.31079
1766812033242,-0.90185547,0.49121094,-0.10839844,2.8076172,3.540039,0.8544922,0.0,0.0,0.0,109.330444,61.36963,-32.31079
1766812033254,-0.90185547,0.49121094,-0.10839844,2.8076172,3.540039,0.8544922,0.0,0.0,0.0,111.07178,61.16089,-29.492798
1766812033342,-0.9423828,0.5595703,0.016113281,5.554199,-17.944336,13.916016,0.0,0.0,0.0,111.07178,61.16089,-29.492798
1766812033353,-0.9423828,0.5595703,0.016113281,5.554199,-17.944336,13.916016,0.0,0.0,0.0,109.34143,60.529175,-31.734009
1766812033442,-0.9980469,0.3881836,-0.2368164,18.981934,-35.7666,16.967773,0.0,0.0,0.0,109.34143,60.529175,-31.734009
1766812033453,-0.9980469,0.3881836,-0.2368164,18.981934,-35.7666,16.967773,0.0,0.0,0.0,103.238525,59.622803,-39.49585
1766812033541,-0.73095703,0.47705078,-0.3154297,13.85498,-3.9672852,9.82666,0.0,0.0,0.0,103.238525,59.622803,-39.49585
1766812033553,-0.73095703,0.47705078,-0.3154297,13.85498,-3.9672852,9.82666,0.0,0.0,0.0,103.29346,58.793335,-40.391235
1766812033641,-0.8925781,0.57373047,-0.024902344,5.3100586,18.981934,11.962891,0.0,0.0,0.0,103.29346,58.793335,-40.391235
1766812033653,-0.8925781,0.57373047,-0.024902344,5.3100586,18.981934,11.962891,0.0,0.0,0.0,106.52893,57.27722,-40.50659
1766812033741,-0.81884766,0.45166016,-0.18652344,13.122559,19.104004,2.2583008,0.0,0.0,0.0,106.52893,57.27722,-40.50659
1766812033752,-0.81884766,0.45166016,-0.18652344,13.122559,19.104004,2.2583008,0.0,0.0,0.0,107.874756,56.398315,-41.693115
1766812033840,-0.8745117,0.5180664,-0.1586914,23.010254,-7.019043,1.2207031,0.0,0.0,0.0,107.874756,56.398315,-41.693115
1766812033852,-0.8745117,0.5180664,-0.1586914,23.010254,-7.019043,1.2207031,0.0,0.0,0.0,110.41809,56.09619,-40.775757
1766812033940,-0.8588867,0.6464844,-0.059570312,-10.681152,28.076172,-8.117676,0.0,0.0,0.0,110.41809,56.09619,-40.775757
1766812033952,-0.8588867,0.6464844,-0.059570312,-10.681152,28.076172,-8.117676,0.0,0.0,0.0,113.4668,56.14563,-37.089844
1766812034040,-1.0786133,0.57666016,-0.14892578,-34.118652,-29.60205,-7.6293945,0.0,0.0,0.0,113.4668,56.14563,-37.089844
1766812034051,-1.0786133,0.57666016,-0.14892578,-34.118652,-29.60205,-7.6293945,0.0,0.0,0.0,109.9292,56.62903,-37.199707
1766812034140,-0.62060547,0.36767578,-0.28808594,-5.1879883,-13.793945,-3.6621094,0.0,0.0,0.0,109.9292,56.62903,-37.199707
1766812034151,-0.62060547,0.36767578,-0.28808594,-5.1879883,-13.793945,-3.6621094,0.0,0.0,0.0,104.65027,57.854004,-42.022705
1766812034239,-0.8105469,0.5083008,-0.3359375,2.8076172,26.428223,-11.108398,0.0,0.0,0.0,104.65027,57.854004,-42.022705
1766812034251,-0.8105469,0.5083008,-0.3359375,2.8076172,26.428223,-11.108398,0.0,0.0,0.0,105.12268,58.76587,-41.204224
1766812034339,-0.890625,0.40429688,-0.057128906,4.699707,-5.2490234,-20.568848,0.0,0.0,0.0,105.12268,58.76587,-41.204224
1766812034352,-0.890625,0.40429688,-0.057128906,4.699707,-5.2490234,-20.568848,0.0,0.0,0.0,111.96716,59.144897,-32.61841
1766812034439,-0.7871094,0.5522461,-0.18457031,-12.207031,30.88379,-10.986328,0.0,0.0,0.0,111.96716,59.144897,-32.61841
1766812034450,-0.7871094,0.5522461,-0.18457031,-12.207031,30.88379,-10.986328,0.0,0.0,0.0,112.197876,60.023804,-32.651367
1766812034539,-0.89160156,0.48242188,-0.13085938,-1.6479492,-1.5869141,-0.91552734,0.0,0.0,0.0,112.197876,60.023804,-32.651367
1766812034550,-0.89160156,0.48242188,-0.13085938,-1.6479492,-1.5869141,-0.91552734,0.0,0.0,0.0,113.966675,59.88098,-29.229126
1766812034638,-0.97216797,0.5732422,-0.033691406,1.8310547,-15.136719,10.864258,0.0,0.0,0.0,113.966675,59.88098,-29.229126
1766812034649,-0.97216797,0.5732422,-0.033691406,1.8310547,-15.136719,10.864258,0.0,0.0,0.0,112.3407,59.743652,-30.959473
1766812034738,-1.012207,0.4345703,-0.22998047,5.554199,-44.128418,15.014648,0.0,0.0,0.0,112.3407,59.743652,-30.959473
1766812034749,-1.012207,0.4345703,-0.22998047,5.554199,-44.128418,15.014648,0.0,0.0,0.0,105.39734,59.34265,-38.320312
1766812034838,-0.65185547,0.4506836,-0.27001953,5.859375,5.126953,5.2490234,0.0,0.0,0.0,105.39734,59.34265,-38.320312
1766812034849,-0.65185547,0.4506836,-0.27001953,5.859375,5.126953,5.2490234,0.0,0.0,0.0,104.2218,58.78784,-39.380493
1766812034937,-0.88623047,0.5102539,-0.14501953,12.634277,9.338379,13.48877,0.0,0.0,0.0,104.2218,58.78784,-39.380493
1766812034949,-0.88623047,0.5102539,-0.14501953,12.634277,9.338379,13.48877,0.0,0.0,0.0,106.155396,57.71118,-40.264893
1766812035037,-0.8095703,0.45898438,-0.16455078,14.526367,11.413574,4.9438477,0.0,0.0,0.0,106.155396,57.71118,-40.264893
1766812035048,-0.8095703,0.45898438,-0.16455078,14.526367,11.413574,4.9438477,0.0,0.0,0.0,107.62756,56.672974,-41.462402
1766812035137,-0.9033203,0.50439453,-0.14404297,13.549805,1.4648438,-0.5493164,0.0,0.0,0.0,107.62756,56.672974,-41.462402
1766812035148,-0.9033203,0.50439453,-0.14404297,13.549805,1.4648438,-0.5493164,0.0,0.0,0.0,110.181885,56.326904,-40.166016
1766812035236,-0.8696289,0.60839844,-0.06738281,-9.643555,22.521973,-4.8217773,0.0,0.0,0.0,110.181885,56.326904,-40.166016
1766812035248,-0.8696289,0.60839844,-0.06738281,-9.643555,22.521973,-4.8217773,0.0,0.0,0.0,112.439575,56.50818,-37.391968
1766812035336,-0.9838867,0.5913086,-0.057128906,-31.49414,-16.357422,-5.432129,0.0,0.0,0.0,112.439575,56.50818,-37.391968
1766812035348,-0.9838867,0.5913086,-0.057128906,-31.49414,-16.357422,-5.432129,0.0,0.0,0.0,110.03906,56.799316,-37.47986
1766812035436,-0.6801758,0.3798828,-0.29589844,4.211426,-8.911133,-2.0141602,0.0,0.0,0.0,110.03906,56.799316,-37.47986
1766812035447,-0.6801758,0.3798828,-0.29589844,4.211426,-8.911133,-2.0141602,0.0,0.0,0.0,103.87024,57.83203,-43.137817
1766812035536,-0.8095703,0.56933594,-0.26513672,-7.751465,13.549805,-11.169434,0.0,0.0,0.0,103.87024,57.83203,-43.137817
1766812035547,-0.8095703,0.56933594,-0.26513672,-7.751465,13.549805,-11.169434,0.0,0.0,0.0,104.210815,58.826294,-42.456665
1766812035635,-0.8911133,0.3852539,-0.13330078,-9.521484,8.7890625,-15.197754,0.0,0.0,0.0,104.210815,58.826294,-42.456665
1766812035647,-0.8911133,0.3852539,-0.13330078,-9.521484,8.7890625,-15.197754,0.0,0.0,0.0,107.31995,59.683228,-38.199463
1766812035735,-0.7763672,0.54345703,-0.13330078,-10.803223,19.16504,-5.92041,0.0,0.0,0.0,107.31995,59.683228,-38.199463
1766812035747,-0.7763672,0.54345703,-0.13330078,-10.803223,19.16504,-5.92041,0.0,0.0,0.0,109.54468,60.424805,-34.60144
1766812035835,-0.9291992,0.4580078,-0.13232422,1.953125,12.145996,-1.8920898,0.0,0.0,0.0,109.54468,60.424805,-34.60144
1766812035846,-0.9291992,0.4580078,-0.13232422,1.953125,12.145996,-1.8920898,0.0,0.0,0.0,112.19238,59.87549,-30.794678
1766812035934,-0.99316406,0.55371094,0.026367188,4.699707,-22.583008,12.145996,0.0,0.0,0.0,112.19238,59.87549,-30.794678
1766812035946,-0.99316406,0.55371094,0.026367188,4.699707,-22.583008,12.145996,0.0,0.0,0.0,111.97815,59.458008,-31.750488
1766812036034,-1.0693359,0.43017578,-0.2446289,16.235352,-41.381836,15.625,0.0,0.0,0.0,111.97815,59.458008,-31.750488
1766812036046,-1.0693359,0.43017578,-0.2446289,16.235352,-41.381836,15.625,0.0,0.0,0.0,105.37537,58.79883,-39.86389
1766812036134,-0.6064453,0.5185547,-0.28857422,6.286621,2.5634766,1.7700195,0.0,0.0,0.0,105.37537,58.79883,-39.86389
1766812036145,-0.6064453,0.5185547,-0.28857422,6.286621,2.5634766,1.7700195,0.0,0.0,0.0,103.85376,58.414307,-42.46216
1766812036233,-0.9189453,0.5449219,-0.0859375,4.3945312,30.700684,5.92041,0.0,0.0,0.0,103.85376,58.414307,-42.46216
1766812036245,-0.9189453,0.5449219,-0.0859375,4.3945312,30.700684,5.92041,0.0,0.0,0.0,107.28699,57.06848,-42.08313
1766812036333,-0.82177734,0.42333984,-0.20263672,19.16504,12.023926,3.90625,0.0,0.0,0.0,107.28699,57.06848,-42.08313
1766812036345,-0.82177734,0.42333984,-0.20263672,19.16504,12.023926,3.90625,0.0,0.0,0.0,109.18762,56.156616,-42.423706
1766812036433,-0.8696289,0.52783203,-0.16552734,18.493652,-6.7749023,1.2817383,0.0,0.0,0.0,109.18762,56.156616,-42.423706
1766812036445,-0.8696289,0.52783203,-0.16552734,18.493652,-6.7749023,1.2817383,0.0,0.0,0.0,112.29126,55.777588,-40.913086
1766812036533,-0.8754883,0.6269531,-0.103027344,-11.535645,23.80371,-6.652832,0.0,0.0,0.0,112.29126,55.777588,-40.913086
1766812036544,-0.8754883,0.6269531,-0.103027344,-11.535645,23.80371,-6.652832,0.0,0.0,0.0,114.142456,56.0083,-38.737793
1766812036632,-0.9711914,0.5678711,-0.08691406,-24.414062,-32.409668,-3.9672852,0.0,0.0,0.0,114.142456,56.0083,-38.737793
1766812036644,-0.9711914,0.5678711,-0.08691406,-24.414062,-32.409668,-3.9672852,0.0,0.0,0.0,111.42883,56.469727,-39.072876
1766812036732,-0.79296875,0.5361328,-0.32861328,-4.333496,-32.104492,3.90625,0.0,0.0,0.0,111.42883,56.469727,-39.072876
1766812036744,-0.79296875,0.5361328,-0.32861328,-4.333496,-32.104492,3.90625,0.0,0.0,0.0,103.8208,57.60132,-46.746826
1766812036832,-0.77978516,0.47460938,-0.34472656,-12.084961,6.7749023,-16.174316,0.0,0.0,0.0,103.8208,57.60132,-46.746826
1766812036843,-0.77978516,0.47460938,-0.34472656,-12.084961,6.7749023,-16.174316,0.0,0.0,0.0,102.87598,58.57361,-47.680664
1766812036931,-0.97753906,0.3828125,-0.03466797,-29.47998,28.076172,-26.123047,0.0,0.0,0.0,102.87598,58.57361,-47.680664
1766812036943,-0.97753906,0.3828125,-0.03466797,-29.47998,28.076172,-26.123047,0.0,0.0,0.0,109.643555,59.0625,-38.68286
1766812037031,-0.7290039,0.65625,-0.16552734,-26.672363,34.362793,-19.042969,0.0,0.0,0.0,109.643555,59.0625,-38.68286
1766812037043,-0.7290039,0.65625,-0.16552734,-26.672363,34.362793,-19.042969,0.0,0.0,0.0,110.69275,60.183105,-36.749268
1766812037131,-0.89404297,0.46728516,-0.1430664,-13.48877,18.920898,-7.385254,0.0,0.0,0.0,110.69275,60.183105,-36.749268
1766812037142,-0.89404297,0.46728516,-0.1430664,-13.48877,18.920898,-7.385254,0.0,0.0,0.0,113.15369,59.952393,-31.338501
1766812037231,-0.9765625,0.5317383,-0.044921875,4.5166016,-11.474609,5.3100586,0.0,0.0,0.0,113.15369,59.952393,-31.338501
1766812037242,-0.9765625,0.5317383,-0.044921875,4.5166016,-11.474609,5.3100586,0.0,0.0,0.0,113.323975,59.683228,-30.827637
1766812037330,-1.0571289,0.54541016,-0.1538086,-1.5258789,-37.29248,18.249512,0.0,0.0,0.0,113.323975,59.683228,-30.827637
1766812037342,-1.0571289,0.54541016,-0.1538086,-1.5258789,-37.29248,18.249512,0.0,0.0,0.0,106.935425,59.23828,-37.891846
1766812037430,-0.5517578,0.32666016,-0.23828125,-2.9907227,16.052246,3.9672852,0.0,0.0,0.0,106.935425,59.23828,-37.891846
1766812037441,-0.5517578,0.32666016,-0.23828125,-2.9907227,16.052246,3.9672852,0.0,0.0,0.0,104.48547,58.694458,-41.572266
1766812037530,-0.93066406,0.47021484,-0.2163086,31.799316,-6.225586,15.014648,0.0,0.0,0.0,104.48547,58.694458,-41.572266
1766812037541,-0.93066406,0.47021484,-0.2163086,31.799316,-6.225586,15.014648,0.0,0.0,0.0,106.44104,57.738647,-43.302612
1766812037630,-0.8208008,0.50146484,-0.13916016,26.550293,-3.7841797,12.878418,0.0,0.0,0.0,106.44104,57.738647,-43.302612
1766812037641,-0.8208008,0.50146484,-0.13916016,26.550293,-3.7841797,12.878418,0.0,0.0,0.0,108.52295,56.590576,-44.379272
1766812037729,-0.8989258,0.5029297,-0.14941406,14.526367,-2.8076172,1.3427734,0.0,0.0,0.0,108.52295,56.590576,-44.379272
1766812037741,-0.8989258,0.5029297,-0.14941406,14.526367,-2.8076172,1.3427734,0.0,0.0,0.0,110.19287,56.28296,-44.53308
1766812037829,-0.83154297,0.60253906,-0.13671875,-8.911133,19.226074,-5.9814453,0.0,0.0,0.0,110.19287,56.28296,-44.53308
1766812037840,-0.83154297,0.60253906,-0.13671875,-8.911133,19.226074,-5.9814453,0.0,0.0,0.0,111.763916,56.519165,-42.819214
1766812037929,-0.94873047,0.5234375,-0.0087890625,-21.484375,-16.052246,0.7324219,0.0,0.0,0.0,111.763916,56.519165,-42.819214
1766812037940,-0.94873047,0.5234375,-0.0087890625,-21.484375,-16.052246,0.7324219,0.0,0.0,0.0,109.819336,56.607056,-42.401733
1766812038028,-0.71435547,0.51708984,-0.31689453,7.019043,-17.8833,-1.3427734,0.0,0.0,0.0,109.819336,56.607056,-42.401733
1766812038040,-0.71435547,0.51708984,-0.31689453,7.019043,-17.8833,-1.3427734,0.0,0.0,0.0,103.31543,57.628784,-49.020996
1766812038128,-0.81884766,0.48486328,-0.34179688,-4.0893555,6.7749023,-12.329102,0.0,0.0,0.0,103.31543,57.628784,-49.020996
1766812038140,-0.81884766,0.48486328,-0.34179688,-4.0893555,6.7749023,-12.329102,0.0,0.0,0.0,104.16138,58.43628,-47.807007
1766812038228,-0.9243164,0.4453125,-0.1171875,-15.686035,16.845703,-20.385742,0.0,0.0,0.0,104.16138,58.43628,-47.807007
1766812038239,-0.9243164,0.4453125,-0.1171875,-15.686035,16.845703,-20.385742,0.0,0.0,0.0,108.36914,58.969116,-42.094116
1766812038327,-0.79248047,0.5449219,-0.11279297,-18.615723,15.441895,-8.483887,0.0,0.0,0.0,108.36914,58.969116,-42.094116
1766812038339,-0.79248047,0.5449219,-0.11279297,-18.615723,15.441895,-8.483887,0.0,0.0,0.0,109.973145,59.80957,-38.485107
1766812038427,-0.87841797,0.5107422,-0.12207031,-10.681152,14.892578,-3.479004,0.0,0.0,0.0,109.973145,59.80957,-38.485107
1766812038439,-0.87841797,0.5107422,-0.12207031,-10.681152,14.892578,-3.479004,0.0,0.0,0.0,110.51697,59.556885,-36.117554
1766812038527,-0.95654297,0.55322266,-0.019042969,-0.8544922,-3.6621094,8.117676,0.0,0.0,0.0,110.51697,59.556885,-36.117554
1766812038538,-0.95654297,0.55322266,-0.019042969,-0.8544922,-3.6621094,8.117676,0.0,0.0,0.0,110.45105,59.040527,-35.513306
1766812038627,-1.0820312,0.5073242,-0.17919922,-0.061035156,-35.03418,13.000488,0.0,0.0,0.0,110.45105,59.040527,-35.513306
1766812038638,-1.0820312,0.5073242,-0.17919922,-0.061035156,-35.03418,13.000488,0.0,0.0,0.0,105.49072,58.590088,-40.40222
1766812038726,-0.5966797,0.4189453,-0.27148438,6.5307617,2.6245117,3.8452148,0.0,0.0,0.0,105.49072,58.590088,-40.40222
1766812038738,-0.5966797,0.4189453,-0.27148438,6.5307617,2.6245117,3.8452148,0.0,0.0,0.0,103.45276,58.10669,-43.374023
1766812038826,-0.8857422,0.5395508,-0.12060547,12.939453,24.780273,7.751465,0.0,0.0,0.0,103.45276,58.10669,-43.374023
1766812038838,-0.8857422,0.5395508,-0.12060547,12.939453,24.780273,7.751465,0.0,0.0,0.0,107.66052,56.865234,-42.09961
1766812038926,-0.8300781,0.47265625,-0.203125,11.71875,10.375977,4.4555664,0.0,0.0,0.0,107.66052,56.865234,-42.09961
1766812038938,-0.8300781,0.47265625,-0.203125,11.71875,10.375977,4.4555664,0.0,0.0,0.0,109.923706,55.838013,-42.05017
1766812039025,-0.88916016,0.52441406,-0.15625,9.460449,4.9438477,-3.0517578,0.0,0.0,0.0,109.923706,55.838013,-42.05017
1766812039037,-0.88916016,0.52441406,-0.15625,9.460449,4.9438477,-3.0517578,0.0,0.0,0.0,112.576904,55.65674,-40.10559
1766812039125,-0.90185547,0.58496094,-0.09716797,-9.338379,15.991211,-7.1411133,0.0,0.0,0.0,112.576904,55.65674,-40.10559
1766812039137,-0.90185547,0.58496094,-0.09716797,-9.338379,15.991211,-7.1411133,0.0,0.0,0.0,114.33472,55.79956,-37.71057
1766812039225,-1.0786133,0.58496094,-0.1381836,-17.333984,-36.92627,-0.48828125,0.0,0.0,0.0,114.33472,55.79956,-37.71057
1766812039236,-1.0786133,0.58496094,-0.1381836,-17.333984,-36.92627,-0.48828125,0.0,0.0,0.0,110.78064,56.398315,-39.23767
1766812039325,-0.57128906,0.33496094,-0.23632812,15.991211,-21.118164,3.1738281,0.0,0.0,0.0,110.78064,56.398315,-39.23767
1766812039336,-0.57128906,0.33496094,-0.23632812,15.991211,-21.118164,3.1738281,0.0,0.0,0.0,105.37537,57.16736,-46.450195
1766812039424,-0.85253906,0.66064453,-0.359375,10.375977,11.047363,-4.1503906,0.0,0.0,0.0,105.37537,57.16736,-46.450195
1766812039436,-0.85253906,0.66064453,-0.359375,10.375977,11.047363,-4.1503906,0.0,0.0,0.0,104.902954,57.903442,-48.10913
1766812039524,-0.86328125,0.3930664,-0.08984375,0.30517578,-2.5024414,-18.859863,0.0,0.0,0.0,104.902954,57.903442,-48.10913
1766812039536,-0.86328125,0.3930664,-0.08984375,0.30517578,-2.5024414,-18.859863,0.0,0.0,0.0,109.714966,58.13965,-42.868652
1766812039624,-0.7836914,0.56884766,-0.1665039,-19.470215,24.963379,-6.8969727,0.0,0.0,0.0,109.714966,58.13965,-42.868652
1766812039635,-0.7836914,0.56884766,-0.1665039,-19.470215,24.963379,-6.8969727,0.0,0.0,0.0,110.61035,58.936157,-41.121826
1766812039724,-0.86279297,0.5258789,-0.11621094,-9.277344,13.61084,-7.019043,0.0,0.0,0.0,110.61035,58.936157,-41.121826
1766812039735,-0.86279297,0.5258789,-0.11621094,-9.277344,13.61084,-7.019043,0.0,0.0,0.0,111.676025,58.727417,-37.86438
1766812039823,-0.96728516,0.5625,-0.00390625,0.5493164,-10.192871,10.986328,0.0,0.0,0.0,111.676025,58.727417,-37.86438
1766812039835,-0.96728516,0.5625,-0.00390625,0.5493164,-10.192871,10.986328,0.0,0.0,0.0,111.44531,58.183594,-37.902832
1766812039923,-0.9316406,0.3881836,-0.26904297,12.145996,-47.912598,11.84082,0.0,0.0,0.0,111.44531,58.183594,-37.902832
1766812039934,-0.9316406,0.3881836,-0.26904297,12.145996,-47.912598,11.84082,0.0,0.0,0.0,105.12268,57.826538,-44.74182
1766812040023,-0.8071289,0.44726562,-0.32617188,31.860352,13.366699,13.122559,0.0,0.0,0.0,105.12268,57.826538,-44.74182
1766812040034,-0.8071289,0.44726562,-0.32617188,31.860352,13.366699,13.122559,0.0,0.0,0.0,104.32068,57.282715,-47.092896
1766812040123,-0.7260742,0.56591797,-0.23388672,26.97754,-20.446777,12.268066,0.0,0.0,0.0,104.32068,57.282715,-47.092896
1766812040134,-0.7260742,0.56591797,-0.23388672,26.97754,-20.446777,12.268066,0.0,0.0,0.0,106.1499,56.25,-49.14734
1766812040222,-0.88183594,0.45263672,-0.11279297,13.183594,4.8217773,2.9296875,0.0,0.0,0.0,106.1499,56.25,-49.14734
1766812040234,-0.88183594,0.45263672,-0.11279297,13.183594,4.8217773,2.9296875,0.0,0.0,0.0,108.29224,55.266724,-49.59778
1766812040322,-0.8496094,0.54052734,-0.14501953,3.90625,6.4697266,-3.112793,0.0,0.0,0.0,108.29224,55.266724,-49.59778
1766812040333,-0.8496094,0.54052734,-0.14501953,3.90625,6.4697266,-3.112793,0.0,0.0,0.0,109.70947,55.255737,-49.383545
1766812040421,-0.93896484,0.63964844,-0.023925781,-18.432617,1.0986328,-3.6010742,0.0,0.0,0.0,109.70947,55.255737,-49.383545
1766812040433,-0.93896484,0.63964844,-0.023925781,-18.432617,1.0986328,-3.6010742,0.0,0.0,0.0,109.56665,55.546875,-48.51013
1766812040521,-0.98583984,0.66064453,-0.16455078,-13.977051,-46.203613,-5.3100586,0.0,0.0,0.0,109.56665,55.546875,-48.51013
1766812040533,-0.98583984,0.66064453,-0.16455078,-13.977051,-46.203613,-5.3100586,0.0,0.0,0.0,104.52942,56.469727,-51.92688
1766812040621,-0.5727539,0.33642578,-0.2133789,-19.470215,4.9438477,-12.6953125,0.0,0.0,0.0,104.52942,56.469727,-51.92688
1766812040632,-0.5727539,0.33642578,-0.2133789,-19.470215,4.9438477,-12.6953125,0.0,0.0,0.0,100.546875,57.315674,-55.79956
1766812040721,-0.9223633,0.5,-0.13964844,-21.240234,28.015137,-18.249512,0.0,0.0,0.0,100.546875,57.315674,-55.79956
1766812040732,-0.9223633,0.5,-0.13964844,-21.240234,28.015137,-18.249512,0.0,0.0,0.0,101.953125,58.50769,-52.816772
1766812040820,-0.7939453,0.5234375,-0.07373047,-17.63916,22.460938,-19.836426,0.0,0.0,0.0,101.953125,58.50769,-52.816772
1766812040832,-0.7939453,0.5234375,-0.07373047,-17.63916,22.460938,-19.836426,0.0,0.0,0.0,105.37537,59.87549,-47.801514
1766812040920,-0.8457031,0.5107422,-0.08984375,-17.211914,20.385742,-6.958008,0.0,0.0,0.0,105.37537,59.87549,-47.801514
1766812040932,-0.8457031,0.5107422,-0.08984375,-17.211914,20.385742,-6.958008,0.0,0.0,0.0,107.3584,60.336914,-43.571777
1766812041020,-0.9140625,0.49560547,-0.08251953,-2.6245117,9.887695,0.9765625,0.0,0.0,0.0,107.3584,60.336914,-43.571777
1766812041032,-0.9140625,0.49560547,-0.08251953,-2.6245117,9.887695,0.9765625,0.0,0.0,0.0,109.05029,59.974365,-40.05066
1766812041119,-0.90234375,0.58496094,-0.01171875,11.047363,-14.526367,14.160156,0.0,0.0,0.0,109.05029,59.974365,-40.05066
1766812041132,-0.90234375,0.58496094,-0.01171875,11.047363,-14.526367,14.160156,0.0,0.0,0.0,108.0011,59.4635,-41.7041
1766812041219,-0.9199219,0.4111328,-0.27978516,5.859375,-22.827148,8.544922,0.0,0.0,0.0,108.0011,59.4635,-41.7041
1766812041231,-0.9199219,0.4111328,-0.27978516,5.859375,-22.827148,8.544922,0.0,0.0,0.0,103.68347,58.80432,-47.158813
1766812041319,-0.8696289,0.38183594,-0.21240234,28.076172,9.643555,15.136719,0.0,0.0,0.0,103.68347,58.80432,-47.158813
1766812041330,-0.8696289,0.38183594,-0.21240234,28.076172,9.643555,15.136719,0.0,0.0,0.0,105.96863,57.56836,-46.71936
1766812041419,-0.73583984,0.5932617,-0.22558594,40.527344,-11.84082,14.465332,0.0,0.0,0.0,105.96863,57.56836,-46.71936
1766812041431,-0.73583984,0.5932617,-0.22558594,40.527344,-11.84082,14.465332,0.0,0.0,0.0,107.385864,56.640015,-50.03174
1766812041518,-0.8774414,0.43164062,-0.1821289,24.230957,2.9907227,6.0424805,0.0,0.0,0.0,107.385864,56.640015,-50.03174
1766812041530,-0.8774414,0.43164062,-0.1821289,24.230957,2.9907227,6.0424805,0.0,0.0,0.0,110.98389,55.48645,-49.207764
1766812041618,-0.88183594,0.56591797,-0.14550781,16.540527,12.756348,1.5869141,0.0,0.0,0.0,110.98389,55.48645,-49.207764
1766812041630,-0.88183594,0.56591797,-0.14550781,16.540527,12.756348,1.5869141,0.0,0.0,0.0,114.25781,54.99756,-47.817993
1766812041718,-0.88427734,0.5854492,-0.16113281,-3.112793,4.0283203,-6.1035156,0.0,0.0,0.0,114.25781,54.99756,-47.817993
1766812041729,-0.88427734,0.5854492,-0.16113281,-3.112793,4.0283203,-6.1035156,0.0,0.0,0.0,115.510254,55.15686,-46.483154
1766812041818,-0.9609375,0.61083984,-0.21533203,-33.081055,-46.99707,-7.446289,0.0,0.0,0.0,115.510254,55.15686,-46.483154
1766812041829,-0.9609375,0.61083984,-0.21533203,-33.081055,-46.99707,-7.446289,0.0,0.0,0.0,110.11597,56.35437,-49.987793
1766812041917,-0.65234375,0.3486328,-0.27197266,-9.643555,19.958496,-10.253906,0.0,0.0,0.0,110.11597,56.35437,-49.987793
1766812041929,-0.65234375,0.3486328,-0.27197266,-9.643555,19.958496,-10.253906,0.0,0.0,0.0,108.308716,57.11792,-51.432495
1766812042017,-0.9013672,0.4658203,-0.25048828,11.169434,16.540527,-7.6293945,0.0,0.0,0.0,108.308716,57.11792,-51.432495
1766812042029,-0.9013672,0.4658203,-0.25048828,11.169434,16.540527,-7.6293945,0.0,0.0,0.0,111.61011,57.81006,-47.27417
1766812042117,-0.7475586,0.55908203,-0.18017578,-11.962891,12.145996,-15.380859,0.0,0.0,0.0,111.61011,57.81006,-47.27417
1766812042128,-0.7475586,0.55908203,-0.18017578,-11.962891,12.145996,-15.380859,0.0,0.0,0.0,115.22461,58.518677,-42.385254
1766812042216,-0.86816406,0.47705078,-0.21386719,-8.117676,19.042969,-4.5776367,0.0,0.0,0.0,115.22461,58.518677,-42.385254
1766812042228,-0.86816406,0.47705078,-0.21386719,-8.117676,19.042969,-4.5776367,0.0,0.0,0.0,117.0813,58.260498,-38.792725
1766812042316,-0.91845703,0.5756836,-0.19677734,-7.751465,6.8359375,1.3427734,0.0,0.0,0.0,117.0813,58.260498,-38.792725
1766812042327,-0.91845703,0.5756836,-0.19677734,-7.751465,6.8359375,1.3427734,0.0,0.0,0.0,118.67981,57.700195,-35.628662
1766812042416,-0.9057617,0.5605469,-0.08935547,-10.498047,-15.869141,4.1503906,0.0,0.0,0.0,118.67981,57.700195,-35.628662
1766812042427,-0.9057617,0.5605469,-0.08935547,-10.498047,-15.869141,4.1503906,0.0,0.0,0.0,116.54297,57.62329,-36.688843
1766812042515,-0.71191406,0.32421875,-0.31396484,-7.1411133,-11.657715,5.2490234,0.0,0.0,0.0,116.54297,57.62329,-36.688843
1766812042527,-0.71191406,0.32421875,-0.31396484,-7.1411133,-11.657715,5.2490234,0.0,0.0,0.0,110.83008,58.29895,-42.528076
1766812042615,-0.9121094,0.3720703,-0.2861328,27.404785,-4.638672,11.962891,0.0,0.0,0.0,110.83008,58.29895,-42.528076
1766812042627,-0.9121094,0.3720703,-0.2861328,27.404785,-4.638672,11.962891,0.0,0.0,0.0,112.159424,57.63977,-42.956543
1766812042715,-0.75439453,0.5708008,-0.23583984,17.63916,-3.0517578,9.765625,0.0,0.0,0.0,112.159424,57.63977,-42.956543
1766812042726,-0.75439453,0.5708008,-0.23583984,17.63916,-3.0517578,9.765625,0.0,0.0,0.0,113.00537,56.991577,-45.368042
1766812042815,-0.9121094,0.4736328,-0.22363281,5.6152344,11.352539,-0.12207031,0.0,0.0,0.0,113.00537,56.991577,-45.368042
1766812042826,-0.9121094,0.4736328,-0.22363281,5.6152344,11.352539,-0.12207031,0.0,0.0,0.0,114.49951,56.480713,-45.126343
1766812042914,-0.8486328,0.5410156,-0.18847656,-9.887695,9.338379,-7.1411133,0.0,0.0,0.0,114.49951,56.480713,-45.126343
1766812042926,-0.8486328,0.5410156,-0.18847656,-9.887695,9.338379,-7.1411133,0.0,0.0,0.0,116.10901,56.68396,-42.912598
1766812043014,-0.8798828,0.5727539,-0.087402344,-23.19336,-14.6484375,0.79345703,0.0,0.0,0.0,116.10901,56.68396,-42.912598
1766812043026,-0.8798828,0.5727539,-0.087402344,-23.19336,-14.6484375,0.79345703,0.0,0.0,0.0,114.3457,57.17285,-42.753296
1766812043114,-0.8120117,0.44189453,-0.3413086,4.0893555,-24.475098,9.216309,0.0,0.0,0.0,114.3457,57.17285,-42.753296
1766812043125,-0.8120117,0.44189453,-0.3413086,4.0893555,-24.475098,9.216309,0.0,0.0,0.0,107.68799,57.409058,-48.66394
1766812043213,-0.7104492,0.5239258,-0.29003906,-4.272461,-15.197754,-9.887695,0.0,0.0,0.0,107.68799,57.409058,-48.66394
1766812043225,-0.7104492,0.5239258,-0.29003906,-4.272461,-15.197754,-9.887695,0.0,0.0,0.0,105.946655,58.205566,-50.910645
1766812043313,-0.8701172,0.40429688,-0.04736328,-13.916016,10.7421875,-17.211914,0.0,0.0,0.0,105.946655,58.205566,-50.910645
1766812043325,-0.8701172,0.40429688,-0.04736328,-13.916016,10.7421875,-17.211914,0.0,0.0,0.0,107.18262,58.76587,-50.20752
1766812043413,-0.8408203,0.54785156,-0.13964844,-4.699707,4.0893555,-7.2021484,0.0,0.0,0.0,107.18262,58.76587,-50.20752
1766812043424,-0.8408203,0.54785156,-0.13964844,-4.699707,4.0893555,-7.2021484,0.0,0.0,0.0,106.2323,59.968872,-51.28418
1766812043513,-0.82666016,0.4873047,-0.053222656,3.2958984,-1.0986328,-1.0986328,0.0,0.0,0.0,106.2323,59.968872,-51.28418
1766812043525,-0.82666016,0.4873047,-0.053222656,3.2958984,-1.0986328,-1.0986328,0.0,0.0,0.0,106.951904,60.19409,-50.29541
1766812043612,-0.9189453,0.59277344,-0.0029296875,1.159668,-14.892578,2.380371,0.0,0.0,0.0,106.951904,60.19409,-50.29541
1766812043624,-0.9189453,0.59277344,-0.0029296875,1.159668,-14.892578,2.380371,0.0,0.0,0.0,105.62805,60.336914,-51.849976
1766812043712,-1.171875,0.50097656,-0.10205078,3.6010742,-37.53662,8.056641,0.0,0.0,0.0,105.62805,60.336914,-51.849976
1766812043724,-1.171875,0.50097656,-0.10205078,3.6010742,-37.53662,8.056641,0.0,0.0,0.0,100.88745,59.9469,-56.398315
1766812043812,-0.61328125,0.5385742,-0.16064453,5.859375,13.305664,17.63916,0.0,0.0,0.0,100.88745,59.9469,-56.398315
1766812043823,-0.61328125,0.5385742,-0.16064453,5.859375,13.305664,17.63916,0.0,0.0,0.0,99.73938,59.227295,-57.694702
1766812043911,-0.90527344,0.42333984,-0.17480469,25.024414,16.296387,18.981934,0.0,0.0,0.0,99.73938,59.227295,-57.694702
1766812043923,-0.90527344,0.42333984,-0.17480469,25.024414,16.296387,18.981934,0.0,0.0,0.0,101.37634,57.34314,-59.188843
1766812044011,-0.8144531,0.44677734,-0.15332031,24.658203,-2.9907227,22.338867,0.0,0.0,0.0,101.37634,57.34314,-59.188843
1766812044023,-0.8144531,0.44677734,-0.15332031,24.658203,-2.9907227,22.338867,0.0,0.0,0.0,104.12842,55.272217,-58.754883
1766812044111,-0.8383789,0.5600586,-0.104003906,22.338867,4.3945312,4.0893555,0.0,0.0,0.0,104.12842,55.272217,-58.754883
1766812044122,-0.8383789,0.5600586,-0.104003906,22.338867,4.3945312,4.0893555,0.0,0.0,0.0,106.726685,54.244995,-58.134155
1766812044211,-0.87841797,0.6503906,-0.104003906,3.6621094,5.1879883,2.8686523,0.0,0.0,0.0,106.726685,54.244995,-58.134155
1766812044222,-0.87841797,0.6503906,-0.104003906,3.6621094,5.1879883,2.8686523,0.0,0.0,0.0,108.66028,53.88794,-57.39807
1766812044310,-0.953125,0.63183594,-0.068359375,-12.390137,-21.057129,3.6010742,0.0,0.0,0.0,108.66028,53.88794,-57.39807
1766812044322,-0.953125,0.63183594,-0.068359375,-12.390137,-21.057129,3.6010742,0.0,0.0,0.0,107.06726,53.585815,-58.441772
1766812044410,-0.65722656,0.42578125,-0.25585938,6.958008,-9.155273,-2.1972656,0.0,0.0,0.0,107.06726,53.585815,-58.441772
1766812044422,-0.65722656,0.42578125,-0.25585938,6.958008,-9.155273,-2.1972656,0.0,0.0,0.0,102.420044,54.04724,-63.81958
1766812044510,-0.85009766,0.47705078,-0.21142578,9.399414,-14.465332,-9.887695,0.0,0.0,0.0,102.420044,54.04724,-63.81958
1766812044521,-0.85009766,0.47705078,-0.21142578,9.399414,-14.465332,-9.887695,0.0,0.0,0.0,102.804565,55.288696,-63.99536
1766812044609,-0.7832031,0.5385742,-0.07714844,10.803223,-1.3427734,-5.432129,0.0,0.0,0.0,102.804565,55.288696,-63.99536
1766812044621,-0.7832031,0.5385742,-0.07714844,10.803223,-1.3427734,-5.432129,0.0,0.0,0.0,104.53491,56.4917,-63.934937
1766812044709,-0.8203125,0.5776367,-0.13671875,13.916016,11.474609,8.056641,0.0,0.0,0.0,104.53491,56.4917,-63.934937
1766812044721,-0.8203125,0.5776367,-0.13671875,13.916016,11.474609,8.056641,0.0,0.0,0.0,105.69946,56.101685,-64.48425
1766812044809,-0.8105469,0.609375,-0.099121094,8.850098,4.0283203,14.404297,0.0,0.0,0.0,105.69946,56.101685,-64.48425
1766812044820,-0.8105469,0.609375,-0.099121094,8.850098,4.0283203,14.404297,0.0,0.0,0.0,107.58362,54.86023,-63.451538
1766812044908,-0.82421875,0.6274414,-0.10253906,20.568848,-13.061523,18.005371,0.0,0.0,0.0,107.58362,54.86023,-63.451538
1766812044920,-0.82421875,0.6274414,-0.10253906,20.568848,-13.061523,18.005371,0.0,0.0,0.0,107.49573,53.426514,-64.868774
1766812045008,-1.0776367,0.69189453,-0.19384766,11.901855,-38.33008,15.258789,0.0,0.0,0.0,107.49573,53.426514,-64.868774
1766812045020,-1.0776367,0.69189453,-0.19384766,11.901855,-38.33008,15.258789,0.0,0.0,0.0,105.28198,52.454224,-68.9447
1766812045108,-0.6347656,0.44677734,-0.19482422,19.958496,10.314941,22.888184,0.0,0.0,0.0,105.28198,52.454224,-68.9447
1766812045119,-0.6347656,0.44677734,-0.19482422,19.958496,10.314941,22.888184,0.0,0.0,0.0,105.128174,51.811523,-69.68628
1766812045208,-0.67333984,0.8730469,-0.39453125,5.065918,1.4038086,-15.258789,0.0,0.0,0.0,105.128174,51.811523,-69.68628
1766812045219,-0.67333984,0.8730469,-0.39453125,5.065918,1.4038086,-15.258789,0.0,0.0,0.0,105.81482,52.234497,-71.916504
1766812045307,-0.7626953,0.5004883,-0.08984375,-13.244629,15.258789,-1.0375977,0.0,0.0,0.0,105.81482,52.234497,-71.916504
1766812045319,-0.7626953,0.5004883,-0.08984375,-13.244629,15.258789,-1.0375977,0.0,0.0,0.0,107.84729,51.514893,-69.521484
1766812045407,-0.7807617,0.64697266,-0.234375,-18.676758,22.705078,-14.587402,0.0,0.0,0.0,107.84729,51.514893,-69.521484
1766812045419,-0.7807617,0.64697266,-0.234375,-18.676758,22.705078,-14.587402,0.0,0.0,0.0,108.479004,51.970825,-67.44507
1766812045507,-0.8544922,0.5810547,-0.09472656,-28.076172,32.592773,-19.89746,0.0,0.0,0.0,108.479004,51.970825,-67.44507
1766812045518,-0.8544922,0.5810547,-0.09472656,-28.076172,32.592773,-19.89746,0.0,0.0,0.0,110.43457,52.492676,-61.6333
1766812045607,-0.91503906,0.5620117,-0.03173828,-26.794434,4.0283203,-14.221191,0.0,0.0,0.0,110.43457,52.492676,-61.6333
1766812045618,-0.91503906,0.5620117,-0.03173828,-26.794434,4.0283203,-14.221191,0.0,0.0,0.0,109.9292,53.57483,-58.255005
1766812045706,-0.74365234,0.49267578,-0.3618164,-4.5166016,-20.019531,-6.8969727,0.0,0.0,0.0,109.9292,53.57483,-58.255005
1766812045718,-0.74365234,0.49267578,-0.3618164,-4.5166016,-20.019531,-6.8969727,0.0,0.0,0.0,104.30969,55.39856,-62.336426
1766812045806,-0.7988281,0.4345703,-0.22021484,-3.2348633,16.174316,-23.864746,0.0,0.0,0.0,104.30969,55.39856,-62.336426
1766812045817,-0.7988281,0.4345703,-0.22021484,-3.2348633,16.174316,-23.864746,0.0,0.0,0.0,106.517944,57.024536,-60.12268
1766812045906,-0.8696289,0.41210938,-0.092285156,5.79834,9.033203,-6.591797,0.0,0.0,0.0,106.517944,57.024536,-60.12268
1766812045919,-0.8696289,0.41210938,-0.092285156,5.79834,9.033203,-6.591797,0.0,0.0,0.0,108.984375,57.86499,-59.106445
1766812046005,-0.76464844,0.63378906,-0.19873047,-6.1035156,10.559082,2.746582,0.0,0.0,0.0,108.984375,57.86499,-59.106445
1766812046017,-0.76464844,0.63378906,-0.19873047,-6.1035156,10.559082,2.746582,0.0,0.0,0.0,108.80859,57.93091,-59.35913
1766812046105,-0.8364258,0.4741211,-0.10058594,1.7700195,11.901855,1.8310547,0.0,0.0,0.0,108.80859,57.93091,-59.35913
1766812046116,-0.8364258,0.4741211,-0.10058594,1.7700195,11.901855,1.8310547,0.0,0.0,0.0,111.10474,56.854248,-55.827026
1766812046205,-0.8364258,0.6772461,-0.13867188,2.9907227,-7.6904297,4.0893555,0.0,0.0,0.0,111.10474,56.854248,-55.827026
1766812046216,-0.8364258,0.6772461,-0.13867188,2.9907227,-7.6904297,4.0893555,0.0,0.0,0.0,110.791626,56.590576,-56.502686
1766812046304,-1.1474609,0.6669922,-0.18652344,-18.859863,-33.935547,2.0751953,0.0,0.0,0.0,110.791626,56.590576,-56.502686
1766812046316,-1.1474609,0.6669922,-0.18652344,-18.859863,-33.935547,2.0751953,0.0,0.0,0.0,106.94641,56.61255,-59.485474
1766812046404,-0.60253906,0.5361328,-0.35107422,-17.333984,25.32959,-2.380371,0.0,0.0,0.0,106.94641,56.61255,-59.485474
1766812046416,-0.60253906,0.5361328,-0.35107422,-17.333984,25.32959,-2.380371,0.0,0.0,0.0,104.11743,56.810303,-60.95215
1766812046504,-0.87353516,0.43603516,-0.11328125,-7.2021484,4.760742,8.972168,0.0,0.0,0.0,104.11743,56.810303,-60.95215
1766812046515,-0.87353516,0.43603516,-0.11328125,-7.2021484,4.760742,8.972168,0.0,0.0,0.0,106.94092,55.854492,-58.03528
1766812046604,-0.84521484,0.38916016,-0.12695312,2.380371,5.554199,-5.493164,0.0,0.0,0.0,106.94092,55.854492,-58.03528
1766812046615,-0.84521484,0.38916016,-0.12695312,2.380371,5.554199,-5.493164,0.0,0.0,0.0,107.06726,55.217285,-58.78784
1766812046703,-0.8901367,0.57470703,-0.09765625,-3.2958984,13.85498,-1.0375977,0.0,0.0,0.0,107.06726,55.217285,-58.78784
1766812046715,-0.8901367,0.57470703,-0.09765625,-3.2958984,13.85498,-1.0375977,0.0,0.0,0.0,108.13843,55.442505,-57.321167
1766812046803,-0.8544922,0.5571289,-0.037597656,-4.9438477,-4.760742,-2.1972656,0.0,0.0,0.0,108.13843,55.442505,-57.321167
1766812046815,-0.8544922,0.5571289,-0.037597656,-4.9438477,-4.760742,-2.1972656,0.0,0.0,0.0,108.2428,55.67871,-56.151123
1766812046903,-0.95751953,0.609375,0.03173828,-11.230469,-27.770996,17.822266,0.0,0.0,0.0,108.2428,55.67871,-56.151123
1766812046914,-0.95751953,0.609375,0.03173828,-11.230469,-27.770996,17.822266,0.0,0.0,0.0,104.81506,55.32715,-58.754883
1766812047003,-0.66503906,0.34716797,-0.30322266,3.8452148,1.2207031,-4.699707,0.0,0.0,0.0,104.81506,55.32715,-58.754883
1766812047014,-0.66503906,0.34716797,-0.30322266,3.8452148,1.2207031,-4.699707,0.0,0.0,0.0,99.124146,55.10193,-65.198364
1766812047102,-0.89746094,0.59472656,-0.091308594,3.9672852,-1.7700195,-8.911133,0.0,0.0,0.0,99.124146,55.10193,-65.198364
1766812047114,-0.89746094,0.59472656,-0.091308594,3.9672852,-1.7700195,-8.911133,0.0,0.0,0.0,101.760864,56.486206,-62.314453
1766812047202,-0.71240234,0.64208984,-0.09423828,-0.48828125,2.0751953,-8.666992,0.0,0.0,0.0,101.760864,56.486206,-62.314453
1766812047213,-0.71240234,0.64208984,-0.09423828,-0.48828125,2.0751953,-8.666992,0.0,0.0,0.0,101.39282,57.315674,-63.38562
1766812047302,-0.828125,0.4321289,-0.078125,18.798828,1.4038086,1.4648438,0.0,0.0,0.0,101.39282,57.315674,-63.38562
1766812047313,-0.828125,0.4321289,-0.078125,18.798828,1.4038086,1.4648438,0.0,0.0,0.0,102.474976,57.332153,-62.913208
1766812047401,-0.8198242,0.625,-0.064453125,20.324707,1.3427734,5.859375,0.0,0.0,0.0,102.474976,57.332153,-62.913208
1766812047413,-0.8198242,0.625,-0.064453125,20.324707,1.3427734,5.859375,0.0,0.0,0.0,104.23828,57.200317,-63.33618
1766812047501,-0.79345703,0.66015625,-0.043945312,1.7700195,-4.8828125,21.606445,0.0,0.0,0.0,104.23828,57.200317,-63.33618
1766812047513,-0.79345703,0.66015625,-0.043945312,1.7700195,-4.8828125,21.606445,0.0,0.0,0.0,103.375854,56.260986,-65.05005
1766812047601,-0.5419922,0.60498047,-0.22509766,6.8359375,40.222168,12.939453,0.0,0.0,0.0,103.375854,56.260986,-65.05005
1766812047612,-0.5419922,0.60498047,-0.22509766,6.8359375,40.222168,12.939453,0.0,0.0,0.0,104.04602,54.223022,-64.97864
1766812047700,-0.92871094,0.4555664,-0.26953125,18.188477,-4.699707,15.563965,0.0,0.0,0.0,104.04602,54.223022,-64.97864
1766812047712,-0.92871094,0.4555664,-0.26953125,18.188477,-4.699707,15.563965,0.0,0.0,0.0,106.97388,51.87195,-64.17114
1766812047800,-0.80908203,0.50634766,-0.21240234,15.991211,3.2348633,7.2021484,0.0,0.0,0.0,106.97388,51.87195,-64.17114
1766812047812,-0.80908203,0.50634766,-0.21240234,15.991211,3.2348633,7.2021484,0.0,0.0,0.0,108.73169,50.718384,-64.55017
1766812047900,-0.7944336,0.63671875,-0.15429688,0.8544922,9.82666,2.4414062,0.0,0.0,0.0,108.73169,50.718384,-64.55017
1766812047913,-0.7944336,0.63671875,-0.15429688,0.8544922,9.82666,2.4414062,0.0,0.0,0.0,110.29175,50.267944,-63.380127
1766812048000,-0.7631836,0.68408203,-0.099121094,-25.817871,11.779785,12.145996,0.0,0.0,0.0,110.29175,50.267944,-63.380127
1766812048011,-0.7631836,0.68408203,-0.099121094,-25.817871,11.779785,12.145996,0.0,0.0,0.0,109.89075,49.449463,-62.056274
1766812048099,-0.9946289,0.79296875,-0.27929688,-11.047363,-30.700684,16.723633,0.0,0.0,0.0,109.89075,49.449463,-62.056274
1766812048111,-0.9946289,0.79296875,-0.27929688,-11.047363,-30.700684,16.723633,0.0,0.0,0.0,105.20508,47.982788,-63.45703
1766812048199,-0.6459961,0.55859375,-0.19726562,-13.671875,5.3710938,-5.1879883,0.0,0.0,0.0,105.20508,47.982788,-63.45703
1766812048210,-0.6459961,0.55859375,-0.19726562,-13.671875,5.3710938,-5.1879883,0.0,0.0,0.0,104.27673,47.62024,-63.81958
1766812048299,-0.7421875,0.57666016,-0.17285156,13.061523,4.0283203,-15.625,0.0,0.0,0.0,104.27673,47.62024,-63.81958
1766812048310,-0.7421875,0.57666016,-0.17285156,13.061523,4.0283203,-15.625,0.0,0.0,0.0,105.46326,48.51013,-63.55591
1766812048398,-0.6542969,0.6748047,-0.24609375,7.2021484,2.6245117,-8.300781,0.0,0.0,0.0,105.46326,48.51013,-63.55591
1766812048410,-0.6542969,0.6748047,-0.24609375,7.2021484,2.6245117,-8.300781,0.0,0.0,0.0,106.88049,49.905396,-63.511963
1766812048498,-0.71972656,0.62402344,-0.12646484,10.253906,-3.540039,1.4038086,0.0,0.0,0.0,106.88049,49.905396,-63.511963
1766812048510,-0.71972656,0.62402344,-0.12646484,10.253906,-3.540039,1.4038086,0.0,0.0,0.0,108.253784,49.855957,-62.84729
1766812048598,-0.72753906,0.72558594,-0.13378906,2.9296875,-9.82666,10.986328,0.0,0.0,0.0,108.253784,49.855957,-62.84729
1766812048610,-0.72753906,0.72558594,-0.13378906,2.9296875,-9.82666,10.986328,0.0,0.0,0.0,107.67151,49.416504,-64.281006
1766812048697,-1.1201172,0.85595703,-0.14746094,-16.601562,-26.123047,30.029297,0.0,0.0,0.0,107.67151,49.416504,-64.281006
1766812048709,-1.1201172,0.85595703,-0.14746094,-16.601562,-26.123047,30.029297,0.0,0.0,0.0,105.36987,47.93335,-66.346436
1766812048797,-0.5439453,0.6074219,-0.32958984,-3.2348633,22.705078,20.385742,0.0,0.0,0.0,105.36987,47.93335,-66.346436
1766812048809,-0.5439453,0.6074219,-0.32958984,-3.2348633,22.705078,20.385742,0.0,0.0,0.0,103.7439,46.40625,-67.99988
1766812048897,-0.6220703,0.7285156,-0.25097656,14.282227,-6.3476562,0.6713867,0.0,0.0,0.0,103.7439,46.40625,-67.99988
1766812048908,-0.6220703,0.7285156,-0.25097656,14.282227,-6.3476562,0.6713867,0.0,0.0,0.0,105.35339,44.708862,-68.25806
1766812048997,-0.70947266,0.64941406,-0.17480469,7.385254,5.79834,-5.79834,0.0,0.0,0.0,105.35339,44.708862,-68.25806
1766812049008,-0.70947266,0.64941406,-0.17480469,7.385254,5.79834,-5.79834,0.0,0.0,0.0,107.023315,44.41223,-67.60437
1766812049096,-0.7817383,0.6801758,-0.06982422,-2.0141602,10.375977,-7.507324,0.0,0.0,0.0,107.023315,44.41223,-67.60437
1766812049108,-0.7817383,0.6801758,-0.06982422,-2.0141602,10.375977,-7.507324,0.0,0.0,0.0,108.49548,44.79126,-66.02783
1766812049196,-0.7426758,0.69970703,-0.09472656,-13.061523,1.7089844,-5.004883,0.0,0.0,0.0,108.49548,44.79126,-66.02783
1766812049207,-0.7426758,0.69970703,-0.09472656,-13.061523,1.7089844,-5.004883,0.0,0.0,0.0,108.07251,45.516357,-65.44006
1766812049296,-0.7817383,0.6855469,-0.33984375,10.253906,-24.658203,-7.873535,0.0,0.0,0.0,108.07251,45.516357,-65.44006
1766812049307,-0.7817383,0.6855469,-0.33984375,10.253906,-24.658203,-7.873535,0.0,0.0,0.0,105.12268,46.175537,-67.214355
1766812049395,-0.765625,0.60498047,-0.27197266,-11.657715,-25.024414,-20.874023,0.0,0.0,0.0,105.12268,46.175537,-67.214355
1766812049407,-0.765625,0.60498047,-0.27197266,-11.657715,-25.024414,-20.874023,0.0,0.0,0.0,104.56238,48.103638,-67.318726
1766812049495,-0.78515625,0.6328125,-0.1899414,-12.023926,16.052246,-30.88379,0.0,0.0,0.0,104.56238,48.103638,-67.318726
1766812049507,-0.78515625,0.6328125,-0.1899414,-12.023926,16.052246,-30.88379,0.0,0.0,0.0,104.4635,50.64148,-67.18689
1766812049595,-0.6972656,0.58984375,-0.18603516,-14.343262,10.070801,-17.822266,0.0,0.0,0.0,104.4635,50.64148,-67.18689
1766812049606,-0.6972656,0.58984375,-0.18603516,-14.343262,10.070801,-17.822266,0.0,0.0,0.0,104.50195,52.580566,-65.7312
1766812049695,-0.7763672,0.5673828,-0.099121094,-4.1503906,3.9672852,-13.793945,0.0,0.0,0.0,104.50195,52.580566,-65.7312
1766812049706,-0.7763672,0.5673828,-0.099121094,-4.1503906,3.9672852,-13.793945,0.0,0.0,0.0,105.34241,53.64624,-63.66028
1766812049794,-0.80908203,0.6455078,-0.076660156,-2.5024414,-1.3427734,-10.314941,0.0,0.0,0.0,105.34241,53.64624,-63.66028
1766812049806,-0.80908203,0.6455078,-0.076660156,-2.5024414,-1.3427734,-10.314941,0.0,0.0,0.0,105.14465,54.695435,-63.35266
1766812049894,-0.8149414,0.72998047,-0.024902344,-21.118164,4.3945312,1.0375977,0.0,0.0,0.0,105.14465,54.695435,-63.35266
1766812049905,-0.8149414,0.72998047,-0.024902344,-21.118164,4.3945312,1.0375977,0.0,0.0,0.0,103.69995,54.937134,-63.182373
1766812049994,-0.5698242,0.5292969,-0.20361328,-16.052246,31.860352,-7.507324,0.0,0.0,0.0,103.69995,54.937134,-63.182373
1766812050005,-0.5698242,0.5292969,-0.20361328,-16.052246,31.860352,-7.507324,0.0,0.0,0.0,102.22229,54.783325,-62.88025
1766812050093,-0.9584961,0.43847656,-0.13867188,17.944336,-9.58252,9.94873,0.0,0.0,0.0,102.22229,54.783325,-62.88025
1766812050105,-0.9584961,0.43847656,-0.13867188,17.944336,-9.58252,9.94873,0.0,0.0,0.0,104.52942,53.503418,-62.545166
1766812050193,-0.7207031,0.49072266,-0.21777344,10.986328,13.671875,-1.8310547,0.0,0.0,0.0,104.52942,53.503418,-62.545166
1766812050205,-0.7207031,0.49072266,-0.21777344,10.986328,13.671875,-1.8310547,0.0,0.0,0.0,105.9906,53.569336,-62.737427
1766812050293,-0.90625,0.5991211,-0.07714844,9.338379,0.0,-10.925293,0.0,0.0,0.0,105.9906,53.569336,-62.737427
1766812050304,-0.90625,0.5991211,-0.07714844,9.338379,0.0,-10.925293,0.0,0.0,0.0,108.90747,54.437256,-60.161133
1766812050393,-0.7495117,0.55322266,-0.06689453,-4.638672,18.859863,-8.056641,0.0,0.0,0.0,108.90747,54.437256,-60.161133
1766812050404,-0.7495117,0.55322266,-0.06689453,-4.638672,18.859863,-8.056641,0.0,0.0,0.0,111.31897,55.354614,-56.914673
1766812050492,-0.99902344,0.5361328,-0.018554688,-22.277832,-10.375977,9.094238,0.0,0.0,0.0,111.31897,55.354614,-56.914673
1766812050504,-0.99902344,0.5361328,-0.018554688,-22.277832,-10.375977,9.094238,0.0,0.0,0.0,109.84131,54.887695,-55.810547
1766812050592,-0.6489258,0.4267578,-0.27929688,8.544922,8.239746,-7.1411133,0.0,0.0,0.0,109.84131,54.887695,-55.810547
1766812050603,-0.6489258,0.4267578,-0.27929688,8.544922,8.239746,-7.1411133,0.0,0.0,0.0,106.364136,55.76111,-60.073242
1766812050692,-0.81640625,0.4609375,-0.33642578,-4.5166016,-9.643555,-20.324707,0.0,0.0,0.0,106.364136,55.76111,-60.073242
1766812050703,-0.81640625,0.4609375,-0.33642578,-4.5166016,-9.643555,-20.324707,0.0,0.0,0.0,107.36389,57.35962,-58.128662
1766812050792,-0.7807617,0.56396484,-0.110839844,-18.859863,33.63037,-23.254395,0.0,0.0,0.0,107.36389,57.35962,-58.128662
1766812050803,-0.7807617,0.56396484,-0.110839844,-18.859863,33.63037,-23.254395,0.0,0.0,0.0,111.02783,58.754883,-53.607788
1766812050891,-0.8071289,0.4814453,-0.25927734,6.652832,20.080566,0.7324219,0.0,0.0,0.0,111.02783,58.754883,-53.607788
1766812050903,-0.8071289,0.4814453,-0.25927734,6.652832,20.080566,0.7324219,0.0,0.0,0.0,112.70874,58.78235,-51.240234
1766812050991,-0.9321289,0.4892578,-0.16259766,18.920898,-8.117676,1.4648438,0.0,0.0,0.0,112.70874,58.78235,-51.240234
1766812051002,-0.9321289,0.4892578,-0.16259766,18.920898,-8.117676,1.4648438,0.0,0.0,0.0,116.01013,58.21106,-48.328857
1766812051091,-0.8544922,0.5986328,-0.13183594,4.9438477,-18.554688,-4.0283203,0.0,0.0,0.0,116.01013,58.21106,-48.328857
1766812051102,-0.8544922,0.5986328,-0.13183594,4.9438477,-18.554688,-4.0283203,0.0,0.0,0.0,114.537964,59.00757,-51.361084
1766812051190,-1.1401367,0.546875,-0.20898438,-10.803223,-31.61621,9.338379,0.0,0.0,0.0,114.537964,59.00757,-51.361084
1766812051202,-1.1401367,0.546875,-0.20898438,-10.803223,-31.61621,9.338379,0.0,0.0,0.0,110.02258,59.139404,-55.513916
1766812051290,-0.5317383,0.48779297,-0.29541016,-18.493652,10.437012,-1.3427734,0.0,0.0,0.0,110.02258,59.139404,-55.513916
1766812051301,-0.5317383,0.48779297,-0.29541016,-18.493652,10.437012,-1.3427734,0.0,0.0,0.0,105.63904,59.205322,-58.458252
1766812051390,-0.9760742,0.36083984,-0.10644531,-8.972168,16.723633,1.0375977,0.0,0.0,0.0,105.63904,59.205322,-58.458252
1766812051401,-0.9760742,0.36083984,-0.10644531,-8.972168,16.723633,1.0375977,0.0,0.0,0.0,109.11621,57.908936,-55.673218
1766812051489,-0.79248047,0.48095703,-0.26171875,-2.746582,16.113281,2.6245117,0.0,0.0,0.0,109.11621,57.908936,-55.673218
1766812051501,-0.79248047,0.48095703,-0.26171875,-2.746582,16.113281,2.6245117,0.0,0.0,0.0,108.37463,57.112427,-57.540894
1766812051589,-0.8930664,0.50390625,-0.11035156,-2.6245117,5.432129,-3.112793,0.0,0.0,0.0,108.37463,57.112427,-57.540894
1766812051601,-0.8930664,0.50390625,-0.11035156,-2.6245117,5.432129,-3.112793,0.0,0.0,0.0,110.78613,57.019043,-54.645996
1766812051689,-0.90283203,0.55908203,-0.09423828,-14.526367,11.230469,2.1972656,0.0,0.0,0.0,110.78613,57.019043,-54.645996
1766812051701,-0.90283203,0.55908203,-0.09423828,-14.526367,11.230469,2.1972656,0.0,0.0,0.0,111.03882,56.98059,-53.085938
1766812051788,-0.9550781,0.50878906,0.051757812,-13.73291,-23.376465,9.277344,0.0,0.0,0.0,111.03882,56.98059,-53.085938
1766812051800,-0.9550781,0.50878906,0.051757812,-13.73291,-23.376465,9.277344,0.0,0.0,0.0,108.3197,56.68396,-53.756104
1766812051888,-0.6870117,0.46289062,-0.25976562,16.967773,-29.296875,2.9296875,0.0,0.0,0.0,108.3197,56.68396,-53.756104
1766812051900,-0.6870117,0.46289062,-0.25976562,16.967773,-29.296875,2.9296875,0.0,0.0,0.0,101.013794,57.2937,-62.10022
1766812051988,-0.78027344,0.50390625,-0.2319336,-11.108398,-2.9907227,-20.324707,0.0,0.0,0.0,101.013794,57.2937,-62.10022
1766812051999,-0.78027344,0.50390625,-0.2319336,-11.108398,-2.9907227,-20.324707,0.0,0.0,0.0,100.145874,58.8208,-63.308716
1766812052088,-0.92578125,0.35205078,-0.016601562,-17.578125,9.338379,-25.57373,0.0,0.0,0.0,100.145874,58.8208,-63.308716
1766812052099,-0.92578125,0.35205078,-0.016601562,-17.578125,9.338379,-25.57373,0.0,0.0,0.0,102.15088,59.952393,-61.067505
1766812052187,-0.73095703,0.6411133,-0.1328125,-11.352539,10.192871,-8.850098,0.0,0.0,0.0,102.15088,59.952393,-61.067505
1766812052199,-0.73095703,0.6411133,-0.1328125,-11.352539,10.192871,-8.850098,0.0,0.0,0.0,101.381836,61.6333,-61.342163
1766812052287,-0.86328125,0.4267578,-0.024902344,4.3945312,13.61084,-4.8828125,0.0,0.0,0.0,101.381836,61.6333,-61.342163
1766812052299,-0.86328125,0.4267578,-0.024902344,4.3945312,13.61084,-4.8828125,0.0,0.0,0.0,104.13391,61.7157,-57.095947
1766812052387,-0.9316406,0.5439453,0.02734375,8.056641,-5.92041,-0.9765625,0.0,0.0,0.0,104.13391,61.7157,-57.095947
1766812052399,-0.9316406,0.5439453,0.02734375,8.056641,-5.92041,-0.9765625,0.0,0.0,0.0,105.55115,61.89148,-55.914917
1766812052486,-1.1655273,0.55029297,-0.06689453,5.126953,-33.996582,10.437012,0.0,0.0,0.0,105.55115,61.89148,-55.914917
1766812052499,-1.1655273,0.55029297,-0.06689453,5.126953,-33.996582,10.437012,0.0,0.0,0.0,101.881714,61.73767,-59.996338
1766812052586,-0.49365234,0.4819336,-0.20019531,-14.221191,26.97754,13.671875,0.0,0.0,0.0,101.881714,61.73767,-59.996338
1766812052598,-0.49365234,0.4819336,-0.20019531,-14.221191,26.97754,13.671875,0.0,0.0,0.0,99.36035,60.93567,-61.644287
1766812052686,-1.0102539,0.38330078,-0.1352539,3.2958984,9.338379,15.136719,0.0,0.0,0.0,99.36035,60.93567,-61.644287
1766812052697,-1.0102539,0.38330078,-0.1352539,3.2958984,9.338379,15.136719,0.0,0.0,0.0,101.78284,58.480225,-59.556885
1766812052786,-0.7631836,0.51123047,-0.19238281,8.666992,22.216797,17.39502,0.0,0.0,0.0,101.78284,58.480225,-59.556885
1766812052797,-0.7631836,0.51123047,-0.19238281,8.666992,22.216797,17.39502,0.0,0.0,0.0,103.51318,56.271973,-58.952637
1766812052885,-0.8955078,0.50341797,-0.056152344,8.850098,19.470215,-12.390137,0.0,0.0,0.0,103.51318,56.271973,-58.952637
1766812052897,-0.8955078,0.50341797,-0.056152344,8.850098,19.470215,-12.390137,0.0,0.0,0.0,108.19336,55.67871,-54.629517
1766812052985,-0.86816406,0.6064453,-0.12011719,-6.5307617,26.550293,-14.831543,0.0,0.0,0.0,108.19336,55.67871,-54.629517
1766812052997,-0.86816406,0.6064453,-0.12011719,-6.5307617,26.550293,-14.831543,0.0,0.0,0.0,111.87927,56.623535,-50.53711
1766812053085,-0.92285156,0.47021484,0.0068359375,-29.174805,-0.6713867,-6.652832,0.0,0.0,0.0,111.87927,56.623535,-50.53711
1766812053096,-0.92285156,0.47021484,0.0068359375,-29.174805,-0.6713867,-6.652832,0.0,0.0,0.0,112.45056,56.94214,-46.625977
1766812053185,-0.890625,0.57958984,-0.35498047,-0.061035156,-31.555176,10.620117,0.0,0.0,0.0,112.45056,56.94214,-46.625977
1766812053196,-0.890625,0.57958984,-0.35498047,-0.061035156,-31.555176,10.620117,0.0,0.0,0.0,106.68274,58.12317,-50.234985
1766812053284,-0.71484375,0.3774414,-0.29833984,-23.620605,22.644043,-27.648926,0.0,0.0,0.0,106.68274,58.12317,-50.234985
1766812053296,-0.71484375,0.3774414,-0.29833984,-23.620605,22.644043,-27.648926,0.0,0.0,0.0,106.36963,58.430786,-52.053223
1766812053384,-0.9609375,0.4194336,-0.118652344,-4.0283203,54.748535,-17.8833,0.0,0.0,0.0,106.36963,58.430786,-52.053223
1766812053395,-0.9609375,0.4194336,-0.118652344,-4.0283203,54.748535,-17.8833,0.0,0.0,0.0,112.92297,58.414307,-45.395508
1766812053484,-0.73828125,0.56689453,-0.22607422,11.474609,-10.986328,4.5166016,0.0,0.0,0.0,112.92297,58.414307,-45.395508
1766812053496,-0.73828125,0.56689453,-0.22607422,11.474609,-10.986328,4.5166016,0.0,0.0,0.0,115.944214,59.13391,-41.149292
1766812053583,-0.8876953,0.43554688,-0.18261719,-4.0893555,24.169922,-6.652832,0.0,0.0,0.0,115.944214,59.13391,-41.149292
1766812053595,-0.8876953,0.43554688,-0.18261719,-4.0893555,24.169922,-6.652832,0.0,0.0,0.0,118.54797,58.59558,-37.523804
1766812053683,-0.92871094,0.53271484,-0.22167969,15.50293,-14.282227,9.82666,0.0,0.0,0.0,118.54797,58.59558,-37.523804
1766812053695,-0.92871094,0.53271484,-0.22167969,15.50293,-14.282227,9.82666,0.0,0.0,0.0,119.157715,58.601074,-36.92505
1766812053783,-0.96972656,0.5908203,-0.13964844,-10.7421875,-12.756348,5.2490234,0.0,0.0,0.0,119.157715,58.601074,-36.92505
