timestamp,accX,accY,accZ,gyroX,gyroY,gyroZ,magX,magY,magZ,roll,pitch,yaw
1766904085873,-1.1376953,0.21826172,0.1484375,66.40625,33.691406,-37.53662,0.0,0.0,0.0,104.27124,82.48535,-150.30945
1766904085891,-1.1376953,0.21826172,0.1484375,66.40625,33.691406,-37.53662,0.0,0.0,0.0,129.09485,83.88611,-127.891846
1766904085973,-0.9111328,-0.30322266,0.07324219,-32.226562,-24.475098,26.672363,0.0,0.0,0.0,129.09485,83.88611,-127.891846
1766904085988,-0.9111328,-0.30322266,0.07324219,-32.226562,-24.475098,26.672363,0.0,0.0,0.0,130.06165,83.117065,-127.65015
1766904086073,-0.9741211,0.2006836,0.015625,-1.7700195,-10.253906,-4.8828125,0.0,0.0,0.0,130.06165,83.117065,-127.65015
1766904086084,-0.9741211,0.2006836,0.015625,-1.7700195,-10.253906,-4.8828125,0.0,0.0,0.0,123.39844,84.70459,-133.37402
1766904086172,-0.89453125,-0.045898438,-0.026855469,-8.239746,-11.71875,2.746582,0.0,0.0,0.0,123.39844,84.70459,-133.37402
1766904086184,-0.89453125,-0.045898438,-0.026855469,-8.239746,-11.71875,2.746582,0.0,0.0,0.0,105.166626,84.91333,-149.67224
1766904086272,-1.0209961,0.0048828125,-0.061523438,-4.8828125,-16.113281,0.91552734,0.0,0.0,0.0,105.166626,84.91333,-149.67224
1766904086284,-1.0209961,0.0048828125,-0.061523438,-4.8828125,-16.113281,0.91552734,0.0,0.0,0.0,91.90613,85.3418,-161.90002
1766904086372,-1.0058594,-0.015625,-0.096191406,-13.000488,14.465332,2.1362305,0.0,0.0,0.0,91.90613,85.3418,-161.90002
1766904086383,-1.0058594,-0.015625,-0.096191406,-13.000488,14.465332,2.1362305,0.0,0.0,0.0,86.42395,85.198975,-165.52551
1766904086471,-1.1728516,0.06933594,-0.24365234,-13.305664,24.780273,20.996094,0.0,0.0,0.0,86.42395,85.198975,-165.52551
1766904086483,-1.1728516,0.06933594,-0.24365234,-13.305664,24.780273,20.996094,0.0,0.0,0.0,101.101685,84.28711,-148.5791
1766904086571,-1.0317383,0.2133789,0.25439453,4.0283203,12.329102,14.221191,0.0,0.0,0.0,101.101685,84.28711,-148.5791
1766904086583,-1.0317383,0.2133789,0.25439453,4.0283203,12.329102,14.221191,0.0,0.0,0.0,129.18823,81.430664,-120.426636
1766904086671,-0.73095703,0.24707031,-0.07421875,16.662598,6.4697266,14.221191,0.0,0.0,0.0,129.18823,81.430664,-120.426636
1766904086682,-0.73095703,0.24707031,-0.07421875,16.662598,6.4697266,14.221191,0.0,0.0,0.0,114.73572,80.1178,-134.08813
1766904086771,-1.0327148,0.053222656,0.04638672,-2.6855469,-14.953613,15.625,0.0,0.0,0.0,114.73572,80.1178,-134.08813
1766904086782,-1.0327148,0.053222656,0.04638672,-2.6855469,-14.953613,15.625,0.0,0.0,0.0,114.0271,79.123535,-139.45496
1766904086870,-0.93310547,0.31396484,-0.11279297,-8.361816,4.8217773,5.004883,0.0,0.0,0.0,114.0271,79.123535,-139.45496
1766904086882,-0.93310547,0.31396484,-0.11279297,-8.361816,4.8217773,5.004883,0.0,0.0,0.0,104.01306,78.66211,-147.71667
1766904086970,-0.97314453,0.13964844,-0.18457031,3.7231445,4.699707,-9.033203,0.0,0.0,0.0,104.01306,78.66211,-147.71667
1766904086982,-0.97314453,0.13964844,-0.18457031,3.7231445,4.699707,-9.033203,0.0,0.0,0.0,104.05151,78.2666,-147.74414
1766904087070,-0.9189453,0.20605469,-0.140625,-8.850098,-14.038086,-4.760742,0.0,0.0,0.0,104.05151,78.2666,-147.74414
1766904087081,-0.9189453,0.20605469,-0.140625,-8.850098,-14.038086,-4.760742,0.0,0.0,0.0,104.61731,78.92029,-146.21704
1766904087170,-1.0380859,0.19580078,-0.23779297,8.239746,-7.507324,-15.625,0.0,0.0,0.0,104.61731,78.92029,-146.21704
1766904087181,-1.0380859,0.19580078,-0.23779297,8.239746,-7.507324,-15.625,0.0,0.0,0.0,102.10144,80.04639,-149.1394
1766904087269,-1.3754883,0.3125,-0.08203125,32.043457,28.198242,-29.541016,0.0,0.0,0.0,102.10144,80.04639,-149.1394
1766904087281,-1.3754883,0.3125,-0.08203125,32.043457,28.198242,-29.541016,0.0,0.0,0.0,112.27478,81.43616,-139.76257
1766904087369,-0.81347656,0.08300781,0.19189453,27.832031,1.0986328,-1.4038086,0.0,0.0,0.0,112.27478,81.43616,-139.76257
1766904087381,-0.81347656,0.08300781,0.19189453,27.832031,1.0986328,-1.4038086,0.0,0.0,0.0,129.0509,82.232666,-126.831665
1766904087469,-0.99365234,0.15283203,0.01171875,-2.8686523,-5.1879883,-16.601562,0.0,0.0,0.0,129.0509,82.232666,-126.831665
1766904087480,-0.99365234,0.15283203,0.01171875,-2.8686523,-5.1879883,-16.601562,0.0,0.0,0.0,123.23364,82.996216,-131.66565
1766904087569,-0.8491211,0.04638672,-0.052734375,-13.916016,-9.216309,1.0986328,0.0,0.0,0.0,123.23364,82.996216,-131.66565
1766904087580,-0.8491211,0.04638672,-0.052734375,-13.916016,-9.216309,1.0986328,0.0,0.0,0.0,113.19214,83.74878,-140.92712
1766904087669,-0.9980469,0.0034179688,-0.0703125,-4.5166016,-14.892578,-1.159668,0.0,0.0,0.0,113.19214,83.74878,-140.92712
1766904087680,-0.9980469,0.0034179688,-0.0703125,-4.5166016,-14.892578,-1.159668,0.0,0.0,0.0,97.41028,83.77075,-155.53345
1766904087768,-0.98828125,-0.015136719,-0.1274414,-12.634277,-2.0751953,2.9907227,0.0,0.0,0.0,97.41028,83.77075,-155.53345
1766904087780,-0.98828125,-0.015136719,-0.1274414,-12.634277,-2.0751953,2.9907227,0.0,0.0,0.0,88.879395,84.1333,-162.8888
1766904087868,-1.0986328,0.08496094,-0.1508789,3.112793,14.160156,13.305664,0.0,0.0,0.0,88.879395,84.1333,-162.8888
1766904087879,-1.0986328,0.08496094,-0.1508789,3.112793,14.160156,13.305664,0.0,0.0,0.0,97.5531,83.80371,-153.48999
1766904087968,-1.2255859,0.23046875,0.2368164,11.84082,19.16504,17.39502,0.0,0.0,0.0,97.5531,83.80371,-153.48999
1766904087979,-1.2255859,0.23046875,0.2368164,11.84082,19.16504,17.39502,0.0,0.0,0.0,114.97742,81.34827,-136.2085
1766904088067,-0.7265625,0.31591797,-0.110839844,-3.479004,-4.211426,17.211914,0.0,0.0,0.0,114.97742,81.34827,-136.2085
1766904088079,-0.7265625,0.31591797,-0.110839844,-3.479004,-4.211426,17.211914,0.0,0.0,0.0,104.28772,80.128784,-147.22229
1766904088167,-1.0698242,0.080566406,0.16064453,34.240723,-23.925781,7.9345703,0.0,0.0,0.0,104.28772,80.128784,-147.22229
1766904088178,-1.0698242,0.080566406,0.16064453,34.240723,-23.925781,7.9345703,0.0,0.0,0.0,101.56311,79.26636,-155.09949
1766904088267,-0.83740234,0.21679688,-0.07763672,-1.2817383,-4.699707,-2.0751953,0.0,0.0,0.0,101.56311,79.26636,-155.09949
1766904088278,-0.83740234,0.21679688,-0.07763672,-1.2817383,-4.699707,-2.0751953,0.0,0.0,0.0,91.96106,78.9917,-163.59741
1766904088366,-0.9868164,0.19921875,-0.14794922,2.319336,5.79834,-4.699707,0.0,0.0,0.0,91.96106,78.9917,-163.59741
1766904088378,-0.9868164,0.19921875,-0.14794922,2.319336,5.79834,-4.699707,0.0,0.0,0.0,92.80151,78.87634,-162.46582
1766904088466,-0.9501953,0.21533203,-0.1538086,11.352539,-0.18310547,-15.380859,0.0,0.0,0.0,92.80151,78.87634,-162.46582
1766904088478,-0.9501953,0.21533203,-0.1538086,11.352539,-0.18310547,-15.380859,0.0,0.0,0.0,99.82727,80.10132,-155.58289
1766904088566,-1.1225586,0.1508789,-0.20898438,21.728516,2.4414062,-26.794434,0.0,0.0,0.0,99.82727,80.10132,-155.58289
1766904088577,-1.1225586,0.1508789,-0.20898438,21.728516,2.4414062,-26.794434,0.0,0.0,0.0,105.46326,81.65588,-151.10596
1766904088666,-1.0024414,0.20898438,0.27685547,42.663574,31.61621,-21.057129,0.0,0.0,0.0,105.46326,81.65588,-151.10596
1766904088677,-1.0024414,0.20898438,0.27685547,42.663574,31.61621,-21.057129,0.0,0.0,0.0,132.92908,82.63916,-125.62317
1766904088765,-0.9472656,-0.1352539,-0.06933594,-69.58008,-45.532227,18.859863,0.0,0.0,0.0,132.92908,82.63916,-125.62317
1766904088777,-0.9472656,-0.1352539,-0.06933594,-69.58008,-45.532227,18.859863,0.0,0.0,0.0,108.18787,81.9635,-147.01904
1766904088865,-0.9042969,0.16552734,0.10449219,-39.79492,-7.080078,4.8217773,0.0,0.0,0.0,108.18787,81.9635,-147.01904
1766904088876,-0.9042969,0.16552734,0.10449219,-39.79492,-7.080078,4.8217773,0.0,0.0,0.0,108.89099,82.457886,-143.75061
1766904088965,-0.93115234,0.040527344,-0.099609375,-31.37207,-12.6953125,0.91552734,0.0,0.0,0.0,108.89099,82.457886,-143.75061
1766904088976,-0.93115234,0.040527344,-0.099609375,-31.37207,-12.6953125,0.91552734,0.0,0.0,0.0,89.85718,81.952515,-157.93945
1766904089064,-0.9980469,0.14160156,-0.07128906,-18.066406,-5.7373047,5.79834,0.0,0.0,0.0,89.85718,81.952515,-157.93945
1766904089076,-0.9980469,0.14160156,-0.07128906,-18.066406,-5.7373047,5.79834,0.0,0.0,0.0,81.31531,82.00745,-164.46533
1766904089164,-1.1704102,0.06347656,-0.15478516,-17.63916,29.907227,11.108398,0.0,0.0,0.0,81.31531,82.00745,-164.46533
1766904089176,-1.1704102,0.06347656,-0.15478516,-17.63916,29.907227,11.108398,0.0,0.0,0.0,95.52612,81.00769,-149.07349
1766904089264,-0.9633789,0.34716797,0.29638672,-16.113281,-0.91552734,4.760742,0.0,0.0,0.0,95.52612,81.00769,-149.07349
1766904089276,-0.9633789,0.34716797,0.29638672,-16.113281,-0.91552734,4.760742,0.0,0.0,0.0,114.65881,79.870605,-129.64966
1766904089364,-0.7246094,0.2709961,-0.20019531,-3.3569336,-15.319824,21.728516,0.0,0.0,0.0,114.65881,79.870605,-129.64966
1766904089375,-0.7246094,0.2709961,-0.20019531,-3.3569336,-15.319824,21.728516,0.0,0.0,0.0,92.3291,79.50256,-152.29248
1766904089463,-1.0405273,-0.013671875,0.122558594,22.033691,3.2348633,-11.291504,0.0,0.0,0.0,92.3291,79.50256,-152.29248
1766904089476,-1.0405273,-0.013671875,0.122558594,22.033691,3.2348633,-11.291504,0.0,0.0,0.0,100.82703,79.94751,-152.07275
1766904089563,-0.9248047,0.2841797,-0.1352539,-14.282227,0.61035156,5.493164,0.0,0.0,0.0,100.82703,79.94751,-152.07275
1766904089575,-0.9248047,0.2841797,-0.1352539,-14.282227,0.61035156,5.493164,0.0,0.0,0.0,87.994995,79.958496,-163.92151
1766904089663,-0.93359375,0.22851562,-0.16259766,27.58789,0.9765625,-7.8125,0.0,0.0,0.0,87.994995,79.958496,-163.92151
1766904089674,-0.93359375,0.22851562,-0.16259766,27.58789,0.9765625,-7.8125,0.0,0.0,0.0,88.654175,80.05737,-165.22888
1766904089765,-1.0458984,0.19091797,-0.11425781,22.888184,-5.859375,-17.76123,0.0,0.0,0.0,88.654175,80.05737,-165.22888
1766904089775,-1.0458984,0.19091797,-0.11425781,22.888184,-5.859375,-17.76123,0.0,0.0,0.0,92.76306,80.89783,-163.49854
1766904089865,-1.3696289,0.23291016,0.05029297,39.367676,9.338379,-26.794434,0.0,0.0,0.0,92.76306,80.89783,-163.49854
1766904089874,-1.3696289,0.23291016,0.05029297,39.367676,9.338379,-26.794434,0.0,0.0,0.0,99.27246,82.72156,-158.21411
1766904089963,-0.8696289,-0.18945312,0.1303711,-29.541016,-16.296387,22.888184,0.0,0.0,0.0,99.27246,82.72156,-158.21411
1766904089974,-0.8696289,-0.18945312,0.1303711,-29.541016,-16.296387,22.888184,0.0,0.0,0.0,109.89075,83.62793,-148.45276
1766904090062,-0.9213867,0.23583984,0.18408203,7.2021484,-17.333984,-18.554688,0.0,0.0,0.0,109.89075,83.62793,-148.45276
1766904090073,-0.9213867,0.23583984,0.18408203,7.2021484,-17.333984,-18.554688,0.0,0.0,0.0,107.32544,85.67139,-147.96387
1766904090162,-0.90478516,-0.013671875,-0.014160156,-48.034668,-14.221191,18.005371,0.0,0.0,0.0,107.32544,85.67139,-147.96387
1766904090181,-0.90478516,-0.013671875,-0.014160156,-48.034668,-14.221191,18.005371,0.0,0.0,0.0,66.80786,83.51807,176.3086
1766904090266,-1.027832,0.03955078,0.009765625,-32.714844,-13.549805,6.713867,0.0,0.0,0.0,66.80786,83.51807,176.3086
1766904090273,-1.027832,0.03955078,0.009765625,-32.714844,-13.549805,6.713867,0.0,0.0,0.0,54.536133,82.249146,167.56348
1766904090361,-1.0024414,0.045410156,-0.045410156,-19.40918,12.6953125,0.12207031,0.0,0.0,0.0,54.536133,82.249146,167.56348
1766904090373,-1.0024414,0.045410156,-0.045410156,-19.40918,12.6953125,0.12207031,0.0,0.0,0.0,55.55786,82.38098,171.77673
1766904090461,-1.1450195,0.14746094,-0.1171875,-7.019043,16.906738,15.869141,0.0,0.0,0.0,55.55786,82.38098,171.77673
1766904090472,-1.1450195,0.14746094,-0.1171875,-7.019043,16.906738,15.869141,0.0,0.0,0.0,67.40662,82.732544,-174.90784
1766904090561,-1.0087891,0.18652344,0.2446289,30.88379,28.137207,-6.164551,0.0,0.0,0.0,67.40662,82.732544,-174.90784
1766904090572,-1.0087891,0.18652344,0.2446289,30.88379,28.137207,-6.164551,0.0,0.0,0.0,96.641235,82.161255,-146.77734
1766904090660,-0.6870117,0.25683594,0.06738281,-22.094727,-22.216797,37.719727,0.0,0.0,0.0,96.641235,82.161255,-146.77734
1766904090672,-0.6870117,0.25683594,0.06738281,-22.094727,-22.216797,37.719727,0.0,0.0,0.0,88.52783,80.50781,-156.4508
1766904090760,-1.0410156,0.12695312,0.068359375,17.028809,-14.709473,0.79345703,0.0,0.0,0.0,88.52783,80.50781,-156.4508
1766904090772,-1.0410156,0.12695312,0.068359375,17.028809,-14.709473,0.79345703,0.0,0.0,0.0,79.524536,78.11279,-168.7445
1766904090860,-0.8574219,0.22851562,0.020507812,-15.441895,-14.526367,0.61035156,0.0,0.0,0.0,79.524536,78.11279,-168.7445
1766904090871,-0.8574219,0.22851562,0.020507812,-15.441895,-14.526367,0.61035156,0.0,0.0,0.0,71.119995,77.541504,-176.83594
1766904090959,-0.97509766,0.234375,-0.052246094,-20.629883,3.7231445,-2.5634766,0.0,0.0,0.0,71.119995,77.541504,-176.83594
1766904090971,-0.97509766,0.234375,-0.052246094,-20.629883,3.7231445,-2.5634766,0.0,0.0,0.0,67.59338,77.700806,179.51111
1766904091059,-1.0180664,0.2993164,-0.08544922,-10.437012,6.4697266,-13.366699,0.0,0.0,0.0,67.59338,77.700806,179.51111
1766904091071,-1.0180664,0.2993164,-0.08544922,-10.437012,6.4697266,-13.366699,0.0,0.0,0.0,68.604126,78.343506,-178.61023
1766904091159,-1.2480469,0.2626953,0.001953125,17.700195,30.822754,-18.676758,0.0,0.0,0.0,68.604126,78.343506,-178.61023
1766904091170,-1.2480469,0.2626953,0.001953125,17.700195,30.822754,-18.676758,0.0,0.0,0.0,75.82764,80.304565,-173.03467
1766904091259,-0.9555664,-0.044433594,0.13720703,15.319824,-9.58252,6.286621,0.0,0.0,0.0,75.82764,80.304565,-173.03467
1766904091270,-0.9555664,-0.044433594,0.13720703,15.319824,-9.58252,6.286621,0.0,0.0,0.0,85.270386,81.68884,-167.55249
1766904091358,-0.92529297,0.17089844,0.20214844,-2.746582,-17.944336,-9.70459,0.0,0.0,0.0,85.270386,81.68884,-167.55249
1766904091370,-0.92529297,0.17089844,0.20214844,-2.746582,-17.944336,-9.70459,0.0,0.0,0.0,82.43042,82.27661,-169.58496
1766904091458,-0.93896484,0.0053710938,0.0014648438,-11.047363,-5.126953,3.6010742,0.0,0.0,0.0,82.43042,82.27661,-169.58496
1766904091470,-0.93896484,0.0053710938,0.0014648438,-11.047363,-5.126953,3.6010742,0.0,0.0,0.0,63.825073,80.408936,174.19922
1766904091558,-0.93896484,0.08300781,0.04248047,-18.432617,-22.277832,3.4179688,0.0,0.0,0.0,63.825073,80.408936,174.19922
1766904091569,-0.93896484,0.08300781,0.04248047,-18.432617,-22.277832,3.4179688,0.0,0.0,0.0,56.854248,80.71655,167.56348
1766904091658,-1.0976562,0.07324219,-0.00390625,8.544922,6.652832,-6.8969727,0.0,0.0,0.0,56.854248,80.71655,167.56348
1766904091669,-1.0976562,0.07324219,-0.00390625,8.544922,6.652832,-6.8969727,0.0,0.0,0.0,50.55359,80.617676,161.8396
1766904091757,-1.0625,0.095214844,-0.096191406,10.314941,22.827148,1.953125,0.0,0.0,0.0,50.55359,80.617676,161.8396
1766904091769,-1.0625,0.095214844,-0.096191406,10.314941,22.827148,1.953125,0.0,0.0,0.0,59.07898,81.87012,170.36499
1766904091857,-1.2568359,0.19677734,0.055664062,6.4086914,43.395996,14.892578,0.0,0.0,0.0,59.07898,81.87012,170.36499
1766904091869,-1.2568359,0.19677734,0.055664062,6.4086914,43.395996,14.892578,0.0,0.0,0.0,90.0824,82.05139,-158.85132
1766904091957,-0.7138672,0.24267578,0.05126953,8.056641,-19.592285,15.014648,0.0,0.0,0.0,90.0824,82.05139,-158.85132
1766904091969,-0.7138672,0.24267578,0.05126953,8.056641,-19.592285,15.014648,0.0,0.0,0.0,94.24072,80.7605,-156.35742
1766904092057,-0.9838867,0.18896484,0.21923828,58.654785,-8.361816,2.1972656,0.0,0.0,0.0,94.24072,80.7605,-156.35742
1766904092069,-0.9838867,0.18896484,0.21923828,58.654785,-8.361816,2.1972656,0.0,0.0,0.0,88.59924,79.28284,-165.67932
1766904092156,-0.8779297,0.18554688,-0.07324219,3.6010742,-25.32959,2.319336,0.0,0.0,0.0,88.59924,79.28284,-165.67932
1766904092168,-0.8779297,0.18554688,-0.07324219,3.6010742,-25.32959,2.319336,0.0,0.0,0.0,76.02539,78.46985,178.50037
1766904092257,-0.98291016,0.15478516,-0.028320312,36.376953,2.4414062,-11.84082,0.0,0.0,0.0,76.02539,78.46985,178.50037
1766904092268,-0.98291016,0.15478516,-0.028320312,36.376953,2.4414062,-11.84082,0.0,0.0,0.0,75.60242,78.931274,175.69336
1766904092357,-1.0004883,0.2084961,-0.12548828,-4.9438477,8.056641,-26.733398,0.0,0.0,0.0,75.60242,78.931274,175.69336
1766904092368,-1.0004883,0.2084961,-0.12548828,-4.9438477,8.056641,-26.733398,0.0,0.0,0.0,77.79968,81.07361,178.46191
1766904092456,-1.2993164,0.09033203,-0.12939453,36.43799,23.19336,-30.700684,0.0,0.0,0.0,77.79968,81.07361,178.46191
1766904092467,-1.2993164,0.09033203,-0.12939453,36.43799,23.19336,-30.700684,0.0,0.0,0.0,95.24597,83.88611,-164.95972
1766904092556,-0.89208984,-0.01953125,0.33447266,-25.939941,-1.0986328,16.235352,0.0,0.0,0.0,95.24597,83.88611,-164.95972
1766904092569,-0.89208984,-0.01953125,0.33447266,-25.939941,-1.0986328,16.235352,0.0,0.0,0.0,130.17151,83.974,-129.39148
1766904092655,-1.0307617,0.06689453,-0.060058594,-6.286621,36.56006,-19.65332,0.0,0.0,0.0,130.17151,83.974,-129.39148
1766904092666,-1.0307617,0.06689453,-0.060058594,-6.286621,36.56006,-19.65332,0.0,0.0,0.0,115.10925,84.96277,-140.25146
1766904092755,-0.8378906,-0.015136719,-0.049316406,-65.91797,-34.66797,24.291992,0.0,0.0,0.0,115.10925,84.96277,-140.25146
1766904092766,-0.8378906,-0.015136719,-0.049316406,-65.91797,-34.66797,24.291992,0.0,0.0,0.0,101.32141,85.13306,-151.19934
1766904092854,-0.9746094,0.00390625,-0.014160156,-17.944336,-8.850098,-3.6010742,0.0,0.0,0.0,101.32141,85.13306,-151.19934
1766904092866,-0.9746094,0.00390625,-0.014160156,-17.944336,-8.850098,-3.6010742,0.0,0.0,0.0,83.73779,85.182495,-165.75623
1766904092954,-1.0483398,0.020507812,-0.104003906,-12.634277,13.244629,1.7700195,0.0,0.0,0.0,83.73779,85.182495,-165.75623
1766904092966,-1.0483398,0.020507812,-0.104003906,-12.634277,13.244629,1.7700195,0.0,0.0,0.0,81.23291,85.43518,-166.20667
1766904093054,-1.1518555,0.05810547,-0.17626953,-7.751465,23.19336,18.798828,0.0,0.0,0.0,81.23291,85.43518,-166.20667
1766904093065,-1.1518555,0.05810547,-0.17626953,-7.751465,23.19336,18.798828,0.0,0.0,0.0,114.04907,84.122314,-132.19849
1766904093154,-0.9790039,0.2006836,0.1743164,-5.9814453,-15.991211,16.784668,0.0,0.0,0.0,114.04907,84.122314,-132.19849
1766904093165,-0.9790039,0.2006836,0.1743164,-5.9814453,-15.991211,16.784668,0.0,0.0,0.0,130.41321,81.535034,-116.586914
1766904093253,-0.7832031,0.29003906,0.0126953125,16.784668,-13.427734,9.033203,0.0,0.0,0.0,130.41321,81.535034,-116.586914
1766904093266,-0.7832031,0.29003906,0.0126953125,16.784668,-13.427734,9.033203,0.0,0.0,0.0,109.33594,80.8374,-137.74109
1766904093353,-1.0517578,0.13916016,-0.06689453,16.235352,-28.320312,2.5024414,0.0,0.0,0.0,109.33594,80.8374,-137.74109
1766904093365,-1.0517578,0.13916016,-0.06689453,16.235352,-28.320312,2.5024414,0.0,0.0,0.0,97.14111,80.980225,-155.26978
1766904093453,-0.86376953,0.23730469,-0.10595703,10.681152,-19.16504,1.8920898,0.0,0.0,0.0,97.14111,80.980225,-155.26978
1766904093465,-0.86376953,0.23730469,-0.10595703,10.681152,-19.16504,1.8920898,0.0,0.0,0.0,83.984985,81.05713,-169.90356
1766904093553,-0.97216797,0.19042969,-0.13378906,9.521484,-4.211426,-10.131836,0.0,0.0,0.0,83.984985,81.05713,-169.90356
1766904093564,-0.97216797,0.19042969,-0.13378906,9.521484,-4.211426,-10.131836,0.0,0.0,0.0,81.49109,81.205444,-174.06189
1766904093653,-1.0317383,0.13232422,-0.122558594,32.287598,1.8310547,-19.16504,0.0,0.0,0.0,81.49109,81.205444,-174.06189
1766904093664,-1.0317383,0.13232422,-0.122558594,32.287598,1.8310547,-19.16504,0.0,0.0,0.0,83.28186,82.44141,-173.67188
1766904093752,-1.2783203,0.20654297,0.33007812,18.432617,12.329102,-13.916016,0.0,0.0,0.0,83.28186,82.44141,-173.67188
1766904093764,-1.2783203,0.20654297,0.33007812,18.432617,12.329102,-13.916016,0.0,0.0,0.0,101.22803,84.017944,-156.9397
1766904093852,-0.75,-0.13769531,0.015625,-38.33008,8.605957,1.8310547,0.0,0.0,0.0,101.22803,84.017944,-156.9397
1766904093863,-0.75,-0.13769531,0.015625,-38.33008,8.605957,1.8310547,0.0,0.0,0.0,96.1853,84.24866,-160.38391
1766904093952,-1.0625,0.2685547,0.08496094,-41.259766,-35.52246,24.291992,0.0,0.0,0.0,96.1853,84.24866,-160.38391
1766904093963,-1.0625,0.2685547,0.08496094,-41.259766,-35.52246,24.291992,0.0,0.0,0.0,80.61218,85.00122,-173.43567
1766904094051,-0.859375,-0.08203125,0.11376953,-16.662598,-5.79834,-2.380371,0.0,0.0,0.0,80.61218,85.00122,-173.43567
1766904094063,-0.859375,-0.08203125,0.11376953,-16.662598,-5.79834,-2.380371,0.0,0.0,0.0,65.15442,83.133545,174.73206
1766904094151,-1.0302734,0.05029297,-0.036621094,-28.808594,-7.5683594,4.8828125,0.0,0.0,0.0,65.15442,83.133545,174.73206
1766904094163,-1.0302734,0.05029297,-0.036621094,-28.808594,-7.5683594,4.8828125,0.0,0.0,0.0,52.388306,82.01294,166.47034
1766904094251,-1.105957,0.044433594,-0.046875,-14.282227,12.023926,11.413574,0.0,0.0,0.0,52.388306,82.01294,166.47034
1766904094263,-1.105957,0.044433594,-0.046875,-14.282227,12.023926,11.413574,0.0,0.0,0.0,55.78308,82.39746,172.49084
1766904094362,-1.2768555,0.13330078,-0.09716797,-16.723633,33.87451,4.760742,0.0,0.0,0.0,55.78308,82.39746,172.49084
1766904094363,-1.2768555,0.13330078,-0.09716797,-16.723633,33.87451,4.760742,0.0,0.0,0.0,73.65784,82.7655,-166.79993
1766904094450,-0.7919922,0.3095703,0.15234375,36.071777,-2.9296875,-21.78955,0.0,0.0,0.0,73.65784,82.7655,-166.79993
1766904094462,-0.7919922,0.3095703,0.15234375,36.071777,-2.9296875,-21.78955,0.0,0.0,0.0,97.01477,84.243164,-144.4043
1766904094550,-0.9970703,0.033691406,0.17919922,20.202637,-19.836426,23.986816,0.0,0.0,0.0,97.01477,84.243164,-144.4043
1766904094562,-0.9970703,0.033691406,0.17919922,20.202637,-19.836426,23.986816,0.0,0.0,0.0,79.870605,82.57324,-164.42688
1766904094650,-0.82958984,0.20458984,-0.04736328,-20.385742,-6.5307617,-16.967773,0.0,0.0,0.0,79.870605,82.57324,-164.42688
1766904094661,-0.82958984,0.20458984,-0.04736328,-20.385742,-6.5307617,-16.967773,0.0,0.0,0.0,68.09326,81.03516,-176.23718
1766904094750,-0.99609375,0.17089844,-0.08984375,6.4086914,-17.944336,5.6152344,0.0,0.0,0.0,68.09326,81.03516,-176.23718
1766904094761,-0.99609375,0.17089844,-0.08984375,6.4086914,-17.944336,5.6152344,0.0,0.0,0.0,60.424805,80.63965,176.36902
1766904094849,-0.97753906,0.17480469,-0.017089844,5.92041,8.850098,-15.380859,0.0,0.0,0.0,60.424805,80.63965,176.36902
1766904094862,-0.97753906,0.17480469,-0.017089844,5.92041,8.850098,-15.380859,0.0,0.0,0.0,64.56116,82.06787,179.01672
1766904094949,-1.2705078,0.20898438,-0.16064453,4.0283203,17.333984,-16.540527,0.0,0.0,0.0,64.56116,82.06787,179.01672
1766904094961,-1.2705078,0.20898438,-0.16064453,4.0283203,17.333984,-16.540527,0.0,0.0,0.0,68.04382,83.62244,-177.33032
1766904095049,-0.93896484,0.036621094,0.25097656,16.235352,9.94873,-5.6762695,0.0,0.0,0.0,68.04382,83.62244,-177.33032
1766904095060,-0.93896484,0.036621094,0.25097656,16.235352,9.94873,-5.6762695,0.0,0.0,0.0,91.54358,85.12756,-155.76416
1766904095148,-0.8901367,0.03955078,0.11767578,-13.427734,-1.7700195,1.5258789,0.0,0.0,0.0,91.54358,85.12756,-155.76416
1766904095160,-0.8901367,0.03955078,0.11767578,-13.427734,-1.7700195,1.5258789,0.0,0.0,0.0,76.70105,84.10034,-168.66211
1766904095248,-0.9404297,0.0,0.015625,-26.794434,-20.263672,26.97754,0.0,0.0,0.0,76.70105,84.10034,-168.66211
1766904095260,-0.9404297,0.0,0.015625,-26.794434,-20.263672,26.97754,0.0,0.0,0.0,63.4021,82.13379,-179.93958
1766904095348,-0.9082031,0.046875,0.08251953,-25.08545,-15.686035,10.070801,0.0,0.0,0.0,63.4021,82.13379,-179.93958
1766904095359,-0.9082031,0.046875,0.08251953,-25.08545,-15.686035,10.070801,0.0,0.0,0.0,59.589844,80.92529,177.9895
1766904095448,-1.0942383,0.09423828,-0.040527344,-5.1879883,1.5258789,3.2958984,0.0,0.0,0.0,59.589844,80.92529,177.9895
1766904095459,-1.0942383,0.09423828,-0.040527344,-5.1879883,1.5258789,3.2958984,0.0,0.0,0.0,52.322388,79.61243,173.4851
1766904095547,-1.0942383,0.045898438,-0.057617188,-6.3476562,20.263672,10.131836,0.0,0.0,0.0,52.322388,79.61243,173.4851
1766904095559,-1.0942383,0.045898438,-0.057617188,-6.3476562,20.263672,10.131836,0.0,0.0,0.0,60.836792,80.33203,-177.06116
1766904095647,-1.2314453,0.29248047,0.2861328,15.930176,43.5791,-2.5634766,0.0,0.0,0.0,60.836792,80.33203,-177.06116
1766904095659,-1.2314453,0.29248047,0.2861328,15.930176,43.5791,-2.5634766,0.0,0.0,0.0,81.62842,81.12305,-154.80286
1766904095747,-0.73046875,0.26757812,-0.057617188,-0.6713867,-1.2207031,-1.2817383,0.0,0.0,0.0,81.62842,81.12305,-154.80286
1766904095758,-0.73046875,0.26757812,-0.057617188,-0.6713867,-1.2207031,-1.2817383,0.0,0.0,0.0,89.61548,81.19446,-148.8208
1766904095847,-1.0751953,0.13330078,0.10498047,47.180176,-14.953613,0.0,0.0,0.0,0.0,89.61548,81.19446,-148.8208
1766904095858,-1.0751953,0.13330078,0.10498047,47.180176,-14.953613,0.0,0.0,0.0,0.0,91.41724,81.1615,-152.17163
1766904095946,-0.8178711,0.23925781,-0.057128906,2.4414062,-18.981934,0.36621094,0.0,0.0,0.0,91.41724,81.1615,-152.17163
1766904095958,-0.8178711,0.23925781,-0.057128906,2.4414062,-18.981934,0.36621094,0.0,0.0,0.0,83.27637,81.09558,-163.57544
1766904096046,-1.0341797,0.09277344,-0.12646484,6.591797,-13.427734,-9.033203,0.0,0.0,0.0,83.27637,81.09558,-163.57544
1766904096058,-1.0341797,0.09277344,-0.12646484,6.591797,-13.427734,-9.033203,0.0,0.0,0.0,73.03711,80.216675,-174.30359
1766904096146,-0.99658203,0.25341797,-0.07080078,16.113281,4.638672,-26.062012,0.0,0.0,0.0,73.03711,80.216675,-174.30359
1766904096157,-0.99658203,0.25341797,-0.07080078,16.113281,4.638672,-26.062012,0.0,0.0,0.0,72.2406,82.29309,-174.88586
1766904096246,-1.3051758,0.11279297,0.09716797,15.258789,17.150879,-9.70459,0.0,0.0,0.0,72.2406,82.29309,-174.88586
1766904096257,-1.3051758,0.11279297,0.09716797,15.258789,17.150879,-9.70459,0.0,0.0,0.0,81.71631,83.968506,-166.5802
1766904096345,-0.96533203,-0.14208984,0.24072266,-47.058105,-32.714844,20.629883,0.0,0.0,0.0,81.71631,83.968506,-166.5802
1766904096357,-0.96533203,-0.14208984,0.24072266,-47.058105,-32.714844,20.629883,0.0,0.0,0.0,86.20422,84.75952,-161.0321
1766904096445,-0.9267578,0.2939453,0.09814453,-3.3569336,-0.48828125,-16.113281,0.0,0.0,0.0,86.20422,84.75952,-161.0321
1766904096457,-0.9267578,0.2939453,0.09814453,-3.3569336,-0.48828125,-16.113281,0.0,0.0,0.0,63.86902,84.77051,-179.02222
1766904096545,-0.84277344,-0.08691406,0.08642578,-10.070801,-4.760742,3.1738281,0.0,0.0,0.0,63.86902,84.77051,-179.02222
1766904096557,-0.84277344,-0.08691406,0.08642578,-10.070801,-4.760742,3.1738281,0.0,0.0,0.0,57.485962,83.61145,176.15479
1766904096644,-1.0063477,-0.0043945312,0.021484375,-31.555176,-12.512207,0.0,0.0,0.0,0.0,57.485962,83.61145,176.15479
1766904096656,-1.0063477,-0.0043945312,0.021484375,-31.555176,-12.512207,0.0,0.0,0.0,0.0,43.467407,83.221436,165.14099
1766904096744,-1.0712891,0.079589844,-0.04638672,-26.733398,2.1362305,7.9956055,0.0,0.0,0.0,43.467407,83.221436,165.14099
1766904096756,-1.0712891,0.079589844,-0.04638672,-26.733398,2.1362305,7.9956055,0.0,0.0,0.0,40.995483,83.22693,165.99243
1766904096844,-1.0317383,0.07519531,-0.11669922,-13.183594,4.272461,14.831543,0.0,0.0,0.0,40.995483,83.22693,165.99243
1766904096856,-1.0317383,0.07519531,-0.11669922,-13.183594,4.272461,14.831543,0.0,0.0,0.0,51.295166,82.96326,178.25867
1766904096944,-1.3085938,0.16455078,0.2055664,7.751465,15.319824,13.427734,0.0,0.0,0.0,51.295166,82.96326,178.25867
1766904096955,-1.3085938,0.16455078,0.2055664,7.751465,15.319824,13.427734,0.0,0.0,0.0,70.72449,82.457886,-162.50427
1766904097044,-0.78271484,0.28271484,0.087890625,8.300781,-30.578613,5.79834,0.0,0.0,0.0,70.72449,82.457886,-162.50427
1766904097056,-0.78271484,0.28271484,0.087890625,8.300781,-30.578613,5.79834,0.0,0.0,0.0,66.87927,81.99097,-170.0409
1766904097143,-1.1000977,0.12646484,0.19970703,55.96924,-18.127441,0.12207031,0.0,0.0,0.0,66.87927,81.99097,-170.0409
1766904097155,-1.1000977,0.12646484,0.19970703,55.96924,-18.127441,0.12207031,0.0,0.0,0.0,61.82007,80.2771,-179.89014
1766904097243,-0.8222656,0.23242188,0.0063476562,7.2021484,-13.183594,-4.211426,0.0,0.0,0.0,61.82007,80.2771,-179.89014
1766904097255,-0.8222656,0.23242188,0.0063476562,7.2021484,-13.183594,-4.211426,0.0,0.0,0.0,54.11316,79.82666,169.16748
1766904097343,-0.9819336,0.12792969,-0.022949219,12.939453,-0.91552734,-5.92041,0.0,0.0,0.0,54.11316,79.82666,169.16748
1766904097354,-0.9819336,0.12792969,-0.022949219,12.939453,-0.91552734,-5.92041,0.0,0.0,0.0,53.684692,79.35425,166.78345
1766904097442,-1.0380859,0.2006836,-0.029785156,22.216797,3.3569336,-19.28711,0.0,0.0,0.0,53.684692,79.35425,166.78345
1766904097454,-1.0380859,0.2006836,-0.029785156,22.216797,3.3569336,-19.28711,0.0,0.0,0.0,53.953857,80.930786,166.21765
1766904097542,-1.3388672,0.100097656,0.38330078,16.845703,26.489258,-20.629883,0.0,0.0,0.0,53.953857,80.930786,166.21765
1766904097554,-1.3388672,0.100097656,0.38330078,16.845703,26.489258,-20.629883,0.0,0.0,0.0,61.3916,83.05664,173.02368
1766904097642,-0.9199219,-0.024414062,0.076660156,-42.907715,-15.74707,21.240234,0.0,0.0,0.0,61.3916,83.05664,173.02368
1766904097653,-0.9199219,-0.024414062,0.076660156,-42.907715,-15.74707,21.240234,0.0,0.0,0.0,56.95862,83.67737,168.65112
1766904097741,-0.8491211,0.14453125,0.07470703,2.5024414,-0.7324219,11.352539,0.0,0.0,0.0,56.95862,83.67737,168.65112
1766904097753,-0.8491211,0.14453125,0.07470703,2.5024414,-0.7324219,11.352539,0.0,0.0,0.0,57.903442,82.628174,172.21619
1766904097841,-0.87402344,-0.059570312,0.11376953,-33.02002,-18.188477,12.573242,0.0,0.0,0.0,57.903442,82.628174,172.21619
1766904097853,-0.87402344,-0.059570312,0.11376953,-33.02002,-18.188477,12.573242,0.0,0.0,0.0,54.11316,81.22742,170.06287
1766904097941,-1.0742188,0.008300781,-0.0034179688,-24.902344,0.91552734,2.8686523,0.0,0.0,0.0,54.11316,81.22742,170.06287
1766904097952,-1.0742188,0.008300781,-0.0034179688,-24.902344,0.91552734,2.8686523,0.0,0.0,0.0,47.01599,79.62341,167.07458
1766904098041,-1.0595703,0.10839844,-0.011230469,-21.911621,16.479492,7.6904297,0.0,0.0,0.0,47.01599,79.62341,167.07458
1766904098052,-1.0595703,0.10839844,-0.011230469,-21.911621,16.479492,7.6904297,0.0,0.0,0.0,51.080933,81.11206,174.19922
1766904098140,-1.2919922,0.12451172,0.015136719,0.7324219,53.588867,-0.061035156,0.0,0.0,0.0,51.080933,81.11206,174.19922
1766904098153,-1.2919922,0.12451172,0.015136719,0.7324219,53.588867,-0.061035156,0.0,0.0,0.0,74.37744,82.44141,-160.22461
1766904098240,-0.7792969,0.3022461,0.12695312,-14.831543,-37.902832,-7.2021484,0.0,0.0,0.0,74.37744,82.44141,-160.22461
1766904098252,-0.7792969,0.3022461,0.12695312,-14.831543,-37.902832,-7.2021484,0.0,0.0,0.0,87.57202,83.95203,-147.82104
1766904098340,-0.9873047,0.22314453,0.17773438,65.30762,-2.6245117,-15.258789,0.0,0.0,0.0,87.57202,83.95203,-147.82104
1766904098352,-0.9873047,0.22314453,0.17773438,65.30762,-2.6245117,-15.258789,0.0,0.0,0.0,78.43689,83.375244,-159.97192
1766904098440,-0.87939453,0.11621094,-0.041015625,-6.7749023,-28.564453,2.380371,0.0,0.0,0.0,78.43689,83.375244,-159.97192
1766904098451,-0.87939453,0.11621094,-0.041015625,-6.7749023,-28.564453,2.380371,0.0,0.0,0.0,62.704468,82.61719,178.98926
1766904098539,-0.93066406,0.1430664,-0.047851562,34.179688,1.2207031,-7.6904297,0.0,0.0,0.0,62.704468,82.61719,178.98926
1766904098551,-0.93066406,0.1430664,-0.047851562,34.179688,1.2207031,-7.6904297,0.0,0.0,0.0,56.23352,82.11182,170.77148
1766904098639,-0.98535156,0.15820312,-0.10449219,8.544922,19.28711,-18.615723,0.0,0.0,0.0,56.23352,82.11182,170.77148
1766904098651,-0.98535156,0.15820312,-0.10449219,8.544922,19.28711,-18.615723,0.0,0.0,0.0,64.868774,83.49609,178.28064
1766904098739,-1.1352539,0.107421875,0.04248047,34.729004,23.010254,-21.484375,0.0,0.0,0.0,64.868774,83.49609,178.28064
1766904098750,-1.1352539,0.107421875,0.04248047,34.729004,23.010254,-21.484375,0.0,0.0,0.0,90.92285,85.95154,-157.93945
1766904098839,-1.0361328,-0.15576172,0.11279297,-19.714355,-24.536133,18.005371,0.0,0.0,0.0,90.92285,85.95154,-157.93945
1766904098851,-1.0361328,-0.15576172,0.11279297,-19.714355,-24.536133,18.005371,0.0,0.0,0.0,98.76709,86.572266,-151.74866
1766904098938,-0.9902344,0.075683594,0.08642578,-2.9296875,4.0283203,-1.6479492,0.0,0.0,0.0,98.76709,86.572266,-151.74866
1766904098950,-0.9902344,0.075683594,0.08642578,-2.9296875,4.0283203,-1.6479492,0.0,0.0,0.0,105.424805,86.846924,-142.5586
1766904099038,-0.81396484,-0.06738281,-0.016113281,-19.042969,-2.0141602,4.699707,0.0,0.0,0.0,105.424805,86.846924,-142.5586
1766904099050,-0.81396484,-0.06738281,-0.016113281,-19.042969,-2.0141602,4.699707,0.0,0.0,0.0,84.67163,86.292114,-160.53772
1766904099138,-0.984375,-0.011230469,-0.038085938,-18.859863,-5.065918,7.1411133,0.0,0.0,0.0,84.67163,86.292114,-160.53772
1766904099149,-0.984375,-0.011230469,-0.038085938,-18.859863,-5.065918,7.1411133,0.0,0.0,0.0,79.85962,85.9021,-162.11426
1766904099238,-1.1582031,-0.009277344,-0.12695312,-22.644043,19.470215,4.5166016,0.0,0.0,0.0,79.85962,85.9021,-162.11426
1766904099249,-1.1582031,-0.009277344,-0.12695312,-22.644043,19.470215,4.5166016,0.0,0.0,0.0,83.79822,85.56702,-154.56116
1766904099337,-1.2338867,0.11767578,-0.20654297,2.0751953,42.297363,2.746582,0.0,0.0,0.0,83.79822,85.56702,-154.56116
1766904099349,-1.2338867,0.11767578,-0.20654297,2.0751953,42.297363,2.746582,0.0,0.0,0.0,120.95947,84.74304,-114.80713
1766904099438,-0.765625,0.24365234,0.1484375,-1.5258789,-38.391113,10.437012,0.0,0.0,0.0,120.95947,84.74304,-114.80713
1766904099449,-0.765625,0.24365234,0.1484375,-1.5258789,-38.391113,10.437012,0.0,0.0,0.0,138.9386,83.3313,-97.90466
1766904099537,-0.9223633,0.1694336,0.0859375,56.21338,-4.333496,4.211426,0.0,0.0,0.0,138.9386,83.3313,-97.90466
1766904099548,-0.9223633,0.1694336,0.0859375,56.21338,-4.333496,4.211426,0.0,0.0,0.0,109.08325,83.12805,-129.1333
1766904099637,-0.93115234,0.030761719,-0.0859375,-31.860352,-32.104492,0.7324219,0.0,0.0,0.0,109.08325,83.12805,-129.1333
1766904099648,-0.93115234,0.030761719,-0.0859375,-31.860352,-32.104492,0.7324219,0.0,0.0,0.0,92.37854,83.04016,-149.73816
1766904099736,-0.984375,0.19482422,-0.080566406,-10.681152,-11.230469,-6.7749023,0.0,0.0,0.0,92.37854,83.04016,-149.73816
1766904099748,-0.984375,0.19482422,-0.080566406,-10.681152,-11.230469,-6.7749023,0.0,0.0,0.0,74.67407,83.22693,-165.78369
1766904099836,-0.9692383,0.19238281,-0.16845703,-3.4179688,8.117676,-19.042969,0.0,0.0,0.0,74.67407,83.22693,-165.78369
1766904099847,-0.9692383,0.19238281,-0.16845703,-3.4179688,8.117676,-19.042969,0.0,0.0,0.0,72.86682,84.55078,-167.36023
1766904099936,-1.0717773,0.072753906,-0.18847656,29.663086,10.803223,-18.920898,0.0,0.0,0.0,72.86682,84.55078,-167.36023
1766904099947,-1.0717773,0.072753906,-0.18847656,29.663086,10.803223,-18.920898,0.0,0.0,0.0,89.85718,86.6272,-152.14417
1766904100035,-1.1333008,0.07080078,0.28466797,14.709473,18.127441,-12.329102,0.0,0.0,0.0,89.85718,86.6272,-152.14417
1766904100047,-1.1333008,0.07080078,0.28466797,14.709473,18.127441,-12.329102,0.0,0.0,0.0,143.70117,86.36902,-99.09119
1766904100135,-0.8286133,-0.095703125,0.021484375,-23.132324,-5.065918,8.911133,0.0,0.0,0.0,143.70117,86.36902,-99.09119
1766904100147,-0.8286133,-0.095703125,0.021484375,-23.132324,-5.065918,8.911133,0.0,0.0,0.0,91.14258,86.797485,-150.27649
1766904100235,-1.0019531,0.044921875,0.020507812,-27.46582,-19.042969,12.817383,0.0,0.0,0.0,91.14258,86.797485,-150.27649
1766904100247,-1.0019531,0.044921875,0.020507812,-27.46582,-19.042969,12.817383,0.0,0.0,0.0,86.73706,86.61072,-152.7539
1766904100334,-0.8964844,-0.028808594,0.020019531,-13.73291,-13.244629,2.746582,0.0,0.0,0.0,86.73706,86.61072,-152.7539
1766904100346,-0.8964844,-0.028808594,0.020019531,-13.73291,-13.244629,2.746582,0.0,0.0,0.0,64.65454,85.61096,-172.55127
1766904100434,-1.0029297,-0.03173828,-0.008300781,-16.479492,-16.784668,3.90625,0.0,0.0,0.0,64.65454,85.61096,-172.55127
1766904100446,-1.0029297,-0.03173828,-0.008300781,-16.479492,-16.784668,3.90625,0.0,0.0,0.0,46.323853,84.79248,170.87036
1766904100534,-1.065918,0.0546875,-0.075683594,-5.6762695,22.705078,-0.4272461,0.0,0.0,0.0,46.323853,84.79248,170.87036
1766904100545,-1.065918,0.0546875,-0.075683594,-5.6762695,22.705078,-0.4272461,0.0,0.0,0.0,49.625244,85.36377,176.35803
1766904100634,-1.2011719,0.08691406,-0.1796875,-8.422852,32.65381,18.615723,0.0,0.0,0.0,49.625244,85.36377,176.35803
1766904100645,-1.2011719,0.08691406,-0.1796875,-8.422852,32.65381,18.615723,0.0,0.0,0.0,87.86865,85.319824,-144.25049
1766904100733,-0.8935547,0.16748047,0.2133789,0.6713867,-23.19336,8.666992,0.0,0.0,0.0,87.86865,85.319824,-144.25049
1766904100745,-0.8935547,0.16748047,0.2133789,0.6713867,-23.19336,8.666992,0.0,0.0,0.0,114.488525,84.40796,-118.965454
1766904100833,-0.8027344,0.22216797,0.080566406,45.47119,0.4272461,-0.30517578,0.0,0.0,0.0,114.488525,84.40796,-118.965454
1766904100845,-0.8027344,0.22216797,0.080566406,45.47119,0.4272461,-0.30517578,0.0,0.0,0.0,94.13086,83.864136,-142.30042
1766904100933,-1.0146484,0.046875,-0.02734375,-3.3569336,-36.193848,12.634277,0.0,0.0,0.0,94.13086,83.864136,-142.30042
1766904100945,-1.0146484,0.046875,-0.02734375,-3.3569336,-36.193848,12.634277,0.0,0.0,0.0,82.46338,83.54004,-160.16418
1766904101034,-0.8588867,0.1640625,-0.06347656,41.870117,-8.911133,-9.887695,0.0,0.0,0.0,82.46338,83.54004,-160.16418
1766904101044,-0.8588867,0.1640625,-0.06347656,41.870117,-8.911133,-9.887695,0.0,0.0,0.0,70.36194,83.25989,-174.41895
1766904101132,-0.9951172,0.095703125,-0.08300781,3.6621094,5.126953,-4.211426,0.0,0.0,0.0,70.36194,83.25989,-174.41895
1766904101144,-0.9951172,0.095703125,-0.08300781,3.6621094,5.126953,-4.211426,0.0,0.0,0.0,75.025635,83.567505,-171.29333
1766904101232,-1.2158203,0.13574219,-0.1381836,18.554688,11.413574,-9.82666,0.0,0.0,0.0,75.025635,83.567505,-171.29333
1766904101244,-1.2158203,0.13574219,-0.1381836,18.554688,11.413574,-9.82666,0.0,0.0,0.0,84.30359,84.8584,-162.83386
1766904101332,-0.94091797,0.036621094,0.31103516,-3.8452148,-1.5869141,15.991211,0.0,0.0,0.0,84.30359,84.8584,-162.83386
1766904101343,-0.94091797,0.036621094,0.31103516,-3.8452148,-1.5869141,15.991211,0.0,0.0,0.0,116.74072,85.03967,-132.12158
1766904101432,-0.98339844,0.056152344,-0.028808594,3.0517578,26.672363,-4.699707,0.0,0.0,0.0,116.74072,85.03967,-132.12158
1766904101444,-0.98339844,0.056152344,-0.028808594,3.0517578,26.672363,-4.699707,0.0,0.0,0.0,92.092896,83.85864,-153.3197
1766904101531,-0.8925781,-0.05517578,-0.017578125,-59.020996,-31.61621,36.499023,0.0,0.0,0.0,92.092896,83.85864,-153.3197
1766904101543,-0.8925781,-0.05517578,-0.017578125,-59.020996,-31.61621,36.499023,0.0,0.0,0.0,76.07483,82.27661,-166.86035
1766904101631,-0.92529297,0.099121094,0.015625,-30.944824,-12.451172,5.3710938,0.0,0.0,0.0,76.07483,82.27661,-166.86035
1766904101642,-0.92529297,0.099121094,0.015625,-30.944824,-12.451172,5.3710938,0.0,0.0,0.0,66.84082,81.24939,-171.71082
1766904101731,-1.1264648,0.09277344,9.765625E-4,-0.8544922,7.080078,8.239746,0.0,0.0,0.0,66.84082,81.24939,-171.71082
1766904101742,-1.1264648,0.09277344,9.765625E-4,-0.8544922,7.080078,8.239746,0.0,0.0,0.0,62.297974,80.47485,-173.66089
1766904101831,-1.2573242,0.16699219,-0.16992188,-14.709473,56.82373,11.59668,0.0,0.0,0.0,62.297974,80.47485,-173.66089
1766904101842,-1.2573242,0.16699219,-0.16992188,-14.709473,56.82373,11.59668,0.0,0.0,0.0,84.017944,80.667114,-150.57312
1766904101930,-0.7895508,0.296875,0.21875,2.1362305,-16.723633,-7.751465,0.0,0.0,0.0,84.017944,80.667114,-150.57312
1766904101942,-0.7895508,0.296875,0.21875,2.1362305,-16.723633,-7.751465,0.0,0.0,0.0,114.88953,81.326294,-121.61316
1766904102030,-0.84765625,0.14404297,0.072753906,22.216797,11.230469,-6.1035156,0.0,0.0,0.0,114.88953,81.326294,-121.61316
1766904102041,-0.84765625,0.14404297,0.072753906,22.216797,11.230469,-6.1035156,0.0,0.0,0.0,96.41052,80.6012,-139.3396
1766904102130,-0.9248047,0.09375,-0.064453125,-52.734375,-28.015137,5.065918,0.0,0.0,0.0,96.41052,80.6012,-139.3396
1766904102141,-0.9248047,0.09375,-0.064453125,-52.734375,-28.015137,5.065918,0.0,0.0,0.0,89.609985,81.06262,-148.1012
1766904102229,-0.9663086,0.27294922,-0.12451172,-9.521484,0.7324219,-10.009766,0.0,0.0,0.0,89.609985,81.06262,-148.1012
1766904102241,-0.9663086,0.27294922,-0.12451172,-9.521484,0.7324219,-10.009766,0.0,0.0,0.0,80.200195,81.58447,-156.35193
1766904102329,-0.93603516,0.2548828,-0.17138672,5.493164,5.004883,-8.117676,0.0,0.0,0.0,80.200195,81.58447,-156.35193
1766904102341,-0.93603516,0.2548828,-0.17138672,5.493164,5.004883,-8.117676,0.0,0.0,0.0,82.55127,82.11731,-156.06079
1766904102429,-1.0556641,0.16601562,-0.123046875,27.70996,-1.0375977,-5.3710938,0.0,0.0,0.0,82.55127,82.11731,-156.06079
1766904102440,-1.0556641,0.16601562,-0.123046875,27.70996,-1.0375977,-5.3710938,0.0,0.0,0.0,93.048706,82.78198,-150.72693
1766904102529,-1.2036133,0.24853516,0.21142578,37.78076,13.244629,-9.82666,0.0,0.0,0.0,93.048706,82.78198,-150.72693
1766904102540,-1.2036133,0.24853516,0.21142578,37.78076,13.244629,-9.82666,0.0,0.0,0.0,102.34863,82.27661,-143.31665
1766904102628,-0.9008789,-0.24267578,0.21875,-66.467285,-10.070801,40.527344,0.0,0.0,0.0,102.34863,82.27661,-143.31665
1766904102640,-0.9008789,-0.24267578,0.21875,-66.467285,-10.070801,40.527344,0.0,0.0,0.0,90.64819,80.4364,-155.15991
1766904102728,-0.9350586,0.25683594,0.078125,-20.446777,-5.126953,-6.225586,0.0,0.0,0.0,90.64819,80.4364,-155.15991
1766904102740,-0.9350586,0.25683594,0.078125,-20.446777,-5.126953,-6.225586,0.0,0.0,0.0,89.12659,81.40869,-154.73145
1766904102828,-0.9189453,0.11816406,-0.00390625,-9.521484,-7.1411133,-7.385254,0.0,0.0,0.0,89.12659,81.40869,-154.73145
1766904102839,-0.9189453,0.11816406,-0.00390625,-9.521484,-7.1411133,-7.385254,0.0,0.0,0.0,76.45935,81.0022,-164.44336
1766904102927,-1.0332031,0.09472656,-0.046875,-9.155273,-11.779785,-6.5307617,0.0,0.0,0.0,76.45935,81.0022,-164.44336
1766904102939,-1.0332031,0.09472656,-0.046875,-9.155273,-11.779785,-6.5307617,0.0,0.0,0.0,66.18164,81.21643,-174.87488
1766904103027,-1.0581055,0.11621094,-0.10058594,8.911133,16.418457,4.333496,0.0,0.0,0.0,66.18164,81.21643,-174.87488
1766904103039,-1.0581055,0.11621094,-0.10058594,8.911133,16.418457,4.333496,0.0,0.0,0.0,71.81213,82.040405,-169.85413
1766904103127,-1.3598633,0.20605469,0.12451172,0.8544922,31.433105,20.568848,0.0,0.0,0.0,71.81213,82.040405,-169.85413
1766904103138,-1.3598633,0.20605469,0.12451172,0.8544922,31.433105,20.568848,0.0,0.0,0.0,91.09314,81.156006,-150.94116
1766904103227,-0.6665039,0.28710938,0.032714844,13.366699,-26.611328,10.314941,0.0,0.0,0.0,91.09314,81.156006,-150.94116
1766904103238,-0.6665039,0.28710938,0.032714844,13.366699,-26.611328,10.314941,0.0,0.0,0.0,95.72937,80.842896,-149.85901
1766904103326,-1.1269531,0.056640625,0.18017578,32.958984,-25.268555,4.760742,0.0,0.0,0.0,95.72937,80.842896,-149.85901
1766904103338,-1.1269531,0.056640625,0.18017578,32.958984,-25.268555,4.760742,0.0,0.0,0.0,83.62793,78.8324,-164.7345
1766904103426,-0.82714844,0.2397461,-0.061035156,-0.36621094,-11.59668,-13.122559,0.0,0.0,0.0,83.62793,78.8324,-164.7345
1766904103438,-0.82714844,0.2397461,-0.061035156,-0.36621094,-11.59668,-13.122559,0.0,0.0,0.0,72.03735,79.16199,-177.33032
1766904103526,-0.98291016,0.14892578,-0.076660156,14.770508,-1.159668,-16.784668,0.0,0.0,0.0,72.03735,79.16199,-177.33032
1766904103537,-0.98291016,0.14892578,-0.076660156,14.770508,-1.159668,-16.784668,0.0,0.0,0.0,68.708496,80.112305,177.35779
1766904103625,-1.0136719,0.17285156,-0.10498047,29.11377,10.803223,-25.756836,0.0,0.0,0.0,68.708496,80.112305,177.35779
1766904103637,-1.0136719,0.17285156,-0.10498047,29.11377,10.803223,-25.756836,0.0,0.0,0.0,72.16919,82.35901,-179.97253
1766904103725,-1.3461914,0.19335938,0.33544922,0.0,12.756348,-0.36621094,0.0,0.0,0.0,72.16919,82.35901,-179.97253
1766904103737,-1.3461914,0.19335938,0.33544922,0.0,12.756348,-0.36621094,0.0,0.0,0.0,83.97949,83.4082,-168.38745
1766904103825,-0.8364258,-0.14550781,0.083984375,-48.27881,-21.118164,23.31543,0.0,0.0,0.0,83.97949,83.4082,-168.38745
1766904103836,-0.8364258,-0.14550781,0.083984375,-48.27881,-21.118164,23.31543,0.0,0.0,0.0,80.5188,83.13904,-171.30981
1766904103925,-0.9975586,0.2133789,0.18457031,-23.254395,-13.916016,11.535645,0.0,0.0,0.0,80.5188,83.13904,-171.30981
1766904103936,-0.9975586,0.2133789,0.18457031,-23.254395,-13.916016,11.535645,0.0,0.0,0.0,73.65234,82.924805,-174.41895
1766904104025,-0.9243164,0.04638672,0.019042969,-23.132324,-6.0424805,-1.2817383,0.0,0.0,0.0,73.65234,82.924805,-174.41895
1766904104037,-0.9243164,0.04638672,0.019042969,-23.132324,-6.0424805,-1.2817383,0.0,0.0,0.0,59.93042,80.667114,175.91309
1766904104124,-1.0063477,0.068359375,0.0078125,-1.4038086,-3.4179688,-1.4648438,0.0,0.0,0.0,59.93042,80.667114,175.91309
1766904104136,-1.0063477,0.068359375,0.0078125,-1.4038086,-3.4179688,-1.4648438,0.0,0.0,0.0,55.046997,80.66162,172.73254
1766904104224,-1.09375,0.13330078,-0.03125,17.700195,32.958984,4.0893555,0.0,0.0,0.0,55.046997,80.66162,172.73254
1766904104235,-1.09375,0.13330078,-0.03125,17.700195,32.958984,4.0893555,0.0,0.0,0.0,63.66028,81.89758,-179.4342
1766904104324,-1.3056641,0.21289062,0.18896484,31.066895,60.48584,-4.5776367,0.0,0.0,0.0,63.66028,81.89758,-179.4342
1766904104335,-1.3056641,0.21289062,0.18896484,31.066895,60.48584,-4.5776367,0.0,0.0,0.0,100.305176,81.99097,-143.72864
1766904104423,-0.59521484,0.30273438,-0.123046875,-22.705078,-14.465332,24.047852,0.0,0.0,0.0,100.305176,81.99097,-143.72864
1766904104435,-0.59521484,0.30273438,-0.123046875,-22.705078,-14.465332,24.047852,0.0,0.0,0.0,100.89844,81.46362,-144.47571
1766904104523,-1.0805664,0.13427734,0.111328125,68.481445,-12.817383,-3.90625,0.0,0.0,0.0,100.89844,81.46362,-144.47571
1766904104534,-1.0805664,0.13427734,0.111328125,68.481445,-12.817383,-3.90625,0.0,0.0,0.0,101.07422,80.38147,-148.9856
1766904104623,-0.8574219,0.28222656,-0.11767578,4.211426,-19.714355,4.9438477,0.0,0.0,0.0,101.07422,80.38147,-148.9856
1766904104634,-0.8574219,0.28222656,-0.11767578,4.211426,-19.714355,4.9438477,0.0,0.0,0.0,85.90759,80.12329,-165.31677
1766904104722,-0.9941406,0.18408203,-0.12792969,46.50879,4.1503906,-19.836426,0.0,0.0,0.0,85.90759,80.12329,-165.31677
1766904104734,-0.9941406,0.18408203,-0.12792969,46.50879,4.1503906,-19.836426,0.0,0.0,0.0,87.5885,80.68359,-167.51404
1766904104822,-1.0239258,0.19042969,-0.22216797,41.931152,9.399414,-26.184082,0.0,0.0,0.0,87.5885,80.68359,-167.51404
1766904104834,-1.0239258,0.19042969,-0.22216797,41.931152,9.399414,-26.184082,0.0,0.0,0.0,96.28967,82.66113,-161.5979
1766904104922,-1.347168,0.107421875,0.118652344,31.677246,13.427734,-20.385742,0.0,0.0,0.0,96.28967,82.66113,-161.5979
1766904104933,-1.347168,0.107421875,0.118652344,31.677246,13.427734,-20.385742,0.0,0.0,0.0,119.82239,83.93555,-140.76782
1766904105022,-0.90478516,-0.2890625,0.1303711,-39.245605,-42.84668,23.498535,0.0,0.0,0.0,119.82239,83.93555,-140.76782
1766904105034,-0.90478516,-0.2890625,0.1303711,-39.245605,-42.84668,23.498535,0.0,0.0,0.0,104.05701,83.29834,-154.6106
1766904105121,-0.9868164,0.26904297,0.14257812,-4.760742,-13.85498,-0.12207031,0.0,0.0,0.0,104.05701,83.29834,-154.6106
1766904105133,-0.9868164,0.26904297,0.14257812,-4.760742,-13.85498,-0.12207031,0.0,0.0,0.0,98.02002,84.35303,-157.15393
1766904105221,-0.85058594,-0.04296875,-0.040527344,-29.47998,-5.7373047,14.770508,0.0,0.0,0.0,98.02002,84.35303,-157.15393
1766904105233,-0.85058594,-0.04296875,-0.040527344,-29.47998,-5.7373047,14.770508,0.0,0.0,0.0,74.87732,81.61194,-174.68811
1766904105321,-1.0673828,0.08984375,-0.055664062,-23.986816,-5.126953,11.474609,0.0,0.0,0.0,74.87732,81.61194,-174.68811
1766904105332,-1.0673828,0.08984375,-0.055664062,-23.986816,-5.126953,11.474609,0.0,0.0,0.0,68.81287,80.408936,-176.7041
1766904105421,-1.1479492,0.083984375,-0.053710938,-5.92041,38.33008,10.131836,0.0,0.0,0.0,68.81287,80.408936,-176.7041
1766904105432,-1.1479492,0.083984375,-0.053710938,-5.92041,38.33008,10.131836,0.0,0.0,0.0,82.29309,80.53528,-161.25732
1766904105520,-1.190918,0.26953125,0.1328125,5.1879883,51.3916,-6.958008,0.0,0.0,0.0,82.29309,80.53528,-161.25732
1766904105532,-1.190918,0.26953125,0.1328125,5.1879883,51.3916,-6.958008,0.0,0.0,0.0,116.05408,79.887085,-126.61194
1766904105620,-0.47802734,0.3491211,-0.11035156,-29.724121,-9.460449,17.39502,0.0,0.0,0.0,116.05408,79.887085,-126.61194
1766904105632,-0.47802734,0.3491211,-0.11035156,-29.724121,-9.460449,17.39502,0.0,0.0,0.0,110.80261,79.50256,-131.27014
1766904105720,-1.2333984,0.17578125,0.0234375,58.71582,0.12207031,-0.61035156,0.0,0.0,0.0,110.80261,79.50256,-131.27014
1766904105731,-1.2333984,0.17578125,0.0234375,58.71582,0.12207031,-0.61035156,0.0,0.0,0.0,111.49475,78.22266,-136.47766
1766904105820,-0.86865234,0.29492188,-0.18066406,-25.878906,-31.37207,14.099121,0.0,0.0,0.0,111.49475,78.22266,-136.47766
1766904105831,-0.86865234,0.29492188,-0.18066406,-25.878906,-31.37207,14.099121,0.0,0.0,0.0,97.13562,78.2666,-151.29272
1766904105919,-0.94677734,0.24609375,-0.09375,53.833008,6.8359375,-17.089844,0.0,0.0,0.0,97.13562,78.2666,-151.29272
1766904105931,-0.94677734,0.24609375,-0.09375,53.833008,6.8359375,-17.089844,0.0,0.0,0.0,99.992065,78.92029,-152.72644
1766904106019,-0.9638672,0.1381836,-0.19628906,9.277344,-8.972168,-16.662598,0.0,0.0,0.0,99.992065,78.92029,-152.72644
1766904106031,-0.9638672,0.1381836,-0.19628906,9.277344,-8.972168,-16.662598,0.0,0.0,0.0,99.16809,80.16724,-155.7312
1766904106119,-1.1474609,0.2133789,-0.21386719,7.6293945,10.009766,-19.226074,0.0,0.0,0.0,99.16809,80.16724,-155.7312
1766904106131,-1.1474609,0.2133789,-0.21386719,7.6293945,10.009766,-19.226074,0.0,0.0,0.0,109.29199,81.85913,-146.16211
1766904106218,-0.9370117,0.18847656,0.28076172,3.90625,7.385254,1.2207031,0.0,0.0,0.0,109.29199,81.85913,-146.16211
1766904106230,-0.9370117,0.18847656,0.28076172,3.90625,7.385254,1.2207031,0.0,0.0,0.0,129.16077,82.08435,-127.2052
1766904106318,-1.0244141,0.08935547,-0.08691406,-17.578125,-1.2207031,-17.944336,0.0,0.0,0.0,129.16077,82.08435,-127.2052
1766904106330,-1.0244141,0.08935547,-0.08691406,-17.578125,-1.2207031,-17.944336,0.0,0.0,0.0,104.96887,81.87012,-147.70569
1766904106418,-0.8286133,0.13769531,-0.046875,-34.5459,-30.578613,6.225586,0.0,0.0,0.0,104.96887,81.87012,-147.70569
1766904106430,-0.8286133,0.13769531,-0.046875,-34.5459,-30.578613,6.225586,0.0,0.0,0.0,94.51538,83.02368,-156.95068
1766904106518,-0.9667969,0.05078125,0.0146484375,17.028809,-9.155273,-6.8359375,0.0,0.0,0.0,94.51538,83.02368,-156.95068
1766904106529,-0.9667969,0.05078125,0.0146484375,17.028809,-9.155273,-6.8359375,0.0,0.0,0.0,84.957275,83.463135,-167.43164
1766904106617,-1.0981445,-0.024414062,-0.096191406,-7.507324,1.2207031,4.5776367,0.0,0.0,0.0,84.957275,83.463135,-167.43164
1766904106629,-1.0981445,-0.024414062,-0.096191406,-7.507324,1.2207031,4.5776367,0.0,0.0,0.0,72.65259,82.80945,-178.27515
1766904106717,-1.0458984,0.09472656,-0.17089844,1.2207031,29.174805,1.0986328,0.0,0.0,0.0,72.65259,82.80945,-178.27515
1766904106728,-1.0458984,0.09472656,-0.17089844,1.2207031,29.174805,1.0986328,0.0,0.0,0.0,91.45569,83.463135,-157.47253
1766904106817,-1.2768555,0.265625,0.26611328,26.489258,17.578125,15.258789,0.0,0.0,0.0,91.45569,83.463135,-157.47253
1766904106828,-1.2768555,0.265625,0.26611328,26.489258,17.578125,15.258789,0.0,0.0,0.0,111.14319,81.37573,-137.10938
1766904106916,-0.7236328,0.24609375,-0.09033203,14.160156,-4.3945312,18.859863,0.0,0.0,0.0,111.14319,81.37573,-137.10938
1766904106928,-0.7236328,0.24609375,-0.09033203,14.160156,-4.3945312,18.859863,0.0,0.0,0.0,106.75415,80.25513,-144.0857
1766904107016,-1.1098633,0.037597656,0.13085938,19.65332,-34.606934,6.958008,0.0,0.0,0.0,106.75415,80.25513,-144.0857
1766904107028,-1.1098633,0.037597656,0.13085938,19.65332,-34.606934,6.958008,0.0,0.0,0.0,104.16687,79.43115,-150.71594
1766904107116,-0.8623047,0.23730469,-0.096191406,6.5307617,0.0,-9.338379,0.0,0.0,0.0,104.16687,79.43115,-150.71594
1766904107127,-0.8623047,0.23730469,-0.096191406,6.5307617,0.0,-9.338379,0.0,0.0,0.0,89.23096,79.84314,-164.4928
1766904107216,-1.0063477,0.11376953,-0.13623047,-9.460449,9.765625,-13.061523,0.0,0.0,0.0,89.23096,79.84314,-164.4928
1766904107228,-1.0063477,0.11376953,-0.13623047,-9.460449,9.765625,-13.061523,0.0,0.0,0.0,92.94983,80.68359,-160.61462
1766904107315,-0.9736328,0.18261719,-0.21875,15.991211,16.662598,-33.5083,0.0,0.0,0.0,92.94983,80.68359,-160.61462
1766904107327,-0.9736328,0.18261719,-0.21875,15.991211,16.662598,-33.5083,0.0,0.0,0.0,106.36963,82.56775,-145.59631
1766904107415,-1.3911133,0.109375,-0.12988281,8.300781,20.812988,-21.606445,0.0,0.0,0.0,106.36963,82.56775,-145.59631
1766904107427,-1.3911133,0.109375,-0.12988281,8.300781,20.812988,-21.606445,0.0,0.0,0.0,134.6814,83.93005,-117.960205
1766904107515,-0.7998047,-0.07324219,0.21826172,-38.45215,-23.68164,36.621094,0.0,0.0,0.0,134.6814,83.93005,-117.960205
1766904107526,-0.7998047,-0.07324219,0.21826172,-38.45215,-23.68164,36.621094,0.0,0.0,0.0,140.00427,83.913574,-111.92871
1766904107614,-0.93652344,0.17285156,0.05126953,10.681152,11.230469,-15.014648,0.0,0.0,0.0,140.00427,83.913574,-111.92871
1766904107626,-0.93652344,0.17285156,0.05126953,10.681152,11.230469,-15.014648,0.0,0.0,0.0,119.16321,84.80347,-128.78723
1766904107714,-0.9238281,-0.09765625,-0.024414062,-59.2041,-19.592285,17.63916,0.0,0.0,0.0,119.16321,84.80347,-128.78723
1766904107726,-0.9238281,-0.09765625,-0.024414062,-59.2041,-19.592285,17.63916,0.0,0.0,0.0,83.66089,84.193726,-160.4773
1766904107814,-0.98828125,0.080566406,-0.019042969,-26.733398,-10.314941,-0.7324219,0.0,0.0,0.0,83.66089,84.193726,-160.4773
1766904107825,-0.98828125,0.080566406,-0.019042969,-26.733398,-10.314941,-0.7324219,0.0,0.0,0.0,70.82886,83.72131,-170.24414
1766904107914,-1.1005859,0.06640625,-0.08105469,-13.793945,4.272461,3.7231445,0.0,0.0,0.0,70.82886,83.72131,-170.24414
1766904107925,-1.1005859,0.06640625,-0.08105469,-13.793945,4.272461,3.7231445,0.0,0.0,0.0,63.753662,83.375244,-175.88013
1766904108013,-1.0341797,0.10595703,-0.20214844,-0.18310547,33.325195,14.953613,0.0,0.0,0.0,63.753662,83.375244,-175.88013
1766904108025,-1.0341797,0.10595703,-0.20214844,-0.18310547,33.325195,14.953613,0.0,0.0,0.0,85.53955,83.38623,-154.40186
1766904108113,-1.1674805,0.27978516,0.33789062,27.954102,15.74707,9.460449,0.0,0.0,0.0,85.53955,83.38623,-154.40186
1766904108125,-1.1674805,0.27978516,0.33789062,27.954102,15.74707,9.460449,0.0,0.0,0.0,116.71326,80.892334,-125.63965
1766904108213,-0.7216797,0.25634766,-0.07421875,9.216309,-1.6479492,22.949219,0.0,0.0,0.0,116.71326,80.892334,-125.63965
1766904108225,-0.7216797,0.25634766,-0.07421875,9.216309,-1.6479492,22.949219,0.0,0.0,0.0,103.5791,79.67285,-140.43274
1766904108313,-1.0952148,0.10888672,-0.0048828125,-4.5166016,-36.132812,8.605957,0.0,0.0,0.0,103.5791,79.67285,-140.43274
1766904108324,-1.0952148,0.10888672,-0.0048828125,-4.5166016,-36.132812,8.605957,0.0,0.0,0.0,97.34436,78.359985,-152.18811
1766904108412,-0.79833984,0.3095703,-0.044433594,14.587402,-7.385254,-6.4086914,0.0,0.0,0.0,97.34436,78.359985,-152.18811
1766904108424,-0.79833984,0.3095703,-0.044433594,14.587402,-7.385254,-6.4086914,0.0,0.0,0.0,87.68738,78.601685,-162.18567
1766904108512,-1.0581055,0.1665039,-0.103515625,12.207031,1.4038086,-16.174316,0.0,0.0,0.0,87.68738,78.601685,-162.18567
1766904108524,-1.0581055,0.1665039,-0.103515625,12.207031,1.4038086,-16.174316,0.0,0.0,0.0,86.259155,78.810425,-166.19568
1766904108612,-0.9604492,0.19091797,-0.18310547,7.873535,2.746582,-22.094727,0.0,0.0,0.0,86.259155,78.810425,-166.19568
1766904108623,-0.9604492,0.19091797,-0.18310547,7.873535,2.746582,-22.094727,0.0,0.0,0.0,89.368286,80.8374,-164.29504
1766904108711,-1.2416992,0.27685547,0.27929688,25.45166,23.68164,-11.047363,0.0,0.0,0.0,89.368286,80.8374,-164.29504
1766904108723,-1.2416992,0.27685547,0.27929688,25.45166,23.68164,-11.047363,0.0,0.0,0.0,104.52942,81.77673,-149.58984
1766904108811,-0.9003906,-0.1508789,-0.02734375,-47.668457,-11.291504,24.841309,0.0,0.0,0.0,104.52942,81.77673,-149.58984
1766904108823,-0.9003906,-0.1508789,-0.02734375,-47.668457,-11.291504,24.841309,0.0,0.0,0.0,105.22156,81.56799,-150.22156
1766904108911,-0.9345703,0.30566406,0.13867188,-24.230957,-24.902344,14.587402,0.0,0.0,0.0,105.22156,81.56799,-150.22156
1766904108922,-0.9345703,0.30566406,0.13867188,-24.230957,-24.902344,14.587402,0.0,0.0,0.0,94.44397,81.87561,-158.19763
1766904109011,-0.84277344,-0.017089844,0.036132812,-4.9438477,-3.9672852,-8.117676,0.0,0.0,0.0,94.44397,81.87561,-158.19763
1766904109022,-0.84277344,-0.017089844,0.036132812,-4.9438477,-3.9672852,-8.117676,0.0,0.0,0.0,75.31128,80.3595,-173.93555
1766904109110,-1.1103516,0.12451172,-0.057617188,-35.88867,-12.878418,7.507324,0.0,0.0,0.0,75.31128,80.3595,-173.93555
1766904109122,-1.1103516,0.12451172,-0.057617188,-35.88867,-12.878418,7.507324,0.0,0.0,0.0,62.122192,79.85962,176.83044
1766904109210,-1.0834961,0.11279297,-0.016601562,-0.5493164,20.019531,0.30517578,0.0,0.0,0.0,62.122192,79.85962,176.83044
1766904109221,-1.0834961,0.11279297,-0.016601562,-0.5493164,20.019531,0.30517578,0.0,0.0,0.0,65.80261,80.40344,-177.70935
1766904109310,-1.2578125,0.28955078,0.01171875,-4.3945312,33.447266,2.0751953,0.0,0.0,0.0,65.80261,80.40344,-177.70935
1766904109321,-1.2578125,0.28955078,0.01171875,-4.3945312,33.447266,2.0751953,0.0,0.0,0.0,83.583984,80.74402,-158.24158
1766904109409,-0.75878906,0.43554688,0.16992188,48.40088,-13.916016,5.859375,0.0,0.0,0.0,83.583984,80.74402,-158.24158
1766904109421,-0.75878906,0.43554688,0.16992188,48.40088,-13.916016,5.859375,0.0,0.0,0.0,97.20703,80.57373,-148.70544
1766904109509,-1.215332,-0.09716797,0.1484375,10.803223,-18.371582,15.136719,0.0,0.0,0.0,97.20703,80.57373,-148.70544
1766904109521,-1.215332,-0.09716797,0.1484375,10.803223,-18.371582,15.136719,0.0,0.0,0.0,80.57373,77.11853,-167.2174
1766904109609,-0.75439453,0.30566406,0.034179688,-38.635254,-16.052246,-2.8076172,0.0,0.0,0.0,80.57373,77.11853,-167.2174
1766904109621,-0.75439453,0.30566406,0.034179688,-38.635254,-16.052246,-2.8076172,0.0,0.0,0.0,75.964966,78.25012,-171.75476
1766904109709,-0.97314453,0.2446289,-0.06982422,5.7373047,0.91552734,-11.657715,0.0,0.0,0.0,75.964966,78.25012,-171.75476
1766904109720,-0.97314453,0.2446289,-0.06982422,5.7373047,0.91552734,-11.657715,0.0,0.0,0.0,69.86206,77.41516,-176.58875
1766904109808,-0.9633789,0.2626953,-0.07470703,8.117676,10.925293,-18.676758,0.0,0.0,0.0,69.86206,77.41516,-176.58875
1766904109820,-0.9633789,0.2626953,-0.07470703,8.117676,10.925293,-18.676758,0.0,0.0,0.0,72.50427,78.79944,-175.42969
1766904109908,-1.1118164,0.265625,-0.23291016,26.184082,17.150879,-22.033691,0.0,0.0,0.0,72.50427,78.79944,-175.42969
1766904109920,-1.1118164,0.265625,-0.23291016,26.184082,17.150879,-22.033691,0.0,0.0,0.0,82.666626,81.051636,-169.34875
1766904110008,-1.0805664,0.21679688,0.265625,51.879883,26.245117,-18.005371,0.0,0.0,0.0,82.666626,81.051636,-169.34875
1766904110019,-1.0805664,0.21679688,0.265625,51.879883,26.245117,-18.005371,0.0,0.0,0.0,117.82837,82.908325,-139.41101
1766904110108,-0.84277344,-0.22167969,0.118652344,-33.569336,-20.996094,8.728027,0.0,0.0,0.0,117.82837,82.908325,-139.41101
1766904110119,-0.84277344,-0.22167969,0.118652344,-33.569336,-20.996094,8.728027,0.0,0.0,0.0,94.52637,81.622925,-161.05408
1766904110207,-1.0063477,0.2319336,-0.033691406,-46.447754,-28.320312,36.499023,0.0,0.0,0.0,94.52637,81.622925,-161.05408
1766904110219,-1.0063477,0.2319336,-0.033691406,-46.447754,-28.320312,36.499023,0.0,0.0,0.0,72.20215,80.45288,179.04968
1766904110307,-0.8847656,0.1303711,0.072753906,30.944824,-10.498047,-13.427734,0.0,0.0,0.0,72.20215,80.45288,179.04968
1766904110318,-0.8847656,0.1303711,0.072753906,30.944824,-10.498047,-13.427734,0.0,0.0,0.0,67.71423,79.57947,174.6936
1766904110407,-1.0561523,0.0625,-0.044433594,18.127441,-2.9907227,-4.333496,0.0,0.0,0.0,67.71423,79.57947,174.6936
1766904110418,-1.0561523,0.0625,-0.044433594,18.127441,-2.9907227,-4.333496,0.0,0.0,0.0,60.117188,78.41492,167.77222
1766904110506,-1.0708008,0.04248047,4.8828125E-4,-3.6621094,9.643555,7.6293945,0.0,0.0,0.0,60.117188,78.41492,167.77222
1766904110518,-1.0708008,0.04248047,4.8828125E-4,-3.6621094,9.643555,7.6293945,0.0,0.0,0.0,66.12671,79.65637,173.35327
1766904110606,-1.1640625,0.25,-0.06933594,-0.24414062,34.79004,5.7373047,0.0,0.0,0.0,66.12671,79.65637,173.35327
1766904110618,-1.1640625,0.25,-0.06933594,-0.24414062,34.79004,5.7373047,0.0,0.0,0.0,80.996704,79.974976,-169.20593
1766904110706,-0.92822266,0.17480469,0.18164062,17.089844,2.9907227,9.70459,0.0,0.0,0.0,80.996704,79.974976,-169.20593
1766904110718,-0.92822266,0.17480469,0.18164062,17.089844,2.9907227,9.70459,0.0,0.0,0.0,92.076416,78.349,-157.79114
1766904110806,-0.79248047,0.23925781,0.15576172,4.1503906,-6.7749023,9.216309,0.0,0.0,0.0,92.076416,78.349,-157.79114
1766904110818,-0.79248047,0.23925781,0.15576172,4.1503906,-6.7749023,9.216309,0.0,0.0,0.0,89.63196,77.948,-161.30127
1766904110905,-0.95947266,0.24511719,-0.030761719,-13.73291,-21.728516,-3.6621094,0.0,0.0,0.0,89.63196,77.948,-161.30127
1766904110917,-0.95947266,0.24511719,-0.030761719,-13.73291,-21.728516,-3.6621094,0.0,0.0,0.0,77.645874,77.041626,-173.66638
1766904111005,-0.8886719,0.2915039,0.044921875,11.84082,-18.066406,5.126953,0.0,0.0,0.0,77.645874,77.041626,-173.66638
1766904111018,-0.8886719,0.2915039,0.044921875,11.84082,-18.066406,5.126953,0.0,0.0,0.0,72.99866,76.569214,-179.15405
1766904111105,-0.98095703,0.2626953,-0.060058594,5.9814453,3.479004,-13.427734,0.0,0.0,0.0,72.99866,76.569214,-179.15405
1766904111116,-0.98095703,0.2626953,-0.060058594,5.9814453,3.479004,-13.427734,0.0,0.0,0.0,70.76294,76.37695,178.08838
1766904111205,-1.0546875,0.19433594,-0.095703125,8.605957,-0.18310547,-23.31543,0.0,0.0,0.0,70.76294,76.37695,178.08838
1766904111216,-1.0546875,0.19433594,-0.095703125,8.605957,-0.18310547,-23.31543,0.0,0.0,0.0,73.377686,78.60718,179.599
1766904111304,-1.1557617,0.18603516,-0.05810547,4.3945312,19.40918,-24.719238,0.0,0.0,0.0,73.377686,78.60718,179.599
1766904111316,-1.1557617,0.18603516,-0.05810547,4.3945312,19.40918,-24.719238,0.0,0.0,0.0,76.12976,81.14502,-176.59973
1766904111404,-0.86083984,0.07519531,0.3227539,-5.3710938,6.713867,-14.099121,0.0,0.0,0.0,76.12976,81.14502,-176.59973
1766904111415,-0.86083984,0.07519531,0.3227539,-5.3710938,6.713867,-14.099121,0.0,0.0,0.0,87.22046,83.63342,-164.96521
1766904111504,-1.0087891,0.10644531,0.053222656,-54.016113,-13.061523,0.0,0.0,0.0,0.0,87.22046,83.63342,-164.96521
1766904111515,-1.0087891,0.10644531,0.053222656,-54.016113,-13.061523,0.0,0.0,0.0,0.0,62.13867,82.249146,173.63892
1766904111603,-0.9067383,0.03466797,0.05126953,-21.30127,-21.66748,20.507812,0.0,0.0,0.0,62.13867,82.249146,173.63892
1766904111615,-0.9067383,0.03466797,0.05126953,-21.30127,-21.66748,20.507812,0.0,0.0,0.0,55.145874,81.22742,169.03564
1766904111703,-0.9091797,0.076660156,0.056152344,-27.22168,-11.169434,4.0283203,0.0,0.0,0.0,55.145874,81.22742,169.03564
1766904111715,-0.9091797,0.076660156,0.056152344,-27.22168,-11.169434,4.0283203,0.0,0.0,0.0,51.278687,79.60693,168.38745
1766904111803,-1.1157227,0.1171875,-0.01953125,-6.1035156,-7.507324,7.080078,0.0,0.0,0.0,51.278687,79.60693,168.38745
1766904111814,-1.1157227,0.1171875,-0.01953125,-6.1035156,-7.507324,7.080078,0.0,0.0,0.0,46.071167,78.74451,165.82214
1766904111903,-1.0825195,0.107421875,-0.043945312,37.53662,50.231934,-5.493164,0.0,0.0,0.0,46.071167,78.74451,165.82214
1766904111914,-1.0825195,0.107421875,-0.043945312,37.53662,50.231934,-5.493164,0.0,0.0,0.0,61.38611,80.62317,-177.56104
1766904112002,-1.2832031,0.24609375,0.17333984,18.737793,39.55078,10.437012,0.0,0.0,0.0,61.38611,80.62317,-177.56104
1766904112014,-1.2832031,0.24609375,0.17333984,18.737793,39.55078,10.437012,0.0,0.0,0.0,90.20325,80.826416,-148.79333
1766904112102,-0.68359375,0.30859375,0.016601562,13.916016,-20.935059,6.286621,0.0,0.0,0.0,90.20325,80.826416,-148.79333
1766904112114,-0.68359375,0.30859375,0.016601562,13.916016,-20.935059,6.286621,0.0,0.0,0.0,88.24768,80.13428,-153.52295
1766904112202,-1.0820312,0.095703125,0.14794922,57.434082,-4.272461,-7.8125,0.0,0.0,0.0,88.24768,80.13428,-153.52295
1766904112213,-1.0820312,0.095703125,0.14794922,57.434082,-4.272461,-7.8125,0.0,0.0,0.0,86.64368,79.56299,-159.80164
1766904112301,-0.8378906,0.21972656,-0.057128906,15.014648,-12.573242,-9.94873,0.0,0.0,0.0,86.64368,79.56299,-159.80164
1766904112313,-0.8378906,0.21972656,-0.057128906,15.014648,-12.573242,-9.94873,0.0,0.0,0.0,76.23413,79.77722,-172.18872
1766904112401,-0.9770508,0.1665039,-0.07861328,23.132324,7.080078,-18.737793,0.0,0.0,0.0,76.23413,79.77722,-172.18872
1766904112413,-0.9770508,0.1665039,-0.07861328,23.132324,7.080078,-18.737793,0.0,0.0,0.0,75.789185,80.4364,-173.03467
1766904112501,-0.9946289,0.22216797,-0.14404297,15.930176,5.554199,-25.08545,0.0,0.0,0.0,75.789185,80.4364,-173.03467
1766904112513,-0.9946289,0.22216797,-0.14404297,15.930176,5.554199,-25.08545,0.0,0.0,0.0,83.50708,82.83142,-165.95398
1766904112601,-1.1777344,0.18798828,0.35351562,10.009766,32.65381,-3.3569336,0.0,0.0,0.0,83.50708,82.83142,-165.95398
1766904112612,-1.1777344,0.18798828,0.35351562,10.009766,32.65381,-3.3569336,0.0,0.0,0.0,99.541626,84.138794,-151.72119
1766904112700,-0.9736328,-0.060058594,0.014160156,-28.9917,10.559082,-8.728027,0.0,0.0,0.0,99.541626,84.138794,-151.72119
1766904112712,-0.9736328,-0.060058594,0.014160156,-28.9917,10.559082,-8.728027,0.0,0.0,0.0,89.30786,82.71057,-159.0326
1766904112800,-0.85839844,0.17626953,0.046875,-61.523438,-20.202637,26.123047,0.0,0.0,0.0,89.30786,82.71057,-159.0326
1766904112812,-0.85839844,0.17626953,0.046875,-61.523438,-20.202637,26.123047,0.0,0.0,0.0,77.43713,83.4137,-168.81592
1766904112900,-0.8520508,-0.059570312,0.019042969,-23.742676,1.7700195,4.0283203,0.0,0.0,0.0,77.43713,83.4137,-168.81592
1766904112911,-0.8520508,-0.059570312,0.019042969,-23.742676,1.7700195,4.0283203,0.0,0.0,0.0,70.86182,82.0459,-171.95801
1766904113000,-1.0932617,0.07910156,-0.00390625,-1.7700195,1.5869141,-2.8076172,0.0,0.0,0.0,70.86182,82.0459,-171.95801
1766904113011,-1.0932617,0.07910156,-0.00390625,-1.7700195,1.5869141,-2.8076172,0.0,0.0,0.0,61.083984,80.996704,-178.98926
1766904113099,-1.0336914,0.03173828,-0.114746094,-15.319824,28.442383,1.8920898,0.0,0.0,0.0,61.083984,80.996704,-178.98926
1766904113111,-1.0336914,0.03173828,-0.114746094,-15.319824,28.442383,1.8920898,0.0,0.0,0.0,68.77991,81.92505,-170.22766
1766904113199,-1.2036133,0.33251953,0.33496094,7.8125,32.592773,2.746582,0.0,0.0,0.0,68.77991,81.92505,-170.22766
1766904113211,-1.2036133,0.33251953,0.33496094,7.8125,32.592773,2.746582,0.0,0.0,0.0,92.35657,81.94702,-145.59631
1766904113299,-0.68896484,0.29492188,-0.13134766,3.2348633,-5.2490234,15.50293,0.0,0.0,0.0,92.35657,81.94702,-145.59631
1766904113310,-0.68896484,0.29492188,-0.13134766,3.2348633,-5.2490234,15.50293,0.0,0.0,0.0,90.50537,81.45264,-150.26001
1766904113399,-1.1298828,0.08251953,0.19433594,35.705566,-19.042969,12.756348,0.0,0.0,0.0,90.50537,81.45264,-150.26001
1766904113410,-1.1298828,0.08251953,0.19433594,35.705566,-19.042969,12.756348,0.0,0.0,0.0,92.26868,79.766235,-153.92944
1766904113498,-0.8510742,0.23046875,-0.10253906,-2.4414062,-8.728027,-6.3476562,0.0,0.0,0.0,92.26868,79.766235,-153.92944
1766904113511,-0.8510742,0.23046875,-0.10253906,-2.4414062,-8.728027,-6.3476562,0.0,0.0,0.0,83.358765,79.53003,-163.89404
1766904113598,-0.93066406,0.24853516,-0.111328125,24.047852,-14.099121,-3.8452148,0.0,0.0,0.0,83.358765,79.53003,-163.89404
1766904113610,-0.93066406,0.24853516,-0.111328125,24.047852,-14.099121,-3.8452148,0.0,0.0,0.0,80.354004,79.140015,-168.12378
1766904113698,-0.99121094,0.1772461,-0.083496094,28.259277,5.493164,-17.578125,0.0,0.0,0.0,80.354004,79.140015,-168.12378
1766904113709,-0.99121094,0.1772461,-0.083496094,28.259277,5.493164,-17.578125,0.0,0.0,0.0,86.32507,80.529785,-165.48706
1766904113797,-1.168457,0.1899414,-0.16259766,-0.9765625,1.7089844,-13.977051,0.0,0.0,0.0,86.32507,80.529785,-165.48706
1766904113809,-1.168457,0.1899414,-0.16259766,-0.9765625,1.7089844,-13.977051,0.0,0.0,0.0,89.01123,82.22168,-163.72925
1766904113897,-0.98876953,0.107421875,0.30664062,7.507324,8.178711,-4.8828125,0.0,0.0,0.0,89.01123,82.22168,-163.72925
1766904113909,-0.98876953,0.107421875,0.30664062,7.507324,8.178711,-4.8828125,0.0,0.0,0.0,103.93616,83.04016,-149.82605
1766904113997,-0.99609375,0.079589844,0.0068359375,-21.728516,17.333984,-6.8969727,0.0,0.0,0.0,103.93616,83.04016,-149.82605
1766904114008,-0.99609375,0.079589844,0.0068359375,-21.728516,17.333984,-6.8969727,0.0,0.0,0.0,88.00598,82.33154,-162.04285
1766904114097,-0.8408203,0.063964844,-0.013183594,-36.43799,-14.038086,13.793945,0.0,0.0,0.0,88.00598,82.33154,-162.04285
1766904114108,-0.8408203,0.063964844,-0.013183594,-36.43799,-14.038086,13.793945,0.0,0.0,0.0,83.77075,82.41943,-164.36096
1766904114196,-1.0151367,0.040039062,-0.037109375,-16.479492,-11.779785,0.30517578,0.0,0.0,0.0,83.77075,82.41943,-164.36096
1766904114208,-1.0151367,0.040039062,-0.037109375,-16.479492,-11.779785,0.30517578,0.0,0.0,0.0,74.91028,81.83716,-170.24963
1766904114296,-1.0253906,0.045410156,-0.05859375,-9.094238,10.620117,3.4179688,0.0,0.0,0.0,74.91028,81.83716,-170.24963
1766904114308,-1.0253906,0.045410156,-0.05859375,-9.094238,10.620117,3.4179688,0.0,0.0,0.0,74.8114,82.08435,-168.8269
1766904114396,-1.3085938,0.2319336,-0.115234375,-14.526367,23.925781,28.076172,0.0,0.0,0.0,74.8114,82.08435,-168.8269
1766904114408,-1.3085938,0.2319336,-0.115234375,-14.526367,23.925781,28.076172,0.0,0.0,0.0,91.120605,81.16699,-151.28723
1766904114496,-0.7661133,0.3046875,0.114746094,14.160156,-1.953125,1.5258789,0.0,0.0,0.0,91.120605,81.16699,-151.28723
1766904114508,-0.7661133,0.3046875,0.114746094,14.160156,-1.953125,1.5258789,0.0,0.0,0.0,102.36511,80.25513,-141.5149
1766904114595,-0.85546875,0.25830078,0.11425781,36.43799,-8.056641,15.441895,0.0,0.0,0.0,102.36511,80.25513,-141.5149
1766904114607,-0.85546875,0.25830078,0.11425781,36.43799,-8.056641,15.441895,0.0,0.0,0.0,96.04797,78.46985,-149.61182
1766904114695,-0.92626953,0.19042969,-0.0859375,-0.8544922,-9.460449,-0.30517578,0.0,0.0,0.0,96.04797,78.46985,-149.61182
1766904114707,-0.92626953,0.19042969,-0.0859375,-0.8544922,-9.460449,-0.30517578,0.0,0.0,0.0,89.58252,77.56348,-159.2688
1766904114795,-0.8696289,0.2685547,-0.0859375,20.629883,-6.4697266,-0.9765625,0.0,0.0,0.0,89.58252,77.56348,-159.2688
1766904114806,-0.8696289,0.2685547,-0.0859375,20.629883,-6.4697266,-0.9765625,0.0,0.0,0.0,85.92407,77.26135,-163.30078
1766904114895,-0.99121094,0.27392578,-0.17822266,-4.0893555,-6.8969727,-4.638672,0.0,0.0,0.0,85.92407,77.26135,-163.30078
1766904114906,-0.99121094,0.27392578,-0.17822266,-4.0893555,-6.8969727,-4.638672,0.0,0.0,0.0,85.75928,77.55249,-165.07507
1766904114994,-1.0922852,0.19091797,-0.18261719,42.053223,10.620117,-30.517578,0.0,0.0,0.0,85.75928,77.55249,-165.07507
1766904115006,-1.0922852,0.19091797,-0.18261719,42.053223,10.620117,-30.517578,0.0,0.0,0.0,92.90039,79.60144,-160.68054
1766904115094,-1.1000977,0.24169922,0.22070312,49.194336,28.625488,-37.04834,0.0,0.0,0.0,92.90039,79.60144,-160.68054
1766904115106,-1.1000977,0.24169922,0.22070312,49.194336,28.625488,-37.04834,0.0,0.0,0.0,115.93872,81.78772,-139.2627
1766904115194,-0.9121094,-0.13330078,-0.026855469,-41.68701,-1.4038086,12.390137,0.0,0.0,0.0,115.93872,81.78772,-139.2627
1766904115205,-0.9121094,-0.13330078,-0.026855469,-41.68701,-1.4038086,12.390137,0.0,0.0,0.0,114.104004,82.056885,-139.9878
1766904115293,-0.87890625,0.17773438,0.01953125,-26.97754,-31.61621,9.521484,0.0,0.0,0.0,114.104004,82.056885,-139.9878
1766904115305,-0.87890625,0.17773438,0.01953125,-26.97754,-31.61621,9.521484,0.0,0.0,0.0,109.14917,82.61719,-143.12988
1766904115393,-0.9145508,0.01953125,-0.024902344,-15.319824,-5.79834,-0.24414062,0.0,0.0,0.0,109.14917,82.61719,-143.12988
1766904115405,-0.9145508,0.01953125,-0.024902344,-15.319824,-5.79834,-0.24414062,0.0,0.0,0.0,89.29138,82.19971,-158.95569
1766904115493,-1.0532227,0.032714844,-0.09375,-4.3945312,5.859375,-1.953125,0.0,0.0,0.0,89.29138,82.19971,-158.95569
1766904115504,-1.0532227,0.032714844,-0.09375,-4.3945312,5.859375,-1.953125,0.0,0.0,0.0,84.79248,82.58972,-161.33423
1766904115593,-1.09375,0.083984375,-0.16357422,-8.728027,36.071777,9.277344,0.0,0.0,0.0,84.79248,82.58972,-161.33423
1766904115604,-1.09375,0.083984375,-0.16357422,-8.728027,36.071777,9.277344,0.0,0.0,0.0,104.87549,82.23816,-139.22974
1766904115692,-1.1196289,0.34716797,0.2680664,20.324707,27.282715,7.9956055,0.0,0.0,0.0,104.87549,82.23816,-139.22974
1766904115704,-1.1196289,0.34716797,0.2680664,20.324707,27.282715,7.9956055,0.0,0.0,0.0,128.2489,80.04639,-116.09802
1766904115792,-0.8051758,0.25878906,-0.24707031,-14.160156,9.82666,27.832031,0.0,0.0,0.0,128.2489,80.04639,-116.09802
1766904115804,-0.8051758,0.25878906,-0.24707031,-14.160156,9.82666,27.832031,0.0,0.0,0.0,111.40686,79.211426,-133.28064
1766904115892,-1.0170898,0.106933594,0.083496094,25.45166,-11.84082,3.2958984,0.0,0.0,0.0,111.40686,79.211426,-133.28064
1766904115904,-1.0170898,0.106933594,0.083496094,25.45166,-11.84082,3.2958984,0.0,0.0,0.0,118.54797,78.343506,-132.03369
1766904115992,-0.91552734,0.22607422,-0.15283203,-3.6010742,3.4179688,5.6762695,0.0,0.0,0.0,118.54797,78.343506,-132.03369
1766904116004,-0.91552734,0.22607422,-0.15283203,-3.6010742,3.4179688,5.6762695,0.0,0.0,0.0,105.34241,78.392944,-144.38232
1766904116091,-0.94628906,0.23876953,-0.21533203,2.6855469,2.1362305,-5.9814453,0.0,0.0,0.0,105.34241,78.392944,-144.38232
1766904116103,-0.94628906,0.23876953,-0.21533203,2.6855469,2.1362305,-5.9814453,0.0,0.0,0.0,103.65051,78.33801,-145.54688
1766904116191,-0.97509766,0.16015625,-0.19238281,32.165527,8.056641,-15.136719,0.0,0.0,0.0,103.65051,78.33801,-145.54688
1766904116202,-0.97509766,0.16015625,-0.19238281,32.165527,8.056641,-15.136719,0.0,0.0,0.0,111.47278,78.9093,-138.88367
1766904116291,-1.2182617,0.16601562,-0.2421875,-5.3710938,-0.91552734,-4.5166016,0.0,0.0,0.0,111.47278,78.9093,-138.88367
1766904116302,-1.2182617,0.16601562,-0.2421875,-5.3710938,-0.91552734,-4.5166016,0.0,0.0,0.0,117.323,79.524536,-133.6377
1766904116391,-0.8466797,0.13964844,0.104003906,6.1035156,-0.36621094,4.272461,0.0,0.0,0.0,117.323,79.524536,-133.6377
1766904116402,-0.8466797,0.13964844,0.104003906,6.1035156,-0.36621094,4.272461,0.0,0.0,0.0,125.24963,79.694824,-126.848145
1766904116490,-1.0371094,-0.0034179688,0.15429688,-13.916016,5.6152344,-7.751465,0.0,0.0,0.0,125.24963,79.694824,-126.848145
1766904116502,-1.0371094,-0.0034179688,0.15429688,-13.916016,5.6152344,-7.751465,0.0,0.0,0.0,121.42639,78.255615,-127.96326
1766904116590,-0.83935547,0.072753906,-0.15722656,-68.725586,-24.414062,13.61084,0.0,0.0,0.0,121.42639,78.255615,-127.96326
1766904116601,-0.83935547,0.072753906,-0.15722656,-68.725586,-24.414062,13.61084,0.0,0.0,0.0,100.72815,78.53027,-144.21753
1766904116690,-0.9980469,0.16015625,-0.08886719,-41.015625,-14.770508,8.544922,0.0,0.0,0.0,100.72815,78.53027,-144.21753
1766904116701,-0.9980469,0.16015625,-0.08886719,-41.015625,-14.770508,8.544922,0.0,0.0,0.0,94.89441,78.74451,-147.42004
1766904116789,-1.0107422,0.21484375,-0.072753906,11.352539,27.038574,0.0,0.0,0.0,0.0,94.89441,78.74451,-147.42004
1766904116801,-1.0107422,0.21484375,-0.072753906,11.352539,27.038574,0.0,0.0,0.0,0.0,90.88989,78.44238,-149.28223
1766904116889,-1.3798828,0.25878906,0.1508789,31.61621,54.44336,-7.3242188,0.0,0.0,0.0,90.88989,78.44238,-149.28223
1766904116901,-1.3798828,0.25878906,0.1508789,31.61621,54.44336,-7.3242188,0.0,0.0,0.0,114.730225,77.44263,-128.24341
1766904116989,-0.68310547,0.5,-0.18066406,-63.354492,1.4648438,14.282227,0.0,0.0,0.0,114.730225,77.44263,-128.24341
1766904117000,-0.68310547,0.5,-0.18066406,-63.354492,1.4648438,14.282227,0.0,0.0,0.0,105.633545,76.9812,-137.14783
1766904117089,-0.9350586,0.17089844,0.111816406,115.17334,52.67334,-33.38623,0.0,0.0,0.0,105.633545,76.9812,-137.14783
1766904117100,-0.9350586,0.17089844,0.111816406,115.17334,52.67334,-33.38623,0.0,0.0,0.0,114.37866,76.744995,-133.98376
1766904117189,-0.9033203,0.29101562,-0.09082031,-57.373047,-14.465332,32.043457,0.0,0.0,0.0,114.37866,76.744995,-133.98376
1766904117200,-0.9033203,0.29101562,-0.09082031,-57.373047,-14.465332,32.043457,0.0,0.0,0.0,106.710205,76.48682,-141.59729
1766904117288,-0.88378906,0.32910156,-0.14160156,25.390625,-1.2207031,-4.760742,0.0,0.0,0.0,106.710205,76.48682,-141.59729
1766904117299,-0.88378906,0.32910156,-0.14160156,25.390625,-1.2207031,-4.760742,0.0,0.0,0.0,100.80505,75.34973,-147.02454
1766904117388,-0.92871094,0.1796875,-0.10986328,13.916016,-7.1411133,-7.1411133,0.0,0.0,0.0,100.80505,75.34973,-147.02454
1766904117399,-0.92871094,0.1796875,-0.10986328,13.916016,-7.1411133,-7.1411133,0.0,0.0,0.0,103.29895,75.4541,-147.50244
1766904117487,-0.99658203,0.28173828,-0.22998047,4.638672,-11.352539,-9.338379,0.0,0.0,0.0,103.29895,75.4541,-147.50244
1766904117499,-0.99658203,0.28173828,-0.22998047,4.638672,-11.352539,-9.338379,0.0,0.0,0.0,101.19507,76.48682,-150.29846
1766904117587,-1.140625,0.20458984,-0.24169922,15.625,0.6713867,-12.573242,0.0,0.0,0.0,101.19507,76.48682,-150.29846
1766904117598,-1.140625,0.20458984,-0.24169922,15.625,0.6713867,-12.573242,0.0,0.0,0.0,104.15588,77.596436,-149.15588
1766904117687,-0.8730469,0.22167969,0.1616211,18.920898,3.6621094,1.7089844,0.0,0.0,0.0,104.15588,77.596436,-149.15588
1766904117698,-0.8730469,0.22167969,0.1616211,18.920898,3.6621094,1.7089844,0.0,0.0,0.0,108.89099,78.04138,-145.90393
1766904117786,-0.94140625,-0.076171875,0.084472656,-17.089844,7.507324,4.0283203,0.0,0.0,0.0,108.89099,78.04138,-145.90393
1766904117798,-0.94140625,-0.076171875,0.084472656,-17.089844,7.507324,4.0283203,0.0,0.0,0.0,107.80884,77.11304,-146.7334
1766904117886,-0.9345703,0.22070312,-0.10498047,-62.316895,-4.8828125,24.047852,0.0,0.0,0.0,107.80884,77.11304,-146.7334
1766904117898,-0.9345703,0.22070312,-0.10498047,-62.316895,-4.8828125,24.047852,0.0,0.0,0.0,94.696655,76.04736,-155.86304
1766904117986,-0.9394531,0.18896484,-0.022460938,-11.474609,-4.3945312,-7.6904297,0.0,0.0,0.0,94.696655,76.04736,-155.86304
1766904117997,-0.9394531,0.18896484,-0.022460938,-11.474609,-4.3945312,-7.6904297,0.0,0.0,0.0,91.587524,76.63513,-157.44507
1766904118086,-1.0024414,0.16210938,-0.09375,-12.634277,6.286621,-2.9296875,0.0,0.0,0.0,91.587524,76.63513,-157.44507
1766904118097,-1.0024414,0.16210938,-0.09375,-12.634277,6.286621,-2.9296875,0.0,0.0,0.0,86.75903,76.48132,-159.16443
1766904118185,-1.0708008,0.09863281,-0.203125,17.028809,43.395996,0.36621094,0.0,0.0,0.0,86.75903,76.48132,-159.16443
1766904118197,-1.0708008,0.09863281,-0.203125,17.028809,43.395996,0.36621094,0.0,0.0,0.0,101.101685,76.65161,-144.91516
1766904118285,-1.0517578,0.5058594,0.2861328,9.277344,22.827148,-1.7700195,0.0,0.0,0.0,101.101685,76.65161,-144.91516
1766904118297,-1.0517578,0.5058594,0.2861328,9.277344,22.827148,-1.7700195,0.0,0.0,0.0,120.6134,75.91553,-125.93628
1766904118385,-0.83984375,0.265625,-0.12695312,32.77588,-6.164551,4.5776367,0.0,0.0,0.0,120.6134,75.91553,-125.93628
1766904118396,-0.83984375,0.265625,-0.12695312,32.77588,-6.164551,4.5776367,0.0,0.0,0.0,110.494995,75.2948,-137.47742
1766904118485,-0.90283203,0.06347656,4.8828125E-4,-2.5024414,-23.254395,-1.4648438,0.0,0.0,0.0,110.494995,75.2948,-137.47742
1766904118496,-0.90283203,0.06347656,4.8828125E-4,-2.5024414,-23.254395,-1.4648438,0.0,0.0,0.0,114.91699,76.448364,-138.4497
1766904118584,-0.97802734,0.3388672,-0.099609375,-46.50879,-9.94873,13.183594,0.0,0.0,0.0,114.91699,76.448364,-138.4497
1766904118596,-0.97802734,0.3388672,-0.099609375,-46.50879,-9.94873,13.183594,0.0,0.0,0.0,101.37634,76.69006,-149.34814
1766904118684,-0.9296875,0.23925781,-0.16064453,8.422852,3.9672852,-17.63916,0.0,0.0,0.0,101.37634,76.69006,-149.34814
1766904118695,-0.9296875,0.23925781,-0.16064453,8.422852,3.9672852,-17.63916,0.0,0.0,0.0,101.45325,77.733765,-149.74915
1766904118784,-0.9902344,0.20947266,-0.21484375,14.160156,3.112793,-17.456055,0.0,0.0,0.0,101.45325,77.733765,-149.74915
1766904118795,-0.9902344,0.20947266,-0.21484375,14.160156,3.112793,-17.456055,0.0,0.0,0.0,105.06775,78.85437,-146.70044
1766904118883,-1.0986328,0.11376953,-0.20800781,11.169434,13.73291,-26.672363,0.0,0.0,0.0,105.06775,78.85437,-146.70044
1766904118895,-1.0986328,0.11376953,-0.20800781,11.169434,13.73291,-26.672363,0.0,0.0,0.0,120.08606,80.09033,-132.84119
1766904118983,-1.0097656,0.26904297,0.072753906,24.475098,2.319336,-20.690918,0.0,0.0,0.0,120.08606,80.09033,-132.84119
1766904118995,-1.0097656,0.26904297,0.072753906,24.475098,2.319336,-20.690918,0.0,0.0,0.0,139.8999,80.8374,-113.670044
1766904119083,-0.82666016,-0.05859375,0.12646484,-13.793945,13.305664,5.9814453,0.0,0.0,0.0,139.8999,80.8374,-113.670044
1766904119094,-0.82666016,-0.05859375,0.12646484,-13.793945,13.305664,5.9814453,0.0,0.0,0.0,139.5044,81.068115,-113.93921
1766904119183,-0.95703125,0.119628906,-0.1303711,-44.677734,-27.893066,9.765625,0.0,0.0,0.0,139.5044,81.068115,-113.93921
1766904119195,-0.95703125,0.119628906,-0.1303711,-44.677734,-27.893066,9.765625,0.0,0.0,0.0,123.84888,82.63367,-127.0459
1766904119282,-0.92285156,0.08691406,-0.048339844,-15.380859,-12.084961,2.5024414,0.0,0.0,0.0,123.84888,82.63367,-127.0459
1766904119294,-0.92285156,0.08691406,-0.048339844,-15.380859,-12.084961,2.5024414,0.0,0.0,0.0,118.21838,83.24341,-131.14929
1766904119383,-1.0004883,0.026855469,-0.09277344,3.8452148,-21.484375,1.159668,0.0,0.0,0.0,118.21838,83.24341,-131.14929
1766904119394,-1.0004883,0.026855469,-0.09277344,3.8452148,-21.484375,1.159668,0.0,0.0,0.0,98.45398,83.55652,-149.88098
1766904119482,-1.1030273,0.018554688,-0.13427734,6.591797,27.832031,-2.9296875,0.0,0.0,0.0,98.45398,83.55652,-149.88098
1766904119493,-1.1030273,0.018554688,-0.13427734,6.591797,27.832031,-2.9296875,0.0,0.0,0.0,100.71167,83.40271,-146.23352
1766904119582,-1.4091797,0.17529297,4.8828125E-4,-9.460449,27.58789,15.686035,0.0,0.0,0.0,100.71167,83.40271,-146.23352
1766904119593,-1.4091797,0.17529297,4.8828125E-4,-9.460449,27.58789,15.686035,0.0,0.0,0.0,119.88281,81.45813,-125.48035
1766904119681,-0.61328125,0.33691406,0.001953125,1.953125,-14.465332,-6.225586,0.0,0.0,0.0,119.88281,81.45813,-125.48035
1766904119693,-0.61328125,0.33691406,0.001953125,1.953125,-14.465332,-6.225586,0.0,0.0,0.0,118.87756,81.63391,-126.37024
1766904119781,-1.1181641,0.10644531,0.095214844,61.09619,-16.479492,0.48828125,0.0,0.0,0.0,118.87756,81.63391,-126.37024
1766904119793,-1.1181641,0.10644531,0.095214844,61.09619,-16.479492,0.48828125,0.0,0.0,0.0,106.78711,81.502075,-141.95984
1766904119881,-0.87060547,0.1694336,-0.14111328,0.9765625,-10.803223,-4.8828125,0.0,0.0,0.0,106.78711,81.502075,-141.95984
1766904119892,-0.87060547,0.1694336,-0.14111328,0.9765625,-10.803223,-4.8828125,0.0,0.0,0.0,96.93237,81.84265,-153.3252
1766904119980,-0.98291016,0.12451172,-0.088378906,23.4375,6.652832,-13.122559,0.0,0.0,0.0,96.93237,81.84265,-153.3252
1766904119992,-0.98291016,0.12451172,-0.088378906,23.4375,6.652832,-13.122559,0.0,0.0,0.0,99.70093,82.17224,-151.01257
1766904120083,-1.0039062,0.14208984,-0.171875,1.0375977,0.6713867,-10.620117,0.0,0.0,0.0,99.70093,82.17224,-151.01257
1766904120092,-1.0039062,0.14208984,-0.171875,1.0375977,0.6713867,-10.620117,0.0,0.0,0.0,106.57837,83.13904,-144.49219
1766904120181,-1.3076172,0.111816406,-0.1875,25.390625,18.127441,-13.977051,0.0,0.0,0.0,106.57837,83.13904,-144.49219
1766904120192,-1.3076172,0.111816406,-0.1875,25.390625,18.127441,-13.977051,0.0,0.0,0.0,121.569214,84.2157,-130.36377
1766904120280,-0.85546875,-0.017089844,0.20019531,-20.385742,-10.375977,16.235352,0.0,0.0,0.0,121.569214,84.2157,-130.36377
1766904120291,-0.85546875,-0.017089844,0.20019531,-20.385742,-10.375977,16.235352,0.0,0.0,0.0,139.50989,83.688354,-113.16467
1766904120379,-1.0112305,0.084472656,0.110839844,-11.779785,-2.2583008,-10.192871,0.0,0.0,0.0,139.50989,83.688354,-113.16467
1766904120391,-1.0112305,0.084472656,0.110839844,-11.779785,-2.2583008,-10.192871,0.0,0.0,0.0,118.59741,83.913574,-130.22095
1766904120479,-0.90527344,-0.008300781,-0.05419922,-39.123535,-14.343262,13.549805,0.0,0.0,0.0,118.59741,83.913574,-130.22095
1766904120491,-0.90527344,-0.008300781,-0.05419922,-39.123535,-14.343262,13.549805,0.0,0.0,0.0,90.57678,84.11682,-154.89075
1766904120579,-0.95996094,0.044921875,-0.043945312,-29.418945,-16.723633,-2.2583008,0.0,0.0,0.0,90.57678,84.11682,-154.89075
1766904120590,-0.95996094,0.044921875,-0.043945312,-29.418945,-16.723633,-2.2583008,0.0,0.0,0.0,75.76721,84.0509,-166.22314
1766904120678,-1.0830078,0.03125,-0.05029297,-4.8828125,22.766113,1.0986328,0.0,0.0,0.0,75.76721,84.0509,-166.22314
1766904120691,-1.0830078,0.03125,-0.05029297,-4.8828125,22.766113,1.0986328,0.0,0.0,0.0,73.6853,84.243164,-166.14075
1766904120778,-1.2827148,0.10498047,-0.119628906,-6.958008,44.067383,8.483887,0.0,0.0,0.0,73.6853,84.243164,-166.14075
1766904120790,-1.2827148,0.10498047,-0.119628906,-6.958008,44.067383,8.483887,0.0,0.0,0.0,104.990845,83.743286,-133.52234
1766904120878,-0.6459961,0.34570312,0.19091797,-9.70459,-41.381836,18.127441,0.0,0.0,0.0,104.990845,83.743286,-133.52234
1766904120889,-0.6459961,0.34570312,0.19091797,-9.70459,-41.381836,18.127441,0.0,0.0,0.0,117.927246,82.86438,-121.849365
1766904120978,-1.2661133,0.103027344,0.029296875,86.120605,29.23584,-16.601562,0.0,0.0,0.0,117.927246,82.86438,-121.849365
1766904120989,-1.2661133,0.103027344,0.029296875,86.120605,29.23584,-16.601562,0.0,0.0,0.0,101.46423,80.304565,-140.26794
1766904121077,-0.7216797,0.21533203,-0.07128906,-49.560547,-51.696777,13.61084,0.0,0.0,0.0,101.46423,80.304565,-140.26794
1766904121089,-0.7216797,0.21533203,-0.07128906,-49.560547,-51.696777,13.61084,0.0,0.0,0.0,109.14368,80.321045,-135.18677
1766904121177,-0.99121094,0.27001953,-0.1484375,-8.178711,-0.6713867,-0.24414062,0.0,0.0,0.0,109.14368,80.321045,-135.18677
1766904121189,-0.99121094,0.27001953,-0.1484375,-8.178711,-0.6713867,-0.24414062,0.0,0.0,0.0,94.13635,78.95325,-146.85425
1766904121277,-0.9580078,0.22998047,-0.16113281,-1.5258789,-4.211426,-5.92041,0.0,0.0,0.0,94.13635,78.95325,-146.85425
1766904121289,-0.9580078,0.22998047,-0.16113281,-1.5258789,-4.211426,-5.92041,0.0,0.0,0.0,96.970825,79.365234,-145.83801
1766904121377,-1.078125,0.20361328,-0.23632812,44.25049,4.211426,-25.756836,0.0,0.0,0.0,96.970825,79.365234,-145.83801
1766904121389,-1.078125,0.20361328,-0.23632812,44.25049,4.211426,-25.756836,0.0,0.0,0.0,103.342896,80.50232,-142.73438
1766904121476,-1.1401367,0.20361328,0.09667969,32.348633,-4.760742,-15.686035,0.0,0.0,0.0,103.342896,80.50232,-142.73438
1766904121488,-1.1401367,0.20361328,0.09667969,32.348633,-4.760742,-15.686035,0.0,0.0,0.0,109.79187,81.760254,-139.83398
1766904121576,-0.8754883,-0.099121094,0.14794922,-29.052734,-16.418457,18.737793,0.0,0.0,0.0,109.79187,81.760254,-139.83398
1766904121588,-0.8754883,-0.099121094,0.14794922,-29.052734,-16.418457,18.737793,0.0,0.0,0.0,108.37463,81.4801,-142.21802
1766904121676,-1.0322266,0.28515625,0.0024414062,-17.27295,-8.300781,2.4414062,0.0,0.0,0.0,108.37463,81.4801,-142.21802
1766904121687,-1.0322266,0.28515625,0.0024414062,-17.27295,-8.300781,2.4414062,0.0,0.0,0.0,89.90662,81.56799,-158.2251
1766904121776,-0.81884766,0.020507812,0.013671875,5.126953,-8.361816,-10.314941,0.0,0.0,0.0,89.90662,81.56799,-158.2251
1766904121787,-0.81884766,0.020507812,0.013671875,5.126953,-8.361816,-10.314941,0.0,0.0,0.0,82.27661,81.5625,-165.12451
1766904121875,-1.0625,0.08154297,-0.045898438,-24.780273,-20.507812,0.0,0.0,0.0,0.0,82.27661,81.5625,-165.12451
1766904121887,-1.0625,0.08154297,-0.045898438,-24.780273,-20.507812,0.0,0.0,0.0,0.0,64.96216,81.414185,-179.97253
1766904121975,-1.065918,0.08105469,-0.05908203,10.559082,38.391113,-2.0141602,0.0,0.0,0.0,64.96216,81.414185,-179.97253
1766904121987,-1.065918,0.08105469,-0.05908203,10.559082,38.391113,-2.0141602,0.0,0.0,0.0,69.208374,82.31506,-174.58374
1766904122075,-1.2329102,0.18066406,-0.1459961,-6.8359375,49.621582,18.005371,0.0,0.0,0.0,69.208374,82.31506,-174.58374
1766904122086,-1.2329102,0.18066406,-0.1459961,-6.8359375,49.621582,18.005371,0.0,0.0,0.0,104.94141,81.760254,-137.8949
1766904122175,-0.8491211,0.28271484,0.13916016,-9.521484,-16.662598,14.587402,0.0,0.0,0.0,104.94141,81.760254,-137.8949
1766904122186,-0.8491211,0.28271484,0.13916016,-9.521484,-16.662598,14.587402,0.0,0.0,0.0,117.81189,79.74426,-125.392456
1766904122274,-0.8852539,0.25683594,0.11230469,32.65381,-8.361816,11.291504,0.0,0.0,0.0,117.81189,79.74426,-125.392456
1766904122286,-0.8852539,0.25683594,0.11230469,32.65381,-8.361816,11.291504,0.0,0.0,0.0,105.128174,78.53577,-139.46594
1766904122374,-0.8964844,0.15234375,-0.119140625,-0.4272461,-28.747559,-1.2817383,0.0,0.0,0.0,105.128174,78.53577,-139.46594
1766904122385,-0.8964844,0.15234375,-0.119140625,-0.4272461,-28.747559,-1.2817383,0.0,0.0,0.0,91.47766,78.76099,-156.90125
1766904122473,-0.93847656,0.20800781,-0.111816406,24.169922,-14.160156,-12.573242,0.0,0.0,0.0,91.47766,78.76099,-156.90125
1766904122485,-0.93847656,0.20800781,-0.111816406,24.169922,-14.160156,-12.573242,0.0,0.0,0.0,81.831665,79.27734,-168.04138
1766904122573,-1.0068359,0.21044922,-0.14550781,21.850586,4.211426,-27.893066,0.0,0.0,0.0,81.831665,79.27734,-168.04138
1766904122585,-1.0068359,0.21044922,-0.14550781,21.850586,4.211426,-27.893066,0.0,0.0,0.0,83.6499,81.33179,-168.00293
1766904122673,-1.1201172,0.10058594,-0.15673828,26.000977,9.643555,-24.108887,0.0,0.0,0.0,83.6499,81.33179,-168.00293
1766904122685,-1.1201172,0.10058594,-0.15673828,26.000977,9.643555,-24.108887,0.0,0.0,0.0,98.78906,84.2926,-155.86853
1766904122773,-0.9511719,0.14746094,0.32177734,10.7421875,19.104004,-5.554199,0.0,0.0,0.0,98.78906,84.2926,-155.86853
1766904122784,-0.9511719,0.14746094,0.32177734,10.7421875,19.104004,-5.554199,0.0,0.0,0.0,148.0957,84.72656,-108.01758
1766904122873,-1.0356445,-0.11816406,-0.029785156,-44.37256,3.3569336,-8.422852,0.0,0.0,0.0,148.0957,84.72656,-108.01758
1766904122884,-1.0356445,-0.11816406,-0.029785156,-44.37256,3.3569336,-8.422852,0.0,0.0,0.0,102.9364,84.375,-148.32092
1766904122972,-0.81152344,0.07080078,0.01171875,-62.561035,-19.958496,18.676758,0.0,0.0,0.0,102.9364,84.375,-148.32092
1766904122984,-0.81152344,0.07080078,0.01171875,-62.561035,-19.958496,18.676758,0.0,0.0,0.0,96.5918,84.80896,-152.72095
1766904123072,-0.9404297,0.024414062,-0.029785156,-21.240234,-8.850098,-0.91552734,0.0,0.0,0.0,96.5918,84.80896,-152.72095
1766904123083,-0.9404297,0.024414062,-0.029785156,-21.240234,-8.850098,-0.91552734,0.0,0.0,0.0,80.55176,84.15527,-164.77295
1766904123172,-1.0605469,-0.025878906,-0.041015625,-26.184082,0.5493164,6.4086914,0.0,0.0,0.0,80.55176,84.15527,-164.77295
1766904123183,-1.0605469,-0.025878906,-0.041015625,-26.184082,0.5493164,6.4086914,0.0,0.0,0.0,71.80664,83.85315,-171.37024
1766904123271,-1.0839844,0.06982422,-0.16845703,-13.73291,26.245117,3.540039,0.0,0.0,0.0,71.80664,83.85315,-171.37024
1766904123283,-1.0839844,0.06982422,-0.16845703,-13.73291,26.245117,3.540039,0.0,0.0,0.0,86.28662,84.08386,-155.0061
1766904123371,-1.0742188,0.2529297,0.3022461,18.371582,30.395508,-4.1503906,0.0,0.0,0.0,86.28662,84.08386,-155.0061
1766904123383,-1.0742188,0.2529297,0.3022461,18.371582,30.395508,-4.1503906,0.0,0.0,0.0,122.05261,82.79297,-120.34424
1766904123471,-0.86572266,0.25048828,-0.09667969,-21.54541,-25.32959,28.808594,0.0,0.0,0.0,122.05261,82.79297,-120.34424
1766904123482,-0.86572266,0.25048828,-0.09667969,-21.54541,-25.32959,28.808594,0.0,0.0,0.0,97.822266,82.31506,-145.99731
1766904123571,-0.9477539,0.03466797,0.088378906,27.58789,1.5258789,-17.27295,0.0,0.0,0.0,97.822266,82.31506,-145.99731
1766904123582,-0.9477539,0.03466797,0.088378906,27.58789,1.5258789,-17.27295,0.0,0.0,0.0,97.76184,82.46338,-151.58936
1766904123670,-0.9477539,0.20898438,-0.12060547,-3.479004,-1.8920898,0.8544922,0.0,0.0,0.0,97.76184,82.46338,-151.58936
1766904123682,-0.9477539,0.20898438,-0.12060547,-3.479004,-1.8920898,0.8544922,0.0,0.0,0.0,81.91406,81.94153,-166.70654
1766904123770,-0.9614258,0.19335938,-0.16015625,-5.79834,6.7749023,-8.605957,0.0,0.0,0.0,81.91406,81.94153,-166.70654
1766904123782,-0.9614258,0.19335938,-0.16015625,-5.79834,6.7749023,-8.605957,0.0,0.0,0.0,85.05066,82.2052,-164.37195
1766904123870,-0.9941406,0.11621094,-0.079589844,46.020508,12.512207,-20.690918,0.0,0.0,0.0,85.05066,82.2052,-164.37195
1766904123881,-0.9941406,0.11621094,-0.079589844,46.020508,12.512207,-20.690918,0.0,0.0,0.0,104.5459,83.430176,-148.31543
1766904123969,-1.4584961,0.19384766,0.034179688,24.047852,24.963379,-20.446777,0.0,0.0,0.0,104.5459,83.430176,-148.31543
1766904123981,-1.4584961,0.19384766,0.034179688,24.047852,24.963379,-20.446777,0.0,0.0,0.0,118.47656,84.24866,-135.2472
1766904124070,-0.78564453,-0.16992188,0.017578125,-36.987305,-33.996582,28.625488,0.0,0.0,0.0,118.47656,84.24866,-135.2472
1766904124081,-0.78564453,-0.16992188,0.017578125,-36.987305,-33.996582,28.625488,0.0,0.0,0.0,122.72278,84.331055,-131.84692
1766904124169,-0.9609375,0.1953125,0.08154297,-3.7841797,-12.390137,10.864258,0.0,0.0,0.0,122.72278,84.331055,-131.84692
1766904124180,-0.9609375,0.1953125,0.08154297,-3.7841797,-12.390137,10.864258,0.0,0.0,0.0,108.55591,83.96301,-143.94836
1766904124269,-0.8876953,-0.0703125,-0.0107421875,-37.963867,-16.723633,10.437012,0.0,0.0,0.0,108.55591,83.96301,-143.94836
1766904124280,-0.8876953,-0.0703125,-0.0107421875,-37.963867,-16.723633,10.437012,0.0,0.0,0.0,81.97449,82.249146,-166.34949
1766904124368,-1.0805664,0.10205078,-0.07421875,-25.634766,-12.939453,3.7231445,0.0,0.0,0.0,81.97449,82.249146,-166.34949
1766904124380,-1.0805664,0.10205078,-0.07421875,-25.634766,-12.939453,3.7231445,0.0,0.0,0.0,65.65979,81.743774,-179.63745
1766904124468,-1.0849609,0.02734375,-0.06542969,-14.953613,22.949219,6.0424805,0.0,0.0,0.0,65.65979,81.743774,-179.63745
1766904124480,-1.0849609,0.02734375,-0.06542969,-14.953613,22.949219,6.0424805,0.0,0.0,0.0,73.53699,82.40845,-170.86487
1766904124568,-1.3115234,0.34716797,0.31201172,27.893066,33.87451,-10.437012,0.0,0.0,0.0,73.53699,82.40845,-170.86487
1766904124579,-1.3115234,0.34716797,0.31201172,27.893066,33.87451,-10.437012,0.0,0.0,0.0,103.78784,82.30408,-140.42175
1766904124667,-0.6772461,0.35351562,-0.16894531,-16.418457,-14.709473,28.808594,0.0,0.0,0.0,103.78784,82.30408,-140.42175
1766904124679,-0.6772461,0.35351562,-0.16894531,-16.418457,-14.709473,28.808594,0.0,0.0,0.0,93.306885,81.45264,-152.5946
1766904124767,-1.0522461,0.049316406,0.19824219,63.964844,-15.74707,9.58252,0.0,0.0,0.0,93.306885,81.45264,-152.5946
1766904124779,-1.0522461,0.049316406,0.19824219,63.964844,-15.74707,9.58252,0.0,0.0,0.0,96.98181,79.72229,-156.17065
1766904124867,-0.8725586,0.29248047,-0.048339844,3.90625,-5.6762695,11.291504,0.0,0.0,0.0,96.98181,79.72229,-156.17065
1766904124879,-0.8725586,0.29248047,-0.048339844,3.90625,-5.6762695,11.291504,0.0,0.0,0.0,86.53381,78.45337,-166.95923
1766904124967,-0.99121094,0.16601562,-0.12841797,21.728516,0.48828125,-9.765625,0.0,0.0,0.0,86.53381,78.45337,-166.95923
1766904124978,-0.99121094,0.16601562,-0.12841797,21.728516,0.48828125,-9.765625,0.0,0.0,0.0,85.078125,77.98645,-170.2826
1766904125066,-0.99853516,0.20996094,-0.16601562,16.723633,2.5634766,-19.104004,0.0,0.0,0.0,85.078125,77.98645,-170.2826
1766904125078,-0.99853516,0.20996094,-0.16601562,16.723633,2.5634766,-19.104004,0.0,0.0,0.0,89.13208,79.45862,-167.07458
1766904125166,-1.315918,0.23535156,-0.08544922,22.277832,27.22168,-22.155762,0.0,0.0,0.0,89.13208,79.45862,-167.07458
1766904125178,-1.315918,0.23535156,-0.08544922,22.277832,27.22168,-22.155762,0.0,0.0,0.0,101.953125,81.815186,-156.26404
1766904125266,-0.8305664,-0.0078125,0.15576172,-6.286621,-16.357422,17.51709,0.0,0.0,0.0,101.953125,81.815186,-156.26404
1766904125278,-0.8305664,-0.0078125,0.15576172,-6.286621,-16.357422,17.51709,0.0,0.0,0.0,115.68054,82.578735,-144.97559
1766904125366,-1.0327148,0.21679688,0.075683594,5.92041,1.0375977,-7.9345703,0.0,0.0,0.0,115.68054,82.578735,-144.97559
1766904125377,-1.0327148,0.21679688,0.075683594,5.92041,1.0375977,-7.9345703,0.0,0.0,0.0,105.617065,82.53479,-152.09473
1766904125465,-0.91064453,-0.017089844,-0.06982422,-37.04834,-5.3710938,10.131836,0.0,0.0,0.0,105.617065,82.53479,-152.09473
1766904125477,-0.91064453,-0.017089844,-0.06982422,-37.04834,-5.3710938,10.131836,0.0,0.0,0.0,91.658936,81.73828,-162.46033
1766904125565,-0.9267578,0.123046875,-0.09667969,-14.587402,-8.422852,1.2817383,0.0,0.0,0.0,91.658936,81.73828,-162.46033
1766904125577,-0.9267578,0.123046875,-0.09667969,-14.587402,-8.422852,1.2817383,0.0,0.0,0.0,85.07263,81.55151,-165.90454
1766904125665,-1.1318359,0.06201172,-0.07861328,1.8920898,16.662598,6.8359375,0.0,0.0,0.0,85.07263,81.55151,-165.90454
1766904125676,-1.1318359,0.06201172,-0.07861328,1.8920898,16.662598,6.8359375,0.0,0.0,0.0,84.49036,81.172485,-165.10254
1766904125765,-1.2890625,0.17871094,-0.115234375,-4.5776367,44.49463,10.314941,0.0,0.0,0.0,84.49036,81.172485,-165.10254
1766904125776,-1.2890625,0.17871094,-0.115234375,-4.5776367,44.49463,10.314941,0.0,0.0,0.0,102.804565,80.337524,-145.83252
1766904125864,-0.8305664,0.40722656,0.029785156,-36.010742,-19.53125,23.80371,0.0,0.0,0.0,102.804565,80.337524,-145.83252
1766904125876,-0.8305664,0.40722656,0.029785156,-36.010742,-19.53125,23.80371,0.0,0.0,0.0,105.809326,79.13452,-142.34436
1766904125964,-0.84814453,0.22753906,0.140625,87.09717,20.812988,-17.8833,0.0,0.0,0.0,105.809326,79.13452,-142.34436
1766904125975,-0.84814453,0.22753906,0.140625,87.09717,20.812988,-17.8833,0.0,0.0,0.0,105.496216,78.12927,-145.3601
1766904126064,-0.97265625,0.14160156,-0.078125,-24.780273,-33.935547,9.399414,0.0,0.0,0.0,105.496216,78.12927,-145.3601
1766904126075,-0.97265625,0.14160156,-0.078125,-24.780273,-33.935547,9.399414,0.0,0.0,0.0,100.53589,78.09631,-154.14917
1766904126163,-0.84033203,0.24951172,-0.096191406,16.479492,-11.71875,-1.4648438,0.0,0.0,0.0,100.53589,78.09631,-154.14917
1766904126176,-0.84033203,0.24951172,-0.096191406,16.479492,-11.71875,-1.4648438,0.0,0.0,0.0,92.3291,77.958984,-162.14172
1766904126263,-0.9814453,0.1796875,-0.119140625,-11.047363,-9.887695,-2.4414062,0.0,0.0,0.0,92.3291,77.958984,-162.14172
1766904126275,-0.9814453,0.1796875,-0.119140625,-11.047363,-9.887695,-2.4414062,0.0,0.0,0.0,88.62671,77.838135,-166.70105
1766904126363,-1.0634766,0.2578125,-0.23632812,8.728027,10.070801,-20.874023,0.0,0.0,0.0,88.62671,77.838135,-166.70105
1766904126374,-1.0634766,0.2578125,-0.23632812,8.728027,10.070801,-20.874023,0.0,0.0,0.0,90.18677,78.914795,-164.4873
1766904126463,-1.2626953,0.11816406,-0.00390625,11.779785,-6.3476562,-52.001953,0.0,0.0,0.0,90.18677,78.914795,-164.4873
1766904126474,-1.2626953,0.11816406,-0.00390625,11.779785,-6.3476562,-52.001953,0.0,0.0,0.0,110.945435,82.79846,-145.55237
1766904126563,-0.80371094,0.23095703,0.1977539,8.7890625,2.5024414,-14.831543,0.0,0.0,0.0,110.945435,82.79846,-145.55237
1766904126574,-0.80371094,0.23095703,0.1977539,8.7890625,2.5024414,-14.831543,0.0,0.0,0.0,122.76123,85.720825,-133.84644
1766904126662,-0.9453125,-0.041992188,0.052734375,-6.4086914,-3.2958984,-3.4179688,0.0,0.0,0.0,122.76123,85.720825,-133.84644
1766904126674,-0.9453125,-0.041992188,0.052734375,-6.4086914,-3.2958984,-3.4179688,0.0,0.0,0.0,117.78992,86.31958,-139.51538
1766904126762,-0.97216797,-0.044433594,-0.017089844,-15.74707,-22.033691,16.540527,0.0,0.0,0.0,117.78992,86.31958,-139.51538
1766904126773,-0.97216797,-0.044433594,-0.017089844,-15.74707,-22.033691,16.540527,0.0,0.0,0.0,83.59497,85.9021,-173.0072
1766904126861,-0.9165039,-4.8828125E-4,-0.053710938,-14.526367,-13.549805,4.760742,0.0,0.0,0.0,83.59497,85.9021,-173.0072
1766904126873,-0.9165039,-4.8828125E-4,-0.053710938,-14.526367,-13.549805,4.760742,0.0,0.0,0.0,63.616333,84.8584,169.57947
1766904126961,-1.0585938,-0.03857422,-0.061035156,-14.099121,7.3242188,1.7700195,0.0,0.0,0.0,63.616333,84.8584,169.57947
1766904126973,-1.0585938,-0.03857422,-0.061035156,-14.099121,7.3242188,1.7700195,0.0,0.0,0.0,60.666504,84.556274,169.7992
1766904127061,-1.2441406,0.026855469,-0.17919922,-17.27295,34.79004,14.831543,0.0,0.0,0.0,60.666504,84.556274,169.7992
1766904127073,-1.2441406,0.026855469,-0.17919922,-17.27295,34.79004,14.831543,0.0,0.0,0.0,93.71338,84.72107,-154.21509
1766904127161,-0.8535156,0.203125,0.28808594,-9.94873,2.2583008,6.652832,0.0,0.0,0.0,93.71338,84.72107,-154.21509
1766904127172,-0.8535156,0.203125,0.28808594,-9.94873,2.2583008,6.652832,0.0,0.0,0.0,134.80225,83.08411,-112.93945
1766904127260,-0.96435547,0.2290039,-0.1303711,4.8217773,-8.178711,23.55957,0.0,0.0,0.0,134.80225,83.08411,-112.93945
1766904127272,-0.96435547,0.2290039,-0.1303711,4.8217773,-8.178711,23.55957,0.0,0.0,0.0,97.54761,81.80969,-147.66724
1766904127360,-0.87402344,0.03173828,-0.044921875,-13.671875,-8.728027,15.319824,0.0,0.0,0.0,97.54761,81.80969,-147.66724
1766904127372,-0.87402344,0.03173828,-0.044921875,-13.671875,-8.728027,15.319824,0.0,0.0,0.0,107.023315,82.01843,-144.5581
1766904127460,-0.9550781,0.21533203,-0.13964844,10.925293,2.8686523,2.0751953,0.0,0.0,0.0,107.023315,82.01843,-144.5581
1766904127471,-0.9550781,0.21533203,-0.13964844,10.925293,2.8686523,2.0751953,0.0,0.0,0.0,100.05798,81.26587,-150.88074
1766904127560,-0.9375,0.13330078,-0.14013672,6.4697266,7.019043,-12.329102,0.0,0.0,0.0,100.05798,81.26587,-150.88074
1766904127572,-0.9375,0.13330078,-0.14013672,6.4697266,7.019043,-12.329102,0.0,0.0,0.0,112.093506,81.99646,-141.47644
1766904127659,-1.1103516,0.13769531,-0.31054688,43.823242,10.7421875,-23.864746,0.0,0.0,0.0,112.093506,81.99646,-141.47644
1766904127672,-1.1103516,0.13769531,-0.31054688,43.823242,10.7421875,-23.864746,0.0,0.0,0.0,125.892334,82.49634,-128.6499
1766904127759,-1.0820312,0.15820312,0.15966797,45.22705,22.155762,-15.319824,0.0,0.0,0.0,125.892334,82.49634,-128.6499
1766904127771,-1.0820312,0.15820312,0.15966797,45.22705,22.155762,-15.319824,0.0,0.0,0.0,151.29272,82.161255,-106.43555
1766904127859,-0.85498047,-0.29248047,0.017578125,-53.03955,-13.183594,0.7324219,0.0,0.0,0.0,151.29272,82.161255,-106.43555
1766904127870,-0.85498047,-0.29248047,0.017578125,-53.03955,-13.183594,0.7324219,0.0,0.0,0.0,126.21094,82.76001,-128.10608
1766904127958,-1.0209961,0.22802734,0.030761719,-41.992188,-22.033691,13.000488,0.0,0.0,0.0,126.21094,82.76001,-128.10608
1766904127970,-1.0209961,0.22802734,0.030761719,-41.992188,-22.033691,13.000488,0.0,0.0,0.0,125.20569,83.57849,-125.9198
1766904128058,-0.8959961,-0.06201172,-0.023925781,-44.677734,-12.329102,11.230469,0.0,0.0,0.0,125.20569,83.57849,-125.9198
1766904128070,-0.8959961,-0.06201172,-0.023925781,-44.677734,-12.329102,11.230469,0.0,0.0,0.0,99.36035,82.99072,-146.61255
1766904128158,-1.0332031,0.061035156,-0.063964844,-33.447266,-17.456055,4.333496,0.0,0.0,0.0,99.36035,82.99072,-146.61255
1766904128169,-1.0332031,0.061035156,-0.063964844,-33.447266,-17.456055,4.333496,0.0,0.0,0.0,81.23291,82.97974,-161.04309
1766904128258,-1.0751953,0.12109375,-0.07421875,-16.357422,23.19336,13.122559,0.0,0.0,0.0,81.23291,82.97974,-161.04309
1766904128269,-1.0751953,0.12109375,-0.07421875,-16.357422,23.19336,13.122559,0.0,0.0,0.0,89.33533,82.5238,-150.60608
1766904128357,-1.3681641,0.19189453,-0.018554688,14.892578,60.913086,-0.12207031,0.0,0.0,0.0,89.33533,82.5238,-150.60608
1766904128369,-1.3681641,0.19189453,-0.018554688,14.892578,60.913086,-0.12207031,0.0,0.0,0.0,115.08728,80.55176,-124.541016
1766904128457,-0.56933594,0.3149414,0.07080078,-25.512695,-51.757812,11.84082,0.0,0.0,0.0,115.08728,80.55176,-124.541016
1766904128469,-0.56933594,0.3149414,0.07080078,-25.512695,-51.757812,11.84082,0.0,0.0,0.0,113.77991,80.68909,-127.80945
1766904128557,-1.0839844,0.15039062,0.12060547,76.11084,2.2583008,-25.390625,0.0,0.0,0.0,113.77991,80.68909,-127.80945
1766904128568,-1.0839844,0.15039062,0.12060547,76.11084,2.2583008,-25.390625,0.0,0.0,0.0,103.46924,79.420166,-140.80627
1766904128657,-0.86279297,0.18945312,-0.14111328,-23.254395,-25.57373,2.8686523,0.0,0.0,0.0,103.46924,79.420166,-140.80627
1766904128668,-0.86279297,0.18945312,-0.14111328,-23.254395,-25.57373,2.8686523,0.0,0.0,0.0,95.31189,80.14526,-151.05652
1766904128756,-0.92626953,0.2163086,-0.100097656,18.554688,-7.5683594,-8.117676,0.0,0.0,0.0,95.31189,80.14526,-151.05652
1766904128768,-0.92626953,0.2163086,-0.100097656,18.554688,-7.5683594,-8.117676,0.0,0.0,0.0,91.5271,80.56824,-156.59363
1766904128856,-1.0180664,0.2084961,-0.16113281,32.77588,7.507324,-13.793945,0.0,0.0,0.0,91.5271,80.56824,-156.59363
1766904128868,-1.0180664,0.2084961,-0.16113281,32.77588,7.507324,-13.793945,0.0,0.0,0.0,93.2135,80.83191,-156.40137
1766904128956,-1.1918945,0.0625,-0.203125,13.305664,12.756348,-10.864258,0.0,0.0,0.0,93.2135,80.83191,-156.40137
1766904128967,-1.1918945,0.0625,-0.203125,13.305664,12.756348,-10.864258,0.0,0.0,0.0,110.390625,81.93054,-142.56409
1766904129055,-0.8588867,0.19189453,0.19335938,18.920898,7.385254,-3.7231445,0.0,0.0,0.0,110.390625,81.93054,-142.56409
1766904129067,-0.8588867,0.19189453,0.19335938,18.920898,7.385254,-3.7231445,0.0,0.0,0.0,128.05664,82.2052,-126.15051
1766904129155,-0.9682617,0.044433594,0.036132812,-5.493164,7.507324,-2.8686523,0.0,0.0,0.0,128.05664,82.2052,-126.15051
1766904129167,-0.9682617,0.044433594,0.036132812,-5.493164,7.507324,-2.8686523,0.0,0.0,0.0,120.6134,81.49658,-131.90735
1766904129255,-0.9321289,0.05029297,-0.15185547,-50.65918,-23.55957,21.66748,0.0,0.0,0.0,120.6134,81.49658,-131.90735
1766904129266,-0.9321289,0.05029297,-0.15185547,-50.65918,-23.55957,21.66748,0.0,0.0,0.0,100.42053,81.04065,-149.71619
1766904129355,-0.93847656,0.14257812,-0.040527344,-32.226562,-26.489258,14.038086,0.0,0.0,0.0,100.42053,81.04065,-149.71619
1766904129366,-0.93847656,0.14257812,-0.040527344,-32.226562,-26.489258,14.038086,0.0,0.0,0.0,90.703125,80.63965,-157.51099
1766904129454,-1.0776367,0.104003906,-0.060058594,6.652832,9.094238,1.4648438,0.0,0.0,0.0,90.703125,80.63965,-157.51099
1766904129466,-1.0776367,0.104003906,-0.060058594,6.652832,9.094238,1.4648438,0.0,0.0,0.0,80.45288,79.70581,-165.87708
1766904129554,-1.2807617,0.15771484,-0.103027344,-10.437012,35.27832,2.5634766,0.0,0.0,0.0,80.45288,79.70581,-165.87708
1766904129565,-1.2807617,0.15771484,-0.103027344,-10.437012,35.27832,2.5634766,0.0,0.0,0.0,95.57556,79.920044,-150.94666
1766904129654,-0.7480469,0.39648438,0.12646484,-9.58252,-29.724121,10.131836,0.0,0.0,0.0,95.57556,79.920044,-150.94666
1766904129665,-0.7480469,0.39648438,0.12646484,-9.58252,-29.724121,10.131836,0.0,0.0,0.0,107.74841,79.98047,-139.59229
1766904129753,-0.98779297,0.2397461,0.083984375,85.998535,12.329102,-13.793945,0.0,0.0,0.0,107.74841,79.98047,-139.59229
1766904129766,-0.98779297,0.2397461,0.083984375,85.998535,12.329102,-13.793945,0.0,0.0,0.0,98.778076,78.95874,-150.17761
1766904129853,-0.8691406,0.13671875,-0.07861328,-8.117676,-42.114258,8.850098,0.0,0.0,0.0,98.778076,78.95874,-150.17761
1766904129865,-0.8691406,0.13671875,-0.07861328,-8.117676,-42.114258,8.850098,0.0,0.0,0.0,98.94287,79.573975,-156.297
1766904129953,-0.9013672,0.2211914,-0.10546875,43.640137,-15.319824,-14.343262,0.0,0.0,0.0,98.94287,79.573975,-156.297
1766904129965,-0.9013672,0.2211914,-0.10546875,43.640137,-15.319824,-14.343262,0.0,0.0,0.0,87.70935,79.315796,-168.03589
1766904130053,-1.0014648,0.17578125,-0.1274414,10.803223,0.6713867,-15.50293,0.0,0.0,0.0,87.70935,79.315796,-168.03589
1766904130064,-1.0014648,0.17578125,-0.1274414,10.803223,0.6713867,-15.50293,0.0,0.0,0.0,90.55481,80.83191,-168.77197
1766904130153,-1.1293945,0.14355469,-0.14648438,23.986816,6.5307617,-17.39502,0.0,0.0,0.0,90.55481,80.83191,-168.77197
1766904130164,-1.1293945,0.14355469,-0.14648438,23.986816,6.5307617,-17.39502,0.0,0.0,0.0,100.01953,82.9303,-160.68054
1766904130253,-0.94189453,0.033203125,0.33447266,-10.681152,2.8076172,6.7749023,0.0,0.0,0.0,100.01953,82.9303,-160.68054
1766904130264,-0.94189453,0.033203125,0.33447266,-10.681152,2.8076172,6.7749023,0.0,0.0,0.0,131.781,83.72681,-129.27063
1766904130352,-1.1030273,0.06738281,-0.078125,-17.39502,0.48828125,-1.2207031,0.0,0.0,0.0,131.781,83.72681,-129.27063
1766904130363,-1.1030273,0.06738281,-0.078125,-17.39502,0.48828125,-1.2207031,0.0,0.0,0.0,102.30469,83.75427,-154.42383
1766904130452,-0.84033203,-0.032714844,-0.001953125,-58.532715,-15.74707,18.066406,0.0,0.0,0.0,102.30469,83.75427,-154.42383
1766904130463,-0.84033203,-0.032714844,-0.001953125,-58.532715,-15.74707,18.066406,0.0,0.0,0.0,95.251465,83.75427,-159.0326
1766904130551,-0.94677734,0.06933594,-0.05908203,-25.6958,-6.164551,4.333496,0.0,0.0,0.0,95.251465,83.75427,-159.0326
1766904130563,-0.94677734,0.06933594,-0.05908203,-25.6958,-6.164551,4.333496,0.0,0.0,0.0,81.44714,83.07312,-168.16772
1766904130651,-1.0288086,0.041015625,-0.036132812,-10.681152,9.643555,5.7373047,0.0,0.0,0.0,81.44714,83.07312,-168.16772
1766904130663,-1.0288086,0.041015625,-0.036132812,-10.681152,9.643555,5.7373047,0.0,0.0,0.0,81.11755,82.96326,-166.20117
1766904130751,-1.1074219,0.0063476562,-0.1352539,-13.244629,25.268555,13.305664,0.0,0.0,0.0,81.11755,82.96326,-166.20117
1766904130762,-1.1074219,0.0063476562,-0.1352539,-13.244629,25.268555,13.305664,0.0,0.0,0.0,98.618774,82.31506,-147.11243
1766904130851,-1.1386719,0.25683594,0.25048828,-4.272461,12.268066,4.638672,0.0,0.0,0.0,98.618774,82.31506,-147.11243
1766904130862,-1.1386719,0.25683594,0.25048828,-4.272461,12.268066,4.638672,0.0,0.0,0.0,122.90405,80.99121,-122.508545
1766904130950,-0.6850586,0.41308594,-0.09716797,-36.010742,-16.845703,21.240234,0.0,0.0,0.0,122.90405,80.99121,-122.508545
1766904130962,-0.6850586,0.41308594,-0.09716797,-36.010742,-16.845703,21.240234,0.0,0.0,0.0,91.2854,80.52429,-152.22656
1766904131050,-1.0610352,0.20654297,0.041992188,80.26123,-12.451172,-10.375977,0.0,0.0,0.0,91.2854,80.52429,-152.22656
1766904131061,-1.0610352,0.20654297,0.041992188,80.26123,-12.451172,-10.375977,0.0,0.0,0.0,93.587036,80.56824,-158.73596
1766904131150,-0.86865234,0.20410156,-0.08935547,5.7373047,-23.254395,5.3100586,0.0,0.0,0.0,93.587036,80.56824,-158.73596
1766904131161,-0.86865234,0.20410156,-0.08935547,5.7373047,-23.254395,5.3100586,0.0,0.0,0.0,80.8374,79.51904,-173.22144
1766904131249,-0.95947266,0.19140625,-0.083984375,26.184082,-0.18310547,-2.0141602,0.0,0.0,0.0,80.8374,79.51904,-173.22144
1766904131261,-0.95947266,0.19140625,-0.083984375,26.184082,-0.18310547,-2.0141602,0.0,0.0,0.0,82.54028,79.18945,-173.44666
1766904131349,-1.0332031,0.16113281,-0.11230469,32.287598,6.591797,-22.460938,0.0,0.0,0.0,82.54028,79.18945,-173.44666
1766904131361,-1.0332031,0.16113281,-0.11230469,32.287598,6.591797,-22.460938,0.0,0.0,0.0,89.28589,80.58472,-168.23914
1766904131449,-1.2988281,0.15771484,0.04345703,24.658203,34.5459,-32.714844,0.0,0.0,0.0,89.28589,80.58472,-168.23914
1766904131461,-1.2988281,0.15771484,0.04345703,24.658203,34.5459,-32.714844,0.0,0.0,0.0,103.7384,82.11731,-153.60535
1766904131549,-0.88427734,-0.125,0.2006836,-74.70703,-6.0424805,39.42871,0.0,0.0,0.0,103.7384,82.11731,-153.60535
1766904131560,-0.88427734,-0.125,0.2006836,-74.70703,-6.0424805,39.42871,0.0,0.0,0.0,113.21411,81.55701,-142.17957
1766904131648,-1.0073242,0.17773438,0.024902344,-22.827148,-1.8920898,2.1362305,0.0,0.0,0.0,113.21411,81.55701,-142.17957
1766904131660,-1.0073242,0.17773438,0.024902344,-22.827148,-1.8920898,2.1362305,0.0,0.0,0.0,94.592285,81.52405,-156.47827
1766904131748,-0.8720703,0.03173828,0.017578125,-49.194336,-21.66748,14.465332,0.0,0.0,0.0,94.592285,81.52405,-156.47827
1766904131760,-0.8720703,0.03173828,0.017578125,-49.194336,-21.66748,14.465332,0.0,0.0,0.0,80.337524,80.38147,-165.68481
1766904131848,-0.9970703,0.08544922,-0.037597656,-21.78955,6.8969727,-5.92041,0.0,0.0,0.0,80.337524,80.38147,-165.68481
1766904131859,-0.9970703,0.08544922,-0.037597656,-21.78955,6.8969727,-5.92041,0.0,0.0,0.0,72.22412,80.128784,-169.78821
1766904131948,-1.1347656,0.16015625,-0.10839844,-10.986328,34.851074,10.192871,0.0,0.0,0.0,72.22412,80.128784,-169.78821
1766904131959,-1.1347656,0.16015625,-0.10839844,-10.986328,34.851074,10.192871,0.0,0.0,0.0,84.72656,80.76599,-155.78064
1766904132047,-1.0527344,0.32128906,0.23339844,16.235352,0.9765625,-5.554199,0.0,0.0,0.0,84.72656,80.76599,-155.78064
1766904132059,-1.0527344,0.32128906,0.23339844,16.235352,0.9765625,-5.554199,0.0,0.0,0.0,112.0166,80.44739,-129.73206
1766904132147,-0.7963867,0.31103516,-0.07861328,-11.108398,-12.084961,24.108887,0.0,0.0,0.0,112.0166,80.44739,-129.73206
1766904132159,-0.7963867,0.31103516,-0.07861328,-11.108398,-12.084961,24.108887,0.0,0.0,0.0,91.88965,79.14551,-149.31519
1766904132247,-0.88964844,0.21875,0.04248047,39.489746,-4.0283203,-5.432129,0.0,0.0,0.0,91.88965,79.14551,-149.31519
1766904132258,-0.88964844,0.21875,0.04248047,39.489746,-4.0283203,-5.432129,0.0,0.0,0.0,101.57959,80.14526,-147.99683
1766904132347,-0.93896484,0.21191406,-0.20019531,14.892578,-10.131836,-2.8076172,0.0,0.0,0.0,101.57959,80.14526,-147.99683
1766904132359,-0.93896484,0.21191406,-0.20019531,14.892578,-10.131836,-2.8076172,0.0,0.0,0.0,86.52283,79.28833,-163.31177
1766904132446,-0.9296875,0.1772461,-0.118652344,19.226074,-4.333496,-12.390137,0.0,0.0,0.0,86.52283,79.28833,-163.31177
1766904132458,-0.9296875,0.1772461,-0.118652344,19.226074,-4.333496,-12.390137,0.0,0.0,0.0,92.09839,80.441895,-161.79565
1766904132546,-1.0239258,0.13964844,-0.16064453,33.75244,-2.2583008,-22.033691,0.0,0.0,0.0,92.09839,80.441895,-161.79565
1766904132558,-1.0239258,0.13964844,-0.16064453,33.75244,-2.2583008,-22.033691,0.0,0.0,0.0,98.21777,82.22168,-158.23059
1766904132646,-1.2495117,0.19921875,0.18798828,79.833984,56.45752,-44.98291,0.0,0.0,0.0,98.21777,82.22168,-158.23059
1766904132657,-1.2495117,0.19921875,0.18798828,79.833984,56.45752,-44.98291,0.0,0.0,0.0,134.45068,83.117065,-123.74451
1766904132745,-0.74316406,-0.14208984,0.099609375,-64.02588,-73.54736,11.962891,0.0,0.0,0.0,134.45068,83.117065,-123.74451
1766904132757,-0.74316406,-0.14208984,0.099609375,-64.02588,-73.54736,11.962891,0.0,0.0,0.0,110.2478,83.36975,-145.51392
1766904132845,-0.93066406,0.083984375,0.10058594,3.479004,11.474609,-12.451172,0.0,0.0,0.0,110.2478,83.36975,-145.51392
1766904132857,-0.93066406,0.083984375,0.10058594,3.479004,11.474609,-12.451172,0.0,0.0,0.0,103.255005,83.82568,-151.22131
1766904132945,-0.96777344,0.0,-0.099121094,-45.34912,-27.09961,17.63916,0.0,0.0,0.0,103.255005,83.82568,-151.22131
1766904132956,-0.96777344,0.0,-0.099121094,-45.34912,-27.09961,17.63916,0.0,0.0,0.0,74.96521,82.69409,-175.47363
1766904133045,-1.0048828,9.765625E-4,0.013183594,-27.09961,9.399414,-4.272461,0.0,0.0,0.0,74.96521,82.69409,-175.47363
1766904133056,-1.0048828,9.765625E-4,0.013183594,-27.09961,9.399414,-4.272461,0.0,0.0,0.0,73.427124,82.820435,-173.60046
1766904133144,-1.065918,0.0859375,-0.10986328,-19.226074,20.629883,6.3476562,0.0,0.0,0.0,73.427124,82.820435,-173.60046
1766904133156,-1.065918,0.0859375,-0.10986328,-19.226074,20.629883,6.3476562,0.0,0.0,0.0,83.61145,83.28186,-160.48279
1766904133244,-1.3310547,0.13964844,0.14160156,37.719727,44.189453,-17.578125,0.0,0.0,0.0,83.61145,83.28186,-160.48279
1766904133256,-1.3310547,0.13964844,0.14160156,37.719727,44.189453,-17.578125,0.0,0.0,0.0,113.19214,82.32056,-129.35303
1766904133344,-0.5566406,0.3359375,0.029785156,-54.138184,-39.55078,19.592285,0.0,0.0,0.0,113.19214,82.32056,-129.35303
1766904133355,-0.5566406,0.3359375,0.029785156,-54.138184,-39.55078,19.592285,0.0,0.0,0.0,96.119385,81.99097,-146.03027
1766904133443,-1.1962891,0.2709961,0.0068359375,97.0459,-2.6855469,-15.686035,0.0,0.0,0.0,96.119385,81.99097,-146.03027
1766904133455,-1.1962891,0.2709961,0.0068359375,97.0459,-2.6855469,-15.686035,0.0,0.0,0.0,82.74902,80.87036,-164.729
1766904133543,-0.8886719,0.1875,-0.061035156,7.3242188,-31.677246,12.207031,0.0,0.0,0.0,82.74902,80.87036,-164.729
1766904133555,-0.8886719,0.1875,-0.061035156,7.3242188,-31.677246,12.207031,0.0,0.0,0.0,75.95398,79.66736,-176.48987
1766904133643,-0.9238281,0.16113281,-0.0063476562,41.625977,6.1035156,-2.9296875,0.0,0.0,0.0,75.95398,79.66736,-176.48987
1766904133654,-0.9238281,0.16113281,-0.0063476562,41.625977,6.1035156,-2.9296875,0.0,0.0,0.0,76.91528,79.27734,-179.0387
1766904133743,-1.1049805,0.1459961,-0.09375,18.676758,-0.30517578,-17.578125,0.0,0.0,0.0,76.91528,79.27734,-179.0387
1766904133754,-1.1049805,0.1459961,-0.09375,18.676758,-0.30517578,-17.578125,0.0,0.0,0.0,80.05188,80.09033,-177.45117
1766904133842,-1.2885742,0.12792969,-0.0146484375,-14.831543,30.090332,-9.460449,0.0,0.0,0.0,80.05188,80.09033,-177.45117
1766904133854,-1.2885742,0.12792969,-0.0146484375,-14.831543,30.090332,-9.460449,0.0,0.0,0.0,82.803955,81.84265,-173.83118
1766904133942,-0.8413086,0.076171875,0.28564453,5.065918,18.066406,-8.972168,0.0,0.0,0.0,82.803955,81.84265,-173.83118
1766904133954,-0.8413086,0.076171875,0.28564453,5.065918,18.066406,-8.972168,0.0,0.0,0.0,137.35107,83.573,-121.2616
1766904134042,-1.1733398,0.15722656,-0.23486328,-34.179688,5.7373047,17.578125,0.0,0.0,0.0,137.35107,83.573,-121.2616
1766904134053,-1.1733398,0.15722656,-0.23486328,-34.179688,5.7373047,17.578125,0.0,0.0,0.0,94.44946,83.45764,-159.05457
1766904134142,-0.74853516,-4.8828125E-4,0.04638672,-12.329102,1.4038086,-2.9907227,0.0,0.0,0.0,94.44946,83.45764,-159.05457
1766904134153,-0.74853516,-4.8828125E-4,0.04638672,-12.329102,1.4038086,-2.9907227,0.0,0.0,0.0,93.6145,83.133545,-157.71973
1766904134241,-1.0727539,-0.014160156,-0.075683594,-18.615723,1.953125,1.5258789,0.0,0.0,0.0,93.6145,83.133545,-157.71973
1766904134253,-1.0727539,-0.014160156,-0.075683594,-18.615723,1.953125,1.5258789,0.0,0.0,0.0,84.017944,83.04016,-164.70703
1766904134341,-1.0693359,0.056152344,-0.1430664,-15.930176,13.183594,-0.5493164,0.0,0.0,0.0,84.017944,83.04016,-164.70703
1766904134353,-1.0693359,0.056152344,-0.1430664,-15.930176,13.183594,-0.5493164,0.0,0.0,0.0,89.40674,83.48511,-156.80237
1766904134441,-1.4008789,0.16796875,-0.03857422,-18.249512,49.865723,11.657715,0.0,0.0,0.0,89.40674,83.48511,-156.80237
1766904134452,-1.4008789,0.16796875,-0.03857422,-18.249512,49.865723,11.657715,0.0,0.0,0.0,109.313965,82.803955,-135.15381
1766904134541,-0.7055664,0.27197266,0.08544922,-45.410156,-36.254883,23.742676,0.0,0.0,0.0,109.313965,82.803955,-135.15381
1766904134552,-0.7055664,0.27197266,0.08544922,-45.410156,-36.254883,23.742676,0.0,0.0,0.0,123.50281,81.82617,-121.761475
1766904134640,-1.0263672,0.2133789,-0.053710938,69.76318,-10.925293,-5.3710938,0.0,0.0,0.0,123.50281,81.82617,-121.761475
1766904134653,-1.0263672,0.2133789,-0.053710938,69.76318,-10.925293,-5.3710938,0.0,0.0,0.0,95.27893,80.738525,-148.96912
1766904134740,-0.89208984,0.1640625,-0.001953125,-18.188477,-29.663086,19.592285,0.0,0.0,0.0,95.27893,80.738525,-148.96912
1766904134752,-0.89208984,0.1640625,-0.001953125,-18.188477,-29.663086,19.592285,0.0,0.0,0.0,94.96033,80.667114,-155.15991
1766904134840,-0.92089844,0.22460938,-0.11230469,31.00586,-8.911133,-10.437012,0.0,0.0,0.0,94.96033,80.667114,-155.15991
1766904134851,-0.92089844,0.22460938,-0.11230469,31.00586,-8.911133,-10.437012,0.0,0.0,0.0,80.60669,79.65637,-169.24438
1766904134939,-1.0043945,0.18017578,-0.123535156,22.155762,-7.9956055,-9.216309,0.0,0.0,0.0,80.60669,79.65637,-169.24438
1766904134951,-1.0043945,0.18017578,-0.123535156,22.155762,-7.9956055,-9.216309,0.0,0.0,0.0,78.85437,80.06287,-173.21045
1766904135039,-1.0776367,0.15234375,-0.10888672,14.709473,0.91552734,-19.042969,0.0,0.0,0.0,78.85437,80.06287,-173.21045
1766904135051,-1.0776367,0.15234375,-0.10888672,14.709473,0.91552734,-19.042969,0.0,0.0,0.0,81.5625,81.727295,-172.62268
1766904135139,-1.3134766,0.11621094,0.051757812,39.611816,55.603027,-51.086426,0.0,0.0,0.0,81.5625,81.727295,-172.62268
1766904135150,-1.3134766,0.11621094,0.051757812,39.611816,55.603027,-51.086426,0.0,0.0,0.0,105.89172,83.7323,-148.21106
1766904135239,-0.71435547,-0.084472656,0.2626953,-81.05469,-13.000488,22.094727,0.0,0.0,0.0,105.89172,83.7323,-148.21106
1766904135250,-0.71435547,-0.084472656,0.2626953,-81.05469,-13.000488,22.094727,0.0,0.0,0.0,132.21497,84.28711,-121.14075
1766904135338,-1.2226562,0.10058594,-0.18554688,-0.5493164,12.390137,-6.5307617,0.0,0.0,0.0,132.21497,84.28711,-121.14075
1766904135350,-1.2226562,0.10058594,-0.18554688,-0.5493164,12.390137,-6.5307617,0.0,0.0,0.0,101.19507,85.182495,-147.7716
1766904135438,-0.80126953,0.03857422,0.04736328,-30.944824,-11.71875,10.620117,0.0,0.0,0.0,101.19507,85.182495,-147.7716
1766904135450,-0.80126953,0.03857422,0.04736328,-30.944824,-11.71875,10.620117,0.0,0.0,0.0,99.04175,85.59448,-147.49146
1766904135538,-1.0874023,0.00390625,-0.107910156,-1.6479492,9.643555,4.0283203,0.0,0.0,0.0,99.04175,85.59448,-147.49146
1766904135549,-1.0874023,0.00390625,-0.107910156,-1.6479492,9.643555,4.0283203,0.0,0.0,0.0,94.96033,84.68811,-149.67773
1766904135638,-1.0966797,0.048828125,-0.1772461,-0.9765625,25.756836,2.1362305,0.0,0.0,0.0,94.96033,84.68811,-149.67773
