timestamp,accX,accY,accZ,gyroX,gyroY,gyroZ,magX,magY,magZ,roll,pitch,yaw
1770516521934,-0.69433594,-0.12158203,0.07421875,-6.286621,-19.042969,-10.131836,-1828.0,6613.0,3406.0,-91.47766,71.850586,-68.549194
1770516521946,-0.69433594,-0.12158203,0.07421875,-6.286621,-19.042969,-10.131836,-1828.0,6613.0,3406.0,-93.04321,71.93848,-67.576904
1770516521957,-0.69433594,-0.12158203,0.07421875,-6.286621,-19.042969,-10.131836,0.0,0.0,0.0,-93.04321,71.93848,-67.576904
1770516522034,-1.0366211,-0.19482422,0.29638672,29.968262,-13.73291,-9.338379,-1784.0,6729.0,3650.0,-93.04321,71.93848,-67.576904
1770516522045,-1.0366211,-0.19482422,0.29638672,29.968262,-13.73291,-9.338379,-1784.0,6729.0,3650.0,-85.913086,73.27881,-61.589355
1770516522056,-1.0366211,-0.19482422,0.29638672,29.968262,-13.73291,-9.338379,0.0,0.0,0.0,-85.913086,73.27881,-61.589355
1770516522133,-0.79541016,-0.29541016,-0.13720703,1.7700195,3.7231445,-12.878418,-2517.0,7119.0,3758.0,-85.913086,73.27881,-61.589355
1770516522145,-0.79541016,-0.29541016,-0.13720703,1.7700195,3.7231445,-12.878418,-2517.0,7119.0,3758.0,-83.54553,70.10925,-61.627808
1770516522156,-0.79541016,-0.29541016,-0.13720703,1.7700195,3.7231445,-12.878418,0.0,0.0,0.0,-83.54553,70.10925,-61.627808
1770516522233,-0.86816406,-0.24511719,0.018066406,-19.042969,-30.88379,3.8452148,-1757.0,6447.0,3213.0,-83.54553,70.10925,-61.627808
1770516522245,-0.86816406,-0.24511719,0.018066406,-19.042969,-30.88379,3.8452148,-1757.0,6447.0,3213.0,-80.22217,69.67529,-56.359863
1770516522256,-0.86816406,-0.24511719,0.018066406,-19.042969,-30.88379,3.8452148,0.0,0.0,0.0,-80.22217,69.67529,-56.359863
1770516522333,-1.0390625,-0.28515625,0.013671875,-3.4179688,22.399902,4.8828125,-1529.0,6226.0,3013.0,-80.22217,69.67529,-56.359863
1770516522344,-1.0390625,-0.28515625,0.013671875,-3.4179688,22.399902,4.8828125,-1529.0,6226.0,3013.0,-81.16699,70.37842,-55.618286
1770516522356,-1.0390625,-0.28515625,0.013671875,-3.4179688,22.399902,4.8828125,0.0,0.0,0.0,-81.16699,70.37842,-55.618286
1770516522433,-1.3095703,-0.4506836,-0.16552734,-4.8217773,12.329102,-5.3710938,-1779.0,6414.0,3137.0,-81.16699,70.37842,-55.618286
1770516522448,-1.3095703,-0.4506836,-0.16552734,-4.8217773,12.329102,-5.3710938,-1779.0,6414.0,3137.0,-87.802734,70.78491,-62.215576
1770516522455,-1.3095703,-0.4506836,-0.16552734,-4.8217773,12.329102,-5.3710938,0.0,0.0,0.0,-87.802734,70.78491,-62.215576
1770516522532,-0.82177734,-0.22607422,0.12402344,22.155762,-8.056641,7.019043,-1822.0,6588.0,3363.0,-87.802734,70.78491,-62.215576
1770516522543,-0.82177734,-0.22607422,0.12402344,22.155762,-8.056641,7.019043,-1822.0,6588.0,3363.0,-88.22571,70.58716,-65.24231
1770516522557,-0.82177734,-0.22607422,0.12402344,22.155762,-8.056641,7.019043,0.0,0.0,0.0,-88.22571,70.58716,-65.24231
1770516522632,-0.82128906,-0.4868164,0.3623047,20.751953,12.878418,4.760742,-1864.0,6611.0,3412.0,-88.22571,70.58716,-65.24231
1770516522643,-0.82128906,-0.4868164,0.3623047,20.751953,12.878418,4.760742,-1864.0,6611.0,3412.0,-89.07715,70.84534,-66.71997
1770516522655,-0.82128906,-0.4868164,0.3623047,20.751953,12.878418,4.760742,0.0,0.0,0.0,-89.07715,70.84534,-66.71997
1770516522731,-0.91259766,-0.10888672,-0.17871094,-83.43506,-58.532715,33.325195,-1601.0,6414.0,3319.0,-89.07715,70.84534,-66.71997
1770516522743,-0.91259766,-0.10888672,-0.17871094,-83.43506,-58.532715,33.325195,-1601.0,6414.0,3319.0,-77.6239,71.21338,-50.630493
1770516522754,-0.91259766,-0.10888672,-0.17871094,-83.43506,-58.532715,33.325195,0.0,0.0,0.0,-77.6239,71.21338,-50.630493
1770516522831,-0.88134766,-0.3408203,0.07470703,33.63037,20.812988,-15.136719,-1482.0,6300.0,3221.0,-77.6239,71.21338,-50.630493
1770516522843,-0.88134766,-0.3408203,0.07470703,33.63037,20.812988,-15.136719,-1482.0,6300.0,3221.0,-73.99841,73.410645,-48.59253
1770516522854,-0.88134766,-0.3408203,0.07470703,33.63037,20.812988,-15.136719,0.0,0.0,0.0,-73.99841,73.410645,-48.59253
1770516522931,-0.9433594,-0.33935547,-0.02734375,-2.6855469,-12.634277,-5.493164,-2961.0,7355.0,3574.0,-73.99841,73.410645,-48.59253
1770516522942,-0.9433594,-0.33935547,-0.02734375,-2.6855469,-12.634277,-5.493164,-2961.0,7355.0,3574.0,-74.6521,71.449585,-52.349854
1770516522954,-0.9433594,-0.33935547,-0.02734375,-2.6855469,-12.634277,-5.493164,0.0,0.0,0.0,-74.6521,71.449585,-52.349854
1770516523031,-1.1772461,-0.3955078,-0.01953125,16.784668,24.902344,5.9814453,-2017.0,6544.0,3134.0,-74.6521,71.449585,-52.349854
1770516523042,-1.1772461,-0.3955078,-0.01953125,16.784668,24.902344,5.9814453,-2017.0,6544.0,3134.0,-80.07385,71.70227,-57.958374
1770516523053,-1.1772461,-0.3955078,-0.01953125,16.784668,24.902344,5.9814453,0.0,0.0,0.0,-80.07385,71.70227,-57.958374
1770516523130,-0.95751953,-0.34570312,0.119628906,-17.27295,1.2207031,6.225586,-1839.0,6402.0,3064.0,-80.07385,71.70227,-57.958374
1770516523142,-0.95751953,-0.34570312,0.119628906,-17.27295,1.2207031,6.225586,-1839.0,6402.0,3064.0,-87.53906,72.8009,-64.01184
1770516523153,-0.95751953,-0.34570312,0.119628906,-17.27295,1.2207031,6.225586,0.0,0.0,0.0,-87.53906,72.8009,-64.01184
1770516523230,-0.7578125,-0.064941406,0.14941406,13.48877,-14.465332,23.620605,-1705.0,6419.0,3338.0,-87.53906,72.8009,-64.01184
1770516523242,-0.7578125,-0.064941406,0.14941406,13.48877,-14.465332,23.620605,-1705.0,6419.0,3338.0,-79.524536,72.83386,-54.173584
1770516523254,-0.7578125,-0.064941406,0.14941406,13.48877,-14.465332,23.620605,0.0,0.0,0.0,-79.524536,72.83386,-54.173584
1770516523330,-1.0107422,-0.6035156,0.07763672,23.80371,-3.2348633,-53.40576,-2038.0,6664.0,3431.0,-79.524536,72.83386,-54.173584
1770516523341,-1.0107422,-0.6035156,0.07763672,23.80371,-3.2348633,-53.40576,-2038.0,6664.0,3431.0,-73.57544,72.53174,-51.16333
1770516523356,-1.0107422,-0.6035156,0.07763672,23.80371,-3.2348633,-53.40576,0.0,0.0,0.0,-73.57544,72.53174,-51.16333
1770516523429,-0.8647461,-0.24121094,0.08691406,-15.991211,-21.484375,1.7089844,-2691.0,7002.0,3447.0,-73.57544,72.53174,-51.16333
1770516523441,-0.8647461,-0.24121094,0.08691406,-15.991211,-21.484375,1.7089844,-2691.0,7002.0,3447.0,-75.47058,70.06531,-53.26172
1770516523456,-0.8647461,-0.24121094,0.08691406,-15.991211,-21.484375,1.7089844,0.0,0.0,0.0,-75.47058,70.06531,-53.26172
1770516523529,-0.86816406,-0.24609375,-0.021972656,-6.4697266,-4.272461,0.30517578,-1694.0,6237.0,2919.0,-75.47058,70.06531,-53.26172
1770516523541,-0.86816406,-0.24609375,-0.021972656,-6.4697266,-4.272461,0.30517578,-1694.0,6237.0,2919.0,-69.59839,69.65881,-45.2417
1770516523557,-0.86816406,-0.24609375,-0.021972656,-6.4697266,-4.272461,0.30517578,0.0,0.0,0.0,-69.59839,69.65881,-45.2417
1770516523629,-1.1274414,-0.3071289,0.0234375,-2.746582,7.751465,-4.1503906,-2104.0,6433.0,2926.0,-69.59839,69.65881,-45.2417
1770516523640,-1.1274414,-0.3071289,0.0234375,-2.746582,7.751465,-4.1503906,-2104.0,6433.0,2926.0,-71.466064,69.91699,-46.23047
1770516523652,-1.1274414,-0.3071289,0.0234375,-2.746582,7.751465,-4.1503906,0.0,0.0,0.0,-71.466064,69.91699,-46.23047
1770516523729,-1.1914062,-0.36621094,0.122558594,23.925781,5.554199,-6.164551,-2325.0,6629.0,3032.0,-71.466064,69.91699,-46.23047
1770516523740,-1.1914062,-0.36621094,0.122558594,23.925781,5.554199,-6.164551,-2325.0,6629.0,3032.0,-74.679565,69.77417,-50.26245
1770516523752,-1.1914062,-0.36621094,0.122558594,23.925781,5.554199,-6.164551,0.0,0.0,0.0,-74.679565,69.77417,-50.26245
1770516523828,-0.60009766,-0.22070312,0.21240234,3.9672852,12.023926,19.470215,-2330.0,6695.0,3070.0,-74.679565,69.77417,-50.26245
1770516523840,-0.60009766,-0.22070312,0.21240234,3.9672852,12.023926,19.470215,-2330.0,6695.0,3070.0,-73.306274,70.32349,-51.020508
1770516523851,-0.60009766,-0.22070312,0.21240234,3.9672852,12.023926,19.470215,0.0,0.0,0.0,-73.306274,70.32349,-51.020508
1770516523928,-1.0209961,-0.4243164,0.40478516,43.640137,-11.047363,-13.305664,-2353.0,6648.0,3037.0,-73.306274,70.32349,-51.020508
1770516523940,-1.0209961,-0.4243164,0.40478516,43.640137,-11.047363,-13.305664,-2353.0,6648.0,3037.0,-76.624146,70.285034,-55.046997
1770516523952,-1.0209961,-0.4243164,0.40478516,43.640137,-11.047363,-13.305664,0.0,0.0,0.0,-76.624146,70.285034,-55.046997
1770516524028,-0.9345703,-0.20019531,-0.17578125,-83.12988,-44.98291,57.495117,-2052.0,6482.0,3053.0,-76.624146,70.285034,-55.046997
1770516524039,-0.9345703,-0.20019531,-0.17578125,-83.12988,-44.98291,57.495117,-2052.0,6482.0,3053.0,-61.677246,69.41162,-36.968994
1770516524051,-0.9345703,-0.20019531,-0.17578125,-83.12988,-44.98291,57.495117,0.0,0.0,0.0,-61.677246,69.41162,-36.968994
1770516524128,-0.95996094,-0.3881836,0.20996094,30.151367,12.084961,-22.705078,-2523.0,6685.0,2938.0,-61.677246,69.41162,-36.968994
1770516524139,-0.95996094,-0.3881836,0.20996094,30.151367,12.084961,-22.705078,-2523.0,6685.0,2938.0,-64.08325,69.55994,-44.769287
1770516524150,-0.95996094,-0.3881836,0.20996094,30.151367,12.084961,-22.705078,0.0,0.0,0.0,-64.08325,69.55994,-44.769287
1770516524227,-0.96972656,-0.30664062,-0.036132812,-26.245117,24.230957,0.48828125,-2798.0,6826.0,2881.0,-64.08325,69.55994,-44.769287
1770516524239,-0.96972656,-0.30664062,-0.036132812,-26.245117,24.230957,0.48828125,-2798.0,6826.0,2881.0,-66.11572,69.61487,-44.7583
1770516524250,-0.96972656,-0.30664062,-0.036132812,-26.245117,24.230957,0.48828125,0.0,0.0,0.0,-66.11572,69.61487,-44.7583
1770516524327,-1.3383789,-0.4423828,0.03125,-18.310547,30.639648,20.202637,-2331.0,6461.0,2711.0,-66.11572,69.61487,-44.7583
1770516524339,-1.3383789,-0.4423828,0.03125,-18.310547,30.639648,20.202637,-2331.0,6461.0,2711.0,-76.239624,71.84509,-55.914917
1770516524350,-1.3383789,-0.4423828,0.03125,-18.310547,30.639648,20.202637,0.0,0.0,0.0,-76.239624,71.84509,-55.914917
1770516524427,-0.8261719,-0.28173828,-0.038085938,-34.973145,-14.831543,5.6762695,-2322.0,6613.0,3058.0,-76.239624,71.84509,-55.914917
1770516524438,-0.8261719,-0.28173828,-0.038085938,-34.973145,-14.831543,5.6762695,-2322.0,6613.0,3058.0,-78.568726,72.57019,-55.074463
1770516524450,-0.8261719,-0.28173828,-0.038085938,-34.973145,-14.831543,5.6762695,0.0,0.0,0.0,-78.568726,72.57019,-55.074463
1770516524526,-0.8852539,-0.15332031,0.33154297,25.146484,0.61035156,7.507324,-2227.0,6707.0,3283.0,-78.568726,72.57019,-55.074463
1770516524538,-0.8852539,-0.15332031,0.33154297,25.146484,0.61035156,7.507324,-2227.0,6707.0,3283.0,-76.78894,73.14697,-53.36609
1770516524550,-0.8852539,-0.15332031,0.33154297,25.146484,0.61035156,7.507324,0.0,0.0,0.0,-76.78894,73.14697,-53.36609
1770516524626,-1.0195312,-0.56591797,-0.1303711,14.404297,16.540527,-55.725098,-2611.0,7013.0,3455.0,-76.78894,73.14697,-53.36609
1770516524638,-1.0195312,-0.56591797,-0.1303711,14.404297,16.540527,-55.725098,-2611.0,7013.0,3455.0,-74.67407,70.29602,-54.179077
1770516524650,-1.0195312,-0.56591797,-0.1303711,14.404297,16.540527,-55.725098,0.0,0.0,0.0,-74.67407,70.29602,-54.179077
1770516524726,-0.8364258,-0.3095703,0.15722656,-28.808594,-35.15625,3.540039,-2446.0,6755.0,3224.0,-74.67407,70.29602,-54.179077
1770516524737,-0.8364258,-0.3095703,0.15722656,-28.808594,-35.15625,3.540039,-2446.0,6755.0,3224.0,-75.097046,69.3512,-54.190063
1770516524750,-0.8364258,-0.3095703,0.15722656,-28.808594,-35.15625,3.540039,0.0,0.0,0.0,-75.097046,69.3512,-54.190063
1770516524826,-0.90234375,-0.2626953,-0.04736328,-10.192871,13.183594,-1.7700195,-1525.0,6074.0,2830.0,-75.097046,69.3512,-54.190063
1770516524837,-0.90234375,-0.2626953,-0.04736328,-10.192871,13.183594,-1.7700195,-1525.0,6074.0,2830.0,-73.07556,69.23035,-50.075684
1770516524856,-0.90234375,-0.2626953,-0.04736328,-10.192871,13.183594,-1.7700195,0.0,0.0,0.0,-73.07556,69.23035,-50.075684
1770516524925,-1.1328125,-0.35009766,-0.03857422,-11.962891,21.42334,-0.12207031,-1924.0,6301.0,2905.0,-73.07556,69.23035,-50.075684
1770516524937,-1.1328125,-0.35009766,-0.03857422,-11.962891,21.42334,-0.12207031,-1924.0,6301.0,2905.0,-79.51355,69.92798,-54.673462
1770516524949,-1.1328125,-0.35009766,-0.03857422,-11.962891,21.42334,-0.12207031,0.0,0.0,0.0,-79.51355,69.92798,-54.673462
1770516525025,-1.0913086,-0.2734375,-0.019042969,28.320312,-1.5258789,-2.9907227,-1955.0,6476.0,3125.0,-79.51355,69.92798,-54.673462
1770516525036,-1.0913086,-0.2734375,-0.019042969,28.320312,-1.5258789,-2.9907227,-1955.0,6476.0,3125.0,-82.265625,69.906006,-57.20581
1770516525048,-1.0913086,-0.2734375,-0.019042969,28.320312,-1.5258789,-2.9907227,0.0,0.0,0.0,-82.265625,69.906006,-57.20581
1770516525125,-0.6435547,-0.25927734,0.27539062,-6.225586,6.8359375,16.601562,-1935.0,6591.0,3323.0,-82.265625,69.906006,-57.20581
1770516525136,-0.6435547,-0.25927734,0.27539062,-6.225586,6.8359375,16.601562,-1935.0,6591.0,3323.0,-78.47534,71.26282,-55.200806
1770516525154,-0.6435547,-0.25927734,0.27539062,-6.225586,6.8359375,16.601562,0.0,0.0,0.0,-78.47534,71.26282,-55.200806
1770516525224,-1.1118164,-0.3618164,0.1665039,31.311035,-19.714355,-5.554199,-2187.0,6696.0,3293.0,-78.47534,71.26282,-55.200806
1770516525236,-1.1118164,-0.3618164,0.1665039,31.311035,-19.714355,-5.554199,-2187.0,6696.0,3293.0,-80.57922,70.49927,-58.337402
1770516525247,-1.1118164,-0.3618164,0.1665039,31.311035,-19.714355,-5.554199,0.0,0.0,0.0,-80.57922,70.49927,-58.337402
1770516525324,-0.74365234,-0.30566406,-0.01171875,32.89795,-15.258789,18.188477,-1529.0,6244.0,3097.0,-80.57922,70.49927,-58.337402
1770516525335,-0.74365234,-0.30566406,-0.01171875,32.89795,-15.258789,18.188477,-1529.0,6244.0,3097.0,-72.04285,72.39441,-45.0
1770516525347,-0.74365234,-0.30566406,-0.01171875,32.89795,-15.258789,18.188477,0.0,0.0,0.0,-72.04285,72.39441,-45.0
1770516525424,-0.8417969,-0.2788086,0.057617188,13.366699,18.615723,-15.441895,-2391.0,6919.0,3426.0,-72.04285,72.39441,-45.0
1770516525435,-0.8417969,-0.2788086,0.057617188,13.366699,18.615723,-15.441895,-2391.0,6919.0,3426.0,-74.50928,71.79016,-52.261963
1770516525447,-0.8417969,-0.2788086,0.057617188,13.366699,18.615723,-15.441895,0.0,0.0,0.0,-74.50928,71.79016,-52.261963
1770516525523,-1.2084961,-0.40039062,-0.06640625,-4.5776367,35.40039,2.0141602,-2470.0,6886.0,3315.0,-74.50928,71.79016,-52.261963
1770516525535,-1.2084961,-0.40039062,-0.06640625,-4.5776367,35.40039,2.0141602,-2470.0,6886.0,3315.0,-80.06836,71.81213,-57.024536
1770516525546,-1.2084961,-0.40039062,-0.06640625,-4.5776367,35.40039,2.0141602,0.0,0.0,0.0,-80.06836,71.81213,-57.024536
1770516525623,-1.1499023,-0.45507812,-0.021484375,7.9345703,11.535645,6.8969727,-1994.0,6571.0,3208.0,-80.06836,71.81213,-57.024536
1770516525635,-1.1499023,-0.45507812,-0.021484375,7.9345703,11.535645,6.8969727,-1994.0,6571.0,3208.0,-92.197266,72.48779,-69.46106
1770516525646,-1.1499023,-0.45507812,-0.021484375,7.9345703,11.535645,6.8969727,0.0,0.0,0.0,-92.197266,72.48779,-69.46106
1770516525723,-0.6879883,-0.15185547,0.055664062,-6.8359375,-20.935059,4.0893555,-1770.0,6585.0,3476.0,-92.197266,72.48779,-69.46106
1770516525734,-0.6879883,-0.15185547,0.055664062,-6.8359375,-20.935059,4.0893555,-1770.0,6585.0,3476.0,-87.61597,72.83386,-62.74292
1770516525746,-0.6879883,-0.15185547,0.055664062,-6.8359375,-20.935059,4.0893555,0.0,0.0,0.0,-87.61597,72.83386,-62.74292
1770516525823,-1.0224609,-0.22607422,0.27197266,30.395508,-27.58789,-11.474609,-1784.0,6644.0,3561.0,-87.61597,72.83386,-62.74292
1770516525834,-1.0224609,-0.22607422,0.27197266,30.395508,-27.58789,-11.474609,-1784.0,6644.0,3561.0,-78.5083,73.201904,-55.7666
1770516525846,-1.0224609,-0.22607422,0.27197266,30.395508,-27.58789,-11.474609,0.0,0.0,0.0,-78.5083,73.201904,-55.7666
1770516525923,-0.80029297,-0.2758789,-0.06933594,18.127441,-0.24414062,-9.094238,-2502.0,7038.0,3613.0,-78.5083,73.201904,-55.7666
1770516525934,-0.80029297,-0.2758789,-0.06933594,18.127441,-0.24414062,-9.094238,-2502.0,7038.0,3613.0,-77.99744,69.96094,-58.200073
1770516525946,-0.80029297,-0.2758789,-0.06933594,18.127441,-0.24414062,-9.094238,0.0,0.0,0.0,-77.99744,69.96094,-58.200073
1770516526022,-0.88378906,-0.33642578,0.064453125,-5.9814453,-24.414062,3.3569336,-1961.0,6535.0,3182.0,-77.99744,69.96094,-58.200073
1770516526033,-0.88378906,-0.33642578,0.064453125,-5.9814453,-24.414062,3.3569336,-1961.0,6535.0,3182.0,-71.015625,69.30176,-49.75708
1770516526045,-0.88378906,-0.33642578,0.064453125,-5.9814453,-24.414062,3.3569336,0.0,0.0,0.0,-71.015625,69.30176,-49.75708
1770516526122,-1.1313477,-0.31982422,0.022949219,-24.230957,20.812988,0.48828125,-2135.0,6505.0,2954.0,-71.015625,69.30176,-49.75708
1770516526133,-1.1313477,-0.31982422,0.022949219,-24.230957,20.812988,0.48828125,-2135.0,6505.0,2954.0,-75.162964,69.58191,-53.311157
1770516526145,-1.1313477,-0.31982422,0.022949219,-24.230957,20.812988,0.48828125,0.0,0.0,0.0,-75.162964,69.58191,-53.311157
1770516526226,-1.2558594,-0.41455078,-0.034179688,4.3945312,34.484863,-7.019043,-2284.0,6640.0,2989.0,-75.162964,69.58191,-53.311157
1770516526233,-1.2558594,-0.41455078,-0.034179688,4.3945312,34.484863,-7.019043,-2284.0,6640.0,2989.0,-85.9021,69.697266,-63.380127
1770516526246,-1.2558594,-0.41455078,-0.034179688,4.3945312,34.484863,-7.019043,0.0,0.0,0.0,-85.9021,69.697266,-63.380127
1770516526321,-0.63378906,-0.22607422,0.1459961,-4.9438477,-11.657715,16.296387,-2181.0,6780.0,3314.0,-85.9021,69.697266,-63.380127
1770516526333,-0.63378906,-0.22607422,0.1459961,-4.9438477,-11.657715,16.296387,-2181.0,6780.0,3314.0,-88.236694,69.99939,-67.41211
1770516526344,-0.63378906,-0.22607422,0.1459961,-4.9438477,-11.657715,16.296387,0.0,0.0,0.0,-88.236694,69.99939,-67.41211
1770516526421,-1.09375,-0.37890625,0.12646484,-6.3476562,-20.080566,2.9296875,-2087.0,6781.0,3446.0,-88.236694,69.99939,-67.41211
1770516526432,-1.09375,-0.37890625,0.12646484,-6.3476562,-20.080566,2.9296875,-2087.0,6781.0,3446.0,-84.732056,70.27954,-63.20984
1770516526444,-1.09375,-0.37890625,0.12646484,-6.3476562,-20.080566,2.9296875,0.0,0.0,0.0,-84.732056,70.27954,-63.20984
1770516526521,-0.85839844,-0.29736328,-0.063964844,18.249512,2.0141602,31.25,-1489.0,6328.0,3166.0,-84.732056,70.27954,-63.20984
1770516526532,-0.85839844,-0.29736328,-0.063964844,18.249512,2.0141602,31.25,-1489.0,6328.0,3166.0,-78.239136,72.55371,-53.585815
1770516526545,-0.85839844,-0.29736328,-0.063964844,18.249512,2.0141602,31.25,0.0,0.0,0.0,-78.239136,72.55371,-53.585815
1770516526620,-0.92578125,-0.42041016,0.047851562,-9.094238,-13.793945,-22.399902,-2317.0,6929.0,3478.0,-78.239136,72.55371,-53.585815
1770516526632,-0.92578125,-0.42041016,0.047851562,-9.094238,-13.793945,-22.399902,-2317.0,6929.0,3478.0,-76.0968,71.89453,-53.986816
1770516526644,-0.92578125,-0.42041016,0.047851562,-9.094238,-13.793945,-22.399902,0.0,0.0,0.0,-76.0968,71.89453,-53.986816
1770516526720,-1.0834961,-0.3720703,-0.048828125,3.1738281,26.550293,9.58252,-2380.0,6916.0,3362.0,-76.0968,71.89453,-53.986816
1770516526731,-1.0834961,-0.3720703,-0.048828125,3.1738281,26.550293,9.58252,-2380.0,6916.0,3362.0,-77.299805,71.345215,-53.95935
1770516526743,-1.0834961,-0.3720703,-0.048828125,3.1738281,26.550293,9.58252,0.0,0.0,0.0,-77.299805,71.345215,-53.95935
1770516526820,-1.1225586,-0.3383789,0.13476562,0.9765625,50.842285,2.1972656,-1830.0,6456.0,3110.0,-77.299805,71.345215,-53.95935
1770516526831,-1.1225586,-0.3383789,0.13476562,0.9765625,50.842285,2.1972656,-1830.0,6456.0,3110.0,-91.065674,72.125244,-67.79114
1770516526843,-1.1225586,-0.3383789,0.13476562,0.9765625,50.842285,2.1972656,0.0,0.0,0.0,-91.065674,72.125244,-67.79114
1770516526919,-0.7055664,0.0,0.016601562,-15.563965,-24.841309,5.3710938,-1717.0,6505.0,3387.0,-91.065674,72.125244,-67.79114
1770516526931,-0.7055664,0.0,0.016601562,-15.563965,-24.841309,5.3710938,-1717.0,6505.0,3387.0,-89.593506,71.99341,-65.69275
1770516526942,-0.7055664,0.0,0.016601562,-15.563965,-24.841309,5.3710938,0.0,0.0,0.0,-89.593506,71.99341,-65.69275
1770516527019,-1.0288086,-0.2163086,0.13183594,26.489258,-8.7890625,-13.916016,-1805.0,6605.0,3581.0,-89.593506,71.99341,-65.69275
1770516527031,-1.0288086,-0.2163086,0.13183594,26.489258,-8.7890625,-13.916016,-1805.0,6605.0,3581.0,-82.65564,74.558716,-60.578613
1770516527042,-1.0288086,-0.2163086,0.13183594,26.489258,-8.7890625,-13.916016,0.0,0.0,0.0,-82.65564,74.558716,-60.578613
1770516527119,-0.8442383,-0.28759766,-0.032714844,13.549805,1.7089844,-4.333496,-2563.0,7032.0,3630.0,-82.65564,74.558716,-60.578613
1770516527130,-0.8442383,-0.28759766,-0.032714844,13.549805,1.7089844,-4.333496,-2563.0,7032.0,3630.0,-85.12207,71.85608,-64.121704
1770516527142,-0.8442383,-0.28759766,-0.032714844,13.549805,1.7089844,-4.333496,0.0,0.0,0.0,-85.12207,71.85608,-64.121704
1770516527219,-0.88916016,-0.19628906,-0.06591797,-25.390625,-26.794434,5.859375,-1721.0,6375.0,3220.0,-85.12207,71.85608,-64.121704
1770516527230,-0.88916016,-0.19628906,-0.06591797,-25.390625,-26.794434,5.859375,-1721.0,6375.0,3220.0,-77.7832,71.40015,-55.10742
1770516527242,-0.88916016,-0.19628906,-0.06591797,-25.390625,-26.794434,5.859375,0.0,0.0,0.0,-77.7832,71.40015,-55.10742
1770516527319,-1.1464844,-0.2524414,-0.056640625,11.962891,29.724121,-8.422852,-1763.0,6317.0,3127.0,-77.7832,71.40015,-55.10742
1770516527330,-1.1464844,-0.2524414,-0.056640625,11.962891,29.724121,-8.422852,-1763.0,6317.0,3127.0,-82.27661,71.63635,-59.452515
1770516527341,-1.1464844,-0.2524414,-0.056640625,11.962891,29.724121,-8.422852,0.0,0.0,0.0,-82.27661,71.63635,-59.452515
1770516527419,-1.0048828,-0.22509766,0.0234375,41.015625,40.771484,-5.859375,-2221.0,6685.0,3330.0,-82.27661,71.63635,-59.452515
1770516527430,-1.0048828,-0.22509766,0.0234375,41.015625,40.771484,-5.859375,-2221.0,6685.0,3330.0,-92.5708,71.032104,-71.96045
1770516527441,-1.0048828,-0.22509766,0.0234375,41.015625,40.771484,-5.859375,0.0,0.0,0.0,-92.5708,71.032104,-71.96045
1770516527518,-0.56152344,-0.51904297,0.20263672,-42.84668,-21.42334,-14.770508,-2063.0,6687.0,3492.0,-92.5708,71.032104,-71.96045
1770516527529,-0.56152344,-0.51904297,0.20263672,-42.84668,-21.42334,-14.770508,-2063.0,6687.0,3492.0,-91.51062,72.06482,-69.90051
1770516527541,-0.56152344,-0.51904297,0.20263672,-42.84668,-21.42334,-14.770508,0.0,0.0,0.0,-91.51062,72.06482,-69.90051
1770516527617,-0.9580078,-0.08496094,-0.07763672,-77.39258,-59.570312,21.362305,-1743.0,6501.0,3437.0,-91.51062,72.06482,-69.90051
1770516527629,-0.9580078,-0.08496094,-0.07763672,-77.39258,-59.570312,21.362305,-1743.0,6501.0,3437.0,-89.53308,70.34546,-65.03357
1770516527641,-0.9580078,-0.08496094,-0.07763672,-77.39258,-59.570312,21.362305,0.0,0.0,0.0,-89.53308,70.34546,-65.03357
1770516527717,-0.81591797,-0.23339844,-0.016113281,41.381836,22.644043,10.925293,-641.0,5736.0,2948.0,-89.53308,70.34546,-65.03357
1770516527729,-0.81591797,-0.23339844,-0.016113281,41.381836,22.644043,10.925293,-641.0,5736.0,2948.0,-83.446655,73.00964,-55.64026
1770516527741,-0.81591797,-0.23339844,-0.016113281,41.381836,22.644043,10.925293,0.0,0.0,0.0,-83.446655,73.00964,-55.64026
1770516527817,-1.1157227,-0.44384766,-0.046875,-1.4648438,-10.925293,-10.437012,-2104.0,6882.0,3539.0,-83.446655,73.00964,-55.64026
1770516527828,-1.1157227,-0.44384766,-0.046875,-1.4648438,-10.925293,-10.437012,-2104.0,6882.0,3539.0,-79.84314,72.49878,-55.217285
1770516527840,-1.1157227,-0.44384766,-0.046875,-1.4648438,-10.925293,-10.437012,0.0,0.0,0.0,-79.84314,72.49878,-55.217285
1770516527917,-1.3291016,-0.45703125,-0.029785156,-11.535645,42.053223,-1.4648438,-2088.0,6769.0,3390.0,-79.84314,72.49878,-55.217285
1770516527928,-1.3291016,-0.45703125,-0.029785156,-11.535645,42.053223,-1.4648438,-2088.0,6769.0,3390.0,-89.06616,71.971436,-65.28076
1770516527941,-1.3291016,-0.45703125,-0.029785156,-11.535645,42.053223,-1.4648438,0.0,0.0,0.0,-89.06616,71.971436,-65.28076
1770516528016,-0.703125,-0.28466797,-0.040527344,4.4555664,-25.45166,-9.94873,-1616.0,6420.0,3252.0,-89.06616,71.971436,-65.28076
1770516528028,-0.703125,-0.28466797,-0.040527344,4.4555664,-25.45166,-9.94873,-1616.0,6420.0,3252.0,-93.94409,71.73523,-70.48828
1770516528039,-0.703125,-0.28466797,-0.040527344,4.4555664,-25.45166,-9.94873,0.0,0.0,0.0,-93.94409,71.73523,-70.48828
1770516528116,-1.0620117,-0.1694336,0.27929688,39.123535,-18.188477,11.901855,-1608.0,6496.0,3491.0,-93.94409,71.73523,-70.48828
1770516528128,-1.0620117,-0.1694336,0.27929688,39.123535,-18.188477,11.901855,-1608.0,6496.0,3491.0,-87.20398,72.493286,-65.808105
1770516528149,-1.0620117,-0.1694336,0.27929688,39.123535,-18.188477,11.901855,0.0,0.0,0.0,-87.20398,72.493286,-65.808105
1770516528216,-0.9609375,-0.42773438,-0.17529297,23.19336,-6.225586,-42.541504,-2120.0,6775.0,3520.0,-87.20398,72.493286,-65.808105
1770516528228,-0.9609375,-0.42773438,-0.17529297,23.19336,-6.225586,-42.541504,-2120.0,6775.0,3520.0,-76.69556,70.81787,-57.84851
1770516528241,-0.9609375,-0.42773438,-0.17529297,23.19336,-6.225586,-42.541504,0.0,0.0,0.0,-76.69556,70.81787,-57.84851
1770516528315,-0.7885742,-0.24267578,0.106933594,-3.112793,-31.188965,8.605957,-2179.0,6552.0,3137.0,-76.69556,70.81787,-57.84851
1770516528327,-0.7885742,-0.24267578,0.106933594,-3.112793,-31.188965,8.605957,-2179.0,6552.0,3137.0,-74.992676,70.40588,-56.38733
1770516528338,-0.7885742,-0.24267578,0.106933594,-3.112793,-31.188965,8.605957,0.0,0.0,0.0,-74.992676,70.40588,-56.38733
1770516528415,-1.1186523,-0.30126953,-0.040039062,-20.507812,3.540039,2.319336,-1825.0,6145.0,2813.0,-74.992676,70.40588,-56.38733
1770516528427,-1.1186523,-0.30126953,-0.040039062,-20.507812,3.540039,2.319336,-1825.0,6145.0,2813.0,-72.724,70.66406,-52.349854
1770516528439,-1.1186523,-0.30126953,-0.040039062,-20.507812,3.540039,2.319336,0.0,0.0,0.0,-72.724,70.66406,-52.349854
1770516528515,-1.3227539,-0.42382812,0.11376953,4.8828125,32.836914,-5.493164,-2059.0,6265.0,2768.0,-72.724,70.66406,-52.349854
1770516528527,-1.3227539,-0.42382812,0.11376953,4.8828125,32.836914,-5.493164,-2059.0,6265.0,2768.0,-80.93628,71.136475,-59.77661
1770516528538,-1.3227539,-0.42382812,0.11376953,4.8828125,32.836914,-5.493164,0.0,0.0,0.0,-80.93628,71.136475,-59.77661
1770516528615,-0.5317383,-0.3491211,0.11425781,-36.193848,-19.226074,21.972656,-2009.0,6404.0,2974.0,-80.93628,71.136475,-59.77661
1770516528627,-0.5317383,-0.3491211,0.11425781,-36.193848,-19.226074,21.972656,-2009.0,6404.0,2974.0,-81.51306,72.30652,-59.067993
1770516528639,-0.5317383,-0.3491211,0.11425781,-36.193848,-19.226074,21.972656,0.0,0.0,0.0,-81.51306,72.30652,-59.067993
1770516528714,-1.0927734,-0.29541016,0.1171875,-41.931152,-65.12451,-1.5258789,-1908.0,6431.0,3144.0,-81.51306,72.30652,-59.067993
1770516528726,-1.0927734,-0.29541016,0.1171875,-41.931152,-65.12451,-1.5258789,-1908.0,6431.0,3144.0,-73.87756,70.97717,-47.982788
1770516528737,-1.0927734,-0.29541016,0.1171875,-41.931152,-65.12451,-1.5258789,0.0,0.0,0.0,-73.87756,70.97717,-47.982788
1770516528814,-0.81884766,-0.2475586,0.057617188,-2.380371,-10.681152,4.1503906,-1535.0,6182.0,2892.0,-73.87756,70.97717,-47.982788
1770516528826,-0.81884766,-0.2475586,0.057617188,-2.380371,-10.681152,4.1503906,-1535.0,6182.0,2892.0,-62.715454,71.55945,-34.44214
1770516528837,-0.81884766,-0.2475586,0.057617188,-2.380371,-10.681152,4.1503906,0.0,0.0,0.0,-62.715454,71.55945,-34.44214
1770516528914,-0.97216797,-0.27783203,0.09472656,3.8452148,-14.099121,-7.2631836,-2486.0,6804.0,3068.0,-62.715454,71.55945,-34.44214
1770516528925,-0.97216797,-0.27783203,0.09472656,3.8452148,-14.099121,-7.2631836,-2486.0,6804.0,3068.0,-60.36438,71.032104,-33.21167
1770516528937,-0.97216797,-0.27783203,0.09472656,3.8452148,-14.099121,-7.2631836,0.0,0.0,0.0,-60.36438,71.032104,-33.21167
1770516529013,-1.2016602,-0.4350586,-0.017578125,4.760742,44.433594,-5.2490234,-2642.0,6828.0,2983.0,-60.36438,71.032104,-33.21167
1770516529025,-1.2016602,-0.4350586,-0.017578125,4.760742,44.433594,-5.2490234,-2642.0,6828.0,2983.0,-67.890015,71.75171,-43.049927
1770516529036,-1.2016602,-0.4350586,-0.017578125,4.760742,44.433594,-5.2490234,0.0,0.0,0.0,-67.890015,71.75171,-43.049927
1770516529113,-0.7241211,-0.37304688,0.23144531,-4.5166016,11.474609,-12.084961,-2536.0,6766.0,2930.0,-67.890015,71.75171,-43.049927
1770516529125,-0.7241211,-0.37304688,0.23144531,-4.5166016,11.474609,-12.084961,-2536.0,6766.0,2930.0,-81.94702,72.50427,-57.057495
1770516529138,-0.7241211,-0.37304688,0.23144531,-4.5166016,11.474609,-12.084961,0.0,0.0,0.0,-81.94702,72.50427,-57.057495
1770516529213,-0.95751953,0.0087890625,0.09814453,15.808105,-2.8686523,3.540039,-2288.0,6816.0,3277.0,-81.94702,72.50427,-57.057495
1770516529224,-0.95751953,0.0087890625,0.09814453,15.808105,-2.8686523,3.540039,-2288.0,6816.0,3277.0,-78.16223,70.64758,-53.92639
1770516529239,-0.95751953,0.0087890625,0.09814453,15.808105,-2.8686523,3.540039,0.0,0.0,0.0,-78.16223,70.64758,-53.92639
1770516529313,-0.9345703,-0.34814453,-0.012207031,40.893555,5.126953,-21.78955,-2478.0,6928.0,3354.0,-78.16223,70.64758,-53.92639
1770516529324,-0.9345703,-0.34814453,-0.012207031,40.893555,5.126953,-21.78955,-2478.0,6928.0,3354.0,-73.67432,70.36743,-53.16284
1770516529339,-0.9345703,-0.34814453,-0.012207031,40.893555,5.126953,-21.78955,0.0,0.0,0.0,-73.67432,70.36743,-53.16284
1770516529412,-0.87890625,-0.3046875,0.041015625,7.751465,4.638672,-3.6010742,-2626.0,6882.0,3142.0,-73.67432,70.36743,-53.16284
1770516529424,-0.87890625,-0.3046875,0.041015625,7.751465,4.638672,-3.6010742,-2626.0,6882.0,3142.0,-73.635864,69.71924,-55.030518
1770516529435,-0.87890625,-0.3046875,0.041015625,7.751465,4.638672,-3.6010742,0.0,0.0,0.0,-73.635864,69.71924,-55.030518
1770516529512,-1.1811523,-0.34570312,-0.0087890625,-26.123047,-1.159668,2.319336,-2054.0,6340.0,2856.0,-73.635864,69.71924,-55.030518
1770516529523,-1.1811523,-0.34570312,-0.0087890625,-26.123047,-1.159668,2.319336,-2054.0,6340.0,2856.0,-75.91553,69.7522,-56.535645
1770516529536,-1.1811523,-0.34570312,-0.0087890625,-26.123047,-1.159668,2.319336,0.0,0.0,0.0,-75.91553,69.7522,-56.535645
1770516529612,-1.0371094,-0.3251953,0.110839844,38.57422,70.373535,-26.428223,-1977.0,6292.0,2786.0,-75.91553,69.7522,-56.535645
1770516529623,-1.0371094,-0.3251953,0.110839844,38.57422,70.373535,-26.428223,-1977.0,6292.0,2786.0,-88.027954,69.521484,-68.2251
1770516529635,-1.0371094,-0.3251953,0.110839844,38.57422,70.373535,-26.428223,0.0,0.0,0.0,-88.027954,69.521484,-68.2251
1770516529712,-0.5864258,-0.56103516,0.28076172,-58.34961,-26.794434,19.16504,-1842.0,6420.0,3083.0,-88.027954,69.521484,-68.2251
1770516529723,-0.5864258,-0.56103516,0.28076172,-58.34961,-26.794434,19.16504,-1842.0,6420.0,3083.0,-91.23596,70.83984,-69.68628
1770516529734,-0.5864258,-0.56103516,0.28076172,-58.34961,-26.794434,19.16504,0.0,0.0,0.0,-91.23596,70.83984,-69.68628
1770516529811,-0.92578125,-0.18847656,-0.11376953,-42.785645,-66.52832,2.2583008,-1542.0,6387.0,3322.0,-91.23596,70.83984,-69.68628
1770516529823,-0.92578125,-0.18847656,-0.11376953,-42.785645,-66.52832,2.2583008,-1542.0,6387.0,3322.0,-78.95325,70.131226,-51.860962
1770516529834,-0.92578125,-0.18847656,-0.11376953,-42.785645,-66.52832,2.2583008,0.0,0.0,0.0,-78.95325,70.131226,-51.860962
1770516529911,-0.83740234,-0.27929688,0.0024414062,-7.019043,9.399414,-6.4086914,-925.0,5944.0,2929.0,-78.95325,70.131226,-51.860962
1770516529922,-0.83740234,-0.27929688,0.0024414062,-7.019043,9.399414,-6.4086914,-925.0,5944.0,2929.0,-75.981445,70.444336,-46.983032
1770516529940,-0.83740234,-0.27929688,0.0024414062,-7.019043,9.399414,-6.4086914,0.0,0.0,0.0,-75.981445,70.444336,-46.983032
1770516530011,-1.1264648,-0.3930664,9.765625E-4,0.18310547,12.390137,-0.79345703,-1736.0,6520.0,3160.0,-75.981445,70.444336,-46.983032
1770516530023,-1.1264648,-0.3930664,9.765625E-4,0.18310547,12.390137,-0.79345703,-1736.0,6520.0,3160.0,-79.34326,69.730225,-50.531616
1770516530034,-1.1264648,-0.3930664,9.765625E-4,0.18310547,12.390137,-0.79345703,0.0,0.0,0.0,-79.34326,69.730225,-50.531616
1770516530110,-1.3022461,-0.46923828,-0.111328125,-17.51709,40.161133,0.30517578,-1807.0,6617.0,3240.0,-79.34326,69.730225,-50.531616
1770516530122,-1.3022461,-0.46923828,-0.111328125,-17.51709,40.161133,0.30517578,-1807.0,6617.0,3240.0,-88.549805,70.06531,-59.996338
1770516530134,-1.3022461,-0.46923828,-0.111328125,-17.51709,40.161133,0.30517578,0.0,0.0,0.0,-88.549805,70.06531,-59.996338
1770516530210,-0.5917969,-0.23876953,0.1430664,8.239746,-4.5166016,-12.329102,-1561.0,6549.0,3394.0,-88.549805,70.06531,-59.996338
1770516530221,-0.5917969,-0.23876953,0.1430664,8.239746,-4.5166016,-12.329102,-1561.0,6549.0,3394.0,-96.03699,70.10925,-67.1759
1770516530233,-0.5917969,-0.23876953,0.1430664,8.239746,-4.5166016,-12.329102,0.0,0.0,0.0,-96.03699,70.10925,-67.1759
1770516530310,-1.1416016,-0.24023438,0.1459961,36.010742,-36.56006,7.446289,-1456.0,6610.0,3681.0,-96.03699,70.10925,-67.1759
1770516530321,-1.1416016,-0.24023438,0.1459961,36.010742,-36.56006,7.446289,-1456.0,6610.0,3681.0,-84.836426,69.86755,-57.617798
1770516530333,-1.1416016,-0.24023438,0.1459961,36.010742,-36.56006,7.446289,0.0,0.0,0.0,-84.836426,69.86755,-57.617798
1770516530409,-0.8300781,-0.33789062,-0.088378906,34.484863,-14.465332,-29.47998,-2067.0,6982.0,3712.0,-84.836426,69.86755,-57.617798
1770516530421,-0.8300781,-0.33789062,-0.088378906,34.484863,-14.465332,-29.47998,-2067.0,6982.0,3712.0,-75.24536,67.91748,-52.18506
1770516530432,-0.8300781,-0.33789062,-0.088378906,34.484863,-14.465332,-29.47998,0.0,0.0,0.0,-75.24536,67.91748,-52.18506
1770516530509,-0.82421875,-0.35888672,0.13330078,-8.300781,1.953125,0.24414062,-2001.0,6628.0,3135.0,-75.24536,67.91748,-52.18506
1770516530521,-0.82421875,-0.35888672,0.13330078,-8.300781,1.953125,0.24414062,-2001.0,6628.0,3135.0,-72.50427,67.27478,-50.03723
1770516530532,-0.82421875,-0.35888672,0.13330078,-8.300781,1.953125,0.24414062,0.0,0.0,0.0,-72.50427,67.27478,-50.03723
1770516530609,-1.2631836,-0.4375,0.20898438,-30.944824,-29.541016,11.59668,-1833.0,6316.0,2781.0,-72.50427,67.27478,-50.03723
1770516530620,-1.2631836,-0.4375,0.20898438,-30.944824,-29.541016,11.59668,-1833.0,6316.0,2781.0,-72.960205,67.3407,-48.12561
1770516530632,-1.2631836,-0.4375,0.20898438,-30.944824,-29.541016,11.59668,0.0,0.0,0.0,-72.960205,67.3407,-48.12561
1770516530709,-0.6948242,-0.45263672,0.16992188,-20.812988,13.061523,3.2958984,-1851.0,6369.0,2788.0,-72.960205,67.3407,-48.12561
1770516530720,-0.6948242,-0.45263672,0.16992188,-20.812988,13.061523,3.2958984,-1851.0,6369.0,2788.0,-73.19641,67.53296,-46.549072
1770516530732,-0.6948242,-0.45263672,0.16992188,-20.812988,13.061523,3.2958984,0.0,0.0,0.0,-73.19641,67.53296,-46.549072
1770516530808,-0.9482422,-0.21972656,0.036132812,-41.44287,-85.20508,-6.5307617,-1879.0,6472.0,2800.0,-73.19641,67.53296,-46.549072
1770516530820,-0.9482422,-0.21972656,0.036132812,-41.44287,-85.20508,-6.5307617,-1879.0,6472.0,2800.0,-69.609375,66.137695,-40.70984
1770516530832,-0.9482422,-0.21972656,0.036132812,-41.44287,-85.20508,-6.5307617,0.0,0.0,0.0,-69.609375,66.137695,-40.70984
1770516530908,-0.78027344,-0.2861328,0.12646484,15.686035,14.6484375,7.5683594,-1578.0,6288.0,2707.0,-69.609375,66.137695,-40.70984
1770516530920,-0.78027344,-0.2861328,0.12646484,15.686035,14.6484375,7.5683594,-1578.0,6288.0,2707.0,-62.819824,66.57715,-33.706055
1770516530932,-0.78027344,-0.2861328,0.12646484,15.686035,14.6484375,7.5683594,0.0,0.0,0.0,-62.819824,66.57715,-33.706055
1770516531008,-0.91796875,-0.46875,0.13720703,22.705078,-16.967773,-9.521484,-2312.0,6694.0,2742.0,-62.819824,66.57715,-33.706055
1770516531019,-0.91796875,-0.46875,0.13720703,22.705078,-16.967773,-9.521484,-2312.0,6694.0,2742.0,-62.177124,66.58264,-35.216675
1770516531031,-0.91796875,-0.46875,0.13720703,22.705078,-16.967773,-9.521484,0.0,0.0,0.0,-62.177124,66.58264,-35.216675
1770516531107,-0.93652344,-0.39794922,0.072753906,21.972656,29.052734,-10.070801,-2130.0,6499.0,2506.0,-62.177124,66.58264,-35.216675
1770516531119,-0.93652344,-0.39794922,0.072753906,21.972656,29.052734,-10.070801,-2130.0,6499.0,2506.0,-63.0011,66.049805,-38.78174
1770516531130,-0.93652344,-0.39794922,0.072753906,21.972656,29.052734,-10.070801,0.0,0.0,0.0,-63.0011,66.049805,-38.78174
1770516531207,-1.2260742,-0.47802734,-0.087402344,17.456055,33.996582,0.24414062,-2104.0,6344.0,2311.0,-63.0011,66.049805,-38.78174
1770516531219,-1.2260742,-0.47802734,-0.087402344,17.456055,33.996582,0.24414062,-2104.0,6344.0,2311.0,-67.093506,66.54968,-45.74707
1770516531237,-1.2260742,-0.47802734,-0.087402344,17.456055,33.996582,0.24414062,0.0,0.0,0.0,-67.093506,66.54968,-45.74707
1770516531307,-0.7265625,-0.4970703,0.14892578,13.122559,12.817383,9.338379,-2007.0,6247.0,2248.0,-67.093506,66.54968,-45.74707
1770516531319,-0.7265625,-0.4970703,0.14892578,13.122559,12.817383,9.338379,-2007.0,6247.0,2248.0,-74.94873,68.91174,-56.37085
1770516531331,-0.7265625,-0.4970703,0.14892578,13.122559,12.817383,9.338379,0.0,0.0,0.0,-74.94873,68.91174,-56.37085
1770516531407,-0.9736328,-0.09033203,0.24511719,15.014648,7.2631836,31.188965,-1753.0,6167.0,2425.0,-74.94873,68.91174,-56.37085
1770516531418,-0.9736328,-0.09033203,0.24511719,15.014648,7.2631836,31.188965,-1753.0,6167.0,2425.0,-75.34973,69.25781,-57.425537
1770516531431,-0.9736328,-0.09033203,0.24511719,15.014648,7.2631836,31.188965,0.0,0.0,0.0,-75.34973,69.25781,-57.425537
1770516531506,-0.82373047,-0.4790039,-0.109375,1.6479492,-2.2583008,-28.564453,-1898.0,6279.0,2663.0,-75.34973,69.25781,-57.425537
1770516531518,-0.82373047,-0.4790039,-0.109375,1.6479492,-2.2583008,-28.564453,-1898.0,6279.0,2663.0,-70.53223,69.37866,-54.04724
1770516531531,-0.82373047,-0.4790039,-0.109375,1.6479492,-2.2583008,-28.564453,0.0,0.0,0.0,-70.53223,69.37866,-54.04724
1770516531606,-0.87060547,-0.19873047,0.1484375,-11.962891,-16.601562,6.286621,-2246.0,6463.0,2646.0,-70.53223,69.37866,-54.04724
1770516531618,-0.87060547,-0.19873047,0.1484375,-11.962891,-16.601562,6.286621,-2246.0,6463.0,2646.0,-73.99292,68.68103,-56.33789
1770516531631,-0.87060547,-0.19873047,0.1484375,-11.962891,-16.601562,6.286621,0.0,0.0,0.0,-73.99292,68.68103,-56.33789
1770516531706,-1.0771484,-0.36132812,-0.05810547,-13.73291,12.878418,6.3476562,-1590.0,5999.0,2426.0,-73.99292,68.68103,-56.33789
1770516531717,-1.0771484,-0.36132812,-0.05810547,-13.73291,12.878418,6.3476562,-1590.0,5999.0,2426.0,-74.13574,69.87854,-54.371338
1770516531729,-1.0771484,-0.36132812,-0.05810547,-13.73291,12.878418,6.3476562,0.0,0.0,0.0,-74.13574,69.87854,-54.371338
1770516531805,-1.1425781,-0.30029297,0.061523438,40.283203,34.301758,-28.869629,-1800.0,6175.0,2618.0,-74.13574,69.87854,-54.371338
1770516531817,-1.1425781,-0.30029297,0.061523438,40.283203,34.301758,-28.869629,-1800.0,6175.0,2618.0,-83.60596,69.70276,-64.44031
1770516531833,-1.1425781,-0.30029297,0.061523438,40.283203,34.301758,-28.869629,0.0,0.0,0.0,-83.60596,69.70276,-64.44031
1770516531905,-0.6118164,-0.43847656,0.23535156,-36.56006,-5.493164,18.615723,-1717.0,6273.0,2890.0,-83.60596,69.70276,-64.44031
1770516531917,-0.6118164,-0.43847656,0.23535156,-36.56006,-5.493164,18.615723,-1717.0,6273.0,2890.0,-80.10681,70.72449,-61.276245
1770516531928,-0.6118164,-0.43847656,0.23535156,-36.56006,-5.493164,18.615723,0.0,0.0,0.0,-80.10681,70.72449,-61.276245
1770516532005,-1.1523438,-0.18066406,0.10498047,-31.25,-56.57959,0.79345703,-2095.0,6543.0,2994.0,-80.10681,70.72449,-61.276245
1770516532016,-1.1523438,-0.18066406,0.10498047,-31.25,-56.57959,0.79345703,-2095.0,6543.0,2994.0,-85.303345,69.58191,-66.50574
1770516532028,-1.1523438,-0.18066406,0.10498047,-31.25,-56.57959,0.79345703,0.0,0.0,0.0,-85.303345,69.58191,-66.50574
1770516532105,-0.7397461,-0.31201172,0.064941406,41.19873,27.954102,13.000488,-803.0,5694.0,2609.0,-85.303345,69.58191,-66.50574
1770516532116,-0.7397461,-0.31201172,0.064941406,41.19873,27.954102,13.000488,-803.0,5694.0,2609.0,-68.2251,71.38367,-43.807983
1770516532128,-0.7397461,-0.31201172,0.064941406,41.19873,27.954102,13.000488,0.0,0.0,0.0,-68.2251,71.38367,-43.807983
1770516532204,-1.0288086,-0.42089844,0.07128906,-1.8310547,-3.2348633,-26.367188,-2279.0,6702.0,2996.0,-68.2251,71.38367,-43.807983
1770516532216,-1.0288086,-0.42089844,0.07128906,-1.8310547,-3.2348633,-26.367188,-2279.0,6702.0,2996.0,-75.22339,70.96619,-54.662476
1770516532227,-1.0288086,-0.42089844,0.07128906,-1.8310547,-3.2348633,-26.367188,0.0,0.0,0.0,-75.22339,70.96619,-54.662476
1770516532304,-1.0693359,-0.33935547,-0.14501953,8.728027,36.254883,5.004883,-2396.0,6788.0,3052.0,-75.22339,70.96619,-54.662476
1770516532315,-1.0693359,-0.33935547,-0.14501953,8.728027,36.254883,5.004883,-2396.0,6788.0,3052.0,-79.53552,70.76843,-57.678223
1770516532329,-1.0693359,-0.33935547,-0.14501953,8.728027,36.254883,5.004883,0.0,0.0,0.0,-79.53552,70.76843,-57.678223
1770516532404,-0.8256836,-0.37158203,0.20458984,-2.6855469,12.207031,12.084961,-1621.0,6238.0,2868.0,-79.53552,70.76843,-57.678223
1770516532415,-0.8256836,-0.37158203,0.20458984,-2.6855469,12.207031,12.084961,-1621.0,6238.0,2868.0,-90.76904,72.454834,-69.18091
1770516532427,-0.8256836,-0.37158203,0.20458984,-2.6855469,12.207031,12.084961,0.0,0.0,0.0,-90.76904,72.454834,-69.18091
1770516532503,-0.7548828,-0.024414062,0.16210938,17.333984,-26.123047,-10.498047,-1480.0,6299.0,3135.0,-90.76904,72.454834,-69.18091
1770516532515,-0.7548828,-0.024414062,0.16210938,17.333984,-26.123047,-10.498047,-1480.0,6299.0,3135.0,-85.56702,71.641846,-64.105225
1770516532527,-0.7548828,-0.024414062,0.16210938,17.333984,-26.123047,-10.498047,0.0,0.0,0.0,-85.56702,71.641846,-64.105225
1770516532603,-1.012207,-0.48242188,0.119140625,23.925781,-15.808105,-18.432617,-1640.0,6422.0,3283.0,-85.56702,71.641846,-64.105225
1770516532615,-1.012207,-0.48242188,0.119140625,23.925781,-15.808105,-18.432617,-1640.0,6422.0,3283.0,-73.67432,71.50452,-53.569336
1770516532626,-1.012207,-0.48242188,0.119140625,23.925781,-15.808105,-18.432617,0.0,0.0,0.0,-73.67432,71.50452,-53.569336
1770516532703,-0.8276367,-0.32763672,0.03515625,-26.97754,-21.66748,-3.4179688,-2344.0,6766.0,3203.0,-73.67432,71.50452,-53.569336
1770516532714,-0.8276367,-0.32763672,0.03515625,-26.97754,-21.66748,-3.4179688,-2344.0,6766.0,3203.0,-73.97644,69.5874,-53.05298
1770516532727,-0.8276367,-0.32763672,0.03515625,-26.97754,-21.66748,-3.4179688,0.0,0.0,0.0,-73.97644,69.5874,-53.05298
1770516532803,-0.87060547,-0.19628906,0.08154297,-17.456055,-1.5258789,7.5683594,-1412.0,5967.0,2661.0,-73.97644,69.5874,-53.05298
1770516532814,-0.87060547,-0.19628906,0.08154297,-17.456055,-1.5258789,7.5683594,-1412.0,5967.0,2661.0,-71.6803,69.521484,-48.806763
1770516532825,-0.87060547,-0.19628906,0.08154297,-17.456055,-1.5258789,7.5683594,0.0,0.0,0.0,-71.6803,69.521484,-48.806763
1770516532903,-1.2431641,-0.30908203,-0.14257812,-20.263672,27.160645,7.9345703,-1708.0,6153.0,2678.0,-71.6803,69.521484,-48.806763
1770516532914,-1.2431641,-0.30908203,-0.14257812,-20.263672,27.160645,7.9345703,-1708.0,6153.0,2678.0,-75.41565,70.72449,-51.185303
1770516532926,-1.2431641,-0.30908203,-0.14257812,-20.263672,27.160645,7.9345703,0.0,0.0,0.0,-75.41565,70.72449,-51.185303
1770516533002,-0.9555664,-0.18017578,0.095703125,28.015137,-3.112793,-6.164551,-1821.0,6317.0,2902.0,-75.41565,70.72449,-51.185303
1770516533013,-0.9555664,-0.18017578,0.095703125,28.015137,-3.112793,-6.164551,-1821.0,6317.0,2902.0,-81.28235,70.60913,-59.96338
1770516533026,-0.9555664,-0.18017578,0.095703125,28.015137,-3.112793,-6.164551,0.0,0.0,0.0,-81.28235,70.60913,-59.96338
1770516533102,-0.62646484,-0.43164062,0.21289062,-5.004883,17.822266,-14.343262,-1793.0,6392.0,2990.0,-81.28235,70.60913,-59.96338
1770516533113,-0.62646484,-0.43164062,0.21289062,-5.004883,17.822266,-14.343262,-1793.0,6392.0,2990.0,-80.06287,70.99365,-58.189087
1770516533125,-0.62646484,-0.43164062,0.21289062,-5.004883,17.822266,-14.343262,0.0,0.0,0.0,-80.06287,70.99365,-58.189087
1770516533201,-1.050293,-0.19042969,0.0014648438,-67.13867,-75.74463,14.526367,-1743.0,6329.0,2962.0,-80.06287,70.99365,-58.189087
1770516533213,-1.050293,-0.19042969,0.0014648438,-67.13867,-75.74463,14.526367,-1743.0,6329.0,2962.0,-73.40515,70.076294,-49.317627
1770516533224,-1.050293,-0.19042969,0.0014648438,-67.13867,-75.74463,14.526367,0.0,0.0,0.0,-73.40515,70.076294,-49.317627
1770516533301,-0.78759766,-0.17333984,0.10595703,23.31543,-0.79345703,-2.1972656,-1531.0,6195.0,2835.0,-73.40515,70.076294,-49.317627
1770516533313,-0.78759766,-0.17333984,0.10595703,23.31543,-0.79345703,-2.1972656,-1531.0,6195.0,2835.0,-66.73645,72.075806,-42.30835
1770516533324,-0.78759766,-0.17333984,0.10595703,23.31543,-0.79345703,-2.1972656,0.0,0.0,0.0,-66.73645,72.075806,-42.30835
1770516533401,-0.9790039,-0.35888672,0.084472656,1.953125,-0.061035156,-7.1411133,-2763.0,7032.0,3188.0,-66.73645,72.075806,-42.30835
1770516533412,-0.9790039,-0.35888672,0.084472656,1.953125,-0.061035156,-7.1411133,-2763.0,7032.0,3188.0,-68.02734,70.84534,-45.48889
1770516533426,-0.9790039,-0.35888672,0.084472656,1.953125,-0.061035156,-7.1411133,0.0,0.0,0.0,-68.02734,70.84534,-45.48889
1770516533501,-1.1269531,-0.34326172,-0.075683594,-5.3710938,31.37207,4.5166016,-2211.0,6507.0,2780.0,-68.02734,70.84534,-45.48889
1770516533513,-1.1269531,-0.34326172,-0.075683594,-5.3710938,31.37207,4.5166016,-2211.0,6507.0,2780.0,-74.141235,71.39465,-50.943604
1770516533525,-1.1269531,-0.34326172,-0.075683594,-5.3710938,31.37207,4.5166016,0.0,0.0,0.0,-74.141235,71.39465,-50.943604
1770516533600,-1.1328125,-0.41455078,0.14257812,-18.798828,42.114258,5.92041,-1910.0,6363.0,2798.0,-74.141235,71.39465,-50.943604
1770516533612,-1.1328125,-0.41455078,0.14257812,-18.798828,42.114258,5.92041,-1910.0,6363.0,2798.0,-86.96228,73.064575,-62.14966
1770516533624,-1.1328125,-0.41455078,0.14257812,-18.798828,42.114258,5.92041,0.0,0.0,0.0,-86.96228,73.064575,-62.14966
1770516533700,-0.6635742,-0.037597656,0.19921875,12.023926,-33.5083,-6.8969727,-1693.0,6435.0,3148.0,-86.96228,73.064575,-62.14966
1770516533711,-0.6635742,-0.037597656,0.19921875,12.023926,-33.5083,-6.8969727,-1693.0,6435.0,3148.0,-83.221436,72.31201,-58.568115
1770516533730,-0.6635742,-0.037597656,0.19921875,12.023926,-33.5083,-6.8969727,0.0,0.0,0.0,-83.221436,72.31201,-58.568115
1770516533800,-1.1137695,-0.3540039,0.1694336,27.954102,-12.878418,-32.77588,-2001.0,6707.0,3377.0,-83.221436,72.31201,-58.568115
1770516533811,-1.1137695,-0.3540039,0.1694336,27.954102,-12.878418,-32.77588,-2001.0,6707.0,3377.0,-73.97095,73.11401,-51.416016
1770516533823,-1.1137695,-0.3540039,0.1694336,27.954102,-12.878418,-32.77588,0.0,0.0,0.0,-73.97095,73.11401,-51.416016
1770516533899,-0.8388672,-0.30078125,0.022949219,-24.841309,-10.375977,-0.61035156,-2169.0,6692.0,3215.0,-73.97095,73.11401,-51.416016
1770516533911,-0.8388672,-0.30078125,0.022949219,-24.841309,-10.375977,-0.61035156,-2169.0,6692.0,3215.0,-76.67908,70.40039,-53.223267
1770516533922,-0.8388672,-0.30078125,0.022949219,-24.841309,-10.375977,-0.61035156,0.0,0.0,0.0,-76.67908,70.40039,-53.223267
1770516533999,-0.87646484,-0.18701172,-9.765625E-4,-12.756348,-1.2207031,7.1411133,-1209.0,5930.0,2665.0,-76.67908,70.40039,-53.223267
1770516534011,-0.87646484,-0.18701172,-9.765625E-4,-12.756348,-1.2207031,7.1411133,-1209.0,5930.0,2665.0,-73.55347,70.52124,-48.312378
1770516534022,-0.87646484,-0.18701172,-9.765625E-4,-12.756348,-1.2207031,7.1411133,0.0,0.0,0.0,-73.55347,70.52124,-48.312378
1770516534099,-1.1665039,-0.32226562,-0.09667969,-8.483887,22.888184,1.0375977,-1895.0,6428.0,2985.0,-73.55347,70.52124,-48.312378
1770516534110,-1.1665039,-0.32226562,-0.09667969,-8.483887,22.888184,1.0375977,-1895.0,6428.0,2985.0,-78.39844,71.51001,-52.712402
1770516534122,-1.1665039,-0.32226562,-0.09667969,-8.483887,22.888184,1.0375977,0.0,0.0,0.0,-78.39844,71.51001,-52.712402
1770516534199,-1.0395508,-0.23535156,0.061035156,42.053223,3.7231445,-18.737793,-2108.0,6666.0,3133.0,-78.39844,71.51001,-52.712402
1770516534210,-1.0395508,-0.23535156,0.061035156,42.053223,3.7231445,-18.737793,-2108.0,6666.0,3133.0,-84.06738,71.35071,-59.88098
1770516534221,-1.0395508,-0.23535156,0.061035156,42.053223,3.7231445,-18.737793,0.0,0.0,0.0,-84.06738,71.35071,-59.88098
1770516534298,-0.60498047,-0.32421875,0.18847656,1.953125,14.099121,18.005371,-2042.0,6718.0,3253.0,-84.06738,71.35071,-59.88098
1770516534310,-0.60498047,-0.32421875,0.18847656,1.953125,14.099121,18.005371,-2042.0,6718.0,3253.0,-81.18347,72.61963,-58.320923
1770516534323,-0.60498047,-0.32421875,0.18847656,1.953125,14.099121,18.005371,0.0,0.0,0.0,-81.18347,72.61963,-58.320923
1770516534398,-1.1069336,-0.32470703,0.2241211,-27.09961,-58.776855,9.094238,-2093.0,6672.0,3189.0,-81.18347,72.61963,-58.320923
1770516534409,-1.1069336,-0.32470703,0.2241211,-27.09961,-58.776855,9.094238,-2093.0,6672.0,3189.0,-80.25513,72.21863,-57.540894
1770516534421,-1.1069336,-0.32470703,0.2241211,-27.09961,-58.776855,9.094238,0.0,0.0,0.0,-80.25513,72.21863,-57.540894
1770516534498,-0.80371094,-0.30126953,-0.021484375,41.07666,19.714355,11.108398,-1376.0,6202.0,2974.0,-80.25513,72.21863,-57.540894
1770516534509,-0.80371094,-0.30126953,-0.021484375,41.07666,19.714355,11.108398,-1376.0,6202.0,2974.0,-68.81836,74.22363,-43.73108
1770516534522,-0.80371094,-0.30126953,-0.021484375,41.07666,19.714355,11.108398,0.0,0.0,0.0,-68.81836,74.22363,-43.73108
1770516534597,-0.9296875,-0.35742188,0.0625,0.061035156,-10.009766,-23.620605,-2849.0,7218.0,3391.0,-68.81836,74.22363,-43.73108
1770516534609,-0.9296875,-0.35742188,0.0625,0.061035156,-10.009766,-23.620605,-2849.0,7218.0,3391.0,-66.71448,73.081055,-44.890137
1770516534627,-0.9296875,-0.35742188,0.0625,0.061035156,-10.009766,-23.620605,0.0,0.0,0.0,-66.71448,73.081055,-44.890137
1770516534697,-1.1308594,-0.34423828,-0.036132812,-3.2958984,26.916504,-3.6010742,-2702.0,6972.0,3118.0,-66.71448,73.081055,-44.890137
1770516534709,-1.1308594,-0.34423828,-0.036132812,-3.2958984,26.916504,-3.6010742,-2702.0,6972.0,3118.0,-71.42212,72.50427,-50.152588
1770516534721,-1.1308594,-0.34423828,-0.036132812,-3.2958984,26.916504,-3.6010742,0.0,0.0,0.0,-71.42212,72.50427,-50.152588
1770516534797,-1.1699219,-0.32910156,0.13330078,8.911133,51.940918,9.58252,-2085.0,6467.0,2863.0,-71.42212,72.50427,-50.152588
1770516534808,-1.1699219,-0.32910156,0.13330078,8.911133,51.940918,9.58252,-2085.0,6467.0,2863.0,-82.924805,73.66882,-61.155396
1770516534820,-1.1699219,-0.32910156,0.13330078,8.911133,51.940918,9.58252,0.0,0.0,0.0,-82.924805,73.66882,-61.155396
1770516534897,-0.6977539,-0.14990234,0.1821289,3.4179688,-26.367188,-5.7373047,-2005.0,6558.0,3108.0,-82.924805,73.66882,-61.155396
1770516534908,-0.6977539,-0.14990234,0.1821289,3.4179688,-26.367188,-5.7373047,-2005.0,6558.0,3108.0,-84.62219,73.948975,-63.424072
1770516534931,-0.6977539,-0.14990234,0.1821289,3.4179688,-26.367188,-5.7373047,0.0,0.0,0.0,-84.62219,73.948975,-63.424072
1770516534996,-1.0727539,-0.35253906,0.13232422,30.88379,-8.850098,-22.033691,-2133.0,6724.0,3346.0,-84.62219,73.948975,-63.424072
1770516535008,-1.0727539,-0.35253906,0.13232422,30.88379,-8.850098,-22.033691,-2133.0,6724.0,3346.0,-77.12402,73.24585,-57.20581
1770516535031,-1.0727539,-0.35253906,0.13232422,30.88379,-8.850098,-22.033691,0.0,0.0,0.0,-77.12402,73.24585,-57.20581
1770516535096,-0.83203125,-0.25585938,-0.026367188,-19.714355,-4.3945312,-2.0141602,-2470.0,6837.0,3299.0,-77.12402,73.24585,-57.20581
1770516535107,-0.83203125,-0.25585938,-0.026367188,-19.714355,-4.3945312,-2.0141602,-2470.0,6837.0,3299.0,-76.00342,71.207886,-56.854248
1770516535119,-0.83203125,-0.25585938,-0.026367188,-19.714355,-4.3945312,-2.0141602,0.0,0.0,0.0,-76.00342,71.207886,-56.854248
1770516535196,-0.87890625,-0.234375,0.0029296875,-29.968262,-7.6904297,4.0283203,-2103.0,6455.0,2950.0,-76.00342,71.207886,-56.854248
1770516535207,-0.87890625,-0.234375,0.0029296875,-29.968262,-7.6904297,4.0283203,-2103.0,6455.0,2950.0,-77.58545,71.3562,-56.05774
1770516535219,-0.87890625,-0.234375,0.0029296875,-29.968262,-7.6904297,4.0283203,0.0,0.0,0.0,-77.58545,71.3562,-56.05774
1770516535295,-1.1230469,-0.2939453,-0.103515625,-14.038086,33.203125,2.5634766,-2041.0,6450.0,3014.0,-77.58545,71.3562,-56.05774
1770516535307,-1.1230469,-0.2939453,-0.103515625,-14.038086,33.203125,2.5634766,-2041.0,6450.0,3014.0,-83.62244,72.25159,-58.95813
1770516535321,-1.1230469,-0.2939453,-0.103515625,-14.038086,33.203125,2.5634766,0.0,0.0,0.0,-83.62244,72.25159,-58.95813
1770516535395,-1.1469727,-0.2915039,0.03857422,38.085938,17.578125,-12.6953125,-2139.0,6717.0,3276.0,-83.62244,72.25159,-58.95813
1770516535407,-1.1469727,-0.2915039,0.03857422,38.085938,17.578125,-12.6953125,-2139.0,6717.0,3276.0,-90.774536,71.42761,-67.576904
1770516535420,-1.1469727,-0.2915039,0.03857422,38.085938,17.578125,-12.6953125,0.0,0.0,0.0,-90.774536,71.42761,-67.576904
1770516535495,-0.5546875,-0.35546875,0.13671875,0.061035156,-11.108398,5.1879883,-2140.0,6843.0,3509.0,-90.774536,71.42761,-67.576904
1770516535506,-0.5546875,-0.35546875,0.13671875,0.061035156,-11.108398,5.1879883,-2140.0,6843.0,3509.0,-85.86914,72.323,-63.319702
1770516535518,-0.5546875,-0.35546875,0.13671875,0.061035156,-11.108398,5.1879883,0.0,0.0,0.0,-85.86914,72.323,-63.319702
1770516535595,-1.0708008,-0.34033203,0.072753906,-36.621094,-61.157227,8.300781,-2160.0,6796.0,3438.0,-85.86914,72.323,-63.319702
1770516535606,-1.0708008,-0.34033203,0.072753906,-36.621094,-61.157227,8.300781,-2160.0,6796.0,3438.0,-82.69409,71.257324,-60.029297
1770516535618,-1.0708008,-0.34033203,0.072753906,-36.621094,-61.157227,8.300781,0.0,0.0,0.0,-82.69409,71.257324,-60.029297
1770516535694,-0.90625,-0.29736328,0.04736328,18.737793,-3.112793,36.193848,-1273.0,6143.0,2975.0,-82.69409,71.257324,-60.029297
1770516535706,-0.90625,-0.29736328,0.04736328,18.737793,-3.112793,36.193848,-1273.0,6143.0,2975.0,-59.578857,71.900024,-32.50305
1770516535717,-0.90625,-0.29736328,0.04736328,18.737793,-3.112793,36.193848,0.0,0.0,0.0,-59.578857,71.900024,-32.50305
1770516535794,-0.9116211,-0.3486328,0.096191406,4.211426,14.038086,-27.09961,-2443.0,6804.0,3075.0,-59.578857,71.900024,-32.50305
1770516535806,-0.9116211,-0.3486328,0.096191406,4.211426,14.038086,-27.09961,-2443.0,6804.0,3075.0,-64.973145,72.21863,-40.83618
1770516535818,-0.9116211,-0.3486328,0.096191406,4.211426,14.038086,-27.09961,0.0,0.0,0.0,-64.973145,72.21863,-40.83618
1770516535894,-1.0791016,-0.32226562,0.0063476562,-19.226074,27.770996,5.6762695,-2596.0,6864.0,2995.0,-64.973145,72.21863,-40.83618
1770516535905,-1.0791016,-0.32226562,0.0063476562,-19.226074,27.770996,5.6762695,-2596.0,6864.0,2995.0,-73.168945,72.00989,-48.180542
1770516535919,-1.0791016,-0.32226562,0.0063476562,-19.226074,27.770996,5.6762695,0.0,0.0,0.0,-73.168945,72.00989,-48.180542
1770516535993,-0.9663086,-0.33251953,0.20410156,-17.76123,14.6484375,7.6904297,-1888.0,6384.0,2908.0,-73.168945,72.00989,-48.180542
1770516536005,-0.9663086,-0.33251953,0.20410156,-17.76123,14.6484375,7.6904297,-1888.0,6384.0,2908.0,-81.13953,73.602905,-54.041748
1770516536016,-0.9663086,-0.33251953,0.20410156,-17.76123,14.6484375,7.6904297,0.0,0.0,0.0,-81.13953,73.602905,-54.041748
1770516536093,-0.76660156,0.030761719,0.1484375,15.441895,1.0375977,0.48828125,-1772.0,6487.0,3185.0,-81.13953,73.602905,-54.041748
1770516536104,-0.76660156,0.030761719,0.1484375,15.441895,1.0375977,0.48828125,-1772.0,6487.0,3185.0,-79.68933,73.02063,-52.679443
1770516536116,-0.76660156,0.030761719,0.1484375,15.441895,1.0375977,0.48828125,0.0,0.0,0.0,-79.68933,73.02063,-52.679443
1770516536193,-0.94433594,-0.6171875,0.03857422,6.164551,-10.864258,-54.626465,-1959.0,6684.0,3417.0,-79.68933,73.02063,-52.679443
1770516536204,-0.94433594,-0.6171875,0.03857422,6.164551,-10.864258,-54.626465,-1959.0,6684.0,3417.0,-73.6853,72.72949,-48.147583
1770516536218,-0.94433594,-0.6171875,0.03857422,6.164551,-10.864258,-54.626465,0.0,0.0,0.0,-73.6853,72.72949,-48.147583
1770516536292,-0.8330078,-0.23242188,0.068847656,-2.8686523,-20.996094,7.507324,-2483.0,7033.0,3393.0,-73.6853,72.72949,-48.147583
1770516536304,-0.8330078,-0.23242188,0.068847656,-2.8686523,-20.996094,7.507324,-2483.0,7033.0,3393.0,-75.98694,70.53223,-50.1416
1770516536318,-0.8330078,-0.23242188,0.068847656,-2.8686523,-20.996094,7.507324,0.0,0.0,0.0,-75.98694,70.53223,-50.1416
1770516536392,-0.91796875,-0.24902344,-0.013671875,-18.920898,-7.446289,3.9672852,-1936.0,6561.0,3119.0,-75.98694,70.53223,-50.1416
1770516536404,-0.91796875,-0.24902344,-0.013671875,-18.920898,-7.446289,3.9672852,-1936.0,6561.0,3119.0,-71.87805,70.686035,-45.076904
1770516536415,-0.91796875,-0.24902344,-0.013671875,-18.920898,-7.446289,3.9672852,0.0,0.0,0.0,-71.87805,70.686035,-45.076904
1770516536492,-1.1650391,-0.27246094,-0.0859375,-3.540039,23.132324,-1.7089844,-2265.0,6763.0,3178.0,-71.87805,70.686035,-45.076904
1770516536503,-1.1650391,-0.27246094,-0.0859375,-3.540039,23.132324,-1.7089844,-2265.0,6763.0,3178.0,-75.99243,71.38916,-48.43872
1770516536515,-1.1650391,-0.27246094,-0.0859375,-3.540039,23.132324,-1.7089844,0.0,0.0,0.0,-75.99243,71.38916,-48.43872
1770516536592,-0.9526367,-0.18017578,0.11816406,13.73291,0.18310547,0.79345703,-2337.0,6884.0,3276.0,-75.99243,71.38916,-48.43872
1770516536603,-0.9526367,-0.18017578,0.11816406,13.73291,0.18310547,0.79345703,-2337.0,6884.0,3276.0,-80.71106,71.16394,-55.7666
1770516536615,-0.9526367,-0.18017578,0.11816406,13.73291,0.18310547,0.79345703,0.0,0.0,0.0,-80.71106,71.16394,-55.7666
1770516536691,-0.6376953,-0.61376953,0.20410156,-2.746582,4.1503906,-1.7089844,-2264.0,6898.0,3313.0,-80.71106,71.16394,-55.7666
1770516536703,-0.6376953,-0.61376953,0.20410156,-2.746582,4.1503906,-1.7089844,-2264.0,6898.0,3313.0,-78.4259,72.46582,-53.668213
1770516536715,-0.6376953,-0.61376953,0.20410156,-2.746582,4.1503906,-1.7089844,0.0,0.0,0.0,-78.4259,72.46582,-53.668213
1770516536792,-1.019043,-0.08203125,0.16748047,-19.77539,-74.58496,-0.12207031,-2062.0,6722.0,3205.0,-78.4259,72.46582,-53.668213
1770516536802,-1.019043,-0.08203125,0.16748047,-19.77539,-74.58496,-0.12207031,-2062.0,6722.0,3205.0,-71.553955,70.41138,-45.477905
1770516536814,-1.019043,-0.08203125,0.16748047,-19.77539,-74.58496,-0.12207031,0.0,0.0,0.0,-71.553955,70.41138,-45.477905
1770516536891,-0.85546875,-0.16894531,0.115234375,26.672363,25.512695,15.991211,-1363.0,6160.0,2858.0,-71.553955,70.41138,-45.477905
1770516536902,-0.85546875,-0.16894531,0.115234375,26.672363,25.512695,15.991211,-1363.0,6160.0,2858.0,-60.81482,72.89978,-35.64514
1770516536914,-0.85546875,-0.16894531,0.115234375,26.672363,25.512695,15.991211,0.0,0.0,0.0,-60.81482,72.89978,-35.64514
1770516536991,-0.95703125,-0.3857422,-0.025878906,6.4086914,-0.12207031,-9.094238,-2870.0,7144.0,3162.0,-60.81482,72.89978,-35.64514
1770516537002,-0.95703125,-0.3857422,-0.025878906,6.4086914,-0.12207031,-9.094238,-2870.0,7144.0,3162.0,-63.918457,71.75171,-41.39099
1770516537014,-0.95703125,-0.3857422,-0.025878906,6.4086914,-0.12207031,-9.094238,0.0,0.0,0.0,-63.918457,71.75171,-41.39099
1770516537090,-1.0722656,-0.37695312,0.0048828125,13.793945,31.00586,-0.48828125,-2389.0,6718.0,2840.0,-63.918457,71.75171,-41.39099
1770516537102,-1.0722656,-0.37695312,0.0048828125,13.793945,31.00586,-0.48828125,-2389.0,6718.0,2840.0,-74.02588,72.54822,-53.118896
1770516537124,-1.0722656,-0.37695312,0.0048828125,13.793945,31.00586,-0.48828125,0.0,0.0,0.0,-74.02588,72.54822,-53.118896
1770516537190,-0.8930664,-0.30908203,0.21533203,-0.7324219,-11.352539,6.4086914,-2117.0,6553.0,2927.0,-74.02588,72.54822,-53.118896
1770516537201,-0.8930664,-0.30908203,0.21533203,-0.7324219,-11.352539,6.4086914,-2117.0,6553.0,2927.0,-78.38196,73.35022,-57.27173
1770516537213,-0.8930664,-0.30908203,0.21533203,-0.7324219,-11.352539,6.4086914,0.0,0.0,0.0,-78.38196,73.35022,-57.27173
1770516537290,-0.8364258,-0.020019531,0.21191406,20.996094,-4.0283203,12.817383,-2056.0,6577.0,3117.0,-78.38196,73.35022,-57.27173
1770516537301,-0.8364258,-0.020019531,0.21191406,20.996094,-4.0283203,12.817383,-2056.0,6577.0,3117.0,-72.38342,72.61963,-52.833252
1770516537314,-0.8364258,-0.020019531,0.21191406,20.996094,-4.0283203,12.817383,0.0,0.0,0.0,-72.38342,72.61963,-52.833252
1770516537389,-0.92529297,-0.5058594,0.03955078,15.075684,-6.713867,-46.081543,-2364.0,6705.0,3066.0,-72.38342,72.61963,-52.833252
1770516537401,-0.92529297,-0.5058594,0.03955078,15.075684,-6.713867,-46.081543,-2364.0,6705.0,3066.0,-68.5437,71.18591,-50.90515
1770516537413,-0.92529297,-0.5058594,0.03955078,15.075684,-6.713867,-46.081543,0.0,0.0,0.0,-68.5437,71.18591,-50.90515
1770516537489,-0.8618164,-0.28320312,0.13964844,-8.239746,-23.132324,3.3569336,-2372.0,6574.0,2862.0,-68.5437,71.18591,-50.90515
1770516537501,-0.8618164,-0.28320312,0.13964844,-8.239746,-23.132324,3.3569336,-2372.0,6574.0,2862.0,-65.98938,69.85657,-46.746826
1770516537512,-0.8618164,-0.28320312,0.13964844,-8.239746,-23.132324,3.3569336,0.0,0.0,0.0,-65.98938,69.85657,-46.746826
1770516537589,-0.93896484,-0.28955078,0.06201172,-23.742676,-4.9438477,5.859375,-2275.0,6439.0,2695.0,-65.98938,69.85657,-46.746826
1770516537600,-0.93896484,-0.28955078,0.06201172,-23.742676,-4.9438477,5.859375,-2275.0,6439.0,2695.0,-64.18762,69.98291,-43.379517
1770516537613,-0.93896484,-0.28955078,0.06201172,-23.742676,-4.9438477,5.859375,0.0,0.0,0.0,-64.18762,69.98291,-43.379517
1770516537688,-1.1582031,-0.3388672,-0.0703125,-12.939453,22.766113,-8.972168,-2524.0,6591.0,2665.0,-64.18762,69.98291,-43.379517
1770516537700,-1.1582031,-0.3388672,-0.0703125,-12.939453,22.766113,-8.972168,-2524.0,6591.0,2665.0,-69.4281,70.19165,-47.213745
1770516537711,-1.1582031,-0.3388672,-0.0703125,-12.939453,22.766113,-8.972168,0.0,0.0,0.0,-69.4281,70.19165,-47.213745
1770516537788,-0.9482422,-0.122558594,0.19580078,7.9345703,11.474609,1.5258789,-2502.0,6709.0,2864.0,-69.4281,70.19165,-47.213745
1770516537800,-0.9482422,-0.122558594,0.19580078,7.9345703,11.474609,1.5258789,-2502.0,6709.0,2864.0,-76.92627,70.12024,-56.013794
1770516537811,-0.9482422,-0.122558594,0.19580078,7.9345703,11.474609,1.5258789,0.0,0.0,0.0,-76.92627,70.12024,-56.013794
1770516537888,-0.78271484,-0.74121094,0.28466797,4.760742,10.314941,-24.597168,-2408.0,6781.0,3020.0,-76.92627,70.12024,-56.013794
1770516537899,-0.78271484,-0.74121094,0.28466797,4.760742,10.314941,-24.597168,-2408.0,6781.0,3020.0,-77.6239,71.22986,-55.409546
1770516537911,-0.78271484,-0.74121094,0.28466797,4.760742,10.314941,-24.597168,0.0,0.0,0.0,-77.6239,71.22986,-55.409546
1770516537988,-0.88964844,0.049316406,0.029785156,-26.062012,-73.24219,63.90381,-1895.0,6453.0,2921.0,-77.6239,71.22986,-55.409546
1770516537999,-0.88964844,0.049316406,0.029785156,-26.062012,-73.24219,63.90381,-1895.0,6453.0,2921.0,-67.46704,70.03235,-42.37976
1770516538011,-0.88964844,0.049316406,0.029785156,-26.062012,-73.24219,63.90381,0.0,0.0,0.0,-67.46704,70.03235,-42.37976
1770516538087,-0.8618164,-0.25195312,0.14257812,40.34424,15.441895,-26.184082,-1501.0,6125.0,2742.0,-67.46704,70.03235,-42.37976
1770516538099,-0.8618164,-0.25195312,0.14257812,40.34424,15.441895,-26.184082,-1501.0,6125.0,2742.0,-61.99585,73.185425,-38.397217
1770516538118,-0.8618164,-0.25195312,0.14257812,40.34424,15.441895,-26.184082,0.0,0.0,0.0,-61.99585,73.185425,-38.397217
1770516538187,-1.0581055,-0.43066406,9.765625E-4,-7.1411133,3.2348633,3.4179688,-3127.0,7343.0,3157.0,-61.99585,73.185425,-38.397217
1770516538198,-1.0581055,-0.43066406,9.765625E-4,-7.1411133,3.2348633,3.4179688,-3127.0,7343.0,3157.0,-65.061035,71.37268,-42.25891
1770516538216,-1.0581055,-0.43066406,9.765625E-4,-7.1411133,3.2348633,3.4179688,0.0,0.0,0.0,-65.061035,71.37268,-42.25891
1770516538288,-1.3447266,-0.32373047,0.041992188,-12.756348,25.6958,12.939453,-2182.0,6553.0,2792.0,-65.061035,71.37268,-42.25891
1770516538298,-1.3447266,-0.32373047,0.041992188,-12.756348,25.6958,12.939453,-2182.0,6553.0,2792.0,-72.855835,72.57568,-49.29016
1770516538309,-1.3447266,-0.32373047,0.041992188,-12.756348,25.6958,12.939453,0.0,0.0,0.0,-72.855835,72.57568,-49.29016
1770516538386,-0.7866211,-0.30273438,0.12841797,2.0751953,-7.507324,-9.033203,-2051.0,6541.0,2952.0,-72.855835,72.57568,-49.29016
1770516538398,-0.7866211,-0.30273438,0.12841797,2.0751953,-7.507324,-9.033203,-2051.0,6541.0,2952.0,-75.50354,73.48755,-51.569824
1770516538409,-0.7866211,-0.30273438,0.12841797,2.0751953,-7.507324,-9.033203,0.0,0.0,0.0,-75.50354,73.48755,-51.569824
1770516538486,-0.9614258,-0.095703125,0.29101562,16.052246,-2.746582,9.277344,-2213.0,6758.0,3221.0,-75.50354,73.48755,-51.569824
1770516538498,-0.9614258,-0.095703125,0.29101562,16.052246,-2.746582,9.277344,-2213.0,6758.0,3221.0,-73.00964,73.11401,-50.410767
1770516538518,-0.9614258,-0.095703125,0.29101562,16.052246,-2.746582,9.277344,0.0,0.0,0.0,-73.00964,73.11401,-50.410767
1770516538586,-0.8989258,-0.24609375,-0.10644531,3.2348633,3.90625,-21.30127,-2458.0,6905.0,3270.0,-73.00964,73.11401,-50.410767
1770516538597,-0.8989258,-0.24609375,-0.10644531,3.2348633,3.90625,-21.30127,-2458.0,6905.0,3270.0,-69.01611,70.42786,-48.30139
1770516538609,-0.8989258,-0.24609375,-0.10644531,3.2348633,3.90625,-21.30127,0.0,0.0,0.0,-69.01611,70.42786,-48.30139
1770516538685,-0.8417969,-0.25830078,0.078125,-10.070801,-23.19336,-0.7324219,-2227.0,6604.0,2921.0,-69.01611,70.42786,-48.30139
1770516538697,-0.8417969,-0.25830078,0.078125,-10.070801,-23.19336,-0.7324219,-2227.0,6604.0,2921.0,-66.483765,69.24133,-44.318848
1770516538709,-0.8417969,-0.25830078,0.078125,-10.070801,-23.19336,-0.7324219,0.0,0.0,0.0,-66.483765,69.24133,-44.318848
1770516538785,-0.99853516,-0.3017578,0.107421875,-8.7890625,9.277344,-2.6855469,-2230.0,6527.0,2822.0,-66.483765,69.24133,-44.318848
1770516538797,-0.99853516,-0.3017578,0.107421875,-8.7890625,9.277344,-2.6855469,-2230.0,6527.0,2822.0,-67.69226,69.38965,-44.329834
1770516538808,-0.99853516,-0.3017578,0.107421875,-8.7890625,9.277344,-2.6855469,0.0,0.0,0.0,-67.69226,69.38965,-44.329834
1770516538885,-1.3017578,-0.3857422,-0.0043945312,-0.12207031,28.686523,-7.2021484,-2463.0,6722.0,2901.0,-67.69226,69.38965,-44.329834
1770516538897,-1.3017578,-0.3857422,-0.0043945312,-0.12207031,28.686523,-7.2021484,-2463.0,6722.0,2901.0,-74.729004,69.94446,-50.55359
1770516538908,-1.3017578,-0.3857422,-0.0043945312,-0.12207031,28.686523,-7.2021484,0.0,0.0,0.0,-74.729004,69.94446,-50.55359
1770516538985,-0.82958984,-0.16748047,0.140625,0.36621094,-2.1362305,17.333984,-2441.0,6816.0,3105.0,-74.729004,69.94446,-50.55359
1770516538996,-0.82958984,-0.16748047,0.140625,0.36621094,-2.1362305,17.333984,-2441.0,6816.0,3105.0,-77.09656,69.11499,-55.497437
1770516539008,-0.82958984,-0.16748047,0.140625,0.36621094,-2.1362305,17.333984,0.0,0.0,0.0,-77.09656,69.11499,-55.497437
1770516539085,-0.85302734,-0.5473633,0.3359375,26.000977,19.77539,-12.207031,-2420.0,6839.0,3110.0,-77.09656,69.11499,-55.497437
1770516539096,-0.85302734,-0.5473633,0.3359375,26.000977,19.77539,-12.207031,-2420.0,6839.0,3110.0,-79.782715,70.08728,-58.485718
1770516539107,-0.85302734,-0.5473633,0.3359375,26.000977,19.77539,-12.207031,0.0,0.0,0.0,-79.782715,70.08728,-58.485718
1770516539184,-0.92285156,-0.09472656,-0.088378906,-54.44336,-77.697754,54.19922,-1890.0,6502.0,2999.0,-79.782715,70.08728,-58.485718
1770516539195,-0.92285156,-0.09472656,-0.088378906,-54.44336,-77.697754,54.19922,-1890.0,6502.0,2999.0,-65.41809,68.95569,-41.742554
1770516539207,-0.92285156,-0.09472656,-0.088378906,-54.44336,-77.697754,54.19922,0.0,0.0,0.0,-65.41809,68.95569,-41.742554
1770516539284,-0.8588867,-0.32910156,0.12841797,48.64502,8.911133,-17.76123,-1793.0,6337.0,2756.0,-65.41809,68.95569,-41.742554
1770516539295,-0.8588867,-0.32910156,0.12841797,48.64502,8.911133,-17.76123,-1793.0,6337.0,2756.0,-62.9187,71.26282,-41.91284
1770516539307,-0.8588867,-0.32910156,0.12841797,48.64502,8.911133,-17.76123,0.0,0.0,0.0,-62.9187,71.26282,-41.91284
1770516539383,-1.0102539,-0.34472656,0.00390625,-1.5258789,10.009766,-4.1503906,-3115.0,7240.0,3014.0,-62.9187,71.26282,-41.91284
1770516539395,-1.0102539,-0.34472656,0.00390625,-1.5258789,10.009766,-4.1503906,-3115.0,7240.0,3014.0,-64.58313,69.88953,-44.527588
1770516539406,-1.0102539,-0.34472656,0.00390625,-1.5258789,10.009766,-4.1503906,0.0,0.0,0.0,-64.58313,69.88953,-44.527588
1770516539483,-1.3515625,-0.45361328,-0.05859375,-12.145996,45.837402,9.155273,-2291.0,6552.0,2632.0,-64.58313,69.88953,-44.527588
1770516539495,-1.3515625,-0.45361328,-0.05859375,-12.145996,45.837402,9.155273,-2291.0,6552.0,2632.0,-75.009155,71.31775,-54.920654
1770516539507,-1.3515625,-0.45361328,-0.05859375,-12.145996,45.837402,9.155273,0.0,0.0,0.0,-75.009155,71.31775,-54.920654
1770516539583,-0.87646484,-0.328125,0.11279297,-27.526855,-12.084961,2.9296875,-2138.0,6529.0,2814.0,-75.009155,71.31775,-54.920654
1770516539594,-0.87646484,-0.328125,0.11279297,-27.526855,-12.084961,2.9296875,-2138.0,6529.0,2814.0,-84.81445,72.72949,-62.98462
1770516539606,-0.87646484,-0.328125,0.11279297,-27.526855,-12.084961,2.9296875,0.0,0.0,0.0,-84.81445,72.72949,-62.98462
1770516539683,-0.8886719,-0.091308594,0.24804688,25.57373,-5.004883,32.165527,-1943.0,6619.0,3195.0,-84.81445,72.72949,-62.98462
1770516539694,-0.8886719,-0.091308594,0.24804688,25.57373,-5.004883,32.165527,-1943.0,6619.0,3195.0,-80.15625,73.35571,-58.480225
1770516539705,-0.8886719,-0.091308594,0.24804688,25.57373,-5.004883,32.165527,0.0,0.0,0.0,-80.15625,73.35571,-58.480225
1770516539782,-0.9370117,-0.42041016,-0.072265625,36.254883,25.45166,-40.95459,-2358.0,6926.0,3432.0,-80.15625,73.35571,-58.480225
1770516539794,-0.9370117,-0.42041016,-0.072265625,36.254883,25.45166,-40.95459,-2358.0,6926.0,3432.0,-75.70679,71.416626,-56.98059
1770516539806,-0.9370117,-0.42041016,-0.072265625,36.254883,25.45166,-40.95459,0.0,0.0,0.0,-75.70679,71.416626,-56.98059
1770516539882,-0.83740234,-0.25048828,0.052734375,-20.446777,-30.761719,-7.6293945,-2455.0,6837.0,3192.0,-75.70679,71.416626,-56.98059
1770516539894,-0.83740234,-0.25048828,0.052734375,-20.446777,-30.761719,-7.6293945,-2455.0,6837.0,3192.0,-76.206665,70.14221,-57.282715
1770516539907,-0.83740234,-0.25048828,0.052734375,-20.446777,-30.761719,-7.6293945,0.0,0.0,0.0,-76.206665,70.14221,-57.282715
1770516539982,-0.9838867,-0.30517578,-0.017578125,-15.625,20.385742,0.48828125,-1498.0,6095.0,2762.0,-76.206665,70.14221,-57.282715
1770516539993,-0.9838867,-0.30517578,-0.017578125,-15.625,20.385742,0.48828125,-1498.0,6095.0,2762.0,-75.72327,70.09277,-54.920654
1770516540005,-0.9838867,-0.30517578,-0.017578125,-15.625,20.385742,0.48828125,0.0,0.0,0.0,-75.72327,70.09277,-54.920654
1770516540081,-1.2036133,-0.31640625,-0.140625,-14.892578,14.892578,-3.2958984,-1839.0,6322.0,2848.0,-75.72327,70.09277,-54.920654
1770516540093,-1.2036133,-0.31640625,-0.140625,-14.892578,14.892578,-3.2958984,-1839.0,6322.0,2848.0,-84.42444,70.64758,-62.424316
1770516540104,-1.2036133,-0.31640625,-0.140625,-14.892578,14.892578,-3.2958984,0.0,0.0,0.0,-84.42444,70.64758,-62.424316
1770516540181,-1.0161133,-0.24951172,0.14013672,59.753418,23.376465,-15.563965,-1835.0,6474.0,3121.0,-84.42444,70.64758,-62.424316
1770516540193,-1.0161133,-0.24951172,0.14013672,59.753418,23.376465,-15.563965,-1835.0,6474.0,3121.0,-88.27515,69.62036,-67.79114
1770516540204,-1.0161133,-0.24951172,0.14013672,59.753418,23.376465,-15.563965,0.0,0.0,0.0,-88.27515,69.62036,-67.79114
1770516540281,-0.6230469,-0.5493164,0.31396484,-19.16504,8.117676,1.5869141,-1806.0,6538.0,3200.0,-88.27515,69.62036,-67.79114
1770516540292,-0.6230469,-0.5493164,0.31396484,-19.16504,8.117676,1.5869141,-1806.0,6538.0,3200.0,-89.313354,70.19165,-70.268555
1770516540312,-0.6230469,-0.5493164,0.31396484,-19.16504,8.117676,1.5869141,0.0,0.0,0.0,-89.313354,70.19165,-70.268555
1770516540381,-0.97021484,-0.1640625,-0.22363281,-122.43652,-78.063965,25.08545,-1747.0,6471.0,3260.0,-89.313354,70.19165,-70.268555
1770516540392,-0.97021484,-0.1640625,-0.22363281,-122.43652,-78.063965,25.08545,-1747.0,6471.0,3260.0,-80.826416,70.64758,-58.947144
1770516540406,-0.97021484,-0.1640625,-0.22363281,-122.43652,-78.063965,25.08545,0.0,0.0,0.0,-80.826416,70.64758,-58.947144
1770516540480,-0.89501953,-0.16308594,0.11621094,47.790527,13.122559,-6.591797,-1105.0,6032.0,2943.0,-80.826416,70.64758,-58.947144
1770516540492,-0.89501953,-0.16308594,0.11621094,47.790527,13.122559,-6.591797,-1105.0,6032.0,2943.0,-72.39441,73.377686,-47.839966
1770516540503,-0.89501953,-0.16308594,0.11621094,47.790527,13.122559,-6.591797,0.0,0.0,0.0,-72.39441,73.377686,-47.839966
1770516540580,-0.8925781,-0.3330078,-0.05859375,-6.8969727,19.40918,-9.338379,-2725.0,7192.0,3474.0,-72.39441,73.377686,-47.839966
1770516540591,-0.8925781,-0.3330078,-0.05859375,-6.8969727,19.40918,-9.338379,-2725.0,7192.0,3474.0,-73.88855,71.466064,-51.723633
1770516540608,-0.8925781,-0.3330078,-0.05859375,-6.8969727,19.40918,-9.338379,0.0,0.0,0.0,-73.88855,71.466064,-51.723633
1770516540680,-1.1459961,-0.45263672,-0.13183594,-8.239746,29.418945,11.779785,-2266.0,6746.0,3161.0,-73.88855,71.466064,-51.723633
1770516540691,-1.1459961,-0.45263672,-0.13183594,-8.239746,29.418945,11.779785,-2266.0,6746.0,3161.0,-86.03943,72.59766,-64.68201
1770516540703,-1.1459961,-0.45263672,-0.13183594,-8.239746,29.418945,11.779785,0.0,0.0,0.0,-86.03943,72.59766,-64.68201
1770516540779,-0.9765625,-0.30419922,0.16259766,-30.944824,-21.057129,0.61035156,-1711.0,6423.0,3161.0,-86.03943,72.59766,-64.68201
1770516540791,-0.9765625,-0.30419922,0.16259766,-30.944824,-21.057129,0.61035156,-1711.0,6423.0,3161.0,-97.108154,73.56995,-73.71826
1770516540802,-0.9765625,-0.30419922,0.16259766,-30.944824,-21.057129,0.61035156,0.0,0.0,0.0,-97.108154,73.56995,-73.71826
1770516540879,-0.6489258,0.00390625,0.04638672,35.461426,-7.873535,19.28711,-1481.0,6487.0,3485.0,-97.108154,73.56995,-73.71826
1770516540891,-0.6489258,0.00390625,0.04638672,35.461426,-7.873535,19.28711,-1481.0,6487.0,3485.0,-87.72583,74.2511,-63.451538
1770516540912,-0.6489258,0.00390625,0.04638672,35.461426,-7.873535,19.28711,0.0,0.0,0.0,-87.72583,74.2511,-63.451538
1770516540979,-1.0166016,-0.32226562,0.08496094,25.45166,-8.666992,-49.01123,-2029.0,6854.0,3675.0,-87.72583,74.2511,-63.451538
1770516540991,-1.0166016,-0.32226562,0.08496094,25.45166,-8.666992,-49.01123,-2029.0,6854.0,3675.0,-80.99121,74.62463,-59.710693
1770516541002,-1.0166016,-0.32226562,0.08496094,25.45166,-8.666992,-49.01123,0.0,0.0,0.0,-80.99121,74.62463,-59.710693
1770516541079,-0.8696289,-0.27392578,0.07080078,-15.686035,-27.832031,-4.272461,-2424.0,7016.0,3571.0,-80.99121,74.62463,-59.710693
1770516541091,-0.8696289,-0.27392578,0.07080078,-15.686035,-27.832031,-4.272461,-2424.0,7016.0,3571.0,-82.87537,70.98816,-61.6333
1770516541103,-0.8696289,-0.27392578,0.07080078,-15.686035,-27.832031,-4.272461,0.0,0.0,0.0,-82.87537,70.98816,-61.6333
1770516541178,-0.8935547,-0.21191406,-0.03515625,-8.728027,9.277344,3.112793,-1235.0,6059.0,2972.0,-82.87537,70.98816,-61.6333
1770516541190,-0.8935547,-0.21191406,-0.03515625,-8.728027,9.277344,3.112793,-1235.0,6059.0,2972.0,-75.41016,71.66931,-53.272705
1770516541212,-0.8935547,-0.21191406,-0.03515625,-8.728027,9.277344,3.112793,0.0,0.0,0.0,-75.41016,71.66931,-53.272705
1770516541278,-1.1469727,-0.32763672,-0.091308594,-9.887695,16.906738,-4.8217773,-2140.0,6600.0,3148.0,-75.41016,71.66931,-53.272705
1770516541289,-1.1469727,-0.32763672,-0.091308594,-9.887695,16.906738,-4.8217773,-2140.0,6600.0,3148.0,-81.760254,71.80115,-59.09546
1770516541301,-1.1469727,-0.32763672,-0.091308594,-9.887695,16.906738,-4.8217773,0.0,0.0,0.0,-81.760254,71.80115,-59.09546
1770516541378,-1.1040039,-0.30371094,0.092285156,22.949219,13.61084,-8.850098,-2267.0,6800.0,3336.0,-81.760254,71.80115,-59.09546
1770516541389,-1.1040039,-0.30371094,0.092285156,22.949219,13.61084,-8.850098,-2267.0,6800.0,3336.0,-88.533325,71.18591,-66.275024
1770516541401,-1.1040039,-0.30371094,0.092285156,22.949219,13.61084,-8.850098,0.0,0.0,0.0,-88.533325,71.18591,-66.275024
1770516541477,-0.5083008,-0.5629883,0.19335938,-35.461426,-3.6010742,-5.554199,-2167.0,6836.0,3512.0,-88.533325,71.18591,-66.275024
1770516541489,-0.5083008,-0.5629883,0.19335938,-35.461426,-3.6010742,-5.554199,-2167.0,6836.0,3512.0,-88.85742,71.75171,-64.42383
1770516541501,-0.5083008,-0.5629883,0.19335938,-35.461426,-3.6010742,-5.554199,0.0,0.0,0.0,-88.85742,71.75171,-64.42383
1770516541577,-0.984375,-0.16357422,-0.068359375,-54.260254,-95.21484,6.0424805,-1728.0,6571.0,3422.0,-88.85742,71.75171,-64.42383
1770516541589,-0.984375,-0.16357422,-0.068359375,-54.260254,-95.21484,6.0424805,-1728.0,6571.0,3422.0,-79.30481,69.57092,-51.141357
1770516541600,-0.984375,-0.16357422,-0.068359375,-54.260254,-95.21484,6.0424805,0.0,0.0,0.0,-79.30481,69.57092,-51.141357
1770516541677,-0.9008789,-0.19335938,0.07861328,24.047852,6.1035156,-1.6479492,-935.0,5999.0,3008.0,-79.30481,69.57092,-51.141357
1770516541689,-0.9008789,-0.19335938,0.07861328,24.047852,6.1035156,-1.6479492,-935.0,5999.0,3008.0,-77.32727,71.50452,-48.66394
1770516541700,-0.9008789,-0.19335938,0.07861328,24.047852,6.1035156,-1.6479492,0.0,0.0,0.0,-77.32727,71.50452,-48.66394
1770516541777,-0.9511719,-0.40283203,-0.015136719,20.385742,4.4555664,-12.207031,-2273.0,7035.0,3505.0,-77.32727,71.50452,-48.66394
1770516541788,-0.9511719,-0.40283203,-0.015136719,20.385742,4.4555664,-12.207031,-2273.0,7035.0,3505.0,-74.4104,70.99365,-47.12036
1770516541799,-0.9511719,-0.40283203,-0.015136719,20.385742,4.4555664,-12.207031,0.0,0.0,0.0,-74.4104,70.99365,-47.12036
1770516541876,-1.0424805,-0.32763672,-0.059570312,16.113281,19.89746,4.3945312,-2309.0,6986.0,3401.0,-74.4104,70.99365,-47.12036
1770516541888,-1.0424805,-0.32763672,-0.059570312,16.113281,19.89746,4.3945312,-2309.0,6986.0,3401.0,-78.48633,70.83984,-53.305664
1770516541899,-1.0424805,-0.32763672,-0.059570312,16.113281,19.89746,4.3945312,0.0,0.0,0.0,-78.48633,70.83984,-53.305664
1770516541976,-1.0844727,-0.4165039,0.2109375,18.432617,45.715332,10.375977,-2133.0,6821.0,3266.0,-78.48633,70.83984,-53.305664
1770516541987,-1.0844727,-0.4165039,0.2109375,18.432617,45.715332,10.375977,-2133.0,6821.0,3266.0,-90.23071,72.09778,-66.90674
1770516541999,-1.0844727,-0.4165039,0.2109375,18.432617,45.715332,10.375977,0.0,0.0,0.0,-90.23071,72.09778,-66.90674
1770516542076,-0.7524414,-0.10986328,0.072753906,22.705078,-26.489258,-4.5776367,-1964.0,6754.0,3411.0,-90.23071,72.09778,-66.90674
1770516542087,-0.7524414,-0.10986328,0.072753906,22.705078,-26.489258,-4.5776367,-1964.0,6754.0,3411.0,-87.110596,71.087036,-65.423584
1770516542099,-0.7524414,-0.10986328,0.072753906,22.705078,-26.489258,-4.5776367,0.0,0.0,0.0,-87.110596,71.087036,-65.423584
1770516542175,-1.0722656,-0.39892578,0.2553711,53.894043,-8.117676,-23.55957,-1936.0,6712.0,3403.0,-87.110596,71.087036,-65.423584
1770516542187,-1.0722656,-0.39892578,0.2553711,53.894043,-8.117676,-23.55957,-1936.0,6712.0,3403.0,-80.27161,71.33972,-62.232056
1770516542200,-1.0722656,-0.39892578,0.2553711,53.894043,-8.117676,-23.55957,0.0,0.0,0.0,-80.27161,71.33972,-62.232056
1770516542275,-0.80615234,-0.2939453,0.0048828125,-8.239746,-6.225586,2.319336,-2532.0,6965.0,3348.0,-80.27161,71.33972,-62.232056
1770516542287,-0.80615234,-0.2939453,0.0048828125,-8.239746,-6.225586,2.319336,-2532.0,6965.0,3348.0,-76.73401,68.6261,-59.787598
1770516542298,-0.80615234,-0.2939453,0.0048828125,-8.239746,-6.225586,2.319336,0.0,0.0,0.0,-76.73401,68.6261,-59.787598
1770516542375,-0.8510742,-0.25146484,-0.016601562,-11.352539,-13.061523,2.319336,-1539.0,6010.0,2636.0,-76.73401,68.6261,-59.787598
1770516542387,-0.8510742,-0.25146484,-0.016601562,-11.352539,-13.061523,2.319336,-1539.0,6010.0,2636.0,-74.49829,68.71399,-56.623535
1770516542400,-0.8510742,-0.25146484,-0.016601562,-11.352539,-13.061523,2.319336,0.0,0.0,0.0,-74.49829,68.71399,-56.623535
1770516542475,-1.1196289,-0.35351562,-0.076660156,-12.634277,20.324707,0.061035156,-1545.0,5943.0,2486.0,-74.49829,68.71399,-56.623535
1770516542486,-1.1196289,-0.35351562,-0.076660156,-12.634277,20.324707,0.061035156,-1545.0,5943.0,2486.0,-78.14026,69.2688,-58.952637
1770516542497,-1.1196289,-0.35351562,-0.076660156,-12.634277,20.324707,0.061035156,0.0,0.0,0.0,-78.14026,69.2688,-58.952637
1770516542575,-1.1411133,-0.33398438,0.122558594,39.001465,1.4038086,-22.766113,-1529.0,6006.0,2542.0,-78.14026,69.2688,-58.952637
1770516542587,-1.1411133,-0.33398438,0.122558594,39.001465,1.4038086,-22.766113,-1529.0,6006.0,2542.0,-83.10608,68.75244,-64.64905
1770516542597,-1.1411133,-0.33398438,0.122558594,39.001465,1.4038086,-22.766113,0.0,0.0,0.0,-83.10608,68.75244,-64.64905
1770516542674,-0.49267578,-0.5449219,0.12841797,-32.89795,23.620605,16.174316,-1490.0,6086.0,2757.0,-83.10608,68.75244,-64.64905
1770516542685,-0.49267578,-0.5449219,0.12841797,-32.89795,23.620605,16.174316,-1490.0,6086.0,2757.0,-82.369995,70.235596,-63.03955
1770516542697,-0.49267578,-0.5449219,0.12841797,-32.89795,23.620605,16.174316,0.0,0.0,0.0,-82.369995,70.235596,-63.03955
1770516542774,-1.0385742,-0.3100586,0.23388672,-52.978516,-82.88574,-15.014648,-1583.0,6136.0,2823.0,-82.369995,70.235596,-63.03955
1770516542785,-1.0385742,-0.3100586,0.23388672,-52.978516,-82.88574,-15.014648,-1583.0,6136.0,2823.0,-84.08386,69.087524,-62.08374
1770516542797,-1.0385742,-0.3100586,0.23388672,-52.978516,-82.88574,-15.014648,0.0,0.0,0.0,-84.08386,69.087524,-62.08374
1770516542873,-0.65722656,-0.3154297,0.040039062,19.28711,26.428223,14.038086,-713.0,5670.0,2558.0,-84.08386,69.087524,-62.08374
1770516542885,-0.65722656,-0.3154297,0.040039062,19.28711,26.428223,14.038086,-713.0,5670.0,2558.0,-72.98767,69.58191,-45.55481
1770516542896,-0.65722656,-0.3154297,0.040039062,19.28711,26.428223,14.038086,0.0,0.0,0.0,-72.98767,69.58191,-45.55481
1770516542973,-1.0600586,-0.3486328,-0.04296875,-20.690918,-38.94043,5.92041,-1767.0,6403.0,2911.0,-72.98767,69.58191,-45.55481
1770516542985,-1.0600586,-0.3486328,-0.04296875,-20.690918,-38.94043,5.92041,-1767.0,6403.0,2911.0,-69.246826,69.03259,-42.665405
1770516542998,-1.0600586,-0.3486328,-0.04296875,-20.690918,-38.94043,5.92041,0.0,0.0,0.0,-69.246826,69.03259,-42.665405
1770516543074,-1.0820312,-0.34277344,-0.0390625,23.864746,47.302246,8.7890625,-2247.0,6714.0,3006.0,-69.246826,69.03259,-42.665405
1770516543084,-1.0820312,-0.34277344,-0.0390625,23.864746,47.302246,8.7890625,-2247.0,6714.0,3006.0,-74.65759,70.27405,-49.839478
1770516543097,-1.0820312,-0.34277344,-0.0390625,23.864746,47.302246,8.7890625,0.0,0.0,0.0,-74.65759,70.27405,-49.839478
1770516543173,-1.0913086,-0.29833984,0.203125,12.268066,57.06787,25.6958,-2185.0,6666.0,3030.0,-74.65759,70.27405,-49.839478
1770516543184,-1.0913086,-0.29833984,0.203125,12.268066,57.06787,25.6958,-2185.0,6666.0,3030.0,-89.505615,72.22412,-65.80261
1770516543196,-1.0913086,-0.29833984,0.203125,12.268066,57.06787,25.6958,0.0,0.0,0.0,-89.505615,72.22412,-65.80261
1770516543272,-0.81152344,-0.06982422,0.052734375,10.559082,-8.117676,-1.7700195,-1921.0,6677.0,3306.0,-89.505615,72.22412,-65.80261
1770516543284,-0.81152344,-0.06982422,0.052734375,10.559082,-8.117676,-1.7700195,-1921.0,6677.0,3306.0,-91.08765,73.10303,-68.05481
1770516543296,-0.81152344,-0.06982422,0.052734375,10.559082,-8.117676,-1.7700195,0.0,0.0,0.0,-91.08765,73.10303,-68.05481
1770516543372,-1.0551758,-0.31152344,0.07763672,59.509277,-9.82666,-20.141602,-1925.0,6756.0,3646.0,-91.08765,73.10303,-68.05481
1770516543383,-1.0551758,-0.31152344,0.07763672,59.509277,-9.82666,-20.141602,-1925.0,6756.0,3646.0,-79.766235,73.00415,-60.924683
1770516543395,-1.0551758,-0.31152344,0.07763672,59.509277,-9.82666,-20.141602,0.0,0.0,0.0,-79.766235,73.00415,-60.924683
1770516543472,-0.7910156,-0.31103516,-0.020996094,-6.652832,-6.4086914,1.0375977,-2572.0,7001.0,3503.0,-79.766235,73.00415,-60.924683
1770516543483,-0.7910156,-0.31103516,-0.020996094,-6.652832,-6.4086914,1.0375977,-2572.0,7001.0,3503.0,-79.16199,70.86182,-62.7594
1770516543495,-0.7910156,-0.31103516,-0.020996094,-6.652832,-6.4086914,1.0375977,0.0,0.0,0.0,-79.16199,70.86182,-62.7594
1770516543571,-0.8774414,-0.25976562,-0.026367188,-14.892578,-0.36621094,0.12207031,-1744.0,6260.0,2943.0,-79.16199,70.86182,-62.7594
1770516543583,-0.8774414,-0.25976562,-0.026367188,-14.892578,-0.36621094,0.12207031,-1744.0,6260.0,2943.0,-78.60718,70.76843,-60.386353
1770516543594,-0.8774414,-0.25976562,-0.026367188,-14.892578,-0.36621094,0.12207031,0.0,0.0,0.0,-78.60718,70.76843,-60.386353
1770516543671,-1.2475586,-0.2890625,-0.18847656,-32.165527,22.216797,-3.9672852,-1667.0,6120.0,2870.0,-78.60718,70.76843,-60.386353
1770516543683,-1.2475586,-0.2890625,-0.18847656,-32.165527,22.216797,-3.9672852,-1667.0,6120.0,2870.0,-83.62244,70.44983,-63.5614
1770516543694,-1.2475586,-0.2890625,-0.18847656,-32.165527,22.216797,-3.9672852,0.0,0.0,0.0,-83.62244,70.44983,-63.5614
1770516543771,-0.88134766,-0.20507812,0.068359375,40.71045,11.535645,-4.0283203,-1734.0,6276.0,2956.0,-83.62244,70.44983,-63.5614
1770516543782,-0.88134766,-0.20507812,0.068359375,40.71045,11.535645,-4.0283203,-1734.0,6276.0,2956.0,-91.658936,70.62012,-72.58667
1770516543794,-0.88134766,-0.20507812,0.068359375,40.71045,11.535645,-4.0283203,0.0,0.0,0.0,-91.658936,70.62012,-72.58667
1770516543871,-0.70410156,-0.6303711,0.2705078,-29.785156,-4.0893555,-5.92041,-1774.0,6471.0,3270.0,-91.658936,70.62012,-72.58667
1770516543882,-0.70410156,-0.6303711,0.2705078,-29.785156,-4.0893555,-5.92041,-1774.0,6471.0,3270.0,-90.60974,71.570435,-69.86206
1770516543894,-0.70410156,-0.6303711,0.2705078,-29.785156,-4.0893555,-5.92041,0.0,0.0,0.0,-90.60974,71.570435,-69.86206
1770516543970,-0.8720703,-0.18652344,-0.099609375,-78.552246,-62.683105,7.873535,-1434.0,6241.0,3152.0,-90.60974,71.570435,-69.86206
1770516543982,-0.8720703,-0.18652344,-0.099609375,-78.552246,-62.683105,7.873535,-1434.0,6241.0,3152.0,-84.506836,70.68054,-59.27124
1770516543993,-0.8720703,-0.18652344,-0.099609375,-78.552246,-62.683105,7.873535,0.0,0.0,0.0,-84.506836,70.68054,-59.27124
1770516544070,-0.8330078,-0.2319336,0.05126953,15.380859,4.211426,-2.2583008,-662.0,5730.0,2823.0,-84.506836,70.68054,-59.27124
1770516544081,-0.8330078,-0.2319336,0.05126953,15.380859,4.211426,-2.2583008,-662.0,5730.0,2823.0,-79.70032,71.746216,-52.245483
1770516544093,-0.8330078,-0.2319336,0.05126953,15.380859,4.211426,-2.2583008,0.0,0.0,0.0,-79.70032,71.746216,-52.245483
1770516544170,-1.2329102,-0.3540039,-0.11376953,3.3569336,21.606445,11.230469,-1847.0,6649.0,3267.0,-79.70032,71.746216,-52.245483
1770516544181,-1.2329102,-0.3540039,-0.11376953,3.3569336,21.606445,11.230469,-1847.0,6649.0,3267.0,-79.22241,71.65283,-52.542114
1770516544194,-1.2329102,-0.3540039,-0.11376953,3.3569336,21.606445,11.230469,0.0,0.0,0.0,-79.22241,71.65283,-52.542114
1770516544269,-1.2958984,-0.51708984,-0.15332031,4.211426,63.293457,15.136719,-2030.0,6726.0,3292.0,-79.22241,71.65283,-52.542114
1770516544281,-1.2958984,-0.51708984,-0.15332031,4.211426,63.293457,15.136719,-2030.0,6726.0,3292.0,-96.24573,73.185425,-71.867065
1770516544292,-1.2958984,-0.51708984,-0.15332031,4.211426,63.293457,15.136719,0.0,0.0,0.0,-96.24573,73.185425,-71.867065
1770516544369,-0.7001953,-0.16015625,-0.021484375,-22.399902,-43.273926,-9.216309,-1588.0,6555.0,3421.0,-96.24573,73.185425,-71.867065
1770516544381,-0.7001953,-0.16015625,-0.021484375,-22.399902,-43.273926,-9.216309,-1588.0,6555.0,3421.0,-99.695435,73.531494,-74.41589
1770516544396,-0.7001953,-0.16015625,-0.021484375,-22.399902,-43.273926,-9.216309,0.0,0.0,0.0,-99.695435,73.531494,-74.41589
1770516544469,-1.0332031,0.023925781,0.265625,71.47217,0.18310547,-8.728027,-1308.0,6443.0,3660.0,-99.695435,73.531494,-74.41589
1770516544480,-1.0332031,0.023925781,0.265625,71.47217,0.18310547,-8.728027,-1308.0,6443.0,3660.0,-92.59827,74.37744,-69.12048
1770516544492,-1.0332031,0.023925781,0.265625,71.47217,0.18310547,-8.728027,0.0,0.0,0.0,-92.59827,74.37744,-69.12048
1770516544569,-0.9003906,-0.47070312,-0.20214844,2.4414062,4.1503906,-48.034668,-2245.0,7032.0,3847.0,-92.59827,74.37744,-69.12048
1770516544580,-0.9003906,-0.47070312,-0.20214844,2.4414062,4.1503906,-48.034668,-2245.0,7032.0,3847.0,-83.83667,71.14746,-64.11072
1770516544591,-0.9003906,-0.47070312,-0.20214844,2.4414062,4.1503906,-48.034668,0.0,0.0,0.0,-83.83667,71.14746,-64.11072
1770516544668,-0.88964844,-0.20361328,0.08154297,-12.573242,-30.334473,-0.18310547,-2028.0,6617.0,3373.0,-83.83667,71.14746,-64.11072
1770516544680,-0.88964844,-0.20361328,0.08154297,-12.573242,-30.334473,-0.18310547,-2028.0,6617.0,3373.0,-82.74902,69.9939,-63.26477
1770516544691,-0.88964844,-0.20361328,0.08154297,-12.573242,-30.334473,-0.18310547,0.0,0.0,0.0,-82.74902,69.9939,-63.26477
1770516544768,-1.1259766,-0.32177734,-0.12548828,-8.056641,15.686035,0.0,-1029.0,5775.0,2858.0,-82.74902,69.9939,-63.26477
1770516544780,-1.1259766,-0.32177734,-0.12548828,-8.056641,15.686035,0.0,-1029.0,5775.0,2858.0,-81.52954,70.81238,-59.468994
1770516544791,-1.1259766,-0.32177734,-0.12548828,-8.056641,15.686035,0.0,0.0,0.0,0.0,-81.52954,70.81238,-59.468994
1770516544868,-1.3354492,-0.42236328,9.765625E-4,-11.413574,22.338867,-0.61035156,-1537.0,6125.0,2966.0,-81.52954,70.81238,-59.468994
1770516544879,-1.3354492,-0.42236328,9.765625E-4,-11.413574,22.338867,-0.61035156,-1537.0,6125.0,2966.0,-86.96228,71.032104,-63.17688
1770516544891,-1.3354492,-0.42236328,9.765625E-4,-11.413574,22.338867,-0.61035156,0.0,0.0,0.0,-86.96228,71.032104,-63.17688
1770516544968,-0.57373047,-0.2607422,0.15673828,-20.751953,-7.080078,17.578125,-1579.0,6289.0,3142.0,-86.96228,71.032104,-63.17688
1770516544979,-0.57373047,-0.2607422,0.15673828,-20.751953,-7.080078,17.578125,-1579.0,6289.0,3142.0,-89.68689,70.67505,-66.56616
1770516544990,-0.57373047,-0.2607422,0.15673828,-20.751953,-7.080078,17.578125,0.0,0.0,0.0,-89.68689,70.67505,-66.56616
1770516545067,-1.0839844,-0.3071289,-0.009765625,-63.11035,-62.5,-1.7089844,-1530.0,6330.0,3282.0,-89.68689,70.67505,-66.56616
1770516545079,-1.0839844,-0.3071289,-0.009765625,-63.11035,-62.5,-1.7089844,-1530.0,6330.0,3282.0,-84.24866,70.48279,-59.122925
1770516545092,-1.0839844,-0.3071289,-0.009765625,-63.11035,-62.5,-1.7089844,0.0,0.0,0.0,-84.24866,70.48279,-59.122925
1770516545167,-0.7573242,-0.27294922,0.0087890625,-9.399414,3.1738281,35.64453,-1005.0,5996.0,3012.0,-84.24866,70.48279,-59.122925
1770516545178,-0.7573242,-0.27294922,0.0087890625,-9.399414,3.1738281,35.64453,-1005.0,5996.0,3012.0,-76.97571,72.41638,-47.72461
1770516545190,-0.7573242,-0.27294922,0.0087890625,-9.399414,3.1738281,35.64453,0.0,0.0,0.0,-76.97571,72.41638,-47.72461
1770516545267,-0.953125,-0.33642578,-0.01953125,-5.3100586,-15.930176,-3.1738281,-1895.0,6654.0,3292.0,-76.97571,72.41638,-47.72461
1770516545278,-0.953125,-0.33642578,-0.01953125,-5.3100586,-15.930176,-3.1738281,-1895.0,6654.0,3292.0,-73.67981,72.630615,-44.906616
1770516545289,-0.953125,-0.33642578,-0.01953125,-5.3100586,-15.930176,-3.1738281,0.0,0.0,0.0,-73.67981,72.630615,-44.906616
1770516545366,-1.1035156,-0.3227539,-0.071777344,13.000488,31.982422,5.432129,-2305.0,6929.0,3399.0,-73.67981,72.630615,-44.906616
1770516545378,-1.1035156,-0.3227539,-0.071777344,13.000488,31.982422,5.432129,-2305.0,6929.0,3399.0,-78.31604,73.064575,-50.927124
1770516545389,-1.1035156,-0.3227539,-0.071777344,13.000488,31.982422,5.432129,0.0,0.0,0.0,-78.31604,73.064575,-50.927124
1770516545466,-1.0371094,-0.26123047,0.2397461,35.705566,31.49414,6.652832,-2141.0,6796.0,3333.0,-78.31604,73.064575,-50.927124
1770516545477,-1.0371094,-0.26123047,0.2397461,35.705566,31.49414,6.652832,-2141.0,6796.0,3333.0,-90.27466,74.45984,-65.11047
1770516545490,-1.0371094,-0.26123047,0.2397461,35.705566,31.49414,6.652832,0.0,0.0,0.0,-90.27466,74.45984,-65.11047
1770516545566,-0.7915039,-0.044433594,0.024414062,17.51709,3.479004,-6.286621,-2026.0,6771.0,3611.0,-90.27466,74.45984,-65.11047
1770516545578,-0.7915039,-0.044433594,0.024414062,17.51709,3.479004,-6.286621,-2026.0,6771.0,3611.0,-87.35779,73.948975,-64.39087
1770516545589,-0.7915039,-0.044433594,0.024414062,17.51709,3.479004,-6.286621,0.0,0.0,0.0,-87.35779,73.948975,-64.39087
1770516545666,-0.97753906,-0.34033203,0.091796875,45.22705,18.432617,-15.74707,-2057.0,6722.0,3642.0,-87.35779,73.948975,-64.39087
1770516545677,-0.97753906,-0.34033203,0.091796875,45.22705,18.432617,-15.74707,-2057.0,6722.0,3642.0,-82.44141,74.28955,-63.632812
1770516545689,-0.97753906,-0.34033203,0.091796875,45.22705,18.432617,-15.74707,0.0,0.0,0.0,-82.44141,74.28955,-63.632812
1770516545765,-0.8833008,-0.28759766,-0.0053710938,-9.338379,-18.432617,1.2817383,-2432.0,6853.0,3458.0,-82.44141,74.28955,-63.632812
1770516545777,-0.8833008,-0.28759766,-0.0053710938,-9.338379,-18.432617,1.2817383,-2432.0,6853.0,3458.0,-82.73804,73.4436,-65.20935
1770516545788,-0.8833008,-0.28759766,-0.0053710938,-9.338379,-18.432617,1.2817383,0.0,0.0,0.0,-82.73804,73.4436,-65.20935
1770516545865,-0.88671875,-0.24365234,-0.06201172,-7.1411133,-7.1411133,-2.4414062,-1935.0,6409.0,3275.0,-82.73804,73.4436,-65.20935
1770516545876,-0.88671875,-0.24365234,-0.06201172,-7.1411133,-7.1411133,-2.4414062,-1935.0,6409.0,3275.0,-77.51953,73.02063,-58.8208
1770516545890,-0.88671875,-0.24365234,-0.06201172,-7.1411133,-7.1411133,-2.4414062,0.0,0.0,0.0,-77.51953,73.02063,-58.8208
1770516545965,-1.0668945,-0.28710938,-0.087402344,-17.211914,3.6010742,-5.92041,-1998.0,6344.0,3093.0,-77.51953,73.02063,-58.8208
1770516545976,-1.0668945,-0.28710938,-0.087402344,-17.211914,3.6010742,-5.92041,-1998.0,6344.0,3093.0,-79.04114,72.65808,-58.831787
1770516545988,-1.0668945,-0.28710938,-0.087402344,-17.211914,3.6010742,-5.92041,0.0,0.0,0.0,-79.04114,72.65808,-58.831787
1770516546064,-0.9995117,-0.28076172,0.10058594,9.399414,-1.953125,-12.6953125,-2051.0,6399.0,3050.0,-79.04114,72.65808,-58.831787
1770516546076,-0.9995117,-0.28076172,0.10058594,9.399414,-1.953125,-12.6953125,-2051.0,6399.0,3050.0,-84.177246,71.72974,-63.77014
1770516546088,-0.9995117,-0.28076172,0.10058594,9.399414,-1.953125,-12.6953125,0.0,0.0,0.0,-84.177246,71.72974,-63.77014
1770516546164,-0.61621094,-0.3955078,0.13671875,-16.906738,8.605957,1.0375977,-2027.0,6481.0,3176.0,-84.177246,71.72974,-63.77014
1770516546176,-0.61621094,-0.3955078,0.13671875,-16.906738,8.605957,1.0375977,-2027.0,6481.0,3176.0,-83.55652,72.333984,-59.974365
1770516546187,-0.61621094,-0.3955078,0.13671875,-16.906738,8.605957,1.0375977,0.0,0.0,0.0,-83.55652,72.333984,-59.974365
1770516546264,-1.0864258,-0.27148438,0.12988281,-65.85693,-77.697754,-9.033203,-2106.0,6588.0,3204.0,-83.55652,72.333984,-59.974365
1770516546275,-1.0864258,-0.27148438,0.12988281,-65.85693,-77.697754,-9.033203,-2106.0,6588.0,3204.0,-80.079346,70.70801,-53.651733
1770516546288,-1.0864258,-0.27148438,0.12988281,-65.85693,-77.697754,-9.033203,0.0,0.0,0.0,-80.079346,70.70801,-53.651733
1770516546364,-0.78564453,-0.2006836,0.045410156,-14.831543,-2.1362305,-2.5024414,-1359.0,6157.0,3043.0,-80.079346,70.70801,-53.651733
1770516546375,-0.78564453,-0.2006836,0.045410156,-14.831543,-2.1362305,-2.5024414,-1359.0,6157.0,3043.0,-74.4104,71.658325,-43.83545
1770516546387,-0.78564453,-0.2006836,0.045410156,-14.831543,-2.1362305,-2.5024414,0.0,0.0,0.0,-74.4104,71.658325,-43.83545
1770516546463,-0.98876953,-0.25927734,-0.016113281,1.6479492,-0.61035156,-1.7089844,-2433.0,6977.0,3402.0,-74.4104,71.658325,-43.83545
1770516546475,-0.98876953,-0.25927734,-0.016113281,1.6479492,-0.61035156,-1.7089844,-2433.0,6977.0,3402.0,-72.421875,71.15845,-42.072144
1770516546486,-0.98876953,-0.25927734,-0.016113281,1.6479492,-0.61035156,-1.7089844,0.0,0.0,0.0,-72.421875,71.15845,-42.072144
1770516546563,-1.1357422,-0.41357422,-0.15966797,9.155273,60.546875,-2.4414062,-2667.0,7125.0,3393.0,-72.421875,71.15845,-42.072144
1770516546574,-1.1357422,-0.41357422,-0.15966797,9.155273,60.546875,-2.4414062,-2667.0,7125.0,3393.0,-82.716064,71.73523,-54.645996
1770516546586,-1.1357422,-0.41357422,-0.15966797,9.155273,60.546875,-2.4414062,0.0,0.0,0.0,-82.716064,71.73523,-54.645996
1770516546663,-0.99658203,-0.35009766,0.14648438,1.0375977,25.634766,4.760742,-2388.0,6923.0,3399.0,-82.716064,71.73523,-54.645996
1770516546674,-0.99658203,-0.35009766,0.14648438,1.0375977,25.634766,4.760742,-2388.0,6923.0,3399.0,-99.157104,72.822876,-70.52673
1770516546685,-0.99658203,-0.35009766,0.14648438,1.0375977,25.634766,4.760742,0.0,0.0,0.0,-99.157104,72.822876,-70.52673
1770516546762,-0.7182617,0.0,0.06933594,22.460938,-21.850586,1.4038086,-1737.0,6730.0,3689.0,-99.157104,72.822876,-70.52673
1770516546774,-0.7182617,0.0,0.06933594,22.460938,-21.850586,1.4038086,-1737.0,6730.0,3689.0,-94.13086,72.21863,-67.22534
1770516546785,-0.7182617,0.0,0.06933594,22.460938,-21.850586,1.4038086,0.0,0.0,0.0,-94.13086,72.21863,-67.22534
1770516546862,-1.0273438,-0.39892578,0.13085938,65.979004,15.441895,-27.09961,-1843.0,6784.0,3785.0,-94.13086,72.21863,-67.22534
1770516546874,-1.0273438,-0.39892578,0.13085938,65.979004,15.441895,-27.09961,-1843.0,6784.0,3785.0,-88.3905,72.86133,-66.14868
1770516546885,-1.0273438,-0.39892578,0.13085938,65.979004,15.441895,-27.09961,0.0,0.0,0.0,-88.3905,72.86133,-66.14868
1770516546962,-0.7866211,-0.375,-0.063964844,-7.2021484,-13.916016,0.91552734,-2251.0,6919.0,3683.0,-88.3905,72.86133,-66.14868
1770516546974,-0.7866211,-0.375,-0.063964844,-7.2021484,-13.916016,0.91552734,-2251.0,6919.0,3683.0,-85.13306,71.207886,-64.555664
1770516546985,-0.7866211,-0.375,-0.063964844,-7.2021484,-13.916016,0.91552734,0.0,0.0,0.0,-85.13306,71.207886,-64.555664
1770516547062,-0.96777344,-0.25634766,-0.0068359375,-17.333984,-0.4272461,8.117676,-966.0,5792.0,2951.0,-85.13306,71.207886,-64.555664
1770516547073,-0.96777344,-0.25634766,-0.0068359375,-17.333984,-0.4272461,8.117676,-966.0,5792.0,2951.0,-83.97949,71.328735,-62.166138
1770516547085,-0.96777344,-0.25634766,-0.0068359375,-17.333984,-0.4272461,8.117676,0.0,0.0,0.0,-83.97949,71.328735,-62.166138
1770516547161,-1.1333008,-0.33496094,-0.19873047,-16.357422,25.817871,-11.962891,-1213.0,5927.0,2939.0,-83.97949,71.328735,-62.166138
1770516547174,-1.1333008,-0.33496094,-0.19873047,-16.357422,25.817871,-11.962891,-1213.0,5927.0,2939.0,-90.93933,71.05957,-67.04407
1770516547184,-1.1333008,-0.33496094,-0.19873047,-16.357422,25.817871,-11.962891,0.0,0.0,0.0,-90.93933,71.05957,-67.04407
1770516547261,-0.80859375,-0.19238281,0.07373047,20.874023,0.61035156,0.61035156,-1435.0,6232.0,3193.0,-90.93933,71.05957,-67.04407
1770516547272,-0.80859375,-0.19238281,0.07373047,20.874023,0.61035156,0.61035156,-1435.0,6232.0,3193.0,-97.22351,69.73572,-75.27283
1770516547285,-0.80859375,-0.19238281,0.07373047,20.874023,0.61035156,0.61035156,0.0,0.0,0.0,-97.22351,69.73572,-75.27283
1770516547361,-0.9238281,-0.6386719,0.17626953,-24.780273,-13.000488,4.211426,-1362.0,6305.0,3438.0,-97.22351,69.73572,-75.27283
1770516547372,-0.9238281,-0.6386719,0.17626953,-24.780273,-13.000488,4.211426,-1362.0,6305.0,3438.0,-93.46069,71.08154,-70.03784
1770516547384,-0.9238281,-0.6386719,0.17626953,-24.780273,-13.000488,4.211426,0.0,0.0,0.0,-93.46069,71.08154,-70.03784
1770516547460,-0.85839844,-0.24169922,-0.0703125,-51.574707,-63.293457,6.713867,-1117.0,6121.0,3300.0,-93.46069,71.08154,-70.03784
1770516547472,-0.85839844,-0.24169922,-0.0703125,-51.574707,-63.293457,6.713867,-1117.0,6121.0,3300.0,-83.84216,71.087036,-56.052246
1770516547484,-0.85839844,-0.24169922,-0.0703125,-51.574707,-63.293457,6.713867,0.0,0.0,0.0,-83.84216,71.087036,-56.052246
1770516547560,-0.8569336,-0.19824219,0.0107421875,2.6855469,-1.8920898,-6.5307617,-730.0,5824.0,2981.0,-83.84216,71.087036,-56.052246
1770516547572,-0.8569336,-0.19824219,0.0107421875,2.6855469,-1.8920898,-6.5307617,-730.0,5824.0,2981.0,-80.91431,71.21887,-51.11389
1770516547587,-0.8569336,-0.19824219,0.0107421875,2.6855469,-1.8920898,-6.5307617,0.0,0.0,0.0,-80.91431,71.21887,-51.11389
1770516547660,-1.1674805,-0.46728516,-0.1352539,13.122559,7.019043,-2.6245117,-1560.0,6416.0,3296.0,-80.91431,71.21887,-51.11389
1770516547671,-1.1674805,-0.46728516,-0.1352539,13.122559,7.019043,-2.6245117,-1560.0,6416.0,3296.0,-79.53003,70.93323,-50.910645
1770516547683,-1.1674805,-0.46728516,-0.1352539,13.122559,7.019043,-2.6245117,0.0,0.0,0.0,-79.53003,70.93323,-50.910645
1770516547759,-1.355957,-0.34277344,0.22363281,30.944824,41.992188,20.629883,-1739.0,6514.0,3252.0,-79.53003,70.93323,-50.910645
1770516547771,-1.355957,-0.34277344,0.22363281,30.944824,41.992188,20.629883,-1739.0,6514.0,3252.0,-88.33008,72.04285,-61.155396
1770516547782,-1.355957,-0.34277344,0.22363281,30.944824,41.992188,20.629883,0.0,0.0,0.0,-88.33008,72.04285,-61.155396
1770516547859,-0.6635742,-0.13720703,-0.025390625,10.314941,-15.74707,-4.5776367,-1593.0,6435.0,3337.0,-88.33008,72.04285,-61.155396
1770516547871,-0.6635742,-0.13720703,-0.025390625,10.314941,-15.74707,-4.5776367,-1593.0,6435.0,3337.0,-86.292114,72.8833,-61.155396
1770516547883,-0.6635742,-0.13720703,-0.025390625,10.314941,-15.74707,-4.5776367,0.0,0.0,0.0,-86.292114,72.8833,-61.155396
1770516547959,-1.0234375,-0.2133789,0.2783203,38.024902,-13.793945,2.746582,-1652.0,6453.0,3433.0,-86.292114,72.8833,-61.155396
1770516547970,-1.0234375,-0.2133789,0.2783203,38.024902,-13.793945,2.746582,-1652.0,6453.0,3433.0,-81.09009,74.069824,-59.864502
1770516547985,-1.0234375,-0.2133789,0.2783203,38.024902,-13.793945,2.746582,0.0,0.0,0.0,-81.09009,74.069824,-59.864502
1770516548059,-0.8720703,-0.28564453,-0.07714844,7.9956055,-2.9907227,-0.30517578,-2261.0,6748.0,3464.0,-81.09009,74.069824,-59.864502
1770516548070,-0.8720703,-0.28564453,-0.07714844,7.9956055,-2.9907227,-0.30517578,-2261.0,6748.0,3464.0,-79.974976,72.48779,-61.204834
1770516548082,-0.8720703,-0.28564453,-0.07714844,7.9956055,-2.9907227,-0.30517578,0.0,0.0,0.0,-79.974976,72.48779,-61.204834
1770516548158,-0.8779297,-0.29785156,-0.0029296875,-3.90625,-13.48877,-1.6479492,-1707.0,6193.0,3055.0,-79.974976,72.48779,-61.204834
1770516548170,-0.8779297,-0.29785156,-0.0029296875,-3.90625,-13.48877,-1.6479492,-1707.0,6193.0,3055.0,-73.81714,72.16919,-54.23401
1770516548182,-0.8779297,-0.29785156,-0.0029296875,-3.90625,-13.48877,-1.6479492,0.0,0.0,0.0,-73.81714,72.16919,-54.23401
1770516548258,-1.1000977,-0.27294922,-0.07421875,-14.953613,10.498047,-3.2958984,-1699.0,6088.0,2864.0,-73.81714,72.16919,-54.23401
1770516548270,-1.1000977,-0.27294922,-0.07421875,-14.953613,10.498047,-3.2958984,-1699.0,6088.0,2864.0,-75.23987,71.80664,-54.25598
1770516548281,-1.1000977,-0.27294922,-0.07421875,-14.953613,10.498047,-3.2958984,0.0,0.0,0.0,-75.23987,71.80664,-54.25598
1770516548358,-1.1269531,-0.3959961,0.13134766,8.178711,32.836914,-16.296387,-1804.0,6149.0,2862.0,-75.23987,71.80664,-54.25598
1770516548369,-1.1269531,-0.3959961,0.13134766,8.178711,32.836914,-16.296387,-1804.0,6149.0,2862.0,-84.63867,71.28479,-62.25952
1770516548381,-1.1269531,-0.3959961,0.13134766,8.178711,32.836914,-16.296387,0.0,0.0,0.0,-84.63867,71.28479,-62.25952
1770516548457,-0.68896484,-0.44384766,0.24609375,-44.677734,-16.296387,13.793945,-1774.0,6276.0,3051.0,-84.63867,71.28479,-62.25952
1770516548469,-0.68896484,-0.44384766,0.24609375,-44.677734,-16.296387,13.793945,-1774.0,6276.0,3051.0,-87.91809,71.41113,-62.561646
1770516548482,-0.68896484,-0.44384766,0.24609375,-44.677734,-16.296387,13.793945,0.0,0.0,0.0,-87.91809,71.41113,-62.561646
1770516548557,-0.95703125,-0.07421875,0.05810547,-36.987305,-44.189453,0.24414062,-1760.0,6428.0,3298.0,-87.91809,71.41113,-62.561646
1770516548569,-0.95703125,-0.07421875,0.05810547,-36.987305,-44.189453,0.24414062,-1760.0,6428.0,3298.0,-82.10083,69.96094,-52.29492
1770516548580,-0.95703125,-0.07421875,0.05810547,-36.987305,-44.189453,0.24414062,0.0,0.0,0.0,-82.10083,69.96094,-52.29492
1770516548657,-0.84375,-0.14746094,-0.0043945312,10.009766,-3.6010742,2.380371,-1363.0,6226.0,3159.0,-82.10083,69.96094,-52.29492
1770516548668,-0.84375,-0.14746094,-0.0043945312,10.009766,-3.6010742,2.380371,-1363.0,6226.0,3159.0,-75.97595,71.60339,-44.434204
1770516548680,-0.84375,-0.14746094,-0.0043945312,10.009766,-3.6010742,2.380371,0.0,0.0,0.0,-75.97595,71.60339,-44.434204
1770516548757,-1.0478516,-0.38964844,-0.018066406,20.202637,0.12207031,-14.770508,-2599.0,7163.0,3543.0,-75.97595,71.60339,-44.434204
1770516548768,-1.0478516,-0.38964844,-0.018066406,20.202637,0.12207031,-14.770508,-2599.0,7163.0,3543.0,-74.124756,70.75195,-44.56604
1770516548780,-1.0478516,-0.38964844,-0.018066406,20.202637,0.12207031,-14.770508,0.0,0.0,0.0,-74.124756,70.75195,-44.56604
1770516548856,-1.0493164,-0.34814453,-0.14160156,2.5634766,41.503906,7.6904297,-2540.0,7056.0,3418.0,-74.124756,70.75195,-44.56604
1770516548868,-1.0493164,-0.34814453,-0.14160156,2.5634766,41.503906,7.6904297,-2540.0,7056.0,3418.0,-80.04639,70.97717,-52.662964
1770516548879,-1.0493164,-0.34814453,-0.14160156,2.5634766,41.503906,7.6904297,0.0,0.0,0.0,-80.04639,70.97717,-52.662964
1770516548956,-0.80908203,-0.3466797,0.20703125,20.568848,22.094727,2.1362305,-2321.0,6866.0,3378.0,-80.04639,70.97717,-52.662964
1770516548968,-0.80908203,-0.3466797,0.20703125,20.568848,22.094727,2.1362305,-2321.0,6866.0,3378.0,-94.44397,72.3999,-68.29651
1770516548979,-0.80908203,-0.3466797,0.20703125,20.568848,22.094727,2.1362305,0.0,0.0,0.0,-94.44397,72.3999,-68.29651
1770516549056,-0.99658203,-0.04248047,0.041992188,32.409668,-1.2207031,19.836426,-2112.0,6862.0,3628.0,-94.44397,72.3999,-68.29651
1770516549067,-0.99658203,-0.04248047,0.041992188,32.409668,-1.2207031,19.836426,-2112.0,6862.0,3628.0,-90.63721,71.79016,-66.47827
1770516549080,-0.99658203,-0.04248047,0.041992188,32.409668,-1.2207031,19.836426,0.0,0.0,0.0,-90.63721,71.79016,-66.47827
1770516549156,-0.8955078,-0.3857422,-0.044433594,43.273926,16.113281,-33.02002,-2064.0,6795.0,3681.0,-90.63721,71.79016,-66.47827
1770516549167,-0.8955078,-0.3857422,-0.044433594,43.273926,16.113281,-33.02002,-2064.0,6795.0,3681.0,-86.7041,71.44409,-67.39563
1770516549179,-0.8955078,-0.3857422,-0.044433594,43.273926,16.113281,-33.02002,0.0,0.0,0.0,-86.7041,71.44409,-67.39563
1770516549255,-0.83740234,-0.3071289,-0.027832031,-12.451172,-5.1879883,0.18310547,-2214.0,6721.0,3494.0,-86.7041,71.44409,-67.39563
1770516549267,-0.83740234,-0.3071289,-0.027832031,-12.451172,-5.1879883,0.18310547,-2214.0,6721.0,3494.0,-86.21521,70.48279,-67.37366
1770516549286,-0.83740234,-0.3071289,-0.027832031,-12.451172,-5.1879883,0.18310547,0.0,0.0,0.0,-86.21521,70.48279,-67.37366
1770516549355,-1.1352539,-0.3618164,-0.109375,-30.334473,-8.728027,4.0283203,-1187.0,5882.0,2991.0,-86.21521,70.48279,-67.37366
1770516549366,-1.1352539,-0.3618164,-0.109375,-30.334473,-8.728027,4.0283203,-1187.0,5882.0,2991.0,-86.04492,70.75195,-65.3302
1770516549379,-1.1352539,-0.3618164,-0.109375,-30.334473,-8.728027,4.0283203,0.0,0.0,0.0,-86.04492,70.75195,-65.3302
1770516549455,-1.215332,-0.49853516,-0.13378906,-20.446777,19.28711,-11.169434,-1238.0,5900.0,3006.0,-86.04492,70.75195,-65.3302
1770516549466,-1.215332,-0.49853516,-0.13378906,-20.446777,19.28711,-11.169434,-1238.0,5900.0,3006.0,-91.95007,70.12024,-68.90076
1770516549478,-1.215332,-0.49853516,-0.13378906,-20.446777,19.28711,-11.169434,0.0,0.0,0.0,-91.95007,70.12024,-68.90076
1770516549554,-0.6430664,-0.12451172,0.14990234,-10.925293,-18.920898,11.59668,-1270.0,6074.0,3176.0,-91.95007,70.12024,-68.90076
1770516549566,-0.6430664,-0.12451172,0.14990234,-10.925293,-18.920898,11.59668,-1270.0,6074.0,3176.0,-95.61401,69.263306,-72.317505
1770516549577,-0.6430664,-0.12451172,0.14990234,-10.925293,-18.920898,11.59668,0.0,0.0,0.0,-95.61401,69.263306,-72.317505
1770516549654,-1.2080078,-0.45898438,-0.0014648438,-52.30713,-42.23633,-1.8920898,-1326.0,6247.0,3445.0,-95.61401,69.263306,-72.317505
1770516549666,-1.2080078,-0.45898438,-0.0014648438,-52.30713,-42.23633,-1.8920898,-1326.0,6247.0,3445.0,-88.829956,70.48828,-61.452026
1770516549681,-1.2080078,-0.45898438,-0.0014648438,-52.30713,-42.23633,-1.8920898,0.0,0.0,0.0,-88.829956,70.48828,-61.452026
1770516549754,-0.85839844,-0.19384766,0.0,-31.25,-44.189453,24.230957,-1004.0,6048.0,3222.0,-88.829956,70.48828,-61.452026
1770516549765,-0.85839844,-0.19384766,0.0,-31.25,-44.189453,24.230957,-1004.0,6048.0,3222.0,-77.612915,71.07605,-45.576782
1770516549777,-0.85839844,-0.19384766,0.0,-31.25,-44.189453,24.230957,0.0,0.0,0.0,-77.612915,71.07605,-45.576782
1770516549854,-0.9067383,-0.25390625,0.05078125,13.366699,17.51709,-8.544922,-1615.0,6459.0,3324.0,-77.612915,71.07605,-45.576782
1770516549865,-0.9067383,-0.25390625,0.05078125,13.366699,17.51709,-8.544922,-1615.0,6459.0,3324.0,-79.6344,71.136475,-47.340088
1770516549877,-0.9067383,-0.25390625,0.05078125,13.366699,17.51709,-8.544922,0.0,0.0,0.0,-79.6344,71.136475,-47.340088
1770516549953,-1.1298828,-0.47705078,-0.26123047,11.230469,34.729004,-6.652832,-2115.0,6862.0,3452.0,-79.6344,71.136475,-47.340088
1770516549965,-1.1298828,-0.47705078,-0.26123047,11.230469,34.729004,-6.652832,-2115.0,6862.0,3452.0,-82.65015,70.93323,-52.130127
1770516549976,-1.1298828,-0.47705078,-0.26123047,11.230469,34.729004,-6.652832,0.0,0.0,0.0,-82.65015,70.93323,-52.130127
1770516550053,-0.9140625,-0.2783203,0.17919922,20.935059,35.64453,12.390137,-1986.0,6763.0,3455.0,-82.65015,70.93323,-52.130127
1770516550065,-0.9140625,-0.2783203,0.17919922,20.935059,35.64453,12.390137,-1986.0,6763.0,3455.0,-96.72363,71.54846,-68.02734
1770516550076,-0.9140625,-0.2783203,0.17919922,20.935059,35.64453,12.390137,0.0,0.0,0.0,-96.72363,71.54846,-68.02734
1770516550153,-0.9453125,-0.12695312,0.06201172,13.122559,-32.165527,-13.793945,-1734.0,6710.0,3692.0,-96.72363,71.54846,-68.02734
1770516550164,-0.9453125,-0.12695312,0.06201172,13.122559,-32.165527,-13.793945,-1734.0,6710.0,3692.0,-90.823975,70.69153,-64.63257
1770516550175,-0.9453125,-0.12695312,0.06201172,13.122559,-32.165527,-13.793945,0.0,0.0,0.0,-90.823975,70.69153,-64.63257
1770516550252,-0.9082031,-0.4375,0.07373047,47.729492,-5.92041,-20.507812,-1735.0,6644.0,3681.0,-90.823975,70.69153,-64.63257
1770516550264,-0.9082031,-0.4375,0.07373047,47.729492,-5.92041,-20.507812,-1735.0,6644.0,3681.0,-79.32678,69.87305,-56.260986
1770516550275,-0.9082031,-0.4375,0.07373047,47.729492,-5.92041,-20.507812,0.0,0.0,0.0,-79.32678,69.87305,-56.260986
1770516550352,-0.8339844,-0.28222656,0.012207031,0.61035156,-11.535645,0.18310547,-2029.0,6633.0,3280.0,-79.32678,69.87305,-56.260986
1770516550364,-0.8339844,-0.28222656,0.012207031,0.61035156,-11.535645,0.18310547,-2029.0,6633.0,3280.0,-75.201416,68.88428,-52.860718
1770516550375,-0.8339844,-0.28222656,0.012207031,0.61035156,-11.535645,0.18310547,0.0,0.0,0.0,-75.201416,68.88428,-52.860718
1770516550452,-1.0424805,-0.31591797,0.10595703,-10.253906,-20.751953,3.3569336,-1699.0,6174.0,2818.0,-75.201416,68.88428,-52.860718
1770516550463,-1.0424805,-0.31591797,0.10595703,-10.253906,-20.751953,3.3569336,-1699.0,6174.0,2818.0,-73.58093,69.04907,-50.306396
1770516550475,-1.0424805,-0.31591797,0.10595703,-10.253906,-20.751953,3.3569336,0.0,0.0,0.0,-73.58093,69.04907,-50.306396
1770516550552,-1.1855469,-0.51416016,0.16503906,16.235352,39.30664,-16.479492,-1749.0,6192.0,2780.0,-73.58093,69.04907,-50.306396
1770516550563,-1.1855469,-0.51416016,0.16503906,16.235352,39.30664,-16.479492,-1749.0,6192.0,2780.0,-78.92029,69.296265,-54.77234
1770516550574,-1.1855469,-0.51416016,0.16503906,16.235352,39.30664,-16.479492,0.0,0.0,0.0,-78.92029,69.296265,-54.77234
1770516550651,-0.5361328,-0.37939453,0.140625,-36.68213,-17.822266,11.230469,-1746.0,6276.0,2908.0,-78.92029,69.296265,-54.77234
1770516550663,-0.5361328,-0.37939453,0.140625,-36.68213,-17.822266,11.230469,-1746.0,6276.0,2908.0,-79.73328,69.32373,-54.12964
1770516550675,-0.5361328,-0.37939453,0.140625,-36.68213,-17.822266,11.230469,0.0,0.0,0.0,-79.73328,69.32373,-54.12964
1770516550751,-1.0234375,-0.3491211,0.061035156,-58.532715,-51.02539,0.24414062,-1680.0,6323.0,3007.0,-79.73328,69.32373,-54.12964
1770516550763,-1.0234375,-0.3491211,0.061035156,-58.532715,-51.02539,0.24414062,-1680.0,6323.0,3007.0,-75.95398,68.51074,-47.32361
1770516550775,-1.0234375,-0.3491211,0.061035156,-58.532715,-51.02539,0.24414062,0.0,0.0,0.0,-75.95398,68.51074,-47.32361
1770516550851,-0.8095703,-0.28466797,0.018554688,-12.6953125,-4.5776367,7.080078,-1218.0,6077.0,2814.0,-75.95398,68.51074,-47.32361
1770516550862,-0.8095703,-0.28466797,0.018554688,-12.6953125,-4.5776367,7.080078,-1218.0,6077.0,2814.0,-72.5647,69.12598,-40.984497
1770516550874,-0.8095703,-0.28466797,0.018554688,-12.6953125,-4.5776367,7.080078,0.0,0.0,0.0,-72.5647,69.12598,-40.984497
1770516550950,-1.0131836,-0.42089844,0.0053710938,3.7841797,-5.6152344,-4.0283203,-1933.0,6647.0,3187.0,-72.5647,69.12598,-40.984497
1770516550962,-1.0131836,-0.42089844,0.0053710938,3.7841797,-5.6152344,-4.0283203,-1933.0,6647.0,3187.0,-71.33423,68.933716,-40.17151
1770516550974,-1.0131836,-0.42089844,0.0053710938,3.7841797,-5.6152344,-4.0283203,0.0,0.0,0.0,-71.33423,68.933716,-40.17151
1770516551050,-1.1396484,-0.36279297,-0.056640625,-0.18310547,31.49414,11.779785,-2133.0,6777.0,3197.0,-71.33423,68.933716,-40.17151
1770516551062,-1.1396484,-0.36279297,-0.056640625,-0.18310547,31.49414,11.779785,-2133.0,6777.0,3197.0,-76.54724,69.52698,-46.829224
1770516551074,-1.1396484,-0.36279297,-0.056640625,-0.18310547,31.49414,11.779785,0.0,0.0,0.0,-76.54724,69.52698,-46.829224
1770516551150,-0.82128906,-0.3803711,0.1899414,13.183594,8.911133,-0.79345703,-2084.0,6768.0,3242.0,-76.54724,69.52698,-46.829224
1770516551161,-0.82128906,-0.3803711,0.1899414,13.183594,8.911133,-0.79345703,-2084.0,6768.0,3242.0,-84.98474,71.240845,-56.326904
1770516551173,-0.82128906,-0.3803711,0.1899414,13.183594,8.911133,-0.79345703,0.0,0.0,0.0,-84.98474,71.240845,-56.326904
1770516551250,-0.89160156,-0.04345703,0.18066406,32.89795,-11.474609,3.1738281,-1987.0,6832.0,3522.0,-84.98474,71.240845,-56.326904
1770516551261,-0.89160156,-0.04345703,0.18066406,32.89795,-11.474609,3.1738281,-1987.0,6832.0,3522.0,-81.21094,70.36194,-54.761353
1770516551273,-0.89160156,-0.04345703,0.18066406,32.89795,-11.474609,3.1738281,0.0,0.0,0.0,-81.21094,70.36194,-54.761353
1770516551349,-0.91796875,-0.41992188,-0.018554688,33.813477,-4.0893555,-36.92627,-2129.0,6867.0,3532.0,-81.21094,70.36194,-54.761353
1770516551361,-0.91796875,-0.41992188,-0.018554688,33.813477,-4.0893555,-36.92627,-2129.0,6867.0,3532.0,-72.37244,69.41162,-49.696655
1770516551372,-0.91796875,-0.41992188,-0.018554688,33.813477,-4.0893555,-36.92627,0.0,0.0,0.0,-72.37244,69.41162,-49.696655
1770516551449,-0.8051758,-0.28955078,0.08642578,0.0,-5.554199,-6.1035156,-2374.0,6851.0,3212.0,-72.37244,69.41162,-49.696655
1770516551460,-0.8051758,-0.28955078,0.08642578,0.0,-5.554199,-6.1035156,-2374.0,6851.0,3212.0,-72.92175,68.76892,-50.59204
1770516551472,-0.8051758,-0.28955078,0.08642578,0.0,-5.554199,-6.1035156,0.0,0.0,0.0,-72.92175,68.76892,-50.59204
1770516551549,-1.1933594,-0.39648438,-0.0034179688,-32.836914,14.404297,-5.92041,-1864.0,6363.0,2874.0,-72.92175,68.76892,-50.59204
1770516551560,-1.1933594,-0.39648438,-0.0034179688,-32.836914,14.404297,-5.92041,-1864.0,6363.0,2874.0,-75.82764,68.57117,-52.036743
1770516551572,-1.1933594,-0.39648438,-0.0034179688,-32.836914,14.404297,-5.92041,0.0,0.0,0.0,-75.82764,68.57117,-52.036743
1770516551649,-1.1796875,-0.3852539,0.07373047,14.343262,56.640625,-18.798828,-1904.0,6397.0,2876.0,-75.82764,68.57117,-52.036743
1770516551660,-1.1796875,-0.3852539,0.07373047,14.343262,56.640625,-18.798828,-1904.0,6397.0,2876.0,-88.308105,68.291016,-62.330933
1770516551673,-1.1796875,-0.3852539,0.07373047,14.343262,56.640625,-18.798828,0.0,0.0,0.0,-88.308105,68.291016,-62.330933
1770516551748,-0.5834961,-0.53027344,0.2055664,-38.208008,-31.738281,13.366699,-1807.0,6607.0,3330.0,-88.308105,68.291016,-62.330933
1770516551760,-0.5834961,-0.53027344,0.2055664,-38.208008,-31.738281,13.366699,-1807.0,6607.0,3330.0,-88.791504,68.99414,-62.039795
1770516551773,-0.5834961,-0.53027344,0.2055664,-38.208008,-31.738281,13.366699,0.0,0.0,0.0,-88.791504,68.99414,-62.039795
1770516551848,-0.90185547,-0.2788086,-0.011230469,-32.470703,-27.526855,-1.4038086,-1709.0,6700.0,3522.0,-88.791504,68.99414,-62.039795
1770516551859,-0.90185547,-0.2788086,-0.011230469,-32.470703,-27.526855,-1.4038086,-1709.0,6700.0,3522.0,-86.67114,68.274536,-56.277466
1770516551871,-0.90185547,-0.2788086,-0.011230469,-32.470703,-27.526855,-1.4038086,0.0,0.0,0.0,-86.67114,68.274536,-56.277466
1770516551948,-0.8359375,-0.3203125,-0.051757812,-20.874023,-17.333984,-1.7089844,-723.0,6011.0,3047.0,-86.67114,68.274536,-56.277466
1770516551959,-0.8359375,-0.3203125,-0.051757812,-20.874023,-17.333984,-1.7089844,-723.0,6011.0,3047.0,-78.9917,68.12073,-44.917603
1770516551972,-0.8359375,-0.3203125,-0.051757812,-20.874023,-17.333984,-1.7089844,0.0,0.0,0.0,-78.9917,68.12073,-44.917603
1770516552047,-0.9711914,-0.43164062,-0.009765625,22.460938,2.9907227,-7.507324,-1355.0,6486.0,3340.0,-78.9917,68.12073,-44.917603
1770516552059,-0.9711914,-0.43164062,-0.009765625,22.460938,2.9907227,-7.507324,-1355.0,6486.0,3340.0,-80.3595,67.04407,-49.48242
1770516552078,-0.9711914,-0.43164062,-0.009765625,22.460938,2.9907227,-7.507324,0.0,0.0,0.0,-80.3595,67.04407,-49.48242
1770516552147,-1.0087891,-0.41748047,-0.08984375,23.498535,40.161133,5.3100586,-1593.0,6611.0,3297.0,-80.3595,67.04407,-49.48242
1770516552159,-1.0087891,-0.41748047,-0.08984375,23.498535,40.161133,5.3100586,-1593.0,6611.0,3297.0,-83.39172,67.14844,-54.508667
1770516552170,-1.0087891,-0.41748047,-0.08984375,23.498535,40.161133,5.3100586,0.0,0.0,0.0,-83.39172,67.14844,-54.508667
1770516552247,-1.0771484,-0.3857422,0.07470703,7.6904297,49.25537,11.59668,-1535.0,6552.0,3241.0,-83.39172,67.14844,-54.508667
1770516552258,-1.0771484,-0.3857422,0.07470703,7.6904297,49.25537,11.59668,-1535.0,6552.0,3241.0,-94.55383,68.05481,-67.59338
1770516552270,-1.0771484,-0.3857422,0.07470703,7.6904297,49.25537,11.59668,0.0,0.0,0.0,-94.55383,68.05481,-67.59338
1770516552347,-0.7416992,-0.05810547,0.07910156,36.43799,-22.521973,-4.211426,-1307.0,6525.0,3354.0,-94.55383,68.05481,-67.59338
1770516552358,-0.7416992,-0.05810547,0.07910156,36.43799,-22.521973,-4.211426,-1307.0,6525.0,3354.0,-91.97754,68.45581,-67.04407
1770516552369,-0.7416992,-0.05810547,0.07910156,36.43799,-22.521973,-4.211426,0.0,0.0,0.0,-91.97754,68.45581,-67.04407
1770516552446,-0.94628906,-0.49121094,0.08154297,74.70703,0.5493164,-28.9917,-1309.0,6470.0,3550.0,-91.97754,68.45581,-67.04407
1770516552458,-0.94628906,-0.49121094,0.08154297,74.70703,0.5493164,-28.9917,-1309.0,6470.0,3550.0,-85.182495,68.69751,-65.07202
1770516552469,-0.94628906,-0.49121094,0.08154297,74.70703,0.5493164,-28.9917,0.0,0.0,0.0,-85.182495,68.69751,-65.07202
1770516552546,-0.87353516,-0.3720703,0.0029296875,12.6953125,-10.437012,2.1972656,-1986.0,6798.0,3514.0,-85.182495,68.69751,-65.07202
1770516552557,-0.87353516,-0.3720703,0.0029296875,12.6953125,-10.437012,2.1972656,-1986.0,6798.0,3514.0,-78.689575,67.50549,-61.26526
1770516552569,-0.87353516,-0.3720703,0.0029296875,12.6953125,-10.437012,2.1972656,0.0,0.0,0.0,-78.689575,67.50549,-61.26526
1770516552646,-1.0541992,-0.43164062,-0.030761719,-20.996094,-5.6152344,3.6621094,-1273.0,6015.0,2819.0,-78.689575,67.50549,-61.26526
1770516552657,-1.0541992,-0.43164062,-0.030761719,-20.996094,-5.6152344,3.6621094,-1273.0,6015.0,2819.0,-77.4646,67.61536,-59.765625
1770516552669,-1.0541992,-0.43164062,-0.030761719,-20.996094,-5.6152344,3.6621094,0.0,0.0,0.0,-77.4646,67.61536,-59.765625
1770516552745,-1.1875,-0.5185547,0.063964844,-16.174316,35.827637,-6.3476562,-1187.0,5846.0,2600.0,-77.4646,67.61536,-59.765625
1770516552757,-1.1875,-0.5185547,0.063964844,-16.174316,35.827637,-6.3476562,-1187.0,5846.0,2600.0,-83.15552,67.75818,-62.451782
1770516552769,-1.1875,-0.5185547,0.063964844,-16.174316,35.827637,-6.3476562,0.0,0.0,0.0,-83.15552,67.75818,-62.451782
1770516552845,-0.63183594,-0.22216797,0.21923828,-39.30664,-40.405273,23.742676,-1129.0,5969.0,2717.0,-83.15552,67.75818,-62.451782
1770516552857,-0.63183594,-0.22216797,0.21923828,-39.30664,-40.405273,23.742676,-1129.0,5969.0,2717.0,-85.38574,67.45056,-64.05029
1770516552879,-0.63183594,-0.22216797,0.21923828,-39.30664,-40.405273,23.742676,0.0,0.0,0.0,-85.38574,67.45056,-64.05029
1770516552945,-1.1245117,-0.4243164,-0.13671875,-62.683105,-28.076172,12.329102,-1166.0,6098.0,2944.0,-85.38574,67.45056,-64.05029
1770516552956,-1.1245117,-0.4243164,-0.13671875,-62.683105,-28.076172,12.329102,-1166.0,6098.0,2944.0,-77.69531,69.038086,-52.366333
1770516552975,-1.1245117,-0.4243164,-0.13671875,-62.683105,-28.076172,12.329102,0.0,0.0,0.0,-77.69531,69.038086,-52.366333
1770516553045,-0.8183594,-0.28857422,0.111816406,-19.104004,-24.353027,10.192871,-1160.0,6069.0,2852.0,-77.69531,69.038086,-52.366333
1770516553056,-0.8183594,-0.28857422,0.111816406,-19.104004,-24.353027,10.192871,-1160.0,6069.0,2852.0,-70.4718,68.24707,-40.742798
1770516553067,-0.8183594,-0.28857422,0.111816406,-19.104004,-24.353027,10.192871,0.0,0.0,0.0,-70.4718,68.24707,-40.742798
