timestamp,accX,accY,accZ,gyroX,gyroY,gyroZ,magX,magY,magZ,roll,pitch,yaw
1769248663682,-0.92333984,-0.3022461,-0.2841797,2.1362305,16.906738,8.728027,0.0,0.0,0.0,-57.332153,86.467896,-121.569214
1769248663694,-0.92333984,-0.3022461,-0.2841797,2.1362305,16.906738,8.728027,0.0,0.0,0.0,-18.440552,84.86389,-79.974976
1769248663782,-0.87939453,-0.07763672,-0.09033203,-14.343262,5.004883,11.108398,0.0,0.0,0.0,-18.440552,84.86389,-79.974976
1769248663793,-0.87939453,-0.07763672,-0.09033203,-14.343262,5.004883,11.108398,0.0,0.0,0.0,-23.378906,86.28113,-86.61072
1769248663884,-1.0219727,-0.099121094,0.076660156,-6.164551,16.784668,8.728027,0.0,0.0,0.0,-23.378906,86.28113,-86.61072
1769248663893,-1.0219727,-0.099121094,0.076660156,-6.164551,16.784668,8.728027,0.0,0.0,0.0,-43.165283,88.24768,-106.9574
1769248663981,-1.3457031,0.14746094,0.29541016,-12.634277,28.198242,5.9814453,0.0,0.0,0.0,-43.165283,88.24768,-106.9574
1769248663993,-1.3457031,0.14746094,0.29541016,-12.634277,28.198242,5.9814453,0.0,0.0,0.0,-153.88,87.29736,142.11914
1769248664082,-0.68603516,0.12548828,0.017578125,10.131836,-23.986816,-14.282227,0.0,0.0,0.0,-153.88,87.29736,142.11914
1769248664093,-0.68603516,0.12548828,0.017578125,10.131836,-23.986816,-14.282227,0.0,0.0,0.0,-156.41785,88.04443,140.84473
1769248664181,-1.0483398,-0.08496094,-0.05810547,33.996582,-10.375977,-2.5024414,0.0,0.0,0.0,-156.41785,88.04443,140.84473
1769248664192,-1.0483398,-0.08496094,-0.05810547,33.996582,-10.375977,-2.5024414,0.0,0.0,0.0,-54.195557,88.621216,-117.87781
1769248664280,-0.81884766,0.0625,-0.03515625,-7.080078,-17.578125,2.0751953,0.0,0.0,0.0,-54.195557,88.621216,-117.87781
1769248664292,-0.81884766,0.0625,-0.03515625,-7.080078,-17.578125,2.0751953,0.0,0.0,0.0,-21.258545,87.56653,-85.599976
1769248664380,-0.94433594,0.015136719,-0.064453125,6.3476562,-1.6479492,-4.0283203,0.0,0.0,0.0,-21.258545,87.56653,-85.599976
1769248664392,-0.94433594,0.015136719,-0.064453125,6.3476562,-1.6479492,-4.0283203,0.0,0.0,0.0,-13.4198,87.006226,-77.7832
1769248664480,-1.1176758,-0.020507812,-0.13134766,18.127441,16.479492,-11.779785,0.0,0.0,0.0,-13.4198,87.006226,-77.7832
1769248664492,-1.1176758,-0.020507812,-0.13134766,18.127441,16.479492,-11.779785,0.0,0.0,0.0,-39.501343,87.55554,-105.22156
1769248664580,-1.3198242,0.095214844,0.21435547,8.300781,4.760742,-8.422852,0.0,0.0,0.0,-39.501343,87.55554,-105.22156
1769248664591,-1.3198242,0.095214844,0.21435547,8.300781,4.760742,-8.422852,0.0,0.0,0.0,-96.45447,87.16553,-163.1195
1769248664679,-0.7338867,-0.06738281,0.2915039,-17.63916,-6.652832,12.268066,0.0,0.0,0.0,-96.45447,87.16553,-163.1195
1769248664692,-0.7338867,-0.06738281,0.2915039,-17.63916,-6.652832,12.268066,0.0,0.0,0.0,-70.131226,87.92908,-136.64246
1769248664779,-1.0922852,0.17333984,-0.21044922,-7.3242188,6.164551,1.4038086,0.0,0.0,0.0,-70.131226,87.92908,-136.64246
1769248664790,-1.0922852,0.17333984,-0.21044922,-7.3242188,6.164551,1.4038086,0.0,0.0,0.0,-35.45288,87.039185,-100.11841
1769248664879,-0.8754883,-0.17773438,0.14990234,-10.681152,7.6904297,4.211426,0.0,0.0,0.0,-35.45288,87.039185,-100.11841
1769248664890,-0.8754883,-0.17773438,0.14990234,-10.681152,7.6904297,4.211426,0.0,0.0,0.0,-43.03894,87.95654,-108.8031
1769248664978,-0.94140625,-0.16601562,-0.11230469,8.666992,7.385254,-0.24414062,0.0,0.0,0.0,-43.03894,87.95654,-108.8031
1769248664990,-0.94140625,-0.16601562,-0.11230469,8.666992,7.385254,-0.24414062,0.0,0.0,0.0,-44.851685,87.994995,-110.599365
1769248665079,-1.0678711,-0.1430664,-0.11328125,0.91552734,11.657715,3.112793,0.0,0.0,0.0,-44.851685,87.994995,-110.599365
1769248665090,-1.0678711,-0.1430664,-0.11328125,0.91552734,11.657715,3.112793,0.0,0.0,0.0,-81.62842,88.30261,-148.24951
1769248665178,-1.2954102,0.001953125,0.24414062,-21.606445,13.793945,6.4697266,0.0,0.0,0.0,-81.62842,88.30261,-148.24951
1769248665190,-1.2954102,0.001953125,0.24414062,-21.606445,13.793945,6.4697266,0.0,0.0,0.0,-144.09119,86.95679,149.0625
1769248665277,-0.84375,0.18896484,0.045898438,-10.192871,-34.057617,2.2583008,0.0,0.0,0.0,-144.09119,86.95679,149.0625
1769248665289,-0.84375,0.18896484,0.045898438,-10.192871,-34.057617,2.2583008,0.0,0.0,0.0,-71.33423,88.26965,-137.62024
1769248665377,-0.9941406,-0.09423828,0.08203125,33.75244,-7.873535,-1.5869141,0.0,0.0,0.0,-71.33423,88.26965,-137.62024
1769248665388,-0.9941406,-0.09423828,0.08203125,33.75244,-7.873535,-1.5869141,0.0,0.0,0.0,-34.189453,87.648926,-101.310425
1769248665477,-0.8696289,0.04638672,-0.07763672,-14.343262,-13.061523,5.004883,0.0,0.0,0.0,-34.189453,87.648926,-101.310425
1769248665488,-0.8696289,0.04638672,-0.07763672,-14.343262,-13.061523,5.004883,0.0,0.0,0.0,-14.952393,86.41846,-80.53528
1769248665577,-1.0068359,0.061523438,-0.046875,3.1738281,1.953125,1.8310547,0.0,0.0,0.0,-14.952393,86.41846,-80.53528
1769248665588,-1.0068359,0.061523438,-0.046875,3.1738281,1.953125,1.8310547,0.0,0.0,0.0,-9.893188,86.41846,-75.43213
1769248665676,-1.1166992,-0.111328125,-0.13476562,11.901855,11.474609,-5.432129,0.0,0.0,0.0,-9.893188,86.41846,-75.43213
1769248665688,-1.1166992,-0.111328125,-0.13476562,11.901855,11.474609,-5.432129,0.0,0.0,0.0,-8.0859375,87.29187,-74.30603
1769248665776,-1.2553711,0.20458984,0.2915039,0.061035156,-0.6713867,0.79345703,0.0,0.0,0.0,-8.0859375,87.29187,-74.30603
1769248665787,-1.2553711,0.20458984,0.2915039,0.061035156,-0.6713867,0.79345703,0.0,0.0,0.0,-66.79138,88.26416,-134.06616
1769248665876,-0.7675781,-0.11328125,0.28271484,-24.108887,0.0,10.620117,0.0,0.0,0.0,-66.79138,88.26416,-134.06616
1769248665887,-0.7675781,-0.11328125,0.28271484,-24.108887,0.0,10.620117,0.0,0.0,0.0,-10.354614,88.54431,-78.046875
1769248665975,-1.0078125,0.16894531,-0.1665039,-19.592285,-1.2817383,12.390137,0.0,0.0,0.0,-10.354614,88.54431,-78.046875
1769248665987,-1.0078125,0.16894531,-0.1665039,-19.592285,-1.2817383,12.390137,0.0,0.0,0.0,0.9667969,87.06665,-64.74243
1769248666075,-0.89453125,-0.15136719,0.13623047,-15.014648,4.4555664,4.211426,0.0,0.0,0.0,0.9667969,87.06665,-64.74243
1769248666087,-0.89453125,-0.15136719,0.13623047,-15.014648,4.4555664,4.211426,0.0,0.0,0.0,18.73169,87.127075,-46.906128
1769248666175,-0.96484375,-0.091308594,-0.083496094,14.953613,5.9814453,0.48828125,0.0,0.0,0.0,18.73169,87.127075,-46.906128
1769248666187,-0.96484375,-0.091308594,-0.083496094,14.953613,5.9814453,0.48828125,0.0,0.0,0.0,18.451538,87.07764,-47.285156
1769248666275,-1.1669922,-0.17089844,-0.13964844,-3.2958984,15.441895,3.7841797,0.0,0.0,0.0,18.451538,87.07764,-47.285156
1769248666286,-1.1669922,-0.17089844,-0.13964844,-3.2958984,15.441895,3.7841797,0.0,0.0,0.0,34.733276,88.027954,-32.08008
1769248666374,-1.1181641,0.0024414062,0.23632812,-18.005371,-3.2348633,7.9956055,0.0,0.0,0.0,34.733276,88.027954,-32.08008
1769248666386,-1.1181641,0.0024414062,0.23632812,-18.005371,-3.2348633,7.9956055,0.0,0.0,0.0,160.58167,88.637695,94.03198
1769248666474,-0.91308594,0.24609375,0.13378906,14.892578,-23.010254,-9.338379,0.0,0.0,0.0,160.58167,88.637695,94.03198
1769248666486,-0.91308594,0.24609375,0.13378906,14.892578,-23.010254,-9.338379,0.0,0.0,0.0,4.11438,88.33557,-62.330933
1769248666574,-0.9135742,-0.05517578,0.059570312,17.089844,-2.5024414,1.5258789,0.0,0.0,0.0,4.11438,88.33557,-62.330933
1769248666585,-0.9135742,-0.05517578,0.059570312,17.089844,-2.5024414,1.5258789,0.0,0.0,0.0,7.2509766,86.87439,-60.85327
1769248666673,-0.9140625,-0.016601562,-0.10205078,3.7841797,-5.2490234,5.432129,0.0,0.0,0.0,7.2509766,86.87439,-60.85327
1769248666685,-0.9140625,-0.016601562,-0.10205078,3.7841797,-5.2490234,5.432129,0.0,0.0,0.0,14.886475,86.14929,-53.135376
1769248666773,-1.0024414,0.03466797,-0.05810547,3.7841797,7.5683594,-7.6904297,0.0,0.0,0.0,14.886475,86.14929,-53.135376
1769248666785,-1.0024414,0.03466797,-0.05810547,3.7841797,7.5683594,-7.6904297,0.0,0.0,0.0,15.523682,86.73157,-52.750854
1769248666873,-1.1337891,-0.07373047,-0.1928711,10.375977,30.578613,-10.559082,0.0,0.0,0.0,15.523682,86.73157,-52.750854
1769248666885,-1.1337891,-0.07373047,-0.1928711,10.375977,30.578613,-10.559082,0.0,0.0,0.0,5.6414795,88.84094,-63.48999
1769248666972,-1.1220703,0.012207031,0.067871094,7.6293945,-6.7749023,-2.0751953,0.0,0.0,0.0,5.6414795,88.84094,-63.48999
1769248666984,-1.1220703,0.012207031,0.067871094,7.6293945,-6.7749023,-2.0751953,0.0,0.0,0.0,-108.46802,88.80249,-179.23096
1769248667072,-1.0405273,-0.017578125,0.37158203,-30.761719,-13.61084,-2.4414062,0.0,0.0,0.0,-108.46802,88.80249,-179.23096
1769248667084,-1.0405273,-0.017578125,0.37158203,-30.761719,-13.61084,-2.4414062,0.0,0.0,0.0,-60.496216,88.797,-130.39673
1769248667172,-0.87646484,-0.08642578,-0.12158203,21.728516,16.845703,-6.958008,0.0,0.0,0.0,-60.496216,88.797,-130.39673
1769248667183,-0.87646484,-0.08642578,-0.12158203,21.728516,16.845703,-6.958008,0.0,0.0,0.0,-57.354126,88.70361,-124.49158
1769248667272,-0.86816406,-0.078125,-0.06689453,-31.921387,-3.6010742,-2.0141602,0.0,0.0,0.0,-57.354126,88.70361,-124.49158
1769248667283,-0.86816406,-0.078125,-0.06689453,-31.921387,-3.6010742,-2.0141602,0.0,0.0,0.0,-89.69238,88.46741,-157.32971
1769248667372,-1.0053711,-0.13427734,-0.08935547,14.587402,6.591797,-4.5166016,0.0,0.0,0.0,-89.69238,88.46741,-157.32971
1769248667383,-1.0053711,-0.13427734,-0.08935547,14.587402,6.591797,-4.5166016,0.0,0.0,0.0,-106.622314,87.994995,-173.44666
1769248667471,-1.4682617,-0.18115234,-0.3491211,-15.625,38.69629,-2.9907227,0.0,0.0,0.0,-106.622314,87.994995,-173.44666
1769248667482,-1.4682617,-0.18115234,-0.3491211,-15.625,38.69629,-2.9907227,0.0,0.0,0.0,-139.1748,87.17102,153.73169
1769248667571,-0.81347656,-0.068359375,0.12988281,4.9438477,-17.822266,3.4179688,0.0,0.0,0.0,-139.1748,87.17102,153.73169
1769248667582,-0.81347656,-0.068359375,0.12988281,4.9438477,-17.822266,3.4179688,0.0,0.0,0.0,-155.93994,85.89111,136.91162
1769248667670,-1.0024414,0.12841797,0.022460938,7.5683594,-11.230469,-3.8452148,0.0,0.0,0.0,-155.93994,85.89111,136.91162
1769248667682,-1.0024414,0.12841797,0.022460938,7.5683594,-11.230469,-3.8452148,0.0,0.0,0.0,-111.555176,87.63794,-179.70886
1769248667770,-0.8144531,-0.038085938,-0.029785156,-15.014648,-9.277344,-3.7841797,0.0,0.0,0.0,-111.555176,87.63794,-179.70886
1769248667782,-0.8144531,-0.038085938,-0.029785156,-15.014648,-9.277344,-3.7841797,0.0,0.0,0.0,-78.497314,87.53357,-147.28821
1769248667870,-0.9189453,0.040527344,-0.12548828,-3.90625,-1.5258789,-1.7700195,0.0,0.0,0.0,-78.497314,87.53357,-147.28821
1769248667882,-0.9189453,0.040527344,-0.12548828,-3.90625,-1.5258789,-1.7700195,0.0,0.0,0.0,-66.32446,87.24243,-134.17603
1769248667972,-1.0644531,0.028320312,-0.12548828,6.0424805,0.36621094,2.1362305,0.0,0.0,0.0,-66.32446,87.24243,-134.17603
1769248667982,-1.0644531,0.028320312,-0.12548828,6.0424805,0.36621094,2.1362305,0.0,0.0,0.0,-69.66431,87.319336,-137.8125
1769248668070,-1.3691406,-0.04736328,-0.1328125,12.634277,22.216797,-13.122559,0.0,0.0,0.0,-69.66431,87.319336,-137.8125
1769248668081,-1.3691406,-0.04736328,-0.1328125,12.634277,22.216797,-13.122559,0.0,0.0,0.0,-98.88245,87.489624,-167.92053
1769248668169,-0.82470703,-0.061035156,0.18847656,21.1792,-3.0517578,18.371582,0.0,0.0,0.0,-98.88245,87.489624,-167.92053
1769248668180,-0.82470703,-0.061035156,0.18847656,21.1792,-3.0517578,18.371582,0.0,0.0,0.0,-113.37341,87.73682,174.97925
1769248668269,-1.0639648,0.110839844,0.22216797,-21.606445,-15.136719,-9.58252,0.0,0.0,0.0,-113.37341,87.73682,174.97925
1769248668280,-1.0639648,0.110839844,0.22216797,-21.606445,-15.136719,-9.58252,0.0,0.0,0.0,-91.75781,88.637695,-162.04834
1769248668368,-0.88427734,-0.17773438,-0.03466797,27.038574,7.751465,0.6713867,0.0,0.0,0.0,-91.75781,88.637695,-162.04834
1769248668380,-0.88427734,-0.17773438,-0.03466797,27.038574,7.751465,0.6713867,0.0,0.0,0.0,-50.756836,88.92883,-118.38867
1769248668468,-0.8881836,-0.072265625,-0.08544922,-20.812988,-3.1738281,-5.9814453,0.0,0.0,0.0,-50.756836,88.92883,-118.38867
1769248668480,-0.8881836,-0.072265625,-0.08544922,-20.812988,-3.1738281,-5.9814453,0.0,0.0,0.0,-89.18152,88.45093,-156.64307
1769248668568,-0.9433594,-0.13134766,-0.079589844,7.446289,12.756348,-3.479004,0.0,0.0,0.0,-89.18152,88.45093,-156.64307
1769248668579,-0.9433594,-0.13134766,-0.079589844,7.446289,12.756348,-3.479004,0.0,0.0,0.0,-117.888794,87.53357,174.51782
1769248668668,-1.4272461,-0.14453125,-0.37402344,-14.709473,51.574707,3.7841797,0.0,0.0,0.0,-117.888794,87.53357,174.51782
1769248668679,-1.4272461,-0.14453125,-0.37402344,-14.709473,51.574707,3.7841797,0.0,0.0,0.0,-154.9292,84.51782,137.20825
1769248668767,-0.86279297,-0.092285156,0.15625,7.3242188,-27.46582,13.61084,0.0,0.0,0.0,-154.9292,84.51782,137.20825
1769248668779,-0.86279297,-0.092285156,0.15625,7.3242188,-27.46582,13.61084,0.0,0.0,0.0,-162.66907,83.583984,128.02917
1769248668867,-0.9736328,0.1821289,0.020507812,5.92041,-6.4086914,-0.4272461,0.0,0.0,0.0,-162.66907,83.583984,128.02917
1769248668879,-0.9736328,0.1821289,0.020507812,5.92041,-6.4086914,-0.4272461,0.0,0.0,0.0,-153.41309,86.380005,136.55457
1769248668967,-0.8413086,4.8828125E-4,-0.10644531,-31.677246,-3.3569336,5.2490234,0.0,0.0,0.0,-153.41309,86.380005,136.55457
1769248668979,-0.8413086,4.8828125E-4,-0.10644531,-31.677246,-3.3569336,5.2490234,0.0,0.0,0.0,-156.71448,86.781006,133.51685
1769248669066,-0.9135742,0.001953125,-0.09716797,-21.66748,3.4179688,7.1411133,0.0,0.0,0.0,-156.71448,86.781006,133.51685
1769248669078,-0.9135742,0.001953125,-0.09716797,-21.66748,3.4179688,7.1411133,0.0,0.0,0.0,-172.41943,87.00073,119.55322
1769248669166,-1.0512695,0.115234375,-0.19335938,-21.850586,6.4086914,-7.6293945,0.0,0.0,0.0,-172.41943,87.00073,119.55322
1769248669178,-1.0512695,0.115234375,-0.19335938,-21.850586,6.4086914,-7.6293945,0.0,0.0,0.0,-171.61194,86.154785,122.12402
1769248669266,-1.3291016,-0.12597656,-0.3256836,8.422852,33.87451,-13.549805,0.0,0.0,0.0,-171.61194,86.154785,122.12402
1769248669277,-1.3291016,-0.12597656,-0.3256836,8.422852,33.87451,-13.549805,0.0,0.0,0.0,-170.17273,84.089355,124.04114
1769248669365,-0.8857422,-0.09472656,0.0034179688,37.65869,-41.381836,16.479492,0.0,0.0,0.0,-170.17273,84.089355,124.04114
1769248669377,-0.8857422,-0.09472656,0.0034179688,37.65869,-41.381836,16.479492,0.0,0.0,0.0,-165.19043,85.27588,124.7113
1769248669465,-1.050293,0.08544922,0.25634766,-36.743164,-26.489258,11.779785,0.0,0.0,0.0,-165.19043,85.27588,124.7113
1769248669477,-1.050293,0.08544922,0.25634766,-36.743164,-26.489258,11.779785,0.0,0.0,0.0,-177.67639,88.65967,112.75818
1769248669565,-0.88134766,-0.10449219,-0.15576172,15.380859,15.441895,0.36621094,0.0,0.0,0.0,-177.67639,88.65967,112.75818
1769248669576,-0.88134766,-0.10449219,-0.15576172,15.380859,15.441895,0.36621094,0.0,0.0,0.0,128.20496,87.65442,62.330933
1769248669665,-0.8730469,-0.07373047,-0.12890625,-13.366699,-6.0424805,-1.8310547,0.0,0.0,0.0,128.20496,87.65442,62.330933
1769248669676,-0.8730469,-0.07373047,-0.12890625,-13.366699,-6.0424805,-1.8310547,0.0,0.0,0.0,136.57654,87.84668,69.84558
1769248669764,-1.0083008,-0.052246094,-0.06591797,20.996094,-0.12207031,0.61035156,0.0,0.0,0.0,136.57654,87.84668,69.84558
1769248669776,-1.0083008,-0.052246094,-0.06591797,20.996094,-0.12207031,0.61035156,0.0,0.0,0.0,152.677,88.01697,84.51782
1769248669864,-1.4335938,0.13476562,0.10839844,-2.746582,22.277832,-7.6904297,0.0,0.0,0.0,152.677,88.01697,84.51782
1769248669876,-1.4335938,0.13476562,0.10839844,-2.746582,22.277832,-7.6904297,0.0,0.0,0.0,177.29187,86.2262,108.70422
1769248669964,-0.6816406,0.08544922,-0.0234375,18.676758,-10.375977,-13.977051,0.0,0.0,0.0,177.29187,86.2262,108.70422
1769248669975,-0.6816406,0.08544922,-0.0234375,18.676758,-10.375977,-13.977051,0.0,0.0,0.0,179.54956,86.42944,111.8573
1769248670063,-1.0922852,0.015136719,-0.0029296875,32.53174,-16.418457,5.493164,0.0,0.0,0.0,179.54956,86.42944,111.8573
1769248670075,-1.0922852,0.015136719,-0.0029296875,32.53174,-16.418457,5.493164,0.0,0.0,0.0,-172.4414,88.12134,116.86157
1769248670163,-0.8208008,-0.026855469,-0.033203125,1.4038086,-7.751465,4.5166016,0.0,0.0,0.0,-172.4414,88.12134,116.86157
1769248670175,-0.8208008,-0.026855469,-0.033203125,1.4038086,-7.751465,4.5166016,0.0,0.0,0.0,156.51123,88.829956,84.86389
1769248670263,-0.9838867,0.0029296875,0.021972656,-9.765625,-4.0283203,-0.8544922,0.0,0.0,0.0,156.51123,88.829956,84.86389
1769248670274,-0.9838867,0.0029296875,0.021972656,-9.765625,-4.0283203,-0.8544922,0.0,0.0,0.0,168.55225,88.50037,96.63025
1769248670363,-1.1386719,0.057617188,-0.17285156,-5.2490234,17.028809,-12.145996,0.0,0.0,0.0,168.55225,88.50037,96.63025
1769248670374,-1.1386719,0.057617188,-0.17285156,-5.2490234,17.028809,-12.145996,0.0,0.0,0.0,-162.13074,87.83569,126.5625
1769248670463,-1.2607422,0.05126953,0.03515625,41.748047,13.671875,-16.479492,0.0,0.0,0.0,-162.13074,87.83569,126.5625
1769248670474,-1.2607422,0.05126953,0.03515625,41.748047,13.671875,-16.479492,0.0,0.0,0.0,-161.70227,84.68811,128.05115
1769248670562,-0.87060547,-0.16015625,0.21826172,5.432129,-3.9672852,5.2490234,0.0,0.0,0.0,-161.70227,84.68811,128.05115
1769248670574,-0.87060547,-0.16015625,0.21826172,5.432129,-3.9672852,5.2490234,0.0,0.0,0.0,-158.43933,85.30884,128.95752
1769248670662,-0.98779297,0.2944336,-0.13427734,-58.532715,-11.71875,7.2631836,0.0,0.0,0.0,-158.43933,85.30884,128.95752
1769248670673,-0.98779297,0.2944336,-0.13427734,-58.532715,-11.71875,7.2631836,0.0,0.0,0.0,-135.87341,86.555786,152.9956
1769248670761,-0.8613281,-0.09082031,-0.06738281,-5.79834,1.8920898,-4.0283203,0.0,0.0,0.0,-135.87341,86.555786,152.9956
1769248670773,-0.8613281,-0.09082031,-0.06738281,-5.79834,1.8920898,-4.0283203,0.0,0.0,0.0,-154.86328,87.22595,136.96655
1769248670861,-0.91064453,-0.11230469,-0.17871094,7.080078,9.58252,-1.6479492,0.0,0.0,0.0,-154.86328,87.22595,136.96655
1769248670873,-0.91064453,-0.11230469,-0.17871094,7.080078,9.58252,-1.6479492,0.0,0.0,0.0,-154.98962,86.89636,136.73584
1769248670961,-1.0678711,-0.1743164,-0.20703125,-8.7890625,18.676758,5.493164,0.0,0.0,0.0,-154.98962,86.89636,136.73584
1769248670972,-1.0678711,-0.1743164,-0.20703125,-8.7890625,18.676758,5.493164,0.0,0.0,0.0,-161.90002,85.41321,128.95203
1769248671060,-1.3222656,0.056152344,0.16992188,-17.089844,25.32959,3.3569336,0.0,0.0,0.0,-161.90002,85.41321,128.95203
1769248671072,-1.3222656,0.056152344,0.16992188,-17.089844,25.32959,3.3569336,0.0,0.0,0.0,-170.66162,80.947266,121.46484
1769248671160,-0.8198242,0.15283203,-0.21484375,-86.79199,0.061035156,8.178711,0.0,0.0,0.0,-170.66162,80.947266,121.46484
1769248671172,-0.8198242,0.15283203,-0.21484375,-86.79199,0.061035156,8.178711,0.0,0.0,0.0,175.60547,81.39221,113.68652
1769248671260,-0.97314453,-0.029296875,-0.07910156,49.316406,-36.621094,4.0283203,0.0,0.0,0.0,175.60547,81.39221,113.68652
1769248671271,-0.97314453,-0.029296875,-0.07910156,49.316406,-36.621094,4.0283203,0.0,0.0,0.0,173.90259,82.96326,109.330444
1769248671360,-0.8876953,0.05126953,-0.20263672,69.39697,-40.34424,-7.5683594,0.0,0.0,0.0,173.90259,82.96326,109.330444
1769248671371,-0.8876953,0.05126953,-0.20263672,69.39697,-40.34424,-7.5683594,0.0,0.0,0.0,173.91907,87.28638,104.002075
1769248671459,-1.0126953,0.0034179688,-0.119628906,-18.920898,-6.225586,-1.8920898,0.0,0.0,0.0,173.91907,87.28638,104.002075
1769248671471,-1.0126953,0.0034179688,-0.119628906,-18.920898,-6.225586,-1.8920898,0.0,0.0,0.0,-176.44592,88.236694,111.04431
1769248671559,-1.0673828,0.028808594,-0.23876953,17.944336,1.4038086,-9.216309,0.0,0.0,0.0,-176.44592,88.236694,111.04431
1769248671571,-1.0673828,0.028808594,-0.23876953,17.944336,1.4038086,-9.216309,0.0,0.0,0.0,-163.3612,88.30261,124.46411
1769248671659,-1.3129883,0.19970703,0.29052734,59.387207,-13.916016,1.3427734,0.0,0.0,0.0,-163.3612,88.30261,124.46411
1769248671670,-1.3129883,0.19970703,0.29052734,59.387207,-13.916016,1.3427734,0.0,0.0,0.0,-133.2367,87.247925,150.0293
1769248671758,-0.8417969,-0.21826172,0.34326172,-38.024902,9.82666,11.169434,0.0,0.0,0.0,-133.2367,87.247925,150.0293
1769248671770,-0.8417969,-0.21826172,0.34326172,-38.024902,9.82666,11.169434,0.0,0.0,0.0,-138.86719,89.01123,142.94312
1769248671858,-0.9916992,0.23583984,-0.28857422,-45.715332,4.8217773,4.1503906,0.0,0.0,0.0,-138.86719,89.01123,142.94312
1769248671870,-0.9916992,0.23583984,-0.28857422,-45.715332,4.8217773,4.1503906,0.0,0.0,0.0,-35.288086,87.80823,-111.170654
1769248671958,-0.8623047,-0.030273438,-0.03857422,32.958984,8.544922,-2.0141602,0.0,0.0,0.0,-35.288086,87.80823,-111.170654
1769248671969,-0.8623047,-0.030273438,-0.03857422,32.958984,8.544922,-2.0141602,0.0,0.0,0.0,-73.377686,88.78052,-149.83154
1769248672058,-1.0068359,-0.171875,-0.23095703,4.333496,12.451172,-2.9296875,0.0,0.0,0.0,-73.377686,88.78052,-149.83154
1769248672069,-1.0068359,-0.171875,-0.23095703,4.333496,12.451172,-2.9296875,0.0,0.0,0.0,-114.65881,88.76404,168.45337
1769248672157,-1.1352539,-0.19873047,-0.15429688,-15.441895,11.047363,4.8828125,0.0,0.0,0.0,-114.65881,88.76404,168.45337
1769248672169,-1.1352539,-0.19873047,-0.15429688,-15.441895,11.047363,4.8828125,0.0,0.0,0.0,-142.62451,87.70386,139.19678
1769248672257,-0.9892578,0.0390625,0.1928711,-19.65332,-14.282227,4.333496,0.0,0.0,0.0,-142.62451,87.70386,139.19678
1769248672268,-0.9892578,0.0390625,0.1928711,-19.65332,-14.282227,4.333496,0.0,0.0,0.0,-148.4198,86.30859,133.76404
1769248672357,-0.97998047,0.27978516,0.10888672,9.94873,-28.930664,-1.7700195,0.0,0.0,0.0,-148.4198,86.30859,133.76404
1769248672368,-0.97998047,0.27978516,0.10888672,9.94873,-28.930664,-1.7700195,0.0,0.0,0.0,-74.245605,87.73132,-152.09473
1769248672456,-0.9091797,-0.20117188,0.09765625,48.950195,2.1972656,-9.094238,0.0,0.0,0.0,-74.245605,87.73132,-152.09473
1769248672468,-0.9091797,-0.20117188,0.09765625,48.950195,2.1972656,-9.094238,0.0,0.0,0.0,-50.542603,87.786255,-130.85815
1769248672556,-0.86035156,0.060546875,-0.083496094,-28.015137,-17.944336,6.7749023,0.0,0.0,0.0,-50.542603,87.786255,-130.85815
1769248672568,-0.86035156,0.060546875,-0.083496094,-28.015137,-17.944336,6.7749023,0.0,0.0,0.0,-32.4646,86.81946,-111.8573
1769248672656,-1.0004883,0.029296875,-0.07763672,19.53125,9.887695,-8.056641,0.0,0.0,0.0,-32.4646,86.81946,-111.8573
1769248672667,-1.0004883,0.029296875,-0.07763672,19.53125,9.887695,-8.056641,0.0,0.0,0.0,-42.247925,87.247925,-122.18994
1769248672756,-1.1538086,-0.11767578,-0.14746094,0.4272461,17.76123,-8.483887,0.0,0.0,0.0,-42.247925,87.247925,-122.18994
1769248672767,-1.1538086,-0.11767578,-0.14746094,0.4272461,17.76123,-8.483887,0.0,0.0,0.0,-83.968506,87.52258,-164.45984
1769248672855,-1.2041016,0.087402344,0.16503906,11.779785,-2.9907227,8.544922,0.0,0.0,0.0,-83.968506,87.52258,-164.45984
1769248672867,-1.2041016,0.087402344,0.16503906,11.779785,-2.9907227,8.544922,0.0,0.0,0.0,-110.34119,86.92383,168.29956
1769248672955,-0.7885742,-0.111328125,0.29882812,-45.166016,6.591797,7.9956055,0.0,0.0,0.0,-110.34119,86.92383,168.29956
1769248672966,-0.7885742,-0.111328125,0.29882812,-45.166016,6.591797,7.9956055,0.0,0.0,0.0,-118.09204,88.1543,161.29578
1769248673055,-1.0058594,0.1508789,-0.2524414,-54.07715,13.549805,16.723633,0.0,0.0,0.0,-118.09204,88.1543,161.29578
1769248673066,-1.0058594,0.1508789,-0.2524414,-54.07715,13.549805,16.723633,0.0,0.0,0.0,-60.611572,88.76953,-138.22449
1769248673154,-0.89208984,-0.06738281,0.020996094,44.006348,9.094238,-2.9907227,0.0,0.0,0.0,-60.611572,88.76953,-138.22449
1769248673166,-0.89208984,-0.06738281,0.020996094,44.006348,9.094238,-2.9907227,0.0,0.0,0.0,-172.65564,88.48389,108.550415
1769248673254,-0.9506836,-0.13476562,-0.24560547,-1.4648438,15.625,-1.8310547,0.0,0.0,0.0,-172.65564,88.48389,108.550415
1769248673266,-0.9506836,-0.13476562,-0.24560547,-1.4648438,15.625,-1.8310547,0.0,0.0,0.0,-175.05615,87.55005,107.506714
1769248673354,-1.3085938,-0.16992188,-0.2788086,-18.188477,23.55957,2.2583008,0.0,0.0,0.0,-175.05615,87.55005,107.506714
1769248673366,-1.3085938,-0.16992188,-0.2788086,-18.188477,23.55957,2.2583008,0.0,0.0,0.0,-172.01843,86.017456,109.90723
1769248673453,-1.0097656,-0.016113281,0.13427734,-10.131836,-12.268066,-3.6621094,0.0,0.0,0.0,-172.01843,86.017456,109.90723
1769248673466,-1.0097656,-0.016113281,0.13427734,-10.131836,-12.268066,-3.6621094,0.0,0.0,0.0,-168.45886,84.86389,114.23584
1769248673553,-0.9355469,0.29296875,0.01171875,2.380371,-23.254395,-1.2207031,0.0,0.0,0.0,-168.45886,84.86389,114.23584
1769248673565,-0.9355469,0.29296875,0.01171875,2.380371,-23.254395,-1.2207031,0.0,0.0,0.0,-141.20178,87.67639,141.37207
1769248673653,-0.88623047,0.015136719,0.016601562,44.6167,5.065918,-7.9345703,0.0,0.0,0.0,-141.20178,87.67639,141.37207
1769248673664,-0.88623047,0.015136719,0.016601562,44.6167,5.065918,-7.9345703,0.0,0.0,0.0,-136.30737,87.84668,143.45947
1769248673753,-0.90966797,0.0034179688,-0.14794922,-18.981934,-6.5307617,2.9907227,0.0,0.0,0.0,-136.30737,87.84668,143.45947
1769248673764,-0.90966797,0.0034179688,-0.14794922,-18.981934,-6.5307617,2.9907227,0.0,0.0,0.0,-125.94177,89.13208,155.91797
1769248673852,-1.0263672,0.057128906,-0.1694336,-8.7890625,0.36621094,1.5258789,0.0,0.0,0.0,-125.94177,89.13208,155.91797
1769248673864,-1.0263672,0.057128906,-0.1694336,-8.7890625,0.36621094,1.5258789,0.0,0.0,0.0,-144.53613,89.176025,138.42773
1769248673952,-1.1875,-0.12548828,-0.22851562,-3.4179688,18.981934,-14.099121,0.0,0.0,0.0,-144.53613,89.176025,138.42773
1769248673963,-1.1875,-0.12548828,-0.22851562,-3.4179688,18.981934,-14.099121,0.0,0.0,0.0,-157.60437,87.528076,125.36499
1769248674052,-1.0180664,0.15527344,0.25634766,-1.7089844,-21.1792,17.8833,0.0,0.0,0.0,-157.60437,87.528076,125.36499
1769248674063,-1.0180664,0.15527344,0.25634766,-1.7089844,-21.1792,17.8833,0.0,0.0,0.0,-153.25378,86.85791,128.9685
1769248674151,-1.015625,-0.100097656,0.17041016,-27.832031,-14.465332,0.36621094,0.0,0.0,0.0,-153.25378,86.85791,128.9685
1769248674163,-1.015625,-0.100097656,0.17041016,-27.832031,-14.465332,0.36621094,0.0,0.0,0.0,156.01135,88.84094,80.17273
1769248674251,-0.9267578,-0.047851562,-0.110839844,0.7324219,9.094238,2.9296875,0.0,0.0,0.0,156.01135,88.84094,80.17273
1769248674262,-0.9267578,-0.047851562,-0.110839844,0.7324219,9.094238,2.9296875,0.0,0.0,0.0,145.81055,89.401245,70.65857
1769248674351,-0.88720703,-0.100097656,-0.111328125,-8.178711,10.009766,-0.061035156,0.0,0.0,0.0,145.81055,89.401245,70.65857
1769248674362,-0.88720703,-0.100097656,-0.111328125,-8.178711,10.009766,-0.061035156,0.0,0.0,0.0,-179.1101,87.769775,104.71069
1769248674450,-0.9736328,-0.14355469,-0.083496094,16.235352,9.460449,-3.0517578,0.0,0.0,0.0,-179.1101,87.769775,104.71069
1769248674463,-0.9736328,-0.14355469,-0.083496094,16.235352,9.460449,-3.0517578,0.0,0.0,0.0,-173.4137,86.412964,109.39087
1769248674550,-1.4326172,-0.08544922,-0.30908203,-22.583008,32.104492,-16.601562,0.0,0.0,0.0,-173.4137,86.412964,109.39087
1769248674562,-1.4326172,-0.08544922,-0.30908203,-22.583008,32.104492,-16.601562,0.0,0.0,0.0,-165.88257,85.02319,117.59216
1769248674650,-0.7338867,0.06347656,0.11376953,-4.3945312,-28.015137,1.8310547,0.0,0.0,0.0,-165.88257,85.02319,117.59216
1769248674661,-0.7338867,0.06347656,0.11376953,-4.3945312,-28.015137,1.8310547,0.0,0.0,0.0,-161.69128,84.572754,122.45361
1769248674750,-1.0859375,0.04345703,-0.10644531,19.836426,-10.375977,2.746582,0.0,0.0,0.0,-161.69128,84.572754,122.45361
1769248674761,-1.0859375,0.04345703,-0.10644531,19.836426,-10.375977,2.746582,0.0,0.0,0.0,-147.60132,87.64343,136.9226
1769248674849,-0.8222656,-0.107910156,0.047851562,-12.268066,-6.7749023,0.18310547,0.0,0.0,0.0,-147.60132,87.64343,136.9226
1769248674861,-0.8222656,-0.107910156,0.047851562,-12.268066,-6.7749023,0.18310547,0.0,0.0,0.0,-135.0824,87.43469,145.72266
1769248674949,-0.9472656,0.023925781,-0.17041016,-15.075684,-0.8544922,-2.6245117,0.0,0.0,0.0,-135.0824,87.43469,145.72266
1769248674960,-0.9472656,0.023925781,-0.17041016,-15.075684,-0.8544922,-2.6245117,0.0,0.0,0.0,-106.33667,88.06641,175.85815
1769248675049,-1.0732422,-0.0107421875,-0.11279297,11.047363,4.3945312,-7.2021484,0.0,0.0,0.0,-106.33667,88.06641,175.85815
1769248675060,-1.0732422,-0.0107421875,-0.11279297,11.047363,4.3945312,-7.2021484,0.0,0.0,0.0,-116.12549,87.41821,165.60791
1769248675148,-1.3574219,-0.0068359375,-0.037597656,20.935059,13.183594,-16.784668,0.0,0.0,0.0,-116.12549,87.41821,165.60791
1769248675160,-1.3574219,-0.0068359375,-0.037597656,20.935059,13.183594,-16.784668,0.0,0.0,0.0,-126.02966,85.86365,155.3247
1769248675248,-0.75341797,-0.072265625,0.20361328,-0.18310547,-7.446289,9.155273,0.0,0.0,0.0,-126.02966,85.86365,155.3247
1769248675260,-0.75341797,-0.072265625,0.20361328,-0.18310547,-7.446289,9.155273,0.0,0.0,0.0,-121.84387,85.88562,157.87354
1769248675348,-1.0830078,0.08935547,-0.011230469,-21.54541,-18.676758,4.760742,0.0,0.0,0.0,-121.84387,85.88562,157.87354
1769248675359,-1.0830078,0.08935547,-0.011230469,-21.54541,-18.676758,4.760742,0.0,0.0,0.0,-96.00952,87.2699,-173.58948
1769248675448,-0.88720703,-0.1616211,0.03173828,9.887695,9.58252,3.2348633,0.0,0.0,0.0,-96.00952,87.2699,-173.58948
1769248675459,-0.88720703,-0.1616211,0.03173828,9.887695,9.58252,3.2348633,0.0,0.0,0.0,-96.119385,87.87964,-173.4082
1769248675547,-0.953125,-0.083496094,-0.17919922,-5.859375,7.2631836,5.3710938,0.0,0.0,0.0,-96.119385,87.87964,-173.4082
1769248675559,-0.953125,-0.083496094,-0.17919922,-5.859375,7.2631836,5.3710938,0.0,0.0,0.0,-106.24878,88.00598,177.07764
1769248675647,-1.0073242,-0.18798828,-0.05078125,-3.479004,19.470215,-2.1972656,0.0,0.0,0.0,-106.24878,88.00598,177.07764
1769248675658,-1.0073242,-0.18798828,-0.05078125,-3.479004,19.470215,-2.1972656,0.0,0.0,0.0,-143.94836,86.3855,138.20801
1769248675747,-1.3618164,-0.07861328,-0.18359375,-11.901855,40.527344,-9.643555,0.0,0.0,0.0,-143.94836,86.3855,138.20801
1769248675758,-1.3618164,-0.07861328,-0.18359375,-11.901855,40.527344,-9.643555,0.0,0.0,0.0,-156.35742,83.57849,126.694336
1769248675846,-0.7807617,0.048828125,0.12597656,-1.159668,-44.433594,-1.159668,0.0,0.0,0.0,-156.35742,83.57849,126.694336
1769248675858,-0.7807617,0.048828125,0.12597656,-1.159668,-44.433594,-1.159668,0.0,0.0,0.0,-153.58887,83.97949,130.17151
1769248675946,-1.0581055,-0.09082031,-0.087890625,32.836914,-22.399902,2.6855469,0.0,0.0,0.0,-153.58887,83.97949,130.17151
1769248675958,-1.0581055,-0.09082031,-0.087890625,32.836914,-22.399902,2.6855469,0.0,0.0,0.0,-105.11719,87.561035,178.32458
1769248676046,-0.85302734,-0.11230469,0.024902344,-23.376465,-34.66797,-1.7089844,0.0,0.0,0.0,-105.11719,87.561035,178.32458
1769248676057,-0.85302734,-0.11230469,0.024902344,-23.376465,-34.66797,-1.7089844,0.0,0.0,0.0,-58.590088,87.01721,-138.08716
1769248676145,-1.012207,-0.033691406,-0.15332031,13.549805,9.277344,-13.061523,0.0,0.0,0.0,-58.590088,87.01721,-138.08716
1769248676157,-1.012207,-0.033691406,-0.15332031,13.549805,9.277344,-13.061523,0.0,0.0,0.0,-49.35608,86.02295,-126.7218
1769248676245,-0.9848633,-0.036132812,-0.0625,8.361816,5.6152344,-1.3427734,0.0,0.0,0.0,-49.35608,86.02295,-126.7218
1769248676256,-0.9848633,-0.036132812,-0.0625,8.361816,5.6152344,-1.3427734,0.0,0.0,0.0,-69.06006,85.77576,-148.2605
1769248676345,-1.4624023,0.07470703,0.05810547,39.123535,22.888184,-10.7421875,0.0,0.0,0.0,-69.06006,85.77576,-148.2605
1769248676356,-1.4624023,0.07470703,0.05810547,39.123535,22.888184,-10.7421875,0.0,0.0,0.0,-101.711426,85.16052,178.1543
1769248676444,-0.6635742,-0.107421875,0.23242188,-1.2817383,-5.9814453,12.6953125,0.0,0.0,0.0,-101.711426,85.16052,178.1543
1769248676456,-0.6635742,-0.107421875,0.23242188,-1.2817383,-5.9814453,12.6953125,0.0,0.0,0.0,-114.89502,85.56152,163.15247
1769248676544,-1.0952148,0.013183594,-0.06982422,-39.79492,-10.498047,1.8920898,0.0,0.0,0.0,-114.89502,85.56152,163.15247
1769248676556,-1.0952148,0.013183594,-0.06982422,-39.79492,-10.498047,1.8920898,0.0,0.0,0.0,-97.26196,87.15454,-175.32532
1769248676644,-0.86376953,-0.08300781,-0.056640625,14.770508,2.9296875,6.4697266,0.0,0.0,0.0,-97.26196,87.15454,-175.32532
1769248676656,-0.86376953,-0.08300781,-0.056640625,14.770508,2.9296875,6.4697266,0.0,0.0,0.0,-96.71814,87.47864,-174.47937
1769248676744,-0.89697266,-0.07373047,-0.15527344,-32.104492,-4.1503906,3.3569336,0.0,0.0,0.0,-96.71814,87.47864,-174.47937
1769248676755,-0.89697266,-0.07373047,-0.15527344,-32.104492,-4.1503906,3.3569336,0.0,0.0,0.0,-103.69446,87.56653,-179.81873
1769248676843,-0.96484375,-0.13330078,-0.0073242188,-3.4179688,2.2583008,-0.7324219,0.0,0.0,0.0,-103.69446,87.56653,-179.81873
1769248676855,-0.96484375,-0.13330078,-0.0073242188,-3.4179688,2.2583008,-0.7324219,0.0,0.0,0.0,-117.438354,87.03369,166.67358
1769248676943,-1.3955078,-0.10546875,-0.22265625,-12.145996,35.52246,-12.329102,0.0,0.0,0.0,-117.438354,87.03369,166.67358
1769248676955,-1.3955078,-0.10546875,-0.22265625,-12.145996,35.52246,-12.329102,0.0,0.0,0.0,-136.77429,85.88013,148.656
1769248677043,-0.73339844,-0.064941406,0.125,-3.112793,-21.911621,-3.6621094,0.0,0.0,0.0,-136.77429,85.88013,148.656
1769248677054,-0.73339844,-0.064941406,0.125,-3.112793,-21.911621,-3.6621094,0.0,0.0,0.0,-137.37854,85.51758,148.99109
1769248677142,-1.0834961,-0.064941406,-0.017089844,2.2583008,-10.009766,-3.1738281,0.0,0.0,0.0,-137.37854,85.51758,148.99109
1769248677154,-1.0834961,-0.064941406,-0.017089844,2.2583008,-10.009766,-3.1738281,0.0,0.0,0.0,-99.2395,85.858154,-174.15527
1769248677242,-0.8149414,-0.015136719,-0.024414062,-18.920898,2.2583008,-10.925293,0.0,0.0,0.0,-99.2395,85.858154,-174.15527
1769248677254,-0.8149414,-0.015136719,-0.024414062,-18.920898,2.2583008,-10.925293,0.0,0.0,0.0,-99.365845,84.50134,-173.72131
1769248677342,-0.9638672,-0.056640625,-0.17822266,-8.178711,8.117676,-2.746582,0.0,0.0,0.0,-99.365845,84.50134,-173.72131
1769248677353,-0.9638672,-0.056640625,-0.17822266,-8.178711,8.117676,-2.746582,0.0,0.0,0.0,-104.40857,84.40796,-177.65991
1769248677442,-1.1035156,-0.07080078,-0.14208984,-2.0141602,14.831543,-7.9956055,0.0,0.0,0.0,-104.40857,84.40796,-177.65991
1769248677454,-1.1035156,-0.07080078,-0.14208984,-2.0141602,14.831543,-7.9956055,0.0,0.0,0.0,-119.31702,83.309326,167.76123
1769248677541,-1.2724609,-0.07861328,-0.08544922,15.197754,29.663086,-13.427734,0.0,0.0,0.0,-119.31702,83.309326,167.76123
1769248677553,-1.2724609,-0.07861328,-0.08544922,15.197754,29.663086,-13.427734,0.0,0.0,0.0,-131.27563,81.01318,156.07727
1769248677641,-0.78027344,-0.1274414,0.14160156,20.629883,-4.0283203,12.573242,0.0,0.0,0.0,-131.27563,81.01318,156.07727
1769248677653,-0.78027344,-0.1274414,0.14160156,20.629883,-4.0283203,12.573242,0.0,0.0,0.0,-134.47815,81.37024,150.44678
1769248677741,-0.9975586,0.08300781,0.067871094,-17.333984,-40.161133,7.751465,0.0,0.0,0.0,-134.47815,81.37024,150.44678
1769248677753,-0.9975586,0.08300781,0.067871094,-17.333984,-40.161133,7.751465,0.0,0.0,0.0,-119.84985,83.270874,165.42664
1769248677841,-0.9082031,-0.16894531,-0.103515625,17.76123,2.6855469,2.380371,0.0,0.0,0.0,-119.84985,83.270874,165.42664
1769248677852,-0.9082031,-0.16894531,-0.103515625,17.76123,2.6855469,2.380371,0.0,0.0,0.0,-116.29578,85.17151,170.96924
1769248677940,-0.8989258,-0.15966797,-0.23046875,-0.18310547,-2.8076172,6.1035156,0.0,0.0,0.0,-116.29578,85.17151,170.96924
1769248677952,-0.8989258,-0.15966797,-0.23046875,-0.18310547,-2.8076172,6.1035156,0.0,0.0,0.0,-113.933716,85.578,172.83691
1769248678040,-1.0424805,-0.1875,-0.106933594,9.765625,12.512207,2.9907227,0.0,0.0,0.0,-113.933716,85.578,172.83691
1769248678052,-1.0424805,-0.1875,-0.106933594,9.765625,12.512207,2.9907227,0.0,0.0,0.0,-127.95227,84.91882,157.5055
1769248678140,-1.2739258,0.0073242188,0.026367188,-2.9907227,39.123535,-9.94873,0.0,0.0,0.0,-127.95227,84.91882,157.5055
1769248678151,-1.2739258,0.0073242188,0.026367188,-2.9907227,39.123535,-9.94873,0.0,0.0,0.0,-142.28943,81.936035,142.81677
1769248678240,-0.7963867,0.04638672,-0.005859375,18.493652,-22.644043,-4.5776367,0.0,0.0,0.0,-142.28943,81.936035,142.81677
1769248678251,-0.7963867,0.04638672,-0.005859375,18.493652,-22.644043,-4.5776367,0.0,0.0,0.0,-139.14185,81.79321,145.67322
1769248678339,-1.0205078,-0.1538086,-0.001953125,11.59668,-11.230469,20.812988,0.0,0.0,0.0,-139.14185,81.79321,145.67322
1769248678351,-1.0205078,-0.1538086,-0.001953125,11.59668,-11.230469,20.812988,0.0,0.0,0.0,-134.1925,83.36975,149.02405
1769248678439,-0.86816406,-0.0053710938,-0.15185547,-34.973145,-7.2631836,17.944336,0.0,0.0,0.0,-134.1925,83.36975,149.02405
1769248678450,-0.86816406,-0.0053710938,-0.15185547,-34.973145,-7.2631836,17.944336,0.0,0.0,0.0,-142.27295,85.45166,143.02002
1769248678559,-0.98095703,0.05859375,-0.17822266,-0.061035156,11.779785,3.1738281,0.0,0.0,0.0,-142.27295,85.45166,143.02002
1769248678560,-0.98095703,0.05859375,-0.17822266,-0.061035156,11.779785,3.1738281,0.0,0.0,0.0,-158.35693,85.68237,128.61694
1769248678639,-1.0976562,0.0073242188,-0.25585938,43.762207,-13.305664,-0.36621094,0.0,0.0,0.0,-158.35693,85.68237,128.61694
1769248678650,-1.0976562,0.0073242188,-0.25585938,43.762207,-13.305664,-0.36621094,0.0,0.0,0.0,-155.9729,86.03943,128.83118
1769248678738,-1.3193359,0.1274414,0.13183594,87.890625,2.1362305,-9.94873,0.0,0.0,0.0,-155.9729,86.03943,128.83118
1769248678749,-1.3193359,0.1274414,0.13183594,87.890625,2.1362305,-9.94873,0.0,0.0,0.0,-146.20056,85.38574,133.99475
1769248678838,-0.7915039,-0.19335938,0.2475586,-0.48828125,-3.1738281,19.40918,0.0,0.0,0.0,-146.20056,85.38574,133.99475
1769248678849,-0.7915039,-0.19335938,0.2475586,-0.48828125,-3.1738281,19.40918,0.0,0.0,0.0,-157.64832,87.022705,118.91052
1769248678937,-1.0136719,0.31201172,-0.15429688,-40.83252,-29.47998,2.0141602,0.0,0.0,0.0,-157.64832,87.022705,118.91052
1769248678949,-1.0136719,0.31201172,-0.15429688,-40.83252,-29.47998,2.0141602,0.0,0.0,0.0,-118.87207,88.291626,158.87878
1769248679037,-0.8691406,-0.07128906,-0.10986328,88.62305,-3.540039,-19.77539,0.0,0.0,0.0,-118.87207,88.291626,158.87878
1769248679049,-0.8691406,-0.07128906,-0.10986328,88.62305,-3.540039,-19.77539,0.0,0.0,0.0,-108.50647,89.06616,170.76599
1769248679137,-0.9604492,-0.17236328,-0.21679688,-3.7231445,-5.3710938,0.36621094,0.0,0.0,0.0,-108.50647,89.06616,170.76599
1769248679148,-0.9604492,-0.17236328,-0.21679688,-3.7231445,-5.3710938,0.36621094,0.0,0.0,0.0,-82.10632,88.549805,-165.07507
1769248679237,-1.1210938,-0.23242188,-0.09814453,-14.6484375,11.047363,0.48828125,0.0,0.0,0.0,-82.10632,88.549805,-165.07507
1769248679249,-1.1210938,-0.23242188,-0.09814453,-14.6484375,11.047363,0.48828125,0.0,0.0,0.0,-117.72949,87.83569,158.53271
1769248679336,-1.0893555,0.071777344,0.25195312,-25.146484,1.2817383,0.9765625,0.0,0.0,0.0,-117.72949,87.83569,158.53271
1769248679348,-1.0893555,0.071777344,0.25195312,-25.146484,1.2817383,0.9765625,0.0,0.0,0.0,-139.68018,85.26489,137.38403
1769248679436,-0.93115234,0.25146484,4.8828125E-4,5.065918,-20.080566,-5.432129,0.0,0.0,0.0,-139.68018,85.26489,137.38403
1769248679448,-0.93115234,0.25146484,4.8828125E-4,5.065918,-20.080566,-5.432129,0.0,0.0,0.0,-110.92346,86.68762,166.80542
1769248679536,-0.8798828,-0.026855469,-0.001953125,59.753418,9.82666,-13.73291,0.0,0.0,0.0,-110.92346,86.68762,166.80542
1769248679548,-0.8798828,-0.026855469,-0.001953125,59.753418,9.82666,-13.73291,0.0,0.0,0.0,-107.127686,86.43494,167.44812
1769248679635,-0.8745117,-0.021484375,-0.11230469,-10.375977,-6.225586,2.380371,0.0,0.0,0.0,-107.127686,86.43494,167.44812
1769248679647,-0.8745117,-0.021484375,-0.11230469,-10.375977,-6.225586,2.380371,0.0,0.0,0.0,-100.579834,86.74805,173.88062
1769248679735,-1.0673828,0.017089844,-0.11425781,-5.065918,-0.5493164,-3.2348633,0.0,0.0,0.0,-100.579834,86.74805,173.88062
1769248679747,-1.0673828,0.017089844,-0.11425781,-5.065918,-0.5493164,-3.2348633,0.0,0.0,0.0,-102.22229,86.84143,173.10059
1769248679835,-1.1357422,-0.17822266,-0.24365234,-9.338379,15.380859,-7.873535,0.0,0.0,0.0,-102.22229,86.84143,173.10059
1769248679846,-1.1357422,-0.17822266,-0.24365234,-9.338379,15.380859,-7.873535,0.0,0.0,0.0,-119.49829,86.138306,156.09375
1769248679935,-1.1259766,0.099609375,0.22265625,-12.573242,-18.005371,21.240234,0.0,0.0,0.0,-119.49829,86.138306,156.09375
1769248679946,-1.1259766,0.099609375,0.22265625,-12.573242,-18.005371,21.240234,0.0,0.0,0.0,-130.19348,85.48462,145.32166
1769248680034,-0.8798828,-0.030273438,0.19824219,-36.8042,-3.6621094,9.58252,0.0,0.0,0.0,-130.19348,85.48462,145.32166
1769248680046,-0.8798828,-0.030273438,0.19824219,-36.8042,-3.6621094,9.58252,0.0,0.0,0.0,-141.37756,87.857666,136.18652
1769248680134,-0.9291992,-0.038085938,-0.0063476562,4.4555664,8.239746,3.0517578,0.0,0.0,0.0,-141.37756,87.857666,136.18652
1769248680146,-0.9291992,-0.038085938,-0.0063476562,4.4555664,8.239746,3.0517578,0.0,0.0,0.0,-157.17041,87.9895,122.717285
1769248680234,-0.9086914,-0.052246094,-0.12939453,-9.460449,-4.3945312,-4.1503906,0.0,0.0,0.0,-157.17041,87.9895,122.717285
1769248680246,-0.9086914,-0.052246094,-0.12939453,-9.460449,-4.3945312,-4.1503906,0.0,0.0,0.0,-149.3811,88.19824,130.59998
1769248680333,-0.99316406,-0.17041016,-0.09716797,7.2021484,8.7890625,-6.164551,0.0,0.0,0.0,-149.3811,88.19824,130.59998
1769248680345,-0.99316406,-0.17041016,-0.09716797,7.2021484,8.7890625,-6.164551,0.0,0.0,0.0,-144.63501,87.681885,135.55481
1769248680433,-1.2602539,-0.24169922,-0.29736328,-24.902344,15.563965,-3.2348633,0.0,0.0,0.0,-144.63501,87.681885,135.55481
1769248680444,-1.2602539,-0.24169922,-0.29736328,-24.902344,15.563965,-3.2348633,0.0,0.0,0.0,-140.89966,86.42395,139.11438
1769248680533,-0.95214844,-0.009765625,0.1484375,-10.498047,-15.991211,-10.559082,0.0,0.0,0.0,-140.89966,86.42395,139.11438
1769248680544,-0.95214844,-0.009765625,0.1484375,-10.498047,-15.991211,-10.559082,0.0,0.0,0.0,-138.73535,84.347534,142.21802
1769248680632,-0.9633789,0.24707031,0.018066406,8.605957,-24.230957,1.7700195,0.0,0.0,0.0,-138.73535,84.347534,142.21802
1769248680644,-0.9633789,0.24707031,0.018066406,8.605957,-24.230957,1.7700195,0.0,0.0,0.0,-98.54187,85.50659,-178.12683
1769248680732,-0.8833008,-0.12207031,0.091308594,1.953125,-1.7700195,10.498047,0.0,0.0,0.0,-98.54187,85.50659,-178.12683
1769248680744,-0.8833008,-0.12207031,0.091308594,1.953125,-1.7700195,10.498047,0.0,0.0,0.0,-83.897095,86.451416,-165.48706
1769248680832,-0.8881836,-0.028808594,-0.04345703,-8.361816,-8.422852,10.070801,0.0,0.0,0.0,-83.897095,86.451416,-165.48706
1769248680843,-0.8881836,-0.028808594,-0.04345703,-8.361816,-8.422852,10.070801,0.0,0.0,0.0,-61.083984,87.231445,-142.16309
1769248680932,-1.0024414,0.0107421875,-0.15673828,-3.540039,13.671875,0.7324219,0.0,0.0,0.0,-61.083984,87.231445,-142.16309
1769248680943,-1.0024414,0.0107421875,-0.15673828,-3.540039,13.671875,0.7324219,0.0,0.0,0.0,-74.51477,88.00049,-154.79736
1769248681031,-1.0976562,-0.09033203,-0.16552734,-7.019043,9.643555,-2.5024414,0.0,0.0,0.0,-74.51477,88.00049,-154.79736
1769248681043,-1.0976562,-0.09033203,-0.16552734,-7.019043,9.643555,-2.5024414,0.0,0.0,0.0,-121.62964,87.72583,158.17566
1769248681132,-1.1855469,0.15820312,0.23535156,18.615723,2.5634766,8.178711,0.0,0.0,0.0,-121.62964,87.72583,158.17566
1769248681143,-1.1855469,0.15820312,0.23535156,18.615723,2.5634766,8.178711,0.0,0.0,0.0,-138.68591,86.26465,139.88892
1769248681231,-0.8881836,-0.06640625,0.27490234,-26.184082,-0.30517578,10.986328,0.0,0.0,0.0,-138.68591,86.26465,139.88892
1769248681242,-0.8881836,-0.06640625,0.27490234,-26.184082,-0.30517578,10.986328,0.0,0.0,0.0,-152.60559,87.94556,125.337524
1769248681330,-0.96972656,-0.033203125,-0.11230469,-5.432129,7.446289,7.6293945,0.0,0.0,0.0,-152.60559,87.94556,125.337524
1769248681342,-0.96972656,-0.033203125,-0.11230469,-5.432129,7.446289,7.6293945,0.0,0.0,0.0,176.12732,89.071655,95.71838
1769248681430,-0.8989258,-0.055664062,-0.096191406,-8.300781,-1.5869141,-0.9765625,0.0,0.0,0.0,176.12732,89.071655,95.71838
1769248681442,-0.8989258,-0.055664062,-0.096191406,-8.300781,-1.5869141,-0.9765625,0.0,0.0,0.0,-176.84143,88.797,102.420044
1769248681530,-0.9682617,-0.15429688,-0.1328125,6.713867,10.498047,-2.8076172,0.0,0.0,0.0,-176.84143,88.797,102.420044
1769248681541,-0.9682617,-0.15429688,-0.1328125,6.713867,10.498047,-2.8076172,0.0,0.0,0.0,-168.88184,88.21472,109.98413
1769248681630,-1.2353516,-0.19580078,-0.2915039,-21.118164,17.822266,-2.9296875,0.0,0.0,0.0,-168.88184,88.21472,109.98413
1769248681641,-1.2353516,-0.19580078,-0.2915039,-21.118164,17.822266,-2.9296875,0.0,0.0,0.0,-162.49329,87.01721,116.70776
1769248681729,-0.98779297,0.057128906,0.19482422,-31.677246,-13.916016,7.873535,0.0,0.0,0.0,-162.49329,87.01721,116.70776
1769248681741,-0.98779297,0.057128906,0.19482422,-31.677246,-13.916016,7.873535,0.0,0.0,0.0,-160.93872,85.479126,119.31152
1769248681829,-0.89941406,0.2397461,0.011230469,12.878418,-18.066406,-4.3945312,0.0,0.0,0.0,-160.93872,85.479126,119.31152
1769248681840,-0.89941406,0.2397461,0.011230469,12.878418,-18.066406,-4.3945312,0.0,0.0,0.0,-120.0531,87.8302,159.49951
1769248681929,-0.89453125,-0.072753906,0.080078125,14.587402,-1.2207031,0.7324219,0.0,0.0,0.0,-120.0531,87.8302,159.49951
1769248681940,-0.89453125,-0.072753906,0.080078125,14.587402,-1.2207031,0.7324219,0.0,0.0,0.0,-103.392334,88.19275,173.27637
1769248682028,-0.9189453,0.018066406,-0.107910156,1.4648438,-3.7841797,7.3242188,0.0,0.0,0.0,-103.392334,88.19275,173.27637
1769248682040,-0.9189453,0.018066406,-0.107910156,1.4648438,-3.7841797,7.3242188,0.0,0.0,0.0,-56.293945,88.78601,-139.92188
1769248682128,-1.0664062,0.0048828125,-0.123046875,6.5307617,7.1411133,-3.1738281,0.0,0.0,0.0,-56.293945,88.78601,-139.92188
1769248682139,-1.0664062,0.0048828125,-0.123046875,6.5307617,7.1411133,-3.1738281,0.0,0.0,0.0,-77.15698,89.21448,-161.12
1769248682228,-1.2133789,-0.08300781,-0.24707031,4.333496,18.981934,-16.540527,0.0,0.0,0.0,-77.15698,89.21448,-161.12
1769248682239,-1.2133789,-0.08300781,-0.24707031,4.333496,18.981934,-16.540527,0.0,0.0,0.0,-132.68738,87.72034,142.44873
1769248682327,-1.0537109,-0.05419922,0.06542969,22.705078,0.24414062,4.760742,0.0,0.0,0.0,-132.68738,87.72034,142.44873
1769248682340,-1.0537109,-0.05419922,0.06542969,22.705078,0.24414062,4.760742,0.0,0.0,0.0,-134.52759,86.918335,137.72461
1769248682427,-0.93115234,0.052734375,0.31835938,-17.211914,-19.89746,-4.5166016,0.0,0.0,0.0,-134.52759,86.918335,137.72461
1769248682439,-0.93115234,0.052734375,0.31835938,-17.211914,-19.89746,-4.5166016,0.0,0.0,0.0,-127.56775,87.25342,144.9701
1769248682527,-0.91748047,-0.16748047,-0.14648438,-1.5869141,6.4086914,4.8217773,0.0,0.0,0.0,-127.56775,87.25342,144.9701
1769248682539,-0.91748047,-0.16748047,-0.14648438,-1.5869141,6.4086914,4.8217773,0.0,0.0,0.0,-94.86145,88.84094,-179.40674
1769248682627,-0.90283203,0.020996094,-0.15820312,-17.51709,3.3569336,4.1503906,0.0,0.0,0.0,-94.86145,88.84094,-179.40674
1769248682638,-0.90283203,0.020996094,-0.15820312,-17.51709,3.3569336,4.1503906,0.0,0.0,0.0,-112.901,88.61572,163.46558
1769248682726,-1.0234375,-0.17480469,-0.14892578,4.0893555,15.380859,-0.5493164,0.0,0.0,0.0,-112.901,88.61572,163.46558
1769248682738,-1.0234375,-0.17480469,-0.14892578,4.0893555,15.380859,-0.5493164,0.0,0.0,0.0,-156.02783,87.61047,120.57495
1769248682826,-1.4404297,-0.22802734,-0.3330078,-27.770996,25.024414,-10.620117,0.0,0.0,0.0,-156.02783,87.61047,120.57495
1769248682838,-1.4404297,-0.22802734,-0.3330078,-27.770996,25.024414,-10.620117,0.0,0.0,0.0,-160.94421,86.12732,117.004395
1769248682926,-0.78515625,0.05859375,0.09765625,-1.4648438,-27.832031,4.8828125,0.0,0.0,0.0,-160.94421,86.12732,117.004395
1769248682937,-0.78515625,0.05859375,0.09765625,-1.4648438,-27.832031,4.8828125,0.0,0.0,0.0,-157.19238,85.704346,121.777954
1769248683025,-1.0415039,0.20996094,0.15917969,-0.79345703,-30.395508,17.089844,0.0,0.0,0.0,-157.19238,85.704346,121.777954
1769248683037,-1.0415039,0.20996094,0.15917969,-0.79345703,-30.395508,17.089844,0.0,0.0,0.0,-78.68408,88.862915,-159.80713
1769248683125,-0.8544922,-0.12939453,0.03955078,9.216309,7.080078,-6.713867,0.0,0.0,0.0,-78.68408,88.862915,-159.80713
1769248683137,-0.8544922,-0.12939453,0.03955078,9.216309,7.080078,-6.713867,0.0,0.0,0.0,-8.184814,88.26965,-91.51062
1769248683225,-0.85839844,0.09375,-0.17480469,-14.160156,-4.8217773,3.7231445,0.0,0.0,0.0,-8.184814,88.26965,-91.51062
1769248683236,-0.85839844,0.09375,-0.17480469,-14.160156,-4.8217773,3.7231445,0.0,0.0,0.0,-11.178589,87.648926,-93.76282
1769248683325,-1.0292969,0.079589844,0.011230469,32.104492,5.065918,-5.859375,0.0,0.0,0.0,-11.178589,87.648926,-93.76282
1769248683336,-1.0292969,0.079589844,0.011230469,32.104492,5.065918,-5.859375,0.0,0.0,0.0,-38.117065,88.47839,-121.9812
1769248683424,-1.3833008,-0.010253906,-0.109375,28.503418,16.601562,-11.657715,0.0,0.0,0.0,-38.117065,88.47839,-121.9812
1769248683436,-1.3833008,-0.010253906,-0.109375,28.503418,16.601562,-11.657715,0.0,0.0,0.0,-89.63196,88.46741,-175.31982
1769248683524,-0.9472656,-0.11621094,0.25683594,28.625488,2.319336,5.004883,0.0,0.0,0.0,-89.63196,88.46741,-175.31982
1769248683535,-0.9472656,-0.11621094,0.25683594,28.625488,2.319336,5.004883,0.0,0.0,0.0,-109.00635,88.50037,162.54272
1769248683624,-0.97216797,0.13427734,0.21777344,-28.625488,-21.54541,7.751465,0.0,0.0,0.0,-109.00635,88.50037,162.54272
1769248683635,-0.97216797,0.13427734,0.21777344,-28.625488,-21.54541,7.751465,0.0,0.0,0.0,-38.045654,88.50037,-124.44214
1769248683723,-0.8828125,-0.15722656,-0.021484375,-17.822266,6.164551,4.5166016,0.0,0.0,0.0,-38.045654,88.50037,-124.44214
1769248683735,-0.8828125,-0.15722656,-0.021484375,-17.822266,6.164551,4.5166016,0.0,0.0,0.0,9.437256,87.89612,-74.13574
1769248683823,-0.92871094,0.009765625,-0.16064453,-18.737793,5.065918,5.004883,0.0,0.0,0.0,9.437256,87.89612,-74.13574
1769248683835,-0.92871094,0.009765625,-0.16064453,-18.737793,5.065918,5.004883,0.0,0.0,0.0,10.618286,88.3136,-70.58716
1769248683923,-0.9946289,0.00390625,-0.080078125,21.850586,4.211426,15.74707,0.0,0.0,0.0,10.618286,88.3136,-70.58716
1769248683934,-0.9946289,0.00390625,-0.080078125,21.850586,4.211426,15.74707,0.0,0.0,0.0,83.56201,88.60474,3.0212402
1769248684023,-1.3959961,0.020996094,0.032714844,16.784668,31.49414,-7.751465,0.0,0.0,0.0,83.56201,88.60474,3.0212402
1769248684034,-1.3959961,0.020996094,0.032714844,16.784668,31.49414,-7.751465,0.0,0.0,0.0,128.28735,86.92383,47.400513
1769248684122,-0.7182617,0.037597656,0.1665039,-12.817383,-33.63037,-0.18310547,0.0,0.0,0.0,128.28735,86.92383,47.400513
1769248684134,-0.7182617,0.037597656,0.1665039,-12.817383,-33.63037,-0.18310547,0.0,0.0,0.0,122.041626,86.63269,43.917847
1769248684222,-1.0625,0.10839844,-0.14501953,18.859863,8.850098,-6.5307617,0.0,0.0,0.0,122.041626,86.63269,43.917847
1769248684234,-1.0625,0.10839844,-0.14501953,18.859863,8.850098,-6.5307617,0.0,0.0,0.0,53.54187,87.352295,-25.510254
1769248684322,-0.85546875,0.04296875,0.119628906,18.432617,-5.004883,-1.6479492,0.0,0.0,0.0,53.54187,87.352295,-25.510254
1769248684333,-0.85546875,0.04296875,0.119628906,18.432617,-5.004883,-1.6479492,0.0,0.0,0.0,70.7959,88.61572,-12.288208
1769248684421,-0.97265625,-9.765625E-4,-0.11816406,5.126953,-2.4414062,-5.2490234,0.0,0.0,0.0,70.7959,88.61572,-12.288208
1769248684433,-0.97265625,-9.765625E-4,-0.11816406,5.126953,-2.4414062,-5.2490234,0.0,0.0,0.0,38.952026,87.43469,-44.159546
1769248684521,-1.0644531,-0.009277344,-0.106933594,4.211426,16.479492,-12.451172,0.0,0.0,0.0,38.952026,87.43469,-44.159546
1769248684535,-1.0644531,-0.009277344,-0.106933594,4.211426,16.479492,-12.451172,0.0,0.0,0.0,28.756714,89.09363,-55.530396
1769248684621,-1.3232422,0.14892578,0.23779297,48.034668,-10.009766,-13.305664,0.0,0.0,0.0,28.756714,89.09363,-55.530396
1769248684633,-1.3232422,0.14892578,0.23779297,48.034668,-10.009766,-13.305664,0.0,0.0,0.0,-154.91272,87.6709,120.49805
1769248684721,-0.7314453,-0.110839844,0.19091797,1.2207031,-2.8076172,9.887695,0.0,0.0,0.0,-154.91272,87.6709,120.49805
1769248684732,-0.7314453,-0.110839844,0.19091797,1.2207031,-2.8076172,9.887695,0.0,0.0,0.0,-163.8446,89.02222,110.18738
1769248684820,-1.0991211,0.068359375,-0.03564453,-18.371582,-0.061035156,7.9345703,0.0,0.0,0.0,-163.8446,89.02222,110.18738
1769248684832,-1.0991211,0.068359375,-0.03564453,-18.371582,-0.061035156,7.9345703,0.0,0.0,0.0,69.75769,89.401245,-14.61731
1769248684920,-0.88623047,-0.07763672,0.0024414062,-29.11377,-8.850098,-1.159668,0.0,0.0,0.0,69.75769,89.401245,-14.61731
1769248684931,-0.88623047,-0.07763672,0.0024414062,-29.11377,-8.850098,-1.159668,0.0,0.0,0.0,56.66748,88.78052,-25.999146
1769248685020,-0.95996094,-0.056152344,-0.110839844,-11.474609,-5.432129,-0.61035156,0.0,0.0,0.0,56.66748,88.78052,-25.999146
1769248685031,-0.95996094,-0.056152344,-0.110839844,-11.474609,-5.432129,-0.61035156,0.0,0.0,0.0,21.82434,88.308105,-58.57361
1769248685119,-1.0527344,-0.08691406,-0.13134766,-7.385254,12.512207,2.4414062,0.0,0.0,0.0,21.82434,88.308105,-58.57361
1769248685132,-1.0527344,-0.08691406,-0.13134766,-7.385254,12.512207,2.4414062,0.0,0.0,0.0,31.547241,89.02771,-48.427734
1769248685219,-1.2929688,0.13671875,0.18945312,2.380371,25.57373,-5.79834,0.0,0.0,0.0,31.547241,89.02771,-48.427734
1769248685231,-1.2929688,0.13671875,0.18945312,2.380371,25.57373,-5.79834,0.0,0.0,0.0,-176.25366,87.231445,103.897705
1769248685319,-0.7993164,0.13964844,0.07128906,15.380859,-39.245605,2.5634766,0.0,0.0,0.0,-176.25366,87.231445,103.897705
1769248685330,-0.7993164,0.13964844,0.07128906,15.380859,-39.245605,2.5634766,0.0,0.0,0.0,119.8938,89.20349,40.391235
1769248685418,-1.0488281,-0.0053710938,-0.064941406,63.720703,2.319336,-5.1879883,0.0,0.0,0.0,119.8938,89.20349,40.391235
1769248685430,-1.0488281,-0.0053710938,-0.064941406,63.720703,2.319336,-5.1879883,0.0,0.0,0.0,52.943115,88.58276,-30.020142
1769248685518,-0.85546875,0.033203125,0.03857422,-2.1362305,-15.50293,7.019043,0.0,0.0,0.0,52.943115,88.58276,-30.020142
1769248685530,-0.85546875,0.033203125,0.03857422,-2.1362305,-15.50293,7.019043,0.0,0.0,0.0,50.509644,87.89612,-34.56848
1769248685618,-0.9736328,0.016113281,-0.13330078,-1.5869141,1.7700195,-3.7231445,0.0,0.0,0.0,50.509644,87.89612,-34.56848
1769248685629,-0.9736328,0.016113281,-0.13330078,-1.5869141,1.7700195,-3.7231445,0.0,0.0,0.0,45.8844,87.25891,-38.710327
1769248685718,-1.0834961,-0.057128906,-0.15332031,8.361816,16.845703,-15.197754,0.0,0.0,0.0,45.8844,87.25891,-38.710327
1769248685729,-1.0834961,-0.057128906,-0.15332031,8.361816,16.845703,-15.197754,0.0,0.0,0.0,72.51526,88.99475,-12.837524
1769248685817,-1.3442383,0.24267578,0.34277344,21.66748,-7.019043,5.92041,0.0,0.0,0.0,72.51526,88.99475,-12.837524
1769248685829,-1.3442383,0.24267578,0.34277344,21.66748,-7.019043,5.92041,0.0,0.0,0.0,-171.18347,88.35205,102.090454
1769248685917,-0.7963867,-0.14453125,0.2241211,-26.245117,10.131836,17.27295,0.0,0.0,0.0,-171.18347,88.35205,102.090454
1769248685929,-0.7963867,-0.14453125,0.2241211,-26.245117,10.131836,17.27295,0.0,0.0,0.0,107.52869,87.74231,21.31897
1769248686017,-0.99121094,0.083496094,-0.10253906,-29.907227,6.591797,-1.159668,0.0,0.0,0.0,107.52869,87.74231,21.31897
1769248686029,-0.99121094,0.083496094,-0.10253906,-29.907227,6.591797,-1.159668,0.0,0.0,0.0,89.80774,87.78076,6.5203857
1769248686117,-0.9399414,-0.103515625,0.034179688,-14.709473,16.906738,-6.713867,0.0,0.0,0.0,89.80774,87.78076,6.5203857
1769248686128,-0.9399414,-0.103515625,0.034179688,-14.709473,16.906738,-6.713867,0.0,0.0,0.0,131.93481,88.236694,49.454956
1769248686216,-0.96435547,-0.10498047,-0.22851562,0.9765625,18.493652,-7.6293945,0.0,0.0,0.0,131.93481,88.236694,49.454956
1769248686228,-0.96435547,-0.10498047,-0.22851562,0.9765625,18.493652,-7.6293945,0.0,0.0,0.0,169.26086,87.40173,88.203735
1769248686316,-1.1865234,-0.18408203,-0.24658203,-20.751953,22.216797,-4.4555664,0.0,0.0,0.0,169.26086,87.40173,88.203735
1769248686328,-1.1865234,-0.18408203,-0.24658203,-20.751953,22.216797,-4.4555664,0.0,0.0,0.0,-173.8971,85.68237,104.798584
1769248686416,-0.95654297,0.10839844,0.18066406,-9.765625,-9.643555,0.6713867,0.0,0.0,0.0,-173.8971,85.68237,104.798584
1769248686427,-0.95654297,0.10839844,0.18066406,-9.765625,-9.643555,0.6713867,0.0,0.0,0.0,-166.55823,83.254395,112.74719
1769248686515,-0.90234375,0.21582031,-0.08203125,26.306152,-12.329102,-6.3476562,0.0,0.0,0.0,-166.55823,83.254395,112.74719
1769248686527,-0.90234375,0.21582031,-0.08203125,26.306152,-12.329102,-6.3476562,0.0,0.0,0.0,-151.10596,85.616455,126.68884
1769248686615,-0.8984375,-0.15625,0.03515625,2.9296875,-13.671875,-1.159668,0.0,0.0,0.0,-151.10596,85.616455,126.68884
1769248686627,-0.8984375,-0.15625,0.03515625,2.9296875,-13.671875,-1.159668,0.0,0.0,0.0,-139.39453,85.9021,134.70886
1769248686715,-0.91308594,0.01171875,-0.14501953,-19.77539,-11.291504,3.2958984,0.0,0.0,0.0,-139.39453,85.9021,134.70886
1769248686726,-0.91308594,0.01171875,-0.14501953,-19.77539,-11.291504,3.2958984,0.0,0.0,0.0,-119.86633,87.17102,155.53894
1769248686814,-1.0444336,0.013183594,-0.111328125,-3.479004,-4.5166016,-0.36621094,0.0,0.0,0.0,-119.86633,87.17102,155.53894
1769248686826,-1.0444336,0.013183594,-0.111328125,-3.479004,-4.5166016,-0.36621094,0.0,0.0,0.0,-110.69824,87.648926,165.84412
1769248686914,-1.269043,-0.203125,-0.20166016,-17.822266,16.357422,-18.554688,0.0,0.0,0.0,-110.69824,87.648926,165.84412
1769248686926,-1.269043,-0.203125,-0.20166016,-17.822266,16.357422,-18.554688,0.0,0.0,0.0,-124.46411,86.19873,152.38037
1769248687014,-1.0239258,0.015136719,0.047851562,-9.643555,-11.59668,11.962891,0.0,0.0,0.0,-124.46411,86.19873,152.38037
1769248687026,-1.0239258,0.015136719,0.047851562,-9.643555,-11.59668,11.962891,0.0,0.0,0.0,-123.376465,85.99548,154.54468
1769248687114,-0.94921875,-0.044433594,0.2836914,-30.639648,-17.27295,-5.493164,0.0,0.0,0.0,-123.376465,85.99548,154.54468
1769248687125,-0.94921875,-0.044433594,0.2836914,-30.639648,-17.27295,-5.493164,0.0,0.0,0.0,-113.56018,86.77002,165.46509
1769248687213,-0.9223633,-0.123535156,-0.095214844,0.61035156,6.8359375,3.2958984,0.0,0.0,0.0,-113.56018,86.77002,165.46509
1769248687225,-0.9223633,-0.123535156,-0.095214844,0.61035156,6.8359375,3.2958984,0.0,0.0,0.0,-92.93884,87.28088,-171.2439
1769248687313,-0.9355469,-0.028808594,-0.15673828,-16.723633,-4.0283203,4.1503906,0.0,0.0,0.0,-92.93884,87.28088,-171.2439
1769248687324,-0.9355469,-0.028808594,-0.15673828,-16.723633,-4.0283203,4.1503906,0.0,0.0,0.0,-97.72888,87.59949,-175.24841
1769248687413,-0.9404297,-0.16357422,-0.09082031,8.972168,6.286621,2.380371,0.0,0.0,0.0,-97.72888,87.59949,-175.24841
1769248687424,-0.9404297,-0.16357422,-0.09082031,8.972168,6.286621,2.380371,0.0,0.0,0.0,-118.916016,87.593994,163.26782
1769248687512,-1.1386719,-0.203125,-0.25683594,-14.221191,9.399414,8.422852,0.0,0.0,0.0,-118.916016,87.593994,163.26782
1769248687524,-1.1386719,-0.203125,-0.25683594,-14.221191,9.399414,8.422852,0.0,0.0,0.0,-135.92285,87.29736,146.27747
1769248687612,-1.1166992,0.048339844,0.23486328,-27.46582,0.7324219,13.305664,0.0,0.0,0.0,-135.92285,87.29736,146.27747
1769248687624,-1.1166992,0.048339844,0.23486328,-27.46582,0.7324219,13.305664,0.0,0.0,0.0,-155.93994,85.23193,126.4032
1769248687712,-0.8457031,0.22998047,0.024902344,-2.0751953,-31.188965,-6.7749023,0.0,0.0,0.0,-155.93994,85.23193,126.4032
1769248687724,-0.8457031,0.22998047,0.024902344,-2.0751953,-31.188965,-6.7749023,0.0,0.0,0.0,-131.02295,87.83569,151.67175
1769248687812,-0.9785156,-0.12402344,0.041015625,36.621094,-1.7089844,-6.4697266,0.0,0.0,0.0,-131.02295,87.83569,151.67175
1769248687823,-0.9785156,-0.12402344,0.041015625,36.621094,-1.7089844,-6.4697266,0.0,0.0,0.0,-80.87036,88.18176,-159.87305
1769248687911,-0.87402344,0.009765625,-0.11621094,-14.038086,-12.451172,-0.79345703,0.0,0.0,0.0,-80.87036,88.18176,-159.87305
1769248687923,-0.87402344,0.009765625,-0.11621094,-14.038086,-12.451172,-0.79345703,0.0,0.0,0.0,-46.906128,87.5061,-124.96399
1769248688011,-1.0395508,0.048828125,-0.08984375,25.45166,12.756348,-16.784668,0.0,0.0,0.0,-46.906128,87.5061,-124.96399
1769248688023,-1.0395508,0.048828125,-0.08984375,25.45166,12.756348,-16.784668,0.0,0.0,0.0,-66.41235,87.006226,-145.14587
1769248688111,-1.2724609,-0.1821289,-0.2709961,-12.084961,29.23584,-11.901855,0.0,0.0,0.0,-66.41235,87.006226,-145.14587
1769248688122,-1.2724609,-0.1821289,-0.2709961,-12.084961,29.23584,-11.901855,0.0,0.0,0.0,-103.1012,86.42944,177.07764
1769248688210,-0.9760742,-0.076171875,0.1821289,34.240723,-2.9296875,3.1738281,0.0,0.0,0.0,-103.1012,86.42944,177.07764
1769248688222,-0.9760742,-0.076171875,0.1821289,34.240723,-2.9296875,3.1738281,0.0,0.0,0.0,-123.89282,85.13306,154.94568
1769248688310,-0.9277344,-0.06298828,0.31689453,-31.49414,-20.751953,-9.82666,0.0,0.0,0.0,-123.89282,85.13306,154.94568
1769248688322,-0.9277344,-0.06298828,0.31689453,-31.49414,-20.751953,-9.82666,0.0,0.0,0.0,-111.15967,85.71533,168.29956
1769248688410,-0.9394531,-0.19042969,-0.23632812,-9.460449,18.249512,10.192871,0.0,0.0,0.0,-111.15967,85.71533,168.29956
1769248688422,-0.9394531,-0.19042969,-0.23632812,-9.460449,18.249512,10.192871,0.0,0.0,0.0,-82.249146,86.3031,-159.76868
1769248688510,-0.86572266,-0.053710938,-0.09716797,-6.4086914,-4.211426,1.953125,0.0,0.0,0.0,-82.249146,86.3031,-159.76868
1769248688521,-0.86572266,-0.053710938,-0.09716797,-6.4086914,-4.211426,1.953125,0.0,0.0,0.0,-101.46973,86.47888,-179.91211
1769248688609,-0.97998047,-0.1743164,-0.119628906,30.212402,15.991211,-0.061035156,0.0,0.0,0.0,-101.46973,86.47888,-179.91211
1769248688621,-0.97998047,-0.1743164,-0.119628906,30.212402,15.991211,-0.061035156,0.0,0.0,0.0,-122.821655,86.138306,158.36243
1769248688709,-1.4462891,-0.1928711,-0.30322266,-17.028809,34.729004,-4.4555664,0.0,0.0,0.0,-122.821655,86.138306,158.36243
1769248688720,-1.4462891,-0.1928711,-0.30322266,-17.028809,34.729004,-4.4555664,0.0,0.0,0.0,-139.4165,85.02869,141.25671
1769248688809,-0.8286133,-0.107421875,0.06347656,-3.7231445,-18.066406,0.8544922,0.0,0.0,0.0,-139.4165,85.02869,141.25671
1769248688820,-0.8286133,-0.107421875,0.06347656,-3.7231445,-18.066406,0.8544922,0.0,0.0,0.0,-149.76562,84.001465,132.09412
1769248688908,-1.0039062,0.2319336,0.0029296875,10.681152,-25.390625,7.507324,0.0,0.0,0.0,-149.76562,84.001465,132.09412
1769248688920,-1.0039062,0.2319336,0.0029296875,10.681152,-25.390625,7.507324,0.0,0.0,0.0,-115.477295,86.033936,165.19043
1769248689008,-0.8691406,-0.11230469,0.020019531,-4.699707,-18.981934,11.047363,0.0,0.0,0.0,-115.477295,86.033936,165.19043
1769248689020,-0.8691406,-0.11230469,0.020019531,-4.699707,-18.981934,11.047363,0.0,0.0,0.0,-91.08765,87.23694,-172.56226
1769248689108,-0.8984375,-0.025390625,-0.08203125,-12.878418,-15.136719,3.1738281,0.0,0.0,0.0,-91.08765,87.23694,-172.56226
1769248689120,-0.8984375,-0.025390625,-0.08203125,-12.878418,-15.136719,3.1738281,0.0,0.0,0.0,-49.9823,87.22046,-130.46814
1769248689207,-1.0546875,0.04345703,-0.13671875,9.94873,10.070801,-6.4697266,0.0,0.0,0.0,-49.9823,87.22046,-130.46814
1769248689219,-1.0546875,0.04345703,-0.13671875,9.94873,10.070801,-6.4697266,0.0,0.0,0.0,-58.551636,87.19299,-138.90015
1769248689307,-1.2651367,-0.19042969,-0.16894531,-10.681152,18.188477,-3.90625,0.0,0.0,0.0,-58.551636,87.19299,-138.90015
1769248689319,-1.2651367,-0.19042969,-0.16894531,-10.681152,18.188477,-3.90625,0.0,0.0,0.0,-108.86902,86.99524,169.8761
1769248689407,-1.0053711,0.057128906,0.20507812,3.7231445,-8.300781,22.033691,0.0,0.0,0.0,-108.86902,86.99524,169.8761
1769248689418,-1.0053711,0.057128906,0.20507812,3.7231445,-8.300781,22.033691,0.0,0.0,0.0,-123.83789,88.132324,154.66003
1769248689506,-0.9199219,-0.072753906,0.20996094,-30.700684,-6.225586,0.61035156,0.0,0.0,0.0,-123.83789,88.132324,154.66003
1769248689518,-0.9199219,-0.072753906,0.20996094,-30.700684,-6.225586,0.61035156,0.0,0.0,0.0,148.39233,89.58801,69.00513
1769248689606,-0.9086914,-0.08105469,-0.078125,0.61035156,11.474609,2.8076172,0.0,0.0,0.0,148.39233,89.58801,69.00513
1769248689618,-0.9086914,-0.08105469,-0.078125,0.61035156,11.474609,2.8076172,0.0,0.0,0.0,176.69312,89.06616,98.54187
1769248689706,-0.87841797,-0.020996094,-0.14941406,-14.099121,-5.3100586,4.4555664,0.0,0.0,0.0,176.69312,89.06616,98.54187
1769248689718,-0.87841797,-0.020996094,-0.14941406,-14.099121,-5.3100586,4.4555664,0.0,0.0,0.0,161.23535,88.90686,83.897095
1769248689806,-1.0263672,-0.09326172,-0.025878906,9.70459,7.2021484,0.36621094,0.0,0.0,0.0,161.23535,88.90686,83.897095
1769248689817,-1.0263672,-0.09326172,-0.025878906,9.70459,7.2021484,0.36621094,0.0,0.0,0.0,177.3468,88.16528,99.37683
1769248689905,-1.4091797,0.04296875,-0.044433594,24.780273,37.41455,-10.375977,0.0,0.0,0.0,177.3468,88.16528,99.37683
1769248689917,-1.4091797,0.04296875,-0.044433594,24.780273,37.41455,-10.375977,0.0,0.0,0.0,-175.94055,85.50659,105.60608
1769248690005,-0.7260742,0.013183594,0.045410156,24.536133,-32.958984,-4.211426,0.0,0.0,0.0,-175.94055,85.50659,105.60608
1769248690017,-0.7260742,0.013183594,0.045410156,24.536133,-32.958984,-4.211426,0.0,0.0,0.0,-174.47388,86.82495,106.62781
1769248690105,-1.0961914,0.001953125,0.0063476562,33.203125,-7.751465,-4.8217773,0.0,0.0,0.0,-174.47388,86.82495,106.62781
1769248690116,-1.0961914,0.001953125,0.0063476562,33.203125,-7.751465,-4.8217773,0.0,0.0,0.0,-140.69641,88.61023,138.47717
1769248690204,-0.8232422,0.008300781,-0.01953125,-14.526367,-18.554688,-0.36621094,0.0,0.0,0.0,-140.69641,88.61023,138.47717
1769248690216,-0.8232422,0.008300781,-0.01953125,-14.526367,-18.554688,-0.36621094,0.0,0.0,0.0,-74.78943,88.670654,-157.30225
1769248690304,-0.9628906,0.009765625,-0.122558594,-11.901855,-1.3427734,-4.699707,0.0,0.0,0.0,-74.78943,88.670654,-157.30225
1769248690316,-0.9628906,0.009765625,-0.122558594,-11.901855,-1.3427734,-4.699707,0.0,0.0,0.0,-44.884644,88.18176,-126.03516
1769248690404,-1.0556641,0.0053710938,-0.125,1.4648438,4.638672,-7.6293945,0.0,0.0,0.0,-44.884644,88.18176,-126.03516
1769248690417,-1.0556641,0.0053710938,-0.125,1.4648438,4.638672,-7.6293945,0.0,0.0,0.0,-74.52576,87.94556,-155.59937
1769248690504,-1.3818359,0.021484375,0.0034179688,6.3476562,18.188477,-17.333984,0.0,0.0,0.0,-74.52576,87.94556,-155.59937
1769248690515,-1.3818359,0.021484375,0.0034179688,6.3476562,18.188477,-17.333984,0.0,0.0,0.0,-116.51001,86.347046,162.99866
1769248690603,-0.7573242,-0.06591797,0.16699219,12.6953125,-13.183594,9.643555,0.0,0.0,0.0,-116.51001,86.347046,162.99866
1769248690615,-0.7573242,-0.06591797,0.16699219,12.6953125,-13.183594,9.643555,0.0,0.0,0.0,-92.06543,87.319336,-173.79822
1769248690703,-1.0517578,0.078125,0.06738281,-12.023926,-22.949219,-9.033203,0.0,0.0,0.0,-92.06543,87.319336,-173.79822
1769248690715,-1.0517578,0.078125,0.06738281,-12.023926,-22.949219,-9.033203,0.0,0.0,0.0,-56.189575,87.20398,-136.38977
1769248690803,-0.87841797,-0.12207031,-0.09375,12.878418,5.92041,6.164551,0.0,0.0,0.0,-56.189575,87.20398,-136.38977
1769248690814,-0.87841797,-0.12207031,-0.09375,12.878418,5.92041,6.164551,0.0,0.0,0.0,-46.983032,87.41272,-126.68335
1769248690902,-0.9145508,-0.087402344,-0.17480469,-1.2817383,2.0751953,2.9296875,0.0,0.0,0.0,-46.983032,87.41272,-126.68335
1769248690914,-0.9145508,-0.087402344,-0.17480469,-1.2817383,2.0751953,2.9296875,0.0,0.0,0.0,-57.44751,87.96753,-137.53235
1769248691002,-1.0161133,-0.15917969,0.026367188,5.6152344,8.544922,-0.4272461,0.0,0.0,0.0,-57.44751,87.96753,-137.53235
1769248691014,-1.0161133,-0.15917969,0.026367188,5.6152344,8.544922,-0.4272461,0.0,0.0,0.0,-99.28894,87.802734,179.1156
1769248691102,-1.3012695,0.076660156,0.1430664,-1.2207031,24.902344,-13.61084,0.0,0.0,0.0,-99.28894,87.802734,179.1156
1769248691113,-1.3012695,0.076660156,0.1430664,-1.2207031,24.902344,-13.61084,0.0,0.0,0.0,-131.96228,85.86914,147.2168
1769248691202,-0.73291016,0.043945312,0.02734375,5.6762695,-29.724121,0.12207031,0.0,0.0,0.0,-131.96228,85.86914,147.2168
1769248691214,-0.73291016,0.043945312,0.02734375,5.6762695,-29.724121,0.12207031,0.0,0.0,0.0,-125.13428,86.380005,155.37964
1769248691301,-1.0522461,-0.041503906,-0.00390625,35.15625,-4.272461,-1.5869141,0.0,0.0,0.0,-125.13428,86.380005,155.37964
1769248691313,-1.0522461,-0.041503906,-0.00390625,35.15625,-4.272461,-1.5869141,0.0,0.0,0.0,-90.09888,87.247925,-170.48035
1769248691401,-0.86035156,0.0087890625,-0.03955078,-12.6953125,-10.559082,0.9765625,0.0,0.0,0.0,-90.09888,87.247925,-170.48035
1769248691412,-0.86035156,0.0087890625,-0.03955078,-12.6953125,-10.559082,0.9765625,0.0,0.0,0.0,-63.1604,87.25342,-144.4812
1769248691501,-0.9711914,0.012207031,-0.12451172,-7.080078,-0.79345703,-0.79345703,0.0,0.0,0.0,-63.1604,87.25342,-144.4812
1769248691512,-0.9711914,0.012207031,-0.12451172,-7.080078,-0.79345703,-0.79345703,0.0,0.0,0.0,-49.438477,87.25342,-129.59473
1769248691602,-1.1132812,-0.019042969,-0.09326172,9.216309,10.925293,-6.1035156,0.0,0.0,0.0,-49.438477,87.25342,-129.59473
1769248691612,-1.1132812,-0.019042969,-0.09326172,9.216309,10.925293,-6.1035156,0.0,0.0,0.0,-70.10376,87.53357,-150.50171
1769248691700,-1.3305664,0.103027344,0.16259766,17.150879,14.099121,-8.239746,0.0,0.0,0.0,-70.10376,87.53357,-150.50171
1769248691711,-1.3305664,0.103027344,0.16259766,17.150879,14.099121,-8.239746,0.0,0.0,0.0,-112.28027,86.63818,167.15698
1769248691800,-0.75341797,-0.21142578,0.2705078,4.760742,-10.070801,10.192871,0.0,0.0,0.0,-112.28027,86.63818,167.15698
1769248691811,-0.75341797,-0.21142578,0.2705078,4.760742,-10.070801,10.192871,0.0,0.0,0.0,-110.58838,87.65442,167.2174
1769248691899,-1.0620117,0.28076172,-0.16796875,-35.64453,-11.84082,1.6479492,0.0,0.0,0.0,-110.58838,87.65442,167.2174
1769248691911,-1.0620117,0.28076172,-0.16796875,-35.64453,-11.84082,1.6479492,0.0,0.0,0.0,-63.094482,87.19299,-143.32764
1769248691999,-0.859375,-0.06982422,-0.0043945312,50.65918,6.591797,-8.117676,0.0,0.0,0.0,-63.094482,87.19299,-143.32764
1769248692011,-0.859375,-0.06982422,-0.0043945312,50.65918,6.591797,-8.117676,0.0,0.0,0.0,-71.762695,87.93457,-151.6388
1769248692099,-0.9453125,-0.119140625,-0.19482422,-2.746582,6.958008,0.79345703,0.0,0.0,0.0,-71.762695,87.93457,-151.6388
1769248692111,-0.9453125,-0.119140625,-0.19482422,-2.746582,6.958008,0.79345703,0.0,0.0,0.0,-73.65784,88.02246,-153.02856
1769248692198,-1.0585938,-0.1459961,-0.07714844,-11.169434,4.1503906,2.6245117,0.0,0.0,0.0,-73.65784,88.02246,-153.02856
1769248692210,-1.0585938,-0.1459961,-0.07714844,-11.169434,4.1503906,2.6245117,0.0,0.0,0.0,-100.74463,87.6709,179.5166
1769248692298,-1.3076172,0.087402344,0.21289062,-3.7841797,19.714355,-3.2958984,0.0,0.0,0.0,-100.74463,87.6709,179.5166
1769248692310,-1.3076172,0.087402344,0.21289062,-3.7841797,19.714355,-3.2958984,0.0,0.0,0.0,-139.46045,85.92407,141.5918
1769248692398,-0.7504883,0.0390625,0.06640625,10.803223,-40.161133,-9.643555,0.0,0.0,0.0,-139.46045,85.92407,141.5918
1769248692409,-0.7504883,0.0390625,0.06640625,10.803223,-40.161133,-9.643555,0.0,0.0,0.0,-123.01941,86.989746,158.59863
1769248692498,-1.0820312,-0.10253906,-0.0087890625,37.902832,-10.498047,-7.6904297,0.0,0.0,0.0,-123.01941,86.989746,158.59863
1769248692509,-1.0820312,-0.10253906,-0.0087890625,37.902832,-10.498047,-7.6904297,0.0,0.0,0.0,-68.010864,86.846924,-146.79932
1769248692597,-0.8520508,0.03125,-0.045410156,-11.779785,-14.587402,0.91552734,0.0,0.0,0.0,-68.010864,86.846924,-146.79932
1769248692609,-0.8520508,0.03125,-0.045410156,-11.779785,-14.587402,0.91552734,0.0,0.0,0.0,-51.64673,85.68787,-131.09985
1769248692697,-0.95751953,-0.0126953125,-0.06982422,-4.0893555,1.2817383,-3.2348633,0.0,0.0,0.0,-51.64673,85.68787,-131.09985
1769248692708,-0.95751953,-0.0126953125,-0.06982422,-4.0893555,1.2817383,-3.2348633,0.0,0.0,0.0,-46.098633,85.545044,-124.645386
1769248692797,-1.1196289,-0.05908203,-0.104003906,-0.4272461,14.160156,-3.9672852,0.0,0.0,0.0,-46.098633,85.545044,-124.645386
1769248692808,-1.1196289,-0.05908203,-0.104003906,-0.4272461,14.160156,-3.9672852,0.0,0.0,0.0,-58.271484,85.86914,-136.8457
1769248692896,-1.3642578,0.1430664,0.2211914,16.357422,8.300781,1.5258789,0.0,0.0,0.0,-58.271484,85.86914,-136.8457
1769248692908,-1.3642578,0.1430664,0.2211914,16.357422,8.300781,1.5258789,0.0,0.0,0.0,-89.96704,85.753784,-169.0741
1769248692996,-0.6645508,-0.17675781,0.3149414,-4.3945312,5.6152344,10.620117,0.0,0.0,0.0,-89.96704,85.753784,-169.0741
1769248693008,-0.6645508,-0.17675781,0.3149414,-4.3945312,5.6152344,10.620117,0.0,0.0,0.0,-83.58948,86.79199,-164.50928
1769248693096,-1.0859375,0.1850586,-0.21044922,-18.127441,1.0375977,4.8828125,0.0,0.0,0.0,-83.58948,86.79199,-164.50928
1769248693107,-1.0859375,0.1850586,-0.21044922,-18.127441,1.0375977,4.8828125,0.0,0.0,0.0,-58.529663,86.451416,-137.59277
1769248693195,-0.86816406,-0.17919922,0.078125,31.066895,15.319824,-1.8310547,0.0,0.0,0.0,-58.529663,86.451416,-137.59277
1769248693207,-0.86816406,-0.17919922,0.078125,31.066895,15.319824,-1.8310547,0.0,0.0,0.0,-72.77344,87.440186,-152.53967
1769248693295,-0.93603516,-0.09423828,-0.18408203,-4.0283203,3.540039,1.6479492,0.0,0.0,0.0,-72.77344,87.440186,-152.53967
1769248693307,-0.93603516,-0.09423828,-0.18408203,-4.0283203,3.540039,1.6479492,0.0,0.0,0.0,-75.03662,87.28638,-154.13818
1769248693395,-1.0478516,-0.1796875,-0.083984375,-4.4555664,5.2490234,1.7700195,0.0,0.0,0.0,-75.03662,87.28638,-154.13818
1769248693407,-1.0478516,-0.1796875,-0.083984375,-4.4555664,5.2490234,1.7700195,0.0,0.0,0.0,-95.53162,87.18201,-175.04517
1769248693495,-1.3349609,0.045898438,0.06689453,6.591797,35.583496,-9.643555,0.0,0.0,0.0,-95.53162,87.18201,-175.04517
1769248693506,-1.3349609,0.045898438,0.06689453,6.591797,35.583496,-9.643555,0.0,0.0,0.0,-135.19226,85.52307,145.80505
1769248693594,-0.7480469,0.0034179688,0.07080078,-2.380371,-27.648926,-2.5024414,0.0,0.0,0.0,-135.19226,85.52307,145.80505
1769248693606,-0.7480469,0.0034179688,0.07080078,-2.380371,-27.648926,-2.5024414,0.0,0.0,0.0,-129.57825,86.500854,152.42432
1769248693694,-1.0454102,-0.08203125,-0.07470703,31.982422,-6.591797,-4.0283203,0.0,0.0,0.0,-129.57825,86.500854,152.42432
1769248693706,-1.0454102,-0.08203125,-0.07470703,31.982422,-6.591797,-4.0283203,0.0,0.0,0.0,-96.54236,87.05017,-175.23743
1769248693794,-0.8129883,0.020996094,-0.037109375,-9.58252,-13.305664,-0.36621094,0.0,0.0,0.0,-96.54236,87.05017,-175.23743
1769248693805,-0.8129883,0.020996094,-0.037109375,-9.58252,-13.305664,-0.36621094,0.0,0.0,0.0,-69.94446,86.82495,-148.09021
1769248693893,-1.0405273,0.0078125,-0.13183594,8.544922,3.2348633,-0.12207031,0.0,0.0,0.0,-69.94446,86.82495,-148.09021
1769248693905,-1.0405273,0.0078125,-0.13183594,8.544922,3.2348633,-0.12207031,0.0,0.0,0.0,-65.15991,87.039185,-143.05847
1769248693993,-1.0498047,-0.07470703,-0.13671875,23.010254,6.7749023,-7.507324,0.0,0.0,0.0,-65.15991,87.039185,-143.05847
1769248694005,-1.0498047,-0.07470703,-0.13671875,23.010254,6.7749023,-7.507324,0.0,0.0,0.0,-87.44568,86.90735,-167.18994
1769248694093,-1.3349609,0.15576172,0.36816406,49.1333,-3.479004,-3.6621094,0.0,0.0,0.0,-87.44568,86.90735,-167.18994
1769248694104,-1.3349609,0.15576172,0.36816406,49.1333,-3.479004,-3.6621094,0.0,0.0,0.0,-109.90173,85.70984,167.79419
1769248694193,-0.7446289,-0.2163086,0.26757812,-12.878418,-3.9672852,11.657715,0.0,0.0,0.0,-109.90173,85.70984,167.79419
1769248694205,-0.7446289,-0.2163086,0.26757812,-12.878418,-3.9672852,11.657715,0.0,0.0,0.0,-80.47485,87.352295,-164.4104
1769248694292,-0.9824219,0.14501953,-0.17919922,-35.7666,1.6479492,1.7700195,0.0,0.0,0.0,-80.47485,87.352295,-164.4104
1769248694304,-0.9824219,0.14501953,-0.17919922,-35.7666,1.6479492,1.7700195,0.0,0.0,0.0,-54.816284,86.59424,-136.00525
1769248694392,-0.8911133,-0.12841797,0.09667969,6.8359375,18.310547,-3.90625,0.0,0.0,0.0,-54.816284,86.59424,-136.00525
1769248694403,-0.8911133,-0.12841797,0.09667969,6.8359375,18.310547,-3.90625,0.0,0.0,0.0,-84.9353,86.989746,-166.09131
1769248694492,-0.9580078,-0.13769531,-0.17578125,1.8310547,15.686035,-0.6713867,0.0,0.0,0.0,-84.9353,86.989746,-166.09131
1769248694503,-0.9580078,-0.13769531,-0.17578125,1.8310547,15.686035,-0.6713867,0.0,0.0,0.0,-112.28027,86.588745,167.51953
1769248694592,-1.1069336,-0.19335938,-0.21044922,-15.74707,9.94873,4.9438477,0.0,0.0,0.0,-112.28027,86.588745,167.51953
1769248694603,-1.1069336,-0.19335938,-0.21044922,-15.74707,9.94873,4.9438477,0.0,0.0,0.0,-125.930786,86.017456,153.18787
1769248694691,-1.1123047,0.05126953,0.2783203,-11.108398,-11.657715,10.559082,0.0,0.0,0.0,-125.930786,86.017456,153.18787
1769248694703,-1.1123047,0.05126953,0.2783203,-11.108398,-11.657715,10.559082,0.0,0.0,0.0,-132.9126,84.70459,145.7666
1769248694791,-0.8984375,0.41210938,0.0126953125,27.954102,-19.836426,12.939453,0.0,0.0,0.0,-132.9126,84.70459,145.7666
1769248694802,-0.8984375,0.41210938,0.0126953125,27.954102,-19.836426,12.939453,0.0,0.0,0.0,-81.09009,86.813965,-164.6521
1769248694891,-0.83203125,-0.026367188,0.044433594,105.651855,9.70459,-1.4038086,0.0,0.0,0.0,-81.09009,86.813965,-164.6521
1769248694902,-0.83203125,-0.026367188,0.044433594,105.651855,9.70459,-1.4038086,0.0,0.0,0.0,-67.263794,88.829956,-156.34094
1769248694990,-0.96484375,0.028808594,-0.1953125,6.5307617,5.432129,0.0,0.0,0.0,0.0,-67.263794,88.829956,-156.34094
1769248695002,-0.96484375,0.028808594,-0.1953125,6.5307617,5.432129,0.0,0.0,0.0,0.0,-13.579102,89.2749,-104.53491
1769248695090,-1.0541992,0.0053710938,-0.111816406,20.324707,14.831543,-19.226074,0.0,0.0,0.0,-13.579102,89.2749,-104.53491
1769248695101,-1.0541992,0.0053710938,-0.111816406,20.324707,14.831543,-19.226074,0.0,0.0,0.0,-125.980225,87.86865,141.76208
1769248695190,-1.5214844,-0.22753906,-0.26464844,-9.887695,44.189453,-20.812988,0.0,0.0,0.0,-125.980225,87.86865,141.76208
1769248695201,-1.5214844,-0.22753906,-0.26464844,-9.887695,44.189453,-20.812988,0.0,0.0,0.0,-146.66199,85.55603,122.145996
1769248695289,-0.6455078,-0.09765625,0.2265625,-34.973145,-18.737793,6.4086914,0.0,0.0,0.0,-146.66199,85.55603,122.145996
1769248695301,-0.6455078,-0.09765625,0.2265625,-34.973145,-18.737793,6.4086914,0.0,0.0,0.0,-134.599,85.616455,133.98376
1769248695389,-0.9838867,0.04345703,-0.11035156,-72.5708,-15.686035,-13.427734,0.0,0.0,0.0,-134.599,85.616455,133.98376
1769248695400,-0.9838867,0.04345703,-0.11035156,-72.5708,-15.686035,-13.427734,0.0,0.0,0.0,-111.41235,86.451416,163.37769
1769248695489,-0.8383789,-0.076171875,-0.08984375,-15.014648,6.958008,-2.8076172,0.0,0.0,0.0,-111.41235,86.451416,163.37769
1769248695500,-0.8383789,-0.076171875,-0.08984375,-15.014648,6.958008,-2.8076172,0.0,0.0,0.0,-104.90845,86.500854,174.20471
1769248695588,-0.9399414,-0.15429688,-0.21044922,-6.3476562,13.244629,4.8217773,0.0,0.0,0.0,-104.90845,86.500854,174.20471
1769248695600,-0.9399414,-0.15429688,-0.21044922,-6.3476562,13.244629,4.8217773,0.0,0.0,0.0,-121.673584,86.171265,158.80188
1769248695689,-1.1513672,-0.16357422,-0.15332031,-12.817383,-0.18310547,8.911133,0.0,0.0,0.0,-121.673584,86.171265,158.80188
1769248695700,-1.1513672,-0.16357422,-0.15332031,-12.817383,-0.18310547,8.911133,0.0,0.0,0.0,-137.47192,85.53955,142.21802
1769248695788,-1.0908203,-9.765625E-4,0.18652344,7.019043,-15.014648,4.5166016,0.0,0.0,0.0,-137.47192,85.53955,142.21802
1769248695799,-1.0908203,-9.765625E-4,0.18652344,7.019043,-15.014648,4.5166016,0.0,0.0,0.0,-141.16882,85.19348,138.32336
1769248695888,-0.94189453,0.32421875,0.01171875,25.512695,-15.869141,10.559082,0.0,0.0,0.0,-141.16882,85.19348,138.32336
1769248695899,-0.94189453,0.32421875,0.01171875,25.512695,-15.869141,10.559082,0.0,0.0,0.0,-99.244995,87.4292,177.52258
1769248695987,-0.94189453,-0.20800781,0.1616211,60.546875,13.000488,5.9814453,0.0,0.0,0.0,-99.244995,87.4292,177.52258
1769248695999,-0.94189453,-0.20800781,0.1616211,60.546875,13.000488,5.9814453,0.0,0.0,0.0,-69.505005,88.64319,-158.10425
1769248696087,-0.890625,-0.044433594,-0.095214844,-11.962891,-6.7749023,7.385254,0.0,0.0,0.0,-69.505005,88.64319,-158.10425
1769248696098,-0.890625,-0.044433594,-0.095214844,-11.962891,-6.7749023,7.385254,0.0,0.0,0.0,-15.941162,88.80798,-104.81506
1769248696187,-1.0507812,0.016113281,-0.06298828,-18.798828,-2.6245117,-9.460449,0.0,0.0,0.0,-15.941162,88.80798,-104.81506
1769248696198,-1.0507812,0.016113281,-0.06298828,-18.798828,-2.6245117,-9.460449,0.0,0.0,0.0,-28.251343,88.50037,-115.85632
1769248696286,-1.2475586,-0.13427734,-0.24707031,-13.183594,18.676758,-15.808105,0.0,0.0,0.0,-28.251343,88.50037,-115.85632
1769248696298,-1.2475586,-0.13427734,-0.24707031,-13.183594,18.676758,-15.808105,0.0,0.0,0.0,-79.17297,88.19824,-164.83337
1769248696386,-0.95214844,0.032714844,0.18164062,2.2583008,-5.432129,9.033203,0.0,0.0,0.0,-79.17297,88.19824,-164.83337
1769248696398,-0.95214844,0.032714844,0.18164062,2.2583008,-5.432129,9.033203,0.0,0.0,0.0,-111.99463,87.4292,161.35071
1769248696486,-1.003418,0.0034179688,0.26904297,-24.353027,-8.850098,-8.911133,0.0,0.0,0.0,-111.99463,87.4292,161.35071
1769248696497,-1.003418,0.0034179688,0.26904297,-24.353027,-8.850098,-8.911133,0.0,0.0,0.0,-110.9729,88.04993,163.63586
1769248696586,-0.89501953,-0.15673828,-0.16113281,-0.79345703,11.901855,5.7373047,0.0,0.0,0.0,-110.9729,88.04993,163.63586
1769248696597,-0.89501953,-0.15673828,-0.16113281,-0.79345703,11.901855,5.7373047,0.0,0.0,0.0,-91.85669,88.53882,-174.4574
1769248696685,-0.8886719,-0.05908203,-0.08935547,-19.40918,-7.2021484,1.7700195,0.0,0.0,0.0,-91.85669,88.53882,-174.4574
1769248696697,-0.8886719,-0.05908203,-0.08935547,-19.40918,-7.2021484,1.7700195,0.0,0.0,0.0,-114.087524,88.0719,162.58118
1769248696785,-0.96875,-0.14990234,-0.092285156,4.8217773,5.1879883,2.1972656,0.0,0.0,0.0,-114.087524,88.0719,162.58118
1769248696797,-0.96875,-0.14990234,-0.092285156,4.8217773,5.1879883,2.1972656,0.0,0.0,0.0,-125.288086,87.75879,151.73218
1769248696885,-1.4438477,-0.1665039,-0.35986328,-18.981934,42.60254,-3.540039,0.0,0.0,0.0,-125.288086,87.75879,151.73218
1769248696896,-1.4438477,-0.1665039,-0.35986328,-18.981934,42.60254,-3.540039,0.0,0.0,0.0,-151.10046,86.68213,126.54053
1769248696984,-0.7783203,0.049804688,0.08691406,1.7700195,-24.475098,10.131836,0.0,0.0,0.0,-151.10046,86.68213,126.54053
1769248696996,-0.7783203,0.049804688,0.08691406,1.7700195,-24.475098,10.131836,0.0,0.0,0.0,-160.82886,85.424194,117.421875
1769248697084,-1.0761719,0.07421875,-0.078125,20.080566,1.8310547,2.6855469,0.0,0.0,0.0,-160.82886,85.424194,117.421875
1769248697096,-1.0761719,0.07421875,-0.078125,20.080566,1.8310547,2.6855469,0.0,0.0,0.0,-160.8728,87.561035,116.71875
1769248697184,-0.81103516,-0.10644531,0.015136719,-4.4555664,-5.9814453,2.6855469,0.0,0.0,0.0,-160.8728,87.561035,116.71875
1769248697196,-0.81103516,-0.10644531,0.015136719,-4.4555664,-5.9814453,2.6855469,0.0,0.0,0.0,-153.8086,87.25342,119.99817
1769248697283,-0.9399414,0.05078125,-0.15527344,-20.935059,4.272461,4.699707,0.0,0.0,0.0,-153.8086,87.25342,119.99817
1769248697295,-0.9399414,0.05078125,-0.15527344,-20.935059,4.272461,4.699707,0.0,0.0,0.0,-154.46777,87.80823,120.24536
1769248697383,-1.0625,0.05078125,-0.1821289,6.713867,12.512207,-3.90625,0.0,0.0,0.0,-154.46777,87.80823,120.24536
1769248697395,-1.0625,0.05078125,-0.1821289,6.713867,12.512207,-3.90625,0.0,0.0,0.0,-166.10779,86.797485,109.434814
1769248697483,-1.184082,-0.19140625,-0.2763672,-9.460449,17.39502,-17.578125,0.0,0.0,0.0,-166.10779,86.797485,109.434814
1769248697495,-1.184082,-0.19140625,-0.2763672,-9.460449,17.39502,-17.578125,0.0,0.0,0.0,-163.02063,84.91333,112.67029
1769248697583,-0.9291992,0.10888672,0.11767578,9.765625,-17.211914,10.620117,0.0,0.0,0.0,-163.02063,84.91333,112.67029
1769248697595,-0.9291992,0.10888672,0.11767578,9.765625,-17.211914,10.620117,0.0,0.0,0.0,-154.45679,84.644165,119.94873
1769248697682,-1.0356445,0.06689453,0.14892578,-26.000977,-15.075684,-7.080078,0.0,0.0,0.0,-154.45679,84.644165,119.94873
1769248697694,-1.0356445,0.06689453,0.14892578,-26.000977,-15.075684,-7.080078,0.0,0.0,0.0,-149.63379,86.02844,125.95276
1769248697782,-0.89746094,-0.104003906,-0.12792969,13.366699,-4.4555664,7.751465,0.0,0.0,0.0,-149.63379,86.02844,125.95276
1769248697795,-0.89746094,-0.104003906,-0.12792969,13.366699,-4.4555664,7.751465,0.0,0.0,0.0,-164.45435,86.98425,112.74719
1769248697882,-0.91259766,-0.021484375,-0.18847656,-4.0283203,2.0141602,2.2583008,0.0,0.0,0.0,-164.45435,86.98425,112.74719
1769248697894,-0.91259766,-0.021484375,-0.18847656,-4.0283203,2.0141602,2.2583008,0.0,0.0,0.0,-167.26135,86.97876,109.47876
1769248697981,-0.97509766,-0.14111328,-0.08544922,8.117676,1.3427734,1.8920898,0.0,0.0,0.0,-167.26135,86.97876,109.47876
1769248697993,-0.97509766,-0.14111328,-0.08544922,8.117676,1.3427734,1.8920898,0.0,0.0,0.0,-170.22766,86.29761,105.721436
1769248698081,-1.4633789,-0.10644531,-0.26611328,-2.6245117,33.87451,-12.084961,0.0,0.0,0.0,-170.22766,86.29761,105.721436
1769248698092,-1.4633789,-0.10644531,-0.26611328,-2.6245117,33.87451,-12.084961,0.0,0.0,0.0,-169.4696,84.748535,106.89697
1769248698181,-0.7397461,0.020507812,0.061523438,9.58252,-23.80371,-0.5493164,0.0,0.0,0.0,-169.4696,84.748535,106.89697
1769248698192,-0.7397461,0.020507812,0.061523438,9.58252,-23.80371,-0.5493164,0.0,0.0,0.0,-164.68506,84.90784,111.95618
1769248698281,-1.0507812,0.10986328,-0.051757812,-4.5776367,-12.939453,8.7890625,0.0,0.0,0.0,-164.68506,84.90784,111.95618
1769248698292,-1.0507812,0.10986328,-0.051757812,-4.5776367,-12.939453,8.7890625,0.0,0.0,0.0,-155.6543,87.56653,120.772705
1769248698380,-0.8432617,-0.09277344,0.012207031,-6.1035156,-7.507324,2.319336,0.0,0.0,0.0,-155.6543,87.56653,120.772705
1769248698392,-0.8432617,-0.09277344,0.012207031,-6.1035156,-7.507324,2.319336,0.0,0.0,0.0,-154.25354,88.04993,120.355225
1769248698480,-0.9609375,0.061035156,-0.18945312,-17.089844,4.0283203,1.0986328,0.0,0.0,0.0,-154.25354,88.04993,120.355225
1769248698492,-0.9609375,0.061035156,-0.18945312,-17.089844,4.0283203,1.0986328,0.0,0.0,0.0,-151.92444,88.69263,124.11255
1769248698580,-1.0375977,0.048339844,-0.109375,19.470215,19.348145,-6.652832,0.0,0.0,0.0,-151.92444,88.69263,124.11255
1769248698591,-1.0375977,0.048339844,-0.109375,19.470215,19.348145,-6.652832,0.0,0.0,0.0,-163.0426,86.918335,112.55493
1769248698680,-1.3979492,-0.115234375,-0.26367188,6.225586,37.53662,-16.357422,0.0,0.0,0.0,-163.0426,86.918335,112.55493
1769248698691,-1.3979492,-0.115234375,-0.26367188,6.225586,37.53662,-16.357422,0.0,0.0,0.0,-165.58044,84.6991,110.17639
1769248698779,-0.7919922,-0.037597656,0.16503906,11.84082,-9.277344,10.803223,0.0,0.0,0.0,-165.58044,84.6991,110.17639
1769248698791,-0.7919922,-0.037597656,0.16503906,11.84082,-9.277344,10.803223,0.0,0.0,0.0,-162.95471,84.298096,110.181885
1769248698879,-1.0463867,0.20751953,-0.1015625,-38.81836,-3.0517578,-6.8969727,0.0,0.0,0.0,-162.95471,84.298096,110.181885
1769248698890,-1.0463867,0.20751953,-0.1015625,-38.81836,-3.0517578,-6.8969727,0.0,0.0,0.0,-163.0481,84.990234,112.994385
1769248698979,-0.8959961,-0.106933594,-0.18847656,18.981934,16.296387,-5.432129,0.0,0.0,0.0,-163.0481,84.990234,112.994385
1769248698990,-0.8959961,-0.106933594,-0.18847656,18.981934,16.296387,-5.432129,0.0,0.0,0.0,-174.7815,84.27612,104.09546
1769248699078,-0.8198242,-0.0234375,-0.30859375,-14.953613,-1.3427734,1.3427734,0.0,0.0,0.0,-174.7815,84.27612,104.09546
1769248699090,-0.8198242,-0.0234375,-0.30859375,-14.953613,-1.3427734,1.3427734,0.0,0.0,0.0,-171.16699,83.974,108.18237
1769248699178,-1.0595703,-0.20751953,-0.123046875,3.4179688,1.3427734,-5.493164,0.0,0.0,0.0,-171.16699,83.974,108.18237
1769248699190,-1.0595703,-0.20751953,-0.123046875,3.4179688,1.3427734,-5.493164,0.0,0.0,0.0,-165.09155,82.88635,112.53296
1769248699278,-1.3774414,0.1328125,0.07519531,18.920898,16.845703,-17.51709,0.0,0.0,0.0,-165.09155,82.88635,112.53296
1769248699289,-1.3774414,0.1328125,0.07519531,18.920898,16.845703,-17.51709,0.0,0.0,0.0,-158.5437,80.74951,119.36096
1769248699378,-0.6645508,0.03515625,-0.068359375,11.71875,-28.442383,-14.770508,0.0,0.0,0.0,-158.5437,80.74951,119.36096
1769248699389,-0.6645508,0.03515625,-0.068359375,11.71875,-28.442383,-14.770508,0.0,0.0,0.0,-150.26001,82.01843,128.85864
1769248699477,-1.1420898,-0.04296875,-0.18652344,40.527344,5.554199,-6.4697266,0.0,0.0,0.0,-150.26001,82.01843,128.85864
1769248699489,-1.1420898,-0.04296875,-0.18652344,40.527344,5.554199,-6.4697266,0.0,0.0,0.0,-140.36682,82.90283,137.72461
1769248699577,-0.79052734,-0.083496094,-0.03955078,-4.8828125,-11.474609,2.5634766,0.0,0.0,0.0,-140.36682,82.90283,137.72461
1769248699588,-0.79052734,-0.083496094,-0.03955078,-4.8828125,-11.474609,2.5634766,0.0,0.0,0.0,-140.03174,82.55676,136.01074
1769248699677,-0.99609375,0.015625,-0.18261719,-0.9765625,-8.911133,1.0986328,0.0,0.0,0.0,-140.03174,82.55676,136.01074
1769248699688,-0.99609375,0.015625,-0.18261719,-0.9765625,-8.911133,1.0986328,0.0,0.0,0.0,-137.79053,83.84766,139.71313
1769248699776,-1.1191406,-0.19384766,-0.21044922,-0.061035156,4.0283203,-2.9907227,0.0,0.0,0.0,-137.79053,83.84766,139.71313
1769248699789,-1.1191406,-0.19384766,-0.21044922,-0.061035156,4.0283203,-2.9907227,0.0,0.0,0.0,-139.54834,84.15527,137.51587
1769248699876,-1.3320312,0.05419922,0.030273438,35.64453,9.887695,-13.061523,0.0,0.0,0.0,-139.54834,84.15527,137.51587
1769248699888,-1.3320312,0.05419922,0.030273438,35.64453,9.887695,-13.061523,0.0,0.0,0.0,-139.59229,82.41943,137.0874
1769248699976,-0.7758789,-0.19873047,0.23535156,-6.958008,-10.498047,15.258789,0.0,0.0,0.0,-139.59229,82.41943,137.0874
1769248699988,-0.7758789,-0.19873047,0.23535156,-6.958008,-10.498047,15.258789,0.0,0.0,0.0,-137.23022,83.27637,136.9226
1769248700076,-1.1147461,0.11035156,-0.19677734,-45.654297,-10.314941,8.361816,0.0,0.0,0.0,-137.23022,83.27637,136.9226
1769248700087,-1.1147461,0.11035156,-0.19677734,-45.654297,-10.314941,8.361816,0.0,0.0,0.0,-128.07312,84.60022,148.4967
1769248700175,-0.8330078,-0.18261719,0.0048828125,5.1879883,-1.5869141,4.9438477,0.0,0.0,0.0,-128.07312,84.60022,148.4967
1769248700187,-0.8330078,-0.18261719,0.0048828125,5.1879883,-1.5869141,4.9438477,0.0,0.0,0.0,-135.34607,85.20447,141.87195
1769248700275,-0.9277344,-0.140625,-0.27734375,-0.91552734,8.300781,5.6762695,0.0,0.0,0.0,-135.34607,85.20447,141.87195
1769248700286,-0.9277344,-0.140625,-0.27734375,-0.91552734,8.300781,5.6762695,0.0,0.0,0.0,-139.5758,85.303345,138.6914
1769248700375,-1.0917969,-0.19384766,-0.095214844,-10.925293,8.728027,5.7373047,0.0,0.0,0.0,-139.5758,85.303345,138.6914
1769248700386,-1.0917969,-0.19384766,-0.095214844,-10.925293,8.728027,5.7373047,0.0,0.0,0.0,-147.15088,84.331055,129.82544
1769248700475,-1.2275391,0.02734375,0.060058594,1.0375977,19.65332,-7.507324,0.0,0.0,0.0,-147.15088,84.331055,129.82544
1769248700486,-1.2275391,0.02734375,0.060058594,1.0375977,19.65332,-7.507324,0.0,0.0,0.0,-155.4126,82.337036,122.805176
1769248700574,-0.7919922,0.12451172,0.026367188,26.672363,-30.212402,-12.329102,0.0,0.0,0.0,-155.4126,82.337036,122.805176
1769248700586,-0.7919922,0.12451172,0.026367188,26.672363,-30.212402,-12.329102,0.0,0.0,0.0,-147.65625,82.34802,130.4956
1769248700674,-1.0834961,-0.24707031,-0.1508789,5.859375,-12.268066,1.3427734,0.0,0.0,0.0,-147.65625,82.34802,130.4956
1769248700685,-1.0834961,-0.24707031,-0.1508789,5.859375,-12.268066,1.3427734,0.0,0.0,0.0,-130.94604,85.03967,146.26099
1769248700773,-0.85595703,-0.053222656,-0.07763672,-19.348145,-10.253906,-3.540039,0.0,0.0,0.0,-130.94604,85.03967,146.26099
1769248700785,-0.85595703,-0.053222656,-0.07763672,-19.348145,-10.253906,-3.540039,0.0,0.0,0.0,-116.345215,85.20996,161.10901
1769248700873,-0.96435547,-0.019042969,-0.14648438,-1.2817383,3.112793,-6.7749023,0.0,0.0,0.0,-116.345215,85.20996,161.10901
1769248700885,-0.96435547,-0.019042969,-0.14648438,-1.2817383,3.112793,-6.7749023,0.0,0.0,0.0,-113.444824,85.2594,165.27283
1769248700973,-1.1313477,-0.095703125,-0.20361328,-0.48828125,15.136719,0.24414062,0.0,0.0,0.0,-113.444824,85.2594,165.27283
1769248700985,-1.1313477,-0.095703125,-0.20361328,-0.48828125,15.136719,0.24414062,0.0,0.0,0.0,-120.50903,84.54529,157.64832
1769248701073,-1.2416992,0.0390625,0.0859375,31.066895,11.71875,-3.540039,0.0,0.0,0.0,-120.50903,84.54529,157.64832
1769248701084,-1.2416992,0.0390625,0.0859375,31.066895,11.71875,-3.540039,0.0,0.0,0.0,-136.01624,82.595215,141.93787
1769248701172,-0.77978516,-0.19384766,0.25097656,-5.7373047,-7.5683594,7.080078,0.0,0.0,0.0,-136.01624,82.595215,141.93787
1769248701184,-0.77978516,-0.19384766,0.25097656,-5.7373047,-7.5683594,7.080078,0.0,0.0,0.0,-135.19775,83.54553,140.83374
1769248701272,-1.0649414,0.12158203,-0.24658203,-71.96045,0.61035156,23.31543,0.0,0.0,0.0,-135.19775,83.54553,140.83374
1769248701283,-1.0649414,0.12158203,-0.24658203,-71.96045,0.61035156,23.31543,0.0,0.0,0.0,-118.71277,84.94629,159.17542
1769248701372,-0.8808594,-0.13134766,0.055664062,-9.155273,3.7841797,3.540039,0.0,0.0,0.0,-118.71277,84.94629,159.17542
1769248701383,-0.8808594,-0.13134766,0.055664062,-9.155273,3.7841797,3.540039,0.0,0.0,0.0,-133.1488,85.753784,145.21179
1769248701471,-0.93652344,-0.17919922,-0.23095703,9.277344,12.207031,0.0,0.0,0.0,0.0,-133.1488,85.753784,145.21179
1769248701483,-0.93652344,-0.17919922,-0.23095703,9.277344,12.207031,0.0,0.0,0.0,0.0,-140.27893,85.65491,138.6969
1769248701571,-1.0634766,-0.16552734,-0.1303711,1.6479492,6.286621,4.0283203,0.0,0.0,0.0,-140.27893,85.65491,138.6969
1769248701584,-1.0634766,-0.16552734,-0.1303711,1.6479492,6.286621,4.0283203,0.0,0.0,0.0,-145.56335,84.62219,132.21497
1769248701671,-1.253418,0.10498047,0.17333984,9.887695,25.08545,-2.9296875,0.0,0.0,0.0,-145.56335,84.62219,132.21497
1769248701682,-1.253418,0.10498047,0.17333984,9.887695,25.08545,-2.9296875,0.0,0.0,0.0,-154.59412,82.07886,123.134766
1769248701771,-0.7363281,-0.034179688,0.045410156,25.756836,-35.461426,-5.92041,0.0,0.0,0.0,-154.59412,82.07886,123.134766
1769248701782,-0.7363281,-0.034179688,0.045410156,25.756836,-35.461426,-5.92041,0.0,0.0,0.0,-148.0957,83.71582,129.43542
1769248701870,-1.090332,-0.12939453,4.8828125E-4,-12.939453,-5.9814453,3.479004,0.0,0.0,0.0,-148.0957,83.71582,129.43542
1769248701882,-1.090332,-0.12939453,4.8828125E-4,-12.939453,-5.9814453,3.479004,0.0,0.0,0.0,-129.9408,85.88562,147.09595
1769248701970,-0.8833008,-0.107910156,-0.1772461,-22.094727,7.8125,-0.18310547,0.0,0.0,0.0,-129.9408,85.88562,147.09595
1769248701982,-0.8833008,-0.107910156,-0.1772461,-22.094727,7.8125,-0.18310547,0.0,0.0,0.0,-139.823,85.30884,139.84497
1769248702070,-0.93115234,0.0078125,-0.16503906,-0.48828125,-2.319336,0.61035156,0.0,0.0,0.0,-139.823,85.30884,139.84497
1769248702081,-0.93115234,0.0078125,-0.16503906,-0.48828125,-2.319336,0.61035156,0.0,0.0,0.0,-142.18506,85.57251,138.46619
1769248702169,-1.1279297,-0.03515625,-0.234375,11.230469,5.126953,3.6010742,0.0,0.0,0.0,-142.18506,85.57251,138.46619
1769248702181,-1.1279297,-0.03515625,-0.234375,11.230469,5.126953,3.6010742,0.0,0.0,0.0,-148.40332,85.08362,131.11633
1769248702269,-1.2915039,0.12988281,0.14550781,57.006836,10.620117,-4.1503906,0.0,0.0,0.0,-148.40332,85.08362,131.11633
1769248702281,-1.2915039,0.12988281,0.14550781,57.006836,10.620117,-4.1503906,0.0,0.0,0.0,-152.53418,83.221436,124.524536
1769248702369,-0.7944336,-0.12792969,0.15820312,-9.277344,-6.8969727,13.061523,0.0,0.0,0.0,-152.53418,83.221436,124.524536
1769248702380,-0.7944336,-0.12792969,0.15820312,-9.277344,-6.8969727,13.061523,0.0,0.0,0.0,-161.15845,84.869385,114.5105
1769248702471,-1.050293,0.13964844,-0.20214844,-52.612305,-23.742676,23.31543,0.0,0.0,0.0,-161.15845,84.869385,114.5105
1769248702480,-1.050293,0.13964844,-0.20214844,-52.612305,-23.742676,23.31543,0.0,0.0,0.0,-172.46338,87.41272,105.62256
1769248702568,-0.87890625,-0.080566406,0.03564453,3.0517578,-2.0141602,2.2583008,0.0,0.0,0.0,-172.46338,87.41272,105.62256
1769248702580,-0.87890625,-0.080566406,0.03564453,3.0517578,-2.0141602,2.2583008,0.0,0.0,0.0,168.14026,87.72583,85.44617
1769248702668,-0.9404297,-0.15039062,-0.21386719,5.3710938,5.92041,2.746582,0.0,0.0,0.0,168.14026,87.72583,85.44617
1769248702679,-0.9404297,-0.15039062,-0.21386719,5.3710938,5.92041,2.746582,0.0,0.0,0.0,162.11426,87.52258,79.62341
1769248702768,-1.0883789,-0.12792969,-0.2421875,-24.536133,8.117676,3.479004,0.0,0.0,0.0,162.11426,87.52258,79.62341
1769248702779,-1.0883789,-0.12792969,-0.2421875,-24.536133,8.117676,3.479004,0.0,0.0,0.0,169.26636,86.82495,87.456665
1769248702867,-1.1376953,0.08203125,0.1328125,-13.244629,1.7089844,3.6621094,0.0,0.0,0.0,169.26636,86.82495,87.456665
1769248702879,-1.1376953,0.08203125,0.1328125,-13.244629,1.7089844,3.6621094,0.0,0.0,0.0,-178.49487,84.64966,100.475464
1769248702967,-0.86865234,0.2319336,0.12158203,38.391113,-41.137695,-4.272461,0.0,0.0,0.0,-178.49487,84.64966,100.475464
1769248702978,-0.86865234,0.2319336,0.12158203,38.391113,-41.137695,-4.272461,0.0,0.0,0.0,-175.18799,87.80823,102.20032
1769248703067,-0.93115234,-0.059570312,-0.09326172,80.93262,-4.211426,-7.5683594,0.0,0.0,0.0,-175.18799,87.80823,102.20032
1769248703079,-0.93115234,-0.059570312,-0.09326172,80.93262,-4.211426,-7.5683594,0.0,0.0,0.0,94.81201,89.12109,8.195801
1769248703166,-0.9003906,0.028320312,-0.071777344,-8.666992,-17.822266,15.075684,0.0,0.0,0.0,94.81201,89.12109,8.195801
1769248703178,-0.9003906,0.028320312,-0.071777344,-8.666992,-17.822266,15.075684,0.0,0.0,0.0,52.300415,87.857666,-36.40869
1769248703266,-1.0268555,0.08105469,-0.115722656,-1.159668,2.9296875,-4.699707,0.0,0.0,0.0,52.300415,87.857666,-36.40869
1769248703278,-1.0268555,0.08105469,-0.115722656,-1.159668,2.9296875,-4.699707,0.0,0.0,0.0,58.381348,87.69287,-30.2948
1769248703366,-1.1860352,-0.14160156,-0.20898438,-6.958008,27.954102,-20.385742,0.0,0.0,0.0,58.381348,87.69287,-30.2948
1769248703377,-1.1860352,-0.14160156,-0.20898438,-6.958008,27.954102,-20.385742,0.0,0.0,0.0,146.77734,88.758545,57.95288
1769248703466,-0.9707031,0.18408203,0.20703125,7.751465,-26.916504,5.432129,0.0,0.0,0.0,146.77734,88.758545,57.95288
1769248703477,-0.9707031,0.18408203,0.20703125,7.751465,-26.916504,5.432129,0.0,0.0,0.0,-158.28552,88.357544,112.351685
1769248703565,-1.0478516,9.765625E-4,0.20898438,-8.911133,-0.18310547,-6.1035156,0.0,0.0,0.0,-158.28552,88.357544,112.351685
1769248703577,-1.0478516,9.765625E-4,0.20898438,-8.911133,-0.18310547,-6.1035156,0.0,0.0,0.0,137.34558,89.39026,49.432983
1769248703665,-0.90185547,-0.119140625,-0.099609375,-11.291504,4.9438477,7.1411133,0.0,0.0,0.0,137.34558,89.39026,49.432983
1769248703676,-0.90185547,-0.119140625,-0.099609375,-11.291504,4.9438477,7.1411133,0.0,0.0,0.0,112.15393,88.99475,25.801392
1769248703765,-0.88916016,-0.055664062,-0.12402344,-14.709473,0.61035156,-3.112793,0.0,0.0,0.0,112.15393,88.99475,25.801392
1769248703776,-0.88916016,-0.055664062,-0.12402344,-14.709473,0.61035156,-3.112793,0.0,0.0,0.0,164.74548,88.40698,78.53027
1769248703864,-1.0043945,-0.13378906,-0.038085938,-3.1738281,1.2817383,-3.479004,0.0,0.0,0.0,164.74548,88.40698,78.53027
1769248703876,-1.0043945,-0.13378906,-0.038085938,-3.1738281,1.2817383,-3.479004,0.0,0.0,0.0,-167.77222,87.9126,105.9137
1769248703964,-1.3847656,0.076171875,-0.022460938,5.859375,21.240234,-9.765625,0.0,0.0,0.0,-167.77222,87.9126,105.9137
1769248703976,-1.3847656,0.076171875,-0.022460938,5.859375,21.240234,-9.765625,0.0,0.0,0.0,-161.31226,86.0614,113.89526
1769248704064,-0.6928711,0.03515625,0.03125,6.958008,-35.461426,-2.5024414,0.0,0.0,0.0,-161.31226,86.0614,113.89526
1769248704075,-0.6928711,0.03515625,0.03125,6.958008,-35.461426,-2.5024414,0.0,0.0,0.0,-154.9292,87.24243,121.54175
1769248704164,-1.0576172,0.0703125,-0.013183594,19.40918,-5.493164,4.0283203,0.0,0.0,0.0,-154.9292,87.24243,121.54175
1769248704175,-1.0576172,0.0703125,-0.013183594,19.40918,-5.493164,4.0283203,0.0,0.0,0.0,-106.37512,88.69263,169.10706
1769248704263,-0.8232422,-0.026367188,0.034179688,10.437012,-10.314941,4.0893555,0.0,0.0,0.0,-106.37512,88.69263,169.10706
1769248704275,-0.8232422,-0.026367188,0.034179688,10.437012,-10.314941,4.0893555,0.0,0.0,0.0,-81.68335,89.17053,-168.8324
1769248704363,-0.9970703,9.765625E-4,-0.11035156,-1.953125,-5.92041,0.8544922,0.0,0.0,0.0,-81.68335,89.17053,-168.8324
1769248704375,-0.9970703,9.765625E-4,-0.11035156,-1.953125,-5.92041,0.8544922,0.0,0.0,0.0,1.2524414,88.50586,-86.00098
1769248704463,-1.0961914,-0.020996094,-0.08203125,3.479004,11.84082,-13.244629,0.0,0.0,0.0,1.2524414,88.50586,-86.00098
1769248704475,-1.0961914,-0.020996094,-0.08203125,3.479004,11.84082,-13.244629,0.0,0.0,0.0,-49.240723,88.86841,-136.69739
1769248704562,-1.3193359,0.032226562,-0.016601562,11.84082,20.446777,-18.676758,0.0,0.0,0.0,-49.240723,88.86841,-136.69739
1769248704574,-1.3193359,0.032226562,-0.016601562,11.84082,20.446777,-18.676758,0.0,0.0,0.0,-114.8291,87.37976,158.28003
1769248704662,-0.70751953,-0.04638672,0.15332031,15.930176,-13.73291,14.343262,0.0,0.0,0.0,-114.8291,87.37976,158.28003
1769248704674,-0.70751953,-0.04638672,0.15332031,15.930176,-13.73291,14.343262,0.0,0.0,0.0,-104.80957,87.93457,166.32751
1769248704762,-1.074707,0.1977539,-0.020507812,-17.578125,-4.0893555,-2.1362305,0.0,0.0,0.0,-104.80957,87.93457,166.32751
1769248704773,-1.074707,0.1977539,-0.020507812,-17.578125,-4.0893555,-2.1362305,0.0,0.0,0.0,-84.781494,88.40149,-173.03467
1769248704862,-0.87890625,-0.17773438,0.022949219,19.714355,7.9956055,-1.159668,0.0,0.0,0.0,-84.781494,88.40149,-173.03467
1769248704873,-0.87890625,-0.17773438,0.022949219,19.714355,7.9956055,-1.159668,0.0,0.0,0.0,-132.53357,88.92883,140.31738
1769248704961,-0.9194336,-0.09033203,-0.1928711,0.0,7.6293945,-1.0375977,0.0,0.0,0.0,-132.53357,88.92883,140.31738
1769248704973,-0.9194336,-0.09033203,-0.1928711,0.0,7.6293945,-1.0375977,0.0,0.0,0.0,-134.47266,88.56079,138.66943
1769248705061,-1.0268555,-0.16601562,-0.076171875,-2.5024414,9.094238,1.159668,0.0,0.0,0.0,-134.47266,88.56079,138.66943
1769248705072,-1.0268555,-0.16601562,-0.076171875,-2.5024414,9.094238,1.159668,0.0,0.0,0.0,-147.1289,87.319336,125.36499
1769248705161,-1.315918,0.08642578,0.19140625,3.540039,22.338867,-9.094238,0.0,0.0,0.0,-147.1289,87.319336,125.36499
1769248705172,-1.315918,0.08642578,0.19140625,3.540039,22.338867,-9.094238,0.0,0.0,0.0,-157.03857,84.506836,115.83435
1769248705260,-0.6738281,9.765625E-4,0.04345703,13.122559,-31.982422,-11.535645,0.0,0.0,0.0,-157.03857,84.506836,115.83435
1769248705272,-0.6738281,9.765625E-4,0.04345703,13.122559,-31.982422,-11.535645,0.0,0.0,0.0,-148.13965,84.58374,125.304565
1769248705360,-1.1274414,-0.040039062,0.0043945312,-1.2207031,1.7089844,4.699707,0.0,0.0,0.0,-148.13965,84.58374,125.304565
1769248705372,-1.1274414,-0.040039062,0.0043945312,-1.2207031,1.7089844,4.699707,0.0,0.0,0.0,-121.37146,86.20972,151.1499
1769248705460,-0.8798828,-0.041503906,-0.1743164,-37.597656,-1.2817383,1.8310547,0.0,0.0,0.0,-121.37146,86.20972,151.1499
1769248705471,-0.8798828,-0.041503906,-0.1743164,-37.597656,-1.2817383,1.8310547,0.0,0.0,0.0,-129.32556,86.34155,145.64575
1769248705560,-0.92285156,0.026855469,-0.1928711,-4.1503906,4.760742,-3.3569336,0.0,0.0,0.0,-129.32556,86.34155,145.64575
1769248705571,-0.92285156,0.026855469,-0.1928711,-4.1503906,4.760742,-3.3569336,0.0,0.0,0.0,-133.8794,86.25366,143.06946
1769248705659,-1.050293,0.036621094,-0.16748047,7.2021484,12.268066,-6.5307617,0.0,0.0,0.0,-133.8794,86.25366,143.06946
1769248705671,-1.050293,0.036621094,-0.16748047,7.2021484,12.268066,-6.5307617,0.0,0.0,0.0,-140.69092,85.045166,136.13708
1769248705759,-1.3466797,-0.09082031,-0.28466797,4.0893555,24.414062,-14.282227,0.0,0.0,0.0,-140.69092,85.045166,136.13708
1769248705771,-1.3466797,-0.09082031,-0.28466797,4.0893555,24.414062,-14.282227,0.0,0.0,0.0,-146.84875,83.0072,129.81445
1769248705859,-0.8491211,-0.09082031,0.118652344,23.864746,-11.047363,5.3100586,0.0,0.0,0.0,-146.84875,83.0072,129.81445
1769248705870,-0.8491211,-0.09082031,0.118652344,23.864746,-11.047363,5.3100586,0.0,0.0,0.0,-143.17383,83.11157,130.7373
1769248705958,-1.0957031,0.09375,-0.04345703,-26.916504,-7.6293945,0.7324219,0.0,0.0,0.0,-143.17383,83.11157,130.7373
1769248705970,-1.0957031,0.09375,-0.04345703,-26.916504,-7.6293945,0.7324219,0.0,0.0,0.0,-135.04395,84.74304,140.5426
1769248706058,-0.8769531,-0.21728516,-0.03515625,-1.4648438,7.019043,9.58252,0.0,0.0,0.0,-135.04395,84.74304,140.5426
1769248706070,-0.8769531,-0.21728516,-0.03515625,-1.4648438,7.019043,9.58252,0.0,0.0,0.0,-149.9414,84.869385,126.55151
1769248706158,-0.9121094,-0.08691406,-0.2211914,-9.58252,-1.8310547,-0.4272461,0.0,0.0,0.0,-149.9414,84.869385,126.55151
1769248706169,-0.9121094,-0.08691406,-0.2211914,-9.58252,-1.8310547,-0.4272461,0.0,0.0,0.0,-148.9801,84.63318,128.39722
1769248706258,-0.9746094,-0.14013672,-0.119628906,-2.4414062,-0.6713867,-1.8920898,0.0,0.0,0.0,-148.9801,84.63318,128.39722
1769248706269,-0.9746094,-0.14013672,-0.119628906,-2.4414062,-0.6713867,-1.8920898,0.0,0.0,0.0,-147.44202,84.00696,129.73206
1769248706357,-1.359375,-0.21533203,-0.4248047,-20.263672,22.338867,-5.004883,0.0,0.0,0.0,-147.44202,84.00696,129.73206
1769248706369,-1.359375,-0.21533203,-0.4248047,-20.263672,22.338867,-5.004883,0.0,0.0,0.0,-150.53467,83.32031,127.941284
1769248706457,-0.8745117,-0.088378906,0.053710938,-3.1738281,-17.456055,-5.065918,0.0,0.0,0.0,-150.53467,83.32031,127.941284
1769248706469,-0.8745117,-0.088378906,0.053710938,-3.1738281,-17.456055,-5.065918,0.0,0.0,0.0,-147.32117,82.69409,131.47888
1769248706557,-1.0239258,0.1850586,-0.025390625,0.0,-22.949219,1.4648438,0.0,0.0,0.0,-147.32117,82.69409,131.47888
1769248706568,-1.0239258,0.1850586,-0.025390625,0.0,-22.949219,1.4648438,0.0,0.0,0.0,-114.9939,85.061646,162.82837
1769248706656,-0.84033203,-0.10058594,-0.03955078,-11.779785,-16.723633,-0.6713867,0.0,0.0,0.0,-114.9939,85.061646,162.82837
1769248706668,-0.84033203,-0.10058594,-0.03955078,-11.779785,-16.723633,-0.6713867,0.0,0.0,0.0,-98.43201,85.753784,179.65942
1769248706756,-0.94628906,-0.023925781,-0.14794922,-0.9765625,-3.3569336,-4.9438477,0.0,0.0,0.0,-98.43201,85.753784,179.65942
1769248706768,-0.94628906,-0.023925781,-0.14794922,-0.9765625,-3.3569336,-4.9438477,0.0,0.0,0.0,-82.22717,85.59448,-163.41064
1769248706856,-1.0166016,-0.079589844,-0.11376953,6.164551,14.587402,-3.2958984,0.0,0.0,0.0,-82.22717,85.59448,-163.41064
1769248706867,-1.0166016,-0.079589844,-0.11376953,6.164551,14.587402,-3.2958984,0.0,0.0,0.0,-95.493164,85.094604,-177.594
1769248706955,-1.3237305,-0.14355469,-0.2607422,-17.39502,24.963379,-10.437012,0.0,0.0,0.0,-95.493164,85.094604,-177.594
1769248706967,-1.3237305,-0.14355469,-0.2607422,-17.39502,24.963379,-10.437012,0.0,0.0,0.0,-114.279785,83.93005,163.78967
1769248707055,-0.87939453,-0.087402344,0.18652344,17.089844,-0.4272461,11.84082,0.0,0.0,0.0,-114.279785,83.93005,163.78967
1769248707067,-0.87939453,-0.087402344,0.18652344,17.089844,-0.4272461,11.84082,0.0,0.0,0.0,-126.31531,83.07861,150.0238
1769248707155,-1.012207,0.0546875,0.17919922,-11.047363,-25.20752,-4.8217773,0.0,0.0,0.0,-126.31531,83.07861,150.0238
1769248707166,-1.012207,0.0546875,0.17919922,-11.047363,-25.20752,-4.8217773,0.0,0.0,0.0,-117.31201,84.35303,160.26855
1769248707255,-0.85009766,-0.14160156,-0.19482422,26.000977,9.216309,9.155273,0.0,0.0,0.0,-117.31201,84.35303,160.26855
1769248707266,-0.85009766,-0.14160156,-0.19482422,26.000977,9.216309,9.155273,0.0,0.0,0.0,-125.10681,85.374756,154.51172
1769248707354,-0.88964844,-0.025878906,-0.171875,-5.3710938,-6.5307617,1.4038086,0.0,0.0,0.0,-125.10681,85.374756,154.51172
1769248707366,-0.88964844,-0.025878906,-0.171875,-5.3710938,-6.5307617,1.4038086,0.0,0.0,0.0,-123.9093,85.29785,154.82483
1769248707454,-0.9638672,-0.15820312,-0.045410156,15.625,0.6713867,-0.061035156,0.0,0.0,0.0,-123.9093,85.29785,154.82483
1769248707465,-0.9638672,-0.15820312,-0.045410156,15.625,0.6713867,-0.061035156,0.0,0.0,0.0,-128.66638,84.90784,148.93616
1769248707554,-1.4438477,-0.18945312,-0.38720703,-8.056641,31.738281,-2.6245117,0.0,0.0,0.0,-128.66638,84.90784,148.93616
1769248707566,-1.4438477,-0.18945312,-0.38720703,-8.056641,31.738281,-2.6245117,0.0,0.0,0.0,-138.88916,83.93005,139.16382
1769248707653,-0.78808594,-0.08203125,0.0126953125,-5.6152344,-24.108887,-3.7841797,0.0,0.0,0.0,-138.88916,83.93005,139.16382
1769248707665,-0.78808594,-0.08203125,0.0126953125,-5.6152344,-24.108887,-3.7841797,0.0,0.0,0.0,-143.02551,83.38074,135.74707
1769248707753,-1.105957,0.123535156,-0.03125,17.944336,-12.023926,1.5869141,0.0,0.0,0.0,-143.02551,83.38074,135.74707
1769248707765,-1.105957,0.123535156,-0.03125,17.944336,-12.023926,1.5869141,0.0,0.0,0.0,-113.76892,84.79248,163.1195
1769248707853,-0.8564453,-0.09423828,-0.016113281,-9.58252,-12.6953125,6.225586,0.0,0.0,0.0,-113.76892,84.79248,163.1195
1769248707864,-0.8564453,-0.09423828,-0.016113281,-9.58252,-12.6953125,6.225586,0.0,0.0,0.0,-108.550415,85.67688,167.79968
1769248707953,-0.8574219,0.013183594,-0.10546875,-0.4272461,-12.878418,3.3569336,0.0,0.0,0.0,-108.550415,85.67688,167.79968
1769248707964,-0.8574219,0.013183594,-0.10546875,-0.4272461,-12.878418,3.3569336,0.0,0.0,0.0,-89.63196,86.412964,-172.6886
1769248708052,-1.1040039,0.027832031,-0.16552734,4.9438477,11.962891,5.79834,0.0,0.0,0.0,-89.63196,86.412964,-172.6886
1769248708064,-1.1040039,0.027832031,-0.16552734,4.9438477,11.962891,5.79834,0.0,0.0,0.0,-94.88342,86.9458,-177.52808
1769248708152,-1.3105469,-0.18457031,-0.20214844,-2.2583008,26.855469,-15.258789,0.0,0.0,0.0,-94.88342,86.9458,-177.52808
1769248708163,-1.3105469,-0.18457031,-0.20214844,-2.2583008,26.855469,-15.258789,0.0,0.0,0.0,-131.84143,85.79224,145.10193
1769248708252,-0.86621094,0.001953125,0.14013672,23.864746,-6.4086914,11.108398,0.0,0.0,0.0,-131.84143,85.79224,145.10193
1769248708263,-0.86621094,0.001953125,0.14013672,23.864746,-6.4086914,11.108398,0.0,0.0,0.0,-135.31311,85.12207,139.85596
1769248708351,-1.0415039,0.0703125,0.06982422,-28.259277,-13.305664,-1.5869141,0.0,0.0,0.0,-135.31311,85.12207,139.85596
1769248708363,-1.0415039,0.0703125,0.06982422,-28.259277,-13.305664,-1.5869141,0.0,0.0,0.0,-131.1438,86.467896,144.90417
1769248708451,-0.85498047,-0.067871094,-0.07910156,23.010254,-1.7089844,11.291504,0.0,0.0,0.0,-131.1438,86.467896,144.90417
1769248708463,-0.85498047,-0.067871094,-0.07910156,23.010254,-1.7089844,11.291504,0.0,0.0,0.0,-143.1189,87.31384,133.97278
1769248708551,-0.91064453,-0.076171875,-0.21484375,-11.535645,3.6621094,7.3242188,0.0,0.0,0.0,-143.1189,87.31384,133.97278
1769248708562,-0.91064453,-0.076171875,-0.21484375,-11.535645,3.6621094,7.3242188,0.0,0.0,0.0,-158.29102,87.37427,118.76221
1769248708651,-1.0029297,-0.1586914,-0.010253906,0.24414062,5.92041,-0.79345703,0.0,0.0,0.0,-158.29102,87.37427,118.76221
1769248708662,-1.0029297,-0.1586914,-0.010253906,0.24414062,5.92041,-0.79345703,0.0,0.0,0.0,-160.85083,86.412964,115.30151
1769248708750,-1.4121094,-0.014160156,-0.12988281,9.765625,33.325195,-12.390137,0.0,0.0,0.0,-160.85083,86.412964,115.30151
1769248708762,-1.4121094,-0.014160156,-0.12988281,9.765625,33.325195,-12.390137,0.0,0.0,0.0,-159.84558,84.90784,117.36145
1769248708850,-0.71533203,0.038085938,0.03173828,10.375977,-26.916504,-3.1738281,0.0,0.0,0.0,-159.84558,84.90784,117.36145
1769248708861,-0.71533203,0.038085938,0.03173828,10.375977,-26.916504,-3.1738281,0.0,0.0,0.0,-158.99414,84.27612,118.91052
1769248708950,-1.0605469,-0.0043945312,-0.1303711,4.3945312,1.0986328,0.6713867,0.0,0.0,0.0,-158.99414,84.27612,118.91052
1769248708961,-1.0605469,-0.0043945312,-0.1303711,4.3945312,1.0986328,0.6713867,0.0,0.0,0.0,-140.76233,86.47339,136.37878
1769248709049,-0.81640625,-0.099609375,-0.033203125,-0.4272461,-15.258789,-0.9765625,0.0,0.0,0.0,-140.76233,86.47339,136.37878
1769248709061,-0.81640625,-0.099609375,-0.033203125,-0.4272461,-15.258789,-0.9765625,0.0,0.0,0.0,-136.19202,86.43494,139.37805
1769248709149,-0.98095703,0.025878906,-0.20507812,-12.390137,2.6245117,-0.5493164,0.0,0.0,0.0,-136.19202,86.43494,139.37805
1769248709160,-0.98095703,0.025878906,-0.20507812,-12.390137,2.6245117,-0.5493164,0.0,0.0,0.0,-127.95227,87.022705,148.84277
1769248709249,-1.0947266,-0.052734375,-0.14501953,-1.7700195,8.178711,-0.5493164,0.0,0.0,0.0,-127.95227,87.022705,148.84277
1769248709260,-1.0947266,-0.052734375,-0.14501953,-1.7700195,8.178711,-0.5493164,0.0,0.0,0.0,-140.60303,86.20972,136.37878
1769248709348,-1.3637695,0.025390625,-0.0087890625,13.671875,24.108887,-19.226074,0.0,0.0,0.0,-140.60303,86.20972,136.37878
1769248709360,-1.3637695,0.025390625,-0.0087890625,13.671875,24.108887,-19.226074,0.0,0.0,0.0,-141.58081,84.64966,135.99976
1769248709448,-0.7524414,-0.07519531,0.19921875,1.5258789,-18.859863,20.080566,0.0,0.0,0.0,-141.58081,84.64966,135.99976
1769248709460,-0.7524414,-0.07519531,0.19921875,1.5258789,-18.859863,20.080566,0.0,0.0,0.0,-141.15784,85.25391,134.47266
1769248709548,-1.0800781,0.11669922,-0.1743164,-0.91552734,10.009766,1.5258789,0.0,0.0,0.0,-141.15784,85.25391,134.47266
1769248709559,-1.0800781,0.11669922,-0.1743164,-0.91552734,10.009766,1.5258789,0.0,0.0,0.0,-134.8407,86.75354,141.87744
1769248709648,-0.8828125,-0.19042969,-0.014160156,10.864258,3.90625,0.79345703,0.0,0.0,0.0,-134.8407,86.75354,141.87744
1769248709660,-0.8828125,-0.19042969,-0.014160156,10.864258,3.90625,0.79345703,0.0,0.0,0.0,-153.19885,86.80847,122.909546
1769248709747,-0.8935547,-0.14501953,-0.23339844,9.460449,5.004883,-2.0751953,0.0,0.0,0.0,-153.19885,86.80847,122.909546
1769248709759,-0.8935547,-0.14501953,-0.23339844,9.460449,5.004883,-2.0751953,0.0,0.0,0.0,-142.02576,86.92383,133.12134
1769248709847,-0.99609375,-0.16210938,-0.0107421875,1.2207031,4.638672,-3.7231445,0.0,0.0,0.0,-142.02576,86.92383,133.12134
1769248709859,-0.99609375,-0.16210938,-0.0107421875,1.2207031,4.638672,-3.7231445,0.0,0.0,0.0,-140.24048,85.76477,133.50586
1769248709947,-1.3706055,0.059570312,0.080078125,19.104004,26.672363,-15.50293,0.0,0.0,0.0,-140.24048,85.76477,133.50586
1769248709958,-1.3706055,0.059570312,0.080078125,19.104004,26.672363,-15.50293,0.0,0.0,0.0,-143.94287,83.19946,130.16052
1769248710046,-0.7216797,0.028808594,-0.022949219,11.84082,-25.939941,-2.6855469,0.0,0.0,0.0,-143.94287,83.19946,130.16052
1769248710058,-0.7216797,0.028808594,-0.022949219,11.84082,-25.939941,-2.6855469,0.0,0.0,0.0,-138.43323,83.94653,136.66443
1769248710146,-1.0751953,-0.048339844,-0.08984375,23.254395,2.4414062,-0.30517578,0.0,0.0,0.0,-138.43323,83.94653,136.66443
1769248710158,-1.0751953,-0.048339844,-0.08984375,23.254395,2.4414062,-0.30517578,0.0,0.0,0.0,-127.8479,85.05066,145.74463
1769248710246,-0.8520508,-0.059570312,-0.09277344,-10.864258,-7.873535,-0.061035156,0.0,0.0,0.0,-127.8479,85.05066,145.74463
1769248710257,-0.8520508,-0.059570312,-0.09277344,-10.864258,-7.873535,-0.061035156,0.0,0.0,0.0,-125.233154,85.65491,148.69446
1769248710346,-0.9550781,4.8828125E-4,-0.171875,-12.6953125,0.24414062,0.5493164,0.0,0.0,0.0,-125.233154,85.65491,148.69446
1769248710357,-0.9550781,4.8828125E-4,-0.171875,-12.6953125,0.24414062,0.5493164,0.0,0.0,0.0,-126.260376,85.86914,148.94165
1769248710446,-1.0708008,-0.036621094,-0.16455078,5.065918,6.286621,0.48828125,0.0,0.0,0.0,-126.260376,85.86914,148.94165
1769248710457,-1.0708008,-0.036621094,-0.16455078,5.065918,6.286621,0.48828125,0.0,0.0,0.0,-134.56604,85.41321,140.73486
1769248710545,-1.3676758,-0.0146484375,-0.092285156,12.512207,13.48877,-14.282227,0.0,0.0,0.0,-134.56604,85.41321,140.73486
1769248710557,-1.3676758,-0.0146484375,-0.092285156,12.512207,13.48877,-14.282227,0.0,0.0,0.0,-137.80151,83.88611,137.8125
1769248710645,-0.7753906,-0.05126953,0.17041016,23.07129,-8.056641,18.310547,0.0,0.0,0.0,-137.80151,83.88611,137.8125
1769248710656,-0.7753906,-0.05126953,0.17041016,23.07129,-8.056641,18.310547,0.0,0.0,0.0,-145.2063,84.54529,127.70508
1769248710744,-1.0600586,0.095214844,-0.009277344,-21.66748,-10.7421875,2.0751953,0.0,0.0,0.0,-145.2063,84.54529,127.70508
1769248710756,-1.0600586,0.095214844,-0.009277344,-21.66748,-10.7421875,2.0751953,0.0,0.0,0.0,-141.828,86.380005,132.63245
1769248710844,-0.8925781,-0.119140625,-0.05908203,12.573242,0.0,7.9345703,0.0,0.0,0.0,-141.828,86.380005,132.63245
1769248710856,-0.8925781,-0.119140625,-0.05908203,12.573242,0.0,7.9345703,0.0,0.0,0.0,-155.63782,86.467896,118.67432
1769248710944,-0.890625,-0.064453125,-0.19335938,-8.7890625,-5.3710938,7.2021484,0.0,0.0,0.0,-155.63782,86.467896,118.67432
1769248710955,-0.890625,-0.064453125,-0.19335938,-8.7890625,-5.3710938,7.2021484,0.0,0.0,0.0,-159.53247,87.11609,115.26306
1769248711044,-1.0268555,-0.16894531,-0.05126953,-4.760742,4.1503906,0.9765625,0.0,0.0,0.0,-159.53247,87.11609,115.26306
1769248711055,-1.0268555,-0.16894531,-0.05126953,-4.760742,4.1503906,0.9765625,0.0,0.0,0.0,-163.97644,86.259155,110.55542
1769248711143,-1.3740234,0.044433594,-0.096191406,-5.004883,32.65381,-21.54541,0.0,0.0,0.0,-163.97644,86.259155,110.55542
1769248711155,-1.3740234,0.044433594,-0.096191406,-5.004883,32.65381,-21.54541,0.0,0.0,0.0,-160.08728,84.418945,116.416626
1769248711243,-0.7348633,0.036132812,0.030273438,1.4648438,-28.686523,-2.9907227,0.0,0.0,0.0,-160.08728,84.418945,116.416626
1769248711255,-0.7348633,0.036132812,0.030273438,1.4648438,-28.686523,-2.9907227,0.0,0.0,0.0,-154.693,84.87488,123.27759
1769248711343,-1.0605469,0.020996094,-0.059570312,13.366699,-11.901855,2.1362305,0.0,0.0,0.0,-154.693,84.87488,123.27759
1769248711354,-1.0605469,0.020996094,-0.059570312,13.366699,-11.901855,2.1362305,0.0,0.0,0.0,-130.80872,86.934814,146.20605
1769248711442,-0.82910156,0.0078125,-0.05419922,2.9296875,-9.94873,-0.36621094,0.0,0.0,0.0,-130.80872,86.934814,146.20605
1769248711454,-0.82910156,0.0078125,-0.05419922,2.9296875,-9.94873,-0.36621094,0.0,0.0,0.0,-118.07007,87.40173,157.87354
1769248711542,-0.94433594,-0.009765625,-0.06689453,1.2817383,-4.333496,-3.7231445,0.0,0.0,0.0,-118.07007,87.40173,157.87354
1769248711554,-0.94433594,-0.009765625,-0.06689453,1.2817383,-4.333496,-3.7231445,0.0,0.0,0.0,-101.15112,87.62695,174.64417
1769248711642,-1.0878906,-0.041503906,-0.1928711,15.319824,14.282227,-4.638672,0.0,0.0,0.0,-101.15112,87.62695,174.64417
1769248711654,-1.0878906,-0.041503906,-0.1928711,15.319824,14.282227,-4.638672,0.0,0.0,0.0,-108.99536,87.20398,166.22314
1769248711741,-1.3642578,-0.0625,-0.12207031,6.7749023,23.55957,-22.277832,0.0,0.0,0.0,-108.99536,87.20398,166.22314
1769248711753,-1.3642578,-0.0625,-0.12207031,6.7749023,23.55957,-22.277832,0.0,0.0,0.0,-126.798706,85.19348,148.07373
1769248711841,-0.74658203,-0.068359375,0.17529297,30.273438,-7.2021484,8.911133,0.0,0.0,0.0,-126.798706,85.19348,148.07373
1769248711853,-0.74658203,-0.068359375,0.17529297,30.273438,-7.2021484,8.911133,0.0,0.0,0.0,-125.87036,85.045166,146.54663
1769248711941,-1.0947266,0.16894531,0.026367188,-21.1792,-17.63916,-2.0141602,0.0,0.0,0.0,-125.87036,85.045166,146.54663
1769248711952,-1.0947266,0.16894531,0.026367188,-21.1792,-17.63916,-2.0141602,0.0,0.0,0.0,-112.76367,86.02295,161.04858
1769248712041,-0.86279297,-0.123535156,-0.08984375,36.254883,5.493164,2.746582,0.0,0.0,0.0,-112.76367,86.02295,161.04858
1769248712052,-0.86279297,-0.123535156,-0.08984375,36.254883,5.493164,2.746582,0.0,0.0,0.0,-124.99695,86.91284,149.88647
1769248712140,-0.9189453,-0.087890625,-0.21679688,-7.507324,2.1972656,4.9438477,0.0,0.0,0.0,-124.99695,86.91284,149.88647
1769248712152,-0.9189453,-0.087890625,-0.21679688,-7.507324,2.1972656,4.9438477,0.0,0.0,0.0,-129.55078,87.022705,145.448
1769248712240,-0.9941406,-0.15771484,-0.032714844,-0.8544922,1.7700195,0.24414062,0.0,0.0,0.0,-129.55078,87.022705,145.448
1769248712252,-0.9941406,-0.15771484,-0.032714844,-0.8544922,1.7700195,0.24414062,0.0,0.0,0.0,-135.08789,86.35803,138.88367
1769248712340,-1.4013672,-0.099121094,-0.2319336,5.004883,38.146973,-10.559082,0.0,0.0,0.0,-135.08789,86.35803,138.88367
1769248712351,-1.4013672,-0.099121094,-0.2319336,5.004883,38.146973,-10.559082,0.0,0.0,0.0,-146.68945,84.92981,128.30933
1769248712440,-0.7753906,-0.083496094,0.06640625,-3.7841797,-26.916504,-0.79345703,0.0,0.0,0.0,-146.68945,84.92981,128.30933
1769248712451,-0.7753906,-0.083496094,0.06640625,-3.7841797,-26.916504,-0.79345703,0.0,0.0,0.0,-148.16162,84.47937,127.51282
1769248712539,-1.0317383,0.08203125,-0.0126953125,7.1411133,-16.052246,0.24414062,0.0,0.0,0.0,-148.16162,84.47937,127.51282
1769248712551,-1.0317383,0.08203125,-0.0126953125,7.1411133,-16.052246,0.24414062,0.0,0.0,0.0,-112.08252,86.171265,162.97668
1769248712639,-0.8540039,-0.01171875,-0.06689453,-4.5776367,-15.014648,1.0986328,0.0,0.0,0.0,-112.08252,86.171265,162.97668
1769248712650,-0.8540039,-0.01171875,-0.06689453,-4.5776367,-15.014648,1.0986328,0.0,0.0,0.0,-83.29285,86.63818,-168.63464
1769248712739,-0.9238281,-0.022460938,-0.1508789,2.1972656,0.061035156,4.1503906,0.0,0.0,0.0,-83.29285,86.63818,-168.63464
1769248712750,-0.9238281,-0.022460938,-0.1508789,2.1972656,0.061035156,4.1503906,0.0,0.0,0.0,-68.28552,87.039185,-153.52844
1769248712838,-1.0195312,-0.0234375,-0.09667969,12.573242,10.314941,-2.0141602,0.0,0.0,0.0,-68.28552,87.039185,-153.52844
