timestamp,accX,accY,accZ,gyroX,gyroY,gyroZ,magX,magY,magZ,roll,pitch,yaw
1766901702753,-1.0800781,0.18652344,-0.4140625,-46.50879,-84.16748,1.4038086,0.0,0.0,0.0,154.13269,69.85657,158.56567
1766901702764,-1.0800781,0.18652344,-0.4140625,-46.50879,-84.16748,1.4038086,0.0,0.0,0.0,139.96033,75.563965,147.3761
1766901702853,-0.74609375,-0.27392578,-0.33984375,26.184082,-9.643555,-33.081055,0.0,0.0,0.0,139.96033,75.563965,147.3761
1766901702864,-0.74609375,-0.27392578,-0.33984375,26.184082,-9.643555,-33.081055,0.0,0.0,0.0,131.31409,78.49182,136.86768
1766901702953,-1.0268555,0.2109375,-0.36816406,14.404297,91.24756,17.150879,0.0,0.0,0.0,131.31409,78.49182,136.86768
1766901702964,-1.0268555,0.2109375,-0.36816406,14.404297,91.24756,17.150879,0.0,0.0,0.0,150.79285,75.93201,151.8695
1766901703052,-1.0078125,0.21972656,0.34375,-43.884277,77.27051,-22.460938,0.0,0.0,0.0,150.79285,75.93201,151.8695
1766901703064,-1.0078125,0.21972656,0.34375,-43.884277,77.27051,-22.460938,0.0,0.0,0.0,158.8678,65.198364,160.66406
1766901703152,-1.0522461,0.07373047,-0.3359375,-21.728516,-48.706055,-20.324707,0.0,0.0,0.0,158.8678,65.198364,160.66406
1766901703163,-1.0522461,0.07373047,-0.3359375,-21.728516,-48.706055,-20.324707,0.0,0.0,0.0,160.37842,69.00513,163.54248
1766901703251,-1.0615234,0.030273438,-0.34716797,-12.6953125,4.638672,-9.033203,0.0,0.0,0.0,160.37842,69.00513,163.54248
1766901703263,-1.0615234,0.030273438,-0.34716797,-12.6953125,4.638672,-9.033203,0.0,0.0,0.0,160.19714,71.570435,162.85583
1766901703351,-1.2480469,0.0859375,-0.0625,38.33008,-105.22461,9.216309,0.0,0.0,0.0,160.19714,71.570435,162.85583
1766901703363,-1.2480469,0.0859375,-0.0625,38.33008,-105.22461,9.216309,0.0,0.0,0.0,160.05432,73.498535,160.49377
1766901703451,-0.6191406,0.23828125,-0.25830078,15.625,-56.45752,32.409668,0.0,0.0,0.0,160.05432,73.498535,160.49377
1766901703462,-0.6191406,0.23828125,-0.25830078,15.625,-56.45752,32.409668,0.0,0.0,0.0,134.41772,79.13452,126.430664
1766901703551,-0.9296875,0.14013672,-0.53271484,32.958984,-15.991211,7.5683594,0.0,0.0,0.0,134.41772,79.13452,126.430664
1766901703562,-0.9296875,0.14013672,-0.53271484,32.958984,-15.991211,7.5683594,0.0,0.0,0.0,111.763916,79.80469,100.09094
1766901703650,-0.9736328,0.005859375,-0.2709961,-46.38672,181.09131,-45.59326,0.0,0.0,0.0,111.763916,79.80469,100.09094
1766901703662,-0.9736328,0.005859375,-0.2709961,-46.38672,181.09131,-45.59326,0.0,0.0,0.0,151.86401,75.50354,136.78528
1766901703750,-1.0043945,0.22021484,-0.0048828125,81.35986,-45.288086,29.052734,0.0,0.0,0.0,151.86401,75.50354,136.78528
1766901703762,-1.0043945,0.22021484,-0.0048828125,81.35986,-45.288086,29.052734,0.0,0.0,0.0,164.39941,67.99988,147.42004
1766901703850,-0.9863281,0.12988281,-0.34423828,47.180176,-64.208984,35.64453,0.0,0.0,0.0,164.39941,67.99988,147.42004
1766901703861,-0.9863281,0.12988281,-0.34423828,47.180176,-64.208984,35.64453,0.0,0.0,0.0,149.74365,73.13599,122.211914
1766901703950,-1.0483398,0.3408203,-0.31201172,-19.348145,29.418945,10.7421875,0.0,0.0,0.0,149.74365,73.13599,122.211914
1766901703961,-1.0483398,0.3408203,-0.31201172,-19.348145,29.418945,10.7421875,0.0,0.0,0.0,141.41602,73.43811,106.534424
1766901704049,-1.0927734,0.06347656,-0.009765625,-28.137207,-71.10596,-31.982422,0.0,0.0,0.0,141.41602,73.43811,106.534424
1766901704061,-1.0927734,0.06347656,-0.009765625,-28.137207,-71.10596,-31.982422,0.0,0.0,0.0,141.31714,73.15796,108.220825
1766901704149,-0.6928711,-0.14111328,-0.2734375,44.189453,-54.6875,-0.5493164,0.0,0.0,0.0,141.31714,73.15796,108.220825
1766901704160,-0.6928711,-0.14111328,-0.2734375,44.189453,-54.6875,-0.5493164,0.0,0.0,0.0,125.31006,79.65637,86.37451
1766901704249,-1.034668,0.16552734,-0.4453125,20.935059,77.20947,7.019043,0.0,0.0,0.0,125.31006,79.65637,86.37451
1766901704261,-1.034668,0.16552734,-0.4453125,20.935059,77.20947,7.019043,0.0,0.0,0.0,124.16199,79.13452,76.118774
1766901704348,-1.2202148,0.21484375,0.7709961,-104.67529,28.442383,-14.953613,0.0,0.0,0.0,124.16199,79.13452,76.118774
1766901704360,-1.2202148,0.21484375,0.7709961,-104.67529,28.442383,-14.953613,0.0,0.0,0.0,150.96863,69.00513,103.30994
1766901704448,-0.9135742,-0.0053710938,-0.2788086,-21.66748,-16.174316,-10.375977,0.0,0.0,0.0,150.96863,69.00513,103.30994
1766901704459,-0.9135742,-0.0053710938,-0.2788086,-21.66748,-16.174316,-10.375977,0.0,0.0,0.0,154.38538,72.20764,104.089966
1766901704548,-1.1137695,0.16113281,-0.2939453,-38.146973,24.169922,-0.6713867,0.0,0.0,0.0,154.38538,72.20764,104.089966
1766901704560,-1.1137695,0.16113281,-0.2939453,-38.146973,24.169922,-0.6713867,0.0,0.0,0.0,153.99536,72.421875,100.71167
1766901704649,-1.3745117,0.0087890625,0.122558594,-15.991211,-60.36377,-12.329102,0.0,0.0,0.0,153.99536,72.421875,100.71167
1766901704659,-1.3745117,0.0087890625,0.122558594,-15.991211,-60.36377,-12.329102,0.0,0.0,0.0,155.58289,71.54297,101.50818
1766901704748,-0.7368164,0.1484375,-0.28027344,38.94043,-91.552734,37.475586,0.0,0.0,0.0,155.58289,71.54297,101.50818
1766901704759,-0.7368164,0.1484375,-0.28027344,38.94043,-91.552734,37.475586,0.0,0.0,0.0,136.01074,78.42041,72.97119
1766901704847,-0.8935547,0.34277344,-0.6069336,5.7373047,-30.822754,13.244629,0.0,0.0,0.0,136.01074,78.42041,72.97119
1766901704859,-0.8935547,0.34277344,-0.6069336,5.7373047,-30.822754,13.244629,0.0,0.0,0.0,97.17407,79.17297,27.734985
1766901704947,-0.9746094,-0.115722656,-0.30810547,-71.3501,190.06348,-88.07373,0.0,0.0,0.0,97.17407,79.17297,27.734985
1766901704958,-0.9746094,-0.115722656,-0.30810547,-71.3501,190.06348,-88.07373,0.0,0.0,0.0,129.68262,77.77222,54.937134
1766901705046,-0.8413086,0.030761719,-0.20605469,121.21582,-58.410645,40.100098,0.0,0.0,0.0,129.68262,77.77222,54.937134
1766901705059,-0.8413086,0.030761719,-0.20605469,121.21582,-58.410645,40.100098,0.0,0.0,0.0,152.48474,73.65234,75.893555
1766901705146,-0.9296875,0.31103516,-0.2919922,46.50879,-7.1411133,42.663574,0.0,0.0,0.0,152.48474,73.65234,75.893555
1766901705158,-0.9296875,0.31103516,-0.2919922,46.50879,-7.1411133,42.663574,0.0,0.0,0.0,140.16907,73.85559,51.729126
1766901705246,-1.2084961,0.25195312,0.24560547,-54.44336,16.235352,-9.155273,0.0,0.0,0.0,140.16907,73.85559,51.729126
1766901705257,-1.2084961,0.25195312,0.24560547,-54.44336,16.235352,-9.155273,0.0,0.0,0.0,141.97083,71.47705,48.691406
1766901705345,-1.1738281,0.27539062,-0.3046875,-27.160645,-90.51514,8.728027,0.0,0.0,0.0,141.97083,71.47705,48.691406
1766901705357,-1.1738281,0.27539062,-0.3046875,-27.160645,-90.51514,8.728027,0.0,0.0,0.0,123.793945,75.46509,28.289795
1766901705445,-0.68310547,-0.19580078,-0.3256836,27.58789,-35.88867,-19.53125,0.0,0.0,0.0,123.793945,75.46509,28.289795
1766901705457,-0.68310547,-0.19580078,-0.3256836,27.58789,-35.88867,-19.53125,0.0,0.0,0.0,95.3064,77.86011,-4.312134
1766901705545,-0.83740234,-0.18945312,-0.35888672,3.6010742,43.884277,-13.122559,0.0,0.0,0.0,95.3064,77.86011,-4.312134
1766901705558,-0.83740234,-0.18945312,-0.35888672,3.6010742,43.884277,-13.122559,0.0,0.0,0.0,103.00781,79.453125,-7.03125
1766901705645,-0.9902344,0.41796875,-0.12792969,-50.04883,152.09961,27.526855,0.0,0.0,0.0,103.00781,79.453125,-7.03125
1766901705656,-0.9902344,0.41796875,-0.12792969,-50.04883,152.09961,27.526855,0.0,0.0,0.0,136.33484,70.01587,20.74768
1766901705744,-0.9370117,0.09814453,-0.18408203,37.231445,-26.367188,-11.352539,0.0,0.0,0.0,136.33484,70.01587,20.74768
1766901705756,-0.9370117,0.09814453,-0.18408203,37.231445,-26.367188,-11.352539,0.0,0.0,0.0,135.2417,70.0708,17.677002
1766901705844,-1.0317383,0.09033203,-0.25585938,-31.61621,38.208008,-20.202637,0.0,0.0,0.0,135.2417,70.0708,17.677002
1766901705856,-1.0317383,0.09033203,-0.25585938,-31.61621,38.208008,-20.202637,0.0,0.0,0.0,139.21326,71.90552,19.47876
1766901705944,-1.1533203,0.064453125,-0.049316406,4.699707,-40.527344,3.540039,0.0,0.0,0.0,139.21326,71.90552,19.47876
1766901705955,-1.1533203,0.064453125,-0.049316406,4.699707,-40.527344,3.540039,0.0,0.0,0.0,140.42725,72.57568,17.731934
1766901706044,-1.1557617,0.118652344,-0.27734375,51.879883,-71.10596,26.306152,0.0,0.0,0.0,140.42725,72.57568,17.731934
1766901706055,-1.1557617,0.118652344,-0.27734375,51.879883,-71.10596,26.306152,0.0,0.0,0.0,123.618164,76.569214,-7.261963
1766901706143,-0.59814453,0.29638672,-0.19091797,43.33496,-36.254883,36.43799,0.0,0.0,0.0,123.618164,76.569214,-7.261963
1766901706157,-0.59814453,0.29638672,-0.19091797,43.33496,-36.254883,36.43799,0.0,0.0,0.0,107.127686,75.6189,-35.908813
1766901706244,-1.0097656,0.17480469,-0.46777344,35.583496,24.108887,2.0141602,0.0,0.0,0.0,107.127686,75.6189,-35.908813
1766901706254,-1.0097656,0.17480469,-0.46777344,35.583496,24.108887,2.0141602,0.0,0.0,0.0,104.83154,74.98718,-46.087646
1766901706343,-1.0898438,0.26660156,0.20654297,-31.49414,166.68701,-35.583496,0.0,0.0,0.0,104.83154,74.98718,-46.087646
1766901706354,-1.0898438,0.26660156,0.20654297,-31.49414,166.68701,-35.583496,0.0,0.0,0.0,143.26721,69.75769,-10.821533
1766901706442,-0.94873047,0.2211914,-0.22558594,48.64502,-52.368164,38.57422,0.0,0.0,0.0,143.26721,69.75769,-10.821533
1766901706454,-0.94873047,0.2211914,-0.22558594,48.64502,-52.368164,38.57422,0.0,0.0,0.0,138.52112,71.224365,-23.900757
1766901706542,-0.95214844,0.28955078,-0.3125,8.605957,2.5634766,3.1738281,0.0,0.0,0.0,138.52112,71.224365,-23.900757
1766901706554,-0.95214844,0.28955078,-0.3125,8.605957,2.5634766,3.1738281,0.0,0.0,0.0,132.46216,71.954956,-38.62793
1766901706642,-1.0175781,0.33154297,-0.045898438,-26.000977,40.771484,0.0,0.0,0.0,0.0,132.46216,71.954956,-38.62793
1766901706653,-1.0175781,0.33154297,-0.045898438,-26.000977,40.771484,0.0,0.0,0.0,0.0,136.74133,69.87305,-39.11682
1766901706742,-1.1489258,0.3671875,-0.32177734,-15.319824,-93.01758,12.817383,0.0,0.0,0.0,136.74133,69.87305,-39.11682
1766901706753,-1.1489258,0.3671875,-0.32177734,-15.319824,-93.01758,12.817383,0.0,0.0,0.0,119.43787,73.57544,-60.13916
1766901706842,-0.70751953,-0.16552734,-0.31591797,14.526367,-25.45166,-4.0283203,0.0,0.0,0.0,119.43787,73.57544,-60.13916
1766901706852,-0.70751953,-0.16552734,-0.31591797,14.526367,-25.45166,-4.0283203,0.0,0.0,0.0,98.9209,74.328,-85.88562
1766901706941,-1.074707,0.2836914,-0.3383789,5.3710938,115.66162,-12.145996,0.0,0.0,0.0,98.9209,74.328,-85.88562
1766901706952,-1.074707,0.2836914,-0.3383789,5.3710938,115.66162,-12.145996,0.0,0.0,0.0,118.465576,74.42139,-73.17444
1766901707041,-0.94140625,0.2133789,0.33935547,-27.770996,-30.88379,10.559082,0.0,0.0,0.0,118.465576,74.42139,-73.17444
1766901707052,-0.94140625,0.2133789,0.33935547,-27.770996,-30.88379,10.559082,0.0,0.0,0.0,133.797,68.23059,-58.26599
1766901707140,-0.9736328,0.17675781,-0.296875,-32.287598,-1.6479492,-19.958496,0.0,0.0,0.0,133.797,68.23059,-58.26599
1766901707152,-0.9736328,0.17675781,-0.296875,-32.287598,-1.6479492,-19.958496,0.0,0.0,0.0,135.33508,70.493774,-60.985107
1766901707240,-1.2524414,0.100097656,0.107421875,-56.884766,24.291992,-33.813477,0.0,0.0,0.0,135.33508,70.493774,-60.985107
1766901707252,-1.2524414,0.100097656,0.107421875,-56.884766,24.291992,-33.813477,0.0,0.0,0.0,140.61401,70.60913,-55.7666
1766901707340,-1.1425781,0.10595703,-0.22998047,26.306152,-82.27539,7.8125,0.0,0.0,0.0,140.61401,70.60913,-55.7666
1766901707351,-1.1425781,0.10595703,-0.22998047,26.306152,-82.27539,7.8125,0.0,0.0,0.0,131.69861,76.118774,-68.79639
1766901707439,-0.6347656,0.2524414,-0.24023438,19.592285,-50.53711,27.832031,0.0,0.0,0.0,131.69861,76.118774,-68.79639
1766901707451,-0.6347656,0.2524414,-0.24023438,19.592285,-50.53711,27.832031,0.0,0.0,0.0,108.75366,77.178955,-103.00781
1766901707539,-0.97216797,0.11816406,-0.49560547,16.906738,20.141602,-1.4648438,0.0,0.0,0.0,108.75366,77.178955,-103.00781
1766901707550,-0.97216797,0.11816406,-0.49560547,16.906738,20.141602,-1.4648438,0.0,0.0,0.0,101.22803,77.48657,-115.99365
1766901707639,-1.0019531,0.068847656,-0.09375,-38.269043,179.19922,-47.60742,0.0,0.0,0.0,101.22803,77.48657,-115.99365
1766901707652,-1.0019531,0.068847656,-0.09375,-38.269043,179.19922,-47.60742,0.0,0.0,0.0,146.78284,73.3667,-73.168945
1766901707738,-0.95996094,0.16503906,-0.24511719,62.805176,-40.405273,39.79492,0.0,0.0,0.0,146.78284,73.3667,-73.168945
1766901707750,-0.95996094,0.16503906,-0.24511719,62.805176,-40.405273,39.79492,0.0,0.0,0.0,151.12793,72.388916,-76.2616
1766901707838,-1.0351562,0.22216797,-0.29296875,26.97754,15.808105,5.6152344,0.0,0.0,0.0,151.12793,72.388916,-76.2616
1766901707850,-1.0351562,0.22216797,-0.29296875,26.97754,15.808105,5.6152344,0.0,0.0,0.0,147.91992,72.78992,-90.944824
1766901707938,-1.1293945,0.34326172,0.14257812,-35.40039,-44.677734,4.638672,0.0,0.0,0.0,147.91992,72.78992,-90.944824
1766901707949,-1.1293945,0.34326172,0.14257812,-35.40039,-44.677734,4.638672,0.0,0.0,0.0,145.24475,72.06482,-98.66272
1766901708038,-0.9506836,0.14208984,-0.35888672,-50.354004,-54.504395,-14.282227,0.0,0.0,0.0,145.24475,72.06482,-98.66272
1766901708049,-0.9506836,0.14208984,-0.35888672,-50.354004,-54.504395,-14.282227,0.0,0.0,0.0,121.95923,77.51953,-124.84314
1766901708137,-0.7416992,-0.3046875,-0.2709961,25.57373,19.40918,-43.640137,0.0,0.0,0.0,121.95923,77.51953,-124.84314
1766901708149,-0.7416992,-0.3046875,-0.2709961,25.57373,19.40918,-43.640137,0.0,0.0,0.0,121.89331,80.05188,-128.68286
1766901708237,-1.2172852,0.17529297,-0.40673828,9.521484,91.85791,16.784668,0.0,0.0,0.0,121.89331,80.05188,-128.68286
1766901708248,-1.2172852,0.17529297,-0.40673828,9.521484,91.85791,16.784668,0.0,0.0,0.0,147.87598,78.76099,-95.19104
1766901708337,-0.8588867,-0.0068359375,0.1508789,18.859863,-15.563965,7.2021484,0.0,0.0,0.0,147.87598,78.76099,-95.19104
1766901708348,-0.8588867,-0.0068359375,0.1508789,18.859863,-15.563965,7.2021484,0.0,0.0,0.0,155.52795,70.74097,-83.0072
1766901708436,-0.9916992,0.05126953,-0.3232422,-10.314941,-20.324707,2.1972656,0.0,0.0,0.0,155.52795,70.74097,-83.0072
1766901708448,-0.9916992,0.05126953,-0.3232422,-10.314941,-20.324707,2.1972656,0.0,0.0,0.0,155.43457,72.65259,-90.78552
1766901708537,-1.0966797,0.087890625,-0.2421875,-25.08545,36.68213,-18.371582,0.0,0.0,0.0,155.43457,72.65259,-90.78552
1766901708548,-1.0966797,0.087890625,-0.2421875,-25.08545,36.68213,-18.371582,0.0,0.0,0.0,155.95642,72.559204,-81.622925
1766901708636,-1.1918945,0.060546875,-0.35351562,52.67334,-89.904785,31.555176,0.0,0.0,0.0,155.95642,72.559204,-81.622925
1766901708647,-1.1918945,0.060546875,-0.35351562,52.67334,-89.904785,31.555176,0.0,0.0,0.0,150.07874,76.19568,-87.49512
1766901708736,-0.57470703,0.25195312,-0.28027344,21.54541,-46.936035,36.743164,0.0,0.0,0.0,150.07874,76.19568,-87.49512
1766901708750,-0.57470703,0.25195312,-0.28027344,21.54541,-46.936035,36.743164,0.0,0.0,0.0,120.267334,79.090576,-117.5647
1766901708836,-0.94873047,0.20507812,-0.5683594,26.489258,21.850586,15.136719,0.0,0.0,0.0,120.267334,79.090576,-117.5647
1766901708847,-0.94873047,0.20507812,-0.5683594,26.489258,21.850586,15.136719,0.0,0.0,0.0,109.72046,79.93103,-121.95923
1766901708935,-1.0473633,-0.0107421875,-0.16259766,-63.11035,201.84326,-74.95117,0.0,0.0,0.0,109.72046,79.93103,-121.95923
1766901708946,-1.0473633,-0.0107421875,-0.16259766,-63.11035,201.84326,-74.95117,0.0,0.0,0.0,159.15894,74.783936,-66.08276
1766901709035,-0.9941406,0.20410156,-0.25390625,95.21484,-24.963379,57.556152,0.0,0.0,0.0,159.15894,74.783936,-66.08276
1766901709046,-0.9941406,0.20410156,-0.25390625,95.21484,-24.963379,57.556152,0.0,0.0,0.0,167.10205,72.55371,-58.49121
1766901709134,-0.96972656,0.25146484,-0.29589844,20.263672,-1.2207031,16.662598,0.0,0.0,0.0,167.10205,72.55371,-58.49121
1766901709146,-0.96972656,0.25146484,-0.29589844,20.263672,-1.2207031,16.662598,0.0,0.0,0.0,153.91846,72.66907,-72.10327
1766901709234,-1.2075195,0.35839844,-0.092285156,-51.879883,2.0751953,-10.498047,0.0,0.0,0.0,153.91846,72.66907,-72.10327
1766901709246,-1.2075195,0.35839844,-0.092285156,-51.879883,2.0751953,-10.498047,0.0,0.0,0.0,152.48474,71.883545,-67.873535
1766901709334,-0.96533203,0.13964844,-0.3774414,-43.640137,-62.98828,-13.244629,0.0,0.0,0.0,152.48474,71.883545,-67.873535
1766901709345,-0.96533203,0.13964844,-0.3774414,-43.640137,-62.98828,-13.244629,0.0,0.0,0.0,139.64172,76.39343,-71.257324
1766901709436,-0.6333008,-0.24804688,-0.25439453,28.137207,5.065918,-26.794434,0.0,0.0,0.0,139.64172,76.39343,-71.257324
1766901709445,-0.6333008,-0.24804688,-0.25439453,28.137207,5.065918,-26.794434,0.0,0.0,0.0,139.19128,79.541016,-68.45581
1766901709533,-1.2109375,0.33154297,-0.46191406,50.598145,82.94678,45.410156,0.0,0.0,0.0,139.19128,79.541016,-68.45581
1766901709544,-1.2109375,0.33154297,-0.46191406,50.598145,82.94678,45.410156,0.0,0.0,0.0,151.00159,76.69006,-56.854248
1766901709633,-1.0854492,0.18554688,0.3232422,-47.912598,1.0375977,-11.901855,0.0,0.0,0.0,151.00159,76.69006,-56.854248
1766901709645,-1.0854492,0.18554688,0.3232422,-47.912598,1.0375977,-11.901855,0.0,0.0,0.0,157.60437,66.89026,-44.813232
1766901709732,-0.9824219,0.048339844,-0.32763672,-22.277832,-28.442383,-2.9296875,0.0,0.0,0.0,157.60437,66.89026,-44.813232
1766901709744,-0.9824219,0.048339844,-0.32763672,-22.277832,-28.442383,-2.9296875,0.0,0.0,0.0,154.83582,69.86755,-43.599243
1766901709832,-1.078125,0.091796875,-0.29882812,-25.20752,25.756836,-22.888184,0.0,0.0,0.0,154.83582,69.86755,-43.599243
1766901709844,-1.078125,0.091796875,-0.29882812,-25.20752,25.756836,-22.888184,0.0,0.0,0.0,156.28052,70.32898,-37.25464
1766901709932,-1.1914062,0.21582031,-0.028320312,3.3569336,-44.311523,6.8359375,0.0,0.0,0.0,156.28052,70.32898,-37.25464
1766901709943,-1.1914062,0.21582031,-0.028320312,3.3569336,-44.311523,6.8359375,0.0,0.0,0.0,157.81311,70.72998,-32.459106
1766901710032,-0.8129883,0.08496094,-0.28222656,30.517578,-96.61865,29.785156,0.0,0.0,0.0,157.81311,70.72998,-32.459106
1766901710043,-0.8129883,0.08496094,-0.28222656,30.517578,-96.61865,29.785156,0.0,0.0,0.0,133.17627,76.8219,-60.91919
1766901710131,-0.7885742,0.37939453,-0.51464844,-6.8969727,-37.353516,5.432129,0.0,0.0,0.0,133.17627,76.8219,-60.91919
1766901710143,-0.7885742,0.37939453,-0.51464844,-6.8969727,-37.353516,5.432129,0.0,0.0,0.0,108.09448,78.689575,-85.69885
1766901710231,-0.984375,-0.021484375,-0.35839844,-32.104492,136.90186,-60.058594,0.0,0.0,0.0,108.09448,78.689575,-85.69885
1766901710242,-0.984375,-0.021484375,-0.35839844,-32.104492,136.90186,-60.058594,0.0,0.0,0.0,138.36731,76.36047,-56.95862
1766901710331,-1.1376953,0.15478516,0.38183594,40.71045,-36.376953,18.432617,0.0,0.0,0.0,138.36731,76.36047,-56.95862
1766901710342,-1.1376953,0.15478516,0.38183594,40.71045,-36.376953,18.432617,0.0,0.0,0.0,161.7627,67.631836,-29.229126
1766901710430,-0.97802734,0.17041016,-0.33642578,50.598145,-47.668457,29.541016,0.0,0.0,0.0,161.7627,67.631836,-29.229126
1766901710442,-0.97802734,0.17041016,-0.33642578,50.598145,-47.668457,29.541016,0.0,0.0,0.0,150.17212,71.328735,-45.769043
1766901710530,-1.0102539,0.32714844,-0.28515625,-15.197754,12.939453,3.8452148,0.0,0.0,0.0,150.17212,71.328735,-45.769043
1766901710542,-1.0102539,0.32714844,-0.28515625,-15.197754,12.939453,3.8452148,0.0,0.0,0.0,146.5741,71.41113,-49.993286
1766901710630,-1.1855469,0.28125,-0.17919922,-4.638672,-85.57129,-14.343262,0.0,0.0,0.0,146.5741,71.41113,-49.993286
1766901710641,-1.1855469,0.28125,-0.17919922,-4.638672,-85.57129,-14.343262,0.0,0.0,0.0,139.94934,73.91052,-51.152344
1766901710730,-0.63964844,-0.14892578,-0.27246094,5.3100586,-16.662598,-18.371582,0.0,0.0,0.0,139.94934,73.91052,-51.152344
1766901710741,-0.63964844,-0.14892578,-0.27246094,5.3100586,-16.662598,-18.371582,0.0,0.0,0.0,125.17822,77.76123,-65.46753
1766901710830,-0.9980469,-0.021972656,-0.44873047,3.112793,49.25537,2.1362305,0.0,0.0,0.0,125.17822,77.76123,-65.46753
1766901710845,-0.9980469,-0.021972656,-0.44873047,3.112793,49.25537,2.1362305,0.0,0.0,0.0,137.90588,78.12378,-56.727905
1766901710933,-0.92285156,0.19873047,0.0024414062,-43.518066,138.73291,-0.36621094,0.0,0.0,0.0,137.90588,78.12378,-56.727905
1766901710941,-0.92285156,0.19873047,0.0024414062,-43.518066,138.73291,-0.36621094,0.0,0.0,0.0,153.95142,67.08252,-41.539307
1766901711029,-1.0073242,0.13964844,-0.2626953,-1.8310547,-53.16162,-14.587402,0.0,0.0,0.0,153.95142,67.08252,-41.539307
1766901711040,-1.0073242,0.13964844,-0.2626953,-1.8310547,-53.16162,-14.587402,0.0,0.0,0.0,155.17639,67.681274,-39.050903
1766901711128,-1.0600586,0.12207031,-0.39697266,-6.5307617,-17.028809,-1.6479492,0.0,0.0,0.0,155.17639,67.681274,-39.050903
1766901711140,-1.0600586,0.12207031,-0.39697266,-6.5307617,-17.028809,-1.6479492,0.0,0.0,0.0,148.74939,72.23511,-47.005005
1766901711228,-1.4306641,0.088378906,0.48388672,-13.671875,-52.55127,-6.5307617,0.0,0.0,0.0,148.74939,72.23511,-47.005005
1766901711239,-1.4306641,0.088378906,0.48388672,-13.671875,-52.55127,-6.5307617,0.0,0.0,0.0,151.89697,71.900024,-44.32434
1766901711328,-0.56591797,0.15576172,-0.20214844,24.291992,-70.373535,45.59326,0.0,0.0,0.0,151.89697,71.900024,-44.32434
1766901711339,-0.56591797,0.15576172,-0.20214844,24.291992,-70.373535,45.59326,0.0,0.0,0.0,125.875854,76.10779,-78.78296
1766901711427,-0.8754883,0.23388672,-0.5961914,35.7666,-38.513184,4.8828125,0.0,0.0,0.0,125.875854,76.10779,-78.78296
1766901711439,-0.8754883,0.23388672,-0.5961914,35.7666,-38.513184,4.8828125,0.0,0.0,0.0,103.24951,77.47009,-106.46301
1766901711527,-0.9980469,0.099121094,-0.3095703,-37.231445,185.54688,-56.152344,0.0,0.0,0.0,103.24951,77.47009,-106.46301
1766901711539,-0.9980469,0.099121094,-0.3095703,-37.231445,185.54688,-56.152344,0.0,0.0,0.0,139.76257,73.95447,-75.95947
1766901711627,-0.89990234,0.27929688,-0.18554688,114.74609,-56.9458,27.70996,0.0,0.0,0.0,139.76257,73.95447,-75.95947
1766901711638,-0.89990234,0.27929688,-0.18554688,114.74609,-56.9458,27.70996,0.0,0.0,0.0,154.23706,70.010376,-61.968384
1766901711726,-0.9550781,0.24609375,-0.3540039,28.381348,-16.052246,9.70459,0.0,0.0,0.0,154.23706,70.010376,-61.968384
1766901711738,-0.9550781,0.24609375,-0.3540039,28.381348,-16.052246,9.70459,0.0,0.0,0.0,143.94836,72.49878,-79.991455
1766901711826,-1.1870117,0.47753906,0.18798828,-59.143066,28.686523,-3.112793,0.0,0.0,0.0,143.94836,72.49878,-79.991455
1766901711838,-1.1870117,0.47753906,0.18798828,-59.143066,28.686523,-3.112793,0.0,0.0,0.0,146.53564,70.42786,-79.12903
1766901711926,-1.0092773,0.11621094,-0.3720703,-38.146973,-75.98877,2.1362305,0.0,0.0,0.0,146.53564,70.42786,-79.12903
1766901711938,-1.0092773,0.11621094,-0.3720703,-38.146973,-75.98877,2.1362305,0.0,0.0,0.0,126.55701,74.62463,-98.59131
1766901712026,-0.76171875,-0.21240234,-0.32373047,39.123535,-4.8217773,-22.827148,0.0,0.0,0.0,126.55701,74.62463,-98.59131
1766901712037,-0.76171875,-0.21240234,-0.32373047,39.123535,-4.8217773,-22.827148,0.0,0.0,0.0,115.7959,76.91528,-114.713745
1766901712125,-1.0688477,0.25732422,-0.38134766,30.639648,92.77344,22.766113,0.0,0.0,0.0,115.7959,76.91528,-114.713745
1766901712137,-1.0688477,0.25732422,-0.38134766,30.639648,92.77344,22.766113,0.0,0.0,0.0,133.8739,74.49829,-102.98584
1766901712225,-0.9848633,0.17822266,0.24609375,-7.8125,-12.023926,0.61035156,0.0,0.0,0.0,133.8739,74.49829,-102.98584
1766901712236,-0.9848633,0.17822266,0.24609375,-7.8125,-12.023926,0.61035156,0.0,0.0,0.0,146.64001,66.48926,-91.587524
1766901712326,-0.98291016,0.18652344,-0.32861328,-34.79004,-23.620605,-6.4086914,0.0,0.0,0.0,146.64001,66.48926,-91.587524
1766901712336,-0.98291016,0.18652344,-0.32861328,-34.79004,-23.620605,-6.4086914,0.0,0.0,0.0,143.02551,69.43909,-97.45972
1766901712424,-1.097168,0.021972656,-0.265625,-53.833008,42.053223,-31.555176,0.0,0.0,0.0,143.02551,69.43909,-97.45972
1766901712436,-1.097168,0.021972656,-0.265625,-53.833008,42.053223,-31.555176,0.0,0.0,0.0,143.34412,70.20264,-97.19055
1766901712524,-1.2148438,0.20117188,-0.22216797,53.95508,-113.64746,20.324707,0.0,0.0,0.0,143.34412,70.20264,-97.19055
1766901712536,-1.2148438,0.20117188,-0.22216797,53.95508,-113.64746,20.324707,0.0,0.0,0.0,141.1029,73.152466,-100.39307
1766901712624,-0.5576172,0.16992188,-0.31884766,33.14209,-95.703125,30.88379,0.0,0.0,0.0,141.1029,73.152466,-100.39307
1766901712636,-0.5576172,0.16992188,-0.31884766,33.14209,-95.703125,30.88379,0.0,0.0,0.0,104.29321,76.30554,-149.17236
1766901712724,-1.0405273,0.095214844,-0.5708008,34.729004,50.41504,9.521484,0.0,0.0,0.0,104.29321,76.30554,-149.17236
1766901712736,-1.0405273,0.095214844,-0.5708008,34.729004,50.41504,9.521484,0.0,0.0,0.0,91.6864,75.24536,-169.28284
1766901712824,-1.0961914,0.15332031,0.10546875,-47.851562,208.37402,-68.96973,0.0,0.0,0.0,91.6864,75.24536,-169.28284
1766901712835,-1.0961914,0.15332031,0.10546875,-47.851562,208.37402,-68.96973,0.0,0.0,0.0,143.72314,70.894775,-120.113525
1766901712924,-0.96191406,0.22558594,-0.2602539,136.84082,-28.076172,40.161133,0.0,0.0,0.0,143.72314,70.894775,-120.113525
1766901712934,-0.96191406,0.22558594,-0.2602539,136.84082,-28.076172,40.161133,0.0,0.0,0.0,143.54187,72.9657,-124.22241
1766901713024,-1.0131836,0.34326172,-0.31591797,5.9814453,-6.4697266,5.493164,0.0,0.0,0.0,143.54187,72.9657,-124.22241
1766901713034,-1.0131836,0.34326172,-0.31591797,5.9814453,-6.4697266,5.493164,0.0,0.0,0.0,130.16052,73.11401,-147.7002
1766901713122,-1.2675781,0.23535156,0.17675781,-33.935547,-78.36914,-3.0517578,0.0,0.0,0.0,130.16052,73.11401,-147.7002
1766901713134,-1.2675781,0.23535156,0.17675781,-33.935547,-78.36914,-3.0517578,0.0,0.0,0.0,126.28235,73.10852,-152.97913
1766901713222,-0.79003906,0.0063476562,-0.34228516,-10.803223,-30.700684,-6.8359375,0.0,0.0,0.0,126.28235,73.10852,-152.97913
1766901713233,-0.79003906,0.0063476562,-0.34228516,-10.803223,-30.700684,-6.8359375,0.0,0.0,0.0,98.53088,76.05835,174.66614
1766901713322,-0.8408203,-0.14550781,-0.2709961,16.235352,66.65039,-28.137207,0.0,0.0,0.0,98.53088,76.05835,174.66614
1766901713333,-0.8408203,-0.14550781,-0.2709961,16.235352,66.65039,-28.137207,0.0,0.0,0.0,110.84656,77.3822,-179.89014
1766901713421,-1.0800781,0.48828125,-0.20703125,16.113281,77.14844,52.30713,0.0,0.0,0.0,110.84656,77.3822,-179.89014
1766901713433,-1.0800781,0.48828125,-0.20703125,16.113281,77.14844,52.30713,0.0,0.0,0.0,133.78052,73.30078,-157.04956
1766901713522,-0.9326172,0.14501953,-0.16699219,5.3100586,-2.8686523,-12.817383,0.0,0.0,0.0,133.78052,73.30078,-157.04956
1766901713533,-0.9326172,0.14501953,-0.16699219,5.3100586,-2.8686523,-12.817383,0.0,0.0,0.0,137.94983,70.12024,-158.40088
1766901713621,-1.0117188,0.18457031,-0.15136719,-44.6167,17.456055,-21.911621,0.0,0.0,0.0,137.94983,70.12024,-158.40088
1766901713632,-1.0117188,0.18457031,-0.15136719,-44.6167,17.456055,-21.911621,0.0,0.0,0.0,142.54211,70.70801,-156.64856
1766901713721,-1.1103516,0.14550781,-0.1743164,-20.568848,-3.3569336,-18.371582,0.0,0.0,0.0,142.54211,70.70801,-156.64856
1766901713732,-1.1103516,0.14550781,-0.1743164,-20.568848,-3.3569336,-18.371582,0.0,0.0,0.0,145.1239,71.520996,-155.4126
1766901713821,-1.1928711,0.04736328,-0.29052734,51.574707,-63.598633,23.376465,0.0,0.0,0.0,145.1239,71.520996,-155.4126
1766901713832,-1.1928711,0.04736328,-0.29052734,51.574707,-63.598633,23.376465,0.0,0.0,0.0,139.66919,73.98743,-167.36572
1766901713920,-0.5576172,0.26611328,-0.2626953,36.193848,-57.86133,37.29248,0.0,0.0,0.0,139.66919,73.98743,-167.36572
1766901713932,-0.5576172,0.26611328,-0.2626953,36.193848,-57.86133,37.29248,0.0,0.0,0.0,119.17969,75.49255,159.73572
1766901714020,-0.84228516,0.27148438,-0.5541992,20.751953,-26.97754,13.366699,0.0,0.0,0.0,119.17969,75.49255,159.73572
1766901714032,-0.84228516,0.27148438,-0.5541992,20.751953,-26.97754,13.366699,0.0,0.0,0.0,101.34888,75.11902,133.86292
1766901714119,-0.9760742,0.06542969,-0.3022461,-43.45703,157.04346,-58.166504,0.0,0.0,0.0,101.34888,75.11902,133.86292
1766901714131,-0.9760742,0.06542969,-0.3022461,-43.45703,157.04346,-58.166504,0.0,0.0,0.0,131.33606,72.526245,158.40088
1766901714219,-0.88427734,0.16259766,-0.13916016,89.11133,-51.574707,11.71875,0.0,0.0,0.0,131.33606,72.526245,158.40088
1766901714231,-0.88427734,0.16259766,-0.13916016,89.11133,-51.574707,11.71875,0.0,0.0,0.0,146.8158,70.14221,171.58447
1766901714319,-0.98339844,0.26708984,-0.30126953,24.169922,-5.3710938,13.244629,0.0,0.0,0.0,146.8158,70.14221,171.58447
1766901714330,-0.98339844,0.26708984,-0.30126953,24.169922,-5.3710938,13.244629,0.0,0.0,0.0,140.64697,71.48804,155.84106
1766901714419,-1.1547852,0.35107422,0.06689453,-38.33008,-5.859375,0.24414062,0.0,0.0,0.0,140.64697,71.48804,155.84106
1766901714430,-1.1547852,0.35107422,0.06689453,-38.33008,-5.859375,0.24414062,0.0,0.0,0.0,139.68567,70.4718,150.84229
1766901714518,-1.0195312,0.27783203,-0.35205078,-40.71045,-63.90381,-0.7324219,0.0,0.0,0.0,139.68567,70.4718,150.84229
1766901714530,-1.0195312,0.27783203,-0.35205078,-40.71045,-63.90381,-0.7324219,0.0,0.0,0.0,120.15198,74.58069,128.83667
1766901714618,-0.73779297,-0.27246094,-0.28564453,51.574707,-12.268066,-34.91211,0.0,0.0,0.0,120.15198,74.58069,128.83667
1766901714629,-0.73779297,-0.27246094,-0.28564453,51.574707,-12.268066,-34.91211,0.0,0.0,0.0,114.47754,76.47583,116.38367
1766901714719,-1.0961914,0.22460938,-0.41601562,27.34375,73.36426,28.198242,0.0,0.0,0.0,114.47754,76.47583,116.38367
1766901714729,-1.0961914,0.22460938,-0.41601562,27.34375,73.36426,28.198242,0.0,0.0,0.0,127.50183,74.71802,121.47034
1766901714817,-1.0302734,0.10595703,0.25683594,-38.45215,-22.094727,-11.413574,0.0,0.0,0.0,127.50183,74.71802,121.47034
1766901714829,-1.0302734,0.10595703,0.25683594,-38.45215,-22.094727,-11.413574,0.0,0.0,0.0,138.07068,68.57666,132.4292
1766901714917,-0.8886719,0.15625,-0.28808594,-38.085938,-5.2490234,-2.5634766,0.0,0.0,0.0,138.07068,68.57666,132.4292
1766901714929,-0.8886719,0.15625,-0.28808594,-38.085938,-5.2490234,-2.5634766,0.0,0.0,0.0,140.4602,70.70801,129.57825
1766901715017,-1.1928711,0.11669922,-0.29541016,-44.799805,30.395508,-32.592773,0.0,0.0,0.0,140.4602,70.70801,129.57825
1766901715028,-1.1928711,0.11669922,-0.29541016,-44.799805,30.395508,-32.592773,0.0,0.0,0.0,142.7893,70.45532,130.80872
1766901715116,-1.2602539,0.19335938,-0.05908203,18.798828,-111.02295,18.554688,0.0,0.0,0.0,142.7893,70.45532,130.80872
1766901715128,-1.2602539,0.19335938,-0.05908203,18.798828,-111.02295,18.554688,0.0,0.0,0.0,137.29065,73.498535,122.66235
1766901715217,-0.58691406,0.099609375,-0.24560547,40.893555,-83.55713,32.958984,0.0,0.0,0.0,137.29065,73.498535,122.66235
1766901715231,-0.58691406,0.099609375,-0.24560547,40.893555,-83.55713,32.958984,0.0,0.0,0.0,105.29846,75.34973,78.85437
1766901715316,-0.87890625,0.3305664,-0.5654297,26.062012,23.925781,10.803223,0.0,0.0,0.0,105.29846,75.34973,78.85437
1766901715327,-0.87890625,0.3305664,-0.5654297,26.062012,23.925781,10.803223,0.0,0.0,0.0,91.538086,74.37195,56.826782
1766901715416,-1.059082,0.0048828125,-0.24023438,-56.21338,206.90918,-74.76807,0.0,0.0,0.0,91.538086,74.37195,56.826782
1766901715427,-1.059082,0.0048828125,-0.24023438,-56.21338,206.90918,-74.76807,0.0,0.0,0.0,134.33533,71.07056,94.520874
1766901715515,-0.94140625,0.17089844,-0.203125,124.694824,-50.1709,33.935547,0.0,0.0,0.0,134.33533,71.07056,94.520874
1766901715527,-0.94140625,0.17089844,-0.203125,124.694824,-50.1709,33.935547,0.0,0.0,0.0,146.4093,70.05432,102.96936
1766901715615,-0.9658203,0.36865234,-0.35058594,40.83252,-31.00586,40.58838,0.0,0.0,0.0,146.4093,70.05432,102.96936
1766901715626,-0.9658203,0.36865234,-0.35058594,40.83252,-31.00586,40.58838,0.0,0.0,0.0,135.03296,71.05408,79.13452
1766901715715,-1.0068359,0.29101562,-0.16748047,-29.23584,38.024902,5.6762695,0.0,0.0,0.0,135.03296,71.05408,79.13452
1766901715726,-1.0068359,0.29101562,-0.16748047,-29.23584,38.024902,5.6762695,0.0,0.0,0.0,134.52759,69.46106,72.8064
1766901715814,-1.0922852,0.23632812,-0.3154297,-5.9814453,-77.941895,11.291504,0.0,0.0,0.0,134.52759,69.46106,72.8064
1766901715826,-1.0922852,0.23632812,-0.3154297,-5.9814453,-77.941895,11.291504,0.0,0.0,0.0,125.68909,72.36694,60.43579
1766901715914,-0.75927734,-0.14404297,-0.3046875,10.009766,-17.456055,-24.353027,0.0,0.0,0.0,125.68909,72.36694,60.43579
1766901715926,-0.75927734,-0.14404297,-0.3046875,10.009766,-17.456055,-24.353027,0.0,0.0,0.0,113.40088,74.58069,41.429443
1766901716014,-1.0253906,0.23095703,-0.39990234,26.428223,63.659668,17.39502,0.0,0.0,0.0,113.40088,74.58069,41.429443
1766901716025,-1.0253906,0.23095703,-0.39990234,26.428223,63.659668,17.39502,0.0,0.0,0.0,121.278076,73.29529,40.841675
1766901716114,-0.8754883,0.28515625,-0.014160156,-29.11377,126.0376,-6.4697266,0.0,0.0,0.0,121.278076,73.29529,40.841675
1766901716125,-0.8754883,0.28515625,-0.014160156,-29.11377,126.0376,-6.4697266,0.0,0.0,0.0,144.54163,65.38513,61.06201
1766901716213,-1.0615234,0.17333984,-0.2631836,-4.5776367,-51.940918,-16.113281,0.0,0.0,0.0,144.54163,65.38513,61.06201
1766901716226,-1.0615234,0.17333984,-0.2631836,-4.5776367,-51.940918,-16.113281,0.0,0.0,0.0,145.76111,65.34668,59.210815
1766901716313,-1.03125,0.07714844,-0.32666016,-25.45166,5.432129,-19.65332,0.0,0.0,0.0,145.76111,65.34668,59.210815
1766901716325,-1.03125,0.07714844,-0.32666016,-25.45166,5.432129,-19.65332,0.0,0.0,0.0,142.88818,69.47754,52.470703
1766901716413,-1.262207,0.109375,-0.068359375,40.222168,-72.5708,8.422852,0.0,0.0,0.0,142.88818,69.47754,52.470703
1766901716424,-1.262207,0.109375,-0.068359375,40.222168,-72.5708,8.422852,0.0,0.0,0.0,145.8435,70.50476,50.740356
1766901716512,-0.6591797,0.2446289,-0.25341797,27.282715,-59.509277,34.606934,0.0,0.0,0.0,145.8435,70.50476,50.740356
1766901716524,-0.6591797,0.2446289,-0.25341797,27.282715,-59.509277,34.606934,0.0,0.0,0.0,130.22644,73.6084,23.450317
1766901716612,-0.85302734,0.2446289,-0.55566406,23.864746,-33.38623,7.507324,0.0,0.0,0.0,130.22644,73.6084,23.450317
1766901716623,-0.85302734,0.2446289,-0.55566406,23.864746,-33.38623,7.507324,0.0,0.0,0.0,115.10925,75.01465,0.81848145
1766901716712,-0.9868164,0.10449219,-0.3203125,-35.339355,154.90723,-46.020508,0.0,0.0,0.0,115.10925,75.01465,0.81848145
1766901716723,-0.9868164,0.10449219,-0.3203125,-35.339355,154.90723,-46.020508,0.0,0.0,0.0,134.26392,71.83411,13.331909
1766901716812,-0.94140625,0.1796875,0.06689453,67.32178,-54.56543,10.803223,0.0,0.0,0.0,134.26392,71.83411,13.331909
1766901716823,-0.94140625,0.1796875,0.06689453,67.32178,-54.56543,10.803223,0.0,0.0,0.0,153.17688,65.22583,31.365967
1766901716911,-0.98779297,0.22314453,-0.3383789,31.738281,-40.83252,16.174316,0.0,0.0,0.0,153.17688,65.22583,31.365967
1766901716923,-0.98779297,0.22314453,-0.3383789,31.738281,-40.83252,16.174316,0.0,0.0,0.0,146.76636,69.45007,13.601074
1766901717011,-1.0561523,0.2553711,-0.3203125,-19.958496,5.1879883,-2.5024414,0.0,0.0,0.0,146.76636,69.45007,13.601074
1766901717022,-1.0561523,0.2553711,-0.3203125,-19.958496,5.1879883,-2.5024414,0.0,0.0,0.0,142.44324,70.64209,3.2684326
1766901717111,-1.1313477,0.2788086,-0.1303711,-20.263672,-60.791016,-17.63916,0.0,0.0,0.0,142.44324,70.64209,3.2684326
1766901717122,-1.1313477,0.2788086,-0.1303711,-20.263672,-60.791016,-17.63916,0.0,0.0,0.0,140.43823,72.21863,1.2524414
1766901717210,-0.69189453,-0.2421875,-0.25976562,26.062012,-46.63086,-27.09961,0.0,0.0,0.0,140.43823,72.21863,1.2524414
1766901717222,-0.69189453,-0.2421875,-0.25976562,26.062012,-46.63086,-27.09961,0.0,0.0,0.0,125.16174,77.51953,-19.885254
1766901717311,-1.0234375,0.14257812,-0.47021484,26.672363,37.597656,31.25,0.0,0.0,0.0,125.16174,77.51953,-19.885254
1766901717321,-1.0234375,0.14257812,-0.47021484,26.672363,37.597656,31.25,0.0,0.0,0.0,120.83862,79.0741,-32.612915
1766901717410,-0.984375,0.1171875,-0.080566406,-32.714844,164.18457,-44.37256,0.0,0.0,0.0,120.83862,79.0741,-32.612915
1766901717421,-0.984375,0.1171875,-0.080566406,-32.714844,164.18457,-44.37256,0.0,0.0,0.0,147.46399,69.99939,-10.596313
1766901717509,-0.9614258,0.072265625,-0.20361328,26.000977,-13.244629,2.5024414,0.0,0.0,0.0,147.46399,69.99939,-10.596313
1766901717525,-0.9614258,0.072265625,-0.20361328,26.000977,-13.244629,2.5024414,0.0,0.0,0.0,157.12646,69.0271,-1.9885254
1766901717609,-1.1679688,-0.034179688,-0.3623047,-19.042969,3.2958984,-21.850586,0.0,0.0,0.0,157.12646,69.0271,-1.9885254
1766901717621,-1.1679688,-0.034179688,-0.3623047,-19.042969,3.2958984,-21.850586,0.0,0.0,0.0,153.91846,71.553955,-10.524902
1766901717709,-1.2504883,0.20654297,0.056640625,15.625,-55.480957,15.136719,0.0,0.0,0.0,153.91846,71.553955,-10.524902
1766901717720,-1.2504883,0.20654297,0.056640625,15.625,-55.480957,15.136719,0.0,0.0,0.0,159.57642,71.916504,-9.508667
1766901717809,-0.59814453,0.115722656,-0.22851562,37.04834,-85.510254,37.841797,0.0,0.0,0.0,159.57642,71.916504,-9.508667
1766901717822,-0.59814453,0.115722656,-0.22851562,37.04834,-85.510254,37.841797,0.0,0.0,0.0,140.43823,76.70105,-40.407715
1766901717908,-0.95166016,0.25585938,-0.64453125,26.672363,-16.784668,8.728027,0.0,0.0,0.0,140.43823,76.70105,-40.407715
1766901717920,-0.95166016,0.25585938,-0.64453125,26.672363,-16.784668,8.728027,0.0,0.0,0.0,109.885254,79.40369,-78.40393
1766901718008,-0.9902344,0.022460938,-0.2705078,-68.17627,192.56592,-56.762695,0.0,0.0,0.0,109.885254,79.40369,-78.40393
1766901718019,-0.9902344,0.022460938,-0.2705078,-68.17627,192.56592,-56.762695,0.0,0.0,0.0,142.33337,75.01465,-51.712646
1766901718108,-0.91845703,0.12158203,-0.16308594,98.20557,-66.223145,18.859863,0.0,0.0,0.0,142.33337,75.01465,-51.712646
1766901718119,-0.91845703,0.12158203,-0.16308594,98.20557,-66.223145,18.859863,0.0,0.0,0.0,160.0653,68.91174,-35.090332
1766901718207,-0.9741211,0.13183594,-0.34033203,52.79541,-52.4292,27.893066,0.0,0.0,0.0,160.0653,68.91174,-35.090332
1766901718219,-0.9741211,0.13183594,-0.34033203,52.79541,-52.4292,27.893066,0.0,0.0,0.0,150.32593,73.811646,-56.99707
1766901718307,-1.0415039,0.30908203,-0.28857422,-7.5683594,16.357422,10.314941,0.0,0.0,0.0,150.32593,73.811646,-56.99707
1766901718319,-1.0415039,0.30908203,-0.28857422,-7.5683594,16.357422,10.314941,0.0,0.0,0.0,145.0415,73.56445,-70.60364
1766901718407,-1.1811523,0.24072266,-0.057128906,-23.010254,-61.950684,-3.2958984,0.0,0.0,0.0,145.0415,73.56445,-70.60364
1766901718418,-1.1811523,0.24072266,-0.057128906,-23.010254,-61.950684,-3.2958984,0.0,0.0,0.0,141.12488,74.262085,-76.39343
1766901718506,-0.7128906,-0.20996094,-0.28710938,19.16504,-62.13379,-13.427734,0.0,0.0,0.0,141.12488,74.262085,-76.39343
1766901718519,-0.7128906,-0.20996094,-0.28710938,19.16504,-62.13379,-13.427734,0.0,0.0,0.0,117.51526,79.035645,-106.45203
1766901718606,-1.0058594,0.115722656,-0.47460938,-1.5869141,47.912598,4.638672,0.0,0.0,0.0,117.51526,79.035645,-106.45203
1766901718618,-1.0058594,0.115722656,-0.47460938,-1.5869141,47.912598,4.638672,0.0,0.0,0.0,112.022095,81.89758,-106.24878
1766901718706,-1.1904297,0.265625,0.8779297,-142.08984,104.43115,-29.296875,0.0,0.0,0.0,112.022095,81.89758,-106.24878
1766901718717,-1.1904297,0.265625,0.8779297,-142.08984,104.43115,-29.296875,0.0,0.0,0.0,151.70471,72.76245,-59.348145
1766901718806,-1.003418,0.1381836,-0.21826172,4.3945312,2.6245117,-27.46582,0.0,0.0,0.0,151.70471,72.76245,-59.348145
1766901718817,-1.003418,0.1381836,-0.21826172,4.3945312,2.6245117,-27.46582,0.0,0.0,0.0,162.04285,75.79468,-53.640747
1766901718905,-1.2143555,-0.05810547,-0.30419922,-51.51367,49.01123,-11.657715,0.0,0.0,0.0,162.04285,75.79468,-53.640747
1766901718917,-1.2143555,-0.05810547,-0.30419922,-51.51367,49.01123,-11.657715,0.0,0.0,0.0,161.87805,75.07507,-56.436768
1766901719005,-1.2373047,0.119628906,-0.083984375,51.02539,-101.379395,17.76123,0.0,0.0,0.0,161.87805,75.07507,-56.436768
1766901719016,-1.2373047,0.119628906,-0.083984375,51.02539,-101.379395,17.76123,0.0,0.0,0.0,162.6471,77.15698,-62.017822
1766901719105,-0.6923828,0.095214844,-0.2758789,38.269043,-75.07324,40.039062,0.0,0.0,0.0,162.6471,77.15698,-62.017822
1766901719116,-0.6923828,0.095214844,-0.2758789,38.269043,-75.07324,40.039062,0.0,0.0,0.0,114.38965,81.56799,-109.9292
1766901719204,-0.89208984,0.27783203,-0.54833984,4.699707,-8.850098,6.958008,0.0,0.0,0.0,114.38965,81.56799,-109.9292
1766901719218,-0.89208984,0.27783203,-0.54833984,4.699707,-8.850098,6.958008,0.0,0.0,0.0,91.82373,81.87012,-127.298584
1766901719304,-1.0200195,-0.10449219,-0.2919922,-79.52881,181.88477,-78.79639,0.0,0.0,0.0,91.82373,81.87012,-127.298584
1766901719318,-1.0200195,-0.10449219,-0.2919922,-79.52881,181.88477,-78.79639,0.0,0.0,0.0,157.32971,79.27185,-54.404297
1766901719404,-0.8808594,0.053710938,-0.12402344,113.220215,-58.044434,38.208008,0.0,0.0,0.0,157.32971,79.27185,-54.404297
1766901719415,-0.8808594,0.053710938,-0.12402344,113.220215,-58.044434,38.208008,0.0,0.0,0.0,172.65564,74.174194,-38.078613
1766901719503,-0.99121094,0.2602539,-0.34814453,62.316895,-23.986816,49.682617,0.0,0.0,0.0,172.65564,74.174194,-38.078613
1766901719515,-0.99121094,0.2602539,-0.34814453,62.316895,-23.986816,49.682617,0.0,0.0,0.0,152.45728,77.003174,-63.858032
1766901719604,-1.0732422,0.2055664,-0.109375,-15.258789,55.114746,-5.126953,0.0,0.0,0.0,152.45728,77.003174,-63.858032
1766901719618,-1.0732422,0.2055664,-0.109375,-15.258789,55.114746,-5.126953,0.0,0.0,0.0,151.74866,73.30078,-61.80359
1766901719703,-1.1865234,0.2993164,-0.25634766,-13.549805,-102.66113,17.700195,0.0,0.0,0.0,151.74866,73.30078,-61.80359
1766901719714,-1.1865234,0.2993164,-0.25634766,-13.549805,-102.66113,17.700195,0.0,0.0,0.0,138.5376,76.54175,-68.23059
1766901719803,-0.69091797,-0.049804688,-0.35107422,-6.225586,-41.19873,2.319336,0.0,0.0,0.0,138.5376,76.54175,-68.23059
1766901719814,-0.69091797,-0.049804688,-0.35107422,-6.225586,-41.19873,2.319336,0.0,0.0,0.0,103.11218,79.38721,-99.07471
1766901719902,-0.99609375,-0.02734375,-0.42236328,-9.155273,68.603516,-17.27295,0.0,0.0,0.0,103.11218,79.38721,-99.07471
1766901719914,-0.99609375,-0.02734375,-0.42236328,-9.155273,68.603516,-17.27295,0.0,0.0,0.0,117.99866,80.85388,-86.66016
1766901720002,-1.1342773,0.51416016,0.67285156,-91.4917,109.069824,16.540527,0.0,0.0,0.0,117.99866,80.85388,-86.66016
1766901720013,-1.1342773,0.51416016,0.67285156,-91.4917,109.069824,16.540527,0.0,0.0,0.0,152.64404,70.268555,-48.823242
1766901720102,-0.9897461,0.17675781,-0.2680664,-21.54541,-17.700195,-24.169922,0.0,0.0,0.0,152.64404,70.268555,-48.823242
1766901720113,-0.9897461,0.17675781,-0.2680664,-21.54541,-17.700195,-24.169922,0.0,0.0,0.0,151.59485,70.477295,-45.543823
1766901720201,-1.0517578,0.09375,-0.3071289,-44.189453,29.968262,-25.756836,0.0,0.0,0.0,151.59485,70.477295,-45.543823
1766901720213,-1.0517578,0.09375,-0.3071289,-44.189453,29.968262,-25.756836,0.0,0.0,0.0,152.33643,70.999146,-38.82019
1766901720301,-1.1225586,0.13330078,-0.036621094,-14.221191,21.484375,-14.343262,0.0,0.0,0.0,152.33643,70.999146,-38.82019
1766901720314,-1.1225586,0.13330078,-0.036621094,-14.221191,21.484375,-14.343262,0.0,0.0,0.0,160.48279,69.49402,-25.438843
1766901720401,-1.0625,0.05126953,-0.31396484,51.940918,-85.81543,29.846191,0.0,0.0,0.0,160.48279,69.49402,-25.438843
1766901720413,-1.0625,0.05126953,-0.31396484,51.940918,-85.81543,29.846191,0.0,0.0,0.0,151.073,74.72351,-35.62317
1766901720500,-0.66796875,0.42236328,-0.38183594,-15.808105,-53.03955,-14.160156,0.0,0.0,0.0,151.073,74.72351,-35.62317
1766901720512,-0.66796875,0.42236328,-0.38183594,-15.808105,-53.03955,-14.160156,0.0,0.0,0.0,125.13977,78.78296,-66.24756
1766901720600,-1.0458984,-0.0625,-0.49853516,36.010742,54.260254,-4.5166016,0.0,0.0,0.0,125.13977,78.78296,-66.24756
1766901720612,-1.0458984,-0.0625,-0.49853516,36.010742,54.260254,-4.5166016,0.0,0.0,0.0,120.88257,78.24463,-73.01514
1766901720702,-1.0454102,0.1586914,-0.12109375,-34.5459,166.19873,-48.828125,0.0,0.0,0.0,120.88257,78.24463,-73.01514
1766901720711,-1.0454102,0.1586914,-0.12109375,-34.5459,166.19873,-48.828125,0.0,0.0,0.0,163.64136,69.16992,-28.31726
1766901720799,-1.0053711,0.23876953,-0.19970703,49.316406,-59.143066,41.137695,0.0,0.0,0.0,163.64136,69.16992,-28.31726
1766901720811,-1.0053711,0.23876953,-0.19970703,49.316406,-59.143066,41.137695,0.0,0.0,0.0,164.47083,68.19763,-26.729736
1766901720899,-1.0258789,0.19677734,-0.37939453,13.366699,-46.569824,22.338867,0.0,0.0,0.0,164.47083,68.19763,-26.729736
1766901720911,-1.0258789,0.19677734,-0.37939453,13.366699,-46.569824,22.338867,0.0,0.0,0.0,149.59534,73.59192,-46.532593
1766901720999,-1.1835938,0.33251953,-0.26220703,-71.10596,45.654297,-15.075684,0.0,0.0,0.0,149.59534,73.59192,-46.532593
1766901721011,-1.1835938,0.33251953,-0.26220703,-71.10596,45.654297,-15.075684,0.0,0.0,0.0,144.59106,73.27881,-52.772827
1766901721098,-0.8286133,0.03173828,-0.10449219,-21.972656,-45.654297,-11.352539,0.0,0.0,0.0,144.59106,73.27881,-52.772827
1766901721110,-0.8286133,0.03173828,-0.10449219,-21.972656,-45.654297,-11.352539,0.0,0.0,0.0,144.71191,73.32825,-47.005005
1766901721198,-0.9008789,-0.25585938,-0.37304688,54.260254,-78.308105,1.0986328,0.0,0.0,0.0,144.71191,73.32825,-47.005005
1766901721210,-0.9008789,-0.25585938,-0.37304688,54.260254,-78.308105,1.0986328,0.0,0.0,0.0,133.32458,79.98596,-64.89624
1766901721298,-0.85009766,0.3046875,-0.3515625,-3.7231445,114.62402,21.42334,0.0,0.0,0.0,133.32458,79.98596,-64.89624
1766901721310,-0.85009766,0.3046875,-0.3515625,-3.7231445,114.62402,21.42334,0.0,0.0,0.0,132.04468,76.552734,-74.069824
1766901721398,-1.0908203,0.12841797,0.32861328,-50.29297,100.76904,-16.723633,0.0,0.0,0.0,132.04468,76.552734,-74.069824
1766901721409,-1.0908203,0.12841797,0.32861328,-50.29297,100.76904,-16.723633,0.0,0.0,0.0,155.11047,65.4895,-47.246704
1766901721497,-1.1489258,0.052734375,-0.31298828,-7.8125,-68.0542,-4.5776367,0.0,0.0,0.0,155.11047,65.4895,-47.246704
1766901721509,-1.1489258,0.052734375,-0.31298828,-7.8125,-68.0542,-4.5776367,0.0,0.0,0.0,154.1217,67.961426,-45.126343
1766901721597,-1.0522461,0.171875,-0.3076172,-12.268066,-11.657715,-7.507324,0.0,0.0,0.0,154.1217,67.961426,-45.126343
1766901721608,-1.0522461,0.171875,-0.3076172,-12.268066,-11.657715,-7.507324,0.0,0.0,0.0,148.8208,72.784424,-52.19055
1766901721697,-0.99560547,-0.020019531,-0.17285156,32.104492,-26.000977,19.77539,0.0,0.0,0.0,148.8208,72.784424,-52.19055
1766901721708,-0.99560547,-0.020019531,-0.17285156,32.104492,-26.000977,19.77539,0.0,0.0,0.0,147.50244,73.39966,-57.266235
1766901721797,-0.67285156,0.31640625,-0.25830078,-1.159668,-53.833008,27.22168,0.0,0.0,0.0,147.50244,73.39966,-57.266235
1766901721812,-0.67285156,0.31640625,-0.25830078,-1.159668,-53.833008,27.22168,0.0,0.0,0.0,129.78699,75.39917,-82.353516
1766901721896,-0.9970703,-0.013183594,-0.43115234,39.367676,9.643555,8.911133,0.0,0.0,0.0,129.78699,75.39917,-82.353516
1766901721908,-0.9970703,-0.013183594,-0.43115234,39.367676,9.643555,8.911133,0.0,0.0,0.0,116.45508,75.39917,-100.2832
1766901721996,-0.97021484,0.32080078,-0.11279297,-19.53125,126.52588,-18.615723,0.0,0.0,0.0,116.45508,75.39917,-100.2832
1766901722007,-0.97021484,0.32080078,-0.11279297,-19.53125,126.52588,-18.615723,0.0,0.0,0.0,144.65149,70.92224,-73.76221
1766901722096,-0.93652344,0.28076172,-0.072753906,72.021484,-54.626465,33.26416,0.0,0.0,0.0,144.65149,70.92224,-73.76221
1766901722108,-0.93652344,0.28076172,-0.072753906,72.021484,-54.626465,33.26416,0.0,0.0,0.0,148.4198,67.4176,-70.982666
1766901722195,-1.0239258,0.31835938,-0.29638672,34.66797,-41.503906,19.40918,0.0,0.0,0.0,148.4198,67.4176,-70.982666
1766901722207,-1.0239258,0.31835938,-0.29638672,34.66797,-41.503906,19.40918,0.0,0.0,0.0,136.06018,70.82886,-90.30762
1766901722295,-1.2109375,0.46044922,-0.21582031,-59.692383,-9.094238,5.9814453,0.0,0.0,0.0,136.06018,70.82886,-90.30762
1766901722306,-1.2109375,0.46044922,-0.21582031,-59.692383,-9.094238,5.9814453,0.0,0.0,0.0,129.60022,71.015625,-98.6792
1766901722395,-0.8618164,0.114746094,-0.19726562,-36.987305,-41.381836,-17.028809,0.0,0.0,0.0,129.60022,71.015625,-98.6792
1766901722406,-0.8618164,0.114746094,-0.19726562,-36.987305,-41.381836,-17.028809,0.0,0.0,0.0,118.152466,73.16345,-107.37488
1766901722494,-0.8203125,-0.20654297,-0.25830078,37.65869,-28.198242,-27.282715,0.0,0.0,0.0,118.152466,73.16345,-107.37488
1766901722506,-0.8203125,-0.20654297,-0.25830078,37.65869,-28.198242,-27.282715,0.0,0.0,0.0,118.67432,77.266846,-113.219604
1766901722594,-0.94189453,0.3696289,-0.32470703,-12.878418,115.66162,25.756836,0.0,0.0,0.0,118.67432,77.266846,-113.219604
1766901722606,-0.94189453,0.3696289,-0.32470703,-12.878418,115.66162,25.756836,0.0,0.0,0.0,130.5011,72.13074,-106.831055
1766901722694,-0.9501953,0.07714844,0.17578125,-6.3476562,-9.643555,-11.535645,0.0,0.0,0.0,130.5011,72.13074,-106.831055
1766901722706,-0.9501953,0.07714844,0.17578125,-6.3476562,-9.643555,-11.535645,0.0,0.0,0.0,143.1958,67.13745,-88.68713
1766901722793,-1.0410156,0.13867188,-0.3388672,-27.282715,-17.822266,-3.6621094,0.0,0.0,0.0,143.1958,67.13745,-88.68713
1766901722805,-1.0410156,0.13867188,-0.3388672,-27.282715,-17.822266,-3.6621094,0.0,0.0,0.0,138.28491,70.44983,-92.39502
1766901722893,-1.1166992,0.109375,-0.16113281,-23.19336,31.738281,-30.334473,0.0,0.0,0.0,138.28491,70.44983,-92.39502
1766901722905,-1.1166992,0.109375,-0.16113281,-23.19336,31.738281,-30.334473,0.0,0.0,0.0,146.84326,70.36194,-82.50183
1766901722993,-1.1235352,0.16455078,-0.29296875,51.3916,-92.59033,37.231445,0.0,0.0,0.0,146.84326,70.36194,-82.50183
1766901723004,-1.1235352,0.16455078,-0.29296875,51.3916,-92.59033,37.231445,0.0,0.0,0.0,132.3468,74.833374,-101.09619
1766901723092,-0.5839844,0.21826172,-0.29882812,19.226074,-64.697266,26.916504,0.0,0.0,0.0,132.3468,74.833374,-101.09619
1766901723104,-0.5839844,0.21826172,-0.29882812,19.226074,-64.697266,26.916504,0.0,0.0,0.0,104.573364,75.66284,-137.94983
1766901723192,-1.0078125,0.09277344,-0.52246094,31.066895,54.992676,6.7749023,0.0,0.0,0.0,104.573364,75.66284,-137.94983
1766901723204,-1.0078125,0.09277344,-0.52246094,31.066895,54.992676,6.7749023,0.0,0.0,0.0,104.51843,74.888306,-143.4375
1766901723292,-1.2382812,0.26660156,0.55859375,-73.48633,178.77197,-62.683105,0.0,0.0,0.0,104.51843,74.888306,-143.4375
1766901723303,-1.2382812,0.26660156,0.55859375,-73.48633,178.77197,-62.683105,0.0,0.0,0.0,149.77661,68.59314,-97.32239
1766901723392,-1.0053711,0.17822266,-0.22998047,111.328125,-15.441895,38.879395,0.0,0.0,0.0,149.77661,68.59314,-97.32239
1766901723403,-1.0053711,0.17822266,-0.22998047,111.328125,-15.441895,38.879395,0.0,0.0,0.0,146.23901,71.92749,-105.754395
1766901723491,-0.9941406,0.3803711,-0.21484375,13.183594,3.6010742,23.4375,0.0,0.0,0.0,146.23901,71.92749,-105.754395
1766901723503,-0.9941406,0.3803711,-0.21484375,13.183594,3.6010742,23.4375,0.0,0.0,0.0,138.26843,71.28479,-121.36597
1766901723591,-1.2260742,0.3310547,-0.068847656,-50.231934,-41.381836,-9.155273,0.0,0.0,0.0,138.26843,71.28479,-121.36597
1766901723605,-1.2260742,0.3310547,-0.068847656,-50.231934,-41.381836,-9.155273,0.0,0.0,0.0,132.46216,72.04834,-127.65015
1766901723691,-0.82470703,-0.0146484375,-0.30859375,-18.798828,-47.424316,-23.68164,0.0,0.0,0.0,132.46216,72.04834,-127.65015
1766901723702,-0.82470703,-0.0146484375,-0.30859375,-18.798828,-47.424316,-23.68164,0.0,0.0,0.0,114.48303,76.415405,-146.27747
1766901723791,-0.9140625,-0.10595703,-0.3227539,1.953125,18.554688,-22.583008,0.0,0.0,0.0,114.48303,76.415405,-146.27747
1766901723802,-0.9140625,-0.10595703,-0.3227539,1.953125,18.554688,-22.583008,0.0,0.0,0.0,119.45984,79.573975,-147.10693
1766901723890,-0.94628906,0.39794922,-0.20117188,-40.58838,119.140625,33.691406,0.0,0.0,0.0,119.45984,79.573975,-147.10693
1766901723902,-0.94628906,0.39794922,-0.20117188,-40.58838,119.140625,33.691406,0.0,0.0,0.0,138.71338,73.39966,-132.62695
1766901723990,-0.9243164,0.049804688,-0.13623047,45.166016,-3.8452148,-28.503418,0.0,0.0,0.0,138.71338,73.39966,-132.62695
1766901724001,-0.9243164,0.049804688,-0.13623047,45.166016,-3.8452148,-28.503418,0.0,0.0,0.0,143.83301,71.33972,-126.43616
1766901724089,-1.0883789,0.09472656,-0.2705078,-30.212402,16.723633,-11.84082,0.0,0.0,0.0,143.83301,71.33972,-126.43616
1766901724101,-1.0883789,0.09472656,-0.2705078,-30.212402,16.723633,-11.84082,0.0,0.0,0.0,148.54065,72.32849,-123.28308
1766901724189,-1.1416016,0.05859375,-0.0034179688,-11.413574,-27.22168,-9.58252,0.0,0.0,0.0,148.54065,72.32849,-123.28308
1766901724201,-1.1416016,0.05859375,-0.0034179688,-11.413574,-27.22168,-9.58252,0.0,0.0,0.0,151.27075,72.93274,-121.190186
1766901724289,-1.1230469,0.064453125,-0.32714844,58.71582,-82.336426,37.41455,0.0,0.0,0.0,151.27075,72.93274,-121.190186
1766901724300,-1.1230469,0.064453125,-0.32714844,58.71582,-82.336426,37.41455,0.0,0.0,0.0,133.41797,78.167725,-145.09094
1766901724389,-0.57421875,0.26367188,-0.30908203,-6.8359375,-55.603027,1.2817383,0.0,0.0,0.0,133.41797,78.167725,-145.09094
1766901724400,-0.57421875,0.26367188,-0.30908203,-6.8359375,-55.603027,1.2817383,0.0,0.0,0.0,98.72864,78.17322,170.6012
1766901724488,-1.1196289,-0.07910156,-0.49316406,27.893066,79.22363,-18.676758,0.0,0.0,0.0,98.72864,78.17322,170.6012
1766901724500,-1.1196289,-0.07910156,-0.49316406,27.893066,79.22363,-18.676758,0.0,0.0,0.0,98.54187,77.525024,164.19067
1766901724588,-1.2885742,0.0048828125,0.87841797,-81.970215,-34.057617,-25.634766,0.0,0.0,0.0,98.54187,77.525024,164.19067
1766901724599,-1.2885742,0.0048828125,0.87841797,-81.970215,-34.057617,-25.634766,0.0,0.0,0.0,150.46326,72.60864,-140.42175
1766901724688,-0.93408203,0.118652344,-0.21044922,51.208496,-8.911133,37.841797,0.0,0.0,0.0,150.46326,72.60864,-140.42175
1766901724699,-0.93408203,0.118652344,-0.21044922,51.208496,-8.911133,37.841797,0.0,0.0,0.0,140.3009,75.28931,-160.44434
1766901724787,-1.1308594,0.375,-0.061523438,2.0751953,12.145996,21.484375,0.0,0.0,0.0,140.3009,75.28931,-160.44434
1766901724799,-1.1308594,0.375,-0.061523438,2.0751953,12.145996,21.484375,0.0,0.0,0.0,138.35083,73.22937,-170.56824
1766901724887,-1.1870117,0.32470703,-0.14404297,-30.822754,-73.913574,4.272461,0.0,0.0,0.0,138.35083,73.22937,-170.56824
1766901724899,-1.1870117,0.32470703,-0.14404297,-30.822754,-73.913574,4.272461,0.0,0.0,0.0,123.36548,74.73999,171.61743
1766901724987,-0.69921875,-0.021484375,-0.24316406,-27.404785,-19.104004,-12.817383,0.0,0.0,0.0,123.36548,74.73999,171.61743
1766901724998,-0.69921875,-0.021484375,-0.24316406,-27.404785,-19.104004,-12.817383,0.0,0.0,0.0,101.51367,77.13501,148.4143
1766901725087,-0.88964844,-0.1459961,-0.30908203,-4.3945312,37.841797,-19.104004,0.0,0.0,0.0,101.51367,77.13501,148.4143
1766901725099,-0.88964844,-0.1459961,-0.30908203,-4.3945312,37.841797,-19.104004,0.0,0.0,0.0,110.319214,79.73328,151.5564
1766901725186,-1.0527344,0.3515625,-0.1586914,-27.893066,113.64746,31.066895,0.0,0.0,0.0,110.319214,79.73328,151.5564
1766901725198,-1.0527344,0.3515625,-0.1586914,-27.893066,113.64746,31.066895,0.0,0.0,0.0,136.50513,73.756714,172.01843
1766901725286,-0.88671875,0.12841797,-0.17236328,14.282227,-5.554199,-5.7373047,0.0,0.0,0.0,136.50513,73.756714,172.01843
1766901725297,-0.88671875,0.12841797,-0.17236328,14.282227,-5.554199,-5.7373047,0.0,0.0,0.0,140.00977,70.60364,173.23242
1766901725386,-1.0864258,0.15576172,-0.24658203,-33.75244,22.705078,-14.953613,0.0,0.0,0.0,140.00977,70.60364,173.23242
1766901725397,-1.0864258,0.15576172,-0.24658203,-33.75244,22.705078,-14.953613,0.0,0.0,0.0,142.74536,70.999146,174.2102
1766901725486,-1.1699219,0.061523438,-0.060058594,-5.3100586,-36.68213,-10.437012,0.0,0.0,0.0,142.74536,70.999146,174.2102
1766901725497,-1.1699219,0.061523438,-0.060058594,-5.3100586,-36.68213,-10.437012,0.0,0.0,0.0,144.12964,72.388916,173.87512
1766901725585,-1.1489258,0.13769531,-0.33447266,50.78125,-74.46289,31.311035,0.0,0.0,0.0,144.12964,72.388916,173.87512
1766901725596,-1.1489258,0.13769531,-0.33447266,50.78125,-74.46289,31.311035,0.0,0.0,0.0,129.44092,76.55823,152.90222
1766901725685,-0.52978516,0.2548828,-0.25634766,17.333984,-34.5459,28.442383,0.0,0.0,0.0,129.44092,76.55823,152.90222
1766901725696,-0.52978516,0.2548828,-0.25634766,17.333984,-34.5459,28.442383,0.0,0.0,0.0,106.155396,75.805664,118.05908
1766901725786,-1.0625,0.061035156,-0.46728516,41.015625,44.86084,0.61035156,0.0,0.0,0.0,106.155396,75.805664,118.05908
1766901725796,-1.0625,0.061035156,-0.46728516,41.015625,44.86084,0.61035156,0.0,0.0,0.0,103.09021,74.591675,108.48999
1766901725886,-1.3300781,0.4091797,1.015625,-90.4541,79.04053,-37.719727,0.0,0.0,0.0,103.09021,74.591675,108.48999
1766901725896,-1.3300781,0.4091797,1.015625,-90.4541,79.04053,-37.719727,0.0,0.0,0.0,143.90991,70.8728,146.66199
1766901725985,-0.9667969,0.26220703,-0.23095703,38.146973,-14.160156,39.67285,0.0,0.0,0.0,143.90991,70.8728,146.66199
1766901725996,-0.9667969,0.26220703,-0.23095703,38.146973,-14.160156,39.67285,0.0,0.0,0.0,141.2732,72.405396,136.43921
1766901726084,-1.0375977,0.3383789,-0.018066406,-11.901855,8.056641,-2.319336,0.0,0.0,0.0,141.2732,72.405396,136.43921
1766901726098,-1.0375977,0.3383789,-0.018066406,-11.901855,8.056641,-2.319336,0.0,0.0,0.0,138.63098,71.10901,127.282104
1766901726183,-1.2490234,0.3876953,-0.29589844,-32.836914,-61.09619,5.493164,0.0,0.0,0.0,138.63098,71.10901,127.282104
1766901726195,-1.2490234,0.3876953,-0.29589844,-32.836914,-61.09619,5.493164,0.0,0.0,0.0,128.2544,73.71826,114.14795
1766901726283,-0.7109375,-0.04296875,-0.26171875,-23.31543,1.2817383,-18.981934,0.0,0.0,0.0,128.2544,73.71826,114.14795
1766901726295,-0.7109375,-0.04296875,-0.26171875,-23.31543,1.2817383,-18.981934,0.0,0.0,0.0,113.58215,75.97595,99.12964
1766901726383,-0.9370117,-0.12451172,-0.23291016,15.441895,39.489746,-4.4555664,0.0,0.0,0.0,113.58215,75.97595,99.12964
1766901726394,-0.9370117,-0.12451172,-0.23291016,15.441895,39.489746,-4.4555664,0.0,0.0,0.0,129.34753,76.43738,109.31946
1766901726483,-0.9995117,0.3569336,0.049804688,-17.028809,34.66797,62.316895,0.0,0.0,0.0,129.34753,76.43738,109.31946
1766901726494,-0.9995117,0.3569336,0.049804688,-17.028809,34.66797,62.316895,0.0,0.0,0.0,137.06543,71.015625,108.86902
1766901726582,-0.84277344,0.15527344,-0.1953125,-0.8544922,4.0283203,-16.967773,0.0,0.0,0.0,137.06543,71.015625,108.86902
1766901726594,-0.84277344,0.15527344,-0.1953125,-0.8544922,4.0283203,-16.967773,0.0,0.0,0.0,139.32861,69.52698,107.30896
1766901726682,-1.0839844,0.14404297,-0.26953125,-49.743652,20.080566,-15.74707,0.0,0.0,0.0,139.32861,69.52698,107.30896
1766901726693,-1.0839844,0.14404297,-0.26953125,-49.743652,20.080566,-15.74707,0.0,0.0,0.0,143.07495,69.86206,111.049805
1766901726781,-1.1318359,0.04736328,-0.016113281,-14.831543,-30.517578,-24.963379,0.0,0.0,0.0,143.07495,69.86206,111.049805
1766901726793,-1.1318359,0.04736328,-0.016113281,-14.831543,-30.517578,-24.963379,0.0,0.0,0.0,147.33765,71.49902,115.30701
1766901726881,-1.1113281,0.15527344,-0.32177734,48.828125,-72.87598,31.677246,0.0,0.0,0.0,147.33765,71.49902,115.30701
1766901726893,-1.1113281,0.15527344,-0.32177734,48.828125,-72.87598,31.677246,0.0,0.0,0.0,128.91357,76.21765,89.20349
1766901726981,-0.58984375,0.25683594,-0.25927734,-6.4086914,-32.470703,1.953125,0.0,0.0,0.0,128.91357,76.21765,89.20349
1766901726993,-0.58984375,0.25683594,-0.25927734,-6.4086914,-32.470703,1.953125,0.0,0.0,0.0,109.48425,76.10779,61.00708
1766901727081,-1.078125,-0.068847656,-0.39208984,22.338867,73.48633,-26.855469,0.0,0.0,0.0,109.48425,76.10779,61.00708
1766901727093,-1.078125,-0.068847656,-0.39208984,22.338867,73.48633,-26.855469,0.0,0.0,0.0,118.31177,75.22339,63.29773
1766901727181,-1.1762695,0.12402344,0.6098633,-27.526855,-7.446289,-12.084961,0.0,0.0,0.0,118.31177,75.22339,63.29773
1766901727193,-1.1762695,0.12402344,0.6098633,-27.526855,-7.446289,-12.084961,0.0,0.0,0.0,152.86926,70.252075,99.44275
1766901727280,-0.94433594,0.13720703,-0.2709961,37.841797,-34.057617,38.757324,0.0,0.0,0.0,152.86926,70.252075,99.44275
1766901727292,-0.94433594,0.13720703,-0.2709961,37.841797,-34.057617,38.757324,0.0,0.0,0.0,146.12366,72.27905,82.53479
1766901727380,-1.0620117,0.38964844,-0.27441406,-9.887695,13.183594,10.925293,0.0,0.0,0.0,146.12366,72.27905,82.53479
1766901727391,-1.0620117,0.38964844,-0.27441406,-9.887695,13.183594,10.925293,0.0,0.0,0.0,141.45447,71.82861,70.75195
1766901727479,-1.1293945,0.24804688,-0.17919922,-14.953613,-66.52832,-0.18310547,0.0,0.0,0.0,141.45447,71.82861,70.75195
1766901727491,-1.1293945,0.24804688,-0.17919922,-14.953613,-66.52832,-0.18310547,0.0,0.0,0.0,132.28088,73.45459,60.78186
1766901727579,-0.6791992,-0.051757812,-0.2626953,-2.9296875,-15.319824,-11.169434,0.0,0.0,0.0,132.28088,73.45459,60.78186
1766901727591,-0.6791992,-0.051757812,-0.2626953,-2.9296875,-15.319824,-11.169434,0.0,0.0,0.0,118.740234,75.99243,44.483643
1766901727679,-1.0249023,0.009765625,-0.3881836,-0.48828125,40.222168,-3.4179688,0.0,0.0,0.0,118.740234,75.99243,44.483643
1766901727690,-1.0249023,0.009765625,-0.3881836,-0.48828125,40.222168,-3.4179688,0.0,0.0,0.0,127.595215,76.31653,46.516113
1766901727778,-1.027832,0.37548828,0.4033203,-59.692383,83.12988,24.719238,0.0,0.0,0.0,127.595215,76.31653,46.516113
1766901727790,-1.027832,0.37548828,0.4033203,-59.692383,83.12988,24.719238,0.0,0.0,0.0,142.68494,68.3844,57.79358
1766901727878,-0.9355469,0.1538086,-0.2548828,-15.991211,-20.141602,-13.061523,0.0,0.0,0.0,142.68494,68.3844,57.79358
1766901727890,-0.9355469,0.1538086,-0.2548828,-15.991211,-20.141602,-13.061523,0.0,0.0,0.0,140.35583,69.32373,53.190308
1766901727978,-1.0952148,0.16845703,-0.30908203,-29.296875,22.216797,-22.094727,0.0,0.0,0.0,140.35583,69.32373,53.190308
1766901727989,-1.0952148,0.16845703,-0.30908203,-29.296875,22.216797,-22.094727,0.0,0.0,0.0,142.8003,70.40588,53.948364
1766901728078,-1.3564453,0.14746094,0.25585938,-4.9438477,-74.89014,-4.4555664,0.0,0.0,0.0,142.8003,70.40588,53.948364
1766901728092,-1.3564453,0.14746094,0.25585938,-4.9438477,-74.89014,-4.4555664,0.0,0.0,0.0,144.4043,71.35071,54.49768
1766901728178,-0.65625,0.17285156,-0.23876953,34.179688,-89.96582,48.461914,0.0,0.0,0.0,144.4043,71.35071,54.49768
1766901728189,-0.65625,0.17285156,-0.23876953,34.179688,-89.96582,48.461914,0.0,0.0,0.0,112.159424,75.4541,12.44751
1766901728277,-0.9458008,0.33691406,-0.5908203,20.751953,-15.869141,2.380371,0.0,0.0,0.0,112.159424,75.4541,12.44751
1766901728288,-0.9458008,0.33691406,-0.5908203,20.751953,-15.869141,2.380371,0.0,0.0,0.0,91.02722,74.800415,-15.314941
1766901728377,-1.0131836,0.04296875,-0.03515625,-33.996582,200.31738,-54.748535,0.0,0.0,0.0,91.02722,74.800415,-15.314941
1766901728388,-1.0131836,0.04296875,-0.03515625,-33.996582,200.31738,-54.748535,0.0,0.0,0.0,129.77051,71.90552,18.259277
1766901728477,-0.9316406,0.15625,-0.23388672,143.85986,-12.451172,30.456543,0.0,0.0,0.0,129.77051,71.90552,18.259277
1766901728488,-0.9316406,0.15625,-0.23388672,143.85986,-12.451172,30.456543,0.0,0.0,0.0,134.46167,73.11951,16.495972
1766901728576,-1.0205078,0.56689453,-0.18066406,1.2817383,10.253906,-0.91552734,0.0,0.0,0.0,134.46167,73.11951,16.495972
1766901728588,-1.0205078,0.56689453,-0.18066406,1.2817383,10.253906,-0.91552734,0.0,0.0,0.0,132.00073,71.94397,5.9381104
1766901728676,-1.168457,0.3803711,-0.07470703,-36.010742,-57.373047,10.314941,0.0,0.0,0.0,132.00073,71.94397,5.9381104
1766901728687,-1.168457,0.3803711,-0.07470703,-36.010742,-57.373047,10.314941,0.0,0.0,0.0,118.66882,73.26782,-9.266968
1766901728776,-0.8261719,0.028320312,-0.26611328,-57.495117,6.8969727,-25.20752,0.0,0.0,0.0,118.66882,73.26782,-9.266968
1766901728787,-0.8261719,0.028320312,-0.26611328,-57.495117,6.8969727,-25.20752,0.0,0.0,0.0,102.46399,75.24536,-25.350952
1766901728875,-0.9267578,-0.23730469,-0.19042969,5.79834,38.879395,-25.817871,0.0,0.0,0.0,102.46399,75.24536,-25.350952
1766901728887,-0.9267578,-0.23730469,-0.19042969,5.79834,38.879395,-25.817871,0.0,0.0,0.0,117.68555,76.953735,-13.117676
1766901728975,-1.0805664,0.49121094,-0.0859375,18.615723,32.592773,63.842773,0.0,0.0,0.0,117.68555,76.953735,-13.117676
1766901728987,-1.0805664,0.49121094,-0.0859375,18.615723,32.592773,63.842773,0.0,0.0,0.0,128.62244,73.47107,-11.343384
1766901729075,-0.88378906,0.1171875,-0.14257812,-3.3569336,0.36621094,-8.117676,0.0,0.0,0.0,128.62244,73.47107,-11.343384
1766901729086,-0.88378906,0.1171875,-0.14257812,-3.3569336,0.36621094,-8.117676,0.0,0.0,0.0,128.46313,70.91675,-16.177368
1766901729174,-1.0878906,0.10058594,-0.107421875,-33.569336,2.5024414,-27.038574,0.0,0.0,0.0,128.46313,70.91675,-16.177368
1766901729186,-1.0878906,0.10058594,-0.107421875,-33.569336,2.5024414,-27.038574,0.0,0.0,0.0,133.09937,72.663574,-12.650757
1766901729274,-1.0869141,0.1484375,0.030273438,-5.065918,-29.60205,21.240234,0.0,0.0,0.0,133.09937,72.663574,-12.650757
1766901729286,-1.0869141,0.1484375,0.030273438,-5.065918,-29.60205,21.240234,0.0,0.0,0.0,129.78699,73.50952,-17.869263
1766901729374,-0.94677734,0.17773438,-0.27148438,54.93164,-40.222168,19.226074,0.0,0.0,0.0,129.78699,73.50952,-17.869263
1766901729385,-0.94677734,0.17773438,-0.27148438,54.93164,-40.222168,19.226074,0.0,0.0,0.0,115.75745,74.73999,-38.567505
1766901729474,-0.7402344,0.43652344,-0.375,-25.939941,-22.521973,-12.6953125,0.0,0.0,0.0,115.75745,74.73999,-38.567505
1766901729485,-0.7402344,0.43652344,-0.375,-25.939941,-22.521973,-12.6953125,0.0,0.0,0.0,104.93591,74.37744,-57.60132
1766901729573,-1.0625,-0.026855469,-0.3046875,-34.79004,101.92871,-41.68701,0.0,0.0,0.0,104.93591,74.37744,-57.60132
1766901729585,-1.0625,-0.026855469,-0.3046875,-34.79004,101.92871,-41.68701,0.0,0.0,0.0,116.78467,73.10303,-51.707153
1766901729673,-0.8652344,0.23144531,-4.8828125E-4,87.34131,-52.4292,20.568848,0.0,0.0,0.0,116.78467,73.10303,-51.707153
1766901729685,-0.8652344,0.23144531,-4.8828125E-4,87.34131,-52.4292,20.568848,0.0,0.0,0.0,136.2854,71.58142,-35.112305
1766901729773,-0.90527344,0.41601562,-0.29785156,19.348145,9.70459,5.9814453,0.0,0.0,0.0,136.2854,71.58142,-35.112305
1766901729784,-0.90527344,0.41601562,-0.29785156,19.348145,9.70459,5.9814453,0.0,0.0,0.0,127.891846,72.25159,-51.723633
1766901729873,-1.1796875,0.35351562,0.28466797,-25.939941,-15.319824,-13.305664,0.0,0.0,0.0,127.891846,72.25159,-51.723633
1766901729884,-1.1796875,0.35351562,0.28466797,-25.939941,-15.319824,-13.305664,0.0,0.0,0.0,133.01697,70.88379,-49.658203
1766901729973,-1.1733398,0.32666016,-0.20458984,-20.812988,-56.518555,-9.70459,0.0,0.0,0.0,133.01697,70.88379,-49.658203
1766901729984,-1.1733398,0.32666016,-0.20458984,-20.812988,-56.518555,-9.70459,0.0,0.0,0.0,120.78369,74.05884,-64.819336
1766901730072,-0.74658203,-0.072753906,-0.26220703,-12.268066,-23.864746,-12.329102,0.0,0.0,0.0,120.78369,74.05884,-64.819336
1766901730083,-0.74658203,-0.072753906,-0.26220703,-12.268066,-23.864746,-12.329102,0.0,0.0,0.0,104.573364,76.05286,-83.117065
1766901730171,-0.9482422,0.07080078,-0.35058594,-3.90625,51.940918,1.4038086,0.0,0.0,0.0,104.573364,76.05286,-83.117065
1766901730183,-0.9482422,0.07080078,-0.35058594,-3.90625,51.940918,1.4038086,0.0,0.0,0.0,107.545166,77.63489,-85.72632
1766901730272,-0.9848633,0.27197266,0.18945312,-50.842285,89.84375,4.9438477,0.0,0.0,0.0,107.545166,77.63489,-85.72632
1766901730283,-0.9848633,0.27197266,0.18945312,-50.842285,89.84375,4.9438477,0.0,0.0,0.0,131.0669,71.09802,-66.22009
1766901730371,-0.95214844,0.1328125,-0.21386719,-14.404297,-11.779785,-18.737793,0.0,0.0,0.0,131.0669,71.09802,-66.22009
1766901730382,-0.95214844,0.1328125,-0.21386719,-14.404297,-11.779785,-18.737793,0.0,0.0,0.0,135.4834,71.35071,-63.02307
1766901730471,-1.112793,0.1352539,-0.033691406,-33.325195,14.587402,-20.202637,0.0,0.0,0.0,135.4834,71.35071,-63.02307
1766901730486,-1.112793,0.1352539,-0.033691406,-33.325195,14.587402,-20.202637,0.0,0.0,0.0,138.99353,72.213135,-59.96338
1766901730570,-1.0991211,0.07861328,0.023925781,-8.483887,-44.86084,-7.873535,0.0,0.0,0.0,138.99353,72.213135,-59.96338
1766901730582,-1.0991211,0.07861328,0.023925781,-8.483887,-44.86084,-7.873535,0.0,0.0,0.0,136.86218,75.563965,-63.605347
1766901730670,-1.1391602,-0.001953125,-0.32080078,71.77734,-63.23242,24.963379,0.0,0.0,0.0,136.86218,75.563965,-63.605347
1766901730685,-1.1391602,-0.001953125,-0.32080078,71.77734,-63.23242,24.963379,0.0,0.0,0.0,111.18713,79.39819,-96.9104
1766901730771,-0.4609375,0.34960938,-0.19628906,6.5307617,-17.822266,16.418457,0.0,0.0,0.0,111.18713,79.39819,-96.9104
1766901730782,-0.4609375,0.34960938,-0.19628906,6.5307617,-17.822266,16.418457,0.0,0.0,0.0,93.33984,77.08557,-126.33179
1766901730870,-1.0761719,0.0053710938,-0.46484375,40.039062,45.47119,-15.014648,0.0,0.0,0.0,93.33984,77.08557,-126.33179
1766901730882,-1.0761719,0.0053710938,-0.46484375,40.039062,45.47119,-15.014648,0.0,0.0,0.0,95.16907,76.448364,-130.05066
1766901730969,-1.3413086,0.23828125,1.0517578,-64.7583,54.382324,-15.930176,0.0,0.0,0.0,95.16907,76.448364,-130.05066
1766901730981,-1.3413086,0.23828125,1.0517578,-64.7583,54.382324,-15.930176,0.0,0.0,0.0,144.36584,73.62488,-82.2052
1766901731069,-0.96435547,0.25341797,-0.2841797,38.69629,-31.37207,56.762695,0.0,0.0,0.0,144.36584,73.62488,-82.2052
1766901731081,-0.96435547,0.25341797,-0.2841797,38.69629,-31.37207,56.762695,0.0,0.0,0.0,130.83618,74.69055,-108.341675
1766901731169,-0.9995117,0.38134766,-0.20019531,-1.159668,34.362793,12.939453,0.0,0.0,0.0,130.83618,74.69055,-108.341675
1766901731182,-0.9995117,0.38134766,-0.20019531,-1.159668,34.362793,12.939453,0.0,0.0,0.0,131.34705,72.43286,-116.05957
1766901731268,-1.1962891,0.33007812,-0.09277344,-7.2631836,-78.063965,16.906738,0.0,0.0,0.0,131.34705,72.43286,-116.05957
1766901731280,-1.1962891,0.33007812,-0.09277344,-7.2631836,-78.063965,16.906738,0.0,0.0,0.0,117.08679,74.13025,-133.32458
1766901731368,-0.68408203,0.023925781,-0.26660156,-31.921387,0.79345703,-8.728027,0.0,0.0,0.0,117.08679,74.13025,-133.32458
1766901731379,-0.68408203,0.023925781,-0.26660156,-31.921387,0.79345703,-8.728027,0.0,0.0,0.0,98.76709,75.50903,-154.23157
1766901731468,-1.0415039,-0.16357422,-0.2626953,-3.540039,67.13867,-28.686523,0.0,0.0,0.0,98.76709,75.50903,-154.23157
1766901731480,-1.0415039,-0.16357422,-0.2626953,-3.540039,67.13867,-28.686523,0.0,0.0,0.0,118.23486,76.744995,-136.80176
1766901731568,-0.8989258,0.34570312,0.0034179688,3.1738281,17.333984,69.58008,0.0,0.0,0.0,118.23486,76.744995,-136.80176
1766901731579,-0.8989258,0.34570312,0.0034179688,3.1738281,17.333984,69.58008,0.0,0.0,0.0,125.38147,71.5979,-133.28613
1766901731667,-0.8769531,0.059570312,-0.19970703,-21.240234,35.88867,-24.597168,0.0,0.0,0.0,125.38147,71.5979,-133.28613
1766901731679,-0.8769531,0.059570312,-0.19970703,-21.240234,35.88867,-24.597168,0.0,0.0,0.0,132.50061,71.2738,-130.4242
1766901731767,-1.1918945,0.111816406,-0.1484375,-25.024414,-5.9814453,-11.413574,0.0,0.0,0.0,132.50061,71.2738,-130.4242
1766901731778,-1.1918945,0.111816406,-0.1484375,-25.024414,-5.9814453,-11.413574,0.0,0.0,0.0,137.58179,71.691284,-127.13379
1766901731867,-1.0825195,0.123046875,-9.765625E-4,4.1503906,-36.254883,-2.9296875,0.0,0.0,0.0,137.58179,71.691284,-127.13379
1766901731878,-1.0825195,0.123046875,-9.765625E-4,4.1503906,-36.254883,-2.9296875,0.0,0.0,0.0,136.00525,74.10278,-133.6377
1766901731966,-0.9394531,0.14160156,-0.26660156,39.916992,-70.06836,28.320312,0.0,0.0,0.0,136.00525,74.10278,-133.6377
1766901731978,-0.9394531,0.14160156,-0.26660156,39.916992,-70.06836,28.320312,0.0,0.0,0.0,112.439575,76.4978,-166.8988
1766901732066,-0.7109375,0.44482422,-0.38183594,-26.855469,-26.123047,-8.850098,0.0,0.0,0.0,112.439575,76.4978,-166.8988
1766901732078,-0.7109375,0.44482422,-0.38183594,-26.855469,-26.123047,-8.850098,0.0,0.0,0.0,92.82898,75.877075,165.25085
1766901732166,-1.0620117,-0.018554688,-0.3330078,-17.944336,109.436035,-41.259766,0.0,0.0,0.0,92.82898,75.877075,165.25085
1766901732177,-1.0620117,-0.018554688,-0.3330078,-17.944336,109.436035,-41.259766,0.0,0.0,0.0,107.25403,74.9707,172.55676
1766901732265,-0.85839844,0.091308594,-0.0053710938,68.237305,-66.89453,14.343262,0.0,0.0,0.0,107.25403,74.9707,172.55676
1766901732277,-0.85839844,0.091308594,-0.0053710938,68.237305,-66.89453,14.343262,0.0,0.0,0.0,133.25867,74.64661,-161.91101
1766901732365,-0.8964844,0.25830078,-0.21679688,41.3208,0.79345703,28.503418,0.0,0.0,0.0,133.25867,74.64661,-161.91101
1766901732378,-0.8964844,0.25830078,-0.21679688,41.3208,0.79345703,28.503418,0.0,0.0,0.0,130.43518,73.69629,-176.92932
1766901732465,-1.1430664,0.3779297,0.04345703,-3.2958984,-36.132812,9.82666,0.0,0.0,0.0,130.43518,73.69629,-176.92932
1766901732476,-1.1430664,0.3779297,0.04345703,-3.2958984,-36.132812,9.82666,0.0,0.0,0.0,128.57849,73.35022,175.83618
1766901732565,-1.1708984,0.29345703,-0.29736328,-48.15674,-48.40088,-7.6293945,0.0,0.0,0.0,128.57849,73.35022,175.83618
1766901732576,-1.1708984,0.29345703,-0.29736328,-48.15674,-48.40088,-7.6293945,0.0,0.0,0.0,105.54016,75.580444,150.28198
1766901732664,-0.6489258,-0.19824219,-0.17333984,-2.4414062,27.282715,-38.513184,0.0,0.0,0.0,105.54016,75.580444,150.28198
1766901732676,-0.6489258,-0.19824219,-0.17333984,-2.4414062,27.282715,-38.513184,0.0,0.0,0.0,104.18884,77.3053,146.53564
1766901732764,-1.0742188,0.2133789,-0.32226562,31.61621,40.893555,24.963379,0.0,0.0,0.0,104.18884,77.3053,146.53564
1766901732776,-1.0742188,0.2133789,-0.32226562,31.61621,40.893555,24.963379,0.0,0.0,0.0,125.80994,76.72302,160.01038
1766901732864,-0.9277344,0.18408203,0.2783203,-29.11377,29.47998,0.8544922,0.0,0.0,0.0,125.80994,76.72302,160.01038
1766901732875,-0.9277344,0.18408203,0.2783203,-29.11377,29.47998,0.8544922,0.0,0.0,0.0,136.53809,69.77966,166.53076
1766901732964,-0.9477539,0.106933594,-0.23876953,-28.320312,2.9296875,-4.8217773,0.0,0.0,0.0,136.53809,69.77966,166.53076
1766901732975,-0.9477539,0.106933594,-0.23876953,-28.320312,2.9296875,-4.8217773,0.0,0.0,0.0,139.5813,71.16943,166.43188
1766901733063,-1.1821289,0.047851562,-0.095214844,-31.25,10.681152,-20.263672,0.0,0.0,0.0,139.5813,71.16943,166.43188
1766901733075,-1.1821289,0.047851562,-0.095214844,-31.25,10.681152,-20.263672,0.0,0.0,0.0,141.07544,71.37268,166.64612
1766901733163,-1.1855469,0.15820312,-0.15332031,27.832031,-83.37402,18.676758,0.0,0.0,0.0,141.07544,71.37268,166.64612
1766901733174,-1.1855469,0.15820312,-0.15332031,27.832031,-83.37402,18.676758,0.0,0.0,0.0,134.64844,74.65759,155.13794
1766901733263,-0.60791016,0.17578125,-0.22070312,44.067383,-49.1333,28.564453,0.0,0.0,0.0,134.64844,74.65759,155.13794
1766901733274,-0.60791016,0.17578125,-0.22070312,44.067383,-49.1333,28.564453,0.0,0.0,0.0,110.78064,75.547485,119.0863
1766901733362,-0.97753906,0.35888672,-0.5205078,27.09961,6.164551,9.094238,0.0,0.0,0.0,110.78064,75.547485,119.0863
1766901733374,-0.97753906,0.35888672,-0.5205078,27.09961,6.164551,9.094238,0.0,0.0,0.0,101.34888,74.86084,102.36511
1766901733462,-1.0078125,0.037597656,-0.14697266,-45.898438,166.99219,-65.7959,0.0,0.0,0.0,101.34888,74.86084,102.36511
1766901733473,-1.0078125,0.037597656,-0.14697266,-45.898438,166.99219,-65.7959,0.0,0.0,0.0,132.1106,72.5647,127.88086
1766901733562,-0.94873047,0.2915039,-0.20654297,95.64209,-21.728516,32.714844,0.0,0.0,0.0,132.1106,72.5647,127.88086
1766901733573,-0.94873047,0.2915039,-0.20654297,95.64209,-21.728516,32.714844,0.0,0.0,0.0,137.59827,73.152466,128.50159
1766901733661,-1.0288086,0.3334961,-0.22509766,3.0517578,25.024414,2.8076172,0.0,0.0,0.0,137.59827,73.152466,128.50159
1766901733673,-1.0288086,0.3334961,-0.22509766,3.0517578,25.024414,2.8076172,0.0,0.0,0.0,134.14307,72.11426,118.00964
1766901733761,-1.1518555,0.37597656,-0.024902344,-2.0751953,-56.152344,8.483887,0.0,0.0,0.0,134.14307,72.11426,118.00964
1766901733773,-1.1518555,0.37597656,-0.024902344,-2.0751953,-56.152344,8.483887,0.0,0.0,0.0,130.72632,72.65259,112.0166
1766901733861,-0.8491211,0.08691406,-0.28759766,-26.245117,-26.367188,-12.207031,0.0,0.0,0.0,130.72632,72.65259,112.0166
1766901733872,-0.8491211,0.08691406,-0.28759766,-26.245117,-26.367188,-12.207031,0.0,0.0,0.0,110.77515,75.42114,89.642944
1766901733961,-0.8876953,-0.17138672,-0.2836914,13.305664,24.536133,-23.19336,0.0,0.0,0.0,110.77515,75.42114,89.642944
1766901733973,-0.8876953,-0.17138672,-0.2836914,13.305664,24.536133,-23.19336,0.0,0.0,0.0,116.00464,77.11304,89.16504
1766901734060,-1.0419922,0.4091797,-0.29492188,2.6855469,82.58057,52.67334,0.0,0.0,0.0,116.00464,77.11304,89.16504
1766901734072,-1.0419922,0.4091797,-0.29492188,2.6855469,82.58057,52.67334,0.0,0.0,0.0,129.51233,72.68005,94.422
1766901734160,-0.85791016,0.08544922,-0.041015625,24.047852,-7.1411133,-7.019043,0.0,0.0,0.0,129.51233,72.68005,94.422
1766901734171,-0.85791016,0.08544922,-0.041015625,24.047852,-7.1411133,-7.019043,0.0,0.0,0.0,140.04822,67.95593,103.375854
1766901734260,-1.0883789,0.1616211,-0.30029297,-32.77588,10.559082,-19.592285,0.0,0.0,0.0,140.04822,67.95593,103.375854
1766901734271,-1.0883789,0.1616211,-0.30029297,-32.77588,10.559082,-19.592285,0.0,0.0,0.0,140.65796,69.85657,101.8927
1766901734359,-1.1259766,0.11425781,0.103027344,-6.713867,-33.569336,-6.0424805,0.0,0.0,0.0,140.65796,69.85657,101.8927
1766901734371,-1.1259766,0.11425781,0.103027344,-6.713867,-33.569336,-6.0424805,0.0,0.0,0.0,145.06348,70.45532,105.10071
1766901734459,-1.027832,0.15527344,-0.3100586,49.37744,-74.035645,25.57373,0.0,0.0,0.0,145.06348,70.45532,105.10071
1766901734470,-1.027832,0.15527344,-0.3100586,49.37744,-74.035645,25.57373,0.0,0.0,0.0,130.578,75.009155,82.90283
1766901734559,-0.63378906,0.42529297,-0.3125,-34.606934,-22.155762,-1.4038086,0.0,0.0,0.0,130.578,75.009155,82.90283
1766901734570,-0.63378906,0.42529297,-0.3125,-34.606934,-22.155762,-1.4038086,0.0,0.0,0.0,112.86255,75.6189,56.782837
1766901734658,-1.1201172,-0.08984375,-0.4765625,43.5791,51.51367,-21.30127,0.0,0.0,0.0,112.86255,75.6189,56.782837
1766901734670,-1.1201172,-0.08984375,-0.4765625,43.5791,51.51367,-21.30127,0.0,0.0,0.0,109.58862,74.86633,46.604004
1766901734758,-1.3056641,0.3935547,1.0268555,-52.368164,14.343262,-4.333496,0.0,0.0,0.0,109.58862,74.86633,46.604004
1766901734770,-1.3056641,0.3935547,1.0268555,-52.368164,14.343262,-4.333496,0.0,0.0,0.0,150.17212,69.3512,85.36926
1766901734859,-0.9326172,0.15185547,-0.25732422,16.113281,-18.371582,24.597168,0.0,0.0,0.0,150.17212,69.3512,85.36926
1766901734869,-0.9326172,0.15185547,-0.25732422,16.113281,-18.371582,24.597168,0.0,0.0,0.0,143.50891,71.83411,72.49878
1766901734958,-1.0737305,0.36083984,-0.24316406,-18.737793,-6.164551,14.6484375,0.0,0.0,0.0,143.50891,71.83411,72.49878
1766901734969,-1.0737305,0.36083984,-0.24316406,-18.737793,-6.164551,14.6484375,0.0,0.0,0.0,138.74084,72.25159,62.95166
1766901735058,-1.2631836,0.27783203,-0.06591797,-33.38623,-78.36914,3.90625,0.0,0.0,0.0,138.74084,72.25159,62.95166
1766901735069,-1.2631836,0.27783203,-0.06591797,-33.38623,-78.36914,3.90625,0.0,0.0,0.0,123.5907,73.98193,47.11487
1766901735157,-0.6279297,-0.041015625,-0.23095703,-14.099121,-3.4179688,-15.258789,0.0,0.0,0.0,123.5907,73.98193,47.11487
1766901735169,-0.6279297,-0.041015625,-0.23095703,-14.099121,-3.4179688,-15.258789,0.0,0.0,0.0,107.3584,76.11328,28.47107
1766901735257,-0.93603516,-0.13427734,-0.25390625,6.713867,51.574707,-7.873535,0.0,0.0,0.0,107.3584,76.11328,28.47107
1766901735268,-0.93603516,-0.13427734,-0.25390625,6.713867,51.574707,-7.873535,0.0,0.0,0.0,127.16675,75.4541,41.967773
1766901735357,-1.1396484,0.4091797,0.18701172,-32.714844,64.453125,45.34912,0.0,0.0,0.0,127.16675,75.4541,41.967773
1766901735372,-1.1396484,0.4091797,0.18701172,-32.714844,64.453125,45.34912,0.0,0.0,0.0,139.81201,68.76892,47.993774
1766901735456,-0.8564453,0.18798828,-0.234375,-6.652832,-5.126953,-6.713867,0.0,0.0,0.0,139.81201,68.76892,47.993774
1766901735468,-0.8564453,0.18798828,-0.234375,-6.652832,-5.126953,-6.713867,0.0,0.0,0.0,140.25696,69.158936,44.13208
1766901735556,-1.1103516,0.09716797,-0.3100586,-38.024902,22.949219,-22.705078,0.0,0.0,0.0,140.25696,69.158936,44.13208
1766901735567,-1.1103516,0.09716797,-0.3100586,-38.024902,22.949219,-22.705078,0.0,0.0,0.0,141.93237,69.48303,44.500122
1766901735656,-1.1772461,0.07910156,0.06347656,16.296387,-67.0166,8.300781,0.0,0.0,0.0,141.93237,69.48303,44.500122
1766901735667,-1.1772461,0.07910156,0.06347656,16.296387,-67.0166,8.300781,0.0,0.0,0.0,144.27795,71.58142,44.489136
1766901735755,-0.7763672,0.14355469,-0.28857422,55.05371,-79.1626,41.748047,0.0,0.0,0.0,144.27795,71.58142,44.489136
1766901735767,-0.7763672,0.14355469,-0.28857422,55.05371,-79.1626,41.748047,0.0,0.0,0.0,118.22388,75.113525,6.4764404
1766901735855,-0.9091797,0.38183594,-0.49414062,14.6484375,-9.82666,5.493164,0.0,0.0,0.0,118.22388,75.113525,6.4764404
1766901735867,-0.9091797,0.38183594,-0.49414062,14.6484375,-9.82666,5.493164,0.0,0.0,0.0,106.5509,75.28381,-11.733398
1766901735955,-0.98291016,-0.013671875,-0.28320312,-53.649902,155.63965,-59.509277,0.0,0.0,0.0,106.5509,75.28381,-11.733398
1766901735966,-0.98291016,-0.013671875,-0.28320312,-53.649902,155.63965,-59.509277,0.0,0.0,0.0,134.6814,72.49878,11.480713
1766901736055,-0.8852539,0.20410156,-0.21875,105.773926,-22.460938,20.080566,0.0,0.0,0.0,134.6814,72.49878,11.480713
1766901736066,-0.8852539,0.20410156,-0.21875,105.773926,-22.460938,20.080566,0.0,0.0,0.0,144.62952,72.58118,17.440796
1766901736154,-0.9658203,0.32958984,-0.25634766,9.58252,15.563965,9.643555,0.0,0.0,0.0,144.62952,72.58118,17.440796
1766901736166,-0.9658203,0.32958984,-0.25634766,9.58252,15.563965,9.643555,0.0,0.0,0.0,140.89417,71.81763,6.657715
1766901736255,-1.2177734,0.34375,-0.059570312,-24.169922,-29.907227,-3.6621094,0.0,0.0,0.0,140.89417,71.81763,6.657715
1766901736266,-1.2177734,0.34375,-0.059570312,-24.169922,-29.907227,-3.6621094,0.0,0.0,0.0,138.72437,71.94946,2.0819092
1766901736354,-0.89160156,0.18115234,-0.24804688,-32.348633,-38.757324,-2.5634766,0.0,0.0,0.0,138.72437,71.94946,2.0819092
1766901736365,-0.89160156,0.18115234,-0.24804688,-32.348633,-38.757324,-2.5634766,0.0,0.0,0.0,124.60144,75.042114,-12.3376465
1766901736453,-0.73291016,-0.16992188,-0.27490234,10.986328,-12.6953125,-31.066895,0.0,0.0,0.0,124.60144,75.042114,-12.3376465
1766901736466,-0.73291016,-0.16992188,-0.27490234,10.986328,-12.6953125,-31.066895,0.0,0.0,0.0,117.81189,77.63489,-24.13147
1766901736553,-1.0629883,0.24951172,-0.37158203,14.465332,71.28906,18.676758,0.0,0.0,0.0,117.81189,77.63489,-24.13147
1766901736564,-1.0629883,0.24951172,-0.37158203,14.465332,71.28906,18.676758,0.0,0.0,0.0,129.30359,75.41565,-19.660034
1766901736653,-1.0073242,0.21142578,0.22558594,-33.14209,85.02197,-12.756348,0.0,0.0,0.0,129.30359,75.41565,-19.660034
1766901736664,-1.0073242,0.21142578,0.22558594,-33.14209,85.02197,-12.756348,0.0,0.0,0.0,148.9801,67.07153,-1.7248535
1766901736753,-1.0742188,0.111328125,-0.296875,-3.90625,-53.40576,-6.4697266,0.0,0.0,0.0,148.9801,67.07153,-1.7248535
1766901736765,-1.0742188,0.111328125,-0.296875,-3.90625,-53.40576,-6.4697266,0.0,0.0,0.0,148.24951,70.285034,-5.4052734
1766901736853,-1.0219727,0.11035156,-0.27441406,-15.74707,22.033691,-11.352539,0.0,0.0,0.0,148.24951,70.285034,-5.4052734
1766901736864,-1.0219727,0.11035156,-0.27441406,-15.74707,22.033691,-11.352539,0.0,0.0,0.0,147.57385,72.42737,-9.744873
1766901736952,-1.2890625,0.13378906,-0.04638672,62.01172,-112.48779,21.728516,0.0,0.0,0.0,147.57385,72.42737,-9.744873
1766901736963,-1.2890625,0.13378906,-0.04638672,62.01172,-112.48779,21.728516,0.0,0.0,0.0,145.14038,74.02588,-16.605835
1766901737052,-0.6538086,0.21191406,-0.2998047,31.61621,-96.37451,49.987793,0.0,0.0,0.0,145.14038,74.02588,-16.605835
1766901737063,-0.6538086,0.21191406,-0.2998047,31.61621,-96.37451,49.987793,0.0,0.0,0.0,104.556885,76.66809,-70.3125
1766901737151,-0.90527344,0.1484375,-0.5888672,25.32959,21.606445,10.986328,0.0,0.0,0.0,104.556885,76.66809,-70.3125
1766901737163,-0.90527344,0.1484375,-0.5888672,25.32959,21.606445,10.986328,0.0,0.0,0.0,85.88013,75.41016,-95.93811
1766901737251,-1.1748047,0.07421875,-0.08105469,-58.776855,251.15967,-68.96973,0.0,0.0,0.0,85.88013,75.41016,-95.93811
1766901737263,-1.1748047,0.07421875,-0.08105469,-58.776855,251.15967,-68.96973,0.0,0.0,0.0,137.5708,71.77368,-46.801758
1766901737352,-0.91748047,0.16455078,-0.24853516,133.30078,-36.254883,39.001465,0.0,0.0,0.0,137.5708,71.77368,-46.801758
1766901737362,-0.91748047,0.16455078,-0.24853516,133.30078,-36.254883,39.001465,0.0,0.0,0.0,141.47644,72.11975,-47.400513
1766901737451,-0.99072266,0.3305664,-0.29638672,15.197754,5.3100586,9.094238,0.0,0.0,0.0,141.47644,72.11975,-47.400513
1766901737462,-0.99072266,0.3305664,-0.29638672,15.197754,5.3100586,9.094238,0.0,0.0,0.0,135.22522,72.46582,-63.44055
1766901737551,-1.1508789,0.35791016,-0.078125,-41.68701,21.484375,-0.6713867,0.0,0.0,0.0,135.22522,72.46582,-63.44055
1766901737562,-1.1508789,0.35791016,-0.078125,-41.68701,21.484375,-0.6713867,0.0,0.0,0.0,138.09814,70.80139,-64.69299
1766901737650,-1.0063477,0.23144531,-0.2890625,-32.104492,-86.73096,5.126953,0.0,0.0,0.0,138.09814,70.80139,-64.69299
1766901737661,-1.0063477,0.23144531,-0.2890625,-32.104492,-86.73096,5.126953,0.0,0.0,0.0,118.98193,74.349976,-86.259155
1766901737750,-0.7036133,-0.21191406,-0.27978516,29.47998,-26.184082,-33.325195,0.0,0.0,0.0,118.98193,74.349976,-86.259155
1766901737761,-0.7036133,-0.21191406,-0.27978516,29.47998,-26.184082,-33.325195,0.0,0.0,0.0,101.60156,76.70654,-110.687256
1766901737849,-1.0888672,0.36621094,-0.3935547,14.770508,111.14502,25.756836,0.0,0.0,0.0,101.60156,76.70654,-110.687256
1766901737861,-1.0888672,0.36621094,-0.3935547,14.770508,111.14502,25.756836,0.0,0.0,0.0,119.28406,75.25635,-100.51941
1766901737949,-1.2109375,0.2680664,0.66552734,-61.340332,54.748535,-7.9345703,0.0,0.0,0.0,119.28406,75.25635,-100.51941
1766901737961,-1.2109375,0.2680664,0.66552734,-61.340332,54.748535,-7.9345703,0.0,0.0,0.0,145.78308,66.23657,-74.62463
1766901738049,-1.0297852,0.051757812,-0.31640625,-21.362305,-29.052734,-11.230469,0.0,0.0,0.0,145.78308,66.23657,-74.62463
1766901738060,-1.0297852,0.051757812,-0.31640625,-21.362305,-29.052734,-11.230469,0.0,0.0,0.0,144.04175,69.62036,-80.20569
1766901738149,-1.046875,0.079589844,-0.24560547,-19.836426,9.460449,-16.357422,0.0,0.0,0.0,144.04175,69.62036,-80.20569
1766901738160,-1.046875,0.079589844,-0.24560547,-19.836426,9.460449,-16.357422,0.0,0.0,0.0,146.53015,71.06506,-81.28235
1766901738248,-1.2568359,0.10839844,0.08154297,30.578613,-85.876465,20.507812,0.0,0.0,0.0,146.53015,71.06506,-81.28235
1766901738260,-1.2568359,0.10839844,0.08154297,30.578613,-85.876465,20.507812,0.0,0.0,0.0,145.88196,72.438354,-87.05017
1766901738348,-0.6713867,0.1303711,-0.24414062,45.898438,-66.52832,36.743164,0.0,0.0,0.0,145.88196,72.438354,-87.05017
1766901738359,-0.6713867,0.1303711,-0.24414062,45.898438,-66.52832,36.743164,0.0,0.0,0.0,120.997925,76.0199,-124.50256
1766901738448,-0.92333984,0.34375,-0.6123047,-5.3710938,-21.057129,-2.8686523,0.0,0.0,0.0,120.997925,76.0199,-124.50256
1766901738459,-0.92333984,0.34375,-0.6123047,-5.3710938,-21.057129,-2.8686523,0.0,0.0,0.0,98.931885,76.88782,-153.18787
1766901738547,-0.9663086,-0.0703125,-0.28955078,-93.99414,194.64111,-72.021484,0.0,0.0,0.0,98.931885,76.88782,-153.18787
1766901738560,-0.9663086,-0.0703125,-0.28955078,-93.99414,194.64111,-72.021484,0.0,0.0,0.0,127.16675,75.71777,-129.28711
1766901738648,-0.94189453,0.043945312,-0.018554688,75.927734,-65.91797,8.728027,0.0,0.0,0.0,127.16675,75.71777,-129.28711
1766901738659,-0.94189453,0.043945312,-0.018554688,75.927734,-65.91797,8.728027,0.0,0.0,0.0,154.72046,69.88953,-101.189575
1766901738747,-0.98583984,0.22949219,-0.33496094,35.40039,-35.15625,20.690918,0.0,0.0,0.0,154.72046,69.88953,-101.189575
1766901738758,-0.98583984,0.22949219,-0.33496094,35.40039,-35.15625,20.690918,0.0,0.0,0.0,146.15662,74.295044,-121.569214
1766901738847,-1.0273438,0.22851562,-0.24804688,-17.76123,32.287598,-0.24414062,0.0,0.0,0.0,146.15662,74.295044,-121.569214
1766901738858,-1.0273438,0.22851562,-0.24804688,-17.76123,32.287598,-0.24414062,0.0,0.0,0.0,144.71191,73.73474,-130.70984
1766901738946,-1.1933594,0.19091797,-0.21142578,-0.9765625,-78.552246,-1.0375977,0.0,0.0,0.0,144.71191,73.73474,-130.70984
1766901738958,-1.1933594,0.19091797,-0.21142578,-0.9765625,-78.552246,-1.0375977,0.0,0.0,0.0,142.229,74.608154,-136.03821
1766901739046,-0.7011719,-0.25927734,-0.31347656,36.010742,-59.99756,-5.3100586,0.0,0.0,0.0,142.229,74.608154,-136.03821
1766901739059,-0.7011719,-0.25927734,-0.31347656,36.010742,-59.99756,-5.3100586,0.0,0.0,0.0,116.15845,78.74451,-164.69604
1766901739146,-0.98583984,0.20458984,-0.46289062,19.40918,79.1626,17.211914,0.0,0.0,0.0,116.15845,78.74451,-164.69604
1766901739157,-0.98583984,0.20458984,-0.46289062,19.40918,79.1626,17.211914,0.0,0.0,0.0,111.47827,81.710815,-165.17944
1766901739245,-0.9741211,0.20410156,0.096191406,-42.785645,146.3623,-26.611328,0.0,0.0,0.0,111.47827,81.710815,-165.17944
1766901739257,-0.9741211,0.20410156,0.096191406,-42.785645,146.3623,-26.611328,0.0,0.0,0.0,151.85303,71.5979,-115.49927
1766901739345,-1.0664062,0.11767578,-0.30078125,5.493164,-68.42041,-7.385254,0.0,0.0,0.0,151.85303,71.5979,-115.49927
1766901739357,-1.0664062,0.11767578,-0.30078125,5.493164,-68.42041,-7.385254,0.0,0.0,0.0,158.27454,71.9989,-111.96716
1766901739445,-0.9941406,0.07910156,-0.38720703,9.70459,-21.484375,3.7841797,0.0,0.0,0.0,158.27454,71.9989,-111.96716
1766901739457,-0.9941406,0.07910156,-0.38720703,9.70459,-21.484375,3.7841797,0.0,0.0,0.0,148.68896,76.58569,-116.4386
1766901739545,-1.4331055,0.23291016,0.5180664,-19.592285,8.361816,-1.159668,0.0,0.0,0.0,148.68896,76.58569,-116.4386
1766901739556,-1.4331055,0.23291016,0.5180664,-19.592285,8.361816,-1.159668,0.0,0.0,0.0,156.84631,73.14148,-100.233765
1766901739645,-0.72802734,0.10546875,-0.2524414,29.11377,-88.31787,39.55078,0.0,0.0,0.0,156.84631,73.14148,-100.233765
1766901739656,-0.72802734,0.10546875,-0.2524414,29.11377,-88.31787,39.55078,0.0,0.0,0.0,129.33655,77.72278,-128.07312
1766901739745,-0.8881836,0.2993164,-0.56884766,18.615723,-51.14746,14.465332,0.0,0.0,0.0,129.33655,77.72278,-128.07312
1766901739756,-0.8881836,0.2993164,-0.56884766,18.615723,-51.14746,14.465332,0.0,0.0,0.0,98.54736,79.156494,-157.21436
1766901739845,-0.8984375,9.765625E-4,-0.328125,-33.996582,149.84131,-57.434082,0.0,0.0,0.0,98.54736,79.156494,-157.21436
1766901739858,-0.8984375,9.765625E-4,-0.328125,-33.996582,149.84131,-57.434082,0.0,0.0,0.0,137.75208,77.53601,-116.47156
1766901739945,-1.2871094,0.11279297,0.54296875,-10.009766,-25.57373,1.159668,0.0,0.0,0.0,137.75208,77.53601,-116.47156
1766901739955,-1.2871094,0.11279297,0.54296875,-10.009766,-25.57373,1.159668,0.0,0.0,0.0,162.62512,68.02185,-82.79846
1766901740044,-0.95410156,0.13378906,-0.32226562,36.254883,-72.387695,30.212402,0.0,0.0,0.0,162.62512,68.02185,-82.79846
1766901740055,-0.95410156,0.13378906,-0.32226562,36.254883,-72.387695,30.212402,0.0,0.0,0.0,149.51294,72.767944,-97.67944
1766901740143,-0.9970703,0.39404297,-0.34179688,-13.122559,23.010254,-1.8310547,0.0,0.0,0.0,149.51294,72.767944,-97.67944
1766901740154,-0.9970703,0.39404297,-0.34179688,-13.122559,23.010254,-1.8310547,0.0,0.0,0.0,141.9928,73.465576,-105.39734
1766901740244,-1.1083984,0.18847656,-0.037597656,-33.691406,-43.762207,-18.615723,0.0,0.0,0.0,141.9928,73.465576,-105.39734
1766901740255,-1.1083984,0.18847656,-0.037597656,-33.691406,-43.762207,-18.615723,0.0,0.0,0.0,142.32239,72.37793,-97.49817
1766901740342,-0.7788086,-0.22021484,-0.31884766,29.907227,-77.57568,-13.61084,0.0,0.0,0.0,142.32239,72.37793,-97.49817
1766901740354,-0.7788086,-0.22021484,-0.31884766,29.907227,-77.57568,-13.61084,0.0,0.0,0.0,121.38794,78.16223,-118.53699
1766901740442,-0.98828125,0.13134766,-0.47460938,18.798828,50.1709,22.949219,0.0,0.0,0.0,121.38794,78.16223,-118.53699
1766901740453,-0.98828125,0.13134766,-0.47460938,18.798828,50.1709,22.949219,0.0,0.0,0.0,121.02539,78.88733,-122.75574
1766901740542,-0.91259766,0.27148438,-0.15039062,-41.992188,156.31104,-24.780273,0.0,0.0,0.0,121.02539,78.88733,-122.75574
1766901740553,-0.91259766,0.27148438,-0.15039062,-41.992188,156.31104,-24.780273,0.0,0.0,0.0,151.76514,68.75244,-90.53284
1766901740642,-1.0732422,0.096191406,-0.23046875,7.873535,-50.90332,-11.169434,0.0,0.0,0.0,151.76514,68.75244,-90.53284
1766901740653,-1.0732422,0.096191406,-0.23046875,7.873535,-50.90332,-11.169434,0.0,0.0,0.0,153.51746,67.335205,-84.40796
1766901740741,-0.9941406,0.09863281,-0.3310547,-5.004883,-21.240234,-9.887695,0.0,0.0,0.0,153.51746,67.335205,-84.40796
1766901740753,-0.9941406,0.09863281,-0.3310547,-5.004883,-21.240234,-9.887695,0.0,0.0,0.0,149.44153,71.746216,-87.528076
1766901740841,-1.2416992,0.14404297,-0.1772461,-11.84082,35.88867,-11.474609,0.0,0.0,0.0,149.44153,71.746216,-87.528076
1766901740852,-1.2416992,0.14404297,-0.1772461,-11.84082,35.88867,-11.474609,0.0,0.0,0.0,152.86377,71.1145,-84.81995
1766901740941,-0.8022461,0.04296875,-0.20458984,59.692383,-102.72217,42.60254,0.0,0.0,0.0,152.86377,71.1145,-84.81995
1766901740952,-0.8022461,0.04296875,-0.20458984,59.692383,-102.72217,42.60254,0.0,0.0,0.0,138.08167,75.26184,-104.97986
1766901741040,-0.8720703,0.43359375,-0.63964844,-6.8969727,-74.76807,-1.2817383,0.0,0.0,0.0,138.08167,75.26184,-104.97986
1766901741052,-0.8720703,0.43359375,-0.63964844,-6.8969727,-74.76807,-1.2817383,0.0,0.0,0.0,97.09717,77.77222,-152.34192
1766901741140,-0.9428711,0.014160156,-0.34277344,-17.822266,147.15576,-39.245605,0.0,0.0,0.0,97.09717,77.77222,-152.34192
1766901741152,-0.9428711,0.014160156,-0.34277344,-17.822266,147.15576,-39.245605,0.0,0.0,0.0,120.40466,75.36072,-134.45068
1766901741240,-1.2866211,0.25585938,0.8745117,-35.949707,5.7373047,14.526367,0.0,0.0,0.0,120.40466,75.36072,-134.45068
1766901741251,-1.2866211,0.25585938,0.8745117,-35.949707,5.7373047,14.526367,0.0,0.0,0.0,154.09424,64.72046,-96.49841
1766901741339,-0.98291016,0.21240234,-0.34179688,46.75293,-69.76318,27.954102,0.0,0.0,0.0,154.09424,64.72046,-96.49841
1766901741351,-0.98291016,0.21240234,-0.34179688,46.75293,-69.76318,27.954102,0.0,0.0,0.0,144.11865,69.96643,-112.8186
1766901741439,-1.0546875,0.34277344,-0.328125,-1.7700195,21.362305,4.9438477,0.0,0.0,0.0,144.11865,69.96643,-112.8186
1766901741451,-1.0546875,0.34277344,-0.328125,-1.7700195,21.362305,4.9438477,0.0,0.0,0.0,141.54785,70.58716,-119.38843
1766901741539,-1.2294922,0.28857422,0.20117188,-45.715332,-64.14795,-13.000488,0.0,0.0,0.0,141.54785,70.58716,-119.38843
1766901741550,-1.2294922,0.28857422,0.20117188,-45.715332,-64.14795,-13.000488,0.0,0.0,0.0,140.8667,70.09277,-118.427124
1766901741639,-0.6899414,0.06542969,-0.33203125,-23.19336,-81.11572,12.268066,0.0,0.0,0.0,140.8667,70.09277,-118.427124
1766901741650,-0.6899414,0.06542969,-0.33203125,-23.19336,-81.11572,12.268066,0.0,0.0,0.0,109.105225,75.67932,-151.06201
1766901741738,-0.8930664,-0.12548828,-0.45507812,6.713867,8.7890625,-40.283203,0.0,0.0,0.0,109.105225,75.67932,-151.06201
1766901741750,-0.8930664,-0.12548828,-0.45507812,6.713867,8.7890625,-40.283203,0.0,0.0,0.0,97.77832,77.77222,-170.18372
1766901741838,-1.0175781,0.34033203,-0.22216797,-49.865723,190.85693,12.329102,0.0,0.0,0.0,97.77832,77.77222,-170.18372
1766901741850,-1.0175781,0.34033203,-0.22216797,-49.865723,190.85693,12.329102,0.0,0.0,0.0,139.70764,71.5155,-131.31409
1766901741938,-0.9116211,0.12402344,-0.09082031,47.851562,-45.959473,-4.211426,0.0,0.0,0.0,139.70764,71.5155,-131.31409
1766901741949,-0.9116211,0.12402344,-0.09082031,47.851562,-45.959473,-4.211426,0.0,0.0,0.0,148.59009,65.374146,-120.48157
1766901742038,-1.0473633,0.043945312,-0.40234375,-8.239746,-32.165527,-12.6953125,0.0,0.0,0.0,148.59009,65.374146,-120.48157
1766901742049,-1.0473633,0.043945312,-0.40234375,-8.239746,-32.165527,-12.6953125,0.0,0.0,0.0,141.89941,70.72449,-129.66064
1766901742137,-1.1000977,0.08935547,-0.29003906,-17.822266,46.020508,-6.225586,0.0,0.0,0.0,141.89941,70.72449,-129.66064
1766901742149,-1.1000977,0.08935547,-0.29003906,-17.822266,46.020508,-6.225586,0.0,0.0,0.0,146.45874,70.68054,-128.66089
1766901742237,-1.1176758,0.12060547,-0.13427734,61.88965,-90.148926,23.19336,0.0,0.0,0.0,146.45874,70.68054,-128.66089
1766901742249,-1.1176758,0.12060547,-0.13427734,61.88965,-90.148926,23.19336,0.0,0.0,0.0,146.88171,70.93872,-132.16003
1766901742337,-0.6484375,0.2133789,-0.3310547,14.6484375,-106.56738,34.179688,0.0,0.0,0.0,146.88171,70.93872,-132.16003
1766901742348,-0.6484375,0.2133789,-0.3310547,14.6484375,-106.56738,34.179688,0.0,0.0,0.0,116.987915,75.24536,-173.13354
1766901742436,-0.9326172,0.0073242188,-0.56347656,28.259277,41.931152,4.333496,0.0,0.0,0.0,116.987915,75.24536,-173.13354
1766901742448,-0.9326172,0.0073242188,-0.56347656,28.259277,41.931152,4.333496,0.0,0.0,0.0,99.228516,74.96521,161.90002
1766901742536,-1.0664062,0.1694336,-0.16796875,-49.072266,215.88135,-59.814453,0.0,0.0,0.0,99.228516,74.96521,161.90002
1766901742548,-1.0664062,0.1694336,-0.16796875,-49.072266,215.88135,-59.814453,0.0,0.0,0.0,145.16235,69.22485,-154.34143
1766901742636,-1.0678711,0.31445312,-0.18896484,98.99902,-74.157715,43.762207,0.0,0.0,0.0,145.16235,69.22485,-154.34143
1766901742647,-1.0678711,0.31445312,-0.18896484,98.99902,-74.157715,43.762207,0.0,0.0,0.0,152.91321,66.395874,-150.0238
1766901742736,-1.0249023,0.2607422,-0.40478516,19.28711,-61.157227,23.19336,0.0,0.0,0.0,152.91321,66.395874,-150.0238
1766901742747,-1.0249023,0.2607422,-0.40478516,19.28711,-61.157227,23.19336,0.0,0.0,0.0,136.02722,71.54297,-177.63794
1766901742835,-1.1054688,0.2783203,-0.24414062,-52.91748,38.513184,-11.59668,0.0,0.0,0.0,136.02722,71.54297,-177.63794
1766901742847,-1.1054688,0.2783203,-0.24414062,-52.91748,38.513184,-11.59668,0.0,0.0,0.0,132.48962,71.48804,173.2544
1766901742935,-0.87060547,0.10449219,-0.2421875,-12.756348,-41.259766,-12.451172,0.0,0.0,0.0,132.48962,71.48804,173.2544
1766901742947,-0.87060547,0.10449219,-0.2421875,-12.756348,-41.259766,-12.451172,0.0,0.0,0.0,133.03894,72.87781,173.23792
1766901743035,-0.9404297,-0.103515625,-0.3046875,22.155762,-9.399414,-6.286621,0.0,0.0,0.0,133.03894,72.87781,173.23792
1766901743046,-0.9404297,-0.103515625,-0.3046875,22.155762,-9.399414,-6.286621,0.0,0.0,0.0,133.66516,75.635376,167.43164
1766901743134,-0.91796875,0.3310547,-0.2553711,-11.84082,69.0918,32.836914,0.0,0.0,0.0,133.66516,75.635376,167.43164
1766901743146,-0.91796875,0.3310547,-0.2553711,-11.84082,69.0918,32.836914,0.0,0.0,0.0,135.43396,72.1637,160.27405
1766901743234,-1.0039062,0.15966797,0.14941406,-31.982422,39.733887,-21.30127,0.0,0.0,0.0,135.43396,72.1637,160.27405
1766901743246,-1.0039062,0.15966797,0.14941406,-31.982422,39.733887,-21.30127,0.0,0.0,0.0,146.8982,65.96741,170.2771
1766901743334,-1.0756836,0.104003906,-0.2788086,-19.77539,-28.015137,-17.76123,0.0,0.0,0.0,146.8982,65.96741,170.2771
1766901743345,-1.0756836,0.104003906,-0.2788086,-19.77539,-28.015137,-17.76123,0.0,0.0,0.0,149.88647,68.23059,172.23816
1766901743434,-1.0991211,0.103027344,-0.31640625,-19.28711,-8.422852,-20.141602,0.0,0.0,0.0,149.88647,68.23059,172.23816
1766901743445,-1.0991211,0.103027344,-0.31640625,-19.28711,-8.422852,-20.141602,0.0,0.0,0.0,150.05127,71.60339,169.06311
1766901743534,-1.1401367,0.08154297,-0.07763672,46.020508,-65.42969,14.831543,0.0,0.0,0.0,150.05127,71.60339,169.06311
1766901743545,-1.1401367,0.08154297,-0.07763672,46.020508,-65.42969,14.831543,0.0,0.0,0.0,151.46301,72.86682,167.66785
1766901743634,-0.6386719,0.18066406,-0.31591797,41.68701,-114.25781,58.166504,0.0,0.0,0.0,151.46301,72.86682,167.66785
1766901743644,-0.6386719,0.18066406,-0.31591797,41.68701,-114.25781,58.166504,0.0,0.0,0.0,120.48706,77.23938,124.41467
1766901743733,-0.87939453,0.28076172,-0.6616211,33.081055,-4.638672,18.615723,0.0,0.0,0.0,120.48706,77.23938,124.41467
1766901743744,-0.87939453,0.28076172,-0.6616211,33.081055,-4.638672,18.615723,0.0,0.0,0.0,93.22449,76.552734,88.97827
1766901743833,-1.0361328,0.0043945312,-0.29589844,-66.77246,211.05957,-65.73486,0.0,0.0,0.0,93.22449,76.552734,88.97827
1766901743844,-1.0361328,0.0043945312,-0.29589844,-66.77246,211.05957,-65.73486,0.0,0.0,0.0,139.91638,71.58142,130.87463
1766901743932,-0.9477539,0.09082031,-0.061035156,98.32764,-76.171875,22.583008,0.0,0.0,0.0,139.91638,71.58142,130.87463
1766901743944,-0.9477539,0.09082031,-0.061035156,98.32764,-76.171875,22.583008,0.0,0.0,0.0,153.18237,67.351685,142.99255
1766901744032,-0.9116211,0.23144531,-0.32080078,40.222168,-42.60254,26.794434,0.0,0.0,0.0,153.18237,67.351685,142.99255
1766901744043,-0.9116211,0.23144531,-0.32080078,40.222168,-42.60254,26.794434,0.0,0.0,0.0,142.12463,70.82886,121.99219
1766901744132,-1.0839844,0.28710938,-0.27783203,-17.8833,37.04834,0.79345703,0.0,0.0,0.0,142.12463,70.82886,121.99219
1766901744143,-1.0839844,0.28710938,-0.27783203,-17.8833,37.04834,0.79345703,0.0,0.0,0.0,142.29492,69.72473,116.57593
1766901744231,-1.1035156,0.2939453,-0.14257812,-33.63037,-53.40576,-1.2817383,0.0,0.0,0.0,142.29492,69.72473,116.57593
1766901744246,-1.1035156,0.2939453,-0.14257812,-33.63037,-53.40576,-1.2817383,0.0,0.0,0.0,139.83398,69.851074,113.19214
1766901744331,-0.70214844,-0.140625,-0.28076172,19.77539,-72.387695,-5.493164,0.0,0.0,0.0,139.83398,69.851074,113.19214
1766901744342,-0.70214844,-0.140625,-0.28076172,19.77539,-72.387695,-5.493164,0.0,0.0,0.0,119.45984,74.84985,86.92932
1766901744431,-0.9614258,0.09082031,-0.47021484,22.888184,25.024414,20.751953,0.0,0.0,0.0,119.45984,74.84985,86.92932
1766901744446,-0.9614258,0.09082031,-0.47021484,22.888184,25.024414,20.751953,0.0,0.0,0.0,114.79065,74.82788,72.37793
1766901744532,-0.89746094,0.40234375,-0.21533203,-56.152344,157.40967,-17.333984,0.0,0.0,0.0,114.79065,74.82788,72.37793
1766901744546,-0.89746094,0.40234375,-0.21533203,-56.152344,157.40967,-17.333984,0.0,0.0,0.0,141.95435,67.2583,96.16333
1766901744630,-0.9501953,0.067871094,-0.04248047,2.1362305,-32.836914,-23.498535,0.0,0.0,0.0,141.95435,67.2583,96.16333
1766901744642,-0.9501953,0.067871094,-0.04248047,2.1362305,-32.836914,-23.498535,0.0,0.0,0.0,149.8645,63.566895,106.18286
1766901744730,-1.1025391,0.13183594,-0.4194336,-20.507812,-51.696777,-7.1411133,0.0,0.0,0.0,149.8645,63.566895,106.18286
1766901744741,-1.1025391,0.13183594,-0.4194336,-20.507812,-51.696777,-7.1411133,0.0,0.0,0.0,144.16809,70.26306,97.01477
1766901744830,-1.0864258,0.07763672,-0.28173828,-14.953613,37.963867,-7.1411133,0.0,0.0,0.0,144.16809,70.26306,97.01477
1766901744841,-1.0864258,0.07763672,-0.28173828,-14.953613,37.963867,-7.1411133,0.0,0.0,0.0,145.15137,70.20813,92.95532
1766901744929,-0.8676758,0.19873047,-0.15136719,45.837402,-60.85205,25.146484,0.0,0.0,0.0,145.15137,70.20813,92.95532
1766901744941,-0.8676758,0.19873047,-0.15136719,45.837402,-60.85205,25.146484,0.0,0.0,0.0,144.8822,70.19165,85.56152
1766901745029,-0.80859375,0.38671875,-0.49169922,-7.5683594,-84.106445,-5.126953,0.0,0.0,0.0,144.8822,70.19165,85.56152
1766901745041,-0.80859375,0.38671875,-0.49169922,-7.5683594,-84.106445,-5.126953,0.0,0.0,0.0,122.88208,74.21265,54.212036
1766901745129,-0.94433594,-0.08642578,-0.47314453,6.958008,69.94629,-28.259277,0.0,0.0,0.0,122.88208,74.21265,54.212036
1766901745141,-0.94433594,-0.08642578,-0.47314453,6.958008,69.94629,-28.259277,0.0,0.0,0.0,120.82214,73.377686,45.038452
1766901745228,-1.1137695,0.32666016,-0.056640625,-27.22168,158.02002,-28.320312,0.0,0.0,0.0,120.82214,73.377686,45.038452
1766901745240,-1.1137695,0.32666016,-0.056640625,-27.22168,158.02002,-28.320312,0.0,0.0,0.0,154.59961,64.97864,77.942505
1766901745328,-1.0078125,0.22753906,-0.22998047,47.912598,-64.697266,58.34961,0.0,0.0,0.0,154.59961,64.97864,77.942505
1766901745340,-1.0078125,0.22753906,-0.22998047,47.912598,-64.697266,58.34961,0.0,0.0,0.0,150.49072,67.022095,66.70349
1766901745428,-1.1049805,0.25634766,-0.38085938,12.268066,-38.024902,14.404297,0.0,0.0,0.0,150.49072,67.022095,66.70349
1766901745440,-1.1049805,0.25634766,-0.38085938,12.268066,-38.024902,14.404297,0.0,0.0,0.0,137.15881,70.7135,43.901367
1766901745528,-1.0742188,0.19628906,-0.1640625,-65.61279,-26.062012,-35.217285,0.0,0.0,0.0,137.15881,70.7135,43.901367
1766901745539,-1.0742188,0.19628906,-0.1640625,-65.61279,-26.062012,-35.217285,0.0,0.0,0.0,134.66492,72.3999,39.748535
1766901745627,-0.68066406,-0.15722656,-0.22021484,-0.24414062,-15.441895,-20.751953,0.0,0.0,0.0,134.66492,72.3999,39.748535
1766901745639,-0.68066406,-0.15722656,-0.22021484,-0.24414062,-15.441895,-20.751953,0.0,0.0,0.0,129.2926,75.95947,31.761475
1766901745727,-1.0634766,0.0078125,-0.3876953,9.277344,25.512695,16.967773,0.0,0.0,0.0,129.2926,75.95947,31.761475
1766901745740,-1.0634766,0.0078125,-0.3876953,9.277344,25.512695,16.967773,0.0,0.0,0.0,136.59851,76.2561,31.05835
1766901745827,-0.91064453,0.2548828,0.13134766,-45.898438,96.0083,14.831543,0.0,0.0,0.0,136.59851,76.2561,31.05835
1766901745838,-0.91064453,0.2548828,0.13134766,-45.898438,96.0083,14.831543,0.0,0.0,0.0,143.70117,67.439575,32.84912
1766901745926,-0.9658203,0.20507812,-0.26171875,-31.12793,-12.634277,-9.399414,0.0,0.0,0.0,143.70117,67.439575,32.84912
1766901745938,-0.9658203,0.20507812,-0.26171875,-31.12793,-12.634277,-9.399414,0.0,0.0,0.0,145.22278,68.28003,31.61316
1766901746027,-1.1943359,0.028320312,-0.28466797,-44.067383,19.470215,-32.714844,0.0,0.0,0.0,145.22278,68.28003,31.61316
1766901746038,-1.1943359,0.028320312,-0.28466797,-44.067383,19.470215,-32.714844,0.0,0.0,0.0,145.26123,68.93921,31.5802
1766901746126,-1.21875,0.1171875,0.022949219,20.874023,-86.42578,5.004883,0.0,0.0,0.0,145.26123,68.93921,31.5802
1766901746137,-1.21875,0.1171875,0.022949219,20.874023,-86.42578,5.004883,0.0,0.0,0.0,147.96936,71.71326,31.49231
1766901746225,-0.7167969,0.12988281,-0.2475586,45.166016,-83.06885,35.15625,0.0,0.0,0.0,147.96936,71.71326,31.49231
1766901746237,-0.7167969,0.12988281,-0.2475586,45.166016,-83.06885,35.15625,0.0,0.0,0.0,122.299805,76.75049,-5.059204
1766901746325,-0.8417969,0.4111328,-0.56347656,16.296387,-31.311035,7.446289,0.0,0.0,0.0,122.299805,76.75049,-5.059204
1766901746339,-0.8417969,0.4111328,-0.56347656,16.296387,-31.311035,7.446289,0.0,0.0,0.0,95.36133,76.712036,-40.407715
1766901746425,-0.9770508,-0.07763672,-0.3022461,-61.645508,167.3584,-68.78662,0.0,0.0,0.0,95.36133,76.712036,-40.407715
1766901746436,-0.9770508,-0.07763672,-0.3022461,-61.645508,167.3584,-68.78662,0.0,0.0,0.0,122.596436,74.833374,-20.220337
1766901746525,-0.90771484,0.12060547,-0.005859375,107.788086,-74.645996,16.723633,0.0,0.0,0.0,122.596436,74.833374,-20.220337
1766901746536,-0.90771484,0.12060547,-0.005859375,107.788086,-74.645996,16.723633,0.0,0.0,0.0,151.0675,71.10901,9.239502
1766901746625,-0.90625,0.26464844,-0.27001953,45.776367,-29.846191,49.804688,0.0,0.0,0.0,151.0675,71.10901,9.239502
1766901746636,-0.90625,0.26464844,-0.27001953,45.776367,-29.846191,49.804688,0.0,0.0,0.0,140.85022,72.53723,-13.699951
1766901746725,-1.0600586,0.33251953,-0.21191406,-20.996094,14.770508,5.2490234,0.0,0.0,0.0,140.85022,72.53723,-13.699951
1766901746736,-1.0600586,0.33251953,-0.21191406,-20.996094,14.770508,5.2490234,0.0,0.0,0.0,137.26318,71.746216,-23.884277
1766901746824,-1.1728516,0.29638672,-0.21728516,-8.178711,-76.416016,7.8125,0.0,0.0,0.0,137.26318,71.746216,-23.884277
1766901746835,-1.1728516,0.29638672,-0.21728516,-8.178711,-76.416016,7.8125,0.0,0.0,0.0,126.49109,73.64685,-36.557007
1766901746924,-0.6816406,-0.11621094,-0.25585938,10.864258,-40.161133,-12.207031,0.0,0.0,0.0,126.49109,73.64685,-36.557007
1766901746935,-0.6816406,-0.11621094,-0.25585938,10.864258,-40.161133,-12.207031,0.0,0.0,0.0,102.66174,75.789185,-65.78064
1766901747023,-0.98339844,0.08691406,-0.36328125,31.49414,59.08203,4.0283203,0.0,0.0,0.0,102.66174,75.789185,-65.78064
1766901747035,-0.98339844,0.08691406,-0.36328125,31.49414,59.08203,4.0283203,0.0,0.0,0.0,109.80286,76.40442,-67.55493
1766901747123,-1.0825195,0.55859375,0.4350586,-59.692383,115.234375,-5.859375,0.0,0.0,0.0,109.80286,76.40442,-67.55493
1766901747134,-1.0825195,0.55859375,0.4350586,-59.692383,115.234375,-5.859375,0.0,0.0,0.0,136.54358,68.20862,-47.208252
1766901747223,-0.93847656,0.21240234,-0.23876953,-45.715332,-10.803223,-22.644043,0.0,0.0,0.0,136.54358,68.20862,-47.208252
1766901747234,-0.93847656,0.21240234,-0.23876953,-45.715332,-10.803223,-22.644043,0.0,0.0,0.0,137.09839,67.88452,-48.180542
1766901747322,-1.059082,0.07714844,-0.25,-48.88916,38.635254,-25.20752,0.0,0.0,0.0,137.09839,67.88452,-48.180542
1766901747334,-1.059082,0.07714844,-0.25,-48.88916,38.635254,-25.20752,0.0,0.0,0.0,137.32361,68.862305,-47.301636
1766901747423,-1.2631836,0.09472656,-0.048828125,25.512695,-58.95996,-2.0141602,0.0,0.0,0.0,137.32361,68.862305,-47.301636
1766901747434,-1.2631836,0.09472656,-0.048828125,25.512695,-58.95996,-2.0141602,0.0,0.0,0.0,142.1576,70.59265,-44.280396
1766901747522,-0.8886719,0.091796875,-0.27148438,50.78125,-43.762207,9.460449,0.0,0.0,0.0,142.1576,70.59265,-44.280396
1766901747533,-0.8886719,0.091796875,-0.27148438,50.78125,-43.762207,9.460449,0.0,0.0,0.0,130.44067,74.48181,-67.41211
1766901747622,-0.76660156,0.5722656,-0.36816406,-55.236816,-28.564453,4.699707,0.0,0.0,0.0,130.44067,74.48181,-67.41211
1766901747633,-0.76660156,0.5722656,-0.36816406,-55.236816,-28.564453,4.699707,0.0,0.0,0.0,123.76648,75.7782,-80.70557
1766901747721,-1.0117188,-0.08691406,-0.38427734,6.713867,65.06348,-38.269043,0.0,0.0,0.0,123.76648,75.7782,-80.70557
1766901747733,-1.0117188,-0.08691406,-0.38427734,6.713867,65.06348,-38.269043,0.0,0.0,0.0,122.541504,75.59143,-85.22644
1766901747821,-1.1557617,0.036621094,0.43896484,-28.930664,-16.906738,-11.657715,0.0,0.0,0.0,122.541504,75.59143,-85.22644
1766901747833,-1.1557617,0.036621094,0.43896484,-28.930664,-16.906738,-11.657715,0.0,0.0,0.0,152.80884,70.93323,-52.98706
1766901747921,-0.90966797,0.125,-0.25341797,42.72461,-46.50879,33.87451,0.0,0.0,0.0,152.80884,70.93323,-52.98706
1766901747932,-0.90966797,0.125,-0.25341797,42.72461,-46.50879,33.87451,0.0,0.0,0.0,144.20654,73.71277,-71.81763
1766901748021,-0.9819336,0.32470703,-0.21875,-3.112793,15.258789,1.8310547,0.0,0.0,0.0,144.20654,73.71277,-71.81763
1766901748032,-0.9819336,0.32470703,-0.21875,-3.112793,15.258789,1.8310547,0.0,0.0,0.0,139.14185,73.7677,-85.91858
1766901748120,-1.2773438,0.17919922,-0.1821289,9.765625,-66.833496,-27.160645,0.0,0.0,0.0,139.14185,73.7677,-85.91858
1766901748132,-1.2773438,0.17919922,-0.1821289,9.765625,-66.833496,-27.160645,0.0,0.0,0.0,135.10437,77.492065,-93.36182
1766901748220,-0.7265625,-0.1821289,-0.2529297,31.12793,-21.484375,24.536133,0.0,0.0,0.0,135.10437,77.492065,-93.36182
1766901748231,-0.7265625,-0.1821289,-0.2529297,31.12793,-21.484375,24.536133,0.0,0.0,0.0,119.992676,79.365234,-116.08154
1766901748320,-1.0463867,0.234375,-0.3881836,20.080566,50.78125,25.45166,0.0,0.0,0.0,119.992676,79.365234,-116.08154
1766901748331,-1.0463867,0.234375,-0.3881836,20.080566,50.78125,25.45166,0.0,0.0,0.0,122.23938,78.57971,-108.66028
1766901748419,-0.88134766,0.14111328,-0.022460938,-15.258789,93.01758,0.91552734,0.0,0.0,0.0,122.23938,78.57971,-108.66028
1766901748431,-0.88134766,0.14111328,-0.022460938,-15.258789,93.01758,0.91552734,0.0,0.0,0.0,141.37207,70.76294,-83.10608
1766901748519,-0.9628906,0.12988281,-0.18310547,10.253906,-34.606934,-8.728027,0.0,0.0,0.0,141.37207,70.76294,-83.10608
1766901748531,-0.9628906,0.12988281,-0.18310547,10.253906,-34.606934,-8.728027,0.0,0.0,0.0,144.4043,70.76294,-87.528076
1766901748619,-1.0664062,0.1015625,-0.3017578,-21.1792,17.76123,-20.385742,0.0,0.0,0.0,144.4043,70.76294,-87.528076
1766901748630,-1.0664062,0.1015625,-0.3017578,-21.1792,17.76123,-20.385742,0.0,0.0,0.0,147.02454,72.78992,-90.164795
1766901748719,-1.2680664,0.17773438,0.12402344,17.211914,-67.68799,-5.92041,0.0,0.0,0.0,147.02454,72.78992,-90.164795
1766901748730,-1.2680664,0.17773438,0.12402344,17.211914,-67.68799,-5.92041,0.0,0.0,0.0,150.74341,73.740234,-92.1698
1766901748819,-0.76708984,0.11767578,-0.34814453,32.287598,-72.265625,28.442383,0.0,0.0,0.0,150.74341,73.740234,-92.1698
1766901748830,-0.76708984,0.11767578,-0.34814453,32.287598,-72.265625,28.442383,0.0,0.0,0.0,126.47461,79.17847,-123.59619
1766901748919,-1.0336914,0.24560547,-0.5449219,-1.5869141,32.592773,-5.493164,0.0,0.0,0.0,126.47461,79.17847,-123.59619
1766901748930,-1.0336914,0.24560547,-0.5449219,-1.5869141,32.592773,-5.493164,0.0,0.0,0.0,111.555176,80.45288,-132.52258
1766901749018,-1.0463867,0.23730469,0.1694336,-73.791504,153.32031,-34.301758,0.0,0.0,0.0,111.555176,80.45288,-132.52258
1766901749030,-1.0463867,0.23730469,0.1694336,-73.791504,153.32031,-34.301758,0.0,0.0,0.0,160.78491,73.59192,-71.40015
1766901749117,-0.9633789,0.14990234,-0.23046875,22.644043,-34.484863,27.038574,0.0,0.0,0.0,160.78491,73.59192,-71.40015
1766901749130,-0.9633789,0.14990234,-0.23046875,22.644043,-34.484863,27.038574,0.0,0.0,0.0,155.84656,76.40991,-82.1228
1766901749217,-0.9765625,0.1743164,-0.19726562,7.6904297,16.052246,-6.8969727,0.0,0.0,0.0,155.84656,76.40991,-82.1228
1766901749229,-0.9765625,0.1743164,-0.19726562,7.6904297,16.052246,-6.8969727,0.0,0.0,0.0,152.6825,76.67908,-81.414185
1766901749317,-1.3588867,0.25048828,-0.023925781,25.146484,-81.90918,1.953125,0.0,0.0,0.0,152.6825,76.67908,-81.414185
1766901749328,-1.3588867,0.25048828,-0.023925781,25.146484,-81.90918,1.953125,0.0,0.0,0.0,148.11768,78.77197,-84.6936
1766901749417,-0.6479492,0.045410156,-0.30078125,5.79834,-34.179688,15.136719,0.0,0.0,0.0,148.11768,78.77197,-84.6936
1766901749428,-0.6479492,0.045410156,-0.30078125,5.79834,-34.179688,15.136719,0.0,0.0,0.0,115.2301,82.507324,-112.76367
1766901749516,-0.9589844,0.022460938,-0.33789062,11.901855,61.035156,-7.873535,0.0,0.0,0.0,115.2301,82.507324,-112.76367
1766901749528,-0.9589844,0.022460938,-0.33789062,11.901855,61.035156,-7.873535,0.0,0.0,0.0,125.90881,80.81543,-99.76135
1766901749616,-1.0390625,0.41796875,0.2631836,-40.71045,86.66992,15.380859,0.0,0.0,0.0,125.90881,80.81543,-99.76135
1766901749628,-1.0390625,0.41796875,0.2631836,-40.71045,86.66992,15.380859,0.0,0.0,0.0,149.8645,73.48755,-71.97693
1766901749716,-0.89404297,0.071777344,-0.24072266,-17.822266,-17.456055,1.953125,0.0,0.0,0.0,149.8645,73.48755,-71.97693
1766901749727,-0.89404297,0.071777344,-0.24072266,-17.822266,-17.456055,1.953125,0.0,0.0,0.0,143.3551,73.19641,-71.70776
1766901749815,-0.97753906,0.14892578,-0.23388672,-20.874023,36.376953,-30.151367,0.0,0.0,0.0,143.3551,73.19641,-71.70776
1766901749827,-0.97753906,0.14892578,-0.23388672,-20.874023,36.376953,-30.151367,0.0,0.0,0.0,147.42554,73.41614,-59.205322
1766901749915,-1.0268555,0.20800781,-0.05908203,7.446289,-43.029785,-15.808105,0.0,0.0,0.0,147.42554,73.41614,-59.205322
1766901749927,-1.0268555,0.20800781,-0.05908203,7.446289,-43.029785,-15.808105,0.0,0.0,0.0,151.94641,74.13025,-48.081665
1766901750015,-1.0322266,0.080566406,-0.32373047,16.601562,-25.878906,1.0375977,0.0,0.0,0.0,151.94641,74.13025,-48.081665
1766901750026,-1.0322266,0.080566406,-0.32373047,16.601562,-25.878906,1.0375977,0.0,0.0,0.0,144.2395,77.89856,-51.970825
1766901750114,-0.73876953,0.3642578,-0.28222656,-31.982422,-12.6953125,-0.36621094,0.0,0.0,0.0,144.2395,77.89856,-51.970825
1766901750126,-0.73876953,0.3642578,-0.28222656,-31.982422,-12.6953125,-0.36621094,0.0,0.0,0.0,135.58228,78.40393,-57.91992
1766901750214,-1.0195312,-0.052246094,-0.34277344,-41.259766,67.13867,-48.52295,0.0,0.0,0.0,135.58228,78.40393,-57.91992
1766901750226,-1.0195312,-0.052246094,-0.34277344,-41.259766,67.13867,-48.52295,0.0,0.0,0.0,143.06946,77.39319,-47.246704
1766901750314,-0.9770508,0.11621094,0.068359375,28.564453,-30.639648,5.7373047,0.0,0.0,0.0,143.06946,77.39319,-47.246704
1766901750326,-0.9770508,0.11621094,0.068359375,28.564453,-30.639648,5.7373047,0.0,0.0,0.0,160.6311,73.02063,-21.87378
1766901750414,-0.94433594,0.12988281,-0.2553711,18.310547,0.48828125,3.540039,0.0,0.0,0.0,160.6311,73.02063,-21.87378
1766901750425,-0.94433594,0.12988281,-0.2553711,18.310547,0.48828125,3.540039,0.0,0.0,0.0,155.19287,74.712524,-26.73523
1766901750513,-1.0712891,0.24316406,0.1015625,14.404297,-30.151367,4.272461,0.0,0.0,0.0,155.19287,74.712524,-26.73523
1766901750525,-1.0712891,0.24316406,0.1015625,14.404297,-30.151367,4.272461,0.0,0.0,0.0,155.35767,74.52576,-24.554443
1766901750613,-1.2055664,0.24902344,-0.3330078,-3.4179688,-38.81836,-0.79345703,0.0,0.0,0.0,155.35767,74.52576,-24.554443
1766901750624,-1.2055664,0.24902344,-0.3330078,-3.4179688,-38.81836,-0.79345703,0.0,0.0,0.0,143.7561,78.51929,-32.876587
1766901750713,-0.7470703,-0.064941406,-0.26904297,17.028809,-0.79345703,22.949219,0.0,0.0,0.0,143.7561,78.51929,-32.876587
1766901750724,-0.7470703,-0.064941406,-0.26904297,17.028809,-0.79345703,22.949219,0.0,0.0,0.0,134.46716,78.9093,-40.76477
1766901750812,-0.9736328,0.080078125,-0.31347656,22.888184,54.44336,6.3476562,0.0,0.0,0.0,134.46716,78.9093,-40.76477
1766901750824,-0.9736328,0.080078125,-0.31347656,22.888184,54.44336,6.3476562,0.0,0.0,0.0,142.88818,76.92627,-34.98047
1766901750912,-0.95654297,0.29736328,0.15527344,-25.939941,47.36328,20.751953,0.0,0.0,0.0,142.88818,76.92627,-34.98047
1766901750927,-0.95654297,0.29736328,0.15527344,-25.939941,47.36328,20.751953,0.0,0.0,0.0,151.21582,70.08179,-27.762451
1766901751012,-1.0029297,0.076660156,-0.2529297,-12.390137,-16.113281,-5.3100586,0.0,0.0,0.0,151.21582,70.08179,-27.762451
1766901751023,-1.0029297,0.076660156,-0.2529297,-12.390137,-16.113281,-5.3100586,0.0,0.0,0.0,146.55762,70.33447,-30.300293
1766901751112,-1.0878906,0.07861328,-0.22216797,-23.4375,16.174316,-19.470215,0.0,0.0,0.0,146.55762,70.33447,-30.300293
1766901751123,-1.0878906,0.07861328,-0.22216797,-23.4375,16.174316,-19.470215,0.0,0.0,0.0,148.6615,71.53198,-25.532227
1766901751212,-1.1992188,0.1586914,-0.24316406,30.456543,-65.61279,7.019043,0.0,0.0,0.0,148.6615,71.53198,-25.532227
1766901751223,-1.1992188,0.1586914,-0.24316406,30.456543,-65.61279,7.019043,0.0,0.0,0.0,146.44226,74.11377,-26.383667
1766901751312,-0.5756836,0.3569336,-0.28564453,5.554199,-34.729004,35.339355,0.0,0.0,0.0,146.44226,74.11377,-26.383667
1766901751322,-0.5756836,0.3569336,-0.28564453,5.554199,-34.729004,35.339355,0.0,0.0,0.0,124.56299,77.35474,-52.613525
1766901751411,-1.0498047,0.07714844,-0.41503906,18.005371,15.930176,3.9672852,0.0,0.0,0.0,124.56299,77.35474,-52.613525
1766901751422,-1.0498047,0.07714844,-0.41503906,18.005371,15.930176,3.9672852,0.0,0.0,0.0,118.168945,75.93201,-58.95813
1766901751510,-0.9921875,0.32958984,0.0048828125,-44.73877,102.7832,-10.559082,0.0,0.0,0.0,118.168945,75.93201,-58.95813
1766901751522,-0.9921875,0.32958984,0.0048828125,-44.73877,102.7832,-10.559082,0.0,0.0,0.0,141.67969,72.57019,-33.793945
1766901751610,-0.8745117,0.09716797,-0.18896484,19.836426,-36.621094,25.45166,0.0,0.0,0.0,141.67969,72.57019,-33.793945
1766901751622,-0.8745117,0.09716797,-0.18896484,19.836426,-36.621094,25.45166,0.0,0.0,0.0,138.20251,71.8396,-35.408936
1766901751710,-1.0092773,0.29101562,-0.21923828,12.451172,31.555176,-3.7231445,0.0,0.0,0.0,138.20251,71.8396,-35.408936
1766901751721,-1.0092773,0.29101562,-0.21923828,12.451172,31.555176,-3.7231445,0.0,0.0,0.0,135.79651,72.180176,-40.00122
1766901751810,-1.1235352,0.3696289,0.0625,13.549805,-58.83789,-2.5024414,0.0,0.0,0.0,135.79651,72.180176,-40.00122
1766901751821,-1.1235352,0.3696289,0.0625,13.549805,-58.83789,-2.5024414,0.0,0.0,0.0,136.90613,72.19116,-37.770996
1766901751909,-0.9321289,0.21484375,-0.32373047,-14.038086,-41.259766,-2.0141602,0.0,0.0,0.0,136.90613,72.19116,-37.770996
1766901751921,-0.9321289,0.21484375,-0.32373047,-14.038086,-41.259766,-2.0141602,0.0,0.0,0.0,118.37219,76.59119,-55.530396
1766901752009,-0.8535156,-0.13134766,-0.2944336,27.09961,-7.385254,-7.507324,0.0,0.0,0.0,118.37219,76.59119,-55.530396
1766901752021,-0.8535156,-0.13134766,-0.2944336,27.09961,-7.385254,-7.507324,0.0,0.0,0.0,111.73096,77.178955,-65.10498
1766901752109,-1.0112305,0.38671875,-0.21191406,8.728027,90.63721,20.751953,0.0,0.0,0.0,111.73096,77.178955,-65.10498
1766901752121,-1.0112305,0.38671875,-0.21191406,8.728027,90.63721,20.751953,0.0,0.0,0.0,131.24817,74.80591,-50.625
1766901752209,-0.83154297,0.13134766,-0.07421875,46.813965,-10.314941,-2.1362305,0.0,0.0,0.0,131.24817,74.80591,-50.625
1766901752221,-0.83154297,0.13134766,-0.07421875,46.813965,-10.314941,-2.1362305,0.0,0.0,0.0,138.32336,70.669556,-43.450928
1766901752308,-1.0507812,0.21142578,-0.32080078,-23.376465,12.329102,-11.962891,0.0,0.0,0.0,138.32336,70.669556,-43.450928
1766901752320,-1.0507812,0.21142578,-0.32080078,-23.376465,12.329102,-11.962891,0.0,0.0,0.0,137.27417,72.092285,-45.532837
1766901752408,-1.2021484,0.07080078,0.2529297,-38.33008,23.010254,-26.794434,0.0,0.0,0.0,137.27417,72.092285,-45.532837
1766901752419,-1.2021484,0.07080078,0.2529297,-38.33008,23.010254,-26.794434,0.0,0.0,0.0,145.0415,70.98816,-35.584717
1766901752508,-1.2333984,0.17529297,-0.3149414,56.9458,-64.819336,16.235352,0.0,0.0,0.0,145.0415,70.98816,-35.584717
1766901752519,-1.2333984,0.17529297,-0.3149414,56.9458,-64.819336,16.235352,0.0,0.0,0.0,137.93335,75.92651,-46.96106
1766901752608,-0.6386719,0.33251953,-0.26464844,-9.887695,-41.19873,-17.822266,0.0,0.0,0.0,137.93335,75.92651,-46.96106
