timestamp,accX,accY,accZ,gyroX,gyroY,gyroZ,magX,magY,magZ,roll,pitch,yaw
1766814305186,-1.1225586,-0.1616211,0.12548828,0.4272461,30.212402,-20.202637,0.0,0.0,0.0,-55.931396,77.49756,-55.217285
1766814305198,-1.1225586,-0.1616211,0.12548828,0.4272461,30.212402,-20.202637,0.0,0.0,0.0,-69.69177,76.97571,-68.21411
1766814305286,-0.6767578,-0.39160156,0.43798828,-28.198242,14.6484375,-4.638672,0.0,0.0,0.0,-69.69177,76.97571,-68.21411
1766814305298,-0.6767578,-0.39160156,0.43798828,-28.198242,14.6484375,-4.638672,0.0,0.0,0.0,-79.85962,76.51428,-76.91528
1766814305386,-1.1191406,0.05126953,-0.09277344,-32.104492,-88.80615,30.88379,0.0,0.0,0.0,-79.85962,76.51428,-76.91528
1766814305397,-1.1191406,0.05126953,-0.09277344,-32.104492,-88.80615,30.88379,0.0,0.0,0.0,-57.079468,75.28931,-52.575073
1766814305488,-0.9140625,-0.23242188,4.8828125E-4,22.277832,48.583984,-9.58252,0.0,0.0,0.0,-57.079468,75.28931,-52.575073
1766814305497,-0.9140625,-0.23242188,4.8828125E-4,22.277832,48.583984,-9.58252,0.0,0.0,0.0,-57.321167,76.47583,-51.361084
1766814305587,-0.9707031,-0.27490234,0.12939453,-4.638672,-33.447266,5.126953,0.0,0.0,0.0,-57.321167,76.47583,-51.361084
1766814305597,-0.9707031,-0.27490234,0.12939453,-4.638672,-33.447266,5.126953,0.0,0.0,0.0,-55.947876,76.38794,-50.95459
1766814305685,-1.1347656,-0.25341797,-0.09716797,8.239746,27.770996,-8.361816,0.0,0.0,0.0,-55.947876,76.38794,-50.95459
1766814305697,-1.1347656,-0.25341797,-0.09716797,8.239746,27.770996,-8.361816,0.0,0.0,0.0,-55.239258,75.86609,-50.405273
1766814305785,-1.0703125,-0.32421875,0.19433594,-15.075684,31.555176,1.4648438,0.0,0.0,0.0,-55.239258,75.86609,-50.405273
1766814305796,-1.0703125,-0.32421875,0.19433594,-15.075684,31.555176,1.4648438,0.0,0.0,0.0,-71.119995,77.42615,-65.86304
1766814305884,-0.7338867,0.040527344,0.13085938,5.554199,5.493164,-11.657715,0.0,0.0,0.0,-71.119995,77.42615,-65.86304
1766814305896,-0.7338867,0.040527344,0.13085938,5.554199,5.493164,-11.657715,0.0,0.0,0.0,-75.2948,77.08008,-68.75244
1766814305984,-1.0234375,-0.3647461,0.26953125,-10.559082,-92.89551,39.733887,0.0,0.0,0.0,-75.2948,77.08008,-68.75244
1766814305995,-1.0234375,-0.3647461,0.26953125,-10.559082,-92.89551,39.733887,0.0,0.0,0.0,-57.9364,76.53076,-52.547607
1766814306084,-0.9291992,-0.1430664,0.051757812,15.380859,37.41455,-19.89746,0.0,0.0,0.0,-57.9364,76.53076,-52.547607
1766814306095,-0.9291992,-0.1430664,0.051757812,15.380859,37.41455,-19.89746,0.0,0.0,0.0,-49.08142,75.267334,-43.862915
1766814306184,-0.9692383,-0.15771484,0.061035156,0.5493164,-18.981934,18.432617,0.0,0.0,0.0,-49.08142,75.267334,-43.862915
1766814306195,-0.9692383,-0.15771484,0.061035156,0.5493164,-18.981934,18.432617,0.0,0.0,0.0,-48.235474,75.756226,-43.64868
1766814306283,-1.1425781,-0.23828125,0.08496094,3.2958984,11.71875,-4.272461,0.0,0.0,0.0,-48.235474,75.756226,-43.64868
1766814306295,-1.1425781,-0.23828125,0.08496094,3.2958984,11.71875,-4.272461,0.0,0.0,0.0,-48.795776,76.45386,-45.07141
1766814306383,-1.1992188,-0.23291016,-0.0053710938,6.958008,20.019531,-15.563965,0.0,0.0,0.0,-48.795776,76.45386,-45.07141
1766814306395,-1.1992188,-0.23291016,-0.0053710938,6.958008,20.019531,-15.563965,0.0,0.0,0.0,-55.55786,76.38245,-52.509155
1766814306482,-0.7080078,-0.16796875,0.24169922,-6.652832,25.08545,-6.4086914,0.0,0.0,0.0,-55.55786,76.38245,-52.509155
1766814306494,-0.7080078,-0.16796875,0.24169922,-6.652832,25.08545,-6.4086914,0.0,0.0,0.0,-67.543945,76.8219,-64.86328
1766814306582,-0.90185547,-0.3095703,0.5229492,6.591797,-20.446777,-8.117676,0.0,0.0,0.0,-67.543945,76.8219,-64.86328
1766814306593,-0.90185547,-0.3095703,0.5229492,6.591797,-20.446777,-8.117676,0.0,0.0,0.0,-72.52075,76.07483,-69.208374
1766814306682,-1.0151367,-0.16259766,-0.17333984,-24.230957,1.7700195,9.521484,0.0,0.0,0.0,-72.52075,76.07483,-69.208374
1766814306693,-1.0151367,-0.16259766,-0.17333984,-24.230957,1.7700195,9.521484,0.0,0.0,0.0,-55.90393,75.009155,-51.448975
1766814306781,-0.8881836,-0.29101562,0.16308594,12.207031,-7.2631836,-3.2348633,0.0,0.0,0.0,-55.90393,75.009155,-51.448975
1766814306793,-0.8881836,-0.29101562,0.16308594,12.207031,-7.2631836,-3.2348633,0.0,0.0,0.0,-60.270996,75.73425,-55.7666
1766814306881,-1.0629883,-0.24414062,-0.07470703,5.493164,-4.760742,-3.112793,0.0,0.0,0.0,-60.270996,75.73425,-55.7666
1766814306893,-1.0629883,-0.24414062,-0.07470703,5.493164,-4.760742,-3.112793,0.0,0.0,0.0,-56.815796,74.783936,-53.12439
1766814306981,-1.0444336,-0.2763672,0.03125,6.1035156,16.174316,3.7231445,0.0,0.0,0.0,-56.815796,74.783936,-53.12439
1766814306992,-1.0444336,-0.2763672,0.03125,6.1035156,16.174316,3.7231445,0.0,0.0,0.0,-61.688232,75.6189,-59.018555
1766814307080,-0.9453125,-0.19873047,0.23730469,-15.625,28.869629,-9.82666,0.0,0.0,0.0,-61.688232,75.6189,-59.018555
1766814307092,-0.9453125,-0.19873047,0.23730469,-15.625,28.869629,-9.82666,0.0,0.0,0.0,-75.596924,76.52527,-73.10303
1766814307180,-0.9038086,0.083984375,0.41259766,36.92627,-9.094238,-4.5166016,0.0,0.0,0.0,-75.596924,76.52527,-73.10303
1766814307192,-0.9038086,0.083984375,0.41259766,36.92627,-9.094238,-4.5166016,0.0,0.0,0.0,-80.91431,75.72876,-79.42566
1766814307280,-0.9555664,-0.44384766,-0.25146484,-5.92041,-35.88867,6.591797,0.0,0.0,0.0,-80.91431,75.72876,-79.42566
1766814307291,-0.9555664,-0.44384766,-0.25146484,-5.92041,-35.88867,6.591797,0.0,0.0,0.0,-52.61902,75.74524,-50.95459
1766814307380,-0.8227539,-0.026367188,0.31884766,-10.986328,-5.126953,-3.0517578,0.0,0.0,0.0,-52.61902,75.74524,-50.95459
1766814307391,-0.8227539,-0.026367188,0.31884766,-10.986328,-5.126953,-3.0517578,0.0,0.0,0.0,-61.16638,75.34424,-59.732666
1766814307479,-1.0722656,-0.25,-0.12011719,-11.901855,0.0,17.211914,0.0,0.0,0.0,-61.16638,75.34424,-59.732666
1766814307491,-1.0722656,-0.25,-0.12011719,-11.901855,0.0,17.211914,0.0,0.0,0.0,-49.84497,75.71777,-46.115112
1766814307579,-1.2070312,-0.21142578,0.05908203,-13.305664,6.225586,-6.3476562,0.0,0.0,0.0,-49.84497,75.71777,-46.115112
1766814307591,-1.2070312,-0.21142578,0.05908203,-13.305664,6.225586,-6.3476562,0.0,0.0,0.0,-57.58484,76.81091,-53.38806
1766814307679,-1.1401367,-0.040039062,-0.022460938,-1.5258789,32.89795,-3.90625,0.0,0.0,0.0,-57.58484,76.81091,-53.38806
1766814307690,-1.1401367,-0.040039062,-0.022460938,-1.5258789,32.89795,-3.90625,0.0,0.0,0.0,-67.05505,77.3822,-61.902466
1766814307778,-0.65722656,-0.39941406,0.36132812,-22.521973,27.038574,-13.977051,0.0,0.0,0.0,-67.05505,77.3822,-61.902466
1766814307790,-0.65722656,-0.39941406,0.36132812,-22.521973,27.038574,-13.977051,0.0,0.0,0.0,-81.8811,78.359985,-76.51428
1766814307878,-0.9404297,0.099121094,0.39160156,22.644043,-73.05908,7.5683594,0.0,0.0,0.0,-81.8811,78.359985,-76.51428
1766814307890,-0.9404297,0.099121094,0.39160156,22.644043,-73.05908,7.5683594,0.0,0.0,0.0,-78.51929,76.0199,-73.11401
1766814307978,-0.9682617,-0.30908203,-0.34033203,28.076172,40.34424,-10.925293,0.0,0.0,0.0,-78.51929,76.0199,-73.11401
1766814307990,-0.9682617,-0.30908203,-0.34033203,28.076172,40.34424,-10.925293,0.0,0.0,0.0,-51.28418,76.68457,-42.989502
1766814308077,-0.8769531,-0.18115234,0.30419922,17.456055,-32.409668,5.004883,0.0,0.0,0.0,-51.28418,76.68457,-42.989502
1766814308089,-0.8769531,-0.18115234,0.30419922,17.456055,-32.409668,5.004883,0.0,0.0,0.0,-66.56616,77.15698,-63.0011
1766814308177,-1.1503906,-0.32080078,-0.14648438,31.677246,20.751953,-11.71875,0.0,0.0,0.0,-66.56616,77.15698,-63.0011
1766814308189,-1.1503906,-0.32080078,-0.14648438,31.677246,20.751953,-11.71875,0.0,0.0,0.0,-53.344116,76.32202,-51.306152
1766814308277,-1.0966797,-0.27294922,-0.025390625,-5.126953,16.906738,2.4414062,0.0,0.0,0.0,-53.344116,76.32202,-51.306152
1766814308291,-1.0966797,-0.27294922,-0.025390625,-5.126953,16.906738,2.4414062,0.0,0.0,0.0,-64.16016,77.09656,-63.66028
1766814308376,-0.89990234,-0.1665039,0.21386719,-30.456543,15.74707,-6.713867,0.0,0.0,0.0,-64.16016,77.09656,-63.66028
1766814308388,-0.89990234,-0.1665039,0.21386719,-30.456543,15.74707,-6.713867,0.0,0.0,0.0,-80.9198,77.71179,-79.002686
1766814308476,-0.8413086,0.03125,0.20410156,29.174805,-0.6713867,-0.9765625,0.0,0.0,0.0,-80.9198,77.71179,-79.002686
1766814308488,-0.8413086,0.03125,0.20410156,29.174805,-0.6713867,-0.9765625,0.0,0.0,0.0,-82.64465,77.44263,-80.22217
1766814308576,-1.0551758,-0.4350586,0.18310547,2.9907227,-54.56543,20.080566,0.0,0.0,0.0,-82.64465,77.44263,-80.22217
1766814308587,-1.0551758,-0.4350586,0.18310547,2.9907227,-54.56543,20.080566,0.0,0.0,0.0,-62.407837,77.84912,-61.51245
1766814308675,-0.8691406,-0.10595703,0.08935547,-3.90625,13.427734,-10.314941,0.0,0.0,0.0,-62.407837,77.84912,-61.51245
1766814308687,-0.8691406,-0.10595703,0.08935547,-3.90625,13.427734,-10.314941,0.0,0.0,0.0,-60.545654,77.03064,-59.37561
1766814308775,-0.9267578,-0.12939453,-0.07373047,-5.3710938,-19.65332,9.460449,0.0,0.0,0.0,-60.545654,77.03064,-59.37561
1766814308787,-0.9267578,-0.12939453,-0.07373047,-5.3710938,-19.65332,9.460449,0.0,0.0,0.0,-55.62378,76.80542,-53.48694
1766814308875,-1.1704102,-0.20361328,-0.0073242188,10.375977,20.080566,-5.065918,0.0,0.0,0.0,-55.62378,76.80542,-53.48694
1766814308886,-1.1704102,-0.20361328,-0.0073242188,10.375977,20.080566,-5.065918,0.0,0.0,0.0,-59.155884,77.56897,-57.546387
1766814308974,-1.2685547,-0.25927734,-0.12646484,7.2631836,12.329102,-3.479004,0.0,0.0,0.0,-59.155884,77.56897,-57.546387
1766814308986,-1.2685547,-0.25927734,-0.12646484,7.2631836,12.329102,-3.479004,0.0,0.0,0.0,-66.70349,78.16223,-65.69275
1766814309075,-0.8173828,-0.1665039,0.19384766,12.084961,35.88867,-7.019043,0.0,0.0,0.0,-66.70349,78.16223,-65.69275
1766814309086,-0.8173828,-0.1665039,0.19384766,12.084961,35.88867,-7.019043,0.0,0.0,0.0,-82.82593,78.2666,-83.06213
1766814309175,-0.8339844,-0.44189453,0.5078125,-6.3476562,-9.94873,-2.5634766,0.0,0.0,0.0,-82.82593,78.2666,-83.06213
1766814309186,-0.8339844,-0.44189453,0.5078125,-6.3476562,-9.94873,-2.5634766,0.0,0.0,0.0,-88.742065,77.47009,-87.90161
1766814309275,-1.059082,-0.06982422,-0.39013672,-48.950195,-53.527832,35.64453,0.0,0.0,0.0,-88.742065,77.47009,-87.90161
1766814309286,-1.059082,-0.06982422,-0.39013672,-48.950195,-53.527832,35.64453,0.0,0.0,0.0,-55.491943,76.84387,-52.300415
1766814309374,-0.84765625,-0.1616211,0.29003906,18.615723,18.737793,-9.094238,0.0,0.0,0.0,-55.491943,76.84387,-52.300415
1766814309385,-0.84765625,-0.1616211,0.29003906,18.615723,18.737793,-9.094238,0.0,0.0,0.0,-65.86304,77.28882,-63.89099
1766814309475,-1.0751953,-0.2680664,-0.104003906,4.1503906,-19.592285,7.2021484,0.0,0.0,0.0,-65.86304,77.28882,-63.89099
1766814309485,-1.0751953,-0.2680664,-0.104003906,4.1503906,-19.592285,7.2021484,0.0,0.0,0.0,-55.376587,76.77246,-53.794556
1766814309577,-1.1523438,-0.24511719,0.038085938,11.047363,13.000488,1.953125,0.0,0.0,0.0,-55.376587,76.77246,-53.794556
1766814309585,-1.1523438,-0.24511719,0.038085938,11.047363,13.000488,1.953125,0.0,0.0,0.0,-60.095215,77.51404,-59.848022
1766814309672,-1.0825195,-0.31591797,0.21875,-9.765625,31.12793,-6.8969727,0.0,0.0,0.0,-60.095215,77.51404,-59.848022
1766814309684,-1.0825195,-0.31591797,0.21875,-9.765625,31.12793,-6.8969727,0.0,0.0,0.0,-73.54248,78.45886,-73.56445
1766814309772,-0.6923828,0.076660156,0.1430664,20.751953,11.474609,-16.052246,0.0,0.0,0.0,-73.54248,78.45886,-73.56445
1766814309784,-0.6923828,0.076660156,0.1430664,20.751953,11.474609,-16.052246,0.0,0.0,0.0,-81.06262,77.717285,-80.79895
1766814309872,-0.9897461,-0.3798828,0.375,-4.211426,-71.5332,37.53662,0.0,0.0,0.0,-81.06262,77.717285,-80.79895
1766814309883,-0.9897461,-0.3798828,0.375,-4.211426,-71.5332,37.53662,0.0,0.0,0.0,-67.109985,78.21167,-68.10974
1766814309971,-0.95996094,-0.15283203,-0.013671875,-5.92041,26.733398,-14.343262,0.0,0.0,0.0,-67.109985,78.21167,-68.10974
1766814309983,-0.95996094,-0.15283203,-0.013671875,-5.92041,26.733398,-14.343262,0.0,0.0,0.0,-55.046997,77.34924,-54.58557
1766814310071,-0.9301758,-0.067871094,0.017578125,-4.0893555,-21.1792,16.540527,0.0,0.0,0.0,-55.046997,77.34924,-54.58557
1766814310083,-0.9301758,-0.067871094,0.017578125,-4.0893555,-21.1792,16.540527,0.0,0.0,0.0,-55.255737,77.492065,-54.091187
1766814310172,-1.1665039,-0.21679688,-0.021484375,7.507324,6.958008,-8.422852,0.0,0.0,0.0,-55.255737,77.492065,-54.091187
1766814310183,-1.1665039,-0.21679688,-0.021484375,7.507324,6.958008,-8.422852,0.0,0.0,0.0,-53.459473,78.07434,-52.437744
1766814310270,-1.2504883,-0.18701172,-0.16601562,0.0,26.550293,-11.352539,0.0,0.0,0.0,-53.459473,78.07434,-52.437744
1766814310282,-1.2504883,-0.18701172,-0.16601562,0.0,26.550293,-11.352539,0.0,0.0,0.0,-61.77063,78.17322,-60.825806
1766814310370,-0.7265625,-0.20263672,0.19824219,4.638672,25.390625,-5.79834,0.0,0.0,0.0,-61.77063,78.17322,-60.825806
1766814310382,-0.7265625,-0.20263672,0.19824219,4.638672,25.390625,-5.79834,0.0,0.0,0.0,-78.92029,78.57971,-78.9917
1766814310470,-0.8730469,-0.36767578,0.49951172,2.319336,-20.751953,-4.760742,0.0,0.0,0.0,-78.92029,78.57971,-78.9917
1766814310481,-0.8730469,-0.36767578,0.49951172,2.319336,-20.751953,-4.760742,0.0,0.0,0.0,-81.101074,77.821655,-80.55176
1766814310569,-1.046875,-0.15966797,-0.3095703,-23.254395,-39.489746,28.137207,0.0,0.0,0.0,-81.101074,77.821655,-80.55176
1766814310581,-1.046875,-0.15966797,-0.3095703,-23.254395,-39.489746,28.137207,0.0,0.0,0.0,-49.49341,76.12427,-48.12561
1766814310669,-0.9189453,-0.20751953,0.29003906,24.780273,12.817383,-8.972168,0.0,0.0,0.0,-49.49341,76.12427,-48.12561
1766814310681,-0.9189453,-0.20751953,0.29003906,24.780273,12.817383,-8.972168,0.0,0.0,0.0,-54.953613,76.9043,-55.29419
1766814310769,-1.1054688,-0.29541016,-0.071777344,8.7890625,-18.127441,3.2958984,0.0,0.0,0.0,-54.953613,76.9043,-55.29419
1766814310782,-1.1054688,-0.29541016,-0.071777344,8.7890625,-18.127441,3.2958984,0.0,0.0,0.0,-47.592773,75.82764,-49.328613
1766814310869,-1.0151367,-0.23291016,0.03173828,-2.9296875,32.836914,-5.554199,0.0,0.0,0.0,-47.592773,75.82764,-49.328613
1766814310880,-1.0151367,-0.23291016,0.03173828,-2.9296875,32.836914,-5.554199,0.0,0.0,0.0,-55.530396,76.536255,-58.271484
1766814310968,-1.0551758,-0.28466797,0.23876953,-35.705566,18.920898,-2.8686523,0.0,0.0,0.0,-55.530396,76.536255,-58.271484
1766814310980,-1.0551758,-0.28466797,0.23876953,-35.705566,18.920898,-2.8686523,0.0,0.0,0.0,-72.993164,77.942505,-74.19617
1766814311068,-0.7783203,0.09082031,0.1352539,22.277832,15.991211,-19.348145,0.0,0.0,0.0,-72.993164,77.942505,-74.19617
1766814311079,-0.7783203,0.09082031,0.1352539,22.277832,15.991211,-19.348145,0.0,0.0,0.0,-80.321045,77.299805,-80.01343
1766814311168,-1.0117188,-0.3017578,0.12792969,-3.4179688,-82.092285,40.46631,0.0,0.0,0.0,-80.321045,77.299805,-80.01343
1766814311179,-1.0117188,-0.3017578,0.12792969,-3.4179688,-82.092285,40.46631,0.0,0.0,0.0,-62.561646,77.541504,-63.74817
1766814311267,-0.8959961,-0.17138672,0.10644531,-1.4038086,24.475098,-17.76123,0.0,0.0,0.0,-62.561646,77.541504,-63.74817
1766814311279,-0.8959961,-0.17138672,0.10644531,-1.4038086,24.475098,-17.76123,0.0,0.0,0.0,-53.025513,76.673584,-54.261475
1766814311367,-0.99902344,-0.08691406,0.022460938,-11.901855,-23.31543,18.005371,0.0,0.0,0.0,-53.025513,76.673584,-54.261475
1766814311379,-0.99902344,-0.08691406,0.022460938,-11.901855,-23.31543,18.005371,0.0,0.0,0.0,-52.37732,76.38245,-52.404785
1766814311467,-1.2163086,-0.25683594,-0.033203125,-10.437012,17.63916,-0.5493164,0.0,0.0,0.0,-52.37732,76.38245,-52.404785
1766814311478,-1.2163086,-0.25683594,-0.033203125,-10.437012,17.63916,-0.5493164,0.0,0.0,0.0,-51.04248,77.42615,-50.10315
1766814311566,-1.0947266,-0.06591797,-0.04248047,-5.2490234,33.5083,-7.6904297,0.0,0.0,0.0,-51.04248,77.42615,-50.10315
1766814311578,-1.0947266,-0.06591797,-0.04248047,-5.2490234,33.5083,-7.6904297,0.0,0.0,0.0,-65.87952,78.689575,-63.781128
1766814311666,-0.65722656,-0.15283203,0.34228516,-8.361816,15.74707,5.1879883,0.0,0.0,0.0,-65.87952,78.689575,-63.781128
1766814311678,-0.65722656,-0.15283203,0.34228516,-8.361816,15.74707,5.1879883,0.0,0.0,0.0,-79.40369,79.20593,-77.717285
1766814311767,-1.0410156,-0.19433594,0.24707031,12.207031,-72.20459,10.498047,0.0,0.0,0.0,-79.40369,79.20593,-77.717285
1766814311778,-1.0410156,-0.19433594,0.24707031,12.207031,-72.20459,10.498047,0.0,0.0,0.0,-70.444336,79.04663,-68.219604
1766814311867,-0.94433594,-0.125,-0.12792969,-0.18310547,25.20752,-0.61035156,0.0,0.0,0.0,-70.444336,79.04663,-68.219604
1766814311877,-0.94433594,-0.125,-0.12792969,-0.18310547,25.20752,-0.61035156,0.0,0.0,0.0,-51.674194,78.30505,-48.499146
1766814311965,-0.8779297,-0.2626953,0.1772461,9.460449,-25.512695,0.18310547,0.0,0.0,0.0,-51.674194,78.30505,-48.499146
1766814311977,-0.8779297,-0.2626953,0.1772461,9.460449,-25.512695,0.18310547,0.0,0.0,0.0,-54.15161,78.947754,-51.674194
1766814312067,-1.0869141,-0.2553711,-0.052246094,-10.253906,-2.9907227,-7.8125,0.0,0.0,0.0,-54.15161,78.947754,-51.674194
1766814312077,-1.0869141,-0.2553711,-0.052246094,-10.253906,-2.9907227,-7.8125,0.0,0.0,0.0,-47.08191,77.211914,-44.40674
1766814312164,-1.1132812,-0.2084961,0.019042969,-17.211914,0.30517578,5.1879883,0.0,0.0,0.0,-47.08191,77.211914,-44.40674
1766814312176,-1.1132812,-0.2084961,0.019042969,-17.211914,0.30517578,5.1879883,0.0,0.0,0.0,-52.338867,77.2229,-48.641968
1766814312264,-1.0087891,-0.1796875,0.16259766,-47.058105,5.065918,-5.1879883,0.0,0.0,0.0,-52.338867,77.2229,-48.641968
1766814312276,-1.0087891,-0.1796875,0.16259766,-47.058105,5.065918,-5.1879883,0.0,0.0,0.0,-59.952393,77.87659,-53.371582
1766814312364,-0.85498047,0.13476562,0.3125,3.2958984,4.760742,-17.578125,0.0,0.0,0.0,-59.952393,77.87659,-53.371582
1766814312375,-0.85498047,0.13476562,0.3125,3.2958984,4.760742,-17.578125,0.0,0.0,0.0,-66.41235,76.278076,-58.672485
1766814312464,-1.0063477,-0.32910156,-0.06347656,-24.291992,-92.77344,33.02002,0.0,0.0,0.0,-66.41235,76.278076,-58.672485
1766814312476,-1.0063477,-0.32910156,-0.06347656,-24.291992,-92.77344,33.02002,0.0,0.0,0.0,-45.197754,74.86084,-36.919556
1766814312563,-0.97509766,-0.1015625,0.040039062,-1.159668,33.996582,-13.671875,0.0,0.0,0.0,-45.197754,74.86084,-36.919556
1766814312575,-0.97509766,-0.1015625,0.040039062,-1.159668,33.996582,-13.671875,0.0,0.0,0.0,-41.59973,74.10278,-32.2229
1766814312663,-0.97314453,-0.10986328,0.20117188,-7.8125,-16.479492,20.263672,0.0,0.0,0.0,-41.59973,74.10278,-32.2229
1766814312675,-0.97314453,-0.10986328,0.20117188,-7.8125,-16.479492,20.263672,0.0,0.0,0.0,-41.57776,74.921265,-32.321777
1766814312763,-1.1757812,-0.2084961,-0.013671875,-4.0283203,19.89746,-2.6245117,0.0,0.0,0.0,-41.57776,74.921265,-32.321777
1766814312774,-1.1757812,-0.2084961,-0.013671875,-4.0283203,19.89746,-2.6245117,0.0,0.0,0.0,-40.60547,76.10779,-31.278076
1766814312863,-1.0673828,-0.041503906,0.09814453,-7.8125,42.3584,-3.8452148,0.0,0.0,0.0,-40.60547,76.10779,-31.278076
1766814312874,-1.0673828,-0.041503906,0.09814453,-7.8125,42.3584,-3.8452148,0.0,0.0,0.0,-55.673218,78.552246,-46.054688
1766814312962,-0.70703125,-0.31201172,0.34423828,-17.63916,7.1411133,7.2021484,0.0,0.0,0.0,-55.673218,78.552246,-46.054688
1766814312974,-0.70703125,-0.31201172,0.34423828,-17.63916,7.1411133,7.2021484,0.0,0.0,0.0,-62.523193,80.04089,-52.53662
1766814313062,-1.0126953,-0.034179688,0.16308594,10.192871,-44.25049,4.8828125,0.0,0.0,0.0,-62.523193,80.04089,-52.53662
1766814313073,-1.0126953,-0.034179688,0.16308594,10.192871,-44.25049,4.8828125,0.0,0.0,0.0,-50.877686,78.27759,-41.956787
1766814313161,-0.9819336,-0.14941406,0.040039062,-3.2348633,-0.7324219,4.760742,0.0,0.0,0.0,-50.877686,78.27759,-41.956787
1766814313173,-0.9819336,-0.14941406,0.040039062,-3.2348633,-0.7324219,4.760742,0.0,0.0,0.0,-40.880127,77.387695,-31.289062
1766814313261,-1.0151367,-0.19384766,0.08105469,26.855469,-17.944336,-5.065918,0.0,0.0,0.0,-40.880127,77.387695,-31.289062
1766814313273,-1.0151367,-0.19384766,0.08105469,26.855469,-17.944336,-5.065918,0.0,0.0,0.0,-37.13379,76.35498,-30.020142
1766814313361,-1.0092773,-0.14111328,0.061035156,18.432617,10.986328,-13.305664,0.0,0.0,0.0,-37.13379,76.35498,-30.020142
1766814313372,-1.0092773,-0.14111328,0.061035156,18.432617,10.986328,-13.305664,0.0,0.0,0.0,-39.86389,75.84412,-35.408936
1766814313461,-1.1796875,-0.20654297,0.036132812,0.5493164,37.963867,-3.2348633,0.0,0.0,0.0,-39.86389,75.84412,-35.408936
1766814313472,-1.1796875,-0.20654297,0.036132812,0.5493164,37.963867,-3.2348633,0.0,0.0,0.0,-48.131104,76.99768,-44.84619
1766814313560,-0.8286133,-0.057128906,0.23876953,-5.065918,8.7890625,-4.760742,0.0,0.0,0.0,-48.131104,76.99768,-44.84619
1766814313572,-0.8286133,-0.057128906,0.23876953,-5.065918,8.7890625,-4.760742,0.0,0.0,0.0,-60.864258,78.04138,-57.079468
1766814313660,-0.95410156,-0.27392578,0.45458984,22.521973,-20.935059,2.746582,0.0,0.0,0.0,-60.864258,78.04138,-57.079468
1766814313671,-0.95410156,-0.27392578,0.45458984,22.521973,-20.935059,2.746582,0.0,0.0,0.0,-56.914673,77.44263,-55.321655
1766814313760,-0.94384766,-0.21972656,-0.10253906,2.8076172,-3.90625,-6.3476562,0.0,0.0,0.0,-56.914673,77.44263,-55.321655
1766814313771,-0.94384766,-0.21972656,-0.10253906,2.8076172,-3.90625,-6.3476562,0.0,0.0,0.0,-42.890625,74.95422,-42.13806
1766814313860,-0.8808594,0.0043945312,0.21191406,-11.413574,-5.6152344,8.544922,0.0,0.0,0.0,-42.890625,74.95422,-42.13806
1766814313871,-0.8808594,0.0043945312,0.21191406,-11.413574,-5.6152344,8.544922,0.0,0.0,0.0,-48.658447,75.596924,-47.999268
1766814313960,-1.15625,-0.27685547,-0.0073242188,-0.12207031,3.4179688,4.9438477,0.0,0.0,0.0,-48.658447,75.596924,-47.999268
1766814313972,-1.15625,-0.27685547,-0.0073242188,-0.12207031,3.4179688,4.9438477,0.0,0.0,0.0,-42.687378,76.0968,-41.39099
1766814314059,-1.1376953,-0.103515625,-4.8828125E-4,-18.615723,26.672363,-1.4038086,0.0,0.0,0.0,-42.687378,76.0968,-41.39099
1766814314070,-1.1376953,-0.103515625,-4.8828125E-4,-18.615723,26.672363,-1.4038086,0.0,0.0,0.0,-52.893677,77.33826,-51.069946
1766814314158,-0.89160156,-0.06298828,0.15429688,5.004883,34.057617,4.5776367,0.0,0.0,0.0,-52.893677,77.33826,-51.069946
1766814314170,-0.89160156,-0.06298828,0.15429688,5.004883,34.057617,4.5776367,0.0,0.0,0.0,-69.43359,79.381714,-66.901245
1766814314258,-0.8745117,-0.46191406,0.47607422,-0.6713867,-3.90625,4.8828125,0.0,0.0,0.0,-69.43359,79.381714,-66.901245
1766814314270,-0.8745117,-0.46191406,0.47607422,-0.6713867,-3.90625,4.8828125,0.0,0.0,0.0,-76.343994,80.425415,-73.2843
1766814314358,-0.99560547,0.06591797,-0.19726562,-17.944336,-46.691895,25.146484,0.0,0.0,0.0,-76.343994,80.425415,-73.2843
1766814314369,-0.99560547,0.06591797,-0.19726562,-17.944336,-46.691895,25.146484,0.0,0.0,0.0,-46.708374,78.33252,-43.961792
1766814314457,-0.9375,-0.16503906,0.27246094,28.076172,10.253906,-5.004883,0.0,0.0,0.0,-46.708374,78.33252,-43.961792
1766814314469,-0.9375,-0.16503906,0.27246094,28.076172,10.253906,-5.004883,0.0,0.0,0.0,-47.70813,79.019165,-46.433716
1766814314557,-1.090332,-0.2680664,0.028320312,10.253906,-16.235352,-2.380371,0.0,0.0,0.0,-47.70813,79.019165,-46.433716
1766814314569,-1.090332,-0.2680664,0.028320312,10.253906,-16.235352,-2.380371,0.0,0.0,0.0,-40.946045,77.79419,-41.3031
1766814314657,-1.0795898,-0.13769531,0.020996094,5.004883,16.662598,-2.6855469,0.0,0.0,0.0,-40.946045,77.79419,-41.3031
1766814314668,-1.0795898,-0.13769531,0.020996094,5.004883,16.662598,-2.6855469,0.0,0.0,0.0,-45.895386,77.83264,-47.175293
1766814314757,-1.1171875,-0.29248047,0.096191406,-3.2958984,52.55127,-8.544922,0.0,0.0,0.0,-45.895386,77.83264,-47.175293
1766814314768,-1.1171875,-0.29248047,0.096191406,-3.2958984,52.55127,-8.544922,0.0,0.0,0.0,-59.25476,79.81018,-60.446777
1766814314856,-0.7836914,0.06201172,0.19824219,10.986328,5.065918,-13.061523,0.0,0.0,0.0,-59.25476,79.81018,-60.446777
1766814314868,-0.7836914,0.06201172,0.19824219,10.986328,5.065918,-13.061523,0.0,0.0,0.0,-75.042114,79.7113,-75.443115
1766814314956,-0.9838867,-0.3232422,0.3095703,-4.5166016,-55.541992,25.08545,0.0,0.0,0.0,-75.042114,79.7113,-75.443115
1766814314967,-0.9838867,-0.3232422,0.3095703,-4.5166016,-55.541992,25.08545,0.0,0.0,0.0,-60.74341,79.3103,-62.58362
1766814315056,-0.9145508,-0.12402344,0.061523438,10.375977,12.512207,-15.869141,0.0,0.0,0.0,-60.74341,79.3103,-62.58362
1766814315067,-0.9145508,-0.12402344,0.061523438,10.375977,12.512207,-15.869141,0.0,0.0,0.0,-47.955322,77.66785,-49.866943
1766814315156,-0.95703125,-0.07861328,0.036621094,-7.507324,-13.671875,11.047363,0.0,0.0,0.0,-47.955322,77.66785,-49.866943
1766814315167,-0.95703125,-0.07861328,0.036621094,-7.507324,-13.671875,11.047363,0.0,0.0,0.0,-47.147827,77.629395,-48.2135
1766814315255,-1.1088867,-0.1538086,0.06689453,5.3100586,2.0141602,-0.18310547,0.0,0.0,0.0,-47.147827,77.629395,-48.2135
1766814315267,-1.1088867,-0.1538086,0.06689453,5.3100586,2.0141602,-0.18310547,0.0,0.0,0.0,-45.81299,77.958984,-47.037964
1766814315355,-1.2089844,-0.22998047,0.0014648438,-1.3427734,10.864258,-11.657715,0.0,0.0,0.0,-45.81299,77.958984,-47.037964
1766814315366,-1.2089844,-0.22998047,0.0014648438,-1.3427734,10.864258,-11.657715,0.0,0.0,0.0,-49.471436,78.151245,-50.421753
1766814315455,-0.89160156,-0.13183594,0.12451172,-5.92041,13.244629,-2.5634766,0.0,0.0,0.0,-49.471436,78.151245,-50.421753
1766814315466,-0.89160156,-0.13183594,0.12451172,-5.92041,13.244629,-2.5634766,0.0,0.0,0.0,-58.969116,78.44238,-59.58435
1766814315554,-0.84814453,-0.38720703,0.41796875,-8.361816,6.4697266,-5.126953,0.0,0.0,0.0,-58.969116,78.44238,-59.58435
1766814315566,-0.84814453,-0.38720703,0.41796875,-8.361816,6.4697266,-5.126953,0.0,0.0,0.0,-65.599365,78.568726,-64.885254
1766814315654,-1.0546875,0.05029297,-0.09033203,-20.446777,-44.006348,16.784668,0.0,0.0,0.0,-65.599365,78.568726,-64.885254
1766814315665,-1.0546875,0.05029297,-0.09033203,-20.446777,-44.006348,16.784668,0.0,0.0,0.0,-51.080933,76.25061,-51.38855
1766814315754,-0.97509766,-0.24023438,0.22753906,26.794434,18.371582,-5.7373047,0.0,0.0,0.0,-51.080933,76.25061,-51.38855
1766814315765,-0.97509766,-0.24023438,0.22753906,26.794434,18.371582,-5.7373047,0.0,0.0,0.0,-50.075684,76.81641,-50.251465
1766814315853,-1.0415039,-0.234375,-0.029296875,17.944336,-15.197754,-5.554199,0.0,0.0,0.0,-50.075684,76.81641,-50.251465
1766814315865,-1.0415039,-0.234375,-0.029296875,17.944336,-15.197754,-5.554199,0.0,0.0,0.0,-47.592773,76.014404,-50.01526
1766814315953,-1.0351562,-0.19921875,0.017578125,11.71875,28.625488,-4.3945312,0.0,0.0,0.0,-47.592773,76.014404,-50.01526
1766814315964,-1.0351562,-0.19921875,0.017578125,11.71875,28.625488,-4.3945312,0.0,0.0,0.0,-52.943115,76.26709,-57.052002
1766814316053,-1.0009766,-0.3540039,0.29345703,-11.71875,49.01123,-11.962891,0.0,0.0,0.0,-52.943115,76.26709,-57.052002
1766814316064,-1.0009766,-0.3540039,0.29345703,-11.71875,49.01123,-11.962891,0.0,0.0,0.0,-72.4823,78.09631,-76.83838
1766814316152,-0.7963867,0.16064453,0.18115234,27.58789,-1.8920898,-15.930176,0.0,0.0,0.0,-72.4823,78.09631,-76.83838
1766814316164,-0.7963867,0.16064453,0.18115234,27.58789,-1.8920898,-15.930176,0.0,0.0,0.0,-80.41992,77.09656,-83.54553
1766814316252,-1.0664062,-0.54345703,-0.029785156,-12.756348,-71.83838,28.381348,0.0,0.0,0.0,-80.41992,77.09656,-83.54553
1766814316264,-1.0664062,-0.54345703,-0.029785156,-12.756348,-71.83838,28.381348,0.0,0.0,0.0,-58.760376,77.3053,-62.946167
1766814316352,-0.85058594,-0.09375,0.26464844,-1.3427734,14.6484375,-11.657715,0.0,0.0,0.0,-58.760376,77.3053,-62.946167
1766814316363,-0.85058594,-0.09375,0.26464844,-1.3427734,14.6484375,-11.657715,0.0,0.0,0.0,-56.002808,76.239624,-60.979614
1766814316451,-0.98779297,-0.17089844,-0.013183594,-2.746582,-12.451172,11.291504,0.0,0.0,0.0,-56.002808,76.239624,-60.979614
1766814316463,-0.98779297,-0.17089844,-0.013183594,-2.746582,-12.451172,11.291504,0.0,0.0,0.0,-50.80078,76.00342,-54.327393
1766814316551,-1.2109375,-0.20605469,0.049804688,-4.760742,-1.5258789,-2.5024414,0.0,0.0,0.0,-50.80078,76.00342,-54.327393
1766814316563,-1.2109375,-0.20605469,0.049804688,-4.760742,-1.5258789,-2.5024414,0.0,0.0,0.0,-50.701904,76.294556,-54.09668
1766814316651,-1.2397461,-0.21386719,-0.103027344,-0.9765625,22.766113,-11.535645,0.0,0.0,0.0,-50.701904,76.294556,-54.09668
1766814316662,-1.2397461,-0.21386719,-0.103027344,-0.9765625,22.766113,-11.535645,0.0,0.0,0.0,-56.288452,76.448364,-58.92517
1766814316751,-0.8051758,-0.16503906,0.16845703,7.9956055,31.982422,-4.0283203,0.0,0.0,0.0,-56.288452,76.448364,-58.92517
1766814316762,-0.8051758,-0.16503906,0.16845703,7.9956055,31.982422,-4.0283203,0.0,0.0,0.0,-71.152954,77.492065,-74.767456
1766814316850,-0.80078125,-0.42041016,0.50878906,-9.94873,0.18310547,-1.3427734,0.0,0.0,0.0,-71.152954,77.492065,-74.767456
1766814316862,-0.80078125,-0.42041016,0.50878906,-9.94873,0.18310547,-1.3427734,0.0,0.0,0.0,-78.349,77.65137,-80.91431
1766814316950,-1.0639648,0.011230469,-0.2758789,-31.677246,-55.725098,33.447266,0.0,0.0,0.0,-78.349,77.65137,-80.91431
1766814316961,-1.0639648,0.011230469,-0.2758789,-31.677246,-55.725098,33.447266,0.0,0.0,0.0,-49.13086,75.9375,-50.57556
1766814317050,-0.9589844,-0.21972656,0.19726562,8.117676,14.343262,1.7700195,0.0,0.0,0.0,-49.13086,75.9375,-50.57556
1766814317061,-0.9589844,-0.21972656,0.19726562,8.117676,14.343262,1.7700195,0.0,0.0,0.0,-52.531128,77.48108,-53.85498
1766814317149,-1.0600586,-0.2866211,0.036132812,5.79834,-13.977051,0.4272461,0.0,0.0,0.0,-52.531128,77.48108,-53.85498
1766814317161,-1.0600586,-0.2866211,0.036132812,5.79834,-13.977051,0.4272461,0.0,0.0,0.0,-47.746582,76.728516,-50.196533
1766814317249,-1.1079102,-0.2163086,0.06591797,-1.953125,16.357422,-1.5258789,0.0,0.0,0.0,-47.746582,76.728516,-50.196533
1766814317261,-1.1079102,-0.2163086,0.06591797,-1.953125,16.357422,-1.5258789,0.0,0.0,0.0,-53.690186,77.145996,-56.239014
1766814317349,-1.1025391,-0.28955078,0.084472656,-5.92041,47.790527,-7.3242188,0.0,0.0,0.0,-53.690186,77.145996,-56.239014
1766814317360,-1.1025391,-0.28955078,0.084472656,-5.92041,47.790527,-7.3242188,0.0,0.0,0.0,-68.83484,78.56323,-70.7135
1766814317448,-0.74902344,0.06689453,0.14111328,20.690918,10.314941,-17.51709,0.0,0.0,0.0,-68.83484,78.56323,-70.7135
1766814317460,-0.74902344,0.06689453,0.14111328,20.690918,10.314941,-17.51709,0.0,0.0,0.0,-79.46411,78.09631,-80.72754
1766814317548,-0.94873047,-0.30615234,0.37597656,0.6713867,-80.87158,34.973145,0.0,0.0,0.0,-79.46411,78.09631,-80.72754
1766814317560,-0.94873047,-0.30615234,0.37597656,0.6713867,-80.87158,34.973145,0.0,0.0,0.0,-60.650024,78.04138,-63.945923
1766814317648,-0.92089844,-0.18945312,0.076171875,14.892578,26.367188,-26.855469,0.0,0.0,0.0,-60.650024,78.04138,-63.945923
1766814317659,-0.92089844,-0.18945312,0.076171875,14.892578,26.367188,-26.855469,0.0,0.0,0.0,-49.72412,76.16272,-53.168335
1766814317747,-0.94677734,-0.028320312,0.104003906,-14.892578,-32.592773,19.470215,0.0,0.0,0.0,-49.72412,76.16272,-53.168335
1766814317759,-0.94677734,-0.028320312,0.104003906,-14.892578,-32.592773,19.470215,0.0,0.0,0.0,-49.751587,75.684814,-52.399292
1766814317847,-1.1914062,-0.22998047,0.029785156,4.3945312,11.901855,-1.5258789,0.0,0.0,0.0,-49.751587,75.684814,-52.399292
1766814317859,-1.1914062,-0.22998047,0.029785156,4.3945312,11.901855,-1.5258789,0.0,0.0,0.0,-45.373535,76.1792,-47.493896
1766814317947,-1.2314453,-0.16845703,-0.020019531,-7.507324,13.427734,-7.751465,0.0,0.0,0.0,-45.373535,76.1792,-47.493896
1766814317958,-1.2314453,-0.16845703,-0.020019531,-7.507324,13.427734,-7.751465,0.0,0.0,0.0,-51.80603,76.84387,-53.239746
1766814318047,-0.71484375,-0.11376953,0.19433594,3.4179688,24.169922,-0.91552734,0.0,0.0,0.0,-51.80603,76.84387,-53.239746
1766814318058,-0.71484375,-0.11376953,0.19433594,3.4179688,24.169922,-0.91552734,0.0,0.0,0.0,-62.42981,77.92053,-64.281006
1766814318146,-0.92871094,-0.4086914,0.52783203,9.765625,-11.047363,0.18310547,0.0,0.0,0.0,-62.42981,77.92053,-64.281006
1766814318158,-0.92871094,-0.4086914,0.52783203,9.765625,-11.047363,0.18310547,0.0,0.0,0.0,-65.96741,78.36548,-67.60437
1766814318246,-1.0234375,-0.060058594,-0.22167969,-20.812988,-24.841309,28.381348,0.0,0.0,0.0,-65.96741,78.36548,-67.60437
1766814318258,-1.0234375,-0.060058594,-0.22167969,-20.812988,-24.841309,28.381348,0.0,0.0,0.0,-42.648926,76.12976,-44.296875
1766814318346,-0.9169922,-0.21728516,0.2211914,20.019531,3.8452148,1.7700195,0.0,0.0,0.0,-42.648926,76.12976,-44.296875
1766814318357,-0.9169922,-0.21728516,0.2211914,20.019531,3.8452148,1.7700195,0.0,0.0,0.0,-44.5166,77.59094,-47.3291
1766814318445,-1.0693359,-0.2836914,0.032226562,5.432129,-6.958008,-3.479004,0.0,0.0,0.0,-44.5166,77.59094,-47.3291
1766814318457,-1.0693359,-0.2836914,0.032226562,5.432129,-6.958008,-3.479004,0.0,0.0,0.0,-41.16577,76.95923,-45.098877
1766814318545,-1.0708008,-0.14648438,0.018554688,7.6293945,25.878906,-8.056641,0.0,0.0,0.0,-41.16577,76.95923,-45.098877
1766814318557,-1.0708008,-0.14648438,0.018554688,7.6293945,25.878906,-8.056641,0.0,0.0,0.0,-48.982544,77.18445,-53.563843
1766814318645,-1.1391602,-0.35888672,0.17626953,-10.7421875,34.851074,-6.0424805,0.0,0.0,0.0,-48.982544,77.18445,-53.563843
1766814318657,-1.1391602,-0.35888672,0.17626953,-10.7421875,34.851074,-6.0424805,0.0,0.0,0.0,-63.446045,78.9093,-67.977905
1766814318744,-0.74902344,0.087402344,0.118652344,13.305664,11.291504,-26.184082,0.0,0.0,0.0,-63.446045,78.9093,-67.977905
1766814318756,-0.74902344,0.087402344,0.118652344,13.305664,11.291504,-26.184082,0.0,0.0,0.0,-74.382935,78.063354,-76.953735
1766814318844,-0.98291016,-0.27978516,0.3515625,-15.258789,-89.11133,42.23633,0.0,0.0,0.0,-74.382935,78.063354,-76.953735
1766814318855,-0.98291016,-0.27978516,0.3515625,-15.258789,-89.11133,42.23633,0.0,0.0,0.0,-62.98462,77.266846,-67.247314
1766814318944,-0.9008789,-0.16259766,0.1430664,3.8452148,30.944824,-18.920898,0.0,0.0,0.0,-62.98462,77.266846,-67.247314
1766814318955,-0.9008789,-0.16259766,0.1430664,3.8452148,30.944824,-18.920898,0.0,0.0,0.0,-49.54834,76.15173,-52.646484
1766814319044,-0.98583984,-0.06201172,0.045410156,-23.132324,-38.69629,32.043457,0.0,0.0,0.0,-49.54834,76.15173,-52.646484
1766814319055,-0.98583984,-0.06201172,0.045410156,-23.132324,-38.69629,32.043457,0.0,0.0,0.0,-46.96106,75.97595,-48.87268
1766814319143,-1.1914062,-0.24560547,0.09423828,-10.925293,16.540527,-2.5024414,0.0,0.0,0.0,-46.96106,75.97595,-48.87268
1766814319155,-1.1914062,-0.24560547,0.09423828,-10.925293,16.540527,-2.5024414,0.0,0.0,0.0,-44.384766,76.92627,-45.236206
1766814319243,-1.1601562,-0.06640625,0.005859375,-17.211914,42.785645,-5.432129,0.0,0.0,0.0,-44.384766,76.92627,-45.236206
1766814319254,-1.1601562,-0.06640625,0.005859375,-17.211914,42.785645,-5.432129,0.0,0.0,0.0,-58.150635,78.38745,-56.99707
1766814319343,-0.6352539,-0.25830078,0.31591797,-28.442383,4.8828125,12.268066,0.0,0.0,0.0,-58.150635,78.38745,-56.99707
1766814319354,-0.6352539,-0.25830078,0.31591797,-28.442383,4.8828125,12.268066,0.0,0.0,0.0,-71.52649,80.00244,-69.11499
1766814319442,-1.0,-0.123535156,0.28125,2.4414062,-59.2041,6.0424805,0.0,0.0,0.0,-71.52649,80.00244,-69.11499
1766814319454,-1.0,-0.123535156,0.28125,2.4414062,-59.2041,6.0424805,0.0,0.0,0.0,-59.02954,79.541016,-55.08545
1766814319542,-0.9633789,-0.103515625,-0.060058594,-5.9814453,5.92041,1.7700195,0.0,0.0,0.0,-59.02954,79.541016,-55.08545
1766814319553,-0.9633789,-0.103515625,-0.060058594,-5.9814453,5.92041,1.7700195,0.0,0.0,0.0,-42.32483,78.11279,-36.24939
1766814319642,-0.9770508,-0.19140625,0.1508789,10.803223,-24.475098,4.699707,0.0,0.0,0.0,-42.32483,78.11279,-36.24939
1766814319653,-0.9770508,-0.19140625,0.1508789,10.803223,-24.475098,4.699707,0.0,0.0,0.0,-39.473877,78.013916,-34.123535
1766814319741,-1.081543,-0.1586914,0.013671875,13.122559,6.5307617,-8.605957,0.0,0.0,0.0,-39.473877,78.013916,-34.123535
1766814319753,-1.081543,-0.1586914,0.013671875,13.122559,6.5307617,-8.605957,0.0,0.0,0.0,-37.227173,77.074585,-33.134766
1766814319841,-1.1801758,-0.18554688,0.044921875,0.9765625,21.66748,-2.0141602,0.0,0.0,0.0,-37.227173,77.074585,-33.134766
1766814319852,-1.1801758,-0.18554688,0.044921875,0.9765625,21.66748,-2.0141602,0.0,0.0,0.0,-43.28064,77.69531,-40.545044
1766814319941,-0.92578125,-0.09423828,0.17773438,-20.263672,12.573242,-5.859375,0.0,0.0,0.0,-43.28064,77.69531,-40.545044
1766814319952,-0.92578125,-0.09423828,0.17773438,-20.263672,12.573242,-5.859375,0.0,0.0,0.0,-57.925415,79.20593,-54.387817
1766814320040,-0.83154297,0.0234375,0.36572266,27.404785,18.798828,-13.183594,0.0,0.0,0.0,-57.925415,79.20593,-54.387817
1766814320052,-0.83154297,0.0234375,0.36572266,27.404785,18.798828,-13.183594,0.0,0.0,0.0,-65.00061,78.55774,-62.57263
1766814320140,-0.9716797,-0.30371094,-0.06933594,-7.873535,-78.49121,13.366699,0.0,0.0,0.0,-65.00061,78.55774,-62.57263
1766814320151,-0.9716797,-0.30371094,-0.06933594,-7.873535,-78.49121,13.366699,0.0,0.0,0.0,-44.32434,76.90979,-42.24243
1766814320240,-0.94677734,0.06298828,0.27734375,-1.4648438,24.536133,-1.159668,0.0,0.0,0.0,-44.32434,76.90979,-42.24243
1766814320251,-0.94677734,0.06298828,0.27734375,-1.4648438,24.536133,-1.159668,0.0,0.0,0.0,-43.082886,75.93201,-41.31958
1766814320340,-1.2089844,-0.25097656,0.024414062,-0.8544922,-8.056641,6.7749023,0.0,0.0,0.0,-43.082886,75.93201,-41.31958
1766814320351,-1.2089844,-0.25097656,0.024414062,-0.8544922,-8.056641,6.7749023,0.0,0.0,0.0,-37.4469,76.68457,-34.61792
1766814320439,-1.1918945,-0.07080078,-0.010253906,-4.5776367,33.75244,-12.451172,0.0,0.0,0.0,-37.4469,76.68457,-34.61792
1766814320451,-1.1918945,-0.07080078,-0.010253906,-4.5776367,33.75244,-12.451172,0.0,0.0,0.0,-44.917603,77.266846,-42.423706
1766814320539,-0.7661133,-0.12939453,0.2680664,17.76123,27.954102,-7.2631836,0.0,0.0,0.0,-44.917603,77.266846,-42.423706
1766814320550,-0.7661133,-0.12939453,0.2680664,17.76123,27.954102,-7.2631836,0.0,0.0,0.0,-62.248535,78.777466,-60.7489
1766814320640,-0.7807617,-0.39746094,0.4482422,10.192871,3.6010742,-4.333496,0.0,0.0,0.0,-62.248535,78.777466,-60.7489
1766814320650,-0.7807617,-0.39746094,0.4482422,10.192871,3.6010742,-4.333496,0.0,0.0,0.0,-67.78015,78.67859,-67.53845
1766814320738,-1.0009766,0.03955078,-0.123535156,-10.131836,-27.404785,19.348145,0.0,0.0,0.0,-67.78015,78.67859,-67.53845
1766814320750,-1.0009766,0.03955078,-0.123535156,-10.131836,-27.404785,19.348145,0.0,0.0,0.0,-46.84021,76.777954,-47.34558
1766814320838,-0.93359375,-0.22509766,0.21679688,15.258789,-1.7700195,3.0517578,0.0,0.0,0.0,-46.84021,76.777954,-47.34558
1766814320850,-0.93359375,-0.22509766,0.21679688,15.258789,-1.7700195,3.0517578,0.0,0.0,0.0,-46.6864,77.596436,-48.372803
1766814320937,-1.0712891,-0.25585938,0.041503906,21.484375,-5.7373047,-6.958008,0.0,0.0,0.0,-46.6864,77.596436,-48.372803
1766814320949,-1.0712891,-0.25585938,0.041503906,21.484375,-5.7373047,-6.958008,0.0,0.0,0.0,-41.967773,76.59668,-45.791016
1766814321037,-1.0595703,-0.2163086,0.049804688,13.48877,17.211914,-6.4697266,0.0,0.0,0.0,-41.967773,76.59668,-45.791016
1766814321049,-1.0595703,-0.2163086,0.049804688,13.48877,17.211914,-6.4697266,0.0,0.0,0.0,-46.774292,76.68457,-52.130127
1766814321137,-1.1293945,-0.32080078,0.10107422,-8.483887,45.776367,-4.5166016,0.0,0.0,0.0,-46.774292,76.68457,-52.130127
1766814321148,-1.1293945,-0.32080078,0.10107422,-8.483887,45.776367,-4.5166016,0.0,0.0,0.0,-60.01831,78.35449,-65.286255
1766814321236,-0.73876953,0.027832031,0.1538086,7.873535,13.671875,-18.981934,0.0,0.0,0.0,-60.01831,78.35449,-65.286255
1766814321248,-0.73876953,0.027832031,0.1538086,7.873535,13.671875,-18.981934,0.0,0.0,0.0,-73.41614,78.00842,-77.11304
1766814321336,-0.9824219,-0.21875,0.4921875,2.746582,-62.683105,26.184082,0.0,0.0,0.0,-73.41614,78.00842,-77.11304
1766814321348,-0.9824219,-0.21875,0.4921875,2.746582,-62.683105,26.184082,0.0,0.0,0.0,-61.19934,77.420654,-66.588135
1766814321436,-0.9814453,-0.24902344,-0.03466797,13.73291,22.766113,-22.033691,0.0,0.0,0.0,-61.19934,77.420654,-66.588135
1766814321447,-0.9814453,-0.24902344,-0.03466797,13.73291,22.766113,-22.033691,0.0,0.0,0.0,-44.368286,75.531006,-49.207764
1766814321536,-0.90527344,0.0068359375,0.0703125,-12.6953125,-31.188965,15.808105,0.0,0.0,0.0,-44.368286,75.531006,-49.207764
1766814321547,-0.90527344,0.0068359375,0.0703125,-12.6953125,-31.188965,15.808105,0.0,0.0,0.0,-44.752808,75.2124,-48.96057
1766814321635,-1.1030273,-0.2265625,0.11279297,7.385254,13.916016,-2.5024414,0.0,0.0,0.0,-44.752808,75.2124,-48.96057
1766814321647,-1.1030273,-0.2265625,0.11279297,7.385254,13.916016,-2.5024414,0.0,0.0,0.0,-43.033447,75.9375,-47.444458
1766814321735,-1.1777344,-0.21289062,-0.061035156,-6.8969727,7.2631836,-5.92041,0.0,0.0,0.0,-43.033447,75.9375,-47.444458
1766814321746,-1.1777344,-0.21289062,-0.061035156,-6.8969727,7.2631836,-5.92041,0.0,0.0,0.0,-47.719116,76.19568,-51.690674
1766814321835,-0.9868164,-0.09716797,0.15234375,3.7841797,29.174805,-7.080078,0.0,0.0,0.0,-47.719116,76.19568,-51.690674
1766814321846,-0.9868164,-0.09716797,0.15234375,3.7841797,29.174805,-7.080078,0.0,0.0,0.0,-61.413574,77.32727,-65.43457
1766814321934,-0.7397461,-0.34033203,0.4453125,-6.164551,16.845703,-3.6621094,0.0,0.0,0.0,-61.413574,77.32727,-65.43457
1766814321946,-0.7397461,-0.34033203,0.4453125,-6.164551,16.845703,-3.6621094,0.0,0.0,0.0,-70.20813,77.88208,-74.157715
1766814322034,-1.0634766,-0.020019531,-0.10107422,-23.254395,-74.34082,26.123047,0.0,0.0,0.0,-70.20813,77.88208,-74.157715
1766814322046,-1.0634766,-0.020019531,-0.10107422,-23.254395,-74.34082,26.123047,0.0,0.0,0.0,-50.11963,75.81665,-53.728638
1766814322134,-0.9086914,-0.16113281,0.12548828,0.48828125,20.202637,1.3427734,0.0,0.0,0.0,-50.11963,75.81665,-53.728638
1766814322145,-0.9086914,-0.16113281,0.12548828,0.48828125,20.202637,1.3427734,0.0,0.0,0.0,-47.444458,76.58569,-49.59778
1766814322233,-0.97216797,-0.23632812,0.123535156,7.080078,-16.784668,3.112793,0.0,0.0,0.0,-47.444458,76.58569,-49.59778
1766814322245,-0.97216797,-0.23632812,0.123535156,7.080078,-16.784668,3.112793,0.0,0.0,0.0,-45.28015,76.32202,-48.19153
1766814322333,-1.090332,-0.2397461,-0.008300781,1.4038086,18.981934,-5.92041,0.0,0.0,0.0,-45.28015,76.32202,-48.19153
1766814322345,-1.090332,-0.2397461,-0.008300781,1.4038086,18.981934,-5.92041,0.0,0.0,0.0,-45.32959,76.38794,-48.33435
1766814322433,-1.2006836,-0.3125,0.099609375,-14.953613,40.893555,1.8920898,0.0,0.0,0.0,-45.32959,76.38794,-48.33435
1766814322444,-1.2006836,-0.3125,0.099609375,-14.953613,40.893555,1.8920898,0.0,0.0,0.0,-57.073975,78.343506,-58.936157
1766814322533,-0.76220703,0.030273438,0.15625,-1.4038086,4.0283203,-14.770508,0.0,0.0,0.0,-57.073975,78.343506,-58.936157
1766814322544,-0.76220703,0.030273438,0.15625,-1.4038086,4.0283203,-14.770508,0.0,0.0,0.0,-67.96692,78.376465,-68.04932
1766814322632,-0.9794922,-0.14257812,0.52685547,8.666992,-49.926758,27.404785,0.0,0.0,0.0,-67.96692,78.376465,-68.04932
1766814322644,-0.9794922,-0.14257812,0.52685547,8.666992,-49.926758,27.404785,0.0,0.0,0.0,-59.968872,77.733765,-62.391357
1766814322732,-0.9638672,-0.24121094,0.015136719,14.221191,21.66748,-24.291992,0.0,0.0,0.0,-59.968872,77.733765,-62.391357
1766814322743,-0.9638672,-0.24121094,0.015136719,14.221191,21.66748,-24.291992,0.0,0.0,0.0,-41.572266,75.82764,-43.242188
1766814322832,-0.9086914,0.025390625,0.0546875,-31.37207,-35.88867,24.108887,0.0,0.0,0.0,-41.572266,75.82764,-43.242188
1766814322843,-0.9086914,0.025390625,0.0546875,-31.37207,-35.88867,24.108887,0.0,0.0,0.0,-43.99475,75.32776,-44.7583
1766814322931,-1.1635742,-0.21777344,0.17382812,-9.094238,24.047852,-2.319336,0.0,0.0,0.0,-43.99475,75.32776,-44.7583
1766814322943,-1.1635742,-0.21777344,0.17382812,-9.094238,24.047852,-2.319336,0.0,0.0,0.0,-41.050415,76.31653,-40.198975
1766814323031,-1.2358398,-0.21533203,-0.071777344,-27.404785,23.864746,-1.7700195,0.0,0.0,0.0,-41.050415,76.31653,-40.198975
1766814323043,-1.2358398,-0.21533203,-0.071777344,-27.404785,23.864746,-1.7700195,0.0,0.0,0.0,-49.762573,77.71179,-46.609497
1766814323131,-0.72265625,-0.091308594,0.23291016,-15.258789,21.484375,2.5634766,0.0,0.0,0.0,-49.762573,77.71179,-46.609497
1766814323143,-0.72265625,-0.091308594,0.23291016,-15.258789,21.484375,2.5634766,0.0,0.0,0.0,-65.86304,79.03015,-61.276245
1766814323230,-0.8911133,-0.48583984,0.44384766,-14.587402,-15.991211,11.169434,0.0,0.0,0.0,-65.86304,79.03015,-61.276245
1766814323242,-0.8911133,-0.48583984,0.44384766,-14.587402,-15.991211,11.169434,0.0,0.0,0.0,-66.500244,80.06287,-59.194336
1766814323330,-1.0170898,0.030761719,-0.13574219,-39.79492,-37.231445,35.27832,0.0,0.0,0.0,-66.500244,80.06287,-59.194336
1766814323341,-1.0170898,0.030761719,-0.13574219,-39.79492,-37.231445,35.27832,0.0,0.0,0.0,-42.56653,78.12378,-33.94226
1766814323430,-0.94921875,-0.1586914,0.23632812,25.878906,3.8452148,-6.3476562,0.0,0.0,0.0,-42.56653,78.12378,-33.94226
1766814323441,-0.94921875,-0.1586914,0.23632812,25.878906,3.8452148,-6.3476562,0.0,0.0,0.0,-40.896606,78.67859,-33.327026
1766814323529,-1.0380859,-0.14941406,-0.0087890625,27.832031,-1.5869141,-3.3569336,0.0,0.0,0.0,-40.896606,78.67859,-33.327026
1766814323541,-1.0380859,-0.14941406,-0.0087890625,27.832031,-1.5869141,-3.3569336,0.0,0.0,0.0,-37.265625,77.975464,-32.61841
1766814323629,-1.1464844,-0.22314453,0.023925781,20.446777,4.333496,2.9296875,0.0,0.0,0.0,-37.265625,77.975464,-32.61841
1766814323640,-1.1464844,-0.22314453,0.023925781,20.446777,4.333496,2.9296875,0.0,0.0,0.0,-37.578735,78.673096,-36.05713
1766814323729,-1.128418,-0.24365234,0.1694336,-4.3945312,45.34912,-13.244629,0.0,0.0,0.0,-37.578735,78.673096,-36.05713
1766814323740,-1.128418,-0.24365234,0.1694336,-4.3945312,45.34912,-13.244629,0.0,0.0,0.0,-48.03772,80.47485,-47.526855
1766814323828,-0.70751953,0.10205078,0.20751953,19.470215,20.324707,-17.456055,0.0,0.0,0.0,-48.03772,80.47485,-47.526855
1766814323840,-0.70751953,0.10205078,0.20751953,19.470215,20.324707,-17.456055,0.0,0.0,0.0,-69.41162,80.562744,-68.58215
1766814323928,-0.98046875,-0.2763672,0.5708008,6.591797,-65.06348,25.390625,0.0,0.0,0.0,-69.41162,80.562744,-68.58215
1766814323940,-0.98046875,-0.2763672,0.5708008,6.591797,-65.06348,25.390625,0.0,0.0,0.0,-62.523193,80.16174,-64.54468
1766814324028,-0.99072266,-0.19873047,-0.16064453,21.972656,29.418945,-26.733398,0.0,0.0,0.0,-62.523193,80.16174,-64.54468
1766814324039,-0.99072266,-0.19873047,-0.16064453,21.972656,29.418945,-26.733398,0.0,0.0,0.0,-34.936523,76.744995,-36.61194
1766814324127,-0.875,0.053222656,0.22558594,-5.554199,-30.090332,14.038086,0.0,0.0,0.0,-34.936523,76.744995,-36.61194
1766814324139,-0.875,0.053222656,0.22558594,-5.554199,-30.090332,14.038086,0.0,0.0,0.0,-46.757812,77.195435,-49.80652
1766814324227,-1.2495117,-0.21289062,-0.107421875,14.6484375,7.507324,-6.164551,0.0,0.0,0.0,-46.757812,77.195435,-49.80652
1766814324239,-1.2495117,-0.21289062,-0.107421875,14.6484375,7.507324,-6.164551,0.0,0.0,0.0,-33.843384,76.190186,-37.02942
1766814324327,-1.1845703,-0.15527344,0.17041016,-1.4038086,22.705078,-7.2021484,0.0,0.0,0.0,-33.843384,76.190186,-37.02942
1766814324338,-1.1845703,-0.15527344,0.17041016,-1.4038086,22.705078,-7.2021484,0.0,0.0,0.0,-44.71985,77.87109,-48.707886
1766814324427,-0.65625,-0.20996094,0.26416016,-4.699707,13.244629,-13.122559,0.0,0.0,0.0,-44.71985,77.87109,-48.707886
1766814324438,-0.65625,-0.20996094,0.26416016,-4.699707,13.244629,-13.122559,0.0,0.0,0.0,-52.28943,78.272095,-56.469727
1766814324526,-0.96484375,-0.11230469,0.5029297,22.583008,-36.68213,-4.8217773,0.0,0.0,0.0,-52.28943,78.272095,-56.469727
1766814324538,-0.96484375,-0.11230469,0.5029297,22.583008,-36.68213,-4.8217773,0.0,0.0,0.0,-56.90918,77.11304,-61.018066
1766814324626,-1.0063477,-0.19580078,-0.1821289,-3.479004,12.573242,3.1738281,0.0,0.0,0.0,-56.90918,77.11304,-61.018066
1766814324637,-1.0063477,-0.19580078,-0.1821289,-3.479004,12.573242,3.1738281,0.0,0.0,0.0,-38.16101,74.82788,-41.56128
1766814324726,-0.8808594,-0.1977539,0.25927734,7.6293945,4.211426,0.61035156,0.0,0.0,0.0,-38.16101,74.82788,-41.56128
1766814324737,-0.8808594,-0.1977539,0.25927734,7.6293945,4.211426,0.61035156,0.0,0.0,0.0,-44.79126,76.52527,-48.68042
1766814324825,-1.0991211,-0.27001953,-0.030761719,5.1879883,-0.18310547,-6.286621,0.0,0.0,0.0,-44.79126,76.52527,-48.68042
1766814324837,-1.0991211,-0.27001953,-0.030761719,5.1879883,-0.18310547,-6.286621,0.0,0.0,0.0,-41.87439,75.78369,-46.549072
1766814324925,-1.0693359,-0.21582031,0.07519531,-4.0283203,21.30127,-5.1879883,0.0,0.0,0.0,-41.87439,75.78369,-46.549072
1766814324937,-1.0693359,-0.21582031,0.07519531,-4.0283203,21.30127,-5.1879883,0.0,0.0,0.0,-51.82251,76.657104,-56.766357
1766814325025,-1.0537109,-0.2602539,0.24853516,-39.123535,14.587402,-4.333496,0.0,0.0,0.0,-51.82251,76.657104,-56.766357
1766814325036,-1.0537109,-0.2602539,0.24853516,-39.123535,14.587402,-4.333496,0.0,0.0,0.0,-64.6051,77.69531,-67.53845
1766814325124,-0.7504883,0.103027344,0.19482422,21.42334,22.216797,-23.19336,0.0,0.0,0.0,-64.6051,77.69531,-67.53845
1766814325136,-0.7504883,0.103027344,0.19482422,21.42334,22.216797,-23.19336,0.0,0.0,0.0,-72.00989,76.87683,-74.124756
1766814325224,-1.0380859,-0.34716797,0.2578125,-6.1035156,-95.458984,52.856445,0.0,0.0,0.0,-72.00989,76.87683,-74.124756
1766814325235,-1.0380859,-0.34716797,0.2578125,-6.1035156,-95.458984,52.856445,0.0,0.0,0.0,-50.756836,76.4209,-54.821777
1766814325324,-0.88183594,-0.14013672,0.21533203,16.052246,36.010742,-22.888184,0.0,0.0,0.0,-50.756836,76.4209,-54.821777
1766814325336,-0.88183594,-0.14013672,0.21533203,16.052246,36.010742,-22.888184,0.0,0.0,0.0,-49.54834,75.93201,-53.827515
1766814325423,-0.98339844,-0.13916016,-0.033691406,-10.7421875,-28.137207,23.376465,0.0,0.0,0.0,-49.54834,75.93201,-53.827515
1766814325435,-0.98339844,-0.13916016,-0.033691406,-10.7421875,-28.137207,23.376465,0.0,0.0,0.0,-42.094116,75.305786,-45.752563
1766814325523,-1.1347656,-0.23144531,0.13427734,4.3945312,12.512207,-3.7841797,0.0,0.0,0.0,-42.094116,75.305786,-45.752563
1766814325535,-1.1347656,-0.23144531,0.13427734,4.3945312,12.512207,-3.7841797,0.0,0.0,0.0,-44.44519,76.311035,-48.55957
1766814325623,-1.1977539,-0.17285156,-0.05908203,-10.620117,32.104492,-7.873535,0.0,0.0,0.0,-44.44519,76.311035,-48.55957
1766814325635,-1.1977539,-0.17285156,-0.05908203,-10.620117,32.104492,-7.873535,0.0,0.0,0.0,-53.536377,77.23938,-57.04651
1766814325723,-0.67333984,-0.1899414,0.2578125,-8.911133,14.099121,1.7089844,0.0,0.0,0.0,-53.536377,77.23938,-57.04651
1766814325734,-0.67333984,-0.1899414,0.2578125,-8.911133,14.099121,1.7089844,0.0,0.0,0.0,-68.010864,78.5083,-70.686035
1766814325822,-0.94628906,-0.35107422,0.5083008,0.9765625,-24.963379,2.8076172,0.0,0.0,0.0,-68.010864,78.5083,-70.686035
1766814325834,-0.94628906,-0.35107422,0.5083008,0.9765625,-24.963379,2.8076172,0.0,0.0,0.0,-65.27527,78.50281,-66.82434
1766814325922,-1.0234375,-0.111816406,-0.19970703,-30.700684,-21.30127,18.920898,0.0,0.0,0.0,-65.27527,78.50281,-66.82434
1766814325933,-1.0234375,-0.111816406,-0.19970703,-30.700684,-21.30127,18.920898,0.0,0.0,0.0,-42.945557,76.38794,-42.319336
1766814326022,-0.8779297,-0.18652344,0.26464844,-6.4086914,0.061035156,-4.3945312,0.0,0.0,0.0,-42.945557,76.38794,-42.319336
1766814326033,-0.8779297,-0.18652344,0.26464844,-6.4086914,0.061035156,-4.3945312,0.0,0.0,0.0,-47.11487,76.953735,-44.68689
1766814326121,-1.1035156,-0.28710938,-0.11035156,-21.240234,-28.503418,13.366699,0.0,0.0,0.0,-47.11487,76.953735,-44.68689
1766814326133,-1.1035156,-0.28710938,-0.11035156,-21.240234,-28.503418,13.366699,0.0,0.0,0.0,-36.238403,75.322266,-32.37671
1766814326221,-1.0083008,-0.14013672,0.13916016,-25.756836,10.864258,5.79834,0.0,0.0,0.0,-36.238403,75.322266,-32.37671
1766814326233,-1.0083008,-0.14013672,0.13916016,-25.756836,10.864258,5.79834,0.0,0.0,0.0,-42.593994,76.37695,-37.25464
1766814326321,-1.0786133,-0.16796875,0.28173828,-55.541992,22.766113,3.8452148,0.0,0.0,0.0,-42.593994,76.37695,-37.25464
1766814326332,-1.0786133,-0.16796875,0.28173828,-55.541992,22.766113,3.8452148,0.0,0.0,0.0,-53.206787,79.0741,-44.68689
1766814326420,-0.8432617,0.103515625,0.24414062,13.793945,10.986328,-15.197754,0.0,0.0,0.0,-53.206787,79.0741,-44.68689
1766814326432,-0.8432617,0.103515625,0.24414062,13.793945,10.986328,-15.197754,0.0,0.0,0.0,-61.38611,78.79944,-51.77307
1766814326520,-0.98779297,-0.20410156,-0.099609375,7.507324,-55.96924,-0.4272461,0.0,0.0,0.0,-61.38611,78.79944,-51.77307
1766814326532,-0.98779297,-0.20410156,-0.099609375,7.507324,-55.96924,-0.4272461,0.0,0.0,0.0,-44.296875,76.77246,-35.809937
1766814326620,-0.83251953,0.096191406,0.2788086,33.569336,19.65332,-15.014648,0.0,0.0,0.0,-44.296875,76.77246,-35.809937
1766814326631,-0.83251953,0.096191406,0.2788086,33.569336,19.65332,-15.014648,0.0,0.0,0.0,-49.91638,76.14624,-45.01648
1766814326720,-1.1054688,-0.22705078,-0.025390625,27.404785,-5.2490234,16.784668,0.0,0.0,0.0,-49.91638,76.14624,-45.01648
1766814326731,-1.1054688,-0.22705078,-0.025390625,27.404785,-5.2490234,16.784668,0.0,0.0,0.0,-37.540283,76.503296,-34.6344
1766814326819,-1.1704102,-0.13964844,0.05419922,20.019531,18.920898,-13.73291,0.0,0.0,0.0,-37.540283,76.503296,-34.6344
1766814326831,-1.1704102,-0.13964844,0.05419922,20.019531,18.920898,-13.73291,0.0,0.0,0.0,-42.978516,77.838135,-43.57727
1766814326919,-1.0092773,-0.076171875,0.16015625,29.11377,45.47119,-12.817383,0.0,0.0,0.0,-42.978516,77.838135,-43.57727
1766814326931,-1.0092773,-0.076171875,0.16015625,29.11377,45.47119,-12.817383,0.0,0.0,0.0,-59.161377,79.2334,-62.105713
1766814327018,-0.70703125,-0.29785156,0.4008789,18.798828,14.160156,3.8452148,0.0,0.0,0.0,-59.161377,79.2334,-62.105713
1766814327030,-0.70703125,-0.29785156,0.4008789,18.798828,14.160156,3.8452148,0.0,0.0,0.0,-72.26807,79.73877,-77.37671
1766814327118,-1.0385742,-0.03466797,-0.13769531,-2.9907227,-37.109375,18.066406,0.0,0.0,0.0,-72.26807,79.73877,-77.37671
1766814327130,-1.0385742,-0.03466797,-0.13769531,-2.9907227,-37.109375,18.066406,0.0,0.0,0.0,-49.647217,78.93677,-56.173096
1766814327218,-0.9580078,-0.2290039,0.20605469,16.723633,0.12207031,-1.7089844,0.0,0.0,0.0,-49.647217,78.93677,-56.173096
1766814327230,-0.9580078,-0.2290039,0.20605469,16.723633,0.12207031,-1.7089844,0.0,0.0,0.0,-48.949585,79.18945,-56.52466
1766814327318,-1.0751953,-0.25195312,-0.028320312,22.094727,-6.713867,-10.131836,0.0,0.0,0.0,-48.949585,79.18945,-56.52466
1766814327329,-1.0751953,-0.25195312,-0.028320312,22.094727,-6.713867,-10.131836,0.0,0.0,0.0,-44.47815,77.838135,-53.569336
1766814327417,-1.0537109,-0.18701172,0.03466797,19.348145,17.578125,-1.5869141,0.0,0.0,0.0,-44.47815,77.838135,-53.569336
1766814327429,-1.0537109,-0.18701172,0.03466797,19.348145,17.578125,-1.5869141,0.0,0.0,0.0,-49.696655,77.805176,-60.50171
1766814327517,-0.98095703,-0.37451172,0.22558594,-7.873535,54.32129,-17.27295,0.0,0.0,0.0,-49.696655,77.805176,-60.50171
1766814327528,-0.98095703,-0.37451172,0.22558594,-7.873535,54.32129,-17.27295,0.0,0.0,0.0,-67.126465,79.524536,-77.7063
1766814327617,-0.82910156,0.19677734,0.23144531,21.30127,-1.8920898,-21.057129,0.0,0.0,0.0,-67.126465,79.524536,-77.7063
1766814327628,-0.82910156,0.19677734,0.23144531,21.30127,-1.8920898,-21.057129,0.0,0.0,0.0,-79.27734,77.99194,-87.994995
1766814327716,-1.0683594,-0.51708984,-0.2529297,-16.723633,-60.36377,24.230957,0.0,0.0,0.0,-79.27734,77.99194,-87.994995
1766814327728,-1.0683594,-0.51708984,-0.2529297,-16.723633,-60.36377,24.230957,0.0,0.0,0.0,-51.311646,77.98096,-59.540405
1766814327816,-0.81884766,-0.0087890625,0.33789062,19.714355,10.131836,-14.953613,0.0,0.0,0.0,-51.311646,77.98096,-59.540405
1766814327827,-0.81884766,-0.0087890625,0.33789062,19.714355,10.131836,-14.953613,0.0,0.0,0.0,-55.24475,77.37671,-64.70947
1766814327916,-1.0776367,-0.19384766,-0.095703125,12.023926,-20.507812,11.169434,0.0,0.0,0.0,-55.24475,77.37671,-64.70947
1766814327927,-1.0776367,-0.19384766,-0.095703125,12.023926,-20.507812,11.169434,0.0,0.0,0.0,-41.863403,76.58569,-51.07544
1766814328015,-1.1499023,-0.24560547,0.09863281,2.0141602,5.3100586,-0.5493164,0.0,0.0,0.0,-41.863403,76.58569,-51.07544
1766814328027,-1.1499023,-0.24560547,0.09863281,2.0141602,5.3100586,-0.5493164,0.0,0.0,0.0,-42.401733,77.01416,-52.871704
1766814328115,-1.1953125,-0.18603516,0.08935547,3.479004,30.273438,-15.50293,0.0,0.0,0.0,-42.401733,77.01416,-52.871704
1766814328127,-1.1953125,-0.18603516,0.08935547,3.479004,30.273438,-15.50293,0.0,0.0,0.0,-49.866943,77.56348,-59.490967
1766814328215,-0.6611328,-0.27148438,0.37939453,-21.118164,5.554199,-6.286621,0.0,0.0,0.0,-49.866943,77.56348,-59.490967
1766814328226,-0.6611328,-0.27148438,0.37939453,-21.118164,5.554199,-6.286621,0.0,0.0,0.0,-61.836548,77.838135,-70.64209
1766814328315,-1.0410156,-0.018066406,0.1303711,-12.573242,-45.410156,15.50293,0.0,0.0,0.0,-61.836548,77.838135,-70.64209
1766814328326,-1.0410156,-0.018066406,0.1303711,-12.573242,-45.410156,15.50293,0.0,0.0,0.0,-54.838257,76.61316,-62.30896
1766814328414,-0.87939453,-0.14501953,0.012207031,-7.6904297,19.65332,7.8125,0.0,0.0,0.0,-54.838257,76.61316,-62.30896
1766814328426,-0.87939453,-0.14501953,0.012207031,-7.6904297,19.65332,7.8125,0.0,0.0,0.0,-45.4834,76.82739,-50.690918
1766814328514,-0.95214844,-0.23925781,0.103027344,-0.9765625,-10.620117,-5.065918,0.0,0.0,0.0,-45.4834,76.82739,-50.690918
1766814328525,-0.95214844,-0.23925781,0.103027344,-0.9765625,-10.620117,-5.065918,0.0,0.0,0.0,-47.005005,77.65686,-51.25122
1766814328614,-1.1938477,-0.27197266,-0.013183594,-10.009766,1.953125,-1.5258789,0.0,0.0,0.0,-47.005005,77.65686,-51.25122
1766814328625,-1.1938477,-0.27197266,-0.013183594,-10.009766,1.953125,-1.5258789,0.0,0.0,0.0,-47.01599,76.88782,-50.614014
1766814328713,-1.1381836,-0.27001953,0.001953125,-16.967773,28.503418,-4.0283203,0.0,0.0,0.0,-47.01599,76.88782,-50.614014
1766814328725,-1.1381836,-0.27001953,0.001953125,-16.967773,28.503418,-4.0283203,0.0,0.0,0.0,-57.035522,77.64038,-59.243774
1766814328813,-0.83251953,-0.12548828,0.14746094,-44.98291,-2.2583008,-2.9296875,0.0,0.0,0.0,-57.035522,77.64038,-59.243774
1766814328824,-0.83251953,-0.12548828,0.14746094,-44.98291,-2.2583008,-2.9296875,0.0,0.0,0.0,-71.746216,78.1897,-70.718994
1766814328913,-0.88623047,0.1665039,0.3125,29.418945,-7.446289,-13.48877,0.0,0.0,0.0,-71.746216,78.1897,-70.718994
1766814328924,-0.88623047,0.1665039,0.3125,29.418945,-7.446289,-13.48877,0.0,0.0,0.0,-71.70776,77.37671,-70.90576
1766814329012,-1.0102539,-0.43896484,-0.29736328,0.12207031,-26.855469,0.30517578,0.0,0.0,0.0,-71.70776,77.37671,-70.90576
1766814329024,-1.0102539,-0.43896484,-0.29736328,0.12207031,-26.855469,0.30517578,0.0,0.0,0.0,-42.86316,76.52527,-40.83618
1766814329112,-0.81347656,4.8828125E-4,0.2919922,-13.000488,-10.009766,-1.0986328,0.0,0.0,0.0,-42.86316,76.52527,-40.83618
1766814329124,-0.81347656,4.8828125E-4,0.2919922,-13.000488,-10.009766,-1.0986328,0.0,0.0,0.0,-54.157104,76.34949,-53.184814
1766814329212,-1.1328125,-0.203125,-0.0146484375,3.6621094,-11.291504,-0.7324219,0.0,0.0,0.0,-54.157104,76.34949,-53.184814
1766814329223,-1.1328125,-0.203125,-0.0146484375,3.6621094,-11.291504,-0.7324219,0.0,0.0,0.0,-45.29663,75.49255,-43.29712
1766814329311,-1.1533203,-0.23486328,0.046875,-12.634277,8.300781,-11.047363,0.0,0.0,0.0,-45.29663,75.49255,-43.29712
1766814329323,-1.1533203,-0.23486328,0.046875,-12.634277,8.300781,-11.047363,0.0,0.0,0.0,-50.476685,75.43762,-47.84546
1766814329411,-1.0620117,-0.15625,0.15771484,6.4697266,7.9345703,-4.5166016,0.0,0.0,0.0,-50.476685,75.43762,-47.84546
1766814329423,-1.0620117,-0.15625,0.15771484,6.4697266,7.9345703,-4.5166016,0.0,0.0,0.0,-56.30493,75.635376,-53.95935
1766814329511,-0.703125,-0.3022461,0.36669922,-6.958008,20.446777,-6.3476562,0.0,0.0,0.0,-56.30493,75.635376,-53.95935
1766814329523,-0.703125,-0.3022461,0.36669922,-6.958008,20.446777,-6.3476562,0.0,0.0,0.0,-62.314453,76.09131,-60.325928
1766814329610,-1.0229492,-0.037597656,0.13378906,-9.94873,-57.006836,26.367188,0.0,0.0,0.0,-62.314453,76.09131,-60.325928
1766814329622,-1.0229492,-0.037597656,0.13378906,-9.94873,-57.006836,26.367188,0.0,0.0,0.0,-51.427002,74.833374,-50.03174
1766814329710,-0.9448242,-0.2631836,0.10595703,11.352539,26.97754,-4.699707,0.0,0.0,0.0,-51.427002,74.833374,-50.03174
1766814329722,-0.9448242,-0.2631836,0.10595703,11.352539,26.97754,-4.699707,0.0,0.0,0.0,-48.493652,75.651855,-46.45569
1766814329810,-0.9560547,-0.1928711,0.08496094,11.291504,-9.338379,1.8920898,0.0,0.0,0.0,-48.493652,75.651855,-46.45569
1766814329821,-0.9560547,-0.1928711,0.08496094,11.291504,-9.338379,1.8920898,0.0,0.0,0.0,-49.592285,75.55847,-49.015503
1766814329910,-1.0620117,-0.265625,0.0107421875,15.441895,23.07129,-5.126953,0.0,0.0,0.0,-49.592285,75.55847,-49.015503
1766814329921,-1.0620117,-0.265625,0.0107421875,15.441895,23.07129,-5.126953,0.0,0.0,0.0,-52.036743,76.04187,-52.82776
1766814330009,-1.2060547,-0.2368164,-0.0034179688,-0.4272461,26.489258,0.61035156,0.0,0.0,0.0,-52.036743,76.04187,-52.82776
1766814330021,-1.2060547,-0.2368164,-0.0034179688,-0.4272461,26.489258,0.61035156,0.0,0.0,0.0,-60.721436,77.10205,-62.286987
1766814330109,-0.87060547,-0.1459961,0.10644531,-15.075684,13.85498,-6.8969727,0.0,0.0,0.0,-60.721436,77.10205,-62.286987
1766814330120,-0.87060547,-0.1459961,0.10644531,-15.075684,13.85498,-6.8969727,0.0,0.0,0.0,-74.85535,77.67883,-75.28931
1766814330209,-0.84814453,0.10498047,0.37109375,30.944824,-2.6855469,-4.760742,0.0,0.0,0.0,-74.85535,77.67883,-75.28931
1766814330220,-0.84814453,0.10498047,0.37109375,30.944824,-2.6855469,-4.760742,0.0,0.0,0.0,-76.38245,76.71753,-78.75549
1766814330308,-1.0507812,-0.44335938,-0.24560547,-9.94873,-60.058594,8.117676,0.0,0.0,0.0,-76.38245,76.71753,-78.75549
1766814330320,-1.0507812,-0.44335938,-0.24560547,-9.94873,-60.058594,8.117676,0.0,0.0,0.0,-47.092896,75.90454,-48.94409
1766814330408,-0.84716797,-0.017089844,0.2626953,-8.911133,9.521484,-10.375977,0.0,0.0,0.0,-47.092896,75.90454,-48.94409
1766814330420,-0.84716797,-0.017089844,0.2626953,-8.911133,9.521484,-10.375977,0.0,0.0,0.0,-55.134888,75.28381,-57.469482
1766814330508,-1.0771484,-0.25439453,0.015136719,-10.253906,-15.380859,13.061523,0.0,0.0,0.0,-55.134888,75.28381,-57.469482
1766814330519,-1.0771484,-0.25439453,0.015136719,-10.253906,-15.380859,13.061523,0.0,0.0,0.0,-47.735596,75.19043,-48.35083
1766814330607,-1.1352539,-0.22167969,0.024902344,-13.427734,3.7231445,0.61035156,0.0,0.0,0.0,-47.735596,75.19043,-48.35083
1766814330619,-1.1352539,-0.22167969,0.024902344,-13.427734,3.7231445,0.61035156,0.0,0.0,0.0,-49.674683,75.531006,-49.70764
1766814330707,-1.1113281,-0.12646484,0.114746094,-10.314941,21.66748,-3.0517578,0.0,0.0,0.0,-49.674683,75.531006,-49.70764
1766814330719,-1.1113281,-0.12646484,0.114746094,-10.314941,21.66748,-3.0517578,0.0,0.0,0.0,-58.969116,76.53076,-57.491455
1766814330807,-0.65966797,-0.22460938,0.2836914,-17.700195,4.272461,5.3710938,0.0,0.0,0.0,-58.969116,76.53076,-57.491455
1766814330818,-0.65966797,-0.22460938,0.2836914,-17.700195,4.272461,5.3710938,0.0,0.0,0.0,-63.671265,77.34924,-61.397095
1766814330907,-0.9604492,-0.12646484,0.37451172,4.760742,-41.19873,6.164551,0.0,0.0,0.0,-63.671265,77.34924,-61.397095
1766814330918,-0.9604492,-0.12646484,0.37451172,4.760742,-41.19873,6.164551,0.0,0.0,0.0,-59.908447,76.761475,-56.832275
1766814331006,-0.95996094,-0.19335938,-0.028320312,-17.456055,11.779785,8.178711,0.0,0.0,0.0,-59.908447,76.761475,-56.832275
1766814331018,-0.95996094,-0.19335938,-0.028320312,-17.456055,11.779785,8.178711,0.0,0.0,0.0,-46.26892,76.26709,-41.341553
1766814331106,-0.90625,-0.19628906,0.13232422,11.59668,-10.803223,-1.5258789,0.0,0.0,0.0,-46.26892,76.26709,-41.341553
1766814331118,-0.90625,-0.19628906,0.13232422,11.59668,-10.803223,-1.5258789,0.0,0.0,0.0,-47.15332,76.69006,-42.253418
1766814331206,-1.1044922,-0.18310547,-0.024902344,0.24414062,-1.159668,2.9296875,0.0,0.0,0.0,-47.15332,76.69006,-42.253418
1766814331217,-1.1044922,-0.18310547,-0.024902344,0.24414062,-1.159668,2.9296875,0.0,0.0,0.0,-43.8739,76.21216,-39.63318
1766814331305,-1.0942383,-0.234375,0.028808594,-0.4272461,14.892578,0.7324219,0.0,0.0,0.0,-43.8739,76.21216,-39.63318
1766814331317,-1.0942383,-0.234375,0.028808594,-0.4272461,14.892578,0.7324219,0.0,0.0,0.0,-47.191772,77.18445,-43.599243
1766814331406,-1.0717773,-0.18652344,0.3256836,-41.015625,17.700195,1.6479492,0.0,0.0,0.0,-47.191772,77.18445,-43.599243
1766814331417,-1.0717773,-0.18652344,0.3256836,-41.015625,17.700195,1.6479492,0.0,0.0,0.0,-61.853027,78.777466,-57.244263
1766814331505,-0.83984375,0.072265625,0.24560547,4.699707,-4.333496,-9.338379,0.0,0.0,0.0,-61.853027,78.777466,-57.244263
1766814331517,-0.83984375,0.072265625,0.24560547,4.699707,-4.333496,-9.338379,0.0,0.0,0.0,-65.198364,78.15674,-58.99109
1766814331604,-0.9941406,-0.30859375,0.045410156,-14.709473,-71.22803,21.240234,0.0,0.0,0.0,-65.198364,78.15674,-58.99109
1766814331616,-0.9941406,-0.30859375,0.045410156,-14.709473,-71.22803,21.240234,0.0,0.0,0.0,-45.560303,76.81641,-39.331055
1766814331704,-0.8769531,-0.024902344,0.23388672,3.0517578,19.65332,-14.221191,0.0,0.0,0.0,-45.560303,76.81641,-39.331055
1766814331716,-0.8769531,-0.024902344,0.23388672,3.0517578,19.65332,-14.221191,0.0,0.0,0.0,-43.86841,75.57495,-37.924805
1766814331804,-1.0019531,-0.16015625,0.09814453,-9.58252,-27.34375,16.235352,0.0,0.0,0.0,-43.86841,75.57495,-37.924805
1766814331815,-1.0019531,-0.16015625,0.09814453,-9.58252,-27.34375,16.235352,0.0,0.0,0.0,-39.10034,75.00366,-32.39868
1766814331904,-1.1704102,-0.18701172,0.109375,-10.498047,6.591797,-7.2631836,0.0,0.0,0.0,-39.10034,75.00366,-32.39868
1766814331915,-1.1704102,-0.18701172,0.109375,-10.498047,6.591797,-7.2631836,0.0,0.0,0.0,-37.177734,74.921265,-30.025635
1766814332003,-1.1430664,-0.059570312,0.047851562,-7.385254,28.747559,-4.1503906,0.0,0.0,0.0,-37.177734,74.921265,-30.025635
1766814332015,-1.1430664,-0.059570312,0.047851562,-7.385254,28.747559,-4.1503906,0.0,0.0,0.0,-43.571777,75.97046,-35.85388
1766814332103,-0.66796875,-0.22705078,0.3408203,-9.094238,12.390137,0.9765625,0.0,0.0,0.0,-43.571777,75.97046,-35.85388
1766814332114,-0.66796875,-0.22705078,0.3408203,-9.094238,12.390137,0.9765625,0.0,0.0,0.0,-52.201538,77.82715,-44.74182
1766814332203,-0.9526367,-0.14111328,0.35986328,29.296875,-47.60742,2.1362305,0.0,0.0,0.0,-52.201538,77.82715,-44.74182
1766814332214,-0.9526367,-0.14111328,0.35986328,29.296875,-47.60742,2.1362305,0.0,0.0,0.0,-49.279175,77.24487,-42.610474
1766814332302,-0.95703125,-0.14990234,0.059570312,1.4648438,11.535645,5.065918,0.0,0.0,0.0,-49.279175,77.24487,-42.610474
1766814332314,-0.95703125,-0.14990234,0.059570312,1.4648438,11.535645,5.065918,0.0,0.0,0.0,-36.02417,75.531006,-29.932251
1766814332402,-0.96728516,-0.24316406,0.20947266,19.348145,-16.784668,1.8920898,0.0,0.0,0.0,-36.02417,75.531006,-29.932251
1766814332413,-0.96728516,-0.24316406,0.20947266,19.348145,-16.784668,1.8920898,0.0,0.0,0.0,-34.156494,75.95398,-29.66858
1766814332502,-1.0317383,-0.16455078,0.03466797,11.474609,2.4414062,-9.58252,0.0,0.0,0.0,-34.156494,75.95398,-29.66858
1766814332513,-1.0317383,-0.16455078,0.03466797,11.474609,2.4414062,-9.58252,0.0,0.0,0.0,-32.250366,74.77844,-29.382935
1766814332601,-1.0825195,-0.16308594,0.08300781,1.4648438,15.319824,1.2207031,0.0,0.0,0.0,-32.250366,74.77844,-29.382935
1766814332613,-1.0825195,-0.16308594,0.08300781,1.4648438,15.319824,1.2207031,0.0,0.0,0.0,-37.018433,75.56946,-35.392456
1766814332701,-1.0087891,-0.1352539,0.33691406,-28.564453,28.381348,-2.746582,0.0,0.0,0.0,-37.018433,75.56946,-35.392456
1766814332713,-1.0087891,-0.1352539,0.33691406,-28.564453,28.381348,-2.746582,0.0,0.0,0.0,-49.30664,78.17871,-47.46643
1766814332801,-0.7807617,0.0703125,0.22216797,5.3710938,7.5683594,-1.2817383,0.0,0.0,0.0,-49.30664,78.17871,-47.46643
1766814332812,-0.7807617,0.0703125,0.22216797,5.3710938,7.5683594,-1.2817383,0.0,0.0,0.0,-54.717407,78.777466,-51.882935
1766814332900,-0.95947266,-0.3310547,0.29492188,0.9765625,-69.15283,21.606445,0.0,0.0,0.0,-54.717407,78.777466,-51.882935
1766814332912,-0.95947266,-0.3310547,0.29492188,0.9765625,-69.15283,21.606445,0.0,0.0,0.0,-38.336792,77.32727,-36.430664
1766814333000,-0.94140625,-0.045898438,0.06298828,10.7421875,27.70996,-22.888184,0.0,0.0,0.0,-38.336792,77.32727,-36.430664
1766814333012,-0.94140625,-0.045898438,0.06298828,10.7421875,27.70996,-22.888184,0.0,0.0,0.0,-36.4032,75.75073,-34.68933
1766814333100,-0.94921875,-0.087402344,0.20654297,-10.253906,-28.076172,19.470215,0.0,0.0,0.0,-36.4032,75.75073,-34.68933
1766814333111,-0.94921875,-0.087402344,0.20654297,-10.253906,-28.076172,19.470215,0.0,0.0,0.0,-34.27185,75.73425,-32.261353
1766814333200,-1.144043,-0.17382812,0.072753906,-4.5776367,11.84082,-7.751465,0.0,0.0,0.0,-34.27185,75.73425,-32.261353
1766814333212,-1.144043,-0.17382812,0.072753906,-4.5776367,11.84082,-7.751465,0.0,0.0,0.0,-32.25586,75.75073,-29.657593
1766814333299,-1.1469727,-0.07373047,0.0703125,-15.563965,18.981934,0.0,0.0,0.0,0.0,-32.25586,75.75073,-29.657593
1766814333311,-1.1469727,-0.07373047,0.0703125,-15.563965,18.981934,0.0,0.0,0.0,0.0,-39.050903,77.28882,-35.634155
1766814333399,-0.69433594,-0.21582031,0.34814453,-17.211914,11.59668,0.7324219,0.0,0.0,0.0,-39.050903,77.28882,-35.634155
1766814333411,-0.69433594,-0.21582031,0.34814453,-17.211914,11.59668,0.7324219,0.0,0.0,0.0,-44.44519,78.777466,-40.24292
1766814333499,-0.9399414,-0.09277344,0.33935547,20.080566,-46.447754,1.2207031,0.0,0.0,0.0,-44.44519,78.777466,-40.24292
1766814333510,-0.9399414,-0.09277344,0.33935547,20.080566,-46.447754,1.2207031,0.0,0.0,0.0,-40.182495,77.33276,-36.485596
1766814333598,-0.97509766,-0.107910156,0.079589844,-8.728027,1.5869141,4.3945312,0.0,0.0,0.0,-40.182495,77.33276,-36.485596
1766814333610,-0.97509766,-0.107910156,0.079589844,-8.728027,1.5869141,4.3945312,0.0,0.0,0.0,-30.60791,75.684814,-26.367188
1766814333698,-0.9863281,-0.18310547,0.18847656,14.770508,-23.376465,-1.0986328,0.0,0.0,0.0,-30.60791,75.684814,-26.367188
1766814333710,-0.9863281,-0.18310547,0.18847656,14.770508,-23.376465,-1.0986328,0.0,0.0,0.0,-27.921753,74.78943,-24.807129
1766814333798,-1.0244141,-0.1352539,0.10253906,8.605957,5.92041,-5.432129,0.0,0.0,0.0,-27.921753,74.78943,-24.807129
1766814333809,-1.0244141,-0.1352539,0.10253906,8.605957,5.92041,-5.432129,0.0,0.0,0.0,-27.702026,74.21265,-26.218872
1766814333897,-1.078125,-0.13916016,0.08203125,-4.8217773,12.207031,0.6713867,0.0,0.0,0.0,-27.702026,74.21265,-26.218872
1766814333909,-1.078125,-0.13916016,0.08203125,-4.8217773,12.207031,0.6713867,0.0,0.0,0.0,-30.92102,75.09155,-30.0531
1766814333997,-0.9291992,-0.05908203,0.34960938,-29.785156,14.343262,-2.1972656,0.0,0.0,0.0,-30.92102,75.09155,-30.0531
1766814334009,-0.9291992,-0.05908203,0.34960938,-29.785156,14.343262,-2.1972656,0.0,0.0,0.0,-41.52832,77.750244,-39.5343
1766814334097,-0.9067383,-0.018554688,0.33544922,28.442383,-1.159668,-9.82666,0.0,0.0,0.0,-41.52832,77.750244,-39.5343
1766814334108,-0.9067383,-0.018554688,0.33544922,28.442383,-1.159668,-9.82666,0.0,0.0,0.0,-41.292114,77.27234,-39.869385
1766814334196,-0.9716797,-0.22802734,0.0068359375,7.751465,-54.138184,1.4038086,0.0,0.0,0.0,-41.292114,77.27234,-39.869385
1766814334208,-0.9716797,-0.22802734,0.0068359375,7.751465,-54.138184,1.4038086,0.0,0.0,0.0,-28.130493,73.8501,-28.729248
1766814334296,-0.8852539,0.0048828125,0.3256836,2.9907227,14.404297,-10.7421875,0.0,0.0,0.0,-28.130493,73.8501,-28.729248
1766814334308,-0.8852539,0.0048828125,0.3256836,2.9907227,14.404297,-10.7421875,0.0,0.0,0.0,-32.173462,73.58093,-34.32129
1766814334396,-1.0454102,-0.21582031,0.15478516,-9.338379,-9.277344,10.803223,0.0,0.0,0.0,-32.173462,73.58093,-34.32129
1766814334407,-1.0454102,-0.21582031,0.15478516,-9.338379,-9.277344,10.803223,0.0,0.0,0.0,-28.092041,73.11401,-29.492798
1766814334495,-1.1489258,-0.10107422,0.08935547,-7.019043,15.50293,-7.873535,0.0,0.0,0.0,-28.092041,73.11401,-29.492798
1766814334507,-1.1489258,-0.10107422,0.08935547,-7.019043,15.50293,-7.873535,0.0,0.0,0.0,-32.074585,73.899536,-33.068848
1766814334595,-1.0761719,-0.060058594,0.12939453,4.0283203,42.419434,-4.5776367,0.0,0.0,0.0,-32.074585,73.899536,-33.068848
1766814334607,-1.0761719,-0.060058594,0.12939453,4.0283203,42.419434,-4.5776367,0.0,0.0,0.0,-41.401978,76.22864,-42.198486
1766814334695,-0.70703125,-0.3251953,0.46191406,-14.465332,10.314941,1.2207031,0.0,0.0,0.0,-41.401978,76.22864,-42.198486
1766814334706,-0.70703125,-0.3251953,0.46191406,-14.465332,10.314941,1.2207031,0.0,0.0,0.0,-50.251465,77.86011,-51.2677
1766814334795,-0.99316406,0.020019531,0.1640625,13.549805,-58.898926,13.916016,0.0,0.0,0.0,-50.251465,77.86011,-51.2677
1766814334806,-0.99316406,0.020019531,0.1640625,13.549805,-58.898926,13.916016,0.0,0.0,0.0,-41.566772,75.39368,-43.824463
1766814334894,-0.9746094,-0.1381836,0.11376953,14.404297,11.169434,-1.5258789,0.0,0.0,0.0,-41.566772,75.39368,-43.824463
1766814334906,-0.9746094,-0.1381836,0.11376953,14.404297,11.169434,-1.5258789,0.0,0.0,0.0,-31.464844,74.10278,-33.563232
1766814334994,-0.9511719,-0.2548828,0.20263672,14.587402,-14.526367,-9.460449,0.0,0.0,0.0,-31.464844,74.10278,-33.563232
1766814335006,-0.9511719,-0.2548828,0.20263672,14.587402,-14.526367,-9.460449,0.0,0.0,0.0,-30.767212,73.57544,-34.18396
1766814335094,-1.0356445,-0.14453125,0.11376953,1.4038086,5.7373047,-4.8217773,0.0,0.0,0.0,-30.767212,73.57544,-34.18396
1766814335105,-1.0356445,-0.14453125,0.11376953,1.4038086,5.7373047,-4.8217773,0.0,0.0,0.0,-32.50305,72.718506,-36.705322
1766814335193,-1.1821289,-0.20117188,0.076171875,-9.58252,36.68213,3.7231445,0.0,0.0,0.0,-32.50305,72.718506,-36.705322
1766814335205,-1.1821289,-0.20117188,0.076171875,-9.58252,36.68213,3.7231445,0.0,0.0,0.0,-36.106567,74.16321,-39.786987
1766814335293,-0.82373047,-0.053710938,0.3095703,-17.211914,-2.0141602,-2.2583008,0.0,0.0,0.0,-36.106567,74.16321,-39.786987
1766814335305,-0.82373047,-0.053710938,0.3095703,-17.211914,-2.0141602,-2.2583008,0.0,0.0,0.0,-47.702637,76.32202,-50.1416
1766814335393,-0.9267578,-0.16503906,0.41601562,29.663086,-5.2490234,-3.112793,0.0,0.0,0.0,-47.702637,76.32202,-50.1416
1766814335405,-0.9267578,-0.16503906,0.41601562,29.663086,-5.2490234,-3.112793,0.0,0.0,0.0,-44.038696,75.635376,-47.30713
1766814335492,-0.9560547,-0.1899414,-0.05517578,3.0517578,-20.263672,-3.8452148,0.0,0.0,0.0,-44.038696,75.635376,-47.30713
1766814335504,-0.9560547,-0.1899414,-0.05517578,3.0517578,-20.263672,-3.8452148,0.0,0.0,0.0,-32.04712,72.718506,-35.74951
1766814335592,-0.89453125,0.0,0.33544922,-5.493164,-7.9956055,7.080078,0.0,0.0,0.0,-32.04712,72.718506,-35.74951
1766814335604,-0.89453125,0.0,0.33544922,-5.493164,-7.9956055,7.080078,0.0,0.0,0.0,-35.595703,73.02612,-40.023193
1766814335692,-1.1166992,-0.29492188,0.12548828,-9.399414,6.7749023,2.0751953,0.0,0.0,0.0,-35.595703,73.02612,-40.023193
1766814335703,-1.1166992,-0.29492188,0.12548828,-9.399414,6.7749023,2.0751953,0.0,0.0,0.0,-30.256348,72.86682,-33.55774
1766814335791,-1.1743164,-0.087402344,0.045898438,-18.737793,13.48877,3.7841797,0.0,0.0,0.0,-30.256348,72.86682,-33.55774
1766814335803,-1.1743164,-0.087402344,0.045898438,-18.737793,13.48877,3.7841797,0.0,0.0,0.0,-35.112305,73.8501,-37.315063
1766814335891,-0.8125,-0.08300781,0.28222656,10.559082,34.118652,-3.7231445,0.0,0.0,0.0,-35.112305,73.8501,-37.315063
1766814335903,-0.8125,-0.08300781,0.28222656,10.559082,34.118652,-3.7231445,0.0,0.0,0.0,-43.390503,76.38245,-45.038452
1766814335991,-0.87353516,-0.41845703,0.5571289,7.507324,3.479004,-1.953125,0.0,0.0,0.0,-43.390503,76.38245,-45.038452
1766814336002,-0.87353516,-0.41845703,0.5571289,7.507324,3.479004,-1.953125,0.0,0.0,0.0,-50.048218,77.88757,-51.87744
1766814336090,-1.0170898,0.0078125,-0.092285156,-11.962891,-35.339355,19.470215,0.0,0.0,0.0,-50.048218,77.88757,-51.87744
1766814336102,-1.0170898,0.0078125,-0.092285156,-11.962891,-35.339355,19.470215,0.0,0.0,0.0,-34.222412,74.6521,-36.749268
1766814336190,-0.9555664,-0.2290039,0.3149414,18.188477,2.2583008,-2.746582,0.0,0.0,0.0,-34.222412,74.6521,-36.749268
1766814336202,-0.9555664,-0.2290039,0.3149414,18.188477,2.2583008,-2.746582,0.0,0.0,0.0,-33.535767,75.06958,-37.122803
1766814336290,-1.019043,-0.20947266,0.107421875,17.76123,-5.3100586,-12.023926,0.0,0.0,0.0,-33.535767,75.06958,-37.122803
1766814336301,-1.019043,-0.20947266,0.107421875,17.76123,-5.3100586,-12.023926,0.0,0.0,0.0,-31.651611,73.861084,-37.27112
1766814336390,-1.050293,-0.1508789,0.09082031,5.004883,14.892578,-4.3945312,0.0,0.0,0.0,-31.651611,73.861084,-37.27112
1766814336401,-1.050293,-0.1508789,0.09082031,5.004883,14.892578,-4.3945312,0.0,0.0,0.0,-35.628662,73.93799,-42.51709
1766814336489,-1.0786133,-0.29589844,0.18847656,-3.1738281,58.83789,-11.230469,0.0,0.0,0.0,-35.628662,73.93799,-42.51709
1766814336501,-1.0786133,-0.29589844,0.18847656,-3.1738281,58.83789,-11.230469,0.0,0.0,0.0,-45.318604,76.48132,-52.11914
1766814336589,-0.7915039,0.08300781,0.25,17.333984,8.056641,-13.305664,0.0,0.0,0.0,-45.318604,76.48132,-52.11914
1766814336600,-0.7915039,0.08300781,0.25,17.333984,8.056641,-13.305664,0.0,0.0,0.0,-59.035034,77.23389,-65.0885
1766814336689,-0.90771484,-0.35351562,0.42822266,13.48877,-72.143555,19.470215,0.0,0.0,0.0,-59.035034,77.23389,-65.0885
1766814336700,-0.90771484,-0.35351562,0.42822266,13.48877,-72.143555,19.470215,0.0,0.0,0.0,-50.943604,76.34949,-59.194336
1766814336788,-0.9477539,-0.22949219,-0.12109375,21.240234,5.2490234,-16.357422,0.0,0.0,0.0,-50.943604,76.34949,-59.194336
1766814336800,-0.9477539,-0.22949219,-0.12109375,21.240234,5.2490234,-16.357422,0.0,0.0,0.0,-36.639404,73.097534,-45.73059
1766814336888,-0.87158203,-0.0107421875,0.34960938,-1.2817383,-19.65332,6.164551,0.0,0.0,0.0,-36.639404,73.097534,-45.73059
1766814336899,-0.87158203,-0.0107421875,0.34960938,-1.2817383,-19.65332,6.164551,0.0,0.0,0.0,-41.59424,73.3667,-51.75659
1766814336988,-1.1523438,-0.29882812,0.057128906,2.6245117,-1.4648438,3.6010742,0.0,0.0,0.0,-41.59424,73.3667,-51.75659
1766814336999,-1.1523438,-0.29882812,0.057128906,2.6245117,-1.4648438,3.6010742,0.0,0.0,0.0,-33.535767,72.6416,-43.203735
1766814337087,-1.15625,-0.18554688,0.064453125,-4.4555664,17.578125,-5.6152344,0.0,0.0,0.0,-33.535767,72.6416,-43.203735
1766814337099,-1.15625,-0.18554688,0.064453125,-4.4555664,17.578125,-5.6152344,0.0,0.0,0.0,-39.10034,73.59741,-48.35083
1766814337187,-0.85302734,-0.08642578,0.2602539,12.573242,23.742676,-3.3569336,0.0,0.0,0.0,-39.10034,73.59741,-48.35083
1766814337198,-0.85302734,-0.08642578,0.2602539,12.573242,23.742676,-3.3569336,0.0,0.0,0.0,-48.845215,75.18494,-58.606567
1766814337287,-0.82373047,-0.34765625,0.47705078,2.8076172,7.5683594,3.1738281,0.0,0.0,0.0,-48.845215,75.18494,-58.606567
1766814337298,-0.82373047,-0.34765625,0.47705078,2.8076172,7.5683594,3.1738281,0.0,0.0,0.0,-50.267944,76.05835,-60.353394
1766814337386,-1.0268555,0.012207031,-0.03515625,-3.90625,-62.13379,15.808105,0.0,0.0,0.0,-50.267944,76.05835,-60.353394
1766814337398,-1.0268555,0.012207031,-0.03515625,-3.90625,-62.13379,15.808105,0.0,0.0,0.0,-35.46936,72.65259,-46.290894
1766814337486,-0.9213867,-0.2055664,0.23730469,11.59668,13.122559,-2.1362305,0.0,0.0,0.0,-35.46936,72.65259,-46.290894
1766814337498,-0.9213867,-0.2055664,0.23730469,11.59668,13.122559,-2.1362305,0.0,0.0,0.0,-33.777466,73.10303,-44.890137
1766814337586,-1.0063477,-0.2421875,0.20410156,14.221191,-12.145996,-7.2631836,0.0,0.0,0.0,-33.777466,73.10303,-44.890137
1766814337597,-1.0063477,-0.2421875,0.20410156,14.221191,-12.145996,-7.2631836,0.0,0.0,0.0,-33.1073,72.180176,-45.67566
1766814337685,-1.0419922,-0.17822266,0.11328125,-3.2958984,19.836426,-4.272461,0.0,0.0,0.0,-33.1073,72.180176,-45.67566
1766814337697,-1.0419922,-0.17822266,0.11328125,-3.2958984,19.836426,-4.272461,0.0,0.0,0.0,-36.644897,72.36694,-49.070435
1766814337785,-1.0986328,-0.3486328,0.18603516,-16.479492,35.827637,-0.5493164,0.0,0.0,0.0,-36.644897,72.36694,-49.070435
1766814337797,-1.0986328,-0.3486328,0.18603516,-16.479492,35.827637,-0.5493164,0.0,0.0,0.0,-43.082886,74.52026,-54.0802
1766814337885,-0.72802734,0.028320312,0.1586914,-0.8544922,4.638672,-15.563965,0.0,0.0,0.0,-43.082886,74.52026,-54.0802
1766814337897,-0.72802734,0.028320312,0.1586914,-0.8544922,4.638672,-15.563965,0.0,0.0,0.0,-51.59729,74.833374,-60.38086
1766814337985,-0.9042969,-0.14160156,0.57177734,19.40918,-31.00586,10.131836,0.0,0.0,0.0,-51.59729,74.833374,-60.38086
1766814337996,-0.9042969,-0.14160156,0.57177734,19.40918,-31.00586,10.131836,0.0,0.0,0.0,-50.90515,74.19617,-61.644287
1766814338084,-0.9892578,-0.30029297,-0.11035156,18.066406,17.63916,-18.005371,0.0,0.0,0.0,-50.90515,74.19617,-61.644287
1766814338096,-0.9892578,-0.30029297,-0.11035156,18.066406,17.63916,-18.005371,0.0,0.0,0.0,-35.985718,71.74072,-46.64795
1766814338184,-0.87109375,-0.03173828,0.2763672,-1.7089844,-16.662598,7.8125,0.0,0.0,0.0,-35.985718,71.74072,-46.64795
1766814338196,-0.87109375,-0.03173828,0.2763672,-1.7089844,-16.662598,7.8125,0.0,0.0,0.0,-41.51184,72.29004,-53.217773
1766814338284,-1.1220703,-0.28320312,0.14160156,5.126953,8.361816,1.2817383,0.0,0.0,0.0,-41.51184,72.29004,-53.217773
1766814338295,-1.1220703,-0.28320312,0.14160156,5.126953,8.361816,1.2817383,0.0,0.0,0.0,-37.062378,72.509766,-48.482666
1766814338383,-1.1972656,-0.18701172,0.0,-9.338379,21.1792,-3.3569336,0.0,0.0,0.0,-37.062378,72.509766,-48.482666
1766814338395,-1.1972656,-0.18701172,0.0,-9.338379,21.1792,-3.3569336,0.0,0.0,0.0,-41.77002,73.38867,-52.547607
1766814338483,-0.8125,-0.12890625,0.30126953,7.8125,22.338867,-5.3710938,0.0,0.0,0.0,-41.77002,73.38867,-52.547607
1766814338494,-0.8125,-0.12890625,0.30126953,7.8125,22.338867,-5.3710938,0.0,0.0,0.0,-52.349854,75.15198,-63.19336
1766814338583,-0.84228516,-0.42333984,0.5566406,10.009766,7.385254,-1.8920898,0.0,0.0,0.0,-52.349854,75.15198,-63.19336
1766814338594,-0.84228516,-0.42333984,0.5566406,10.009766,7.385254,-1.8920898,0.0,0.0,0.0,-56.12915,75.62988,-67.318726
1766814338682,-1.0024414,0.100097656,-0.1171875,-26.916504,-56.33545,32.348633,0.0,0.0,0.0,-56.12915,75.62988,-67.318726
1766814338694,-1.0024414,0.100097656,-0.1171875,-26.916504,-56.33545,32.348633,0.0,0.0,0.0,-38.100586,72.52075,-48.99353
1766814338782,-0.9272461,-0.29345703,0.2685547,8.544922,11.291504,-0.7324219,0.0,0.0,0.0,-38.100586,72.52075,-48.99353
1766814338794,-0.9272461,-0.29345703,0.2685547,8.544922,11.291504,-0.7324219,0.0,0.0,0.0,-36.276855,73.63037,-46.99951
1766814338882,-1.0107422,-0.22167969,0.17138672,5.3100586,-3.3569336,-5.6152344,0.0,0.0,0.0,-36.276855,73.63037,-46.99951
1766814338893,-1.0107422,-0.22167969,0.17138672,5.3100586,-3.3569336,-5.6152344,0.0,0.0,0.0,-36.990967,73.02063,-48.548584
1766814338981,-1.109375,-0.24609375,0.056152344,0.12207031,19.226074,-0.7324219,0.0,0.0,0.0,-36.990967,73.02063,-48.548584
1766814338993,-1.109375,-0.24609375,0.056152344,0.12207031,19.226074,-0.7324219,0.0,0.0,0.0,-40.127563,73.586426,-51.54236
1766814339081,-1.0800781,-0.34960938,0.21972656,-10.925293,44.189453,-7.5683594,0.0,0.0,0.0,-40.127563,73.586426,-51.54236
1766814339093,-1.0800781,-0.34960938,0.21972656,-10.925293,44.189453,-7.5683594,0.0,0.0,0.0,-50.196533,75.82764,-60.81482
1766814339181,-0.6958008,0.03564453,0.16455078,7.1411133,1.0986328,-17.27295,0.0,0.0,0.0,-50.196533,75.82764,-60.81482
1766814339193,-0.6958008,0.03564453,0.16455078,7.1411133,1.0986328,-17.27295,0.0,0.0,0.0,-60.056763,75.72876,-68.73596
1766814339281,-0.95751953,-0.18310547,0.59277344,7.8125,-46.26465,23.19336,0.0,0.0,0.0,-60.056763,75.72876,-68.73596
1766814339292,-0.95751953,-0.18310547,0.59277344,7.8125,-46.26465,23.19336,0.0,0.0,0.0,-55.733643,74.86633,-66.604614
1766814339380,-0.9316406,-0.2553711,-0.03955078,20.874023,22.766113,-21.484375,0.0,0.0,0.0,-55.733643,74.86633,-66.604614
1766814339392,-0.9316406,-0.2553711,-0.03955078,20.874023,22.766113,-21.484375,0.0,0.0,0.0,-39.55078,72.509766,-49.905396
1766814339480,-0.88378906,-0.0107421875,0.22607422,-8.911133,-28.137207,15.380859,0.0,0.0,0.0,-39.55078,72.509766,-49.905396
1766814339492,-0.88378906,-0.0107421875,0.22607422,-8.911133,-28.137207,15.380859,0.0,0.0,0.0,-43.43445,72.51526,-54.06372
1766814339580,-1.1386719,-0.27929688,0.123535156,-1.159668,3.2348633,1.2817383,0.0,0.0,0.0,-43.43445,72.51526,-54.06372
1766814339591,-1.1386719,-0.27929688,0.123535156,-1.159668,3.2348633,1.2817383,0.0,0.0,0.0,-37.0459,72.48779,-46.757812
1766814339679,-1.2050781,-0.2084961,-4.8828125E-4,-11.535645,14.282227,-1.4648438,0.0,0.0,0.0,-37.0459,72.48779,-46.757812
1766814339691,-1.2050781,-0.2084961,-4.8828125E-4,-11.535645,14.282227,-1.4648438,0.0,0.0,0.0,-40.374756,73.13599,-48.87268
1766814339779,-0.79248047,-0.14160156,0.2939453,-2.2583008,22.888184,-4.9438477,0.0,0.0,0.0,-40.374756,73.13599,-48.87268
1766814339791,-0.79248047,-0.14160156,0.2939453,-2.2583008,22.888184,-4.9438477,0.0,0.0,0.0,-49.44397,74.767456,-57.453003
1766814339879,-0.84521484,-0.35595703,0.5620117,4.1503906,16.235352,-2.2583008,0.0,0.0,0.0,-49.44397,74.767456,-57.453003
1766814339891,-0.84521484,-0.35595703,0.5620117,4.1503906,16.235352,-2.2583008,0.0,0.0,0.0,-56.30493,75.60791,-64.17114
1766814339978,-1.003418,0.079589844,-0.19335938,-45.654297,-72.08252,51.208496,0.0,0.0,0.0,-56.30493,75.60791,-64.17114
1766814339991,-1.003418,0.079589844,-0.19335938,-45.654297,-72.08252,51.208496,0.0,0.0,0.0,-39.02893,73.24585,-46.450195
1766814340078,-0.92871094,-0.20751953,0.34179688,23.4375,32.77588,-10.314941,0.0,0.0,0.0,-39.02893,73.24585,-46.450195
1766814340090,-0.92871094,-0.20751953,0.34179688,23.4375,32.77588,-10.314941,0.0,0.0,0.0,-34.84314,74.38843,-41.967773
1766814340178,-1.0249023,-0.20751953,0.09814453,-0.061035156,-11.413574,2.1362305,0.0,0.0,0.0,-34.84314,74.38843,-41.967773
1766814340189,-1.0249023,-0.20751953,0.09814453,-0.061035156,-11.413574,2.1362305,0.0,0.0,0.0,-35.66162,74.295044,-43.621216
1766814340277,-1.1000977,-0.20996094,0.104003906,5.92041,22.338867,-4.9438477,0.0,0.0,0.0,-35.66162,74.295044,-43.621216
1766814340289,-1.1000977,-0.20996094,0.104003906,5.92041,22.338867,-4.9438477,0.0,0.0,0.0,-38.92456,74.871826,-47.164307
1766814340377,-1.1376953,-0.31298828,0.091308594,-7.385254,44.25049,-5.79834,0.0,0.0,0.0,-38.92456,74.871826,-47.164307
1766814340389,-1.1376953,-0.31298828,0.091308594,-7.385254,44.25049,-5.79834,0.0,0.0,0.0,-46.955566,76.57471,-54.865723
1766814340477,-0.7363281,0.016601562,0.24609375,-0.91552734,-3.1738281,-14.831543,0.0,0.0,0.0,-46.955566,76.57471,-54.865723
1766814340488,-0.7363281,0.016601562,0.24609375,-0.91552734,-3.1738281,-14.831543,0.0,0.0,0.0,-59.61731,76.761475,-65.9729
1766814340577,-0.96435547,-0.18847656,0.4765625,10.009766,-63.537598,25.20752,0.0,0.0,0.0,-59.61731,76.761475,-65.9729
1766814340588,-0.96435547,-0.18847656,0.4765625,10.009766,-63.537598,25.20752,0.0,0.0,0.0,-51.85547,75.27832,-60.5896
1766814340676,-0.92041016,-0.21972656,0.1352539,13.793945,26.184082,-20.568848,0.0,0.0,0.0,-51.85547,75.27832,-60.5896
1766814340688,-0.92041016,-0.21972656,0.1352539,13.793945,26.184082,-20.568848,0.0,0.0,0.0,-38.325806,73.09204,-46.801758
1766814340776,-0.9003906,-0.038085938,0.119628906,-10.986328,-21.057129,14.282227,0.0,0.0,0.0,-38.325806,73.09204,-46.801758
1766814340788,-0.9003906,-0.038085938,0.119628906,-10.986328,-21.057129,14.282227,0.0,0.0,0.0,-41.138306,73.10303,-49.174805
1766814340876,-1.0483398,-0.22949219,0.13085938,2.8686523,10.253906,5.6152344,0.0,0.0,0.0,-41.138306,73.10303,-49.174805
1766814340887,-1.0483398,-0.22949219,0.13085938,2.8686523,10.253906,5.6152344,0.0,0.0,0.0,-37.69409,73.83362,-45.26367
1766814340977,-1.1010742,-0.2397461,0.11621094,-9.338379,0.18310547,5.432129,0.0,0.0,0.0,-37.69409,73.83362,-45.26367
1766814340987,-1.1010742,-0.2397461,0.11621094,-9.338379,0.18310547,5.432129,0.0,0.0,0.0,-39.39148,74.800415,-46.30188
1766814341075,-1.1230469,-0.043945312,0.16845703,7.2631836,30.334473,-16.296387,0.0,0.0,0.0,-39.39148,74.800415,-46.30188
1766814341087,-1.1230469,-0.043945312,0.16845703,7.2631836,30.334473,-16.296387,0.0,0.0,0.0,-46.94458,75.739746,-53.239746
1766814341175,-0.6557617,-0.21386719,0.35595703,4.3945312,16.723633,-5.3100586,0.0,0.0,0.0,-46.94458,75.739746,-53.239746
1766814341186,-0.6557617,-0.21386719,0.35595703,4.3945312,16.723633,-5.3100586,0.0,0.0,0.0,-54.036255,76.47034,-61.364136
1766814341274,-0.9604492,-0.115234375,0.4423828,16.845703,-53.466797,7.3242188,0.0,0.0,0.0,-54.036255,76.47034,-61.364136
1766814341286,-0.9604492,-0.115234375,0.4423828,16.845703,-53.466797,7.3242188,0.0,0.0,0.0,-47.208252,75.443115,-55.32715
1766814341374,-0.92822266,-0.18408203,0.022949219,12.084961,23.68164,-0.24414062,0.0,0.0,0.0,-47.208252,75.443115,-55.32715
1766814341386,-0.92822266,-0.18408203,0.022949219,12.084961,23.68164,-0.24414062,0.0,0.0,0.0,-37.781982,75.14099,-44.901123
1766814341474,-0.97558594,-0.24951172,0.14257812,15.930176,-17.700195,-0.18310547,0.0,0.0,0.0,-37.781982,75.14099,-44.901123
1766814341485,-0.97558594,-0.24951172,0.14257812,15.930176,-17.700195,-0.18310547,0.0,0.0,0.0,-35.809937,74.904785,-44.038696
1766814341573,-1.0737305,-0.20019531,0.043945312,4.8217773,8.300781,-6.3476562,0.0,0.0,0.0,-35.809937,74.904785,-44.038696
1766814341585,-1.0737305,-0.20019531,0.043945312,4.8217773,8.300781,-6.3476562,0.0,0.0,0.0,-37.348022,74.487305,-46.16455
1766814341673,-1.1269531,-0.2421875,0.030761719,-14.038086,18.615723,4.211426,0.0,0.0,0.0,-37.348022,74.487305,-46.16455
1766814341685,-1.1269531,-0.2421875,0.030761719,-14.038086,18.615723,4.211426,0.0,0.0,0.0,-42.75879,75.86609,-50.877686
1766814341773,-0.8930664,-0.13720703,0.32861328,-40.100098,15.930176,-6.8969727,0.0,0.0,0.0,-42.75879,75.86609,-50.877686
1766814341785,-0.8930664,-0.13720703,0.32861328,-40.100098,15.930176,-6.8969727,0.0,0.0,0.0,-59.49646,77.72278,-64.66553
1766814341872,-0.88134766,0.16992188,0.29882812,29.47998,-3.6621094,-11.901855,0.0,0.0,0.0,-59.49646,77.72278,-64.66553
1766814341884,-0.88134766,0.16992188,0.29882812,29.47998,-3.6621094,-11.901855,0.0,0.0,0.0,-60.474243,76.56372,-65.90698
1766814341972,-0.9868164,-0.36279297,-0.17529297,6.713867,-43.395996,3.90625,0.0,0.0,0.0,-60.474243,76.56372,-65.90698
1766814341984,-0.9868164,-0.36279297,-0.17529297,6.713867,-43.395996,3.90625,0.0,0.0,0.0,-39.193726,74.62463,-44.92859
1766814342072,-0.85546875,-0.020507812,0.32177734,-1.8310547,3.90625,-6.958008,0.0,0.0,0.0,-39.193726,74.62463,-44.92859
1766814342085,-0.85546875,-0.020507812,0.32177734,-1.8310547,3.90625,-6.958008,0.0,0.0,0.0,-45.477905,74.58069,-52.943115
1766814342172,-1.0683594,-0.19824219,0.09716797,1.0986328,-8.300781,12.145996,0.0,0.0,0.0,-45.477905,74.58069,-52.943115
1766814342183,-1.0683594,-0.19824219,0.09716797,1.0986328,-8.300781,12.145996,0.0,0.0,0.0,-38.551025,74.382935,-45.335083
1766814342271,-1.15625,-0.2241211,0.05419922,-0.79345703,16.479492,-4.8828125,0.0,0.0,0.0,-38.551025,74.382935,-45.335083
1766814342283,-1.15625,-0.2241211,0.05419922,-0.79345703,16.479492,-4.8828125,0.0,0.0,0.0,-40.22644,75.322266,-46.61499
1766814342371,-1.065918,-0.08886719,0.10644531,6.5307617,23.19336,-9.155273,0.0,0.0,0.0,-40.22644,75.322266,-46.61499
1766814342382,-1.065918,-0.08886719,0.10644531,6.5307617,23.19336,-9.155273,0.0,0.0,0.0,-49.471436,76.38245,-55.81604
1766814342471,-0.7084961,-0.25048828,0.38916016,-2.5634766,27.58789,-4.1503906,0.0,0.0,0.0,-49.471436,76.38245,-55.81604
1766814342482,-0.7084961,-0.25048828,0.38916016,-2.5634766,27.58789,-4.1503906,0.0,0.0,0.0,-59.56787,77.56348,-66.51123
1766814342570,-0.9086914,0.018066406,0.33398438,10.559082,-79.956055,20.874023,0.0,0.0,0.0,-59.56787,77.56348,-66.51123
1766814342582,-0.9086914,0.018066406,0.33398438,10.559082,-79.956055,20.874023,0.0,0.0,0.0,-49.465942,76.03638,-57.233276
1766814342670,-0.9428711,-0.21142578,0.041992188,15.991211,31.188965,-2.5024414,0.0,0.0,0.0,-49.465942,76.03638,-57.233276
1766814342681,-0.9428711,-0.21142578,0.041992188,15.991211,31.188965,-2.5024414,0.0,0.0,0.0,-37.963257,75.92651,-44.423218
1766814342770,-0.9404297,-0.21142578,0.18115234,6.591797,-12.634277,-1.8920898,0.0,0.0,0.0,-37.963257,75.92651,-44.423218
1766814342781,-0.9404297,-0.21142578,0.18115234,6.591797,-12.634277,-1.8920898,0.0,0.0,0.0,-39.32556,76.09131,-46.411743
1766814342869,-1.1245117,-0.21582031,-0.032226562,2.1362305,19.226074,-5.79834,0.0,0.0,0.0,-39.32556,76.09131,-46.411743
1766814342881,-1.1245117,-0.21582031,-0.032226562,2.1362305,19.226074,-5.79834,0.0,0.0,0.0,-40.946045,75.8551,-47.790527
1766814342969,-1.1811523,-0.20214844,0.08496094,-7.446289,28.930664,3.4179688,0.0,0.0,0.0,-40.946045,75.8551,-47.790527
1766814342981,-1.1811523,-0.20214844,0.08496094,-7.446289,28.930664,3.4179688,0.0,0.0,0.0,-51.036987,77.45911,-57.76062
1766814343069,-0.84375,-0.14941406,0.15722656,-33.325195,9.155273,-9.460449,0.0,0.0,0.0,-51.036987,77.45911,-57.76062
1766814343080,-0.84375,-0.14941406,0.15722656,-33.325195,9.155273,-9.460449,0.0,0.0,0.0,-65.29724,78.56323,-69.12598
1766814343168,-0.9091797,0.12792969,0.36767578,27.038574,0.18310547,-17.63916,0.0,0.0,0.0,-65.29724,78.56323,-69.12598
1766814343180,-0.9091797,0.12792969,0.36767578,27.038574,0.18310547,-17.63916,0.0,0.0,0.0,-69.54346,77.18445,-73.602905
1766814343268,-1.0219727,-0.34423828,-0.20947266,3.0517578,-59.387207,16.479492,0.0,0.0,0.0,-69.54346,77.18445,-73.602905
1766814343280,-1.0219727,-0.34423828,-0.20947266,3.0517578,-59.387207,16.479492,0.0,0.0,0.0,-42.143555,75.267334,-47.010498
1766814343368,-0.85595703,-0.08300781,0.32226562,-8.911133,3.90625,-10.192871,0.0,0.0,0.0,-42.143555,75.267334,-47.010498
1766814343379,-0.85595703,-0.08300781,0.32226562,-8.911133,3.90625,-10.192871,0.0,0.0,0.0,-46.09314,75.01465,-51.311646
1766814343467,-1.0292969,-0.16064453,-0.020996094,-8.7890625,-8.361816,10.070801,0.0,0.0,0.0,-46.09314,75.01465,-51.311646
1766814343479,-1.0292969,-0.16064453,-0.020996094,-8.7890625,-8.361816,10.070801,0.0,0.0,0.0,-40.028687,74.27307,-43.45642
1766814343567,-1.1352539,-0.22070312,0.12939453,-1.0375977,5.554199,3.479004,0.0,0.0,0.0,-40.028687,74.27307,-43.45642
1766814343579,-1.1352539,-0.22070312,0.12939453,-1.0375977,5.554199,3.479004,0.0,0.0,0.0,-41.434937,75.47058,-44.697876
1766814343667,-1.2158203,-0.15332031,-0.024902344,-11.230469,20.324707,-6.4697266,0.0,0.0,0.0,-41.434937,75.47058,-44.697876
1766814343678,-1.2158203,-0.15332031,-0.024902344,-11.230469,20.324707,-6.4697266,0.0,0.0,0.0,-44.98352,76.22864,-47.49939
1766814343767,-0.6591797,-0.08300781,0.265625,2.6245117,26.550293,-1.3427734,0.0,0.0,0.0,-44.98352,76.22864,-47.49939
1766814343778,-0.6591797,-0.08300781,0.265625,2.6245117,26.550293,-1.3427734,0.0,0.0,0.0,-58.64502,77.67883,-61.463013
1766814343866,-0.8701172,-0.328125,0.5708008,5.126953,-13.48877,2.0141602,0.0,0.0,0.0,-58.64502,77.67883,-61.463013
1766814343878,-0.8701172,-0.328125,0.5708008,5.126953,-13.48877,2.0141602,0.0,0.0,0.0,-63.424072,78.43689,-65.61035
1766814343966,-1.0292969,-0.11328125,-0.21972656,-24.719238,-19.042969,28.625488,0.0,0.0,0.0,-63.424072,78.43689,-65.61035
1766814343977,-1.0292969,-0.11328125,-0.21972656,-24.719238,-19.042969,28.625488,0.0,0.0,0.0,-37.364502,75.910034,-39.127808
1766814344066,-0.9433594,-0.22363281,0.1665039,10.437012,-2.5634766,3.4179688,0.0,0.0,0.0,-37.364502,75.910034,-39.127808
1766814344077,-0.9433594,-0.22363281,0.1665039,10.437012,-2.5634766,3.4179688,0.0,0.0,0.0,-37.05139,77.371216,-38.2489
1766814344165,-1.0219727,-0.19433594,0.080566406,2.5634766,-4.1503906,-2.9296875,0.0,0.0,0.0,-37.05139,77.371216,-38.2489
1766814344177,-1.0219727,-0.19433594,0.080566406,2.5634766,-4.1503906,-2.9296875,0.0,0.0,0.0,-35.667114,77.041626,-38.04016
1766814344265,-1.1030273,-0.17089844,0.015136719,10.009766,13.977051,-2.9296875,0.0,0.0,0.0,-35.667114,77.041626,-38.04016
1766814344277,-1.1030273,-0.17089844,0.015136719,10.009766,13.977051,-2.9296875,0.0,0.0,0.0,-39.457397,77.34375,-42.41272
1766814344365,-1.1679688,-0.29589844,0.22998047,-15.075684,37.04834,-10.131836,0.0,0.0,0.0,-39.457397,77.34375,-42.41272
1766814344376,-1.1679688,-0.29589844,0.22998047,-15.075684,37.04834,-10.131836,0.0,0.0,0.0,-52.036743,79.11804,-55.151367
1766814344464,-0.6982422,0.053710938,0.15283203,16.723633,11.474609,-24.536133,0.0,0.0,0.0,-52.036743,79.11804,-55.151367
1766814344476,-0.6982422,0.053710938,0.15283203,16.723633,11.474609,-24.536133,0.0,0.0,0.0,-66.500244,78.8324,-68.2251
1766814344564,-0.96875,-0.1352539,0.5625,16.174316,-69.64111,22.888184,0.0,0.0,0.0,-66.500244,78.8324,-68.2251
1766814344576,-0.96875,-0.1352539,0.5625,16.174316,-69.64111,22.888184,0.0,0.0,0.0,-60.1062,77.84363,-64.25903
1766814344664,-0.95166016,-0.26416016,-0.12939453,16.967773,29.541016,-28.076172,0.0,0.0,0.0,-60.1062,77.84363,-64.25903
1766814344675,-0.95166016,-0.26416016,-0.12939453,16.967773,29.541016,-28.076172,0.0,0.0,0.0,-33.892822,74.54773,-37.699585
1766814344764,-0.8833008,0.024902344,0.2265625,-15.258789,-31.00586,13.549805,0.0,0.0,0.0,-33.892822,74.54773,-37.699585
1766814344775,-0.8833008,0.024902344,0.2265625,-15.258789,-31.00586,13.549805,0.0,0.0,0.0,-43.659668,74.91577,-48.31787
1766814344863,-1.0341797,-0.1953125,-0.0034179688,0.6713867,0.8544922,3.6621094,0.0,0.0,0.0,-43.659668,74.91577,-48.31787
1766814344874,-1.0341797,-0.1953125,-0.0034179688,0.6713867,0.8544922,3.6621094,0.0,0.0,0.0,-36.07361,74.53125,-39.572754
1766814344963,-1.2192383,-0.2548828,0.10253906,-3.6010742,7.6293945,-2.5024414,0.0,0.0,0.0,-36.07361,74.53125,-39.572754
1766814344974,-1.2192383,-0.2548828,0.10253906,-3.6010742,7.6293945,-2.5024414,0.0,0.0,0.0,-39.177246,75.60242,-43.08838
1766814345063,-1.1479492,-0.06298828,0.19921875,4.5776367,18.920898,-10.864258,0.0,0.0,0.0,-39.177246,75.60242,-43.08838
1766814345074,-1.1479492,-0.06298828,0.19921875,4.5776367,18.920898,-10.864258,0.0,0.0,0.0,-47.070923,76.294556,-50.8667
1766814345162,-0.6635742,-0.24511719,0.39208984,-18.493652,20.507812,1.7089844,0.0,0.0,0.0,-47.070923,76.294556,-50.8667
1766814345174,-0.6635742,-0.24511719,0.39208984,-18.493652,20.507812,1.7089844,0.0,0.0,0.0,-55.393066,77.33276,-58.963623
1766814345262,-0.94091797,0.012207031,0.4296875,17.456055,-63.598633,14.038086,0.0,0.0,0.0,-55.393066,77.33276,-58.963623
1766814345273,-0.94091797,0.012207031,0.4296875,17.456055,-63.598633,14.038086,0.0,0.0,0.0,-46.395264,76.02539,-50.24597
1766814345362,-0.97753906,-0.23925781,-0.08935547,8.850098,25.390625,-4.5776367,0.0,0.0,0.0,-46.395264,76.02539,-50.24597
1766814345373,-0.97753906,-0.23925781,-0.08935547,8.850098,25.390625,-4.5776367,0.0,0.0,0.0,-32.667847,75.40466,-34.54651
1766814345461,-0.9370117,-0.17236328,0.20410156,11.291504,-6.652832,1.0986328,0.0,0.0,0.0,-32.667847,75.40466,-34.54651
1766814345473,-0.9370117,-0.17236328,0.20410156,11.291504,-6.652832,1.0986328,0.0,0.0,0.0,-36.276855,76.40991,-39.572754
1766814345561,-1.1357422,-0.2133789,-0.024414062,14.160156,16.601562,-6.713867,0.0,0.0,0.0,-36.276855,76.40991,-39.572754
1766814345572,-1.1357422,-0.2133789,-0.024414062,14.160156,16.601562,-6.713867,0.0,0.0,0.0,-37.507324,76.52527,-41.69861
1766814345661,-1.1503906,-0.20605469,0.076171875,1.5258789,29.418945,-2.8076172,0.0,0.0,0.0,-37.507324,76.52527,-41.69861
1766814345672,-1.1503906,-0.20605469,0.076171875,1.5258789,29.418945,-2.8076172,0.0,0.0,0.0,-47.42798,77.99194,-52.564087
1766814345760,-0.9013672,-0.12597656,0.20703125,-27.46582,5.6762695,-6.8969727,0.0,0.0,0.0,-47.42798,77.99194,-52.564087
1766814345772,-0.9013672,-0.12597656,0.20703125,-27.46582,5.6762695,-6.8969727,0.0,0.0,0.0,-59.974365,78.601685,-63.00659
1766814345860,-0.85058594,0.11035156,0.3466797,17.211914,7.3242188,-12.207031,0.0,0.0,0.0,-59.974365,78.601685,-63.00659
1766814345871,-0.85058594,0.11035156,0.3466797,17.211914,7.3242188,-12.207031,0.0,0.0,0.0,-63.220825,77.475586,-66.70349
1766814345960,-1.0024414,-0.33203125,-0.03515625,-8.850098,-81.726074,33.75244,0.0,0.0,0.0,-63.220825,77.475586,-66.70349
1766814345971,-1.0024414,-0.33203125,-0.03515625,-8.850098,-81.726074,33.75244,0.0,0.0,0.0,-36.930542,75.34424,-41.533813
1766814346059,-0.89404297,-0.07128906,0.27294922,-9.58252,17.700195,-8.850098,0.0,0.0,0.0,-36.930542,75.34424,-41.533813
1766814346071,-0.89404297,-0.07128906,0.27294922,-9.58252,17.700195,-8.850098,0.0,0.0,0.0,-38.16101,74.84985,-42.583008
1766814346159,-1.0585938,-0.13574219,-0.01171875,-5.6762695,-6.0424805,12.817383,0.0,0.0,0.0,-38.16101,74.84985,-42.583008
1766814346170,-1.0585938,-0.13574219,-0.01171875,-5.6762695,-6.0424805,12.817383,0.0,0.0,0.0,-34.161987,74.82788,-36.903076
1766814346259,-1.1879883,-0.22851562,0.11376953,1.0986328,17.578125,-5.79834,0.0,0.0,0.0,-34.161987,74.82788,-36.903076
1766814346271,-1.1879883,-0.22851562,0.11376953,1.0986328,17.578125,-5.79834,0.0,0.0,0.0,-37.8479,76.35498,-40.979004
1766814346358,-1.1728516,-0.09375,-0.057617188,-10.437012,32.226562,-9.033203,0.0,0.0,0.0,-37.8479,76.35498,-40.979004
1766814346370,-1.1728516,-0.09375,-0.057617188,-10.437012,32.226562,-9.033203,0.0,0.0,0.0,-46.296387,77.39319,-48.40576
1766814346458,-0.66064453,-0.1694336,0.38330078,-7.8125,31.921387,-17.211914,0.0,0.0,0.0,-46.296387,77.39319,-48.40576
1766814346470,-0.66064453,-0.1694336,0.38330078,-7.8125,31.921387,-17.211914,0.0,0.0,0.0,-66.19812,78.568726,-68.2251
1766814346558,-0.9111328,-0.13134766,0.55322266,17.63916,-58.410645,1.6479492,0.0,0.0,0.0,-66.19812,78.568726,-68.2251
1766814346569,-0.9111328,-0.13134766,0.55322266,17.63916,-58.410645,1.6479492,0.0,0.0,0.0,-63.495483,77.58545,-65.56641
1766814346657,-1.0019531,-0.16845703,-0.2529297,-9.643555,13.671875,7.9956055,0.0,0.0,0.0,-63.495483,77.58545,-65.56641
1766814346669,-1.0019531,-0.16845703,-0.2529297,-9.643555,13.671875,7.9956055,0.0,0.0,0.0,-36.535034,75.93201,-36.17798
1766814346757,-0.9145508,-0.25195312,0.2734375,17.211914,-19.348145,-2.5024414,0.0,0.0,0.0,-36.535034,75.93201,-36.17798
1766814346769,-0.9145508,-0.25195312,0.2734375,17.211914,-19.348145,-2.5024414,0.0,0.0,0.0,-42.335815,77.21741,-44.022217
1766814346857,-1.1035156,-0.23095703,0.016601562,7.2631836,-4.333496,-5.92041,0.0,0.0,0.0,-42.335815,77.21741,-44.022217
1766814346868,-1.1035156,-0.23095703,0.016601562,7.2631836,-4.333496,-5.92041,0.0,0.0,0.0,-37.77649,75.49255,-40.93506
1766814346957,-1.0336914,-0.20117188,0.06933594,-3.1738281,9.887695,0.18310547,0.0,0.0,0.0,-37.77649,75.49255,-40.93506
1766814346968,-1.0336914,-0.20117188,0.06933594,-3.1738281,9.887695,0.18310547,0.0,0.0,0.0,-42.60498,76.14075,-45.983276
1766814347056,-1.0708008,-0.30615234,0.32861328,-20.019531,23.80371,-7.5683594,0.0,0.0,0.0,-42.60498,76.14075,-45.983276
1766814347068,-1.0708008,-0.30615234,0.32861328,-20.019531,23.80371,-7.5683594,0.0,0.0,0.0,-51.965332,77.65686,-54.536133
1766814347156,-0.74658203,0.12548828,0.19970703,18.493652,-2.746582,-15.686035,0.0,0.0,0.0,-51.965332,77.65686,-54.536133
1766814347168,-0.74658203,0.12548828,0.19970703,18.493652,-2.746582,-15.686035,0.0,0.0,0.0,-57.89795,77.08008,-59.073486
1766814347256,-0.9760742,-0.2421875,0.5527344,2.1972656,-64.51416,33.14209,0.0,0.0,0.0,-57.89795,77.08008,-59.073486
1766814347268,-0.9760742,-0.2421875,0.5527344,2.1972656,-64.51416,33.14209,0.0,0.0,0.0,-46.829224,76.014404,-50.60852
1766814347355,-0.95458984,-0.1977539,0.03466797,16.357422,22.827148,-23.19336,0.0,0.0,0.0,-46.829224,76.014404,-50.60852
1766814347367,-0.95458984,-0.1977539,0.03466797,16.357422,22.827148,-23.19336,0.0,0.0,0.0,-32.074585,73.14697,-35.38147
1766814347455,-0.8730469,0.0073242188,0.16015625,-10.986328,-28.015137,17.578125,0.0,0.0,0.0,-32.074585,73.14697,-35.38147
1766814347467,-0.8730469,0.0073242188,0.16015625,-10.986328,-28.015137,17.578125,0.0,0.0,0.0,-34.985962,73.22937,-38.41919
1766814347555,-1.144043,-0.2319336,0.114746094,8.605957,13.305664,-0.30517578,0.0,0.0,0.0,-34.985962,73.22937,-38.41919
1766814347566,-1.144043,-0.2319336,0.114746094,8.605957,13.305664,-0.30517578,0.0,0.0,0.0,-29.72351,73.39966,-33.1073
1766814347654,-1.1318359,-0.22460938,0.076171875,-17.333984,1.0375977,0.8544922,0.0,0.0,0.0,-29.72351,73.39966,-33.1073
1766814347666,-1.1318359,-0.22460938,0.076171875,-17.333984,1.0375977,0.8544922,0.0,0.0,0.0,-34.573975,74.608154,-38.051147
1766814347754,-1.0410156,-0.0043945312,0.15429688,5.3100586,42.84668,-16.845703,0.0,0.0,0.0,-34.573975,74.608154,-38.051147
1766814347766,-1.0410156,-0.0043945312,0.15429688,5.3100586,42.84668,-16.845703,0.0,0.0,0.0,-44.978027,76.0968,-47.697144
1766814347854,-0.69677734,-0.27783203,0.5024414,-7.019043,29.11377,1.4648438,0.0,0.0,0.0,-44.978027,76.0968,-47.697144
1766814347865,-0.69677734,-0.27783203,0.5024414,-7.019043,29.11377,1.4648438,0.0,0.0,0.0,-59.315186,77.59094,-62.96814
1766814347953,-0.9213867,-0.076660156,0.35205078,3.7841797,-102.17285,28.930664,0.0,0.0,0.0,-59.315186,77.59094,-62.96814
1766814347965,-0.9213867,-0.076660156,0.35205078,3.7841797,-102.17285,28.930664,0.0,0.0,0.0,-49.224243,76.21216,-53.668213
1766814348053,-0.98779297,-0.13134766,-0.0234375,19.836426,44.799805,-14.770508,0.0,0.0,0.0,-49.224243,76.21216,-53.668213
1766814348065,-0.98779297,-0.13134766,-0.0234375,19.836426,44.799805,-14.770508,0.0,0.0,0.0,-33.9917,74.871826,-36.24939
1766814348153,-0.8984375,-0.2524414,0.15136719,17.089844,-12.878418,-6.4086914,0.0,0.0,0.0,-33.9917,74.871826,-36.24939
1766814348164,-0.8984375,-0.2524414,0.15136719,17.089844,-12.878418,-6.4086914,0.0,0.0,0.0,-38.7323,75.9375,-42.67639
1766814348252,-1.0942383,-0.17138672,0.04296875,7.2021484,14.770508,-11.84082,0.0,0.0,0.0,-38.7323,75.9375,-42.67639
1766814348264,-1.0942383,-0.17138672,0.04296875,7.2021484,14.770508,-11.84082,0.0,0.0,0.0,-41.017456,75.201416,-46.087646
1766814348353,-1.1606445,-0.24560547,0.017089844,-1.2207031,15.50293,1.8310547,0.0,0.0,0.0,-41.017456,75.201416,-46.087646
1766814348364,-1.1606445,-0.24560547,0.017089844,-1.2207031,15.50293,1.8310547,0.0,0.0,0.0,-46.99402,76.085815,-52.77832
1766814348452,-0.9013672,-0.21289062,0.2915039,-45.22705,23.498535,-8.361816,0.0,0.0,0.0,-46.99402,76.085815,-52.77832
1766814348463,-0.9013672,-0.21289062,0.2915039,-45.22705,23.498535,-8.361816,0.0,0.0,0.0,-62.803345,77.92053,-66.99463
1766814348551,-0.81347656,0.17236328,0.27246094,30.822754,1.7700195,-19.40918,0.0,0.0,0.0,-62.803345,77.92053,-66.99463
1766814348563,-0.81347656,0.17236328,0.27246094,30.822754,1.7700195,-19.40918,0.0,0.0,0.0,-69.14795,76.81641,-72.125244
1766814348651,-1.0429688,-0.43066406,0.033691406,-24.108887,-110.71777,49.25537,0.0,0.0,0.0,-69.14795,76.81641,-72.125244
1766814348663,-1.0429688,-0.43066406,0.033691406,-24.108887,-110.71777,49.25537,0.0,0.0,0.0,-46.208496,75.2948,-51.201782
1766814348751,-0.8852539,-0.091796875,0.3251953,17.944336,37.597656,-32.470703,0.0,0.0,0.0,-46.208496,75.2948,-51.201782
1766814348762,-0.8852539,-0.091796875,0.3251953,17.944336,37.597656,-32.470703,0.0,0.0,0.0,-41.764526,73.482056,-47.043457
1766814348851,-0.92626953,0.0024414062,0.12890625,-19.348145,-47.790527,25.756836,0.0,0.0,0.0,-41.764526,73.482056,-47.043457
1766814348862,-0.92626953,0.0024414062,0.12890625,-19.348145,-47.790527,25.756836,0.0,0.0,0.0,-39.86389,72.42737,-44.544067
1766814348950,-1.0727539,-0.25048828,0.19482422,7.019043,18.188477,-8.666992,0.0,0.0,0.0,-39.86389,72.42737,-44.544067
1766814348962,-1.0727539,-0.25048828,0.19482422,7.019043,18.188477,-8.666992,0.0,0.0,0.0,-37.79297,73.00964,-42.25891
1766814349051,-1.1791992,-0.24560547,0.083984375,-13.85498,-12.512207,2.8076172,0.0,0.0,0.0,-37.79297,73.00964,-42.25891
1766814349062,-1.1791992,-0.24560547,0.083984375,-13.85498,-12.512207,2.8076172,0.0,0.0,0.0,-38.71582,72.68555,-42.75879
1766814349149,-1.0180664,-0.076171875,0.22070312,0.5493164,21.911621,-6.3476562,0.0,0.0,0.0,-38.71582,72.68555,-42.75879
1766814349161,-1.0180664,-0.076171875,0.22070312,0.5493164,21.911621,-6.3476562,0.0,0.0,0.0,-43.43445,73.43811,-46.82373
1766814349249,-0.74560547,-0.27490234,0.45117188,-13.671875,16.723633,4.333496,0.0,0.0,0.0,-43.43445,73.43811,-46.82373
1766814349261,-0.74560547,-0.27490234,0.45117188,-13.671875,16.723633,4.333496,0.0,0.0,0.0,-49.696655,74.70703,-52.959595
1766814349349,-0.95703125,-0.037109375,0.27929688,8.300781,-59.936523,22.216797,0.0,0.0,0.0,-49.696655,74.70703,-52.959595
1766814349361,-0.95703125,-0.037109375,0.27929688,8.300781,-59.936523,22.216797,0.0,0.0,0.0,-40.39673,73.07556,-44.642944
1766814349449,-0.94189453,-0.19970703,0.11279297,11.901855,21.972656,-0.30517578,0.0,0.0,0.0,-40.39673,73.07556,-44.642944
1766814349460,-0.94189453,-0.19970703,0.11279297,11.901855,21.972656,-0.30517578,0.0,0.0,0.0,-34.161987,73.201904,-37.820435
1766814349548,-0.96191406,-0.21142578,0.22509766,13.61084,-9.765625,-0.61035156,0.0,0.0,0.0,-34.161987,73.201904,-37.820435
1766814349560,-0.96191406,-0.21142578,0.22509766,13.61084,-9.765625,-0.61035156,0.0,0.0,0.0,-33.947754,73.394165,-38.952026
1766814349648,-1.1010742,-0.2163086,0.07714844,5.859375,10.986328,-6.4697266,0.0,0.0,0.0,-33.947754,73.394165,-38.952026
1766814349659,-1.1010742,-0.2163086,0.07714844,5.859375,10.986328,-6.4697266,0.0,0.0,0.0,-34.958496,73.26233,-40.97351
1766814349748,-1.0585938,-0.20703125,0.063964844,-8.7890625,26.306152,6.4086914,0.0,0.0,0.0,-34.958496,73.26233,-40.97351
1766814349759,-1.0585938,-0.20703125,0.063964844,-8.7890625,26.306152,6.4086914,0.0,0.0,0.0,-40.45166,75.27283,-46.384277
1766814349847,-0.8671875,-0.21582031,0.4038086,-41.19873,24.963379,-8.728027,0.0,0.0,0.0,-40.45166,75.27283,-46.384277
1766814349859,-0.8671875,-0.21582031,0.4038086,-41.19873,24.963379,-8.728027,0.0,0.0,0.0,-57.079468,78.063354,-61.155396
1766814349947,-0.8730469,0.140625,0.30273438,42.60254,-4.211426,-15.563965,0.0,0.0,0.0,-57.079468,78.063354,-61.155396
1766814349959,-0.8730469,0.140625,0.30273438,42.60254,-4.211426,-15.563965,0.0,0.0,0.0,-59.677734,77.3053,-63.55591
1766814350047,-1.0185547,-0.3798828,-0.06347656,-0.6713867,-67.993164,17.333984,0.0,0.0,0.0,-59.677734,77.3053,-63.55591
1766814350058,-1.0185547,-0.3798828,-0.06347656,-0.6713867,-67.993164,17.333984,0.0,0.0,0.0,-36.221924,74.608154,-42.37976
1766814350146,-0.8769531,-0.0703125,0.32958984,5.92041,10.375977,-16.845703,0.0,0.0,0.0,-36.221924,74.608154,-42.37976
1766814350158,-0.8769531,-0.0703125,0.32958984,5.92041,10.375977,-16.845703,0.0,0.0,0.0,-39.715576,73.87207,-47.109375
1766814350246,-0.9970703,-0.12207031,-0.009277344,-1.4038086,-13.61084,16.601562,0.0,0.0,0.0,-39.715576,73.87207,-47.109375
1766814350258,-0.9970703,-0.12207031,-0.009277344,-1.4038086,-13.61084,16.601562,0.0,0.0,0.0,-33.381958,72.93823,-39.92981
1766814350346,-1.1069336,-0.23535156,0.22851562,6.8969727,20.324707,-2.1972656,0.0,0.0,0.0,-33.381958,72.93823,-39.92981
1766814350357,-1.1069336,-0.23535156,0.22851562,6.8969727,20.324707,-2.1972656,0.0,0.0,0.0,-34.579468,74.66858,-41.693115
1766814350445,-1.2192383,-0.23388672,0.016601562,-17.700195,6.5307617,-0.61035156,0.0,0.0,0.0,-34.579468,74.66858,-41.693115
1766814350457,-1.2192383,-0.23388672,0.016601562,-17.700195,6.5307617,-0.61035156,0.0,0.0,0.0,-38.078613,75.20691,-44.58252
1766814350545,-0.7495117,-0.071777344,0.22314453,4.4555664,31.49414,-7.9345703,0.0,0.0,0.0,-38.078613,75.20691,-44.58252
1766814350557,-0.7495117,-0.071777344,0.22314453,4.4555664,31.49414,-7.9345703,0.0,0.0,0.0,-48.757324,76.849365,-54.61853
1766814350645,-0.87353516,-0.34814453,0.58203125,-10.986328,9.887695,7.019043,0.0,0.0,0.0,-48.757324,76.849365,-54.61853
1766814350656,-0.87353516,-0.34814453,0.58203125,-10.986328,9.887695,7.019043,0.0,0.0,0.0,-56.156616,78.29407,-61.325684
1766814350744,-1.0185547,0.06542969,-0.21972656,-25.512695,-56.33545,39.18457,0.0,0.0,0.0,-56.156616,78.29407,-61.325684
1766814350756,-1.0185547,0.06542969,-0.21972656,-25.512695,-56.33545,39.18457,0.0,0.0,0.0,-32.596436,75.146484,-37.556763
1766814350844,-0.91015625,-0.1743164,0.2861328,9.460449,13.183594,1.4038086,0.0,0.0,0.0,-32.596436,75.146484,-37.556763
1766814350856,-0.91015625,-0.1743164,0.2861328,9.460449,13.183594,1.4038086,0.0,0.0,0.0,-31.975708,76.78894,-36.870117
1766814350944,-1.0141602,-0.16601562,0.1430664,17.150879,-10.681152,-4.638672,0.0,0.0,0.0,-31.975708,76.78894,-36.870117
1766814350955,-1.0141602,-0.16601562,0.1430664,17.150879,-10.681152,-4.638672,0.0,0.0,0.0,-29.459839,75.92651,-35.881348
1766814351043,-1.1196289,-0.17285156,0.067871094,12.634277,11.779785,-7.446289,0.0,0.0,0.0,-29.459839,75.92651,-35.881348
1766814351055,-1.1196289,-0.17285156,0.067871094,12.634277,11.779785,-7.446289,0.0,0.0,0.0,-31.272583,75.73425,-39.006958
1766814351143,-1.1801758,-0.20800781,0.08105469,-5.554199,29.296875,-1.0986328,0.0,0.0,0.0,-31.272583,75.73425,-39.006958
1766814351155,-1.1801758,-0.20800781,0.08105469,-5.554199,29.296875,-1.0986328,0.0,0.0,0.0,-37.512817,77.091064,-45.543823
1766814351243,-0.79833984,-0.10253906,0.2529297,-30.273438,11.962891,-13.793945,0.0,0.0,0.0,-37.512817,77.091064,-45.543823
1766814351254,-0.79833984,-0.10253906,0.2529297,-30.273438,11.962891,-13.793945,0.0,0.0,0.0,-52.547607,78.32703,-58.233032
1766814351342,-0.88916016,0.15722656,0.42041016,29.785156,-5.493164,-14.831543,0.0,0.0,0.0,-52.547607,78.32703,-58.233032
1766814351354,-0.88916016,0.15722656,0.42041016,29.785156,-5.493164,-14.831543,0.0,0.0,0.0,-56.77185,76.882324,-63.599854
1766814351442,-1.0341797,-0.390625,-0.17333984,-10.864258,-74.401855,16.967773,0.0,0.0,0.0,-56.77185,76.882324,-63.599854
1766814351454,-1.0341797,-0.390625,-0.17333984,-10.864258,-74.401855,16.967773,0.0,0.0,0.0,-31.673584,73.56445,-38.424683
1766814351542,-0.8876953,-0.009765625,0.31933594,-6.1035156,13.366699,-10.925293,0.0,0.0,0.0,-31.673584,73.56445,-38.424683
1766814351553,-0.8876953,-0.009765625,0.31933594,-6.1035156,13.366699,-10.925293,0.0,0.0,0.0,-35.6781,73.2843,-42.912598
1766814351642,-1.0327148,-0.17480469,0.14550781,-8.117676,-6.8969727,16.418457,0.0,0.0,0.0,-35.6781,73.2843,-42.912598
1766814351653,-1.0327148,-0.17480469,0.14550781,-8.117676,-6.8969727,16.418457,0.0,0.0,0.0,-31.843872,73.185425,-37.93579
1766814351741,-1.159668,-0.22363281,0.13378906,-14.465332,10.620117,-3.90625,0.0,0.0,0.0,-31.843872,73.185425,-37.93579
1766814351753,-1.159668,-0.22363281,0.13378906,-14.465332,10.620117,-3.90625,0.0,0.0,0.0,-32.805176,74.124756,-38.012695
1766814351841,-1.2558594,-0.12890625,-0.05419922,-11.291504,29.47998,-9.399414,0.0,0.0,0.0,-32.805176,74.124756,-38.012695
1766814351852,-1.2558594,-0.12890625,-0.05419922,-11.291504,29.47998,-9.399414,0.0,0.0,0.0,-39.01245,75.113525,-42.41272
1766814351941,-0.6376953,-0.08300781,0.3359375,7.873535,37.841797,-14.343262,0.0,0.0,0.0,-39.01245,75.113525,-42.41272
1766814351952,-0.6376953,-0.08300781,0.3359375,7.873535,37.841797,-14.343262,0.0,0.0,0.0,-56.826782,77.17346,-60.8313
1766814352041,-0.88183594,-0.28271484,0.65283203,21.362305,-21.30127,-0.61035156,0.0,0.0,0.0,-56.826782,77.17346,-60.8313
1766814352052,-0.88183594,-0.28271484,0.65283203,21.362305,-21.30127,-0.61035156,0.0,0.0,0.0,-64.731445,77.96997,-69.35669
1766814352140,-1.0356445,-0.14892578,-0.35107422,-24.658203,-16.601562,36.071777,0.0,0.0,0.0,-64.731445,77.96997,-69.35669
1766814352151,-1.0356445,-0.14892578,-0.35107422,-24.658203,-16.601562,36.071777,0.0,0.0,0.0,-32.39319,74.67407,-36.00769
1766814352240,-0.88720703,-0.22070312,0.40722656,10.620117,6.713867,-2.9296875,0.0,0.0,0.0,-32.39319,74.67407,-36.00769
1766814352251,-0.88720703,-0.22070312,0.40722656,10.620117,6.713867,-2.9296875,0.0,0.0,0.0,-40.05066,77.25586,-45.230713
1766814352339,-1.0693359,-0.2529297,-0.0043945312,10.192871,-7.5683594,-9.277344,0.0,0.0,0.0,-40.05066,77.25586,-45.230713
1766814352351,-1.0693359,-0.2529297,-0.0043945312,10.192871,-7.5683594,-9.277344,0.0,0.0,0.0,-36.364746,75.94849,-42.615967
1766814352439,-1.0991211,-0.15332031,0.11376953,20.446777,20.996094,-6.225586,0.0,0.0,0.0,-36.364746,75.94849,-42.615967
1766814352451,-1.0991211,-0.15332031,0.11376953,20.446777,20.996094,-6.225586,0.0,0.0,0.0,-43.54431,76.206665,-51.43799
1766814352539,-1.1381836,-0.40771484,0.111816406,-3.7841797,37.65869,-7.6904297,0.0,0.0,0.0,-43.54431,76.206665,-51.43799
1766814352550,-1.1381836,-0.40771484,0.111816406,-3.7841797,37.65869,-7.6904297,0.0,0.0,0.0,-50.064697,77.53601,-58.4198
1766814352639,-0.71484375,0.0048828125,0.15136719,-4.638672,9.155273,-18.249512,0.0,0.0,0.0,-50.064697,77.53601,-58.4198
1766814352650,-0.71484375,0.0048828125,0.15136719,-4.638672,9.155273,-18.249512,0.0,0.0,0.0,-64.72046,77.525024,-70.790405
1766814352738,-0.9472656,-0.061523438,0.5551758,18.066406,-24.902344,10.131836,0.0,0.0,0.0,-64.72046,77.525024,-70.790405
1766814352750,-0.9472656,-0.061523438,0.5551758,18.066406,-24.902344,10.131836,0.0,0.0,0.0,-66.52771,76.65161,-74.229126
1766814352838,-1.019043,-0.43359375,-0.27734375,-13.427734,-60.97412,12.817383,0.0,0.0,0.0,-66.52771,76.65161,-74.229126
1766814352850,-1.019043,-0.43359375,-0.27734375,-13.427734,-60.97412,12.817383,0.0,0.0,0.0,-37.595215,74.053345,-44.527588
1766814352937,-0.85058594,-0.022460938,0.35595703,-10.314941,4.9438477,-11.047363,0.0,0.0,0.0,-37.595215,74.053345,-44.527588
1766814352949,-0.85058594,-0.022460938,0.35595703,-10.314941,4.9438477,-11.047363,0.0,0.0,0.0,-47.301636,73.97095,-54.51416
1766814353037,-1.0698242,-0.21679688,0.0024414062,-9.155273,-19.53125,19.89746,0.0,0.0,0.0,-47.301636,73.97095,-54.51416
1766814353049,-1.0698242,-0.21679688,0.0024414062,-9.155273,-19.53125,19.89746,0.0,0.0,0.0,-37.199707,73.41614,-42.280884
1766814353137,-1.1137695,-0.2290039,0.19189453,-3.0517578,12.268066,-4.638672,0.0,0.0,0.0,-37.199707,73.41614,-42.280884
1766814353148,-1.1137695,-0.2290039,0.19189453,-3.0517578,12.268066,-4.638672,0.0,0.0,0.0,-40.220947,74.55322,-45.197754
1766814353237,-1.2583008,-0.1875,-0.057617188,-5.1879883,13.549805,-7.3242188,0.0,0.0,0.0,-40.220947,74.55322,-45.197754
1766814353248,-1.2583008,-0.1875,-0.057617188,-5.1879883,13.549805,-7.3242188,0.0,0.0,0.0,-43.720093,74.82788,-47.82898
1766814353336,-0.6689453,-0.09863281,0.24169922,7.446289,31.677246,-8.850098,0.0,0.0,0.0,-43.720093,74.82788,-47.82898
1766814353348,-0.6689453,-0.09863281,0.24169922,7.446289,31.677246,-8.850098,0.0,0.0,0.0,-55.55786,76.21765,-60.55664
1766814353436,-0.8823242,-0.4033203,0.60595703,-1.3427734,-1.6479492,-1.4648438,0.0,0.0,0.0,-55.55786,76.21765,-60.55664
1766814353448,-0.8823242,-0.4033203,0.60595703,-1.3427734,-1.6479492,-1.4648438,0.0,0.0,0.0,-63.050537,76.94824,-67.39014
1766814353536,-1.0551758,-0.024414062,-0.28808594,-38.269043,-59.32617,43.395996,0.0,0.0,0.0,-63.050537,76.94824,-67.39014
1766814353548,-1.0551758,-0.024414062,-0.28808594,-38.269043,-59.32617,43.395996,0.0,0.0,0.0,-36.502075,73.77319,-39.819946
1766814353635,-0.9145508,-0.19873047,0.3232422,18.066406,17.089844,-1.5258789,0.0,0.0,0.0,-36.502075,73.77319,-39.819946
1766814353647,-0.9145508,-0.19873047,0.3232422,18.066406,17.089844,-1.5258789,0.0,0.0,0.0,-39.797974,75.55847,-44.20349
1766814353735,-1.0336914,-0.24316406,0.11035156,4.760742,-18.676758,1.2207031,0.0,0.0,0.0,-39.797974,75.55847,-44.20349
1766814353747,-1.0336914,-0.24316406,0.11035156,4.760742,-18.676758,1.2207031,0.0,0.0,0.0,-35.354004,74.53125,-40.775757
1766814353835,-1.1049805,-0.20605469,0.048828125,8.605957,19.348145,-5.493164,0.0,0.0,0.0,-35.354004,74.53125,-40.775757
1766814353846,-1.1049805,-0.20605469,0.048828125,8.605957,19.348145,-5.493164,0.0,0.0,0.0,-37.941284,74.8114,-44.01123
1766814353934,-1.105957,-0.3359375,0.2475586,-13.549805,39.916992,-4.638672,0.0,0.0,0.0,-37.941284,74.8114,-44.01123
1766814353946,-1.105957,-0.3359375,0.2475586,-13.549805,39.916992,-4.638672,0.0,0.0,0.0,-48.83972,77.01416,-54.68445
1766814354034,-0.74902344,-9.765625E-4,0.12841797,-8.422852,7.6904297,-15.441895,0.0,0.0,0.0,-48.83972,77.01416,-54.68445
1766814354045,-0.74902344,-9.765625E-4,0.12841797,-8.422852,7.6904297,-15.441895,0.0,0.0,0.0,-59.35913,76.96472,-62.58911
1766814354134,-0.9316406,-0.052734375,0.4975586,12.512207,-31.433105,9.58252,0.0,0.0,0.0,-59.35913,76.96472,-62.58911
1766814354145,-0.9316406,-0.052734375,0.4975586,12.512207,-31.433105,9.58252,0.0,0.0,0.0,-57.62329,76.20117,-62.13318
1766814354233,-0.9873047,-0.38720703,-0.15966797,7.751465,-11.230469,-6.0424805,0.0,0.0,0.0,-57.62329,76.20117,-62.13318
1766814354245,-0.9873047,-0.38720703,-0.15966797,7.751465,-11.230469,-6.0424805,0.0,0.0,0.0,-35.513306,73.531494,-39.60022
1766814354333,-0.86865234,0.028808594,0.2553711,0.61035156,-12.084961,0.61035156,0.0,0.0,0.0,-35.513306,73.531494,-39.60022
1766814354344,-0.86865234,0.028808594,0.2553711,0.61035156,-12.084961,0.61035156,0.0,0.0,0.0,-41.380005,73.63037,-46.115112
1766814354433,-1.0415039,-0.19042969,0.103027344,10.131836,8.972168,8.728027,0.0,0.0,0.0,-41.380005,73.63037,-46.115112
1766814354444,-1.0415039,-0.19042969,0.103027344,10.131836,8.972168,8.728027,0.0,0.0,0.0,-35.88684,73.965454,-40.72632
1766814354533,-1.215332,-0.28076172,0.080566406,-5.2490234,4.638672,1.953125,0.0,0.0,0.0,-35.88684,73.965454,-40.72632
