timestamp,accX,accY,accZ,gyroX,gyroY,gyroZ,magX,magY,magZ,roll,pitch,yaw
1769000345887,-1.1606445,-0.2602539,-0.020019531,-8.666992,15.50293,-3.6010742,0.0,0.0,0.0,-56.557617,76.06384,-138.12012
1769000345899,-1.1606445,-0.2602539,-0.020019531,-8.666992,15.50293,-3.6010742,0.0,0.0,0.0,-60.858765,76.25061,-141.85547
1769000345987,-0.87109375,-0.09423828,0.2319336,9.277344,3.540039,15.258789,0.0,0.0,0.0,-60.858765,76.25061,-141.85547
1769000345998,-0.87109375,-0.09423828,0.2319336,9.277344,3.540039,15.258789,0.0,0.0,0.0,-66.41235,77.22839,-147.40906
1769000346087,-0.9321289,-0.25,0.33544922,-11.230469,-10.009766,28.320312,0.0,0.0,0.0,-66.41235,77.22839,-147.40906
1769000346099,-0.9321289,-0.25,0.33544922,-11.230469,-10.009766,28.320312,0.0,0.0,0.0,-59.996338,79.019165,-140.82825
1769000346186,-0.9316406,-0.06591797,0.0390625,9.399414,-7.1411133,5.432129,0.0,0.0,0.0,-59.996338,79.019165,-140.82825
1769000346198,-0.9316406,-0.06591797,0.0390625,9.399414,-7.1411133,5.432129,0.0,0.0,0.0,-49.400024,79.557495,-129.50134
1769000346288,-0.9501953,-0.24169922,0.12060547,-2.9296875,-3.6621094,10.131836,0.0,0.0,0.0,-49.400024,79.557495,-129.50134
1769000346298,-0.9501953,-0.24169922,0.12060547,-2.9296875,-3.6621094,10.131836,0.0,0.0,0.0,-43.03894,80.10132,-123.27759
1769000346386,-0.9638672,-0.16992188,0.05908203,3.7231445,-5.432129,-2.2583008,0.0,0.0,0.0,-43.03894,80.10132,-123.27759
1769000346398,-0.9638672,-0.16992188,0.05908203,3.7231445,-5.432129,-2.2583008,0.0,0.0,0.0,-41.7865,79.60144,-122.45911
1769000346486,-1.0869141,-0.20947266,0.0146484375,3.479004,10.864258,-9.58252,0.0,0.0,0.0,-41.7865,79.60144,-122.45911
1769000346497,-1.0869141,-0.20947266,0.0146484375,3.479004,10.864258,-9.58252,0.0,0.0,0.0,-45.911865,79.365234,-127.26013
1769000346585,-1.4609375,-0.29541016,0.067871094,-5.6762695,43.33496,-13.793945,0.0,0.0,0.0,-45.911865,79.365234,-127.26013
1769000346597,-1.4609375,-0.29541016,0.067871094,-5.6762695,43.33496,-13.793945,0.0,0.0,0.0,-64.121704,80.31555,-145.48645
1769000346685,-0.6323242,-0.001953125,0.21044922,-1.7089844,2.8686523,-15.136719,0.0,0.0,0.0,-64.121704,80.31555,-145.48645
1769000346696,-0.6323242,-0.001953125,0.21044922,-1.7089844,2.8686523,-15.136719,0.0,0.0,0.0,-78.06885,79.25537,-159.76868
1769000346785,-1.0991211,-0.14453125,-0.076171875,27.526855,25.756836,-20.019531,0.0,0.0,0.0,-78.06885,79.25537,-159.76868
1769000346796,-1.0991211,-0.14453125,-0.076171875,27.526855,25.756836,-20.019531,0.0,0.0,0.0,-82.43042,78.87085,-164.23462
1769000346884,-0.8623047,-0.14990234,-0.06542969,-18.981934,2.380371,1.8310547,0.0,0.0,0.0,-82.43042,78.87085,-164.23462
1769000346896,-0.8623047,-0.14990234,-0.06542969,-18.981934,2.380371,1.8310547,0.0,0.0,0.0,-85.166016,78.59619,-166.88232
1769000346984,-0.9140625,-0.15527344,-0.072753906,-12.084961,-3.4179688,1.4648438,0.0,0.0,0.0,-85.166016,78.59619,-166.88232
1769000346996,-0.9140625,-0.15527344,-0.072753906,-12.084961,-3.4179688,1.4648438,0.0,0.0,0.0,-85.89111,78.76648,-166.76147
1769000347084,-1.0288086,-0.20263672,-0.09863281,-20.507812,-8.361816,-3.4179688,0.0,0.0,0.0,-85.89111,78.76648,-166.76147
1769000347095,-1.0288086,-0.20263672,-0.09863281,-20.507812,-8.361816,-3.4179688,0.0,0.0,0.0,-84.52881,78.70056,-163.75122
1769000347183,-1.3164062,-0.2602539,-0.16894531,-13.793945,8.972168,-9.338379,0.0,0.0,0.0,-84.52881,78.70056,-163.75122
1769000347195,-1.3164062,-0.2602539,-0.16894531,-13.793945,8.972168,-9.338379,0.0,0.0,0.0,-88.27515,78.11279,-165.62439
1769000347284,-0.8334961,-0.118652344,0.29345703,8.483887,-1.6479492,7.446289,0.0,0.0,0.0,-88.27515,78.11279,-165.62439
1769000347295,-0.8334961,-0.118652344,0.29345703,8.483887,-1.6479492,7.446289,0.0,0.0,0.0,-90.928345,77.99194,-168.97522
1769000347383,-1.0742188,-0.21679688,-0.013671875,-28.808594,0.12207031,23.254395,0.0,0.0,0.0,-90.928345,77.99194,-168.97522
1769000347395,-1.0742188,-0.21679688,-0.013671875,-28.808594,0.12207031,23.254395,0.0,0.0,0.0,-86.59424,79.678345,-163.43262
1769000347483,-0.8359375,-0.2475586,0.07373047,5.126953,4.699707,3.479004,0.0,0.0,0.0,-86.59424,79.678345,-163.43262
1769000347494,-0.8359375,-0.2475586,0.07373047,5.126953,4.699707,3.479004,0.0,0.0,0.0,-91.032715,80.25513,-167.82166
1769000347582,-0.9121094,-0.21777344,-0.046875,3.7841797,-4.3945312,2.9907227,0.0,0.0,0.0,-91.032715,80.25513,-167.82166
1769000347594,-0.9121094,-0.21777344,-0.046875,3.7841797,-4.3945312,2.9907227,0.0,0.0,0.0,-89.04419,80.112305,-166.53076
1769000347682,-0.99658203,-0.22363281,-0.080078125,8.300781,0.48828125,1.6479492,0.0,0.0,0.0,-89.04419,80.112305,-166.53076
1769000347694,-0.99658203,-0.22363281,-0.080078125,8.300781,0.48828125,1.6479492,0.0,0.0,0.0,-86.87439,79.991455,-165.23438
1769000347782,-1.0117188,-0.18798828,-0.09814453,15.014648,16.357422,8.422852,0.0,0.0,0.0,-86.87439,79.991455,-165.23438
1769000347793,-1.0117188,-0.18798828,-0.09814453,15.014648,16.357422,8.422852,0.0,0.0,0.0,-92.58179,80.40344,-172.13379
1769000347881,-1.1875,-0.1484375,0.20947266,30.517578,12.939453,-8.361816,0.0,0.0,0.0,-92.58179,80.40344,-172.13379
1769000347893,-1.1875,-0.1484375,0.20947266,30.517578,12.939453,-8.361816,0.0,0.0,0.0,-104.90845,80.23865,173.75977
1769000347981,-0.89453125,-0.09375,-0.08203125,-23.010254,-14.038086,-1.5869141,0.0,0.0,0.0,-104.90845,80.23865,173.75977
1769000347993,-0.89453125,-0.09375,-0.08203125,-23.010254,-14.038086,-1.5869141,0.0,0.0,0.0,-93.55957,80.25513,-175.00122
1769000348081,-0.9370117,-0.07470703,0.025390625,-7.446289,-21.54541,-6.5307617,0.0,0.0,0.0,-93.55957,80.25513,-175.00122
1769000348092,-0.9370117,-0.07470703,0.025390625,-7.446289,-21.54541,-6.5307617,0.0,0.0,0.0,-85.36377,78.84888,-167.44812
1769000348181,-0.92871094,-0.12841797,0.0043945312,-0.91552734,-8.056641,-5.554199,0.0,0.0,0.0,-85.36377,78.84888,-167.44812
1769000348192,-0.92871094,-0.12841797,0.0043945312,-0.91552734,-8.056641,-5.554199,0.0,0.0,0.0,-81.936035,78.272095,-163.35022
1769000348280,-0.97998047,-0.1743164,-0.088378906,-3.4179688,-10.7421875,-1.4038086,0.0,0.0,0.0,-81.936035,78.272095,-163.35022
1769000348292,-0.97998047,-0.1743164,-0.088378906,-3.4179688,-10.7421875,-1.4038086,0.0,0.0,0.0,-77.91504,78.239136,-158.68652
1769000348380,-1.0957031,-0.24316406,-0.068359375,-2.746582,1.0375977,-7.507324,0.0,0.0,0.0,-77.91504,78.239136,-158.68652
1769000348392,-1.0957031,-0.24316406,-0.068359375,-2.746582,1.0375977,-7.507324,0.0,0.0,0.0,-78.00293,77.93701,-158.77441
1769000348480,-1.0175781,-0.1430664,0.25439453,4.5776367,5.7373047,12.451172,0.0,0.0,0.0,-78.00293,77.93701,-158.77441
1769000348492,-1.0175781,-0.1430664,0.25439453,4.5776367,5.7373047,12.451172,0.0,0.0,0.0,-83.80371,78.06885,-164.92676
1769000348579,-0.78759766,-0.21191406,0.15332031,-8.972168,0.4272461,20.080566,0.0,0.0,0.0,-83.80371,78.06885,-164.92676
1769000348592,-0.78759766,-0.21191406,0.15332031,-8.972168,0.4272461,20.080566,0.0,0.0,0.0,-79.436646,79.958496,-159.9939
1769000348679,-1.003418,-0.1640625,-0.013183594,10.131836,-4.211426,13.061523,0.0,0.0,0.0,-79.436646,79.958496,-159.9939
1769000348691,-1.003418,-0.1640625,-0.013183594,10.131836,-4.211426,13.061523,0.0,0.0,0.0,-74.800415,81.77673,-154.59412
1769000348779,-0.8881836,-0.14257812,0.07324219,-5.554199,-5.2490234,11.108398,0.0,0.0,0.0,-74.800415,81.77673,-154.59412
1769000348791,-0.8881836,-0.14257812,0.07324219,-5.554199,-5.2490234,11.108398,0.0,0.0,0.0,-71.63086,82.58423,-151.89148
1769000348878,-1.0615234,-0.23535156,-0.023925781,11.71875,-6.1035156,-0.30517578,0.0,0.0,0.0,-71.63086,82.58423,-151.89148
1769000348891,-1.0615234,-0.23535156,-0.023925781,11.71875,-6.1035156,-0.30517578,0.0,0.0,0.0,-65.47302,82.85339,-145.6842
1769000348978,-1.1010742,-0.18847656,-0.08496094,2.1972656,9.887695,-2.9907227,0.0,0.0,0.0,-65.47302,82.85339,-145.6842
1769000348990,-1.1010742,-0.18847656,-0.08496094,2.1972656,9.887695,-2.9907227,0.0,0.0,0.0,-69.30176,82.41394,-150.23254
1769000349078,-1.171875,-0.08496094,0.107421875,-1.8310547,18.005371,-13.305664,0.0,0.0,0.0,-69.30176,82.41394,-150.23254
1769000349089,-1.171875,-0.08496094,0.107421875,-1.8310547,18.005371,-13.305664,0.0,0.0,0.0,-87.07214,81.639404,-168.5138
1769000349178,-0.65185547,0.064941406,0.080078125,11.71875,-2.9296875,-14.343262,0.0,0.0,0.0,-87.07214,81.639404,-168.5138
1769000349189,-0.65185547,0.064941406,0.080078125,11.71875,-2.9296875,-14.343262,0.0,0.0,0.0,-88.46741,80.33203,-170.20569
1769000349277,-1.0371094,-0.2265625,0.026855469,2.746582,-10.986328,-13.061523,0.0,0.0,0.0,-88.46741,80.33203,-170.20569
1769000349289,-1.0371094,-0.2265625,0.026855469,2.746582,-10.986328,-13.061523,0.0,0.0,0.0,-83.21045,79.524536,-165.2179
1769000349377,-0.8823242,-0.044921875,0.049804688,-4.333496,-4.3945312,-6.958008,0.0,0.0,0.0,-83.21045,79.524536,-165.2179
1769000349388,-0.8823242,-0.044921875,0.049804688,-4.333496,-4.3945312,-6.958008,0.0,0.0,0.0,-79.74426,78.585205,-160.97168
1769000349477,-0.99121094,-0.16015625,-0.057617188,-7.3242188,-5.9814453,-2.1972656,0.0,0.0,0.0,-79.74426,78.585205,-160.97168
1769000349488,-0.99121094,-0.16015625,-0.057617188,-7.3242188,-5.9814453,-2.1972656,0.0,0.0,0.0,-77.34924,78.568726,-157.30225
1769000349576,-1.0488281,-0.21777344,-0.06738281,-8.178711,-0.061035156,0.061035156,0.0,0.0,0.0,-77.34924,78.568726,-157.30225
1769000349588,-1.0488281,-0.21777344,-0.06738281,-8.178711,-0.061035156,0.061035156,0.0,0.0,0.0,-77.21741,78.62366,-156.56616
1769000349676,-1.3198242,-0.16357422,-0.1015625,-1.5869141,19.226074,-0.18310547,0.0,0.0,0.0,-77.21741,78.62366,-156.56616
1769000349688,-1.3198242,-0.16357422,-0.1015625,-1.5869141,19.226074,-0.18310547,0.0,0.0,0.0,-83.04016,78.57971,-161.7572
1769000349776,-0.7114258,-0.14404297,0.18652344,0.0,-1.4648438,21.728516,0.0,0.0,0.0,-83.04016,78.57971,-161.7572
1769000349787,-0.7114258,-0.14404297,0.18652344,0.0,-1.4648438,21.728516,0.0,0.0,0.0,-87.05017,79.65088,-167.11853
1769000349875,-1.1499023,-0.24121094,9.765625E-4,-18.981934,-2.319336,22.766113,0.0,0.0,0.0,-87.05017,79.65088,-167.11853
1769000349887,-1.1499023,-0.24121094,9.765625E-4,-18.981934,-2.319336,22.766113,0.0,0.0,0.0,-82.282104,81.74927,-161.70776
1769000349975,-0.8413086,-0.17529297,0.05029297,-2.319336,-3.2348633,7.9956055,0.0,0.0,0.0,-82.282104,81.74927,-161.70776
1769000349987,-0.8413086,-0.17529297,0.05029297,-2.319336,-3.2348633,7.9956055,0.0,0.0,0.0,-78.33252,82.490845,-157.7417
1769000350075,-0.9614258,-0.20654297,-0.0546875,6.652832,-7.2021484,2.319336,0.0,0.0,0.0,-78.33252,82.490845,-157.7417
1769000350086,-0.9614258,-0.20654297,-0.0546875,6.652832,-7.2021484,2.319336,0.0,0.0,0.0,-72.059326,82.55676,-151.72668
1769000350177,-0.99853516,-0.16992188,-0.019042969,8.728027,-3.2348633,2.1972656,0.0,0.0,0.0,-72.059326,82.55676,-151.72668
1769000350186,-0.99853516,-0.16992188,-0.019042969,8.728027,-3.2348633,2.1972656,0.0,0.0,0.0,-68.88428,82.34802,-149.64478
1769000350274,-1.0654297,-0.22460938,-0.055664062,8.483887,11.71875,-4.699707,0.0,0.0,0.0,-68.88428,82.34802,-149.64478
1769000350287,-1.0654297,-0.22460938,-0.055664062,8.483887,11.71875,-4.699707,0.0,0.0,0.0,-73.78418,82.30408,-155.42908
1769000350374,-1.1157227,-0.07910156,0.15966797,3.6010742,9.643555,-14.892578,0.0,0.0,0.0,-73.78418,82.30408,-155.42908
1769000350385,-1.1157227,-0.07910156,0.15966797,3.6010742,9.643555,-14.892578,0.0,0.0,0.0,-87.577515,81.430664,-169.54651
1769000350474,-0.72558594,0.06640625,0.076660156,4.333496,-7.5683594,-13.427734,0.0,0.0,0.0,-87.577515,81.430664,-169.54651
1769000350485,-0.72558594,0.06640625,0.076660156,4.333496,-7.5683594,-13.427734,0.0,0.0,0.0,-83.54004,80.15625,-165.43213
1769000350573,-0.9892578,-0.20996094,0.061523438,-3.7841797,-11.352539,-5.859375,0.0,0.0,0.0,-83.54004,80.15625,-165.43213
1769000350585,-0.9892578,-0.20996094,0.061523438,-3.7841797,-11.352539,-5.859375,0.0,0.0,0.0,-78.59619,79.13452,-160.85632
1769000350673,-0.9189453,-0.08935547,0.0087890625,-15.258789,-7.873535,-8.056641,0.0,0.0,0.0,-78.59619,79.13452,-160.85632
1769000350684,-0.9189453,-0.08935547,0.0087890625,-15.258789,-7.873535,-8.056641,0.0,0.0,0.0,-76.04187,78.32703,-156.67053
1769000350773,-0.94677734,-0.11328125,-0.061035156,-11.474609,-0.24414062,-3.8452148,0.0,0.0,0.0,-76.04187,78.32703,-156.67053
1769000350784,-0.94677734,-0.11328125,-0.061035156,-11.474609,-0.24414062,-3.8452148,0.0,0.0,0.0,-77.06909,78.0249,-155.94543
1769000350873,-1.1040039,-0.20361328,-0.095703125,-3.2958984,7.1411133,-0.48828125,0.0,0.0,0.0,-77.06909,78.0249,-155.94543
1769000350884,-1.1040039,-0.20361328,-0.095703125,-3.2958984,7.1411133,-0.48828125,0.0,0.0,0.0,-79.140015,78.36548,-157.02759
1769000350972,-1.1318359,-0.16845703,-0.025878906,0.79345703,14.282227,-0.30517578,0.0,0.0,0.0,-79.140015,78.36548,-157.02759
1769000350983,-1.1318359,-0.16845703,-0.025878906,0.79345703,14.282227,-0.30517578,0.0,0.0,0.0,-88.10486,78.288574,-165.87158
1769000351072,-0.6459961,-0.18554688,0.21289062,0.30517578,-5.126953,13.61084,0.0,0.0,0.0,-88.10486,78.288574,-165.87158
1769000351083,-0.6459961,-0.18554688,0.21289062,0.30517578,-5.126953,13.61084,0.0,0.0,0.0,-88.34656,79.348755,-166.87683
1769000351171,-1.0864258,-0.20019531,-0.076660156,-8.422852,3.4179688,16.174316,0.0,0.0,0.0,-88.34656,79.348755,-166.87683
1769000351183,-1.0864258,-0.20019531,-0.076660156,-8.422852,3.4179688,16.174316,0.0,0.0,0.0,-85.1001,81.06262,-162.8009
1769000351271,-0.81152344,-0.22607422,0.09033203,2.8076172,-3.7841797,3.8452148,0.0,0.0,0.0,-85.1001,81.06262,-162.8009
1769000351283,-0.81152344,-0.22607422,0.09033203,2.8076172,-3.7841797,3.8452148,0.0,0.0,0.0,-85.55054,81.35376,-164.46533
1769000351371,-0.953125,-0.19921875,-0.06298828,17.63916,-2.6245117,6.958008,0.0,0.0,0.0,-85.55054,81.35376,-164.46533
1769000351382,-0.953125,-0.19921875,-0.06298828,17.63916,-2.6245117,6.958008,0.0,0.0,0.0,-80.50781,81.6449,-159.9884
1769000351471,-1.0717773,-0.22998047,-0.087402344,6.0424805,0.7324219,0.4272461,0.0,0.0,0.0,-80.50781,81.6449,-159.9884
1769000351482,-1.0717773,-0.22998047,-0.087402344,6.0424805,0.7324219,0.4272461,0.0,0.0,0.0,-77.475586,81.815186,-158.34045
1769000351570,-1.3427734,-0.29541016,0.018066406,-2.0751953,20.080566,-6.8969727,0.0,0.0,0.0,-77.475586,81.815186,-158.34045
1769000351582,-1.3427734,-0.29541016,0.018066406,-2.0751953,20.080566,-6.8969727,0.0,0.0,0.0,-88.621216,81.44165,-170.09583
1769000351670,-0.7270508,-0.025878906,0.1586914,-4.760742,-5.7373047,-15.258789,0.0,0.0,0.0,-88.621216,81.44165,-170.09583
1769000351681,-0.7270508,-0.025878906,0.1586914,-4.760742,-5.7373047,-15.258789,0.0,0.0,0.0,-93.444214,80.04639,-174.79248
1769000351770,-1.0932617,-0.09326172,0.111328125,13.122559,-5.6152344,-17.700195,0.0,0.0,0.0,-93.444214,80.04639,-174.79248
1769000351782,-1.0932617,-0.09326172,0.111328125,13.122559,-5.6152344,-17.700195,0.0,0.0,0.0,-86.621704,78.81592,-167.71179
1769000351869,-0.91259766,-0.12451172,-0.061035156,-8.728027,-8.056641,-9.033203,0.0,0.0,0.0,-86.621704,78.81592,-167.71179
1769000351881,-0.91259766,-0.12451172,-0.061035156,-8.728027,-8.056641,-9.033203,0.0,0.0,0.0,-81.31531,78.063354,-161.4386
1769000351969,-0.95214844,-0.1772461,-0.07373047,-11.59668,-6.958008,0.0,0.0,0.0,0.0,-81.31531,78.063354,-161.4386
1769000351980,-0.95214844,-0.1772461,-0.07373047,-11.59668,-6.958008,0.0,0.0,0.0,0.0,-78.447876,77.67883,-157.54944
1769000352069,-1.019043,-0.20800781,-0.056152344,-1.2817383,1.159668,4.0893555,0.0,0.0,0.0,-78.447876,77.67883,-157.54944
1769000352082,-1.019043,-0.20800781,-0.056152344,-1.2817383,1.159668,4.0893555,0.0,0.0,0.0,-78.343506,78.11279,-156.8628
1769000352168,-1.1787109,-0.29296875,-0.1586914,-13.85498,14.526367,-8.605957,0.0,0.0,0.0,-78.343506,78.11279,-156.8628
1769000352180,-1.1787109,-0.29296875,-0.1586914,-13.85498,14.526367,-8.605957,0.0,0.0,0.0,-84.47388,78.118286,-162.37793
1769000352268,-0.90966797,-0.1640625,0.13574219,-1.5869141,-1.0986328,9.94873,0.0,0.0,0.0,-84.47388,78.118286,-162.37793
1769000352280,-0.90966797,-0.1640625,0.13574219,-1.5869141,-1.0986328,9.94873,0.0,0.0,0.0,-91.79077,78.030396,-169.8761
1769000352368,-0.8725586,-0.27392578,0.22607422,-0.61035156,-5.432129,11.169434,0.0,0.0,0.0,-91.79077,78.030396,-169.8761
1769000352379,-0.8725586,-0.27392578,0.22607422,-0.61035156,-5.432129,11.169434,0.0,0.0,0.0,-88.61023,79.019165,-166.4154
1769000352467,-0.8935547,-0.06347656,-0.04296875,12.817383,-3.1738281,8.361816,0.0,0.0,0.0,-88.61023,79.019165,-166.4154
1769000352479,-0.8935547,-0.06347656,-0.04296875,12.817383,-3.1738281,8.361816,0.0,0.0,0.0,-83.26538,79.84863,-160.48828
1769000352568,-0.96484375,-0.23828125,0.0068359375,1.4038086,-11.779785,7.2021484,0.0,0.0,0.0,-83.26538,79.84863,-160.48828
1769000352579,-0.96484375,-0.23828125,0.0068359375,1.4038086,-11.779785,7.2021484,0.0,0.0,0.0,-76.87683,80.59021,-154.74792
1769000352667,-1.0004883,-0.25146484,0.040039062,6.4697266,-11.779785,5.7373047,0.0,0.0,0.0,-76.87683,80.59021,-154.74792
1769000352679,-1.0004883,-0.25146484,0.040039062,6.4697266,-11.779785,5.7373047,0.0,0.0,0.0,-71.51001,80.546265,-149.93591
1769000352767,-1.0605469,-0.17773438,-0.04296875,4.4555664,10.131836,-0.4272461,0.0,0.0,0.0,-71.51001,80.546265,-149.93591
1769000352779,-1.0605469,-0.17773438,-0.04296875,4.4555664,10.131836,-0.4272461,0.0,0.0,0.0,-71.63086,80.40344,-150.2655
1769000352867,-1.2475586,-0.16601562,0.122558594,-3.6621094,18.188477,-10.498047,0.0,0.0,0.0,-71.63086,80.40344,-150.2655
1769000352878,-1.2475586,-0.16601562,0.122558594,-3.6621094,18.188477,-10.498047,0.0,0.0,0.0,-84.44092,80.34302,-163.13599
1769000352966,-0.63964844,0.041015625,0.079589844,4.699707,-9.460449,-12.268066,0.0,0.0,0.0,-84.44092,80.34302,-163.13599
1769000352979,-0.63964844,0.041015625,0.079589844,4.699707,-9.460449,-12.268066,0.0,0.0,0.0,-85.90759,79.07959,-164.47083
1769000353066,-1.0249023,-0.16748047,0.047851562,4.5166016,-7.385254,-9.765625,0.0,0.0,0.0,-85.90759,79.07959,-164.47083
1769000353078,-1.0249023,-0.16748047,0.047851562,4.5166016,-7.385254,-9.765625,0.0,0.0,0.0,-83.09509,78.14575,-162.02087
1769000353165,-0.90966797,-0.10644531,-0.049316406,-0.12207031,-6.3476562,-11.535645,0.0,0.0,0.0,-83.09509,78.14575,-162.02087
1769000353177,-0.90966797,-0.10644531,-0.049316406,-0.12207031,-6.3476562,-11.535645,0.0,0.0,0.0,-81.17798,77.387695,-159.4336
1769000353265,-0.95166016,-0.16455078,-0.04248047,-5.92041,-4.333496,-4.0893555,0.0,0.0,0.0,-81.17798,77.387695,-159.4336
1769000353276,-0.95166016,-0.16455078,-0.04248047,-5.92041,-4.333496,-4.0893555,0.0,0.0,0.0,-78.16223,76.82739,-156.30249
1769000353366,-1.0483398,-0.2211914,-0.08984375,-2.1972656,-1.8310547,-5.9814453,0.0,0.0,0.0,-78.16223,76.82739,-156.30249
1769000353377,-1.0483398,-0.2211914,-0.08984375,-2.1972656,-1.8310547,-5.9814453,0.0,0.0,0.0,-77.93701,76.60217,-155.47302
1769000353464,-1.2709961,-0.2548828,-0.08886719,3.4179688,17.944336,-7.873535,0.0,0.0,0.0,-77.93701,76.60217,-155.47302
1769000353476,-1.2709961,-0.2548828,-0.08886719,3.4179688,17.944336,-7.873535,0.0,0.0,0.0,-81.75476,76.173706,-159.28528
1769000353564,-0.8149414,-0.16845703,0.20019531,11.901855,3.0517578,16.235352,0.0,0.0,0.0,-81.75476,76.173706,-159.28528
1769000353576,-0.8149414,-0.16845703,0.20019531,11.901855,3.0517578,16.235352,0.0,0.0,0.0,-85.58899,76.59668,-164.63013
1769000353664,-1.0249023,-0.26171875,0.17919922,-8.361816,-8.7890625,21.911621,0.0,0.0,0.0,-85.58899,76.59668,-164.63013
1769000353675,-1.0249023,-0.26171875,0.17919922,-8.361816,-8.7890625,21.911621,0.0,0.0,0.0,-81.03516,78.14575,-160.76294
1769000353764,-0.85009766,-0.21777344,0.064941406,8.239746,-5.065918,8.178711,0.0,0.0,0.0,-81.03516,78.14575,-160.76294
1769000353775,-0.85009766,-0.21777344,0.064941406,8.239746,-5.065918,8.178711,0.0,0.0,0.0,-76.79443,79.09607,-156.82434
1769000353863,-0.9692383,-0.26904297,0.044921875,5.7373047,-10.498047,5.9814453,0.0,0.0,0.0,-76.79443,79.09607,-156.82434
1769000353875,-0.9692383,-0.26904297,0.044921875,5.7373047,-10.498047,5.9814453,0.0,0.0,0.0,-71.36719,79.44214,-151.9574
1769000353963,-1.0136719,-0.20019531,0.045410156,0.12207031,-9.033203,0.5493164,0.0,0.0,0.0,-71.36719,79.44214,-151.9574
1769000353974,-1.0136719,-0.20019531,0.045410156,0.12207031,-9.033203,0.5493164,0.0,0.0,0.0,-66.708984,79.04114,-147.8595
1769000354063,-1.0922852,-0.27783203,-0.010253906,5.7373047,18.310547,-4.638672,0.0,0.0,0.0,-66.708984,79.04114,-147.8595
1769000354074,-1.0922852,-0.27783203,-0.010253906,5.7373047,18.310547,-4.638672,0.0,0.0,0.0,-69.06006,79.00818,-150.65002
1769000354162,-1.1015625,-0.13134766,0.20703125,-0.18310547,12.145996,-14.099121,0.0,0.0,0.0,-69.06006,79.00818,-150.65002
1769000354174,-1.1015625,-0.13134766,0.20703125,-0.18310547,12.145996,-14.099121,0.0,0.0,0.0,-82.88635,78.54126,-164.83337
1769000354262,-0.65722656,-0.02734375,0.0063476562,-0.061035156,-11.169434,-10.986328,0.0,0.0,0.0,-82.88635,78.54126,-164.83337
1769000354274,-0.65722656,-0.02734375,0.0063476562,-0.061035156,-11.169434,-10.986328,0.0,0.0,0.0,-82.08435,77.21741,-163.6853
1769000354362,-1.0620117,-0.21826172,0.16357422,6.5307617,-17.333984,-9.887695,0.0,0.0,0.0,-82.08435,77.21741,-163.6853
1769000354373,-1.0620117,-0.21826172,0.16357422,6.5307617,-17.333984,-9.887695,0.0,0.0,0.0,-79.815674,76.06384,-162.08679
1769000354461,-0.9194336,-0.109375,-0.025878906,4.0283203,-13.916016,-6.225586,0.0,0.0,0.0,-79.815674,76.06384,-162.08679
1769000354473,-0.9194336,-0.109375,-0.025878906,4.0283203,-13.916016,-6.225586,0.0,0.0,0.0,-71.71875,75.234375,-153.28674
1769000354561,-0.97802734,-0.2680664,0.0063476562,-12.939453,-11.779785,1.2817383,0.0,0.0,0.0,-71.71875,75.234375,-153.28674
1769000354573,-0.97802734,-0.2680664,0.0063476562,-12.939453,-11.779785,1.2817383,0.0,0.0,0.0,-68.291016,75.28381,-148.93616
1769000354661,-1.0620117,-0.24707031,0.022460938,-14.770508,0.36621094,1.8920898,0.0,0.0,0.0,-68.291016,75.28381,-148.93616
1769000354672,-1.0620117,-0.24707031,0.022460938,-14.770508,0.36621094,1.8920898,0.0,0.0,0.0,-67.901,75.305786,-147.16736
1769000354761,-1.2919922,-0.18017578,-0.034179688,-9.765625,22.033691,1.2207031,0.0,0.0,0.0,-67.901,75.305786,-147.16736
1769000354772,-1.2919922,-0.18017578,-0.034179688,-9.765625,22.033691,1.2207031,0.0,0.0,0.0,-74.64661,75.6958,-152.23206
1769000354860,-0.6538086,-0.1303711,0.20605469,12.817383,2.5634766,15.563965,0.0,0.0,0.0,-74.64661,75.6958,-152.23206
1769000354872,-0.6538086,-0.1303711,0.20605469,12.817383,2.5634766,15.563965,0.0,0.0,0.0,-76.20117,77.195435,-154.51721
1769000354960,-1.1796875,-0.28759766,0.14257812,-24.475098,-10.681152,32.53174,0.0,0.0,0.0,-76.20117,77.195435,-154.51721
1769000354972,-1.1796875,-0.28759766,0.14257812,-24.475098,-10.681152,32.53174,0.0,0.0,0.0,-69.62036,79.123535,-147.51892
1769000355060,-0.8227539,-0.12695312,0.06201172,3.2348633,-3.90625,9.94873,0.0,0.0,0.0,-69.62036,79.123535,-147.51892
1769000355071,-0.8227539,-0.12695312,0.06201172,3.2348633,-3.90625,9.94873,0.0,0.0,0.0,-65.72571,79.62341,-143.81104
1769000355159,-0.9511719,-0.23046875,0.04296875,6.164551,-7.2631836,2.2583008,0.0,0.0,0.0,-65.72571,79.62341,-143.81104
1769000355171,-0.9511719,-0.23046875,0.04296875,6.164551,-7.2631836,2.2583008,0.0,0.0,0.0,-60.441284,79.80469,-139.08142
1769000355259,-1.0249023,-0.21435547,0.026855469,3.0517578,3.7231445,-5.7373047,0.0,0.0,0.0,-60.441284,79.80469,-139.08142
1769000355271,-1.0249023,-0.21435547,0.026855469,3.0517578,3.7231445,-5.7373047,0.0,0.0,0.0,-60.858765,79.3103,-140.10315
1769000355359,-1.1328125,-0.26904297,-0.05908203,1.4648438,21.54541,-8.483887,0.0,0.0,0.0,-60.858765,79.3103,-140.10315
1769000355370,-1.1328125,-0.26904297,-0.05908203,1.4648438,21.54541,-8.483887,0.0,0.0,0.0,-70.41687,79.29932,-150.07874
1769000355458,-0.9814453,-0.15722656,0.1274414,-1.0375977,-0.91552734,-13.244629,0.0,0.0,0.0,-70.41687,79.29932,-150.07874
1769000355470,-0.9814453,-0.15722656,0.1274414,-1.0375977,-0.91552734,-13.244629,0.0,0.0,0.0,-80.634155,78.43689,-160.49377
1769000355558,-0.73876953,0.015625,0.16357422,17.211914,-8.544922,-13.305664,0.0,0.0,0.0,-80.634155,78.43689,-160.49377
1769000355570,-0.73876953,0.015625,0.16357422,17.211914,-8.544922,-13.305664,0.0,0.0,0.0,-77.57446,76.89331,-158.29102
1769000355658,-0.97998047,-0.20947266,0.05419922,7.2021484,-28.442383,-8.605957,0.0,0.0,0.0,-77.57446,76.89331,-158.29102
1769000355669,-0.97998047,-0.20947266,0.05419922,7.2021484,-28.442383,-8.605957,0.0,0.0,0.0,-66.89575,75.84961,-148.03528
1769000355758,-0.9111328,-0.1899414,0.1171875,0.12207031,-13.977051,-1.4038086,0.0,0.0,0.0,-66.89575,75.84961,-148.03528
1769000355769,-0.9111328,-0.1899414,0.1171875,0.12207031,-13.977051,-1.4038086,0.0,0.0,0.0,-60.51819,74.86633,-141.61377
1769000355857,-0.9970703,-0.1796875,0.072265625,-8.361816,-10.498047,-0.36621094,0.0,0.0,0.0,-60.51819,74.86633,-141.61377
1769000355869,-0.9970703,-0.1796875,0.072265625,-8.361816,-10.498047,-0.36621094,0.0,0.0,0.0,-57.425537,74.31702,-137.88391
1769000355957,-1.0898438,-0.3149414,0.08105469,-18.737793,10.498047,-3.112793,0.0,0.0,0.0,-57.425537,74.31702,-137.88391
1769000355968,-1.0898438,-0.3149414,0.08105469,-18.737793,10.498047,-3.112793,0.0,0.0,0.0,-59.97986,74.63013,-139.31213
1769000356057,-1.0888672,-0.16796875,0.21289062,8.483887,14.709473,4.3945312,0.0,0.0,0.0,-59.97986,74.63013,-139.31213
1769000356068,-1.0888672,-0.16796875,0.21289062,8.483887,14.709473,4.3945312,0.0,0.0,0.0,-68.96118,75.62988,-147.48047
1769000356156,-0.6894531,-0.27246094,0.21679688,-27.46582,-14.831543,30.88379,0.0,0.0,0.0,-68.96118,75.62988,-147.48047
1769000356168,-0.6894531,-0.27246094,0.21679688,-27.46582,-14.831543,30.88379,0.0,0.0,0.0,-61.325684,77.003174,-139.4989
1769000356256,-0.97314453,-0.09082031,0.06982422,6.7749023,-8.361816,7.1411133,0.0,0.0,0.0,-61.325684,77.003174,-139.4989
1769000356268,-0.97314453,-0.09082031,0.06982422,6.7749023,-8.361816,7.1411133,0.0,0.0,0.0,-53.24524,77.72278,-130.80322
1769000356356,-0.9316406,-0.24121094,0.19140625,-8.850098,-14.465332,9.460449,0.0,0.0,0.0,-53.24524,77.72278,-130.80322
1769000356367,-0.9316406,-0.24121094,0.19140625,-8.850098,-14.465332,9.460449,0.0,0.0,0.0,-46.428223,77.948,-123.68408
1769000356456,-0.9746094,-0.18701172,0.084472656,-0.4272461,-3.1738281,4.699707,0.0,0.0,0.0,-46.428223,77.948,-123.68408
1769000356467,-0.9746094,-0.18701172,0.084472656,-0.4272461,-3.1738281,4.699707,0.0,0.0,0.0,-41.445923,77.22839,-117.83386
1769000356555,-1.1025391,-0.2133789,0.021484375,-7.019043,8.361816,5.554199,0.0,0.0,0.0,-41.445923,77.22839,-117.83386
1769000356567,-1.1025391,-0.2133789,0.021484375,-7.019043,8.361816,5.554199,0.0,0.0,0.0,-41.132812,77.58545,-117.180176
1769000356655,-1.2338867,-0.16113281,0.2055664,2.8686523,30.517578,-4.8217773,0.0,0.0,0.0,-41.132812,77.58545,-117.180176
1769000356666,-1.2338867,-0.16113281,0.2055664,2.8686523,30.517578,-4.8217773,0.0,0.0,0.0,-52.695923,79.07959,-128.66638
1769000356755,-0.6557617,0.0073242188,0.12011719,7.9345703,14.343262,-7.8125,0.0,0.0,0.0,-52.695923,79.07959,-128.66638
1769000356766,-0.6557617,0.0073242188,0.12011719,7.9345703,14.343262,-7.8125,0.0,0.0,0.0,-62.276,79.65088,-138.9386
1769000356854,-1.2055664,-0.05029297,0.056640625,15.869141,-0.4272461,-0.24414062,0.0,0.0,0.0,-62.276,79.65088,-138.9386
1769000356866,-1.2055664,-0.05029297,0.056640625,15.869141,-0.4272461,-0.24414062,0.0,0.0,0.0,-63.220825,79.8761,-141.2677
1769000356954,-0.9008789,-0.0703125,0.026367188,1.5869141,0.6713867,1.159668,0.0,0.0,0.0,-63.220825,79.8761,-141.2677
1769000356966,-0.9008789,-0.0703125,0.026367188,1.5869141,0.6713867,1.159668,0.0,0.0,0.0,-60.73242,80.6781,-138.91113
1769000357054,-0.95703125,-0.08935547,0.053222656,2.2583008,-10.925293,-5.9814453,0.0,0.0,0.0,-60.73242,80.6781,-138.91113
1769000357065,-0.95703125,-0.08935547,0.053222656,2.2583008,-10.925293,-5.9814453,0.0,0.0,0.0,-58.24402,80.26611,-136.9336
1769000357154,-1.0351562,-0.20751953,-0.018066406,-8.544922,-5.3710938,-11.108398,0.0,0.0,0.0,-58.24402,80.26611,-136.9336
1769000357165,-1.0351562,-0.20751953,-0.018066406,-8.544922,-5.3710938,-11.108398,0.0,0.0,0.0,-56.260986,79.42566,-134.30786
1769000357253,-1.2133789,-0.16064453,-0.14013672,-5.92041,11.352539,-11.901855,0.0,0.0,0.0,-56.260986,79.42566,-134.30786
1769000357265,-1.2133789,-0.16064453,-0.14013672,-5.92041,11.352539,-11.901855,0.0,0.0,0.0,-60.650024,78.39844,-137.64221
1769000357353,-0.86572266,-0.119140625,0.24121094,12.878418,10.314941,8.178711,0.0,0.0,0.0,-60.650024,78.39844,-137.64221
1769000357364,-0.86572266,-0.119140625,0.24121094,12.878418,10.314941,8.178711,0.0,0.0,0.0,-67.39014,78.95874,-145.39856
1769000357453,-0.96240234,-0.24609375,0.35888672,-2.5634766,-12.145996,24.353027,0.0,0.0,0.0,-67.39014,78.95874,-145.39856
1769000357464,-0.96240234,-0.24609375,0.35888672,-2.5634766,-12.145996,24.353027,0.0,0.0,0.0,-65.71472,80.55725,-144.62952
1769000357552,-0.8847656,-0.2133789,0.17041016,33.26416,4.4555664,5.1879883,0.0,0.0,0.0,-65.71472,80.55725,-144.62952
1769000357564,-0.8847656,-0.2133789,0.17041016,33.26416,4.4555664,5.1879883,0.0,0.0,0.0,-55.090942,81.59546,-134.15955
1769000357652,-1.0,-0.21533203,0.030273438,-1.6479492,-8.361816,13.549805,0.0,0.0,0.0,-55.090942,81.59546,-134.15955
1769000357663,-1.0,-0.21533203,0.030273438,-1.6479492,-8.361816,13.549805,0.0,0.0,0.0,-47.026978,82.21069,-126.62842
1769000357752,-0.99609375,-0.140625,0.10839844,-0.12207031,-4.0893555,5.2490234,0.0,0.0,0.0,-47.026978,82.21069,-126.62842
1769000357763,-0.99609375,-0.140625,0.10839844,-0.12207031,-4.0893555,5.2490234,0.0,0.0,0.0,-44.599,81.99097,-124.854126
1769000357851,-1.1083984,-0.13330078,-0.0126953125,6.713867,16.296387,-3.7841797,0.0,0.0,0.0,-44.599,81.99097,-124.854126
1769000357863,-1.1083984,-0.13330078,-0.0126953125,6.713867,16.296387,-3.7841797,0.0,0.0,0.0,-46.620483,82.23816,-126.82617
1769000357951,-1.2226562,-0.118652344,0.15722656,9.460449,28.076172,-9.399414,0.0,0.0,0.0,-46.620483,82.23816,-126.82617
1769000357963,-1.2226562,-0.118652344,0.15722656,9.460449,28.076172,-9.399414,0.0,0.0,0.0,-68.082275,83.21594,-148.96912
1769000358051,-0.65625,0.05419922,0.092285156,8.239746,1.0375977,-9.094238,0.0,0.0,0.0,-68.082275,83.21594,-148.96912
1769000358062,-0.65625,0.05419922,0.092285156,8.239746,1.0375977,-9.094238,0.0,0.0,0.0,-81.831665,82.3645,-163.526
1769000358150,-1.0727539,-0.19628906,0.05859375,1.159668,-15.441895,-6.5307617,0.0,0.0,0.0,-81.831665,82.3645,-163.526
1769000358162,-1.0727539,-0.19628906,0.05859375,1.159668,-15.441895,-6.5307617,0.0,0.0,0.0,-74.67407,82.00745,-157.37366
1769000358250,-0.9291992,-0.10058594,-0.016601562,8.911133,-1.7089844,-6.7749023,0.0,0.0,0.0,-74.67407,82.00745,-157.37366
1769000358262,-0.9291992,-0.10058594,-0.016601562,8.911133,-1.7089844,-6.7749023,0.0,0.0,0.0,-69.37866,81.205444,-152.60559
1769000358350,-0.9580078,-0.09472656,-0.0146484375,-10.620117,-3.7841797,-2.9296875,0.0,0.0,0.0,-69.37866,81.205444,-152.60559
1769000358361,-0.9580078,-0.09472656,-0.0146484375,-10.620117,-3.7841797,-2.9296875,0.0,0.0,0.0,-69.955444,80.85388,-152.85278
1769000358450,-1.0170898,-0.1928711,-0.060546875,-4.5166016,-1.4038086,-4.333496,0.0,0.0,0.0,-69.955444,80.85388,-152.85278
1769000358463,-1.0170898,-0.1928711,-0.060546875,-4.5166016,-1.4038086,-4.333496,0.0,0.0,0.0,-71.54297,80.60669,-153.93494
1769000358549,-1.081543,-0.2241211,-0.111816406,-20.507812,-0.36621094,-11.901855,0.0,0.0,0.0,-71.54297,80.60669,-153.93494
1769000358561,-1.081543,-0.2241211,-0.111816406,-20.507812,-0.36621094,-11.901855,0.0,0.0,0.0,-75.31128,80.024414,-156.15417
1769000358649,-1.0625,-0.017578125,0.07470703,18.371582,2.9907227,-7.9345703,0.0,0.0,0.0,-75.31128,80.024414,-156.15417
1769000358661,-1.0625,-0.017578125,0.07470703,18.371582,2.9907227,-7.9345703,0.0,0.0,0.0,-83.69934,79.05762,-164.23462
1769000358749,-0.80029297,-0.17675781,0.35302734,10.437012,4.8828125,33.02002,0.0,0.0,0.0,-83.69934,79.05762,-164.23462
1769000358760,-0.80029297,-0.17675781,0.35302734,10.437012,4.8828125,33.02002,0.0,0.0,0.0,-83.03467,81.31531,-164.86084
1769000358849,-0.93847656,-0.03857422,-0.046875,27.526855,10.986328,4.638672,0.0,0.0,0.0,-83.03467,81.31531,-164.86084
1769000358860,-0.93847656,-0.03857422,-0.046875,27.526855,10.986328,4.638672,0.0,0.0,0.0,-81.260376,83.31482,-162.77893
1769000358948,-0.94433594,-0.24365234,0.103515625,7.8125,1.6479492,8.544922,0.0,0.0,0.0,-81.260376,83.31482,-162.77893
1769000358960,-0.94433594,-0.24365234,0.103515625,7.8125,1.6479492,8.544922,0.0,0.0,0.0,-84.869385,84.75403,-167.09106
1769000359048,-0.98046875,-0.12207031,-0.064453125,6.8969727,1.8310547,-3.6621094,0.0,0.0,0.0,-84.869385,84.75403,-167.09106
1769000359059,-0.98046875,-0.12207031,-0.064453125,6.8969727,1.8310547,-3.6621094,0.0,0.0,0.0,-80.875854,84.36401,-163.5315
1769000359148,-1.0849609,-0.13427734,-0.10986328,9.094238,6.1035156,-3.479004,0.0,0.0,0.0,-80.875854,84.36401,-163.5315
1769000359159,-1.0849609,-0.13427734,-0.10986328,9.094238,6.1035156,-3.479004,0.0,0.0,0.0,-85.35828,83.8916,-168.8324
1769000359247,-1.144043,-0.18896484,-0.048828125,7.6293945,24.780273,-12.390137,0.0,0.0,0.0,-85.35828,83.8916,-168.8324
1769000359259,-1.144043,-0.18896484,-0.048828125,7.6293945,24.780273,-12.390137,0.0,0.0,0.0,-99.51416,82.76001,175.6549
1769000359347,-0.97753906,-0.10595703,0.018554688,-16.662598,3.3569336,-13.48877,0.0,0.0,0.0,-99.51416,82.76001,175.6549
1769000359359,-0.97753906,-0.10595703,0.018554688,-16.662598,3.3569336,-13.48877,0.0,0.0,0.0,-103.760376,81.35925,171.94153
1769000359447,-0.89208984,0.06542969,0.18017578,12.512207,-7.6293945,-10.192871,0.0,0.0,0.0,-103.760376,81.35925,171.94153
1769000359459,-0.89208984,0.06542969,0.18017578,12.512207,-7.6293945,-10.192871,0.0,0.0,0.0,-99.95911,80.128784,175.41321
1769000359546,-0.8935547,-0.095214844,0.01171875,1.3427734,-3.2348633,-10.070801,0.0,0.0,0.0,-99.95911,80.128784,175.41321
1769000359558,-0.8935547,-0.095214844,0.01171875,1.3427734,-3.2348633,-10.070801,0.0,0.0,0.0,-95.042725,79.70581,-179.73633
1769000359646,-0.9350586,-0.14501953,-0.084472656,-9.338379,-4.5776367,1.0375977,0.0,0.0,0.0,-95.042725,79.70581,-179.73633
1769000359658,-0.9350586,-0.14501953,-0.084472656,-9.338379,-4.5776367,1.0375977,0.0,0.0,0.0,-93.12012,79.90906,-176.68213
1769000359746,-0.9892578,-0.15234375,-0.11669922,-17.63916,-4.638672,0.24414062,0.0,0.0,0.0,-93.12012,79.90906,-176.68213
1769000359757,-0.9892578,-0.15234375,-0.11669922,-17.63916,-4.638672,0.24414062,0.0,0.0,0.0,-93.515625,80.13977,-175.45166
1769000359845,-1.0371094,-0.17480469,-0.08544922,-17.822266,-8.911133,-4.638672,0.0,0.0,0.0,-93.515625,80.13977,-175.45166
1769000359857,-1.0371094,-0.17480469,-0.08544922,-17.822266,-8.911133,-4.638672,0.0,0.0,0.0,-92.95532,80.079346,-173.15002
1769000359945,-1.3173828,-0.1484375,-0.21191406,-13.671875,16.174316,-6.286621,0.0,0.0,0.0,-92.95532,80.079346,-173.15002
1769000359957,-1.3173828,-0.1484375,-0.21191406,-13.671875,16.174316,-6.286621,0.0,0.0,0.0,-95.60303,79.68384,-173.66638
1769000360045,-0.7597656,-0.06201172,0.21142578,18.798828,-6.958008,19.65332,0.0,0.0,0.0,-95.60303,79.68384,-173.66638
1769000360056,-0.7597656,-0.06201172,0.21142578,18.798828,-6.958008,19.65332,0.0,0.0,0.0,-96.64673,80.617676,-175.51208
1769000360145,-1.0961914,-0.15429688,-0.064941406,-6.4086914,3.3569336,15.991211,0.0,0.0,0.0,-96.64673,80.617676,-175.51208
1769000360156,-1.0961914,-0.15429688,-0.064941406,-6.4086914,3.3569336,15.991211,0.0,0.0,0.0,-90.24719,82.85339,-169.43665
1769000360244,-0.8935547,-0.25,0.05908203,20.141602,3.6010742,11.71875,0.0,0.0,0.0,-90.24719,82.85339,-169.43665
1769000360256,-0.8935547,-0.25,0.05908203,20.141602,3.6010742,11.71875,0.0,0.0,0.0,-91.78528,83.75427,-173.07861
1769000360344,-0.96484375,-0.18652344,0.0078125,5.065918,-4.3945312,-0.24414062,0.0,0.0,0.0,-91.78528,83.75427,-173.07861
1769000360356,-0.96484375,-0.18652344,0.0078125,5.065918,-4.3945312,-0.24414062,0.0,0.0,0.0,-88.637695,83.792725,-171.30981
1769000360444,-1.0200195,-0.16992188,-0.10498047,2.6855469,1.5258789,-1.4648438,0.0,0.0,0.0,-88.637695,83.792725,-171.30981
1769000360456,-1.0200195,-0.16992188,-0.10498047,2.6855469,1.5258789,-1.4648438,0.0,0.0,0.0,-84.75952,83.44116,-167.84363
1769000360544,-1.0883789,-0.22753906,-0.092285156,6.1035156,11.84082,-4.5776367,0.0,0.0,0.0,-84.75952,83.44116,-167.84363
1769000360555,-1.0883789,-0.22753906,-0.092285156,6.1035156,11.84082,-4.5776367,0.0,0.0,0.0,-93.01575,82.91382,-176.87988
1769000360643,-1.1289062,-0.13671875,0.13134766,0.6713867,20.935059,-12.6953125,0.0,0.0,0.0,-93.01575,82.91382,-176.87988
1769000360655,-1.1289062,-0.13671875,0.13134766,0.6713867,20.935059,-12.6953125,0.0,0.0,0.0,-111.12671,81.29883,164.76196
1769000360743,-0.6723633,0.13330078,0.075683594,8.728027,-1.3427734,-11.291504,0.0,0.0,0.0,-111.12671,81.29883,164.76196
1769000360754,-0.6723633,0.13330078,0.075683594,8.728027,-1.3427734,-11.291504,0.0,0.0,0.0,-111.83533,79.92554,164.43787
1769000360842,-1.0029297,-0.21044922,-0.016601562,4.9438477,0.0,-12.817383,0.0,0.0,0.0,-111.83533,79.92554,164.43787
1769000360854,-1.0029297,-0.21044922,-0.016601562,4.9438477,0.0,-12.817383,0.0,0.0,0.0,-109.1272,79.35974,167.01416
1769000360942,-0.890625,-0.030761719,-0.118652344,-4.5776367,-3.2958984,-8.544922,0.0,0.0,0.0,-109.1272,79.35974,167.01416
1769000360954,-0.890625,-0.030761719,-0.118652344,-4.5776367,-3.2958984,-8.544922,0.0,0.0,0.0,-105.21057,78.64014,171.59546
1769000361042,-0.9433594,-0.15136719,-0.15234375,-18.920898,-10.375977,-0.12207031,0.0,0.0,0.0,-105.21057,78.64014,171.59546
1769000361053,-0.9433594,-0.15136719,-0.15234375,-18.920898,-10.375977,-0.12207031,0.0,0.0,0.0,-103.16162,78.84338,175.05066
1769000361142,-1.027832,-0.20996094,-0.17919922,-22.460938,-3.9672852,1.0375977,0.0,0.0,0.0,-103.16162,78.84338,175.05066
1769000361153,-1.027832,-0.20996094,-0.17919922,-22.460938,-3.9672852,1.0375977,0.0,0.0,0.0,-103.584595,79.20593,176.69312
1769000361241,-1.1381836,-0.22998047,-0.19042969,-19.40918,1.0986328,-9.94873,0.0,0.0,0.0,-103.584595,79.20593,176.69312
1769000361253,-1.1381836,-0.22998047,-0.19042969,-19.40918,1.0986328,-9.94873,0.0,0.0,0.0,-106.01257,78.689575,175.89111
1769000361341,-0.8666992,-0.0014648438,0.15771484,21.057129,-4.4555664,14.221191,0.0,0.0,0.0,-106.01257,78.689575,175.89111
1769000361353,-0.8666992,-0.0014648438,0.15771484,21.057129,-4.4555664,14.221191,0.0,0.0,0.0,-109.39087,78.78845,172.57324
1769000361441,-1.015625,-0.17480469,0.092285156,-2.4414062,-8.239746,29.23584,0.0,0.0,0.0,-109.39087,78.78845,172.57324
1769000361453,-1.015625,-0.17480469,0.092285156,-2.4414062,-8.239746,29.23584,0.0,0.0,0.0,-107.22107,81.44165,174.56726
1769000361540,-0.8803711,-0.05517578,0.020507812,23.80371,0.91552734,16.418457,0.0,0.0,0.0,-107.22107,81.44165,174.56726
1769000361552,-0.8803711,-0.05517578,0.020507812,23.80371,0.91552734,16.418457,0.0,0.0,0.0,-107.63306,83.19397,173.31482
1769000361640,-0.97265625,-0.23339844,0.020996094,12.145996,-6.713867,0.5493164,0.0,0.0,0.0,-107.63306,83.19397,173.31482
1769000361652,-0.97265625,-0.23339844,0.020996094,12.145996,-6.713867,0.5493164,0.0,0.0,0.0,-104.227295,84.34204,174.80896
1769000361740,-0.9770508,-0.14453125,-0.053710938,7.385254,-4.3945312,0.79345703,0.0,0.0,0.0,-104.227295,84.34204,174.80896
1769000361752,-0.9770508,-0.14453125,-0.053710938,7.385254,-4.3945312,0.79345703,0.0,0.0,0.0,-95.372314,84.08386,-177.57202
1769000361840,-1.0615234,-0.16455078,-0.1640625,9.216309,5.79834,-5.493164,0.0,0.0,0.0,-95.372314,84.08386,-177.57202
1769000361851,-1.0615234,-0.16455078,-0.1640625,9.216309,5.79834,-5.493164,0.0,0.0,0.0,-96.27319,83.551025,-179.1156
1769000361940,-1.284668,-0.21386719,-0.11376953,1.0986328,25.268555,-7.1411133,0.0,0.0,0.0,-96.27319,83.551025,-179.1156
1769000361951,-1.284668,-0.21386719,-0.11376953,1.0986328,25.268555,-7.1411133,0.0,0.0,0.0,-103.9032,82.578735,171.99646
1769000362039,-0.8901367,-0.11376953,0.13085938,-11.59668,-2.746582,-10.009766,0.0,0.0,0.0,-103.9032,82.578735,171.99646
1769000362050,-0.8901367,-0.11376953,0.13085938,-11.59668,-2.746582,-10.009766,0.0,0.0,0.0,-112.08252,80.980225,163.42163
1769000362139,-1.0092773,-0.024902344,0.047851562,10.253906,1.159668,-16.967773,0.0,0.0,0.0,-112.08252,80.980225,163.42163
1769000362150,-1.0092773,-0.024902344,0.047851562,10.253906,1.159668,-16.967773,0.0,0.0,0.0,-105.62805,80.33203,170.56274
1769000362238,-0.8886719,-0.041015625,-0.06347656,-14.6484375,-2.6855469,-9.216309,0.0,0.0,0.0,-105.62805,80.33203,170.56274
1769000362250,-0.8886719,-0.041015625,-0.06347656,-14.6484375,-2.6855469,-9.216309,0.0,0.0,0.0,-101.45325,79.70032,175.0122
1769000362338,-0.9614258,-0.15234375,-0.064941406,-18.798828,-8.728027,5.7373047,0.0,0.0,0.0,-101.45325,79.70032,175.0122
1769000362350,-0.9614258,-0.15234375,-0.064941406,-18.798828,-8.728027,5.7373047,0.0,0.0,0.0,-99.86023,79.83215,178.14331
1769000362438,-0.9770508,-0.13330078,-0.12158203,-20.446777,-10.192871,-1.8920898,0.0,0.0,0.0,-99.86023,79.83215,178.14331
1769000362449,-0.9770508,-0.13330078,-0.12158203,-20.446777,-10.192871,-1.8920898,0.0,0.0,0.0,-97.77283,80.20569,-177.5885
1769000362538,-1.0849609,-0.19873047,-0.15966797,-20.202637,-7.6904297,-6.7749023,0.0,0.0,0.0,-97.77283,80.20569,-177.5885
1769000362549,-1.0849609,-0.19873047,-0.15966797,-20.202637,-7.6904297,-6.7749023,0.0,0.0,0.0,-95.07019,79.974976,-172.95227
1769000362637,-1.1704102,-0.064941406,-0.0390625,-2.6245117,8.728027,-0.79345703,0.0,0.0,0.0,-95.07019,79.974976,-172.95227
1769000362649,-1.1704102,-0.064941406,-0.0390625,-2.6245117,8.728027,-0.79345703,0.0,0.0,0.0,-100.39307,79.22241,-177.13806
1769000362737,-0.70214844,-0.12158203,0.19189453,19.470215,-4.8217773,18.127441,0.0,0.0,0.0,-100.39307,79.22241,-177.13806
1769000362748,-0.70214844,-0.12158203,0.19189453,19.470215,-4.8217773,18.127441,0.0,0.0,0.0,-99.212036,80.771484,-177.05566
1769000362837,-1.0673828,-0.16113281,-0.076660156,-4.5776367,4.8217773,13.916016,0.0,0.0,0.0,-99.212036,80.771484,-177.05566
1769000362848,-1.0673828,-0.16113281,-0.076660156,-4.5776367,4.8217773,13.916016,0.0,0.0,0.0,-100.10193,82.941284,-177.68188
1769000362936,-0.8833008,-0.2319336,0.043945312,12.145996,1.0375977,15.808105,0.0,0.0,0.0,-100.10193,82.941284,-177.68188
1769000362948,-0.8833008,-0.2319336,0.043945312,12.145996,1.0375977,15.808105,0.0,0.0,0.0,-103.760376,84.02893,176.60522
1769000363036,-0.9580078,-0.17822266,-0.016113281,11.657715,-1.8310547,1.159668,0.0,0.0,0.0,-103.760376,84.02893,176.60522
1769000363048,-0.9580078,-0.17822266,-0.016113281,11.657715,-1.8310547,1.159668,0.0,0.0,0.0,-101.881714,84.506836,177.24792
1769000363136,-1.0463867,-0.15234375,-0.15820312,6.8359375,5.004883,-6.958008,0.0,0.0,0.0,-101.881714,84.506836,177.24792
1769000363147,-1.0463867,-0.15234375,-0.15820312,6.8359375,5.004883,-6.958008,0.0,0.0,0.0,-101.01929,83.91907,177.27539
1769000363236,-1.0864258,-0.19824219,-0.14404297,18.066406,21.850586,-8.728027,0.0,0.0,0.0,-101.01929,83.91907,177.27539
1769000363247,-1.0864258,-0.19824219,-0.14404297,18.066406,21.850586,-8.728027,0.0,0.0,0.0,-112.20886,82.51282,164.39392
1769000363335,-1.1040039,-0.12597656,0.05419922,3.7841797,11.291504,-11.169434,0.0,0.0,0.0,-112.20886,82.51282,164.39392
1769000363347,-1.1040039,-0.12597656,0.05419922,3.7841797,11.291504,-11.169434,0.0,0.0,0.0,-121.51428,80.3595,154.22058
1769000363435,-0.68359375,0.08203125,0.05810547,4.760742,-3.2958984,-12.6953125,0.0,0.0,0.0,-121.51428,80.3595,154.22058
1769000363446,-0.68359375,0.08203125,0.05810547,4.760742,-3.2958984,-12.6953125,0.0,0.0,0.0,-116.73523,79.420166,159.15344
1769000363535,-1.0053711,-0.20019531,-0.096191406,-5.1879883,-4.0893555,-12.268066,0.0,0.0,0.0,-116.73523,79.420166,159.15344
1769000363546,-1.0053711,-0.20019531,-0.096191406,-5.1879883,-4.0893555,-12.268066,0.0,0.0,0.0,-110.83008,78.96973,165.25085
1769000363634,-0.9042969,-0.100097656,-0.063964844,-11.901855,-8.422852,-4.8828125,0.0,0.0,0.0,-110.83008,78.96973,165.25085
1769000363646,-0.9042969,-0.100097656,-0.063964844,-11.901855,-8.422852,-4.8828125,0.0,0.0,0.0,-108.29224,78.349,168.87634
1769000363738,-0.9604492,-0.16601562,-0.2109375,-17.333984,-4.333496,-1.5258789,0.0,0.0,0.0,-108.29224,78.349,168.87634
1769000363746,-0.9604492,-0.16601562,-0.2109375,-17.333984,-4.333496,-1.5258789,0.0,0.0,0.0,-106.92993,78.73352,172.42493
1769000363834,-1.015625,-0.24121094,-0.16210938,-12.207031,-13.48877,-2.9907227,0.0,0.0,0.0,-106.92993,78.73352,172.42493
1769000363846,-1.015625,-0.24121094,-0.16210938,-12.207031,-13.48877,-2.9907227,0.0,0.0,0.0,-105.03479,78.793945,175.39124
1769000363933,-1.2792969,-0.2446289,-0.24267578,-5.004883,3.90625,-8.7890625,0.0,0.0,0.0,-105.03479,78.793945,175.39124
1769000363945,-1.2792969,-0.2446289,-0.24267578,-5.004883,3.90625,-8.7890625,0.0,0.0,0.0,-103.60657,78.37097,178.03345
1769000364033,-0.80371094,-0.095703125,0.13330078,16.967773,0.7324219,16.479492,0.0,0.0,0.0,-103.60657,78.37097,178.03345
1769000364045,-0.80371094,-0.095703125,0.13330078,16.967773,0.7324219,16.479492,0.0,0.0,0.0,-105.270996,78.931274,175.29236
1769000364133,-1.1088867,-0.2211914,0.029785156,-18.798828,-2.4414062,27.22168,0.0,0.0,0.0,-105.270996,78.931274,175.29236
1769000364144,-1.1088867,-0.2211914,0.029785156,-18.798828,-2.4414062,27.22168,0.0,0.0,0.0,-104.194336,81.25488,175.99548
1769000364233,-0.8676758,-0.11425781,0.037597656,18.005371,-0.24414062,16.662598,0.0,0.0,0.0,-104.194336,81.25488,175.99548
1769000364244,-0.8676758,-0.11425781,0.037597656,18.005371,-0.24414062,16.662598,0.0,0.0,0.0,-104.50195,82.562256,174.72656
1769000364332,-0.96875,-0.20166016,-0.032226562,7.9956055,-7.2631836,3.540039,0.0,0.0,0.0,-104.50195,82.562256,174.72656
1769000364344,-0.96875,-0.20166016,-0.032226562,7.9956055,-7.2631836,3.540039,0.0,0.0,0.0,-99.003296,83.56201,179.13208
1769000364432,-1.0473633,-0.17675781,-0.09326172,1.4038086,-3.2348633,-1.0986328,0.0,0.0,0.0,-99.003296,83.56201,179.13208
1769000364443,-1.0473633,-0.17675781,-0.09326172,1.4038086,-3.2348633,-1.0986328,0.0,0.0,0.0,-93.08716,83.31482,-175.68237
1769000364532,-1.0727539,-0.15966797,-0.10449219,13.549805,8.728027,-4.638672,0.0,0.0,0.0,-93.08716,83.31482,-175.68237
1769000364543,-1.0727539,-0.15966797,-0.10449219,13.549805,8.728027,-4.638672,0.0,0.0,0.0,-96.45996,82.595215,-179.9231
1769000364631,-1.2011719,-0.21191406,0.03125,15.380859,15.686035,-13.061523,0.0,0.0,0.0,-96.45996,82.595215,-179.9231
1769000364643,-1.2011719,-0.21191406,0.03125,15.380859,15.686035,-13.061523,0.0,0.0,0.0,-108.19885,81.50757,167.4646
1769000364731,-0.6923828,-0.030273438,0.020507812,-11.84082,-3.4179688,-9.521484,0.0,0.0,0.0,-108.19885,81.50757,167.4646
1769000364743,-0.6923828,-0.030273438,0.020507812,-11.84082,-3.4179688,-9.521484,0.0,0.0,0.0,-107.05078,80.50781,168.84888
1769000364831,-1.0209961,-0.12939453,0.029785156,7.446289,-6.4086914,-11.108398,0.0,0.0,0.0,-107.05078,80.50781,168.84888
1769000364843,-1.0209961,-0.12939453,0.029785156,7.446289,-6.4086914,-11.108398,0.0,0.0,0.0,-103.84277,79.74426,172.23267
1769000364930,-0.90771484,-0.06640625,-0.115234375,-19.40918,-5.126953,-6.5307617,0.0,0.0,0.0,-103.84277,79.74426,172.23267
1769000364942,-0.90771484,-0.06640625,-0.115234375,-19.40918,-5.126953,-6.5307617,0.0,0.0,0.0,-98.32764,79.42566,179.56055
1769000365030,-0.9526367,-0.115722656,-0.12451172,-25.939941,-5.2490234,-1.2207031,0.0,0.0,0.0,-98.32764,79.42566,179.56055
1769000365042,-0.9526367,-0.115722656,-0.12451172,-25.939941,-5.2490234,-1.2207031,0.0,0.0,0.0,-98.30017,79.348755,-178.09387
1769000365130,-1.0444336,-0.23046875,-0.12890625,-21.42334,-7.3242188,-4.0893555,0.0,0.0,0.0,-98.30017,79.348755,-178.09387
1769000365141,-1.0444336,-0.23046875,-0.12890625,-21.42334,-7.3242188,-4.0893555,0.0,0.0,0.0,-98.618774,79.46411,-176.11084
1769000365229,-1.1557617,-0.20361328,-0.26171875,-8.300781,2.9907227,-13.183594,0.0,0.0,0.0,-98.618774,79.46411,-176.11084
1769000365241,-1.1557617,-0.20361328,-0.26171875,-8.300781,2.9907227,-13.183594,0.0,0.0,0.0,-99.54712,78.68408,-175.15503
1769000365329,-0.9453125,-0.05810547,0.13330078,21.78955,8.178711,9.277344,0.0,0.0,0.0,-99.54712,78.68408,-175.15503
1769000365341,-0.9453125,-0.05810547,0.13330078,21.78955,8.178711,9.277344,0.0,0.0,0.0,-103.8208,78.184204,179.53308
1769000365429,-0.9863281,-0.21191406,0.14794922,2.6855469,1.7089844,26.489258,0.0,0.0,0.0,-103.8208,78.184204,179.53308
1769000365440,-0.9863281,-0.21191406,0.14794922,2.6855469,1.7089844,26.489258,0.0,0.0,0.0,-105.336914,80.13977,176.5448
1769000365529,-0.9550781,-0.11816406,-0.040527344,34.729004,14.404297,8.056641,0.0,0.0,0.0,-105.336914,80.13977,176.5448
1769000365540,-0.9550781,-0.11816406,-0.040527344,34.729004,14.404297,8.056641,0.0,0.0,0.0,-110.65979,81.89209,170.48584
1769000365628,-0.9458008,-0.21875,-0.00390625,21.78955,-0.8544922,4.4555664,0.0,0.0,0.0,-110.65979,81.89209,170.48584
1769000365640,-0.9458008,-0.21875,-0.00390625,21.78955,-0.8544922,4.4555664,0.0,0.0,0.0,-113.6261,82.37549,164.53674
1769000365728,-0.9902344,-0.18798828,-0.07763672,13.122559,-4.8828125,-2.0141602,0.0,0.0,0.0,-113.6261,82.37549,164.53674
1769000365740,-0.9902344,-0.18798828,-0.07763672,13.122559,-4.8828125,-2.0141602,0.0,0.0,0.0,-107.786865,82.21619,168.11829
1769000365828,-1.027832,-0.22509766,-0.18408203,17.333984,2.6245117,-5.6762695,0.0,0.0,0.0,-107.786865,82.21619,168.11829
1769000365839,-1.027832,-0.22509766,-0.18408203,17.333984,2.6245117,-5.6762695,0.0,0.0,0.0,-106.517944,81.5625,168.04138
1769000365927,-1.2602539,-0.29785156,-0.13476562,3.7231445,16.174316,-5.554199,0.0,0.0,0.0,-106.517944,81.5625,168.04138
1769000365939,-1.2602539,-0.29785156,-0.13476562,3.7231445,16.174316,-5.554199,0.0,0.0,0.0,-109.3689,80.56824,163.33374
1769000366027,-0.89404297,-0.12646484,0.1274414,-12.939453,-7.9345703,-12.634277,0.0,0.0,0.0,-109.3689,80.56824,163.33374
1769000366039,-0.89404297,-0.12646484,0.1274414,-12.939453,-7.9345703,-12.634277,0.0,0.0,0.0,-110.24231,79.0686,161.97144
1769000366127,-0.98046875,-0.10253906,0.01171875,7.080078,-5.065918,-13.549805,0.0,0.0,0.0,-110.24231,79.0686,161.97144
1769000366138,-0.98046875,-0.10253906,0.01171875,7.080078,-5.065918,-13.549805,0.0,0.0,0.0,-103.24951,78.63464,169.76074
1769000366226,-0.91552734,-0.16210938,-0.030761719,-13.549805,-11.230469,-8.056641,0.0,0.0,0.0,-103.24951,78.63464,169.76074
1769000366238,-0.91552734,-0.16210938,-0.030761719,-13.549805,-11.230469,-8.056641,0.0,0.0,0.0,-97.65198,78.11279,175.61646
1769000366326,-0.96240234,-0.15185547,-0.10058594,-19.958496,-14.221191,7.1411133,0.0,0.0,0.0,-97.65198,78.11279,175.61646
1769000366338,-0.96240234,-0.15185547,-0.10058594,-19.958496,-14.221191,7.1411133,0.0,0.0,0.0,-93.69141,78.33801,-178.42346
1769000366426,-0.9423828,-0.23730469,-0.05517578,-21.30127,-11.535645,-0.5493164,0.0,0.0,0.0,-93.69141,78.33801,-178.42346
1769000366437,-0.9423828,-0.23730469,-0.05517578,-21.30127,-11.535645,-0.5493164,0.0,0.0,0.0,-90.5603,78.93677,-173.27087
1769000366526,-1.0976562,-0.1875,-0.13232422,-31.066895,-10.253906,-4.3945312,0.0,0.0,0.0,-90.5603,78.93677,-173.27087
1769000366537,-1.0976562,-0.1875,-0.13232422,-31.066895,-10.253906,-4.3945312,0.0,0.0,0.0,-88.533325,78.68408,-168.46436
1769000366625,-1.203125,-0.15283203,-0.036621094,-13.549805,6.3476562,-5.3100586,0.0,0.0,0.0,-88.533325,78.68408,-168.46436
1769000366637,-1.203125,-0.15283203,-0.036621094,-13.549805,6.3476562,-5.3100586,0.0,0.0,0.0,-92.559814,78.030396,-170.44739
1769000366725,-0.66064453,-0.08496094,0.14404297,6.8359375,-11.352539,22.949219,0.0,0.0,0.0,-92.559814,78.030396,-170.44739
1769000366736,-0.66064453,-0.08496094,0.14404297,6.8359375,-11.352539,22.949219,0.0,0.0,0.0,-89.13208,79.48059,-166.9867
1769000366825,-1.1318359,-0.24707031,0.028808594,-12.878418,-4.272461,23.31543,0.0,0.0,0.0,-89.13208,79.48059,-166.9867
1769000366836,-1.1318359,-0.24707031,0.028808594,-12.878418,-4.272461,23.31543,0.0,0.0,0.0,-83.012695,82.39746,-160.21362
1769000366924,-0.86572266,-0.2319336,0.05810547,11.291504,-8.117676,15.686035,0.0,0.0,0.0,-83.012695,82.39746,-160.21362
1769000366936,-0.86572266,-0.2319336,0.05810547,11.291504,-8.117676,15.686035,0.0,0.0,0.0,-73.16345,83.39172,-151.49048
1769000367024,-0.9897461,-0.18017578,0.019042969,-3.540039,-11.230469,0.061035156,0.0,0.0,0.0,-73.16345,83.39172,-151.49048
1769000367036,-0.9897461,-0.18017578,0.019042969,-3.540039,-11.230469,0.061035156,0.0,0.0,0.0,-62.056274,83.45215,-140.49866
1769000367124,-1.0966797,-0.16601562,-0.0043945312,-1.8920898,6.713867,-4.699707,0.0,0.0,0.0,-62.056274,83.45215,-140.49866
1769000367135,-1.0966797,-0.16601562,-0.0043945312,-1.8920898,6.713867,-4.699707,0.0,0.0,0.0,-63.12195,83.10608,-141.64673
1769000367224,-1.0908203,-0.17822266,-0.110839844,8.911133,21.057129,-4.699707,0.0,0.0,0.0,-63.12195,83.10608,-141.64673
1769000367235,-1.0908203,-0.17822266,-0.110839844,8.911133,21.057129,-4.699707,0.0,0.0,0.0,-77.25037,83.18848,-155.86304
1769000367323,-1.090332,-0.022949219,0.14501953,9.94873,21.78955,-12.207031,0.0,0.0,0.0,-77.25037,83.18848,-155.86304
1769000367335,-1.090332,-0.022949219,0.14501953,9.94873,21.78955,-12.207031,0.0,0.0,0.0,-101.75537,82.10632,178.29163
1769000367423,-0.76416016,0.015136719,0.05810547,12.634277,6.8969727,-12.512207,0.0,0.0,0.0,-101.75537,82.10632,178.29163
1769000367435,-0.76416016,0.015136719,0.05810547,12.634277,6.8969727,-12.512207,0.0,0.0,0.0,-104.45801,80.875854,174.80896
1769000367523,-0.9199219,-0.171875,0.0126953125,-4.272461,-12.878418,-8.666992,0.0,0.0,0.0,-104.45801,80.875854,174.80896
1769000367534,-0.9199219,-0.171875,0.0126953125,-4.272461,-12.878418,-8.666992,0.0,0.0,0.0,-99.35486,80.46387,179.73633
1769000367622,-0.9272461,-0.07519531,-0.10205078,2.6245117,-7.5683594,-8.361816,0.0,0.0,0.0,-99.35486,80.46387,179.73633
1769000367634,-0.9272461,-0.07519531,-0.10205078,2.6245117,-7.5683594,-8.361816,0.0,0.0,0.0,-95.43823,80.007935,-175.19897
1769000367722,-0.94433594,-0.13378906,-0.11425781,-5.6762695,-10.437012,-2.319336,0.0,0.0,0.0,-95.43823,80.007935,-175.19897
1769000367734,-0.94433594,-0.13378906,-0.11425781,-5.6762695,-10.437012,-2.319336,0.0,0.0,0.0,-93.03223,79.94751,-171.97449
1769000367822,-1.0996094,-0.2265625,-0.08935547,-9.094238,-8.850098,-7.8125,0.0,0.0,0.0,-93.03223,79.94751,-171.97449
1769000367833,-1.0996094,-0.2265625,-0.08935547,-9.094238,-8.850098,-7.8125,0.0,0.0,0.0,-89.25842,79.65088,-167.68433
1769000367922,-1.1972656,-0.061523438,-0.0078125,19.104004,-0.30517578,6.591797,0.0,0.0,0.0,-89.25842,79.65088,-167.68433
1769000367933,-1.1972656,-0.061523438,-0.0078125,19.104004,-0.30517578,6.591797,0.0,0.0,0.0,-91.94458,79.45862,-170.354
1769000368021,-0.6660156,-0.1586914,0.18798828,14.221191,1.5258789,23.55957,0.0,0.0,0.0,-91.94458,79.45862,-170.354
1769000368033,-0.6660156,-0.1586914,0.18798828,14.221191,1.5258789,23.55957,0.0,0.0,0.0,-93.25745,81.381226,-173.23792
1769000368121,-1.1342773,-0.2133789,-0.0068359375,5.7373047,-5.065918,10.070801,0.0,0.0,0.0,-93.25745,81.381226,-173.23792
1769000368133,-1.1342773,-0.2133789,-0.0068359375,5.7373047,-5.065918,10.070801,0.0,0.0,0.0,-87.35779,83.43567,-168.06885
1769000368221,-0.8623047,-0.22167969,0.029785156,35.27832,1.0986328,5.92041,0.0,0.0,0.0,-87.35779,83.43567,-168.06885
1769000368232,-0.8623047,-0.22167969,0.029785156,35.27832,1.0986328,5.92041,0.0,0.0,0.0,-82.507324,83.94104,-165.8606
1769000368320,-0.99853516,-0.2685547,-0.030761719,10.009766,-1.2207031,-5.7373047,0.0,0.0,0.0,-82.507324,83.94104,-165.8606
1769000368332,-0.99853516,-0.2685547,-0.030761719,10.009766,-1.2207031,-5.7373047,0.0,0.0,0.0,-77.28882,83.68286,-162.68555
1769000368420,-1.0771484,-0.23876953,-0.15283203,-6.8969727,6.5307617,-1.4648438,0.0,0.0,0.0,-77.28882,83.68286,-162.68555
1769000368432,-1.0771484,-0.23876953,-0.15283203,-6.8969727,6.5307617,-1.4648438,0.0,0.0,0.0,-79.40918,82.941284,-165.14648
1769000368520,-1.0444336,-0.16796875,-0.12158203,2.0141602,25.756836,-5.1879883,0.0,0.0,0.0,-79.40918,82.941284,-165.14648
1769000368532,-1.0444336,-0.16796875,-0.12158203,2.0141602,25.756836,-5.1879883,0.0,0.0,0.0,-94.48242,81.84265,178.94531
1769000368620,-1.0415039,-0.10449219,0.18261719,-0.24414062,10.986328,-13.48877,0.0,0.0,0.0,-94.48242,81.84265,178.94531
1769000368632,-1.0415039,-0.10449219,0.18261719,-0.24414062,10.986328,-13.48877,0.0,0.0,0.0,-112.05505,79.94202,160.75745
1769000368719,-0.8129883,0.024414062,-0.01953125,5.126953,-4.333496,-9.216309,0.0,0.0,0.0,-112.05505,79.94202,160.75745
1769000368731,-0.8129883,0.024414062,-0.01953125,5.126953,-4.333496,-9.216309,0.0,0.0,0.0,-107.41333,79.25537,166.03638
1769000368819,-0.9379883,-0.15039062,-0.005859375,-6.958008,-8.117676,-7.446289,0.0,0.0,0.0,-107.41333,79.25537,166.03638
1769000368830,-0.9379883,-0.15039062,-0.005859375,-6.958008,-8.117676,-7.446289,0.0,0.0,0.0,-103.809814,78.32703,168.96973
1769000368919,-0.91552734,-0.13085938,-0.01953125,-16.357422,-7.2631836,1.0986328,0.0,0.0,0.0,-103.809814,78.32703,168.96973
1769000368930,-0.91552734,-0.13085938,-0.01953125,-16.357422,-7.2631836,1.0986328,0.0,0.0,0.0,-102.26074,78.4314,172.1228
1769000369018,-0.9663086,-0.1977539,-0.13476562,-25.878906,-13.549805,-4.333496,0.0,0.0,0.0,-102.26074,78.4314,172.1228
1769000369030,-0.9663086,-0.1977539,-0.13476562,-25.878906,-13.549805,-4.333496,0.0,0.0,0.0,-99.65698,78.92578,177.76428
1769000369118,-1.0620117,-0.16601562,-0.18457031,-31.49414,-9.460449,-5.004883,0.0,0.0,0.0,-99.65698,78.92578,177.76428
1769000369130,-1.0620117,-0.16601562,-0.18457031,-31.49414,-9.460449,-5.004883,0.0,0.0,0.0,-97.003784,78.48633,-176.81396
1769000369218,-1.2548828,-0.13623047,-0.040039062,-5.1879883,-1.0986328,3.2958984,0.0,0.0,0.0,-97.003784,78.48633,-176.81396
1769000369229,-1.2548828,-0.13623047,-0.040039062,-5.1879883,-1.0986328,3.2958984,0.0,0.0,0.0,-97.11914,78.14575,-175.31433
1769000369317,-0.75439453,-0.057128906,0.2006836,22.766113,-5.859375,14.343262,0.0,0.0,0.0,-97.11914,78.14575,-175.31433
1769000369329,-0.75439453,-0.057128906,0.2006836,22.766113,-5.859375,14.343262,0.0,0.0,0.0,-91.58203,79.11804,-170.5133
1769000369417,-1.0981445,-0.21386719,-0.071777344,-25.512695,-2.0141602,21.850586,0.0,0.0,0.0,-91.58203,79.11804,-170.5133
1769000369429,-1.0981445,-0.21386719,-0.071777344,-25.512695,-2.0141602,21.850586,0.0,0.0,0.0,-84.017944,81.397705,-162.74048
1769000369517,-0.88378906,-0.22851562,0.11376953,12.084961,-2.5634766,12.512207,0.0,0.0,0.0,-84.017944,81.397705,-162.74048
1769000369529,-0.88378906,-0.22851562,0.11376953,12.084961,-2.5634766,12.512207,0.0,0.0,0.0,-80.28259,82.386475,-160.16418
1769000369617,-0.99853516,-0.1430664,-0.008300781,4.638672,-5.9814453,-1.7700195,0.0,0.0,0.0,-80.28259,82.386475,-160.16418
1769000369628,-0.99853516,-0.1430664,-0.008300781,4.638672,-5.9814453,-1.7700195,0.0,0.0,0.0,-73.33923,82.62268,-153.86902
1769000369716,-1.0205078,-0.17578125,-0.029785156,10.681152,-3.7231445,-4.638672,0.0,0.0,0.0,-73.33923,82.62268,-153.86902
1769000369728,-1.0205078,-0.17578125,-0.029785156,10.681152,-3.7231445,-4.638672,0.0,0.0,0.0,-71.13098,82.01843,-152.95166
1769000369816,-1.0405273,-0.24023438,-0.048828125,15.197754,7.6293945,-1.5869141,0.0,0.0,0.0,-71.13098,82.01843,-152.95166
1769000369828,-1.0405273,-0.24023438,-0.048828125,15.197754,7.6293945,-1.5869141,0.0,0.0,0.0,-73.26233,81.727295,-156.54419
1769000369916,-1.2250977,-0.2006836,0.21923828,10.009766,14.282227,-3.1738281,0.0,0.0,0.0,-73.26233,81.727295,-156.54419
1769000369927,-1.2250977,-0.2006836,0.21923828,10.009766,14.282227,-3.1738281,0.0,0.0,0.0,-86.8634,81.535034,-171.2384
1769000370015,-0.70751953,-0.0043945312,0.001953125,6.286621,-0.6713867,-14.587402,0.0,0.0,0.0,-86.8634,81.535034,-171.2384
1769000370027,-0.70751953,-0.0043945312,0.001953125,6.286621,-0.6713867,-14.587402,0.0,0.0,0.0,-87.60498,80.947266,-171.26587
1769000370115,-1.0527344,-0.18408203,0.022460938,2.319336,-5.92041,-6.286621,0.0,0.0,0.0,-87.60498,80.947266,-171.26587
1769000370127,-1.0527344,-0.18408203,0.022460938,2.319336,-5.92041,-6.286621,0.0,0.0,0.0,-87.46765,79.84314,-171.74377
1769000370215,-0.91845703,-0.06542969,-0.08251953,-12.512207,-6.4697266,-6.713867,0.0,0.0,0.0,-87.46765,79.84314,-171.74377
1769000370227,-0.91845703,-0.06542969,-0.08251953,-12.512207,-6.4697266,-6.713867,0.0,0.0,0.0,-83.27637,79.27734,-166.3385
1769000370315,-0.95166016,-0.11621094,-0.09326172,-9.094238,4.0283203,2.5024414,0.0,0.0,0.0,-83.27637,79.27734,-166.3385
1769000370326,-0.95166016,-0.11621094,-0.09326172,-9.094238,4.0283203,2.5024414,0.0,0.0,0.0,-84.506836,79.315796,-166.49231
1769000370414,-1.065918,-0.23095703,-0.10498047,-14.221191,2.8686523,-0.48828125,0.0,0.0,0.0,-84.506836,79.315796,-166.49231
1769000370426,-1.065918,-0.23095703,-0.10498047,-14.221191,2.8686523,-0.48828125,0.0,0.0,0.0,-87.59949,79.84863,-168.68958
1769000370514,-1.3935547,-0.17138672,-0.21044922,-8.117676,14.282227,-13.061523,0.0,0.0,0.0,-87.59949,79.84863,-168.68958
1769000370526,-1.3935547,-0.17138672,-0.21044922,-8.117676,14.282227,-13.061523,0.0,0.0,0.0,-93.66394,79.11804,-173.55652
1769000370614,-0.7836914,-0.08154297,0.16845703,1.5258789,4.333496,9.765625,0.0,0.0,0.0,-93.66394,79.11804,-173.55652
1769000370626,-0.7836914,-0.08154297,0.16845703,1.5258789,4.333496,9.765625,0.0,0.0,0.0,-98.47046,78.447876,-179.40125
1769000370713,-0.86621094,-0.2919922,0.13867188,-4.0893555,2.9907227,18.554688,0.0,0.0,0.0,-98.47046,78.447876,-179.40125
1769000370725,-0.86621094,-0.2919922,0.13867188,-4.0893555,2.9907227,18.554688,0.0,0.0,0.0,-99.558105,80.02991,179.67041
1769000370813,-0.9824219,-0.17382812,-0.032226562,16.479492,12.878418,11.413574,0.0,0.0,0.0,-99.558105,80.02991,179.67041
1769000370825,-0.9824219,-0.17382812,-0.032226562,16.479492,12.878418,11.413574,0.0,0.0,0.0,-106.44104,81.2384,172.70508
1769000370913,-0.90527344,-0.17382812,-0.022460938,7.873535,-1.0986328,7.385254,0.0,0.0,0.0,-106.44104,81.2384,172.70508
1769000370924,-0.90527344,-0.17382812,-0.022460938,7.873535,-1.0986328,7.385254,0.0,0.0,0.0,-107.69348,81.77124,170.06287
1769000371013,-0.99316406,-0.2319336,-0.11230469,6.4086914,-4.699707,-0.48828125,0.0,0.0,0.0,-107.69348,81.77124,170.06287
1769000371024,-0.99316406,-0.2319336,-0.11230469,6.4086914,-4.699707,-0.48828125,0.0,0.0,0.0,-104.13391,81.92505,172.55676
1769000371112,-1.0737305,-0.22265625,-0.19580078,22.216797,10.131836,0.0,0.0,0.0,0.0,-104.13391,81.92505,172.55676
1769000371124,-1.0737305,-0.22265625,-0.19580078,22.216797,10.131836,0.0,0.0,0.0,0.0,-107.34192,81.46912,167.948
1769000371212,-1.2773438,-0.23828125,-0.05126953,7.5683594,18.127441,-10.253906,0.0,0.0,0.0,-107.34192,81.46912,167.948
1769000371224,-1.2773438,-0.23828125,-0.05126953,7.5683594,18.127441,-10.253906,0.0,0.0,0.0,-116.40564,79.94202,157.26929
1769000371312,-0.6699219,0.018554688,0.061035156,5.3710938,-11.535645,-11.413574,0.0,0.0,0.0,-116.40564,79.94202,157.26929
1769000371323,-0.6699219,0.018554688,0.061035156,5.3710938,-11.535645,-11.413574,0.0,0.0,0.0,-112.247314,79.03015,161.04309
1769000371411,-1.1328125,-0.17822266,-0.06298828,10.498047,-5.9814453,-12.634277,0.0,0.0,0.0,-112.247314,79.03015,161.04309
1769000371423,-1.1328125,-0.17822266,-0.06298828,10.498047,-5.9814453,-12.634277,0.0,0.0,0.0,-104.749146,78.392944,167.99194
1769000371511,-0.8652344,-0.083984375,0.0034179688,-15.563965,-9.94873,-10.925293,0.0,0.0,0.0,-104.749146,78.392944,167.99194
1769000371523,-0.8652344,-0.083984375,0.0034179688,-15.563965,-9.94873,-10.925293,0.0,0.0,0.0,-101.63452,77.51404,171.84265
1769000371611,-0.9448242,-0.12841797,-0.11669922,-21.78955,-7.385254,-2.4414062,0.0,0.0,0.0,-101.63452,77.51404,171.84265
1769000371622,-0.9448242,-0.12841797,-0.11669922,-21.78955,-7.385254,-2.4414062,0.0,0.0,0.0,-98.62427,77.39319,177.182
1769000371711,-0.99902344,-0.25390625,-0.16113281,-22.094727,-10.192871,-7.873535,0.0,0.0,0.0,-98.62427,77.39319,177.182
1769000371722,-0.99902344,-0.25390625,-0.16113281,-22.094727,-10.192871,-7.873535,0.0,0.0,0.0,-97.53113,77.36572,-179.32983
1769000371810,-1.081543,-0.2211914,-0.23242188,-26.855469,-8.300781,-8.178711,0.0,0.0,0.0,-97.53113,77.36572,-179.32983
1769000371822,-1.081543,-0.2211914,-0.23242188,-26.855469,-8.300781,-8.178711,0.0,0.0,0.0,-96.32263,76.62964,-175.76477
1769000371910,-0.9916992,-0.08984375,0.03955078,10.559082,-4.699707,7.751465,0.0,0.0,0.0,-96.32263,76.62964,-175.76477
1769000371922,-0.9916992,-0.08984375,0.03955078,10.559082,-4.699707,7.751465,0.0,0.0,0.0,-96.19629,76.55823,-175.11108
1769000372010,-0.94384766,-0.3100586,0.22802734,-4.333496,-3.7231445,28.442383,0.0,0.0,0.0,-96.19629,76.55823,-175.11108
1769000372021,-0.94384766,-0.3100586,0.22802734,-4.333496,-3.7231445,28.442383,0.0,0.0,0.0,-92.856445,78.673096,-173.0072
1769000372109,-0.87402344,-0.111816406,0.111328125,16.906738,7.873535,11.169434,0.0,0.0,0.0,-92.856445,78.673096,-173.0072
1769000372121,-0.87402344,-0.111816406,0.111328125,16.906738,7.873535,11.169434,0.0,0.0,0.0,-95.96008,80.22217,-176.44043
1769000372209,-0.93310547,-0.2084961,-0.021972656,6.164551,-0.30517578,9.155273,0.0,0.0,0.0,-95.96008,80.22217,-176.44043
1769000372221,-0.93310547,-0.2084961,-0.021972656,6.164551,-0.30517578,9.155273,0.0,0.0,0.0,-96.39404,81.57898,-177.4237
1769000372309,-0.9941406,-0.23876953,-0.045898438,2.9907227,-6.286621,1.3427734,0.0,0.0,0.0,-96.39404,81.57898,-177.4237
1769000372320,-0.9941406,-0.23876953,-0.045898438,2.9907227,-6.286621,1.3427734,0.0,0.0,0.0,-92.62573,81.65588,-174.50684
1769000372409,-1.0473633,-0.24707031,-0.14941406,2.8076172,9.094238,6.8969727,0.0,0.0,0.0,-92.62573,81.65588,-174.50684
1769000372420,-1.0473633,-0.24707031,-0.14941406,2.8076172,9.094238,6.8969727,0.0,0.0,0.0,-96.207275,81.760254,-178.30261
1769000372508,-1.265625,-0.17578125,0.11816406,9.277344,0.9765625,-0.6713867,0.0,0.0,0.0,-96.207275,81.760254,-178.30261
1769000372520,-1.265625,-0.17578125,0.11816406,9.277344,0.9765625,-0.6713867,0.0,0.0,0.0,-105.13367,81.54053,172.00195
1769000372608,-0.7084961,-0.016113281,0.119628906,-0.12207031,-9.94873,-17.944336,0.0,0.0,0.0,-105.13367,81.54053,172.00195
1769000372619,-0.7084961,-0.016113281,0.119628906,-0.12207031,-9.94873,-17.944336,0.0,0.0,0.0,-100.079956,81.02417,177.995
1769000372708,-1.1015625,-0.110839844,-0.1381836,0.8544922,-10.498047,-24.108887,0.0,0.0,0.0,-100.079956,81.02417,177.995
1769000372719,-1.1015625,-0.110839844,-0.1381836,0.8544922,-10.498047,-24.108887,0.0,0.0,0.0,-90.78552,79.49158,-171.67786
1769000372807,-0.89160156,-0.12597656,-0.045410156,-10.559082,-8.117676,-11.657715,0.0,0.0,0.0,-90.78552,79.49158,-171.67786
1769000372819,-0.89160156,-0.12597656,-0.045410156,-10.559082,-8.117676,-11.657715,0.0,0.0,0.0,-87.80823,78.063354,-168.1128
1769000372907,-0.9291992,-0.14208984,-0.052246094,-18.737793,-3.540039,-5.9814453,0.0,0.0,0.0,-87.80823,78.063354,-168.1128
1769000372919,-0.9291992,-0.14208984,-0.052246094,-18.737793,-3.540039,-5.9814453,0.0,0.0,0.0,-87.03369,77.211914,-166.11328
1769000373007,-1.0288086,-0.25732422,-0.091308594,-4.699707,1.953125,-3.9672852,0.0,0.0,0.0,-87.03369,77.211914,-166.11328
1769000373019,-1.0288086,-0.25732422,-0.091308594,-4.699707,1.953125,-3.9672852,0.0,0.0,0.0,-88.66516,77.17346,-166.36047
1769000373107,-1.1655273,-0.2529297,-0.24169922,-8.728027,14.526367,-6.652832,0.0,0.0,0.0,-88.66516,77.17346,-166.36047
1769000373118,-1.1655273,-0.2529297,-0.24169922,-8.728027,14.526367,-6.652832,0.0,0.0,0.0,-92.46094,76.75049,-169.35974
1769000373206,-0.8935547,-0.1665039,0.18066406,21.850586,10.681152,12.390137,0.0,0.0,0.0,-92.46094,76.75049,-169.35974
1769000373218,-0.8935547,-0.1665039,0.18066406,21.850586,10.681152,12.390137,0.0,0.0,0.0,-98.64075,76.657104,-177.37976
1769000373306,-0.98583984,-0.3022461,0.12451172,1.159668,-1.5869141,16.357422,0.0,0.0,0.0,-98.64075,76.657104,-177.37976
1769000373317,-0.98583984,-0.3022461,0.12451172,1.159668,-1.5869141,16.357422,0.0,0.0,0.0,-98.080444,78.06885,-178.34656
1769000373406,-0.9199219,-0.25048828,-0.016113281,24.780273,11.169434,-0.4272461,0.0,0.0,0.0,-98.080444,78.06885,-178.34656
1769000373417,-0.9199219,-0.25048828,-0.016113281,24.780273,11.169434,-0.4272461,0.0,0.0,0.0,-99.30542,78.74451,179.57153
1769000373505,-0.90185547,-0.24121094,-0.026367188,8.117676,-5.859375,3.7231445,0.0,0.0,0.0,-99.30542,78.74451,179.57153
1769000373517,-0.90185547,-0.24121094,-0.026367188,8.117676,-5.859375,3.7231445,0.0,0.0,0.0,-98.0365,78.55774,179.14856
1769000373605,-0.98046875,-0.2680664,-0.071777344,11.84082,-0.18310547,2.8686523,0.0,0.0,0.0,-98.0365,78.55774,179.14856
1769000373617,-0.98046875,-0.2680664,-0.071777344,11.84082,-0.18310547,2.8686523,0.0,0.0,0.0,-95.67444,78.57971,-179.69788
1769000373705,-1.0288086,-0.26611328,-0.1772461,13.366699,12.329102,4.9438477,0.0,0.0,0.0,-95.67444,78.57971,-179.69788
1769000373716,-1.0288086,-0.26611328,-0.1772461,13.366699,12.329102,4.9438477,0.0,0.0,0.0,-98.9209,78.57971,175.87463
1769000373805,-1.4248047,-0.3852539,-0.104003906,8.178711,15.869141,-5.3100586,0.0,0.0,0.0,-98.9209,78.57971,175.87463
1769000373816,-1.4248047,-0.3852539,-0.104003906,8.178711,15.869141,-5.3100586,0.0,0.0,0.0,-106.726685,78.030396,166.62964
1769000373904,-0.71533203,-0.07373047,0.12207031,-13.73291,-17.150879,-13.305664,0.0,0.0,0.0,-106.726685,78.030396,166.62964
1769000373916,-0.71533203,-0.07373047,0.12207031,-13.73291,-17.150879,-13.305664,0.0,0.0,0.0,-106.34216,76.55823,166.4154
1769000374004,-1.0722656,-0.19873047,-0.052246094,11.352539,-6.225586,-17.39502,0.0,0.0,0.0,-106.34216,76.55823,166.4154
1769000374015,-1.0722656,-0.19873047,-0.052246094,11.352539,-6.225586,-17.39502,0.0,0.0,0.0,-100.49194,75.69031,173.03467
1769000374104,-0.90625,-0.17529297,-0.09082031,-24.780273,-10.131836,-2.6245117,0.0,0.0,0.0,-100.49194,75.69031,173.03467
1769000374115,-0.90625,-0.17529297,-0.09082031,-24.780273,-10.131836,-2.6245117,0.0,0.0,0.0,-96.30066,75.267334,177.995
1769000374203,-0.9121094,-0.14453125,-0.09326172,-22.460938,-10.375977,8.361816,0.0,0.0,0.0,-96.30066,75.267334,177.995
1769000374215,-0.9121094,-0.14453125,-0.09326172,-22.460938,-10.375977,8.361816,0.0,0.0,0.0,-95.13611,75.668335,-178.28613
1769000374303,-0.97753906,-0.21142578,-0.123535156,-6.1035156,-11.352539,11.230469,0.0,0.0,0.0,-95.13611,75.668335,-178.28613
1769000374315,-0.97753906,-0.21142578,-0.123535156,-6.1035156,-11.352539,11.230469,0.0,0.0,0.0,-92.5708,77.02515,-173.85315
1769000374403,-1.0839844,-0.17382812,-0.16113281,2.5024414,-14.099121,12.390137,0.0,0.0,0.0,-92.5708,77.02515,-173.85315
1769000374414,-1.0839844,-0.17382812,-0.16113281,2.5024414,-14.099121,12.390137,0.0,0.0,0.0,-87.127075,78.49182,-167.75024
1769000374503,-1.159668,-0.06689453,0.14990234,30.151367,-6.8359375,15.563965,0.0,0.0,0.0,-87.127075,78.49182,-167.75024
1769000374514,-1.159668,-0.06689453,0.14990234,30.151367,-6.8359375,15.563965,0.0,0.0,0.0,-87.81372,79.42566,-169.12903
1769000374602,-0.8017578,-0.2133789,0.29003906,12.329102,-8.117676,27.648926,0.0,0.0,0.0,-87.81372,79.42566,-169.12903
1769000374614,-0.8017578,-0.2133789,0.29003906,12.329102,-8.117676,27.648926,0.0,0.0,0.0,-77.87659,81.848145,-160.9497
1769000374702,-1.0112305,-0.07910156,0.013671875,1.4038086,5.554199,12.573242,0.0,0.0,0.0,-77.87659,81.848145,-160.9497
1769000374714,-1.0112305,-0.07910156,0.013671875,1.4038086,5.554199,12.573242,0.0,0.0,0.0,-66.25305,83.60596,-148.67798
1769000374802,-0.92333984,-0.14160156,0.033203125,0.0,10.925293,4.5166016,0.0,0.0,0.0,-66.25305,83.60596,-148.67798
1769000374813,-0.92333984,-0.14160156,0.033203125,0.0,10.925293,4.5166016,0.0,0.0,0.0,-65.53894,84.556274,-148.15613
1769000374901,-0.96484375,-0.18310547,0.0126953125,-0.36621094,0.91552734,-1.2207031,0.0,0.0,0.0,-65.53894,84.556274,-148.15613
1769000374913,-0.96484375,-0.18310547,0.0126953125,-0.36621094,0.91552734,-1.2207031,0.0,0.0,0.0,-69.70276,84.68811,-152.53967
1769000375001,-0.9868164,-0.11816406,-0.043945312,-7.9345703,-0.6713867,-6.7749023,0.0,0.0,0.0,-69.70276,84.68811,-152.53967
1769000375013,-0.9868164,-0.11816406,-0.043945312,-7.9345703,-0.6713867,-6.7749023,0.0,0.0,0.0,-72.317505,83.776245,-154.97314
1769000375101,-1.0952148,-0.2006836,-0.0703125,-4.5776367,5.432129,-8.483887,0.0,0.0,0.0,-72.317505,83.776245,-154.97314
1769000375113,-1.0952148,-0.2006836,-0.0703125,-4.5776367,5.432129,-8.483887,0.0,0.0,0.0,-77.77771,83.13904,-159.94446
1769000375201,-1.1733398,-0.07519531,0.12695312,-8.300781,-2.5024414,-7.3242188,0.0,0.0,0.0,-77.77771,83.13904,-159.94446
1769000375212,-1.1733398,-0.07519531,0.12695312,-8.300781,-2.5024414,-7.3242188,0.0,0.0,0.0,-87.923584,82.073364,-169.50806
1769000375300,-0.8120117,0.10449219,0.045410156,-0.12207031,-3.9672852,-1.4648438,0.0,0.0,0.0,-87.923584,82.073364,-169.50806
1769000375312,-0.8120117,0.10449219,0.045410156,-0.12207031,-3.9672852,-1.4648438,0.0,0.0,0.0,-83.743286,82.06787,-164.729
1769000375400,-0.93847656,-0.119628906,0.08496094,11.413574,13.977051,-11.169434,0.0,0.0,0.0,-83.743286,82.06787,-164.729
1769000375412,-0.93847656,-0.119628906,0.08496094,11.413574,13.977051,-11.169434,0.0,0.0,0.0,-90.12634,81.44165,-172.74902
1769000375500,-0.9248047,-0.05810547,-0.024902344,5.2490234,-2.1972656,-3.2958984,0.0,0.0,0.0,-90.12634,81.44165,-172.74902
1769000375511,-0.9248047,-0.05810547,-0.024902344,5.2490234,-2.1972656,-3.2958984,0.0,0.0,0.0,-91.45569,81.156006,-174.32556
1769000375600,-0.97802734,-0.12890625,-0.07910156,-3.7841797,-6.5307617,-6.8969727,0.0,0.0,0.0,-91.45569,81.156006,-174.32556
1769000375611,-0.97802734,-0.12890625,-0.07910156,-3.7841797,-6.5307617,-6.8969727,0.0,0.0,0.0,-88.45093,80.859375,-171.17249
1769000375701,-1.0058594,-0.1850586,-0.091308594,-22.766113,-19.16504,-14.6484375,0.0,0.0,0.0,-88.45093,80.859375,-171.17249
1769000375711,-1.0058594,-0.1850586,-0.091308594,-22.766113,-19.16504,-14.6484375,0.0,0.0,0.0,-83.638916,79.76074,-164.88281
1769000375799,-1.2539062,-0.09375,-0.17285156,-19.226074,-2.5024414,-9.70459,0.0,0.0,0.0,-83.638916,79.76074,-164.88281
1769000375832,-1.2539062,-0.09375,-0.17285156,-19.226074,-2.5024414,-9.70459,0.0,0.0,0.0,-81.91406,78.44238,-160.85632
1769000375899,-0.77197266,-0.016113281,0.23583984,39.79492,-2.8686523,20.690918,0.0,0.0,0.0,-81.91406,78.44238,-160.85632
1769000375910,-0.77197266,-0.016113281,0.23583984,39.79492,-2.8686523,20.690918,0.0,0.0,0.0,-78.82141,79.82117,-160.02686
1769000375998,-1.0751953,-0.24804688,0.16210938,-4.211426,-3.1738281,28.808594,0.0,0.0,0.0,-78.82141,79.82117,-160.02686
1769000376010,-1.0751953,-0.24804688,0.16210938,-4.211426,-3.1738281,28.808594,0.0,0.0,0.0,-65.86304,82.30957,-147.81006
1769000376098,-0.88964844,-0.099121094,0.12011719,-1.5869141,-8.483887,16.845703,0.0,0.0,0.0,-65.86304,82.30957,-147.81006
1769000376110,-0.88964844,-0.099121094,0.12011719,-1.5869141,-8.483887,16.845703,0.0,0.0,0.0,-53.322144,83.24341,-135.39001
1769000376198,-0.9746094,-0.12548828,0.06982422,4.272461,-11.413574,3.2958984,0.0,0.0,0.0,-53.322144,83.24341,-135.39001
1769000376210,-0.9746094,-0.12548828,0.06982422,4.272461,-11.413574,3.2958984,0.0,0.0,0.0,-42.615967,82.836914,-124.83215
1769000376297,-1.0297852,-0.1303711,0.048828125,4.8217773,-5.493164,0.24414062,0.0,0.0,0.0,-42.615967,82.836914,-124.83215
1769000376309,-1.0297852,-0.1303711,0.048828125,4.8217773,-5.493164,0.24414062,0.0,0.0,0.0,-38.424683,82.353516,-121.398926
1769000376397,-1.0786133,-0.1977539,0.06347656,9.82666,4.8828125,-4.211426,0.0,0.0,0.0,-38.424683,82.353516,-121.398926
1769000376409,-1.0786133,-0.1977539,0.06347656,9.82666,4.8828125,-4.211426,0.0,0.0,0.0,-41.27014,82.41943,-125.29358
1769000376497,-1.1855469,-0.14111328,0.07470703,3.3569336,20.874023,-12.6953125,0.0,0.0,0.0,-41.27014,82.41943,-125.29358
1769000376508,-1.1855469,-0.14111328,0.07470703,3.3569336,20.874023,-12.6953125,0.0,0.0,0.0,-52.37732,82.386475,-136.34033
1769000376596,-0.72509766,-0.008300781,0.15283203,-7.5683594,-3.9672852,-14.953613,0.0,0.0,0.0,-52.37732,82.386475,-136.34033
1769000376608,-0.72509766,-0.008300781,0.15283203,-7.5683594,-3.9672852,-14.953613,0.0,0.0,0.0,-61.501465,81.54053,-145.15686
1769000376696,-1.0986328,-0.072265625,0.12646484,1.2207031,-3.112793,-1.8920898,0.0,0.0,0.0,-61.501465,81.54053,-145.15686
1769000376708,-1.0986328,-0.072265625,0.12646484,1.2207031,-3.112793,-1.8920898,0.0,0.0,0.0,-61.644287,80.55176,-145.10742
1769000376796,-0.9135742,-0.076171875,0.076660156,-6.4086914,-20.446777,-1.159668,0.0,0.0,0.0,-61.644287,80.55176,-145.10742
1769000376807,-0.9135742,-0.076171875,0.076660156,-6.4086914,-20.446777,-1.159668,0.0,0.0,0.0,-55.200806,79.7113,-138.36731
1769000376896,-0.9633789,-0.099609375,0.029296875,-5.493164,1.953125,2.1362305,0.0,0.0,0.0,-55.200806,79.7113,-138.36731
1769000376907,-0.9633789,-0.099609375,0.029296875,-5.493164,1.953125,2.1362305,0.0,0.0,0.0,-52.893677,79.59595,-135.30762
1769000376995,-1.0185547,-0.18017578,0.040039062,-11.84082,-3.6010742,3.112793,0.0,0.0,0.0,-52.893677,79.59595,-135.30762
1769000377007,-1.0185547,-0.18017578,0.040039062,-11.84082,-3.6010742,3.112793,0.0,0.0,0.0,-53.66272,79.96948,-135.50537
1769000377095,-1.0727539,-0.14550781,-0.05908203,-7.446289,7.5683594,1.159668,0.0,0.0,0.0,-53.66272,79.96948,-135.50537
1769000377107,-1.0727539,-0.14550781,-0.05908203,-7.446289,7.5683594,1.159668,0.0,0.0,0.0,-55.777588,80.40344,-136.41174
1769000377195,-1.1162109,-0.09814453,0.09277344,9.094238,3.4179688,7.873535,0.0,0.0,0.0,-55.777588,80.40344,-136.41174
1769000377206,-1.1162109,-0.09814453,0.09277344,9.094238,3.4179688,7.873535,0.0,0.0,0.0,-62.418823,81.21643,-143.16833
1769000377294,-0.7207031,-0.095214844,0.2553711,14.221191,2.380371,13.244629,0.0,0.0,0.0,-62.418823,81.21643,-143.16833
1769000377306,-0.7207031,-0.095214844,0.2553711,14.221191,2.380371,13.244629,0.0,0.0,0.0,-58.029785,82.3645,-140.12512
1769000377394,-1.0185547,-0.10644531,0.076171875,-12.817383,-5.9814453,7.385254,0.0,0.0,0.0,-58.029785,82.3645,-140.12512
1769000377406,-1.0185547,-0.10644531,0.076171875,-12.817383,-5.9814453,7.385254,0.0,0.0,0.0,-47.312622,82.73804,-129.1333
1769000377494,-0.92089844,-0.14208984,0.15185547,-2.9296875,-0.5493164,9.216309,0.0,0.0,0.0,-47.312622,82.73804,-129.1333
1769000377505,-0.92089844,-0.14208984,0.15185547,-2.9296875,-0.5493164,9.216309,0.0,0.0,0.0,-41.687622,83.19397,-123.23364
1769000377594,-1.0014648,-0.12695312,0.032226562,-0.6713867,-6.4086914,-0.4272461,0.0,0.0,0.0,-41.687622,83.19397,-123.23364
1769000377605,-1.0014648,-0.12695312,0.032226562,-0.6713867,-6.4086914,-0.4272461,0.0,0.0,0.0,-36.77124,82.65564,-118.31177
1769000377693,-0.99853516,-0.095214844,0.032226562,7.385254,-2.6855469,-2.8076172,0.0,0.0,0.0,-36.77124,82.65564,-118.31177
1769000377705,-0.99853516,-0.095214844,0.032226562,7.385254,-2.6855469,-2.8076172,0.0,0.0,0.0,-36.397705,82.03491,-118.50952
1769000377793,-1.0849609,-0.15771484,-0.044433594,-4.272461,-3.7231445,-0.5493164,0.0,0.0,0.0,-36.397705,82.03491,-118.50952
1769000377805,-1.0849609,-0.15771484,-0.044433594,-4.272461,-3.7231445,-0.5493164,0.0,0.0,0.0,-35.480347,81.44165,-118.16345
1769000377893,-1.2099609,-0.23242188,0.109375,2.2583008,24.169922,-19.104004,0.0,0.0,0.0,-35.480347,81.44165,-118.16345
1769000377904,-1.2099609,-0.23242188,0.109375,2.2583008,24.169922,-19.104004,0.0,0.0,0.0,-46.23047,81.68335,-129.30908
1769000377993,-0.80908203,0.0126953125,0.19628906,-16.845703,-9.155273,-9.82666,0.0,0.0,0.0,-46.23047,81.68335,-129.30908
1769000378004,-0.80908203,0.0126953125,0.19628906,-16.845703,-9.155273,-9.82666,0.0,0.0,0.0,-58.639526,80.96924,-141.17432
1769000378092,-1.0644531,-0.022460938,0.16601562,24.475098,14.282227,-19.592285,0.0,0.0,0.0,-58.639526,80.96924,-141.17432
1769000378104,-1.0644531,-0.022460938,0.16601562,24.475098,14.282227,-19.592285,0.0,0.0,0.0,-61.16089,79.8761,-143.10242
1769000378192,-0.90966797,-0.059570312,0.017089844,-6.5307617,-8.483887,-3.479004,0.0,0.0,0.0,-61.16089,79.8761,-143.10242
1769000378203,-0.90966797,-0.059570312,0.017089844,-6.5307617,-8.483887,-3.479004,0.0,0.0,0.0,-58.87024,79.315796,-140.7019
1769000378292,-0.96972656,-0.091796875,0.017578125,-8.544922,-1.2207031,4.8828125,0.0,0.0,0.0,-58.87024,79.315796,-140.7019
1769000378303,-0.96972656,-0.091796875,0.017578125,-8.544922,-1.2207031,4.8828125,0.0,0.0,0.0,-56.436768,79.25537,-137.49939
1769000378391,-0.9916992,-0.1743164,0.016113281,-3.8452148,-3.1738281,3.2958984,0.0,0.0,0.0,-56.436768,79.25537,-137.49939
1769000378403,-0.9916992,-0.1743164,0.016113281,-3.8452148,-3.1738281,3.2958984,0.0,0.0,0.0,-55.321655,79.782715,-135.74158
1769000378491,-1.1499023,-0.12011719,-0.029296875,-6.225586,0.4272461,-3.6010742,0.0,0.0,0.0,-55.321655,79.782715,-135.74158
1769000378503,-1.1499023,-0.12011719,-0.029296875,-6.225586,0.4272461,-3.6010742,0.0,0.0,0.0,-55.38208,79.854126,-134.90112
1769000378591,-1.0795898,-0.03955078,0.12158203,6.7749023,10.498047,11.291504,0.0,0.0,0.0,-55.38208,79.854126,-134.90112
1769000378602,-1.0795898,-0.03955078,0.12158203,6.7749023,10.498047,11.291504,0.0,0.0,0.0,-62.36389,80.80994,-141.3501
1769000378690,-0.7055664,-0.17138672,0.28222656,1.7700195,-0.5493164,20.141602,0.0,0.0,0.0,-62.36389,80.80994,-141.3501
1769000378702,-0.7055664,-0.17138672,0.28222656,1.7700195,-0.5493164,20.141602,0.0,0.0,0.0,-58.28247,82.611694,-138.2135
1769000378790,-1.0205078,-0.13964844,-0.015625,-0.61035156,-5.2490234,7.9345703,0.0,0.0,0.0,-58.28247,82.611694,-138.2135
1769000378802,-1.0205078,-0.13964844,-0.015625,-0.61035156,-5.2490234,7.9345703,0.0,0.0,0.0,-43.796997,83.4906,-122.99744
1769000378890,-0.90625,-0.15722656,0.103515625,7.8125,0.0,3.8452148,0.0,0.0,0.0,-43.796997,83.4906,-122.99744
1769000378901,-0.90625,-0.15722656,0.103515625,7.8125,0.0,3.8452148,0.0,0.0,0.0,-38.14453,83.51807,-118.35022
1769000378989,-1.0087891,-0.18017578,0.056640625,3.90625,-3.7841797,1.159668,0.0,0.0,0.0,-38.14453,83.51807,-118.35022
1769000379001,-1.0087891,-0.18017578,0.056640625,3.90625,-3.7841797,1.159668,0.0,0.0,0.0,-36.254883,83.21045,-117.22412
1769000379089,-1.0244141,-0.10205078,0.018554688,14.892578,-4.0283203,-3.3569336,0.0,0.0,0.0,-36.254883,83.21045,-117.22412
1769000379101,-1.0244141,-0.10205078,0.018554688,14.892578,-4.0283203,-3.3569336,0.0,0.0,0.0,-36.85913,82.490845,-119.349976
1769000379189,-1.0864258,-0.18603516,0.07324219,16.113281,19.89746,-18.859863,0.0,0.0,0.0,-36.85913,82.490845,-119.349976
1769000379200,-1.0864258,-0.18603516,0.07324219,16.113281,19.89746,-18.859863,0.0,0.0,0.0,-51.745605,82.64465,-135.98328
1769000379289,-1.0922852,-0.099609375,0.13476562,5.92041,24.597168,-21.240234,0.0,0.0,0.0,-51.745605,82.64465,-135.98328
1769000379300,-1.0922852,-0.099609375,0.13476562,5.92041,24.597168,-21.240234,0.0,0.0,0.0,-76.986694,82.03491,-161.44409
1769000379388,-0.7680664,0.040039062,0.17578125,-11.474609,-15.075684,-10.070801,0.0,0.0,0.0,-76.986694,82.03491,-161.44409
1769000379400,-0.7680664,0.040039062,0.17578125,-11.474609,-15.075684,-10.070801,0.0,0.0,0.0,-76.69006,80.667114,-160.59814
1769000379488,-0.9111328,-0.11035156,0.13232422,9.82666,-2.9296875,-8.056641,0.0,0.0,0.0,-76.69006,80.667114,-160.59814
1769000379500,-0.9111328,-0.11035156,0.13232422,9.82666,-2.9296875,-8.056641,0.0,0.0,0.0,-74.141235,79.82117,-158.1427
1769000379588,-0.9667969,-0.08496094,0.044921875,-2.5634766,-11.413574,2.8686523,0.0,0.0,0.0,-74.141235,79.82117,-158.1427
1769000379599,-0.9667969,-0.08496094,0.044921875,-2.5634766,-11.413574,2.8686523,0.0,0.0,0.0,-66.62659,79.590454,-149.90845
1769000379688,-0.9892578,-0.12158203,0.016601562,-6.3476562,-4.9438477,5.3710938,0.0,0.0,0.0,-66.62659,79.590454,-149.90845
1769000379699,-0.9892578,-0.12158203,0.016601562,-6.3476562,-4.9438477,5.3710938,0.0,0.0,0.0,-61.309204,79.94202,-143.65173
1769000379787,-1.0712891,-0.16845703,-0.0703125,-10.803223,2.380371,-0.9765625,0.0,0.0,0.0,-61.309204,79.94202,-143.65173
1769000379799,-1.0712891,-0.16845703,-0.0703125,-10.803223,2.380371,-0.9765625,0.0,0.0,0.0,-60.650024,80.08484,-142.16858
1769000379887,-1.0263672,-0.12988281,-0.11669922,-6.958008,11.047363,-0.30517578,0.0,0.0,0.0,-60.650024,80.08484,-142.16858
1769000379899,-1.0263672,-0.12988281,-0.11669922,-6.958008,11.047363,-0.30517578,0.0,0.0,0.0,-67.65381,80.529785,-148.57361
1769000379987,-0.9711914,-0.09277344,0.12988281,12.268066,-0.12207031,18.249512,0.0,0.0,0.0,-67.65381,80.529785,-148.57361
1769000379998,-0.9711914,-0.09277344,0.12988281,12.268066,-0.12207031,18.249512,0.0,0.0,0.0,-68.88977,81.798706,-150.8313
1769000380086,-0.9086914,-0.17333984,0.375,3.90625,-11.108398,13.427734,0.0,0.0,0.0,-68.88977,81.798706,-150.8313
1769000380098,-0.9086914,-0.17333984,0.375,3.90625,-11.108398,13.427734,0.0,0.0,0.0,-59.122925,82.91382,-142.0697
1769000380186,-0.9165039,-0.008300781,0.034179688,25.939941,-5.3100586,2.2583008,0.0,0.0,0.0,-59.122925,82.91382,-142.0697
1769000380197,-0.9165039,-0.008300781,0.034179688,25.939941,-5.3100586,2.2583008,0.0,0.0,0.0,-43.258667,82.683105,-126.02966
1769000380286,-0.9741211,-0.22607422,0.104003906,-2.319336,-15.74707,7.5683594,0.0,0.0,0.0,-43.258667,82.683105,-126.02966
1769000380297,-0.9741211,-0.22607422,0.104003906,-2.319336,-15.74707,7.5683594,0.0,0.0,0.0,-31.38794,82.337036,-114.54895
1769000380385,-1.0146484,-0.067871094,0.13623047,4.3945312,-7.6904297,0.61035156,0.0,0.0,0.0,-31.38794,82.337036,-114.54895
1769000380397,-1.0146484,-0.067871094,0.13623047,4.3945312,-7.6904297,0.61035156,0.0,0.0,0.0,-29.712524,81.55701,-112.98889
1769000380485,-1.081543,-0.17871094,0.019042969,4.9438477,8.911133,-8.117676,0.0,0.0,0.0,-29.712524,81.55701,-112.98889
1769000380497,-1.081543,-0.17871094,0.019042969,4.9438477,8.911133,-8.117676,0.0,0.0,0.0,-31.80542,81.35925,-115.29053
1769000380585,-1.2104492,-0.15527344,0.015136719,-12.817383,26.794434,-13.85498,0.0,0.0,0.0,-31.80542,81.35925,-115.29053
1769000380596,-1.2104492,-0.15527344,0.015136719,-12.817383,26.794434,-13.85498,0.0,0.0,0.0,-46.115112,81.79321,-129.52332
1769000380685,-0.84033203,-0.008300781,0.23242188,-4.272461,-3.0517578,-10.803223,0.0,0.0,0.0,-46.115112,81.79321,-129.52332
1769000380696,-0.84033203,-0.008300781,0.23242188,-4.272461,-3.0517578,-10.803223,0.0,0.0,0.0,-60.48523,81.3208,-143.96484
1769000380784,-1.0493164,-0.046875,0.14257812,11.962891,13.671875,-18.188477,0.0,0.0,0.0,-60.48523,81.3208,-143.96484
1769000380796,-1.0493164,-0.046875,0.14257812,11.962891,13.671875,-18.188477,0.0,0.0,0.0,-62.95166,80.513306,-145.90942
1769000380884,-0.90771484,-0.106933594,0.06738281,-7.446289,-7.8125,-3.112793,0.0,0.0,0.0,-62.95166,80.513306,-145.90942
1769000380896,-0.90771484,-0.106933594,0.06738281,-7.446289,-7.8125,-3.112793,0.0,0.0,0.0,-61.347656,79.98047,-144.26147
1769000380984,-0.9716797,-0.099121094,0.022460938,-13.73291,-1.5258789,1.2817383,0.0,0.0,0.0,-61.347656,79.98047,-144.26147
1769000380995,-0.9716797,-0.099121094,0.022460938,-13.73291,-1.5258789,1.2817383,0.0,0.0,0.0,-59.61731,79.8761,-141.23474
1769000381083,-0.98876953,-0.14648438,0.0053710938,-12.145996,-2.0751953,2.5024414,0.0,0.0,0.0,-59.61731,79.8761,-141.23474
1769000381095,-0.98876953,-0.14648438,0.0053710938,-12.145996,-2.0751953,2.5024414,0.0,0.0,0.0,-60.166626,80.15076,-140.40527
1769000381183,-1.0737305,-0.14648438,-0.08642578,-12.390137,4.0893555,-1.953125,0.0,0.0,0.0,-60.166626,80.15076,-140.40527
1769000381195,-1.0737305,-0.14648438,-0.08642578,-12.390137,4.0893555,-1.953125,0.0,0.0,0.0,-61.776123,80.1947,-140.65247
1769000381283,-1.2285156,-0.10253906,-0.087402344,-6.8359375,14.770508,0.79345703,0.0,0.0,0.0,-61.776123,80.1947,-140.65247
1769000381294,-1.2285156,-0.10253906,-0.087402344,-6.8359375,14.770508,0.79345703,0.0,0.0,0.0,-68.499756,80.47485,-146.45874
1769000381383,-0.77246094,-0.08251953,0.24267578,15.075684,-0.12207031,19.28711,0.0,0.0,0.0,-68.499756,80.47485,-146.45874
1769000381394,-0.77246094,-0.08251953,0.24267578,15.075684,-0.12207031,19.28711,0.0,0.0,0.0,-68.516235,81.87012,-147.38159
1769000381482,-1.1303711,-0.18164062,0.12890625,-16.906738,-8.728027,21.42334,0.0,0.0,0.0,-68.516235,81.87012,-147.38159
1769000381494,-1.1303711,-0.18164062,0.12890625,-16.906738,-8.728027,21.42334,0.0,0.0,0.0,-54.00879,83.270874,-133.28064
1769000381582,-0.93408203,-0.111816406,0.07080078,11.474609,4.8828125,6.1035156,0.0,0.0,0.0,-54.00879,83.270874,-133.28064
1769000381594,-0.93408203,-0.111816406,0.07080078,11.474609,4.8828125,6.1035156,0.0,0.0,0.0,-48.449707,83.94104,-127.996216
1769000381682,-0.9785156,-0.1875,0.03857422,14.343262,-4.272461,-1.7700195,0.0,0.0,0.0,-48.449707,83.94104,-127.996216
1769000381693,-0.9785156,-0.1875,0.03857422,14.343262,-4.272461,-1.7700195,0.0,0.0,0.0,-45.977783,83.88611,-126.8811
1769000381781,-1.0092773,-0.118652344,-0.0068359375,15.197754,-0.6713867,-4.4555664,0.0,0.0,0.0,-45.977783,83.88611,-126.8811
1769000381793,-1.0092773,-0.118652344,-0.0068359375,15.197754,-0.6713867,-4.4555664,0.0,0.0,0.0,-46.829224,83.03467,-129.39148
1769000381881,-1.078125,-0.16503906,0.026367188,14.282227,-7.385254,-7.2021484,0.0,0.0,0.0,-46.829224,83.03467,-129.39148
1769000381893,-1.078125,-0.16503906,0.026367188,14.282227,-7.385254,-7.2021484,0.0,0.0,0.0,-49.141846,82.4469,-133.61572
1769000381981,-1.2285156,-0.22558594,0.009765625,11.108398,23.55957,-16.662598,0.0,0.0,0.0,-49.141846,82.4469,-133.61572
1769000381992,-1.2285156,-0.22558594,0.009765625,11.108398,23.55957,-16.662598,0.0,0.0,0.0,-56.0907,82.056885,-141.49292
1769000382080,-0.7963867,-0.06542969,0.21191406,-15.319824,-12.573242,-7.6293945,0.0,0.0,0.0,-56.0907,82.056885,-141.49292
1769000382092,-0.7963867,-0.06542969,0.21191406,-15.319824,-12.573242,-7.6293945,0.0,0.0,0.0,-66.04431,81.101074,-151.50146
1769000382180,-1.0844727,-0.026367188,0.08984375,18.554688,2.5024414,-15.991211,0.0,0.0,0.0,-66.04431,81.101074,-151.50146
1769000382192,-1.0844727,-0.026367188,0.08984375,18.554688,2.5024414,-15.991211,0.0,0.0,0.0,-61.2323,79.82117,-146.39282
1769000382280,-0.93408203,-0.15283203,0.11230469,-8.850098,-17.211914,0.12207031,0.0,0.0,0.0,-61.2323,79.82117,-146.39282
1769000382292,-0.93408203,-0.15283203,0.11230469,-8.850098,-17.211914,0.12207031,0.0,0.0,0.0,-55.22827,79.28284,-140.80078
1769000382380,-0.97021484,-0.078125,0.021484375,-11.962891,-3.1738281,6.591797,0.0,0.0,0.0,-55.22827,79.28284,-140.80078
1769000382391,-0.97021484,-0.078125,0.021484375,-11.962891,-3.1738281,6.591797,0.0,0.0,0.0,-50.273438,78.92029,-134.67041
1769000382479,-1.0229492,-0.16259766,0.048828125,-14.343262,-4.5776367,2.319336,0.0,0.0,0.0,-50.273438,78.92029,-134.67041
1769000382491,-1.0229492,-0.16259766,0.048828125,-14.343262,-4.5776367,2.319336,0.0,0.0,0.0,-49.119873,79.38721,-132.46765
1769000382579,-1.081543,-0.125,-0.013183594,-7.1411133,7.1411133,-2.8686523,0.0,0.0,0.0,-49.119873,79.38721,-132.46765
1769000382590,-1.081543,-0.125,-0.013183594,-7.1411133,7.1411133,-2.8686523,0.0,0.0,0.0,-52.283936,79.57947,-134.7583
1769000382679,-1.0966797,0.016601562,0.05908203,5.6152344,11.047363,6.1035156,0.0,0.0,0.0,-52.283936,79.57947,-134.7583
1769000382690,-1.0966797,0.016601562,0.05908203,5.6152344,11.047363,6.1035156,0.0,0.0,0.0,-60.908203,80.41992,-142.65198
1769000382779,-0.69921875,-0.16308594,0.21289062,8.972168,-3.1738281,17.333984,0.0,0.0,0.0,-60.908203,80.41992,-142.65198
1769000382790,-0.69921875,-0.16308594,0.21289062,8.972168,-3.1738281,17.333984,0.0,0.0,0.0,-54.799805,81.89758,-137.64221
1769000382878,-1.1396484,-0.18945312,0.1015625,-17.76123,-18.310547,18.554688,0.0,0.0,0.0,-54.799805,81.89758,-137.64221
1769000382890,-1.1396484,-0.18945312,0.1015625,-17.76123,-18.310547,18.554688,0.0,0.0,0.0,-41.484375,82.35901,-124.29382
1769000382978,-0.90722656,-0.07861328,0.106933594,2.4414062,-2.5024414,13.549805,0.0,0.0,0.0,-41.484375,82.35901,-124.29382
1769000382989,-0.90722656,-0.07861328,0.106933594,2.4414062,-2.5024414,13.549805,0.0,0.0,0.0,-31.61316,81.9635,-114.84009
1769000383078,-1.0058594,-0.10546875,0.080566406,-0.30517578,-10.253906,-1.2817383,0.0,0.0,0.0,-31.61316,81.9635,-114.84009
1769000383089,-1.0058594,-0.10546875,0.080566406,-0.30517578,-10.253906,-1.2817383,0.0,0.0,0.0,-25.620117,81.51306,-109.25903
1769000383177,-1.0332031,-0.05859375,0.10546875,3.2348633,-3.540039,-2.0141602,0.0,0.0,0.0,-25.620117,81.51306,-109.25903
1769000383189,-1.0332031,-0.05859375,0.10546875,3.2348633,-3.540039,-2.0141602,0.0,0.0,0.0,-25.944214,80.93628,-109.764404
1769000383277,-0.99902344,-0.10546875,0.10986328,9.399414,2.9296875,-12.145996,0.0,0.0,0.0,-25.944214,80.93628,-109.764404
1769000383288,-0.99902344,-0.10546875,0.10986328,9.399414,2.9296875,-12.145996,0.0,0.0,0.0,-30.855103,80.91431,-115.57617
1769000383377,-1.2314453,-0.19091797,-0.080078125,-15.258789,29.296875,-15.136719,0.0,0.0,0.0,-30.855103,80.91431,-115.57617
1769000383388,-1.2314453,-0.19091797,-0.080078125,-15.258789,29.296875,-15.136719,0.0,0.0,0.0,-41.89087,81.051636,-126.6449
1769000383477,-0.8725586,-0.06982422,0.29296875,-16.113281,4.0283203,-12.084961,0.0,0.0,0.0,-41.89087,81.051636,-126.6449
1769000383488,-0.8725586,-0.06982422,0.29296875,-16.113281,4.0283203,-12.084961,0.0,0.0,0.0,-63.605347,80.963745,-148.61206
1769000383577,-1.0043945,-0.016113281,0.11279297,14.221191,15.563965,-22.888184,0.0,0.0,0.0,-63.605347,80.963745,-148.61206
1769000383588,-1.0043945,-0.016113281,0.11279297,14.221191,15.563965,-22.888184,0.0,0.0,0.0,-69.82361,79.557495,-154.70398
1769000383676,-0.9375,-0.1875,0.1171875,-6.958008,-13.061523,-10.070801,0.0,0.0,0.0,-69.82361,79.557495,-154.70398
1769000383687,-0.9375,-0.1875,0.1171875,-6.958008,-13.061523,-10.070801,0.0,0.0,0.0,-70.982666,78.44238,-156.03882
1769000383775,-0.9428711,-0.08642578,-0.012207031,-7.2021484,-8.544922,0.4272461,0.0,0.0,0.0,-70.982666,78.44238,-156.03882
1769000383787,-0.9428711,-0.08642578,-0.012207031,-7.2021484,-8.544922,0.4272461,0.0,0.0,0.0,-66.17615,77.821655,-149.99084
1769000383875,-0.9716797,-0.19433594,0.0,-1.159668,-0.5493164,8.361816,0.0,0.0,0.0,-66.17615,77.821655,-149.99084
1769000383887,-0.9716797,-0.19433594,0.0,-1.159668,-0.5493164,8.361816,0.0,0.0,0.0,-64.4458,78.68408,-147.59033
1769000383975,-1.0693359,-0.16796875,-0.05078125,-7.873535,0.48828125,5.3710938,0.0,0.0,0.0,-64.4458,78.68408,-147.59033
1769000383987,-1.0693359,-0.16796875,-0.05078125,-7.873535,0.48828125,5.3710938,0.0,0.0,0.0,-65.35217,79.332275,-147.71118
1769000384074,-1.1860352,-0.08642578,0.04638672,-5.3100586,10.192871,7.9345703,0.0,0.0,0.0,-65.35217,79.332275,-147.71118
1769000384086,-1.1860352,-0.08642578,0.04638672,-5.3100586,10.192871,7.9345703,0.0,0.0,0.0,-68.55469,80.05737,-150.32593
1769000384174,-0.7919922,-0.07910156,0.1352539,7.6904297,3.1738281,21.78955,0.0,0.0,0.0,-68.55469,80.05737,-150.32593
1769000384187,-0.7919922,-0.07910156,0.1352539,7.6904297,3.1738281,21.78955,0.0,0.0,0.0,-64.57214,81.59546,-146.85425
1769000384274,-1.1601562,-0.19677734,0.17041016,-31.066895,-17.39502,26.794434,0.0,0.0,0.0,-64.57214,81.59546,-146.85425
1769000384286,-1.1601562,-0.19677734,0.17041016,-31.066895,-17.39502,26.794434,0.0,0.0,0.0,-50.267944,82.91382,-132.16553
1769000384374,-0.9008789,-0.05419922,0.0546875,0.9765625,-3.7841797,8.117676,0.0,0.0,0.0,-50.267944,82.91382,-132.16553
1769000384385,-0.9008789,-0.05419922,0.0546875,0.9765625,-3.7841797,8.117676,0.0,0.0,0.0,-39.8584,82.79297,-121.23413
1769000384473,-0.94970703,-0.14257812,0.05126953,8.056641,-6.4697266,-1.4038086,0.0,0.0,0.0,-39.8584,82.79297,-121.23413
1769000384485,-0.94970703,-0.14257812,0.05126953,8.056641,-6.4697266,-1.4038086,0.0,0.0,0.0,-36.05713,82.42493,-118.10303
1769000384574,-1.015625,-0.14501953,0.09472656,13.671875,-7.5683594,-3.6010742,0.0,0.0,0.0,-36.05713,82.42493,-118.10303
1769000384585,-1.015625,-0.14501953,0.09472656,13.671875,-7.5683594,-3.6010742,0.0,0.0,0.0,-34.909058,81.694336,-118.3667
1769000384673,-1.0849609,-0.15820312,0.032226562,11.230469,12.939453,-10.131836,0.0,0.0,0.0,-34.909058,81.694336,-118.3667
1769000384684,-1.0849609,-0.15820312,0.032226562,11.230469,12.939453,-10.131836,0.0,0.0,0.0,-39.79248,81.45264,-124.29382
1769000384772,-1.2788086,-0.17919922,0.1303711,3.3569336,29.35791,-21.606445,0.0,0.0,0.0,-39.79248,81.45264,-124.29382
1769000384784,-1.2788086,-0.17919922,0.1303711,3.3569336,29.35791,-21.606445,0.0,0.0,0.0,-58.233032,81.848145,-143.05847
1769000384872,-0.7001953,-0.047851562,0.15771484,-17.51709,-5.3710938,-16.540527,0.0,0.0,0.0,-58.233032,81.848145,-143.05847
1769000384884,-0.7001953,-0.047851562,0.15771484,-17.51709,-5.3710938,-16.540527,0.0,0.0,0.0,-69.33472,80.77698,-152.98462
1769000384972,-1.0102539,-0.11376953,0.103515625,-8.178711,-0.91552734,-13.48877,0.0,0.0,0.0,-69.33472,80.77698,-152.98462
1769000384983,-1.0102539,-0.11376953,0.103515625,-8.178711,-0.91552734,-13.48877,0.0,0.0,0.0,-71.97693,79.07959,-154.82483
1769000385071,-0.9291992,-0.08642578,-9.765625E-4,-9.887695,-5.1879883,-13.48877,0.0,0.0,0.0,-71.97693,79.07959,-154.82483
1769000385083,-0.9291992,-0.08642578,-9.765625E-4,-9.887695,-5.1879883,-13.48877,0.0,0.0,0.0,-71.850586,77.7063,-153.59436
1769000385171,-0.91259766,-0.12939453,-0.0146484375,-6.8969727,0.5493164,3.0517578,0.0,0.0,0.0,-71.850586,77.7063,-153.59436
1769000385183,-0.91259766,-0.12939453,-0.0146484375,-6.8969727,0.5493164,3.0517578,0.0,0.0,0.0,-73.02612,77.37671,-153.92395
1769000385271,-0.9746094,-0.20458984,-0.053222656,0.24414062,-8.972168,-1.3427734,0.0,0.0,0.0,-73.02612,77.37671,-153.92395
1769000385282,-0.9746094,-0.20458984,-0.053222656,0.24414062,-8.972168,-1.3427734,0.0,0.0,0.0,-71.89453,77.612915,-152.45178
1769000385370,-1.3291016,-0.3022461,-0.09277344,-4.1503906,17.211914,-1.6479492,0.0,0.0,0.0,-71.89453,77.612915,-152.45178
1769000385382,-1.3291016,-0.3022461,-0.09277344,-4.1503906,17.211914,-1.6479492,0.0,0.0,0.0,-74.04236,77.58545,-154.58313
1769000385470,-0.84277344,-0.12207031,0.18115234,9.460449,0.6713867,12.268066,0.0,0.0,0.0,-74.04236,77.58545,-154.58313
1769000385482,-0.84277344,-0.12207031,0.18115234,9.460449,0.6713867,12.268066,0.0,0.0,0.0,-78.45886,78.552246,-159.08203
1769000385570,-0.97558594,-0.23876953,0.1508789,-18.188477,9.460449,19.65332,0.0,0.0,0.0,-78.45886,78.552246,-159.08203
1769000385581,-0.97558594,-0.23876953,0.1508789,-18.188477,9.460449,19.65332,0.0,0.0,0.0,-78.46985,79.85962,-158.85132
1769000385670,-0.9091797,-0.21972656,-4.8828125E-4,18.737793,13.427734,-6.4697266,0.0,0.0,0.0,-78.46985,79.85962,-158.85132
1769000385681,-0.9091797,-0.21972656,-4.8828125E-4,18.737793,13.427734,-6.4697266,0.0,0.0,0.0,-83.776245,80.52429,-163.74573
1769000385769,-0.8808594,-0.14404297,-0.025878906,0.79345703,-3.540039,-0.7324219,0.0,0.0,0.0,-83.776245,80.52429,-163.74573
1769000385781,-0.8808594,-0.14404297,-0.025878906,0.79345703,-3.540039,-0.7324219,0.0,0.0,0.0,-84.83093,79.78821,-165.71228
1769000385869,-0.98779297,-0.2446289,-0.049804688,13.305664,1.2817383,1.159668,0.0,0.0,0.0,-84.83093,79.78821,-165.71228
1769000385881,-0.98779297,-0.2446289,-0.049804688,13.305664,1.2817383,1.159668,0.0,0.0,0.0,-84.0564,79.70032,-166.04187
1769000385969,-1.0957031,-0.30273438,-0.11328125,10.375977,10.620117,2.0141602,0.0,0.0,0.0,-84.0564,79.70032,-166.04187
1769000385980,-1.0957031,-0.30273438,-0.11328125,10.375977,10.620117,2.0141602,0.0,0.0,0.0,-86.693115,79.86511,-170.13428
1769000386068,-1.3706055,-0.3720703,-0.076171875,4.333496,26.000977,-9.460449,0.0,0.0,0.0,-86.693115,79.86511,-170.13428
1769000386080,-1.3706055,-0.3720703,-0.076171875,4.333496,26.000977,-9.460449,0.0,0.0,0.0,-97.16858,79.315796,178.76953
1769000386168,-0.70703125,-0.0024414062,0.16064453,-14.282227,-16.906738,-13.000488,0.0,0.0,0.0,-97.16858,79.315796,178.76953
1769000386180,-0.70703125,-0.0024414062,0.16064453,-14.282227,-16.906738,-13.000488,0.0,0.0,0.0,-100.305176,77.43164,175.11108
1769000386268,-1.0366211,-0.18798828,-4.8828125E-4,12.023926,-3.4179688,-20.568848,0.0,0.0,0.0,-100.305176,77.43164,175.11108
1769000386280,-1.0366211,-0.18798828,-4.8828125E-4,12.023926,-3.4179688,-20.568848,0.0,0.0,0.0,-93.0542,76.61865,-176.8689
1769000386367,-0.8876953,-0.12158203,-0.009277344,-5.004883,-21.362305,-4.638672,0.0,0.0,0.0,-93.0542,76.61865,-176.8689
1769000386379,-0.8876953,-0.12158203,-0.009277344,-5.004883,-21.362305,-4.638672,0.0,0.0,0.0,-87.57202,75.55298,-171.38672
1769000386467,-0.96240234,-0.21826172,-0.016601562,-5.126953,-10.925293,7.019043,0.0,0.0,0.0,-87.57202,75.55298,-171.38672
1769000386479,-0.96240234,-0.21826172,-0.016601562,-5.126953,-10.925293,7.019043,0.0,0.0,0.0,-81.743774,76.04187,-164.6576
1769000386567,-1.0585938,-0.26464844,0.016601562,-10.070801,-9.460449,5.6762695,0.0,0.0,0.0,-81.743774,76.04187,-164.6576
1769000386579,-1.0585938,-0.26464844,0.016601562,-10.070801,-9.460449,5.6762695,0.0,0.0,0.0,-77.02515,76.6626,-159.15344
1769000386667,-1.0854492,-0.23925781,-0.099609375,-17.51709,-0.4272461,1.4648438,0.0,0.0,0.0,-77.02515,76.6626,-159.15344
1769000386678,-1.0854492,-0.23925781,-0.099609375,-17.51709,-0.4272461,1.4648438,0.0,0.0,0.0,-76.102295,77.02515,-156.74744
1769000386766,-1.0390625,-0.109375,0.15625,12.634277,11.901855,13.61084,0.0,0.0,0.0,-76.102295,77.02515,-156.74744
1769000386778,-1.0390625,-0.109375,0.15625,12.634277,11.901855,13.61084,0.0,0.0,0.0,-82.562256,77.66785,-163.05359
1769000386866,-0.7631836,-0.24609375,0.31640625,0.30517578,-0.24414062,12.573242,0.0,0.0,0.0,-82.562256,77.66785,-163.05359
1769000386878,-0.7631836,-0.24609375,0.31640625,0.30517578,-0.24414062,12.573242,0.0,0.0,0.0,-82.93579,79.227905,-164.20166
1769000386966,-0.9765625,-0.15722656,-0.07714844,10.437012,-1.4038086,-1.4648438,0.0,0.0,0.0,-82.93579,79.227905,-164.20166
1769000386977,-0.9765625,-0.15722656,-0.07714844,10.437012,-1.4038086,-1.4648438,0.0,0.0,0.0,-77.8656,80.546265,-157.70325
1769000387065,-0.93115234,-0.2763672,0.026855469,2.380371,-3.8452148,-1.5869141,0.0,0.0,0.0,-77.8656,80.546265,-157.70325
1769000387077,-0.93115234,-0.2763672,0.026855469,2.380371,-3.8452148,-1.5869141,0.0,0.0,0.0,-76.08032,80.32654,-156.73096
1769000387165,-0.9272461,-0.2109375,-0.03955078,3.8452148,5.3100586,-4.8828125,0.0,0.0,0.0,-76.08032,80.32654,-156.73096
1769000387176,-0.9272461,-0.2109375,-0.03955078,3.8452148,5.3100586,-4.8828125,0.0,0.0,0.0,-77.420654,79.72778,-158.31848
1769000387265,-1.0600586,-0.24707031,-0.12695312,4.211426,8.239746,2.6245117,0.0,0.0,0.0,-77.420654,79.72778,-158.31848
1769000387276,-1.0600586,-0.24707031,-0.12695312,4.211426,8.239746,2.6245117,0.0,0.0,0.0,-80.34302,79.59595,-161.86157
1769000387364,-1.0800781,-0.25976562,-0.055664062,7.385254,13.366699,-1.8920898,0.0,0.0,0.0,-80.34302,79.59595,-161.86157
1769000387376,-1.0800781,-0.25976562,-0.055664062,7.385254,13.366699,-1.8920898,0.0,0.0,0.0,-88.357544,79.39819,-171.17249
1769000387464,-0.99902344,-0.11035156,0.28173828,1.953125,6.4086914,-14.404297,0.0,0.0,0.0,-88.357544,79.39819,-171.17249
1769000387476,-0.99902344,-0.11035156,0.28173828,1.953125,6.4086914,-14.404297,0.0,0.0,0.0,-96.71265,78.167725,179.71436
1769000387564,-0.93652344,-0.07080078,-0.0126953125,-4.8217773,-1.4648438,-14.526367,0.0,0.0,0.0,-96.71265,78.167725,179.71436
1769000387575,-0.93652344,-0.07080078,-0.0126953125,-4.8217773,-1.4648438,-14.526367,0.0,0.0,0.0,-92.5708,77.283325,-174.96826
1769000387663,-0.91796875,-0.20361328,0.03955078,-25.390625,-17.150879,-17.27295,0.0,0.0,0.0,-92.5708,77.283325,-174.96826
1769000387675,-0.91796875,-0.20361328,0.03955078,-25.390625,-17.150879,-17.27295,0.0,0.0,0.0,-89.3573,75.84961,-170.5957
1769000387763,-0.9238281,-0.17285156,-0.037109375,-20.141602,-13.916016,-12.939453,0.0,0.0,0.0,-89.3573,75.84961,-170.5957
1769000387775,-0.9238281,-0.17285156,-0.037109375,-20.141602,-13.916016,-12.939453,0.0,0.0,0.0,-86.32507,74.76196,-164.82239
1769000387863,-0.99365234,-0.19091797,-0.10107422,-17.089844,-10.375977,2.1972656,0.0,0.0,0.0,-86.32507,74.76196,-164.82239
1769000387874,-0.99365234,-0.19091797,-0.10107422,-17.089844,-10.375977,2.1972656,0.0,0.0,0.0,-84.92432,74.70154,-161.41113
1769000387963,-1.0825195,-0.25976562,-0.11767578,-9.58252,1.953125,1.3427734,0.0,0.0,0.0,-84.92432,74.70154,-161.41113
1769000387974,-1.0825195,-0.25976562,-0.11767578,-9.58252,1.953125,1.3427734,0.0,0.0,0.0,-86.259155,75.00366,-161.78467
1769000388062,-1.1352539,-0.16259766,0.14257812,5.493164,-1.7089844,4.3945312,0.0,0.0,0.0,-86.259155,75.00366,-161.78467
1769000388074,-1.1352539,-0.16259766,0.14257812,5.493164,-1.7089844,4.3945312,0.0,0.0,0.0,-88.64868,75.234375,-164.42688
1769000388162,-0.6196289,-0.203125,0.23535156,5.9814453,1.7089844,8.544922,0.0,0.0,0.0,-88.64868,75.234375,-164.42688
1769000388173,-0.6196289,-0.203125,0.23535156,5.9814453,1.7089844,8.544922,0.0,0.0,0.0,-87.247925,76.05286,-163.5315
1769000388262,-1.043457,-0.33544922,-0.15332031,-5.065918,0.24414062,1.6479492,0.0,0.0,0.0,-87.247925,76.05286,-163.5315
1769000388273,-1.043457,-0.33544922,-0.15332031,-5.065918,0.24414062,1.6479492,0.0,0.0,0.0,-84.572754,77.48108,-159.30176
1769000388361,-0.8564453,-0.25927734,0.041992188,9.765625,1.0375977,1.0986328,0.0,0.0,0.0,-84.572754,77.48108,-159.30176
1769000388373,-0.8564453,-0.25927734,0.041992188,9.765625,1.0375977,1.0986328,0.0,0.0,0.0,-84.451904,77.15149,-160.35095
1769000388461,-0.94384766,-0.27197266,-0.017578125,15.441895,3.3569336,5.126953,0.0,0.0,0.0,-84.451904,77.15149,-160.35095
1769000388473,-0.94384766,-0.27197266,-0.017578125,15.441895,3.3569336,5.126953,0.0,0.0,0.0,-83.880615,77.23389,-161.39465
1769000388561,-1.0341797,-0.3334961,-0.08642578,2.319336,6.4086914,10.192871,0.0,0.0,0.0,-83.880615,77.23389,-161.39465
1769000388573,-1.0341797,-0.3334961,-0.08642578,2.319336,6.4086914,10.192871,0.0,0.0,0.0,-85.61096,77.88208,-164.33899
1769000388660,-1.059082,-0.32910156,-0.1303711,-3.9672852,20.080566,0.61035156,0.0,0.0,0.0,-85.61096,77.88208,-164.33899
1769000388672,-1.059082,-0.32910156,-0.1303711,-3.9672852,20.080566,0.61035156,0.0,0.0,0.0,-91.66992,78.09631,-170.77698
1769000388760,-0.9296875,-0.1743164,0.23632812,5.1879883,-9.155273,-20.141602,0.0,0.0,0.0,-91.66992,78.09631,-170.77698
1769000388772,-0.9296875,-0.1743164,0.23632812,5.1879883,-9.155273,-20.141602,0.0,0.0,0.0,-98.272705,76.5802,-178.45093
1769000388860,-1.0385742,-0.234375,0.0024414062,-6.4086914,-12.207031,-21.30127,0.0,0.0,0.0,-98.272705,76.5802,-178.45093
1769000388871,-1.0385742,-0.234375,0.0024414062,-6.4086914,-12.207031,-21.30127,0.0,0.0,0.0,-90.48889,74.800415,-169.23889
1769000388960,-0.84716797,-0.111328125,0.0029296875,-13.48877,-6.8969727,-6.713867,0.0,0.0,0.0,-90.48889,74.800415,-169.23889
1769000388971,-0.84716797,-0.111328125,0.0029296875,-13.48877,-6.8969727,-6.713867,0.0,0.0,0.0,-86.73706,73.46008,-164.77295
1769000389059,-0.9863281,-0.27490234,-0.008300781,-16.479492,-5.79834,3.4179688,0.0,0.0,0.0,-86.73706,73.46008,-164.77295
1769000389071,-0.9863281,-0.27490234,-0.008300781,-16.479492,-5.79834,3.4179688,0.0,0.0,0.0,-86.23169,73.756714,-162.66907
1769000389159,-0.92871094,-0.25830078,-0.063964844,-2.746582,-6.7749023,-3.9672852,0.0,0.0,0.0,-86.23169,73.756714,-162.66907
1769000389170,-0.92871094,-0.25830078,-0.063964844,-2.746582,-6.7749023,-3.9672852,0.0,0.0,0.0,-86.050415,73.844604,-161.14197
1769000389259,-1.0512695,-0.23779297,-0.21875,-14.465332,5.554199,-0.79345703,0.0,0.0,0.0,-86.050415,73.844604,-161.14197
1769000389270,-1.0512695,-0.23779297,-0.21875,-14.465332,5.554199,-0.79345703,0.0,0.0,0.0,-86.79199,73.7677,-161.15845
1769000389358,-1.0205078,-0.2529297,0.23583984,7.2021484,10.314941,2.8686523,0.0,0.0,0.0,-86.79199,73.7677,-161.15845
1769000389370,-1.0205078,-0.2529297,0.23583984,7.2021484,10.314941,2.8686523,0.0,0.0,0.0,-92.197266,73.4436,-167.72278
1769000389458,-0.7832031,-0.37109375,0.203125,-12.145996,-2.2583008,11.230469,0.0,0.0,0.0,-92.197266,73.4436,-167.72278
1769000389470,-0.7832031,-0.37109375,0.203125,-12.145996,-2.2583008,11.230469,0.0,0.0,0.0,-90.131836,74.11926,-165.64087
1769000389558,-0.8881836,-0.29882812,-0.114746094,10.986328,10.070801,1.159668,0.0,0.0,0.0,-90.131836,74.11926,-165.64087
1769000389569,-0.8881836,-0.29882812,-0.114746094,10.986328,10.070801,1.159668,0.0,0.0,0.0,-92.48291,75.1355,-166.55823
1769000389657,-0.9296875,-0.2866211,-0.043945312,-5.432129,-1.7700195,3.0517578,0.0,0.0,0.0,-92.48291,75.1355,-166.55823
1769000389669,-0.9296875,-0.2866211,-0.043945312,-5.432129,-1.7700195,3.0517578,0.0,0.0,0.0,-93.6145,74.816895,-168.3435
1769000389757,-0.9213867,-0.3100586,-0.0703125,5.432129,5.2490234,4.699707,0.0,0.0,0.0,-93.6145,74.816895,-168.3435
1769000389769,-0.9213867,-0.3100586,-0.0703125,5.432129,5.2490234,4.699707,0.0,0.0,0.0,-94.350586,74.783936,-169.82117
1769000389857,-1.0244141,-0.34521484,-0.2109375,10.803223,16.296387,12.634277,0.0,0.0,0.0,-94.350586,74.783936,-169.82117
1769000389868,-1.0244141,-0.34521484,-0.2109375,10.803223,16.296387,12.634277,0.0,0.0,0.0,-99.31641,75.355225,-175.57251
1769000389956,-1.2792969,-0.29541016,-0.09082031,9.70459,27.58789,-4.0893555,0.0,0.0,0.0,-99.31641,75.355225,-175.57251
1769000389968,-1.2792969,-0.29541016,-0.09082031,9.70459,27.58789,-4.0893555,0.0,0.0,0.0,-108.951416,75.31677,173.29285
1769000390056,-0.63134766,-0.099121094,0.08886719,1.2817383,-20.385742,-22.521973,0.0,0.0,0.0,-108.951416,75.31677,173.29285
1769000390068,-0.63134766,-0.099121094,0.08886719,1.2817383,-20.385742,-22.521973,0.0,0.0,0.0,-106.70471,73.87207,174.59473
1769000390156,-0.91552734,-0.23291016,-0.103515625,-1.5869141,-5.6152344,-30.090332,0.0,0.0,0.0,-106.70471,73.87207,174.59473
1769000390167,-0.91552734,-0.23291016,-0.103515625,-1.5869141,-5.6152344,-30.090332,0.0,0.0,0.0,-99.32739,72.52075,-176.85242
1769000390256,-0.90771484,-0.24072266,-0.04296875,-15.380859,-18.005371,0.4272461,0.0,0.0,0.0,-99.32739,72.52075,-176.85242
1769000390267,-0.90771484,-0.24072266,-0.04296875,-15.380859,-18.005371,0.4272461,0.0,0.0,0.0,-94.784546,71.6803,-171.45264
1769000390355,-0.89990234,-0.16064453,-0.078125,3.8452148,-11.962891,2.6245117,0.0,0.0,0.0,-94.784546,71.6803,-171.45264
1769000390367,-0.89990234,-0.16064453,-0.078125,3.8452148,-11.962891,2.6245117,0.0,0.0,0.0,-91.867676,72.17468,-167.547
1769000390455,-1.128418,-0.3642578,-0.059570312,7.9345703,-3.540039,8.361816,0.0,0.0,0.0,-91.867676,72.17468,-167.547
1769000390466,-1.128418,-0.3642578,-0.059570312,7.9345703,-3.540039,8.361816,0.0,0.0,0.0,-89.61548,73.31177,-165.63538
1769000390555,-1.2631836,-0.26904297,-0.029785156,43.518066,4.4555664,4.638672,0.0,0.0,0.0,-89.61548,73.31177,-165.63538
1769000390567,-1.2631836,-0.26904297,-0.029785156,43.518066,4.4555664,4.638672,0.0,0.0,0.0,-92.213745,74.124756,-169.05212
1769000390654,-0.57421875,-0.3046875,0.24560547,-2.319336,2.9907227,10.070801,0.0,0.0,0.0,-92.213745,74.124756,-169.05212
1769000390666,-0.57421875,-0.3046875,0.24560547,-2.319336,2.9907227,10.070801,0.0,0.0,0.0,-91.153564,74.921265,-170.2771
1769000390754,-1.1425781,-0.23583984,-0.24023438,-2.380371,3.90625,3.2348633,0.0,0.0,0.0,-91.153564,74.921265,-170.2771
1769000390766,-1.1425781,-0.23583984,-0.24023438,-2.380371,3.90625,3.2348633,0.0,0.0,0.0,-91.170044,76.5802,-168.46985
1769000390854,-0.78466797,-0.26660156,0.064453125,3.6621094,-0.5493164,10.559082,0.0,0.0,0.0,-91.170044,76.5802,-168.46985
1769000390866,-0.78466797,-0.26660156,0.064453125,3.6621094,-0.5493164,10.559082,0.0,0.0,0.0,-90.09888,76.55823,-169.56848
1769000390953,-0.93847656,-0.23779297,-0.09375,14.404297,1.5869141,7.873535,0.0,0.0,0.0,-90.09888,76.55823,-169.56848
1769000390965,-0.93847656,-0.23779297,-0.09375,14.404297,1.5869141,7.873535,0.0,0.0,0.0,-88.78601,77.45361,-168.70605
1769000391053,-1.0629883,-0.26416016,-0.12646484,10.437012,16.113281,16.540527,0.0,0.0,0.0,-88.78601,77.45361,-168.70605
1769000391065,-1.0629883,-0.26416016,-0.12646484,10.437012,16.113281,16.540527,0.0,0.0,0.0,-91.39526,78.4259,-172.93579
1769000391153,-1.3569336,-0.38427734,-0.15625,11.657715,31.37207,14.099121,0.0,0.0,0.0,-91.39526,78.4259,-172.93579
1769000391164,-1.3569336,-0.38427734,-0.15625,11.657715,31.37207,14.099121,0.0,0.0,0.0,-104.573364,79.53552,172.33704
1769000391253,-0.9975586,-0.15576172,0.11816406,13.549805,0.91552734,0.8544922,0.0,0.0,0.0,-104.573364,79.53552,172.33704
1769000391264,-0.9975586,-0.15576172,0.11816406,13.549805,0.91552734,0.8544922,0.0,0.0,0.0,-112.82959,79.348755,162.46582
1769000391352,-0.88134766,0.0053710938,-0.019042969,24.108887,-7.385254,-2.6855469,0.0,0.0,0.0,-112.82959,79.348755,162.46582
1769000391364,-0.88134766,0.0053710938,-0.019042969,24.108887,-7.385254,-2.6855469,0.0,0.0,0.0,-104.732666,79.40369,169.20593
1769000391452,-0.91748047,-0.15039062,0.037597656,2.4414062,-16.052246,2.1362305,0.0,0.0,0.0,-104.732666,79.40369,169.20593
1769000391464,-0.91748047,-0.15039062,0.037597656,2.4414062,-16.052246,2.1362305,0.0,0.0,0.0,-96.35559,79.486084,176.39648
1769000391552,-0.9321289,-0.15283203,0.03125,-11.474609,-20.446777,0.5493164,0.0,0.0,0.0,-96.35559,79.486084,176.39648
1769000391563,-0.9321289,-0.15283203,0.03125,-11.474609,-20.446777,0.5493164,0.0,0.0,0.0,-86.58325,79.974976,-172.73804
1769000391651,-0.9926758,-0.1484375,-0.0234375,-28.137207,-12.207031,3.1738281,0.0,0.0,0.0,-86.58325,79.974976,-172.73804
1769000391663,-0.9926758,-0.1484375,-0.0234375,-28.137207,-12.207031,3.1738281,0.0,0.0,0.0,-79.35974,80.29358,-162.99866
1769000391751,-1.0332031,-0.083496094,-0.122558594,-35.7666,-3.4179688,-0.18310547,0.0,0.0,0.0,-79.35974,80.29358,-162.99866
1769000391763,-1.0332031,-0.083496094,-0.122558594,-35.7666,-3.4179688,-0.18310547,0.0,0.0,0.0,-78.80493,80.28259,-158.81836
1769000391851,-1.2617188,-0.07373047,0.19628906,-17.211914,-5.3100586,5.065918,0.0,0.0,0.0,-78.80493,80.28259,-158.81836
1769000391862,-1.2617188,-0.07373047,0.19628906,-17.211914,-5.3100586,5.065918,0.0,0.0,0.0,-83.13904,80.64514,-160.59814
1769000391950,-0.6845703,-0.1430664,0.23339844,-12.634277,-7.873535,17.028809,0.0,0.0,0.0,-83.13904,80.64514,-160.59814
1769000391962,-0.6845703,-0.1430664,0.23339844,-12.634277,-7.873535,17.028809,0.0,0.0,0.0,-76.81641,81.97449,-153.29224
1769000392050,-0.9194336,-0.068359375,-0.024414062,32.348633,5.3710938,-4.760742,0.0,0.0,0.0,-76.81641,81.97449,-153.29224
1769000392062,-0.9194336,-0.068359375,-0.024414062,32.348633,5.3710938,-4.760742,0.0,0.0,0.0,-70.98816,82.90283,-146.44775
1769000392150,-0.9213867,-0.20507812,0.06738281,-10.192871,-17.028809,11.962891,0.0,0.0,0.0,-70.98816,82.90283,-146.44775
1769000392161,-0.9213867,-0.20507812,0.06738281,-10.192871,-17.028809,11.962891,0.0,0.0,0.0,-59.468994,83.430176,-134.9231
1769000392250,-0.9741211,-0.18164062,-0.0078125,-22.521973,-23.986816,2.2583008,0.0,0.0,0.0,-59.468994,83.430176,-134.9231
1769000392261,-0.9741211,-0.18164062,-0.0078125,-22.521973,-23.986816,2.2583008,0.0,0.0,0.0,-43.90686,82.21619,-118.19641
1769000392349,-1.1196289,-0.037597656,-0.08544922,0.5493164,5.2490234,2.380371,0.0,0.0,0.0,-43.90686,82.21619,-118.19641
1769000392361,-1.1196289,-0.037597656,-0.08544922,0.5493164,5.2490234,2.380371,0.0,0.0,0.0,-42.269897,81.101074,-116.10901
1769000392449,-1.2319336,-0.140625,0.16113281,7.2631836,16.845703,-2.0751953,0.0,0.0,0.0,-42.269897,81.101074,-116.10901
1769000392460,-1.2319336,-0.140625,0.16113281,7.2631836,16.845703,-2.0751953,0.0,0.0,0.0,-56.398315,82.17224,-131.15479
1769000392549,-0.6875,-0.122558594,0.1430664,-10.375977,-10.131836,-19.53125,0.0,0.0,0.0,-56.398315,82.17224,-131.15479
1769000392560,-0.6875,-0.122558594,0.1430664,-10.375977,-10.131836,-19.53125,0.0,0.0,0.0,-60.545654,81.87012,-134.26941
1769000392648,-1.0869141,0.08935547,0.2529297,12.573242,-22.277832,-9.887695,0.0,0.0,0.0,-60.545654,81.87012,-134.26941
1769000392660,-1.0869141,0.08935547,0.2529297,12.573242,-22.277832,-9.887695,0.0,0.0,0.0,-57.41455,79.73328,-131.4624
1769000392748,-0.93896484,-0.06689453,0.16015625,9.338379,-14.282227,-13.85498,0.0,0.0,0.0,-57.41455,79.73328,-131.4624
1769000392759,-0.93896484,-0.06689453,0.16015625,9.338379,-14.282227,-13.85498,0.0,0.0,0.0,-49.542847,78.12927,-123.96423
1769000392848,-0.95996094,-0.1381836,0.08935547,14.404297,6.7749023,-11.047363,0.0,0.0,0.0,-49.542847,78.12927,-123.96423
1769000392859,-0.95996094,-0.1381836,0.08935547,14.404297,6.7749023,-11.047363,0.0,0.0,0.0,-49.833984,77.33276,-125.37598
1769000392948,-1.0566406,-0.22705078,0.099121094,-7.873535,5.92041,-1.0375977,0.0,0.0,0.0,-49.833984,77.33276,-125.37598
1769000392959,-1.0566406,-0.22705078,0.099121094,-7.873535,5.92041,-1.0375977,0.0,0.0,0.0,-52.822266,77.71179,-128.82568
1769000393047,-1.0996094,-0.12695312,-0.06591797,-3.4179688,27.282715,-7.3242188,0.0,0.0,0.0,-52.822266,77.71179,-128.82568
1769000393059,-1.0996094,-0.12695312,-0.06591797,-3.4179688,27.282715,-7.3242188,0.0,0.0,0.0,-64.50073,78.15674,-140.36133
1769000393147,-0.9301758,-0.1484375,0.26367188,22.277832,15.686035,8.728027,0.0,0.0,0.0,-64.50073,78.15674,-140.36133
1769000393159,-0.9301758,-0.1484375,0.26367188,22.277832,15.686035,8.728027,0.0,0.0,0.0,-76.278076,79.107056,-153.59985
1769000393247,-0.83251953,-0.21044922,0.20166016,0.24414062,0.6713867,15.50293,0.0,0.0,0.0,-76.278076,79.107056,-153.59985
1769000393258,-0.83251953,-0.21044922,0.20166016,0.24414062,0.6713867,15.50293,0.0,0.0,0.0,-74.26758,80.24414,-151.77612
1769000393346,-0.91796875,-0.16845703,0.012207031,13.427734,-5.79834,13.244629,0.0,0.0,0.0,-74.26758,80.24414,-151.77612
1769000393358,-0.91796875,-0.16845703,0.012207031,13.427734,-5.79834,13.244629,0.0,0.0,0.0,-67.456055,81.44714,-144.68445
1769000393446,-0.9916992,-0.23876953,0.07324219,-5.2490234,-21.78955,17.39502,0.0,0.0,0.0,-67.456055,81.44714,-144.68445
1769000393457,-0.9916992,-0.23876953,0.07324219,-5.2490234,-21.78955,17.39502,0.0,0.0,0.0,-55.14038,81.95801,-132.58301
1769000393546,-1.0053711,-0.0703125,0.036132812,1.7089844,-14.343262,2.746582,0.0,0.0,0.0,-55.14038,81.95801,-132.58301
1769000393557,-1.0053711,-0.0703125,0.036132812,1.7089844,-14.343262,2.746582,0.0,0.0,0.0,-45.197754,80.83191,-122.53052
1769000393645,-1.0917969,-0.1875,-0.0087890625,8.728027,7.6293945,-3.112793,0.0,0.0,0.0,-45.197754,80.83191,-122.53052
1769000393657,-1.0917969,-0.1875,-0.0087890625,8.728027,7.6293945,-3.112793,0.0,0.0,0.0,-42.994995,80.66162,-120.78369
1769000393745,-1.2431641,-0.20751953,-4.8828125E-4,3.479004,30.151367,-9.70459,0.0,0.0,0.0,-42.994995,80.66162,-120.78369
1769000393757,-1.2431641,-0.20751953,-4.8828125E-4,3.479004,30.151367,-9.70459,0.0,0.0,0.0,-56.23352,81.1615,-134.6759
1769000393845,-0.7524414,-0.025878906,0.1430664,-5.1879883,-5.004883,-12.329102,0.0,0.0,0.0,-56.23352,81.1615,-134.6759
1769000393856,-0.7524414,-0.025878906,0.1430664,-5.1879883,-5.004883,-12.329102,0.0,0.0,0.0,-69.29077,80.73303,-148.0188
1769000393945,-1.1005859,0.017089844,0.017578125,43.45703,16.967773,-26.184082,0.0,0.0,0.0,-69.29077,80.73303,-148.0188
1769000393957,-1.1005859,0.017089844,0.017578125,43.45703,16.967773,-26.184082,0.0,0.0,0.0,-68.98865,79.66736,-148.78235
1769000394044,-0.86572266,-0.1928711,0.10253906,-5.2490234,-25.024414,-5.432129,0.0,0.0,0.0,-68.98865,79.66736,-148.78235
1769000394056,-0.86572266,-0.1928711,0.10253906,-5.2490234,-25.024414,-5.432129,0.0,0.0,0.0,-66.52222,78.64014,-148.32092
1769000394144,-0.9482422,-0.14013672,0.08300781,5.7373047,-13.183594,-5.6152344,0.0,0.0,0.0,-66.52222,78.64014,-148.32092
1769000394155,-0.9482422,-0.14013672,0.08300781,5.7373047,-13.183594,-5.6152344,0.0,0.0,0.0,-59.80957,77.16797,-141.65222
1769000394244,-1.0654297,-0.18896484,0.07324219,-6.225586,-4.699707,-0.4272461,0.0,0.0,0.0,-59.80957,77.16797,-141.65222
1769000394255,-1.0654297,-0.18896484,0.07324219,-6.225586,-4.699707,-0.4272461,0.0,0.0,0.0,-56.618042,76.82739,-138.0542
1769000394343,-1.0888672,-0.21972656,-0.017578125,-12.573242,13.85498,-3.90625,0.0,0.0,0.0,-56.618042,76.82739,-138.0542
1769000394355,-1.0888672,-0.21972656,-0.017578125,-12.573242,13.85498,-3.90625,0.0,0.0,0.0,-59.820557,77.041626,-140.36133
1769000394443,-0.96777344,-0.08935547,0.21777344,16.540527,13.793945,11.59668,0.0,0.0,0.0,-59.820557,77.041626,-140.36133
1769000394455,-0.96777344,-0.08935547,0.21777344,16.540527,13.793945,11.59668,0.0,0.0,0.0,-67.8241,77.821655,-148.47473
1769000394543,-0.83496094,-0.23876953,0.31201172,-2.9907227,-0.6713867,18.371582,0.0,0.0,0.0,-67.8241,77.821655,-148.47473
1769000394554,-0.83496094,-0.23876953,0.31201172,-2.9907227,-0.6713867,18.371582,0.0,0.0,0.0,-65.03906,79.50806,-146.1731
1769000394642,-0.90283203,-0.14111328,0.063964844,10.314941,-6.958008,11.657715,0.0,0.0,0.0,-65.03906,79.50806,-146.1731
1769000394654,-0.90283203,-0.14111328,0.063964844,10.314941,-6.958008,11.657715,0.0,0.0,0.0,-54.66797,80.354004,-135.18127
1769000394742,-0.96484375,-0.2548828,0.13378906,-3.1738281,-14.465332,6.4697266,0.0,0.0,0.0,-54.66797,80.354004,-135.18127
1769000394754,-0.96484375,-0.2548828,0.13378906,-3.1738281,-14.465332,6.4697266,0.0,0.0,0.0,-46.450195,80.3595,-127.22168
1769000394842,-1.0102539,-0.14697266,0.076660156,3.7841797,-2.8686523,-3.4179688,0.0,0.0,0.0,-46.450195,80.3595,-127.22168
1769000394853,-1.0102539,-0.14697266,0.076660156,3.7841797,-2.8686523,-3.4179688,0.0,0.0,0.0,-43.68164,79.46411,-124.3103
