timestamp,accX,accY,accZ,gyroX,gyroY,gyroZ,magX,magY,magZ,roll,pitch,yaw
1766901642729,-0.9458008,0.30664062,-0.14013672,124.63379,-55.908203,41.07666,0.0,0.0,0.0,142.94861,69.417114,160.40588
1766901642740,-0.9458008,0.30664062,-0.14013672,124.63379,-55.908203,41.07666,0.0,0.0,0.0,153.17688,65.390625,164.85535
1766901642829,-0.96484375,0.24414062,-0.34326172,48.217773,-49.37744,31.799316,0.0,0.0,0.0,153.17688,65.390625,164.85535
1766901642840,-0.96484375,0.24414062,-0.34326172,48.217773,-49.37744,31.799316,0.0,0.0,0.0,141.70166,68.56018,140.7898
1766901642928,-1.1054688,0.36572266,-0.31103516,-5.92041,18.310547,10.803223,0.0,0.0,0.0,141.70166,68.56018,140.7898
1766901642940,-1.1054688,0.36572266,-0.31103516,-5.92041,18.310547,10.803223,0.0,0.0,0.0,138.76282,68.19214,130.3418
1766901643028,-1.0004883,0.42333984,-0.27685547,-37.231445,-40.100098,0.0,0.0,0.0,0.0,138.76282,68.19214,130.3418
1766901643039,-1.0004883,0.42333984,-0.27685547,-37.231445,-40.100098,0.0,0.0,0.0,0.0,134.0387,68.67554,122.74475
1766901643128,-0.69628906,-0.19433594,-0.25732422,11.71875,-37.65869,-27.770996,0.0,0.0,0.0,134.0387,68.67554,122.74475
1766901643139,-0.69628906,-0.19433594,-0.25732422,11.71875,-37.65869,-27.770996,0.0,0.0,0.0,124.8761,71.4386,108.52844
1766901643229,-1.0961914,0.22363281,-0.47265625,16.296387,44.555664,27.46582,0.0,0.0,0.0,124.8761,71.4386,108.52844
1766901643239,-1.0961914,0.22363281,-0.47265625,16.296387,44.555664,27.46582,0.0,0.0,0.0,125.26611,72.20215,100.667725
1766901643328,-0.8852539,0.19873047,-0.08154297,-43.029785,128.78418,-15.258789,0.0,0.0,0.0,125.26611,72.20215,100.667725
1766901643339,-0.8852539,0.19873047,-0.08154297,-43.029785,128.78418,-15.258789,0.0,0.0,0.0,144.41528,64.21509,118.50403
1766901643427,-0.96191406,0.19091797,-0.14355469,-2.0141602,-48.950195,-11.962891,0.0,0.0,0.0,144.41528,64.21509,118.50403
1766901643438,-0.96191406,0.19091797,-0.14355469,-2.0141602,-48.950195,-11.962891,0.0,0.0,0.0,148.4198,63.380127,121.431885
1766901643526,-1.1191406,0.123535156,-0.40625,-21.728516,-35.705566,-19.53125,0.0,0.0,0.0,148.4198,63.380127,121.431885
1766901643538,-1.1191406,0.123535156,-0.40625,-21.728516,-35.705566,-19.53125,0.0,0.0,0.0,142.83875,69.55444,112.126465
1766901643626,-1.1723633,0.14892578,-0.23388672,-13.000488,10.925293,-7.446289,0.0,0.0,0.0,142.83875,69.55444,112.126465
1766901643638,-1.1723633,0.14892578,-0.23388672,-13.000488,10.925293,-7.446289,0.0,0.0,0.0,144.47571,70.059814,110.74219
1766901643726,-0.5078125,0.18945312,-0.100097656,46.38672,-71.04492,32.470703,0.0,0.0,0.0,144.47571,70.059814,110.74219
1766901643738,-0.5078125,0.18945312,-0.100097656,46.38672,-71.04492,32.470703,0.0,0.0,0.0,139.52637,71.466064,97.11365
1766901643826,-1.0517578,0.35888672,-0.6245117,33.26416,-41.931152,17.63916,0.0,0.0,0.0,139.52637,71.466064,97.11365
1766901643837,-1.0517578,0.35888672,-0.6245117,33.26416,-41.931152,17.63916,0.0,0.0,0.0,117.13623,74.66858,67.038574
1766901643926,-0.89746094,0.030273438,-0.29541016,-43.21289,145.38574,-51.02539,0.0,0.0,0.0,117.13623,74.66858,67.038574
1766901643937,-0.89746094,0.030273438,-0.29541016,-43.21289,145.38574,-51.02539,0.0,0.0,0.0,134.95605,71.883545,77.31079
1766901644025,-1.050293,0.1694336,0.27246094,49.37744,-42.907715,29.663086,0.0,0.0,0.0,134.95605,71.883545,77.31079
1766901644037,-1.050293,0.1694336,0.27246094,49.37744,-42.907715,29.663086,0.0,0.0,0.0,152.9187,64.80835,93.32886
1766901644125,-1.0004883,0.27148438,-0.31982422,30.029297,-65.42969,23.19336,0.0,0.0,0.0,152.9187,64.80835,93.32886
1766901644136,-1.0004883,0.27148438,-0.31982422,30.029297,-65.42969,23.19336,0.0,0.0,0.0,141.86096,69.1095,72.284546
1766901644224,-1.0771484,0.44091797,-0.32910156,-33.935547,7.385254,0.8544922,0.0,0.0,0.0,141.86096,69.1095,72.284546
1766901644236,-1.0771484,0.44091797,-0.32910156,-33.935547,7.385254,0.8544922,0.0,0.0,0.0,133.9508,70.944214,59.21631
1766901644324,-0.9165039,0.1665039,-0.19482422,-40.771484,-7.1411133,-16.540527,0.0,0.0,0.0,133.9508,70.944214,59.21631
1766901644336,-0.9165039,0.1665039,-0.19482422,-40.771484,-7.1411133,-16.540527,0.0,0.0,0.0,131.80298,71.12549,57.10144
1766901644424,-0.8261719,-0.21191406,-0.25585938,47.424316,-30.456543,-21.972656,0.0,0.0,0.0,131.80298,71.12549,57.10144
1766901644437,-0.8261719,-0.21191406,-0.25585938,47.424316,-30.456543,-21.972656,0.0,0.0,0.0,132.71484,73.723755,52.525635
1766901644524,-1.0068359,0.41748047,-0.39453125,30.395508,50.41504,54.016113,0.0,0.0,0.0,132.71484,73.723755,52.525635
1766901644535,-1.0068359,0.41748047,-0.39453125,30.395508,50.41504,54.016113,0.0,0.0,0.0,132.07214,72.20764,42.13257
1766901644623,-0.8666992,0.171875,-0.11328125,-30.761719,83.984375,-10.009766,0.0,0.0,0.0,132.07214,72.20764,42.13257
1766901644638,-0.8666992,0.171875,-0.11328125,-30.761719,83.984375,-10.009766,0.0,0.0,0.0,146.04126,65.76965,54.552612
1766901644723,-1.0551758,0.111328125,-0.18603516,-15.563965,-21.240234,-16.174316,0.0,0.0,0.0,146.04126,65.76965,54.552612
1766901644734,-1.0551758,0.111328125,-0.18603516,-15.563965,-21.240234,-16.174316,0.0,0.0,0.0,150.14465,63.945923,59.155884
1766901644823,-1.0976562,0.06542969,-0.30908203,-15.319824,-15.991211,-6.591797,0.0,0.0,0.0,150.14465,63.945923,59.155884
1766901644834,-1.0976562,0.06542969,-0.30908203,-15.319824,-15.991211,-6.591797,0.0,0.0,0.0,149.11194,68.323975,56.151123
1766901644923,-1.1831055,0.19384766,-0.18945312,32.714844,-64.819336,22.644043,0.0,0.0,0.0,149.11194,68.323975,56.151123
1766901644934,-1.1831055,0.19384766,-0.18945312,32.714844,-64.819336,22.644043,0.0,0.0,0.0,145.07446,70.42786,48.614502
1766901645023,-0.5644531,0.20361328,-0.24658203,9.643555,-91.674805,34.606934,0.0,0.0,0.0,145.07446,70.42786,48.614502
1766901645034,-0.5644531,0.20361328,-0.24658203,9.643555,-91.674805,34.606934,0.0,0.0,0.0,124.00818,73.93799,18.17688
1766901645124,-0.9868164,0.091796875,-0.6074219,34.42383,34.91211,13.73291,0.0,0.0,0.0,124.00818,73.93799,18.17688
1766901645134,-0.9868164,0.091796875,-0.6074219,34.42383,34.91211,13.73291,0.0,0.0,0.0,105.35339,75.025635,-6.223755
1766901645223,-1.0449219,0.1508789,-0.18457031,-45.410156,203.24707,-58.776855,0.0,0.0,0.0,105.35339,75.025635,-6.223755
1766901645233,-1.0449219,0.1508789,-0.18457031,-45.410156,203.24707,-58.776855,0.0,0.0,0.0,143.33313,68.99414,28.526001
1766901645321,-0.99316406,0.32958984,-0.19140625,74.401855,-56.518555,45.715332,0.0,0.0,0.0,143.33313,68.99414,28.526001
1766901645333,-0.99316406,0.32958984,-0.19140625,74.401855,-56.518555,45.715332,0.0,0.0,0.0,151.62231,66.19812,34.18396
1766901645421,-1.012207,0.35253906,-0.41748047,-0.36621094,-36.56006,7.507324,0.0,0.0,0.0,151.62231,66.19812,34.18396
1766901645432,-1.012207,0.35253906,-0.41748047,-0.36621094,-36.56006,7.507324,0.0,0.0,0.0,138.51013,70.40588,13.21106
1766901645521,-1.1035156,0.2680664,-0.26123047,-52.06299,25.878906,-11.474609,0.0,0.0,0.0,138.51013,70.40588,13.21106
1766901645532,-1.1035156,0.2680664,-0.26123047,-52.06299,25.878906,-11.474609,0.0,0.0,0.0,135.60425,70.2301,7.3443604
1766901645620,-0.85498047,0.056152344,-0.17675781,-18.310547,-12.268066,-17.76123,0.0,0.0,0.0,135.60425,70.2301,7.3443604
1766901645632,-0.85498047,0.056152344,-0.17675781,-18.310547,-12.268066,-17.76123,0.0,0.0,0.0,138.83972,70.65857,12.200317
1766901645720,-0.80566406,-0.080078125,-0.30859375,38.269043,-50.842285,-10.559082,0.0,0.0,0.0,138.83972,70.65857,12.200317
1766901645732,-0.80566406,-0.080078125,-0.30859375,38.269043,-50.842285,-10.559082,0.0,0.0,0.0,143.42651,74.59717,10.437012
1766901645820,-0.9008789,0.42529297,-0.35595703,-17.8833,70.617676,-31.00586,0.0,0.0,0.0,143.42651,74.59717,10.437012
1766901645832,-0.9008789,0.42529297,-0.35595703,-17.8833,70.617676,-31.00586,0.0,0.0,0.0,138.14758,72.81189,-3.0596924
1766901645920,-1.0273438,0.041992188,-0.14990234,-46.569824,98.93799,-35.949707,0.0,0.0,0.0,138.14758,72.81189,-3.0596924
1766901645931,-1.0273438,0.041992188,-0.14990234,-46.569824,98.93799,-35.949707,0.0,0.0,0.0,153.14941,65.34668,12.733154
1766901646019,-1.1328125,0.053710938,-0.061523438,-8.850098,-31.860352,-11.047363,0.0,0.0,0.0,153.14941,65.34668,12.733154
1766901646032,-1.1328125,0.053710938,-0.061523438,-8.850098,-31.860352,-11.047363,0.0,0.0,0.0,157.76917,63.742676,19.209595
1766901646119,-1.0595703,0.075683594,-0.3203125,13.977051,-57.800293,10.192871,0.0,0.0,0.0,157.76917,63.742676,19.209595
1766901646131,-1.0595703,0.075683594,-0.3203125,13.977051,-57.800293,10.192871,0.0,0.0,0.0,153.37463,69.801636,10.722656
1766901646219,-1.0786133,0.099609375,-0.29492188,33.38623,-32.77588,19.958496,0.0,0.0,0.0,153.37463,69.801636,10.722656
1766901646230,-1.0786133,0.099609375,-0.29492188,33.38623,-32.77588,19.958496,0.0,0.0,0.0,145.95337,72.65259,-3.0706787
1766901646319,-0.58740234,0.32470703,-0.22802734,-11.047363,-46.75293,29.23584,0.0,0.0,0.0,145.95337,72.65259,-3.0706787
1766901646330,-0.58740234,0.32470703,-0.22802734,-11.047363,-46.75293,29.23584,0.0,0.0,0.0,133.8794,74.52026,-20.945435
1766901646418,-0.9980469,-0.09863281,-0.46777344,37.231445,2.0141602,-14.465332,0.0,0.0,0.0,133.8794,74.52026,-20.945435
1766901646430,-0.9980469,-0.09863281,-0.46777344,37.231445,2.0141602,-14.465332,0.0,0.0,0.0,127.48535,75.805664,-31.931763
1766901646518,-1.0112305,0.1352539,-0.17871094,-24.169922,134.27734,-28.442383,0.0,0.0,0.0,127.48535,75.805664,-31.931763
1766901646531,-1.0112305,0.1352539,-0.17871094,-24.169922,134.27734,-28.442383,0.0,0.0,0.0,159.23035,69.971924,-1.4227295
1766901646618,-1.0058594,0.22363281,0.032714844,11.84082,7.9956055,19.226074,0.0,0.0,0.0,159.23035,69.971924,-1.4227295
1766901646630,-1.0058594,0.22363281,0.032714844,11.84082,7.9956055,19.226074,0.0,0.0,0.0,162.71301,64.30847,0.8514404
1766901646717,-1.1015625,0.15234375,-0.3491211,31.799316,-87.95166,25.817871,0.0,0.0,0.0,162.71301,64.30847,0.8514404
1766901646732,-1.1015625,0.15234375,-0.3491211,31.799316,-87.95166,25.817871,0.0,0.0,0.0,153.90747,70.44983,-13.952637
1766901646817,-1.0810547,0.29492188,-0.35595703,-33.325195,-12.329102,7.751465,0.0,0.0,0.0,153.90747,70.44983,-13.952637
1766901646832,-1.0810547,0.29492188,-0.35595703,-33.325195,-12.329102,7.751465,0.0,0.0,0.0,141.44348,73.33923,-30.333252
1766901646917,-0.77246094,-0.04736328,-0.22753906,-36.132812,14.343262,-18.005371,0.0,0.0,0.0,141.44348,73.33923,-30.333252
1766901646928,-0.77246094,-0.04736328,-0.22753906,-36.132812,14.343262,-18.005371,0.0,0.0,0.0,141.49292,73.635864,-29.404907
1766901647016,-0.90625,-0.0625,-0.31591797,20.385742,-3.112793,3.479004,0.0,0.0,0.0,141.49292,73.635864,-29.404907
1766901647028,-0.90625,-0.0625,-0.31591797,20.385742,-3.112793,3.479004,0.0,0.0,0.0,151.12244,74.08081,-25.9552
1766901647116,-0.84228516,0.2734375,-0.24658203,-18.859863,55.664062,-6.713867,0.0,0.0,0.0,151.12244,74.08081,-25.9552
1766901647128,-0.84228516,0.2734375,-0.24658203,-18.859863,55.664062,-6.713867,0.0,0.0,0.0,148.00232,69.53247,-35.837402
1766901647216,-0.98876953,0.092285156,-0.25683594,-27.282715,33.38623,-27.954102,0.0,0.0,0.0,148.00232,69.53247,-35.837402
1766901647227,-0.98876953,0.092285156,-0.25683594,-27.282715,33.38623,-27.954102,0.0,0.0,0.0,155.51147,66.6156,-29.66858
1766901647316,-1.109375,0.03515625,-0.2705078,-18.981934,-8.300781,-25.268555,0.0,0.0,0.0,155.51147,66.6156,-29.66858
1766901647327,-1.109375,0.03515625,-0.2705078,-18.981934,-8.300781,-25.268555,0.0,0.0,0.0,161.09253,66.64307,-23.724976
1766901647415,-1.0834961,0.087402344,-0.21923828,-6.8359375,-19.042969,-6.5307617,0.0,0.0,0.0,161.09253,66.64307,-23.724976
1766901647431,-1.0834961,0.087402344,-0.21923828,-6.8359375,-19.042969,-6.5307617,0.0,0.0,0.0,161.81213,68.97766,-24.971924
1766901647515,-0.8833008,0.07763672,-0.22167969,24.536133,-52.978516,12.329102,0.0,0.0,0.0,161.81213,68.97766,-24.971924
1766901647526,-0.8833008,0.07763672,-0.22167969,24.536133,-52.978516,12.329102,0.0,0.0,0.0,157.20337,72.872314,-34.53003
1766901647615,-0.8642578,0.28125,-0.4658203,-7.080078,-71.5332,-6.4697266,0.0,0.0,0.0,157.20337,72.872314,-34.53003
1766901647626,-0.8642578,0.28125,-0.4658203,-7.080078,-71.5332,-6.4697266,0.0,0.0,0.0,138.16956,77.41516,-58.16162
1766901647716,-0.8769531,-0.10595703,-0.38867188,-13.85498,77.0874,-41.503906,0.0,0.0,0.0,138.16956,77.41516,-58.16162
1766901647726,-0.8769531,-0.10595703,-0.38867188,-13.85498,77.0874,-41.503906,0.0,0.0,0.0,142.63,77.22839,-57.870483
1766901647814,-1.0722656,0.10253906,-0.10595703,-24.597168,113.220215,-24.963379,0.0,0.0,0.0,142.63,77.22839,-57.870483
1766901647826,-1.0722656,0.10253906,-0.10595703,-24.597168,113.220215,-24.963379,0.0,0.0,0.0,169.3103,66.35742,-29.328003
1766901647914,-1.0375977,0.15332031,-0.09375,30.334473,-49.37744,18.127441,0.0,0.0,0.0,169.3103,66.35742,-29.328003
1766901647925,-1.0375977,0.15332031,-0.09375,30.334473,-49.37744,18.127441,0.0,0.0,0.0,170.98572,64.42932,-30.025635
1766901648014,-1.0820312,0.18457031,-0.4033203,12.573242,-83.862305,31.982422,0.0,0.0,0.0,170.98572,64.42932,-30.025635
1766901648025,-1.0820312,0.18457031,-0.4033203,12.573242,-83.862305,31.982422,0.0,0.0,0.0,159.79614,73.13599,-47.521362
1766901648115,-1.0385742,0.09375,-0.35498047,-46.203613,-5.79834,-13.549805,0.0,0.0,0.0,159.79614,73.13599,-47.521362
1766901648125,-1.0385742,0.09375,-0.35498047,-46.203613,-5.79834,-13.549805,0.0,0.0,0.0,149.2273,75.83862,-59.61731
1766901648214,-0.74072266,-0.23730469,-0.234375,9.70459,5.859375,-17.63916,0.0,0.0,0.0,149.2273,75.83862,-59.61731
1766901648225,-0.74072266,-0.23730469,-0.234375,9.70459,5.859375,-17.63916,0.0,0.0,0.0,152.49573,75.563965,-58.381348
1766901648313,-0.98535156,0.140625,-0.3852539,22.766113,21.30127,25.32959,0.0,0.0,0.0,152.49573,75.563965,-58.381348
1766901648326,-0.98535156,0.140625,-0.3852539,22.766113,21.30127,25.32959,0.0,0.0,0.0,158.96118,74.83887,-58.634033
1766901648413,-0.8227539,0.27197266,-0.1977539,-26.184082,68.359375,-14.587402,0.0,0.0,0.0,158.96118,74.83887,-58.634033
1766901648424,-0.8227539,0.27197266,-0.1977539,-26.184082,68.359375,-14.587402,0.0,0.0,0.0,158.19214,68.80188,-63.286743
1766901648512,-1.1308594,-0.0034179688,-0.20654297,-31.188965,13.244629,-41.870117,0.0,0.0,0.0,158.19214,68.80188,-63.286743
1766901648524,-1.1308594,-0.0034179688,-0.20654297,-31.188965,13.244629,-41.870117,0.0,0.0,0.0,164.52576,65.67078,-55.67871
1766901648612,-1.0327148,-0.0078125,-0.26513672,7.873535,-45.410156,6.958008,0.0,0.0,0.0,164.52576,65.67078,-55.67871
1766901648623,-1.0327148,-0.0078125,-0.26513672,7.873535,-45.410156,6.958008,0.0,0.0,0.0,168.40942,68.91724,-53.30017
1766901648712,-1.1518555,0.09375,-0.26904297,-13.73291,-20.385742,-6.652832,0.0,0.0,0.0,168.40942,68.91724,-53.30017
1766901648723,-1.1518555,0.09375,-0.26904297,-13.73291,-20.385742,-6.652832,0.0,0.0,0.0,166.38794,72.46582,-58.601074
1766901648811,-0.71972656,0.083984375,-0.2133789,23.07129,-53.833008,17.456055,0.0,0.0,0.0,166.38794,72.46582,-58.601074
1766901648823,-0.71972656,0.083984375,-0.2133789,23.07129,-53.833008,17.456055,0.0,0.0,0.0,162.43286,75.41016,-66.73645
1766901648911,-0.9428711,0.21044922,-0.5053711,14.770508,-49.682617,5.004883,0.0,0.0,0.0,162.43286,75.41016,-66.73645
1766901648923,-0.9428711,0.21044922,-0.5053711,14.770508,-49.682617,5.004883,0.0,0.0,0.0,141.55334,79.019165,-92.25769
1766901649011,-0.84472656,-0.11669922,-0.32470703,-28.808594,104.30908,-56.640625,0.0,0.0,0.0,141.55334,79.019165,-92.25769
1766901649022,-0.84472656,-0.11669922,-0.32470703,-28.808594,104.30908,-56.640625,0.0,0.0,0.0,158.15918,77.145996,-78.31055
1766901649110,-1.1601562,0.05517578,-0.080078125,0.91552734,82.70264,-13.122559,0.0,0.0,0.0,158.15918,77.145996,-78.31055
1766901649122,-1.1601562,0.05517578,-0.080078125,0.91552734,82.70264,-13.122559,0.0,0.0,0.0,176.2207,65.78613,-59.106445
1766901649210,-1.0078125,0.14208984,-0.14941406,47.729492,-74.34082,35.03418,0.0,0.0,0.0,176.2207,65.78613,-59.106445
1766901649222,-1.0078125,0.14208984,-0.14941406,47.729492,-74.34082,35.03418,0.0,0.0,0.0,175.86914,65.67627,-64.24805
1766901649310,-1.0302734,0.17919922,-0.42041016,15.136719,-55.41992,25.57373,0.0,0.0,0.0,175.86914,65.67627,-64.24805
1766901649324,-1.0302734,0.17919922,-0.42041016,15.136719,-55.41992,25.57373,0.0,0.0,0.0,166.15723,74.52576,-81.47461
1766901649410,-1.0634766,0.046875,-0.28808594,-49.01123,16.418457,-18.554688,0.0,0.0,0.0,166.15723,74.52576,-81.47461
1766901649421,-1.0634766,0.046875,-0.28808594,-49.01123,16.418457,-18.554688,0.0,0.0,0.0,160.22461,75.20691,-89.2749
1766901649509,-0.73583984,-0.16455078,-0.2265625,20.935059,-27.34375,12.145996,0.0,0.0,0.0,160.22461,75.20691,-89.2749
1766901649524,-0.73583984,-0.16455078,-0.2265625,20.935059,-27.34375,12.145996,0.0,0.0,0.0,158.92822,75.22888,-92.34009
1766901649609,-1.0024414,0.10107422,-0.45458984,22.216797,5.6762695,22.583008,0.0,0.0,0.0,158.92822,75.22888,-92.34009
1766901649621,-1.0024414,0.10107422,-0.45458984,22.216797,5.6762695,22.583008,0.0,0.0,0.0,154.75342,76.8219,-104.65576
1766901649710,-0.85791016,0.24316406,-0.22607422,-24.841309,88.50098,-16.479492,0.0,0.0,0.0,154.75342,76.8219,-104.65576
1766901649721,-0.85791016,0.24316406,-0.22607422,-24.841309,88.50098,-16.479492,0.0,0.0,0.0,156.98914,70.96619,-107.96265
1766901649809,-1.0620117,-0.0048828125,-0.13964844,-23.31543,34.79004,-32.104492,0.0,0.0,0.0,156.98914,70.96619,-107.96265
1766901649821,-1.0620117,-0.0048828125,-0.13964844,-23.31543,34.79004,-32.104492,0.0,0.0,0.0,166.00891,64.643555,-97.70691
1766901649909,-1.0844727,0.0625,-0.2705078,14.770508,-67.44385,5.92041,0.0,0.0,0.0,166.00891,64.643555,-97.70691
1766901649920,-1.0844727,0.0625,-0.2705078,14.770508,-67.44385,5.92041,0.0,0.0,0.0,169.11255,67.1814,-96.17981
1766901650008,-1.1435547,0.078125,-0.30029297,-10.375977,-19.226074,-5.065918,0.0,0.0,0.0,169.11255,67.1814,-96.17981
1766901650020,-1.1435547,0.078125,-0.30029297,-10.375977,-19.226074,-5.065918,0.0,0.0,0.0,165.09155,72.26257,-103.76587
1766901650108,-0.7495117,0.05810547,-0.19238281,28.930664,-50.1709,16.174316,0.0,0.0,0.0,165.09155,72.26257,-103.76587
1766901650119,-0.7495117,0.05810547,-0.19238281,28.930664,-50.1709,16.174316,0.0,0.0,0.0,161.82312,74.44336,-111.297
1766901650208,-0.92285156,0.25585938,-0.53222656,12.634277,-71.41113,4.3945312,0.0,0.0,0.0,161.82312,74.44336,-111.297
1766901650219,-0.92285156,0.25585938,-0.53222656,12.634277,-71.41113,4.3945312,0.0,0.0,0.0,138.73535,78.84888,-139.79004
1766901650307,-0.9770508,-0.15673828,-0.4375,-11.352539,72.69287,-39.30664,0.0,0.0,0.0,138.73535,78.84888,-139.79004
1766901650319,-0.9770508,-0.15673828,-0.4375,-11.352539,72.69287,-39.30664,0.0,0.0,0.0,147.14539,78.39844,-135.0055
1766901650407,-1.0288086,0.05517578,-0.07470703,-26.489258,128.41797,-29.47998,0.0,0.0,0.0,147.14539,78.39844,-135.0055
1766901650418,-1.0288086,0.05517578,-0.07470703,-26.489258,128.41797,-29.47998,0.0,0.0,0.0,173.99597,66.154175,-105.858765
1766901650507,-1.0063477,0.12451172,-0.122558594,53.28369,-68.66455,23.254395,0.0,0.0,0.0,173.99597,66.154175,-105.858765
1766901650518,-1.0063477,0.12451172,-0.122558594,53.28369,-68.66455,23.254395,0.0,0.0,0.0,176.2262,66.06079,-107.29797
1766901650606,-1.0986328,0.21972656,-0.45898438,28.625488,-86.30371,41.381836,0.0,0.0,0.0,176.2262,66.06079,-107.29797
1766901650618,-1.0986328,0.21972656,-0.45898438,28.625488,-86.30371,41.381836,0.0,0.0,0.0,162.58118,76.398926,-129.52881
1766901650706,-1.078125,0.11279297,-0.30078125,-67.50488,44.37256,-23.80371,0.0,0.0,0.0,162.58118,76.398926,-129.52881
1766901650718,-1.078125,0.11279297,-0.30078125,-67.50488,44.37256,-23.80371,0.0,0.0,0.0,156.52222,75.981445,-137.10388
1766901650806,-0.71191406,-0.13330078,-0.13720703,-10.070801,-7.507324,-7.1411133,0.0,0.0,0.0,156.52222,75.981445,-137.10388
1766901650818,-0.71191406,-0.13330078,-0.13720703,-10.070801,-7.507324,-7.1411133,0.0,0.0,0.0,162.46582,74.66858,-130.67139
1766901650906,-1.0283203,-0.10888672,-0.38916016,24.047852,-31.921387,7.019043,0.0,0.0,0.0,162.46582,74.66858,-130.67139
1766901650917,-1.0283203,-0.10888672,-0.38916016,24.047852,-31.921387,7.019043,0.0,0.0,0.0,162.60315,77.34375,-138.57056
1766901651005,-0.8208008,0.2548828,-0.24316406,3.2348633,67.07764,29.541016,0.0,0.0,0.0,162.60315,77.34375,-138.57056
1766901651017,-0.8208008,0.2548828,-0.24316406,3.2348633,67.07764,29.541016,0.0,0.0,0.0,158.68103,73.21289,-150.28748
1766901651105,-1.0576172,0.03515625,-0.1850586,-14.587402,52.4292,-29.785156,0.0,0.0,0.0,158.68103,73.21289,-150.28748
1766901651116,-1.0576172,0.03515625,-0.1850586,-14.587402,52.4292,-29.785156,0.0,0.0,0.0,166.61865,67.1759,-144.10767
1766901651205,-1.0820312,0.049804688,-0.21289062,-14.526367,-31.37207,-9.033203,0.0,0.0,0.0,166.61865,67.1759,-144.10767
1766901651216,-1.0820312,0.049804688,-0.21289062,-14.526367,-31.37207,-9.033203,0.0,0.0,0.0,169.42566,68.4668,-141.56982
1766901651304,-1.1958008,0.040527344,-0.30371094,-9.82666,-41.931152,-5.9814453,0.0,0.0,0.0,169.42566,68.4668,-141.56982
1766901651316,-1.1958008,0.040527344,-0.30371094,-9.82666,-41.931152,-5.9814453,0.0,0.0,0.0,168.93677,73.25134,-143.73962
1766901651404,-0.7807617,0.009765625,-0.18164062,21.240234,-34.179688,14.160156,0.0,0.0,0.0,168.93677,73.25134,-143.73962
1766901651416,-0.7807617,0.009765625,-0.18164062,21.240234,-34.179688,14.160156,0.0,0.0,0.0,162.13623,75.94849,-155.18188
1766901651504,-0.8227539,0.18115234,-0.3779297,12.329102,-58.654785,13.000488,0.0,0.0,0.0,162.13623,75.94849,-155.18188
1766901651515,-0.8227539,0.18115234,-0.3779297,12.329102,-58.654785,13.000488,0.0,0.0,0.0,145.06897,79.46411,-177.16003
1766901651603,-1.0009766,-0.08642578,-0.45654297,0.36621094,84.16748,-32.77588,0.0,0.0,0.0,145.06897,79.46411,-177.16003
1766901651617,-1.0009766,-0.08642578,-0.45654297,0.36621094,84.16748,-32.77588,0.0,0.0,0.0,153.11646,78.82141,-173.8092
1766901651703,-1.0595703,0.12841797,-0.084472656,-8.239746,124.20654,-15.74707,0.0,0.0,0.0,153.11646,78.82141,-173.8092
1766901651717,-1.0595703,0.12841797,-0.084472656,-8.239746,124.20654,-15.74707,0.0,0.0,0.0,174.24316,66.07178,-152.5232
1766901651803,-0.97314453,0.096191406,-0.20361328,70.129395,-69.82422,44.49463,0.0,0.0,0.0,174.24316,66.07178,-152.5232
1766901651814,-0.97314453,0.096191406,-0.20361328,70.129395,-69.82422,44.49463,0.0,0.0,0.0,173.62244,66.83533,-159.39514
1766901651904,-1.1201172,0.31933594,-0.41210938,13.000488,-49.438477,43.273926,0.0,0.0,0.0,173.62244,66.83533,-159.39514
1766901651914,-1.1201172,0.31933594,-0.41210938,13.000488,-49.438477,43.273926,0.0,0.0,0.0,160.76294,73.46008,178.97278
1766901652002,-1.0976562,0.20214844,-0.28955078,-48.706055,-8.178711,-2.380371,0.0,0.0,0.0,160.76294,73.46008,178.97278
1766901652014,-1.0976562,0.20214844,-0.28955078,-48.706055,-8.178711,-2.380371,0.0,0.0,0.0,147.91992,74.328,163.6908
1766901652102,-0.73876953,-0.032714844,-0.17919922,-28.747559,-27.282715,-1.4648438,0.0,0.0,0.0,147.91992,74.328,163.6908
1766901652113,-0.73876953,-0.032714844,-0.17919922,-28.747559,-27.282715,-1.4648438,0.0,0.0,0.0,139.61426,75.75073,155.7312
1766901652202,-0.8857422,-0.17138672,-0.33935547,25.512695,-24.475098,-0.4272461,0.0,0.0,0.0,139.61426,75.75073,155.7312
1766901652214,-0.8857422,-0.17138672,-0.33935547,25.512695,-24.475098,-0.4272461,0.0,0.0,0.0,136.21399,78.568726,145.59082
1766901652302,-0.921875,0.33496094,-0.27539062,-4.4555664,94.36035,35.64453,0.0,0.0,0.0,136.21399,78.568726,145.59082
1766901652313,-0.921875,0.33496094,-0.27539062,-4.4555664,94.36035,35.64453,0.0,0.0,0.0,142.93213,73.21838,145.32166
1766901652402,-0.97802734,0.18017578,-0.016113281,-20.507812,74.8291,-4.333496,0.0,0.0,0.0,142.93213,73.21838,145.32166
1766901652413,-0.97802734,0.18017578,-0.016113281,-20.507812,74.8291,-4.333496,0.0,0.0,0.0,155.63782,64.70947,157.70874
1766901652501,-1.0849609,0.12109375,-0.25683594,-9.338379,-58.71582,-11.108398,0.0,0.0,0.0,155.63782,64.70947,157.70874
1766901652512,-1.0849609,0.12109375,-0.25683594,-9.338379,-58.71582,-11.108398,0.0,0.0,0.0,153.10547,66.99463,154.84131
1766901652601,-1.0483398,0.072265625,-0.31103516,-20.629883,-6.0424805,-10.375977,0.0,0.0,0.0,153.10547,66.99463,154.84131
1766901652612,-1.0483398,0.072265625,-0.31103516,-20.629883,-6.0424805,-10.375977,0.0,0.0,0.0,149.99634,71.83411,150.01831
1766901652700,-1.1303711,0.08154297,-0.12109375,26.794434,-27.770996,16.662598,0.0,0.0,0.0,149.99634,71.83411,150.01831
1766901652712,-1.1303711,0.08154297,-0.12109375,26.794434,-27.770996,16.662598,0.0,0.0,0.0,150.27649,72.317505,147.83752
1766901652800,-0.68115234,0.30859375,-0.2421875,10.253906,-96.069336,45.10498,0.0,0.0,0.0,150.27649,72.317505,147.83752
1766901652811,-0.68115234,0.30859375,-0.2421875,10.253906,-96.069336,45.10498,0.0,0.0,0.0,129.50684,75.95947,118.54797
1766901652900,-0.98828125,-0.05078125,-0.5073242,30.700684,22.460938,4.8828125,0.0,0.0,0.0,129.50684,75.95947,118.54797
1766901652912,-0.98828125,-0.05078125,-0.5073242,30.700684,22.460938,4.8828125,0.0,0.0,0.0,109.434814,77.16797,93.619995
1766901652999,-0.98535156,0.1586914,-0.10498047,-34.484863,177.18506,-43.45703,0.0,0.0,0.0,109.434814,77.16797,93.619995
1766901653011,-0.98535156,0.1586914,-0.10498047,-34.484863,177.18506,-43.45703,0.0,0.0,0.0,152.05078,71.103516,135.51086
1766901653099,-1.0078125,0.2265625,-0.1015625,84.77783,-54.626465,32.592773,0.0,0.0,0.0,152.05078,71.103516,135.51086
1766901653111,-1.0078125,0.2265625,-0.1015625,84.77783,-54.626465,32.592773,0.0,0.0,0.0,159.57642,66.813354,140.48767
1766901653199,-1.1035156,0.32128906,-0.39648438,31.982422,-76.84326,42.907715,0.0,0.0,0.0,159.57642,66.813354,140.48767
1766901653210,-1.1035156,0.32128906,-0.39648438,31.982422,-76.84326,42.907715,0.0,0.0,0.0,142.97607,72.58667,113.48328
1766901653299,-1.043457,0.27001953,-0.2866211,-37.841797,9.460449,4.638672,0.0,0.0,0.0,142.97607,72.58667,113.48328
1766901653310,-1.043457,0.27001953,-0.2866211,-37.841797,9.460449,4.638672,0.0,0.0,0.0,130.92407,73.11401,96.82251
1766901653398,-0.7626953,-0.032226562,-0.1484375,-24.047852,0.24414062,-14.953613,0.0,0.0,0.0,130.92407,73.11401,96.82251
1766901653410,-0.7626953,-0.032226562,-0.1484375,-24.047852,0.24414062,-14.953613,0.0,0.0,0.0,133.58826,72.839355,99.5636
1766901653498,-0.95458984,-0.072265625,-0.31640625,20.202637,-23.254395,-0.7324219,0.0,0.0,0.0,133.58826,72.839355,99.5636
1766901653510,-0.95458984,-0.072265625,-0.31640625,20.202637,-23.254395,-0.7324219,0.0,0.0,0.0,137.36206,75.36072,96.99829
1766901653598,-0.78466797,0.3623047,-0.25390625,-15.380859,68.29834,-10.009766,0.0,0.0,0.0,137.36206,75.36072,96.99829
1766901653609,-0.78466797,0.3623047,-0.25390625,-15.380859,68.29834,-10.009766,0.0,0.0,0.0,135.60974,71.87256,86.91284
1766901653697,-1.0249023,0.12158203,-0.1616211,-20.324707,73.12012,-12.878418,0.0,0.0,0.0,135.60974,71.87256,86.91284
1766901653709,-1.0249023,0.12158203,-0.1616211,-20.324707,73.12012,-12.878418,0.0,0.0,0.0,147.15637,65.93445,97.16858
1766901653797,-1.1533203,0.14794922,-0.19238281,-13.977051,-31.00586,-8.972168,0.0,0.0,0.0,147.15637,65.93445,97.16858
1766901653812,-1.1533203,0.14794922,-0.19238281,-13.977051,-31.00586,-8.972168,0.0,0.0,0.0,150.21057,64.63257,100.2832
1766901653897,-1.0947266,0.16601562,-0.27734375,-4.638672,-40.527344,3.540039,0.0,0.0,0.0,150.21057,64.63257,100.2832
1766901653908,-1.0947266,0.16601562,-0.27734375,-4.638672,-40.527344,3.540039,0.0,0.0,0.0,144.7998,69.28528,92.26868
1766901653996,-0.7988281,0.18310547,-0.1899414,36.132812,-59.936523,27.160645,0.0,0.0,0.0,144.7998,69.28528,92.26868
1766901654008,-0.7988281,0.18310547,-0.1899414,36.132812,-59.936523,27.160645,0.0,0.0,0.0,134.62097,72.020874,76.448364
1766901654097,-0.85595703,0.46484375,-0.44970703,-3.112793,-34.973145,1.4648438,0.0,0.0,0.0,134.62097,72.020874,76.448364
1766901654108,-0.85595703,0.46484375,-0.44970703,-3.112793,-34.973145,1.4648438,0.0,0.0,0.0,118.4436,74.40491,54.86023
1766901654197,-0.91308594,-0.091796875,-0.31103516,-26.733398,88.62305,-55.603027,0.0,0.0,0.0,118.4436,74.40491,54.86023
1766901654208,-0.91308594,-0.091796875,-0.31103516,-26.733398,88.62305,-55.603027,0.0,0.0,0.0,125.10132,73.32825,55.651245
1766901654296,-1.0283203,0.21777344,0.016601562,12.268066,56.030273,-13.48877,0.0,0.0,0.0,125.10132,73.32825,55.651245
1766901654307,-1.0283203,0.21777344,0.016601562,12.268066,56.030273,-13.48877,0.0,0.0,0.0,154.08325,67.961426,83.71582
1766901654396,-0.9892578,0.37597656,-0.22216797,46.447754,-46.75293,51.757812,0.0,0.0,0.0,154.08325,67.961426,83.71582
1766901654407,-0.9892578,0.37597656,-0.22216797,46.447754,-46.75293,51.757812,0.0,0.0,0.0,154.08875,68.01636,77.492065
1766901654495,-1.0439453,0.28857422,-0.24804688,-7.1411133,-14.953613,18.066406,0.0,0.0,0.0,154.08875,68.01636,77.492065
1766901654507,-1.0439453,0.28857422,-0.24804688,-7.1411133,-14.953613,18.066406,0.0,0.0,0.0,142.27844,69.87305,60.045776
1766901654595,-1.0385742,0.33642578,-0.17773438,-40.100098,-40.039062,-11.352539,0.0,0.0,0.0,142.27844,69.87305,60.045776
1766901654606,-1.0385742,0.33642578,-0.17773438,-40.100098,-40.039062,-11.352539,0.0,0.0,0.0,134.39575,71.52649,51.992798
1766901654694,-0.85839844,0.13183594,-0.3334961,-37.231445,-53.100586,-6.713867,0.0,0.0,0.0,134.39575,71.52649,51.992798
1766901654706,-0.85839844,0.13183594,-0.3334961,-37.231445,-53.100586,-6.713867,0.0,0.0,0.0,114.70276,75.305786,33.272095
1766901654794,-0.7949219,-0.22705078,-0.3173828,15.74707,17.39502,-36.743164,0.0,0.0,0.0,114.70276,75.305786,33.272095
1766901654806,-0.7949219,-0.22705078,-0.3173828,15.74707,17.39502,-36.743164,0.0,0.0,0.0,117.82837,78.09631,31.591187
1766901654894,-1.1049805,0.40429688,-0.34423828,29.47998,85.510254,39.367676,0.0,0.0,0.0,117.82837,78.09631,31.591187
1766901654905,-1.1049805,0.40429688,-0.34423828,29.47998,85.510254,39.367676,0.0,0.0,0.0,137.36755,72.784424,43.8739
1766901654994,-1.0771484,0.30273438,0.41748047,-46.99707,41.381836,1.2207031,0.0,0.0,0.0,137.36755,72.784424,43.8739
1766901655005,-1.0771484,0.30273438,0.41748047,-46.99707,41.381836,1.2207031,0.0,0.0,0.0,148.68347,64.72595,56.651
1766901655093,-0.95654297,0.19873047,-0.30859375,-29.846191,-41.809082,-5.554199,0.0,0.0,0.0,148.68347,64.72595,56.651
1766901655106,-0.95654297,0.19873047,-0.30859375,-29.846191,-41.809082,-5.554199,0.0,0.0,0.0,143.80005,68.829346,51.740112
1766901655193,-1.184082,0.037597656,-0.31835938,-27.526855,32.53174,-40.405273,0.0,0.0,0.0,143.80005,68.829346,51.740112
1766901655205,-1.184082,0.037597656,-0.31835938,-27.526855,32.53174,-40.405273,0.0,0.0,0.0,146.60706,70.03784,54.283447
1766901655293,-1.2695312,0.28564453,-0.23583984,63.964844,-126.0376,33.691406,0.0,0.0,0.0,146.60706,70.03784,54.283447
1766901655304,-1.2695312,0.28564453,-0.23583984,63.964844,-126.0376,33.691406,0.0,0.0,0.0,137.5708,74.10828,41.429443
1766901655393,-0.6381836,0.13085938,-0.3413086,43.395996,-102.23389,37.109375,0.0,0.0,0.0,137.5708,74.10828,41.429443
1766901655404,-0.6381836,0.13085938,-0.3413086,43.395996,-102.23389,37.109375,0.0,0.0,0.0,94.471436,75.39368,-14.029541
1766901655492,-0.8227539,0.18798828,-0.54345703,0.8544922,50.231934,3.112793,0.0,0.0,0.0,94.471436,75.39368,-14.029541
1766901655504,-0.8227539,0.18798828,-0.54345703,0.8544922,50.231934,3.112793,0.0,0.0,0.0,91.1261,74.79492,-22.670288
1766901655592,-1.1513672,0.0078125,-0.2241211,-68.115234,242.1875,-83.43506,0.0,0.0,0.0,91.1261,74.79492,-22.670288
1766901655603,-1.1513672,0.0078125,-0.2241211,-68.115234,242.1875,-83.43506,0.0,0.0,0.0,145.73364,69.54346,31.135254
1766901655692,-1.0043945,0.1303711,-0.25585938,130.7373,-38.635254,45.715332,0.0,0.0,0.0,145.73364,69.54346,31.135254
1766901655703,-1.0043945,0.1303711,-0.25585938,130.7373,-38.635254,45.715332,0.0,0.0,0.0,148.6615,70.30151,29.976196
1766901655791,-0.9458008,0.23095703,-0.30566406,58.22754,-18.432617,37.41455,0.0,0.0,0.0,148.6615,70.30151,29.976196
1766901655803,-0.9458008,0.23095703,-0.30566406,58.22754,-18.432617,37.41455,0.0,0.0,0.0,139.40552,70.77942,7.4542236
1766901655891,-1.0600586,0.5263672,-0.2548828,-10.375977,11.59668,8.239746,0.0,0.0,0.0,139.40552,70.77942,7.4542236
1766901655902,-1.0600586,0.5263672,-0.2548828,-10.375977,11.59668,8.239746,0.0,0.0,0.0,135.99976,68.66455,-4.7021484
1766901655991,-0.9604492,0.33691406,-0.24853516,-40.405273,-63.659668,-6.225586,0.0,0.0,0.0,135.99976,68.66455,-4.7021484
1766901656002,-0.9604492,0.33691406,-0.24853516,-40.405273,-63.659668,-6.225586,0.0,0.0,0.0,124.348755,70.69153,-18.682251
1766901656090,-0.82958984,-0.25,-0.33203125,43.09082,-56.884766,-42.297363,0.0,0.0,0.0,124.348755,70.69153,-18.682251
1766901656102,-0.82958984,-0.25,-0.33203125,43.09082,-56.884766,-42.297363,0.0,0.0,0.0,107.08923,74.91028,-43.154297
1766901656190,-0.9785156,0.3491211,-0.3486328,26.916504,98.20557,25.939941,0.0,0.0,0.0,107.08923,74.91028,-43.154297
1766901656205,-0.9785156,0.3491211,-0.3486328,26.916504,98.20557,25.939941,0.0,0.0,0.0,119.4928,74.141235,-38.52356
1766901656290,-1.0234375,0.1586914,0.390625,-56.152344,-5.1879883,-11.108398,0.0,0.0,0.0,119.4928,74.141235,-38.52356
1766901656301,-1.0234375,0.1586914,0.390625,-56.152344,-5.1879883,-11.108398,0.0,0.0,0.0,138.96057,67.45056,-18.07251
1766901656391,-0.9716797,0.22851562,-0.34375,-55.664062,-31.677246,-14.892578,0.0,0.0,0.0,138.96057,67.45056,-18.07251
1766901656401,-0.9716797,0.22851562,-0.34375,-55.664062,-31.677246,-14.892578,0.0,0.0,0.0,135.1593,71.74072,-25.043335
1766901656491,-1.2050781,-0.07519531,-0.26513672,-62.072754,61.706543,-47.424316,0.0,0.0,0.0,135.1593,71.74072,-25.043335
1766901656501,-1.2050781,-0.07519531,-0.26513672,-62.072754,61.706543,-47.424316,0.0,0.0,0.0,139.03198,72.18567,-20.473022
1766901656590,-1.1987305,0.03125,-0.29833984,85.81543,-111.083984,38.879395,0.0,0.0,0.0,139.03198,72.18567,-20.473022
1766901656600,-1.1987305,0.03125,-0.29833984,85.81543,-111.083984,38.879395,0.0,0.0,0.0,127.72156,76.11328,-37.27112
1766901656689,-0.47070312,0.28515625,-0.21386719,6.5307617,-53.03955,-5.9814453,0.0,0.0,0.0,127.72156,76.11328,-37.27112
1766901656700,-0.47070312,0.28515625,-0.21386719,6.5307617,-53.03955,-5.9814453,0.0,0.0,0.0,93.83972,76.03638,-71.40564
1766901656789,-0.9902344,-0.034179688,-0.45751953,45.837402,56.396484,9.765625,0.0,0.0,0.0,93.83972,76.03638,-71.40564
1766901656800,-0.9902344,-0.034179688,-0.45751953,45.837402,56.396484,9.765625,0.0,0.0,0.0,93.52112,76.34949,-66.225586
1766901656888,-1.2797852,0.32666016,0.54003906,-67.68799,167.90771,-52.55127,0.0,0.0,0.0,93.52112,76.34949,-66.225586
1766901656899,-1.2797852,0.32666016,0.54003906,-67.68799,167.90771,-52.55127,0.0,0.0,0.0,151.474,72.301025,0.69763184
1766901656988,-1.0244141,0.2368164,-0.17919922,77.39258,-31.860352,57.495117,0.0,0.0,0.0,151.474,72.301025,0.69763184
1766901656999,-1.0244141,0.2368164,-0.17919922,77.39258,-31.860352,57.495117,0.0,0.0,0.0,151.90796,72.70203,-4.8669434
1766901657087,-1.0419922,0.3017578,-0.3569336,24.414062,-27.46582,24.536133,0.0,0.0,0.0,151.90796,72.70203,-4.8669434
1766901657099,-1.0419922,0.3017578,-0.3569336,24.414062,-27.46582,24.536133,0.0,0.0,0.0,133.22571,74.18518,-23.049316
1766901657188,-1.1269531,0.35791016,0.19824219,-70.67871,4.760742,-1.2817383,0.0,0.0,0.0,133.22571,74.18518,-23.049316
1766901657199,-1.1269531,0.35791016,0.19824219,-70.67871,4.760742,-1.2817383,0.0,0.0,0.0,134.65393,72.509766,-13.95813
1766901657287,-0.80078125,-0.0078125,-0.25097656,-11.108398,-43.029785,-9.033203,0.0,0.0,0.0,134.65393,72.509766,-13.95813
1766901657300,-0.80078125,-0.0078125,-0.25097656,-11.108398,-43.029785,-9.033203,0.0,0.0,0.0,120.22888,75.56946,-21.472778
1766901657387,-0.90478516,0.0068359375,-0.3383789,25.6958,-4.0283203,-0.79345703,0.0,0.0,0.0,120.22888,75.56946,-21.472778
1766901657399,-0.90478516,0.0068359375,-0.3383789,25.6958,-4.0283203,-0.79345703,0.0,0.0,0.0,122.404175,78.72803,-18.539429
1766901657486,-0.9477539,0.34521484,-0.18115234,-31.311035,119.68994,-10.559082,0.0,0.0,0.0,122.404175,78.72803,-18.539429
1766901657498,-0.9477539,0.34521484,-0.18115234,-31.311035,119.68994,-10.559082,0.0,0.0,0.0,137.0105,73.64685,-2.7246094
1766901657586,-0.9121094,0.095703125,-0.14160156,27.648926,-15.74707,-33.02002,0.0,0.0,0.0,137.0105,73.64685,-2.7246094
1766901657598,-0.9121094,0.095703125,-0.14160156,27.648926,-15.74707,-33.02002,0.0,0.0,0.0,145.21179,71.570435,13.831787
1766901657686,-0.9848633,0.26123047,-0.25927734,-59.020996,28.015137,-12.512207,0.0,0.0,0.0,145.21179,71.570435,13.831787
1766901657697,-0.9848633,0.26123047,-0.25927734,-59.020996,28.015137,-12.512207,0.0,0.0,0.0,145.01404,72.89978,21.939697
1766901657786,-1.3266602,-0.06640625,0.15576172,-35.827637,-38.146973,-40.283203,0.0,0.0,0.0,145.01404,72.89978,21.939697
1766901657797,-1.3266602,-0.06640625,0.15576172,-35.827637,-38.146973,-40.283203,0.0,0.0,0.0,149.00757,72.49878,37.210693
1766901657885,-0.8745117,0.068847656,-0.27783203,50.598145,-62.072754,36.071777,0.0,0.0,0.0,149.00757,72.49878,37.210693
1766901657897,-0.8745117,0.068847656,-0.27783203,50.598145,-62.072754,36.071777,0.0,0.0,0.0,133.49487,78.5083,20.055542
1766901657985,-0.64501953,0.6621094,-0.3720703,-95.703125,14.831543,-17.8833,0.0,0.0,0.0,133.49487,78.5083,20.055542
1766901657996,-0.64501953,0.6621094,-0.3720703,-95.703125,14.831543,-17.8833,0.0,0.0,0.0,120.67932,79.17847,6.9158936
1766901658085,-1.1152344,-0.18652344,-0.3310547,0.18310547,78.125,-65.42969,0.0,0.0,0.0,120.67932,79.17847,6.9158936
1766901658096,-1.1152344,-0.18652344,-0.3310547,0.18310547,78.125,-65.42969,0.0,0.0,0.0,137.4939,76.78894,27.355957
1766901658184,-1.1044922,0.18408203,0.3251953,3.3569336,26.367188,9.155273,0.0,0.0,0.0,137.4939,76.78894,27.355957
1766901658196,-1.1044922,0.18408203,0.3251953,3.3569336,26.367188,9.155273,0.0,0.0,0.0,169.22241,69.37317,63.36914
1766901658284,-0.9609375,0.24267578,-0.2524414,15.869141,-50.842285,53.222656,0.0,0.0,0.0,169.22241,69.37317,63.36914
1766901658296,-0.9609375,0.24267578,-0.2524414,15.869141,-50.842285,53.222656,0.0,0.0,0.0,159.28528,71.4386,50.427246
1766901658384,-1.0,0.16845703,-0.3647461,-14.282227,2.0751953,8.239746,0.0,0.0,0.0,159.28528,71.4386,50.427246
1766901658395,-1.0,0.16845703,-0.3647461,-14.282227,2.0751953,8.239746,0.0,0.0,0.0,145.4425,73.64136,34.84314
1766901658483,-1.2685547,0.16064453,-0.076171875,-59.87549,-1.953125,-27.70996,0.0,0.0,0.0,145.4425,73.64136,34.84314
1766901658496,-1.2685547,0.16064453,-0.076171875,-59.87549,-1.953125,-27.70996,0.0,0.0,0.0,148.12317,72.25159,40.775757
1766901658583,-0.75878906,-0.16894531,-0.27392578,39.42871,-55.908203,-0.061035156,0.0,0.0,0.0,148.12317,72.25159,40.775757
1766901658596,-0.75878906,-0.16894531,-0.27392578,39.42871,-55.908203,-0.061035156,0.0,0.0,0.0,144.50867,76.35498,36.732788
1766901658684,-0.95410156,0.28857422,-0.4169922,36.865234,24.841309,32.409668,0.0,0.0,0.0,144.50867,76.35498,36.732788
1766901658694,-0.95410156,0.28857422,-0.4169922,36.865234,24.841309,32.409668,0.0,0.0,0.0,137.68616,78.09631,23.862305
1766901658783,-0.9121094,0.10839844,-0.1459961,-26.428223,117.55371,-36.193848,0.0,0.0,0.0,137.68616,78.09631,23.862305
1766901658794,-0.9121094,0.10839844,-0.1459961,-26.428223,117.55371,-36.193848,0.0,0.0,0.0,153.1604,71.48804,38.441162
1766901658882,-1.0263672,0.14160156,0.12011719,-15.930176,-11.230469,-2.5634766,0.0,0.0,0.0,153.1604,71.48804,38.441162
1766901658894,-1.0263672,0.14160156,0.12011719,-15.930176,-11.230469,-2.5634766,0.0,0.0,0.0,160.91125,67.16492,50.586548
1766901658982,-1.1381836,-0.04296875,-0.37841797,-23.254395,-47.180176,-11.779785,0.0,0.0,0.0,160.91125,67.16492,50.586548
1766901658994,-1.1381836,-0.04296875,-0.37841797,-23.254395,-47.180176,-11.779785,0.0,0.0,0.0,154.11072,73.03711,45.269165
1766901659082,-1.206543,0.05029297,-0.2368164,-17.700195,10.559082,-2.5634766,0.0,0.0,0.0,154.11072,73.03711,45.269165
1766901659093,-1.206543,0.05029297,-0.2368164,-17.700195,10.559082,-2.5634766,0.0,0.0,0.0,156.2915,73.31726,47.373047
1766901659181,-0.7182617,0.05517578,-0.1694336,45.776367,-58.95996,22.644043,0.0,0.0,0.0,156.2915,73.31726,47.373047
1766901659193,-0.7182617,0.05517578,-0.1694336,45.776367,-58.95996,22.644043,0.0,0.0,0.0,149.91394,75.72327,34.974976
1766901659281,-0.9370117,0.3540039,-0.57128906,10.192871,-70.495605,-1.4038086,0.0,0.0,0.0,149.91394,75.72327,34.974976
1766901659293,-0.9370117,0.3540039,-0.57128906,10.192871,-70.495605,-1.4038086,0.0,0.0,0.0,117.42737,78.72803,-2.6641846
1766901659382,-0.93847656,-0.14160156,-0.3330078,-31.921387,125.97656,-66.77246,0.0,0.0,0.0,117.42737,78.72803,-2.6641846
1766901659393,-0.93847656,-0.14160156,-0.3330078,-31.921387,125.97656,-66.77246,0.0,0.0,0.0,142.26196,76.712036,17.633057
1766901659481,-1.1708984,0.021972656,0.40478516,61.76758,-59.08203,33.5083,0.0,0.0,0.0,142.26196,76.712036,17.633057
1766901659492,-1.1708984,0.021972656,0.40478516,61.76758,-59.08203,33.5083,0.0,0.0,0.0,163.32825,68.73047,39.232178
1766901659580,-0.91748047,0.20947266,-0.2890625,69.21387,-72.44873,73.12012,0.0,0.0,0.0,163.32825,68.73047,39.232178
1766901659592,-0.91748047,0.20947266,-0.2890625,69.21387,-72.44873,73.12012,0.0,0.0,0.0,145.17334,72.74597,9.393311
1766901659681,-1.0166016,0.32666016,-0.32861328,-1.953125,19.77539,10.7421875,0.0,0.0,0.0,145.17334,72.74597,9.393311
1766901659691,-1.0166016,0.32666016,-0.32861328,-1.953125,19.77539,10.7421875,0.0,0.0,0.0,136.8512,72.76245,-4.5758057
1766901659780,-1.0927734,0.24023438,-0.091796875,-5.126953,-64.94141,-12.634277,0.0,0.0,0.0,136.8512,72.76245,-4.5758057
1766901659791,-1.0927734,0.24023438,-0.091796875,-5.126953,-64.94141,-12.634277,0.0,0.0,0.0,133.8739,73.602905,-5.2459717
1766901659879,-0.70947266,-0.19726562,-0.2939453,27.893066,-46.020508,-24.658203,0.0,0.0,0.0,133.8739,73.602905,-5.2459717
1766901659891,-0.70947266,-0.19726562,-0.2939453,27.893066,-46.020508,-24.658203,0.0,0.0,0.0,117.31201,77.88757,-25.894775
1766901659979,-1.0341797,0.07324219,-0.44921875,21.42334,56.57959,23.620605,0.0,0.0,0.0,117.31201,77.88757,-25.894775
1766901659990,-1.0341797,0.07324219,-0.44921875,21.42334,56.57959,23.620605,0.0,0.0,0.0,122.64038,77.66785,-29.729004
1766901660079,-0.9746094,0.46435547,0.26513672,-48.15674,123.35205,-10.986328,0.0,0.0,0.0,122.64038,77.66785,-29.729004
1766901660090,-0.9746094,0.46435547,0.26513672,-48.15674,123.35205,-10.986328,0.0,0.0,0.0,145.16235,67.27478,-10.969849
1766901660178,-0.96972656,0.3154297,-0.28027344,-46.26465,-40.283203,-19.65332,0.0,0.0,0.0,145.16235,67.27478,-10.969849
1766901660190,-0.96972656,0.3154297,-0.28027344,-46.26465,-40.283203,-19.65332,0.0,0.0,0.0,141.52588,69.400635,-14.4140625
1766901660278,-1.1835938,-0.13623047,-0.34179688,-55.725098,44.37256,-55.480957,0.0,0.0,0.0,141.52588,69.400635,-14.4140625
1766901660290,-1.1835938,-0.13623047,-0.34179688,-55.725098,44.37256,-55.480957,0.0,0.0,0.0,141.0315,71.62537,-13.320923
1766901660378,-1.1948242,0.041992188,-0.1899414,94.11621,-106.38428,36.132812,0.0,0.0,0.0,141.0315,71.62537,-13.320923
1766901660392,-1.1948242,0.041992188,-0.1899414,94.11621,-106.38428,36.132812,0.0,0.0,0.0,145.33813,74.91028,-12.255249
1766901660478,-0.5830078,0.20410156,-0.28173828,29.052734,-63.659668,8.605957,0.0,0.0,0.0,145.33813,74.91028,-12.255249
1766901660489,-0.5830078,0.20410156,-0.28173828,29.052734,-63.659668,8.605957,0.0,0.0,0.0,108.6438,76.67908,-52.32788
1766901660577,-0.8959961,0.26513672,-0.61279297,15.441895,7.9345703,13.366699,0.0,0.0,0.0,108.6438,76.67908,-52.32788
1766901660589,-0.8959961,0.26513672,-0.61279297,15.441895,7.9345703,13.366699,0.0,0.0,0.0,96.54236,77.629395,-59.562378
1766901660677,-1.0761719,-0.0073242188,-0.24316406,-76.35498,223.38867,-73.48633,0.0,0.0,0.0,96.54236,77.629395,-59.562378
1766901660689,-1.0761719,-0.0073242188,-0.24316406,-76.35498,223.38867,-73.48633,0.0,0.0,0.0,148.1726,72.92175,-1.8182373
1766901660777,-0.90966797,0.16503906,-0.22851562,131.40869,-57.006836,28.930664,0.0,0.0,0.0,148.1726,72.92175,-1.8182373
1766901660788,-0.90966797,0.16503906,-0.22851562,131.40869,-57.006836,28.930664,0.0,0.0,0.0,155.80261,69.90051,11.738892
1766901660877,-0.95166016,0.328125,-0.34716797,35.7666,-26.245117,25.45166,0.0,0.0,0.0,155.80261,69.90051,11.738892
1766901660893,-0.95166016,0.328125,-0.34716797,35.7666,-26.245117,25.45166,0.0,0.0,0.0,142.04773,71.74072,-3.4332275
1766901660976,-1.2368164,0.33496094,-0.2006836,-45.043945,29.418945,-4.333496,0.0,0.0,0.0,142.04773,71.74072,-3.4332275
1766901660988,-1.2368164,0.33496094,-0.2006836,-45.043945,29.418945,-4.333496,0.0,0.0,0.0,140.7019,70.19714,-0.86242676
1766901661076,-0.7841797,0.05859375,-0.25,-29.724121,-60.48584,-13.977051,0.0,0.0,0.0,140.7019,70.19714,-0.86242676
1766901661088,-0.7841797,0.05859375,-0.25,-29.724121,-60.48584,-13.977051,0.0,0.0,0.0,131.4624,74.00391,-1.9885254
1766901661176,-0.95410156,-0.1928711,-0.36132812,9.70459,-18.554688,-20.263672,0.0,0.0,0.0,131.4624,74.00391,-1.9885254
1766901661187,-0.95410156,-0.1928711,-0.36132812,9.70459,-18.554688,-20.263672,0.0,0.0,0.0,126.4801,78.72803,-6.2182617
1766901661276,-0.9350586,0.33935547,-0.23242188,-13.61084,116.33301,39.489746,0.0,0.0,0.0,126.4801,78.72803,-6.2182617
1766901661287,-0.9350586,0.33935547,-0.23242188,-13.61084,116.33301,39.489746,0.0,0.0,0.0,140.1416,74.01489,6.0150146
1766901661375,-0.8178711,0.025390625,-0.12890625,73.54736,-27.038574,-12.756348,0.0,0.0,0.0,140.1416,74.01489,6.0150146
1766901661388,-0.8178711,0.025390625,-0.12890625,73.54736,-27.038574,-12.756348,0.0,0.0,0.0,144.12415,69.87305,15.990601
1766901661475,-0.9584961,0.21142578,-0.3046875,-33.813477,1.7700195,-4.760742,0.0,0.0,0.0,144.12415,69.87305,15.990601
1766901661487,-0.9584961,0.21142578,-0.3046875,-33.813477,1.7700195,-4.760742,0.0,0.0,0.0,141.38855,72.29553,16.42456
1766901661575,-1.2880859,-0.0068359375,0.19238281,-18.676758,-56.57959,-26.855469,0.0,0.0,0.0,141.38855,72.29553,16.42456
1766901661587,-1.2880859,-0.0068359375,0.19238281,-18.676758,-56.57959,-26.855469,0.0,0.0,0.0,144.31091,72.630615,26.438599
1766901661674,-0.83935547,0.06347656,-0.30615234,73.791504,-65.18555,42.663574,0.0,0.0,0.0,144.31091,72.630615,26.438599
1766901661686,-0.83935547,0.06347656,-0.30615234,73.791504,-65.18555,42.663574,0.0,0.0,0.0,125.05737,77.283325,1.2139893
1766901661774,-0.7060547,0.5214844,-0.41210938,-63.537598,-8.7890625,-19.104004,0.0,0.0,0.0,125.05737,77.283325,1.2139893
1766901661786,-0.7060547,0.5214844,-0.41210938,-63.537598,-8.7890625,-19.104004,0.0,0.0,0.0,112.71423,77.02515,-16.66626
1766901661874,-1.0844727,-0.08984375,-0.359375,-16.113281,103.637695,-35.949707,0.0,0.0,0.0,112.71423,77.02515,-16.66626
1766901661886,-1.0844727,-0.08984375,-0.359375,-16.113281,103.637695,-35.949707,0.0,0.0,0.0,126.44165,74.86084,-6.8829346
1766901661973,-0.9277344,0.13183594,0.053222656,102.53906,-56.274414,35.40039,0.0,0.0,0.0,126.44165,74.86084,-6.8829346
1766901661985,-0.9277344,0.13183594,0.053222656,102.53906,-56.274414,35.40039,0.0,0.0,0.0,149.77112,69.56543,18.742676
1766901662073,-0.8647461,0.30908203,-0.27539062,35.88867,-12.023926,27.832031,0.0,0.0,0.0,149.77112,69.56543,18.742676
1766901662085,-0.8647461,0.30908203,-0.27539062,35.88867,-12.023926,27.832031,0.0,0.0,0.0,136.78528,69.73572,-2.8289795
1766901662173,-1.0722656,0.47216797,-0.16455078,-29.418945,20.812988,-5.432129,0.0,0.0,0.0,136.78528,69.73572,-2.8289795
1766901662184,-1.0722656,0.47216797,-0.16455078,-29.418945,20.812988,-5.432129,0.0,0.0,0.0,136.08765,68.65906,-6.9433594
1766901662273,-1.046875,0.37890625,-0.30908203,-46.569824,-65.06348,-2.746582,0.0,0.0,0.0,136.08765,68.65906,-6.9433594
1766901662284,-1.046875,0.37890625,-0.30908203,-46.569824,-65.06348,-2.746582,0.0,0.0,0.0,124.16199,71.09253,-16.122437
1766901662373,-0.73291016,-0.27246094,-0.29345703,10.7421875,-1.8920898,-35.7666,0.0,0.0,0.0,124.16199,71.09253,-16.122437
1766901662384,-0.73291016,-0.27246094,-0.29345703,10.7421875,-1.8920898,-35.7666,0.0,0.0,0.0,109.98413,73.65784,-32.893066
1766901662473,-1.109375,0.25341797,-0.44433594,44.37256,47.790527,44.677734,0.0,0.0,0.0,109.98413,73.65784,-32.893066
1766901662483,-1.109375,0.25341797,-0.44433594,44.37256,47.790527,44.677734,0.0,0.0,0.0,126.084595,73.828125,-23.571167
1766901662572,-0.9345703,0.24072266,0.4091797,-24.597168,66.40625,0.61035156,0.0,0.0,0.0,126.084595,73.828125,-23.571167
1766901662583,-0.9345703,0.24072266,0.4091797,-24.597168,66.40625,0.61035156,0.0,0.0,0.0,140.75684,66.48926,-10.332642
1766901662672,-0.96191406,0.21484375,-0.2607422,-42.175293,-21.42334,-8.7890625,0.0,0.0,0.0,140.75684,66.48926,-10.332642
1766901662683,-0.96191406,0.21484375,-0.2607422,-42.175293,-21.42334,-8.7890625,0.0,0.0,0.0,139.89441,69.472046,-11.008301
1766901662771,-1.1650391,0.022949219,-0.01953125,-60.11963,31.677246,-30.639648,0.0,0.0,0.0,139.89441,69.472046,-11.008301
1766901662786,-1.1650391,0.022949219,-0.01953125,-60.11963,31.677246,-30.639648,0.0,0.0,0.0,137.64221,70.6311,-10.777588
1766901662871,-1.2241211,0.13720703,-0.27001953,48.76709,-69.03076,17.150879,0.0,0.0,0.0,137.64221,70.6311,-10.777588
1766901662882,-1.2241211,0.13720703,-0.27001953,48.76709,-69.03076,17.150879,0.0,0.0,0.0,137.3291,74.61914,-11.694946
1766901662971,-0.5073242,0.18359375,-0.23046875,19.958496,-28.137207,13.48877,0.0,0.0,0.0,137.3291,74.61914,-11.694946
1766901662985,-0.5073242,0.18359375,-0.23046875,19.958496,-28.137207,13.48877,0.0,0.0,0.0,115.77942,74.783936,-44.87915
1766901663070,-1.0146484,0.25146484,-0.56591797,14.404297,3.90625,2.8686523,0.0,0.0,0.0,115.77942,74.783936,-44.87915
1766901663082,-1.0146484,0.25146484,-0.56591797,14.404297,3.90625,2.8686523,0.0,0.0,0.0,108.30322,75.113525,-56.381836
1766901663170,-0.9711914,-0.029785156,-0.31933594,-38.69629,142.08984,-56.9458,0.0,0.0,0.0,108.30322,75.113525,-56.381836
1766901663181,-0.9711914,-0.029785156,-0.31933594,-38.69629,142.08984,-56.9458,0.0,0.0,0.0,136.2085,72.05383,-33.118286
1766901663270,-0.9116211,0.11279297,-0.041992188,91.430664,-47.48535,6.1035156,0.0,0.0,0.0,136.2085,72.05383,-33.118286
1766901663281,-0.9116211,0.11279297,-0.041992188,91.430664,-47.48535,6.1035156,0.0,0.0,0.0,152.87476,69.3512,-15.968628
1766901663369,-0.94091797,0.22216797,-0.26757812,18.798828,-17.028809,17.211914,0.0,0.0,0.0,152.87476,69.3512,-15.968628
1766901663381,-0.94091797,0.22216797,-0.26757812,18.798828,-17.028809,17.211914,0.0,0.0,0.0,146.29944,70.51575,-30.701294
1766901663469,-1.1376953,0.35791016,-0.08642578,-53.527832,-5.92041,-2.0141602,0.0,0.0,0.0,146.29944,70.51575,-30.701294
1766901663481,-1.1376953,0.35791016,-0.08642578,-53.527832,-5.92041,-2.0141602,0.0,0.0,0.0,143.26721,71.00464,-35.233154
1766901663569,-1.0415039,0.080566406,-0.35351562,-38.69629,-56.9458,-26.428223,0.0,0.0,0.0,143.26721,71.00464,-35.233154
1766901663580,-1.0415039,0.080566406,-0.35351562,-38.69629,-56.9458,-26.428223,0.0,0.0,0.0,126.5625,76.70654,-52.34436
1766901663668,-0.7314453,-0.18896484,-0.24951172,22.888184,5.554199,-33.447266,0.0,0.0,0.0,126.5625,76.70654,-52.34436
1766901663680,-0.7314453,-0.18896484,-0.24951172,22.888184,5.554199,-33.447266,0.0,0.0,0.0,132.9895,79.88159,-51.42151
1766901663768,-1.0351562,0.20458984,-0.3486328,16.845703,55.41992,12.329102,0.0,0.0,0.0,132.9895,79.88159,-51.42151
1766901663780,-1.0351562,0.20458984,-0.3486328,16.845703,55.41992,12.329102,0.0,0.0,0.0,146.79382,77.733765,-44.538574
1766901663868,-1.1362305,0.028320312,0.49072266,-46.569824,30.944824,-14.953613,0.0,0.0,0.0,146.79382,77.733765,-44.538574
1766901663879,-1.1362305,0.028320312,0.49072266,-46.569824,30.944824,-14.953613,0.0,0.0,0.0,158.302,70.01587,-33.31604
1766901663968,-0.93359375,0.043945312,-0.2553711,-16.601562,-20.568848,-0.4272461,0.0,0.0,0.0,158.302,70.01587,-33.31604
1766901663979,-0.93359375,0.043945312,-0.2553711,-16.601562,-20.568848,-0.4272461,0.0,0.0,0.0,159.14795,72.59216,-36.05713
1766901664067,-1.1054688,-0.021484375,-0.18115234,-41.07666,23.68164,-12.084961,0.0,0.0,0.0,159.14795,72.59216,-36.05713
1766901664079,-1.1054688,-0.021484375,-0.18115234,-41.07666,23.68164,-12.084961,0.0,0.0,0.0,158.68652,72.454834,-38.254395
1766901664167,-1.2675781,0.08642578,-0.34375,30.334473,-78.97949,24.902344,0.0,0.0,0.0,158.68652,72.454834,-38.254395
1766901664179,-1.2675781,0.08642578,-0.34375,30.334473,-78.97949,24.902344,0.0,0.0,0.0,150.54016,77.05261,-50.998535
1766901664267,-0.6225586,0.1508789,-0.25,15.50293,-22.216797,14.038086,0.0,0.0,0.0,150.54016,77.05261,-50.998535
1766901664278,-0.6225586,0.1508789,-0.25,15.50293,-22.216797,14.038086,0.0,0.0,0.0,134.34631,79.019165,-76.91528
1766901664366,-0.9194336,0.3203125,-0.45703125,18.066406,22.338867,13.244629,0.0,0.0,0.0,134.34631,79.019165,-76.91528
1766901664378,-0.9194336,0.3203125,-0.45703125,18.066406,22.338867,13.244629,0.0,0.0,0.0,131.24268,77.717285,-84.48486
1766901664466,-0.9736328,-0.068847656,-0.24951172,-58.95996,155.27344,-74.8291,0.0,0.0,0.0,131.24268,77.717285,-84.48486
1766901664478,-0.9736328,-0.068847656,-0.24951172,-58.95996,155.27344,-74.8291,0.0,0.0,0.0,159.03809,71.87805,-59.397583
1766901664566,-1.0327148,0.22460938,-0.2241211,65.24658,-26.123047,48.76709,0.0,0.0,0.0,159.03809,71.87805,-59.397583
1766901664577,-1.0327148,0.22460938,-0.2241211,65.24658,-26.123047,48.76709,0.0,0.0,0.0,163.8446,70.05432,-59.227295
1766901664666,-1.0073242,0.16210938,-0.32910156,21.728516,-20.385742,15.319824,0.0,0.0,0.0,163.8446,70.05432,-59.227295
1766901664677,-1.0073242,0.16210938,-0.32910156,21.728516,-20.385742,15.319824,0.0,0.0,0.0,155.46204,72.22412,-77.17346
1766901664765,-1.112793,0.33447266,-0.21972656,-44.6167,11.413574,12.329102,0.0,0.0,0.0,155.46204,72.22412,-77.17346
1766901664777,-1.112793,0.33447266,-0.21972656,-44.6167,11.413574,12.329102,0.0,0.0,0.0,151.1499,71.92749,-86.5448
1766901664865,-0.92822266,-0.033691406,-0.26904297,-13.73291,-52.612305,-34.973145,0.0,0.0,0.0,151.1499,71.92749,-86.5448
1766901664879,-0.92822266,-0.033691406,-0.26904297,-13.73291,-52.612305,-34.973145,0.0,0.0,0.0,146.68945,75.877075,-92.62573
1766901664965,-0.7963867,-0.21142578,-0.32373047,50.90332,-46.38672,11.84082,0.0,0.0,0.0,146.68945,75.877075,-92.62573
1766901664979,-0.7963867,-0.21142578,-0.32373047,50.90332,-46.38672,11.84082,0.0,0.0,0.0,144.93713,80.24963,-104.35364
1766901665064,-0.9838867,0.34033203,-0.39013672,16.235352,92.22412,32.104492,0.0,0.0,0.0,144.93713,80.24963,-104.35364
1766901665076,-0.9838867,0.34033203,-0.39013672,16.235352,92.22412,32.104492,0.0,0.0,0.0,141.89941,76.04736,-116.61987
1766901665164,-1.1523438,0.20654297,0.6098633,-69.94629,42.72461,-11.230469,0.0,0.0,0.0,141.89941,76.04736,-116.61987
1766901665176,-1.1523438,0.20654297,0.6098633,-69.94629,42.72461,-11.230469,0.0,0.0,0.0,159.25232,66.14868,-99.453735
1766901665264,-1.0610352,0.078125,-0.37646484,-21.728516,-47.180176,16.113281,0.0,0.0,0.0,159.25232,66.14868,-99.453735
1766901665275,-1.0610352,0.078125,-0.37646484,-21.728516,-47.180176,16.113281,0.0,0.0,0.0,153.14941,70.41687,-108.39111
1766901665364,-1.1381836,-0.040527344,-0.23144531,-45.959473,55.908203,-17.089844,0.0,0.0,0.0,153.14941,70.41687,-108.39111
1766901665375,-1.1381836,-0.040527344,-0.23144531,-45.959473,55.908203,-17.089844,0.0,0.0,0.0,151.474,69.93347,-112.13745
1766901665463,-1.090332,0.09863281,-0.31884766,72.509766,-71.65527,44.189453,0.0,0.0,0.0,151.474,69.93347,-112.13745
1766901665475,-1.090332,0.09863281,-0.31884766,72.509766,-71.65527,44.189453,0.0,0.0,0.0,146.11816,73.03162,-124.86511
1766901665563,-0.5488281,0.26611328,-0.31445312,20.385742,-44.98291,30.151367,0.0,0.0,0.0,146.11816,73.03162,-124.86511
1766901665574,-0.5488281,0.26611328,-0.31445312,20.385742,-44.98291,30.151367,0.0,0.0,0.0,126.23291,74.63013,-158.28003
1766901665662,-1.0083008,0.096191406,-0.58691406,45.10498,34.240723,13.48877,0.0,0.0,0.0,126.23291,74.63013,-158.28003
1766901665674,-1.0083008,0.096191406,-0.58691406,45.10498,34.240723,13.48877,0.0,0.0,0.0,116.4386,73.95996,-175.80872
1766901665762,-1.0024414,0.08251953,-0.25341797,-58.044434,171.56982,-71.22803,0.0,0.0,0.0,116.4386,73.95996,-175.80872
1766901665774,-1.0024414,0.08251953,-0.25341797,-58.044434,171.56982,-71.22803,0.0,0.0,0.0,149.2987,68.7854,-147.84851
1766901665862,-0.97314453,0.2993164,-0.14013672,107.72705,-51.26953,38.69629,0.0,0.0,0.0,149.2987,68.7854,-147.84851
1766901665873,-0.97314453,0.2993164,-0.14013672,107.72705,-51.26953,38.69629,0.0,0.0,0.0,158.59863,65.35217,-143.09143
1766901665962,-1.0986328,0.296875,-0.41015625,38.879395,-78.063965,33.75244,0.0,0.0,0.0,158.59863,65.35217,-143.09143
1766901665973,-1.0986328,0.296875,-0.41015625,38.879395,-78.063965,33.75244,0.0,0.0,0.0,145.31616,70.90027,-169.09607
1766901666061,-1.1352539,0.33544922,-0.28027344,-46.75293,19.16504,5.3100586,0.0,0.0,0.0,145.31616,70.90027,-169.09607
1766901666073,-1.1352539,0.33544922,-0.28027344,-46.75293,19.16504,5.3100586,0.0,0.0,0.0,135.87341,71.922,175.24292
1766901666161,-0.7109375,-0.061035156,-0.123535156,-3.0517578,-34.057617,-17.089844,0.0,0.0,0.0,135.87341,71.922,175.24292
1766901666173,-0.7109375,-0.061035156,-0.123535156,-3.0517578,-34.057617,-17.089844,0.0,0.0,0.0,136.46667,72.60864,173.90259
1766901666261,-0.8989258,0.036132812,-0.36376953,6.286621,-30.517578,15.563965,0.0,0.0,0.0,136.46667,72.60864,173.90259
1766901666272,-0.8989258,0.036132812,-0.36376953,6.286621,-30.517578,15.563965,0.0,0.0,0.0,131.33057,76.45386,160.01038
1766901666360,-0.81347656,0.4946289,-0.32080078,-48.828125,100.15869,-14.038086,0.0,0.0,0.0,131.33057,76.45386,160.01038
1766901666372,-0.81347656,0.4946289,-0.32080078,-48.828125,100.15869,-14.038086,0.0,0.0,0.0,133.67065,71.74072,154.58862
1766901666460,-1.0737305,0.11230469,0.20458984,-49.560547,53.833008,-31.00586,0.0,0.0,0.0,133.67065,71.74072,154.58862
1766901666472,-1.0737305,0.11230469,0.20458984,-49.560547,53.833008,-31.00586,0.0,0.0,0.0,147.87598,64.17114,169.73328
1766901666560,-1.1225586,-0.021484375,-0.33984375,4.211426,-29.968262,-8.850098,0.0,0.0,0.0,147.87598,64.17114,169.73328
1766901666571,-1.1225586,-0.021484375,-0.33984375,4.211426,-29.968262,-8.850098,0.0,0.0,0.0,149.83154,67.82959,168.15674
1766901666660,-1.1220703,0.34814453,-0.08300781,4.699707,-4.9438477,16.845703,0.0,0.0,0.0,149.83154,67.82959,168.15674
1766901666671,-1.1220703,0.34814453,-0.08300781,4.699707,-4.9438477,16.845703,0.0,0.0,0.0,151.5509,68.89526,163.35022
1766901666759,-0.94921875,0.022949219,-0.28808594,42.419434,-80.01709,37.719727,0.0,0.0,0.0,151.5509,68.89526,163.35022
1766901666771,-0.94921875,0.022949219,-0.28808594,42.419434,-80.01709,37.719727,0.0,0.0,0.0,140.00427,71.38916,142.86072
1766901666859,-0.73095703,0.4951172,-0.5161133,-21.78955,-62.683105,-20.996094,0.0,0.0,0.0,140.00427,71.38916,142.86072
1766901666871,-0.73095703,0.4951172,-0.5161133,-21.78955,-62.683105,-20.996094,0.0,0.0,0.0,116.23535,74.591675,109.14917
1766901666959,-1.0112305,-0.15771484,-0.46875,23.07129,89.904785,-47.302246,0.0,0.0,0.0,116.23535,74.591675,109.14917
1766901666973,-1.0112305,-0.15771484,-0.46875,23.07129,89.904785,-47.302246,0.0,0.0,0.0,116.72974,73.71826,101.84326
1766901667058,-1.3706055,0.6015625,1.0131836,-89.538574,103.33252,-24.414062,0.0,0.0,0.0,116.72974,73.71826,101.84326
1766901667073,-1.3706055,0.6015625,1.0131836,-89.538574,103.33252,-24.414062,0.0,0.0,0.0,156.94519,65.48401,141.43799
1766901667158,-0.9711914,0.2631836,-0.27734375,-19.65332,-39.978027,27.893066,0.0,0.0,0.0,156.94519,65.48401,141.43799
1766901667173,-0.9711914,0.2631836,-0.27734375,-19.65332,-39.978027,27.893066,0.0,0.0,0.0,155.54993,67.890015,133.85193
1766901667258,-1.0493164,0.3486328,-0.34033203,-23.376465,17.944336,0.061035156,0.0,0.0,0.0,155.54993,67.890015,133.85193
1766901667269,-1.0493164,0.3486328,-0.34033203,-23.376465,17.944336,0.061035156,0.0,0.0,0.0,148.88123,70.01587,122.29431
1766901667358,-1.1650391,0.25048828,-0.24121094,-50.29297,-28.686523,-24.230957,0.0,0.0,0.0,148.88123,70.01587,122.29431
1766901667369,-1.1650391,0.25048828,-0.24121094,-50.29297,-28.686523,-24.230957,0.0,0.0,0.0,148.3429,69.62036,122.003174
1766901667457,-0.7944336,-0.16601562,-0.30078125,24.353027,-54.80957,-21.30127,0.0,0.0,0.0,148.3429,69.62036,122.003174
1766901667469,-0.7944336,-0.16601562,-0.30078125,24.353027,-54.80957,-21.30127,0.0,0.0,0.0,141.427,74.767456,111.14319
1766901667557,-0.8154297,-0.053710938,-0.37548828,12.207031,-37.841797,32.348633,0.0,0.0,0.0,141.427,74.767456,111.14319
1766901667569,-0.8154297,-0.053710938,-0.37548828,12.207031,-37.841797,32.348633,0.0,0.0,0.0,138.82324,77.7063,98.19031
1766901667657,-0.8413086,0.45996094,-0.421875,-41.07666,101.623535,-32.89795,0.0,0.0,0.0,138.82324,77.7063,98.19031
1766901667668,-0.8413086,0.45996094,-0.421875,-41.07666,101.623535,-32.89795,0.0,0.0,0.0,143.16284,71.900024,95.53162
1766901667756,-1.0844727,0.19433594,0.37939453,-70.19043,33.813477,-24.902344,0.0,0.0,0.0,143.16284,71.900024,95.53162
1766901667768,-1.0844727,0.19433594,0.37939453,-70.19043,33.813477,-24.902344,0.0,0.0,0.0,156.35193,63.4021,109.58862
1766901667857,-1.0541992,0.118652344,-0.37695312,-40.95459,-54.32129,-5.6152344,0.0,0.0,0.0,156.35193,63.4021,109.58862
1766901667868,-1.0541992,0.118652344,-0.37695312,-40.95459,-54.32129,-5.6152344,0.0,0.0,0.0,151.48499,68.84033,102.56836
1766901667956,-1.1547852,0.0078125,-0.3227539,-29.968262,71.77734,-15.441895,0.0,0.0,0.0,151.48499,68.84033,102.56836
1766901667967,-1.1547852,0.0078125,-0.3227539,-29.968262,71.77734,-15.441895,0.0,0.0,0.0,153.70422,68.64258,103.27698
1766901668055,-1.1074219,0.10107422,-0.1850586,65.30762,-81.90918,38.94043,0.0,0.0,0.0,153.70422,68.64258,103.27698
1766901668067,-1.1074219,0.10107422,-0.1850586,65.30762,-81.90918,38.94043,0.0,0.0,0.0,151.9519,69.30725,95.251465
1766901668155,-0.7788086,0.3203125,-0.42041016,10.192871,-127.80762,42.114258,0.0,0.0,0.0,151.9519,69.30725,95.251465
1766901668167,-0.7788086,0.3203125,-0.42041016,10.192871,-127.80762,42.114258,0.0,0.0,0.0,120.547485,75.9375,53.536377
1766901668255,-0.8779297,-0.08984375,-0.57470703,47.424316,24.169922,-0.7324219,0.0,0.0,0.0,120.547485,75.9375,53.536377
1766901668267,-0.8779297,-0.08984375,-0.57470703,47.424316,24.169922,-0.7324219,0.0,0.0,0.0,101.744385,75.92102,26.240845
1766901668355,-1.0249023,0.21142578,-0.23779297,-45.654297,214.96582,-62.01172,0.0,0.0,0.0,101.744385,75.92102,26.240845
1766901668366,-1.0249023,0.21142578,-0.23779297,-45.654297,214.96582,-62.01172,0.0,0.0,0.0,154.1217,69.22485,76.2616
1766901668454,-0.94873047,0.3959961,-0.07910156,106.14014,-53.527832,41.3208,0.0,0.0,0.0,154.1217,69.22485,76.2616
1766901668466,-0.94873047,0.3959961,-0.07910156,106.14014,-53.527832,41.3208,0.0,0.0,0.0,159.01062,64.09424,78.22815
1766901668554,-1.0297852,0.20654297,-0.390625,4.4555664,-50.90332,25.634766,0.0,0.0,0.0,159.01062,64.09424,78.22815
1766901668565,-1.0297852,0.20654297,-0.390625,4.4555664,-50.90332,25.634766,0.0,0.0,0.0,146.23352,69.1095,56.45874
1766901668654,-1.0805664,0.25878906,-0.37304688,-8.666992,12.939453,-0.5493164,0.0,0.0,0.0,146.23352,69.1095,56.45874
1766901668665,-1.0805664,0.25878906,-0.37304688,-8.666992,12.939453,-0.5493164,0.0,0.0,0.0,140.15808,70.02136,44.21997
1766901668753,-1.0161133,0.2993164,-0.25341797,-26.916504,-26.489258,-24.291992,0.0,0.0,0.0,140.15808,70.02136,44.21997
1766901668765,-1.0161133,0.2993164,-0.25341797,-26.916504,-26.489258,-24.291992,0.0,0.0,0.0,143.26721,70.85632,46.203003
1766901668853,-0.7319336,-0.22460938,-0.24365234,54.32129,-44.128418,-45.47119,0.0,0.0,0.0,143.26721,70.85632,46.203003
1766901668865,-0.7319336,-0.22460938,-0.24365234,54.32129,-44.128418,-45.47119,0.0,0.0,0.0,143.93738,75.12451,40.698853
1766901668953,-1.012207,0.13134766,-0.43359375,37.78076,27.893066,37.231445,0.0,0.0,0.0,143.93738,75.12451,40.698853
1766901668965,-1.012207,0.13134766,-0.43359375,37.78076,27.893066,37.231445,0.0,0.0,0.0,140.79529,76.37695,27.680054
1766901669052,-0.9111328,0.19970703,-0.19189453,-26.000977,113.03711,-18.005371,0.0,0.0,0.0,140.79529,76.37695,27.680054
1766901669064,-0.9111328,0.19970703,-0.19189453,-26.000977,113.03711,-18.005371,0.0,0.0,0.0,153.61084,67.994385,36.38672
1766901669152,-0.9946289,0.12158203,-0.091796875,1.5258789,-28.869629,-12.145996,0.0,0.0,0.0,153.61084,67.994385,36.38672
1766901669164,-0.9946289,0.12158203,-0.091796875,1.5258789,-28.869629,-12.145996,0.0,0.0,0.0,160.41138,64.63257,42.89612
1766901669252,-1.1308594,0.07763672,-0.40673828,-10.925293,-27.526855,-0.91552734,0.0,0.0,0.0,160.41138,64.63257,42.89612
1766901669267,-1.1308594,0.07763672,-0.40673828,-10.925293,-27.526855,-0.91552734,0.0,0.0,0.0,156.8628,69.86206,35.892334
1766901669353,-1.1357422,0.05029297,-0.14160156,6.286621,6.4697266,-8.483887,0.0,0.0,0.0,156.8628,69.86206,35.892334
1766901669364,-1.1357422,0.05029297,-0.14160156,6.286621,6.4697266,-8.483887,0.0,0.0,0.0,159.36218,69.208374,34.70581
1766901669451,-0.6147461,0.20800781,-0.22753906,33.447266,-72.99805,42.175293,0.0,0.0,0.0,159.36218,69.208374,34.70581
1766901669463,-0.6147461,0.20800781,-0.22753906,33.447266,-72.99805,42.175293,0.0,0.0,0.0,152.54517,72.89429,18.83606
1766901669551,-0.9326172,0.2319336,-0.6538086,52.18506,-66.711426,27.22168,0.0,0.0,0.0,152.54517,72.89429,18.83606
1766901669562,-0.9326172,0.2319336,-0.6538086,52.18506,-66.711426,27.22168,0.0,0.0,0.0,126.29883,77.091064,-13.804321
1766901669651,-0.91015625,-0.0234375,-0.39013672,-18.798828,150.08545,-67.56592,0.0,0.0,0.0,126.29883,77.091064,-13.804321
1766901669662,-0.91015625,-0.0234375,-0.39013672,-18.798828,150.08545,-67.56592,0.0,0.0,0.0,145.25024,74.11926,-2.4938965
1766901669751,-1.2397461,0.14013672,0.3330078,-3.7841797,-38.513184,26.000977,0.0,0.0,0.0,145.25024,74.11926,-2.4938965
1766901669762,-1.2397461,0.14013672,0.3330078,-3.7841797,-38.513184,26.000977,0.0,0.0,0.0,163.55347,63.753662,17.06726
1766901669851,-0.9951172,0.15820312,-0.33496094,36.499023,-73.791504,32.165527,0.0,0.0,0.0,163.55347,63.753662,17.06726
1766901669862,-0.9951172,0.15820312,-0.33496094,36.499023,-73.791504,32.165527,0.0,0.0,0.0,154.51172,69.537964,-0.64819336
1766901669950,-1.0297852,0.36132812,-0.35058594,-17.578125,-0.48828125,9.094238,0.0,0.0,0.0,154.51172,69.537964,-0.64819336
1766901669961,-1.0297852,0.36132812,-0.35058594,-17.578125,-0.48828125,9.094238,0.0,0.0,0.0,144.12415,72.41638,-17.281494
1766901670050,-0.97314453,0.16894531,-0.24169922,-38.879395,-18.127441,-22.949219,0.0,0.0,0.0,144.12415,72.41638,-17.281494
1766901670061,-0.97314453,0.16894531,-0.24169922,-38.879395,-18.127441,-22.949219,0.0,0.0,0.0,142.22351,72.72949,-18.962402
1766901670149,-0.8105469,-0.3046875,-0.29589844,48.583984,-31.982422,-26.97754,0.0,0.0,0.0,142.22351,72.72949,-18.962402
1766901670161,-0.8105469,-0.3046875,-0.29589844,48.583984,-31.982422,-26.97754,0.0,0.0,0.0,141.6742,76.64612,-24.851074
1766901670249,-1.0253906,0.26708984,-0.4663086,45.043945,44.799805,49.682617,0.0,0.0,0.0,141.6742,76.64612,-24.851074
1766901670260,-1.0253906,0.26708984,-0.4663086,45.043945,44.799805,49.682617,0.0,0.0,0.0,140.74585,75.893555,-34.37622
1766901670349,-0.9135742,0.16699219,-0.13867188,-27.34375,121.398926,-3.0517578,0.0,0.0,0.0,140.74585,75.893555,-34.37622
1766901670360,-0.9135742,0.16699219,-0.13867188,-27.34375,121.398926,-3.0517578,0.0,0.0,0.0,153.45154,66.698,-25.054321
1766901670449,-1.0126953,0.080078125,-0.22265625,-4.1503906,-51.757812,-14.709473,0.0,0.0,0.0,153.45154,66.698,-25.054321
1766901670460,-1.0126953,0.080078125,-0.22265625,-4.1503906,-51.757812,-14.709473,0.0,0.0,0.0,157.57141,65.39612,-20.983887
1766901670548,-1.0839844,0.049316406,-0.3779297,-13.793945,-23.010254,-3.1738281,0.0,0.0,0.0,157.57141,65.39612,-20.983887
1766901670560,-1.0839844,0.049316406,-0.3779297,-13.793945,-23.010254,-3.1738281,0.0,0.0,0.0,152.89673,70.62561,-29.371948
1766901670648,-1.2426758,0.05859375,0.016601562,3.540039,-11.84082,8.300781,0.0,0.0,0.0,152.89673,70.62561,-29.371948
1766901670659,-1.2426758,0.05859375,0.016601562,3.540039,-11.84082,8.300781,0.0,0.0,0.0,153.81409,70.69702,-32.6239
1766901670747,-0.6870117,0.14648438,-0.22607422,44.006348,-94.29932,50.78125,0.0,0.0,0.0,153.81409,70.69702,-32.6239
1766901670759,-0.6870117,0.14648438,-0.22607422,44.006348,-94.29932,50.78125,0.0,0.0,0.0,140.00427,74.35547,-56.244507
1766901670847,-0.87353516,0.32714844,-0.63183594,24.536133,-38.085938,14.770508,0.0,0.0,0.0,140.00427,74.35547,-56.244507
1766901670858,-0.87353516,0.32714844,-0.63183594,24.536133,-38.085938,14.770508,0.0,0.0,0.0,109.34143,76.87134,-93.71887
1766901670947,-0.97998047,-9.765625E-4,-0.35009766,-57.800293,177.6123,-70.43457,0.0,0.0,0.0,109.34143,76.87134,-93.71887
1766901670958,-0.97998047,-9.765625E-4,-0.35009766,-57.800293,177.6123,-70.43457,0.0,0.0,0.0,132.41272,74.0863,-77.15149
1766901671047,-0.93066406,0.115722656,-0.08886719,104.37012,-67.62695,27.09961,0.0,0.0,0.0,132.41272,74.0863,-77.15149
1766901671058,-0.93066406,0.115722656,-0.08886719,104.37012,-67.62695,27.09961,0.0,0.0,0.0,154.97864,67.46155,-52.18506
1766901671146,-0.93359375,0.21240234,-0.2993164,55.358887,-54.80957,27.160645,0.0,0.0,0.0,154.97864,67.46155,-52.18506
1766901671158,-0.93359375,0.21240234,-0.2993164,55.358887,-54.80957,27.160645,0.0,0.0,0.0,145.2832,70.91675,-72.614136
1766901671246,-1.097168,0.43798828,-0.31640625,-31.188965,2.0141602,5.065918,0.0,0.0,0.0,145.2832,70.91675,-72.614136
1766901671257,-1.097168,0.43798828,-0.31640625,-31.188965,2.0141602,5.065918,0.0,0.0,0.0,136.7633,72.17468,-87.79175
1766901671346,-0.99560547,0.17626953,-0.27783203,-42.907715,-33.691406,-15.075684,0.0,0.0,0.0,136.7633,72.17468,-87.79175
1766901671360,-0.99560547,0.17626953,-0.27783203,-42.907715,-33.691406,-15.075684,0.0,0.0,0.0,129.04541,73.22388,-95.9436
1766901671445,-0.7607422,-0.2084961,-0.24902344,22.460938,-13.61084,-35.827637,0.0,0.0,0.0,129.04541,73.22388,-95.9436
1766901671457,-0.7607422,-0.2084961,-0.24902344,22.460938,-13.61084,-35.827637,0.0,0.0,0.0,124.82666,76.32202,-104.11194
1766901671545,-1.0688477,0.35888672,-0.34326172,8.728027,69.33594,17.333984,0.0,0.0,0.0,124.82666,76.32202,-104.11194
1766901671561,-1.0688477,0.35888672,-0.34326172,8.728027,69.33594,17.333984,0.0,0.0,0.0,134.73633,75.40466,-101.57959
1766901671645,-1.0078125,0.23339844,0.4711914,-73.913574,33.447266,-26.184082,0.0,0.0,0.0,134.73633,75.40466,-101.57959
1766901671656,-1.0078125,0.23339844,0.4711914,-73.913574,33.447266,-26.184082,0.0,0.0,0.0,149.95789,69.400635,-85.14404
1766901671745,-0.9350586,0.07910156,-0.27490234,-55.847168,-11.047363,-25.08545,0.0,0.0,0.0,149.95789,69.400635,-85.14404
1766901671756,-0.9350586,0.07910156,-0.27490234,-55.847168,-11.047363,-25.08545,0.0,0.0,0.0,151.91895,72.09778,-82.161255
1766901671844,-1.2182617,-0.18457031,-0.14697266,-22.644043,26.428223,-53.527832,0.0,0.0,0.0,151.91895,72.09778,-82.161255
1766901671856,-1.2182617,-0.18457031,-0.14697266,-22.644043,26.428223,-53.527832,0.0,0.0,0.0,160.80688,72.37244,-72.27905
1766901671944,-1.2070312,0.021484375,-0.17138672,61.035156,-97.717285,47.973633,0.0,0.0,0.0,160.80688,72.37244,-72.27905
1766901671955,-1.2070312,0.021484375,-0.17138672,61.035156,-97.717285,47.973633,0.0,0.0,0.0,153.78113,77.4646,-87.65442
1766901672044,-0.6386719,0.2290039,-0.22802734,52.67334,-64.575195,57.739258,0.0,0.0,0.0,153.78113,77.4646,-87.65442
1766901672055,-0.6386719,0.2290039,-0.22802734,52.67334,-64.575195,57.739258,0.0,0.0,0.0,115.7959,78.96423,-138.18604
1766901672143,-0.8105469,0.23535156,-0.5078125,22.583008,-4.0283203,5.79834,0.0,0.0,0.0,115.7959,78.96423,-138.18604
1766901672155,-0.8105469,0.23535156,-0.5078125,22.583008,-4.0283203,5.79834,0.0,0.0,0.0,101.21704,77.79419,-158.00537
1766901672243,-1.0986328,-0.0053710938,-0.33740234,-66.52832,191.89453,-61.828613,0.0,0.0,0.0,101.21704,77.79419,-158.00537
1766901672255,-1.0986328,-0.0053710938,-0.33740234,-66.52832,191.89453,-61.828613,0.0,0.0,0.0,145.33813,73.586426,-116.28479
1766901672343,-0.90625,0.22802734,-0.20703125,104.30908,-46.813965,39.367676,0.0,0.0,0.0,145.33813,73.586426,-116.28479
1766901672355,-0.90625,0.22802734,-0.20703125,104.30908,-46.813965,39.367676,0.0,0.0,0.0,153.14392,70.41138,-110.76965
1766901672442,-0.9555664,0.25830078,-0.3227539,38.024902,1.3427734,21.911621,0.0,0.0,0.0,153.14392,70.41138,-110.76965
1766901672454,-0.9555664,0.25830078,-0.3227539,38.024902,1.3427734,21.911621,0.0,0.0,0.0,143.80554,70.93323,-128.36975
1766901672542,-1.2158203,0.375,0.20703125,-41.992188,-5.004883,3.7231445,0.0,0.0,0.0,143.80554,70.93323,-128.36975
1766901672554,-1.2158203,0.375,0.20703125,-41.992188,-5.004883,3.7231445,0.0,0.0,0.0,144.25598,69.191895,-129.67712
1766901672642,-1.0766602,0.33398438,-0.3647461,-61.645508,-85.26611,-5.9814453,0.0,0.0,0.0,144.25598,69.191895,-129.67712
1766901672653,-1.0766602,0.33398438,-0.3647461,-61.645508,-85.26611,-5.9814453,0.0,0.0,0.0,119.833374,73.95996,-154.34143
1766901672742,-0.6777344,-0.26464844,-0.28222656,14.953613,-18.432617,-42.23633,0.0,0.0,0.0,119.833374,73.95996,-154.34143
1766901672753,-0.6777344,-0.26464844,-0.28222656,14.953613,-18.432617,-42.23633,0.0,0.0,0.0,101.57959,76.6626,-176.3086
1766901672841,-1.0708008,0.1899414,-0.3623047,23.31543,93.566895,30.334473,0.0,0.0,0.0,101.57959,76.6626,-176.3086
1766901672853,-1.0708008,0.1899414,-0.3623047,23.31543,93.566895,30.334473,0.0,0.0,0.0,124.27185,75.49805,-159.01062
1766901672941,-1.0224609,0.26660156,0.48095703,-37.353516,-2.0751953,5.7373047,0.0,0.0,0.0,124.27185,75.49805,-159.01062
1766901672952,-1.0224609,0.26660156,0.48095703,-37.353516,-2.0751953,5.7373047,0.0,0.0,0.0,139.7406,66.80786,-144.47571
1766901673041,-0.9995117,0.1821289,-0.32910156,-31.738281,-8.544922,-14.343262,0.0,0.0,0.0,139.7406,66.80786,-144.47571
1766901673052,-0.9995117,0.1821289,-0.32910156,-31.738281,-8.544922,-14.343262,0.0,0.0,0.0,138.36731,69.70276,-148.68347
1766901673140,-1.1884766,0.080566406,-0.0126953125,-58.47168,47.48535,-53.466797,0.0,0.0,0.0,138.36731,69.70276,-148.68347
1766901673152,-1.1884766,0.080566406,-0.0126953125,-58.47168,47.48535,-53.466797,0.0,0.0,0.0,144.93713,69.7522,-140.31189
1766901673240,-1.1875,0.10058594,-0.1430664,-8.483887,-64.63623,1.4648438,0.0,0.0,0.0,144.93713,69.7522,-140.31189
1766901673252,-1.1875,0.10058594,-0.1430664,-8.483887,-64.63623,1.4648438,0.0,0.0,0.0,142.13013,74.44885,-142.92114
1766901673340,-0.75390625,0.044921875,-0.24169922,47.180176,-70.19043,19.16504,0.0,0.0,0.0,142.13013,74.44885,-142.92114
1766901673351,-0.75390625,0.044921875,-0.24169922,47.180176,-70.19043,19.16504,0.0,0.0,0.0,119.37744,77.958984,-174.56177
1766901673440,-0.8540039,0.43359375,-0.5258789,-21.54541,-21.606445,-15.075684,0.0,0.0,0.0,119.37744,77.958984,-174.56177
1766901673451,-0.8540039,0.43359375,-0.5258789,-21.54541,-21.606445,-15.075684,0.0,0.0,0.0,97.3938,77.89856,156.16516
1766901673540,-1.0644531,-0.026367188,-0.34472656,-41.625977,156.31104,-49.49951,0.0,0.0,0.0,97.3938,77.89856,156.16516
1766901673551,-1.0644531,-0.026367188,-0.34472656,-41.625977,156.31104,-49.49951,0.0,0.0,0.0,128.04016,75.31677,-178.92883
1766901673639,-0.9482422,0.13085938,0.07080078,93.444824,-66.04004,31.982422,0.0,0.0,0.0,128.04016,75.31677,-178.92883
1766901673651,-0.9482422,0.13085938,0.07080078,93.444824,-66.04004,31.982422,0.0,0.0,0.0,152.4408,69.038086,-155.19287
1766901673739,-0.9394531,0.22216797,-0.29833984,63.537598,-31.799316,40.283203,0.0,0.0,0.0,152.4408,69.038086,-155.19287
1766901673750,-0.9394531,0.22216797,-0.29833984,63.537598,-31.799316,40.283203,0.0,0.0,0.0,141.56982,70.581665,-178.89587
1766901673839,-1.0761719,0.37158203,-0.24853516,-3.4179688,16.296387,10.7421875,0.0,0.0,0.0,141.56982,70.581665,-178.89587
1766901673850,-1.0761719,0.37158203,-0.24853516,-3.4179688,16.296387,10.7421875,0.0,0.0,0.0,140.5481,69.279785,173.00171
1766901673938,-1.1435547,0.29052734,-0.15283203,-16.357422,-79.28467,-2.746582,0.0,0.0,0.0,140.5481,69.279785,173.00171
1766901673950,-1.1435547,0.29052734,-0.15283203,-16.357422,-79.28467,-2.746582,0.0,0.0,0.0,134.53308,70.60364,165.87708
1766901674038,-0.64453125,-0.115234375,-0.2241211,-8.605957,-27.282715,-14.953613,0.0,0.0,0.0,134.53308,70.60364,165.87708
1766901674049,-0.64453125,-0.115234375,-0.2241211,-8.605957,-27.282715,-14.953613,0.0,0.0,0.0,115.88928,74.31152,143.72864
1766901674138,-0.9589844,0.026855469,-0.43847656,-5.432129,22.949219,0.91552734,0.0,0.0,0.0,115.88928,74.31152,143.72864
1766901674149,-0.9589844,0.026855469,-0.43847656,-5.432129,22.949219,0.91552734,0.0,0.0,0.0,118.6853,76.80542,139.52087
1766901674237,-0.87158203,0.28271484,-0.12841797,-53.95508,145.3247,-23.498535,0.0,0.0,0.0,118.6853,76.80542,139.52087
1766901674249,-0.87158203,0.28271484,-0.12841797,-53.95508,145.3247,-23.498535,0.0,0.0,0.0,141.13037,68.89526,158.57117
1766901674337,-1.0283203,0.07470703,-0.21289062,0.91552734,-45.59326,-29.296875,0.0,0.0,0.0,141.13037,68.89526,158.57117
1766901674348,-1.0283203,0.07470703,-0.21289062,0.91552734,-45.59326,-29.296875,0.0,0.0,0.0,148.4198,67.18689,166.32751
1766901674437,-1.1157227,0.059570312,-0.40039062,-27.22168,-19.592285,-15.74707,0.0,0.0,0.0,148.4198,67.18689,166.32751
1766901674448,-1.1157227,0.059570312,-0.40039062,-27.22168,-19.592285,-15.74707,0.0,0.0,0.0,145.09094,73.0426,159.94995
1766901674537,-1.4394531,0.087402344,0.65234375,-40.100098,-84.53369,-14.282227,0.0,0.0,0.0,145.09094,73.0426,159.94995
1766901674548,-1.4394531,0.087402344,0.65234375,-40.100098,-84.53369,-14.282227,0.0,0.0,0.0,148.99109,73.59741,163.3667
1766901674636,-0.61328125,0.076171875,-0.21142578,38.94043,-112.6709,43.5791,0.0,0.0,0.0,148.99109,73.59741,163.3667
1766901674648,-0.61328125,0.076171875,-0.21142578,38.94043,-112.6709,43.5791,0.0,0.0,0.0,102.8595,79.27185,109.37439
1766901674736,-0.79052734,0.22705078,-0.5473633,14.526367,0.79345703,11.84082,0.0,0.0,0.0,102.8595,79.27185,109.37439
1766901674747,-0.79052734,0.22705078,-0.5473633,14.526367,0.79345703,11.84082,0.0,0.0,0.0,68.98865,77.35474,80.24963
1766901674836,-1.1416016,-0.0087890625,-0.31298828,-69.39697,242.43164,-77.39258,0.0,0.0,0.0,68.98865,77.35474,80.24963
1766901674847,-1.1416016,-0.0087890625,-0.31298828,-69.39697,242.43164,-77.39258,0.0,0.0,0.0,130.8197,79.958496,149.17786
1766901674935,-0.8745117,0.10644531,-0.22167969,140.74707,-35.7666,41.992188,0.0,0.0,0.0,130.8197,79.958496,149.17786
1766901674947,-0.8745117,0.10644531,-0.22167969,140.74707,-35.7666,41.992188,0.0,0.0,0.0,161.93848,74.74548,-177.47314
1766901675035,-0.92578125,0.14697266,-0.27929688,64.63623,-10.864258,30.273438,0.0,0.0,0.0,161.93848,74.74548,-177.47314
1766901675046,-0.92578125,0.14697266,-0.27929688,64.63623,-10.864258,30.273438,0.0,0.0,0.0,151.57288,75.51453,159.89502
1766901675134,-1.090332,0.45996094,-0.19189453,-22.583008,28.808594,14.770508,0.0,0.0,0.0,151.57288,75.51453,159.89502
1766901675146,-1.090332,0.45996094,-0.19189453,-22.583008,28.808594,14.770508,0.0,0.0,0.0,148.0133,72.87781,159.93896
1766901675234,-1.0566406,0.3461914,-0.2685547,-45.288086,-74.157715,-9.277344,0.0,0.0,0.0,148.0133,72.87781,159.93896
1766901675246,-1.0566406,0.3461914,-0.2685547,-45.288086,-74.157715,-9.277344,0.0,0.0,0.0,136.82922,74.591675,159.37866
1766901675334,-0.72998047,-0.2006836,-0.29638672,15.197754,-44.189453,-34.5459,0.0,0.0,0.0,136.82922,74.591675,159.37866
1766901675346,-0.72998047,-0.2006836,-0.29638672,15.197754,-44.189453,-34.5459,0.0,0.0,0.0,113.620605,79.28284,144.8822
1766901675433,-0.94677734,-0.040527344,-0.38623047,-9.399414,65.00244,4.4555664,0.0,0.0,0.0,113.620605,79.28284,144.8822
1766901675445,-0.94677734,-0.040527344,-0.38623047,-9.399414,65.00244,4.4555664,0.0,0.0,0.0,132.65991,82.43591,166.03088
1766901675533,-1.0849609,0.33251953,0.33691406,-63.23242,143.31055,4.699707,0.0,0.0,0.0,132.65991,82.43591,166.03088
1766901675545,-1.0849609,0.33251953,0.33691406,-63.23242,143.31055,4.699707,0.0,0.0,0.0,157.67578,71.17493,-164.28955
1766901675633,-1.0112305,0.16357422,-0.29003906,-12.878418,-14.892578,-14.709473,0.0,0.0,0.0,157.67578,71.17493,-164.28955
1766901675644,-1.0112305,0.16357422,-0.29003906,-12.878418,-14.892578,-14.709473,0.0,0.0,0.0,158.90076,69.5105,-155.64331
1766901675733,-1.1401367,0.041992188,-0.3095703,-52.79541,36.92627,-28.259277,0.0,0.0,0.0,158.90076,69.5105,-155.64331
1766901675745,-1.1401367,0.041992188,-0.3095703,-52.79541,36.92627,-28.259277,0.0,0.0,0.0,157.37915,69.63684,-147.95837
1766901675834,-1.2128906,0.1381836,0.12597656,-26.672363,-11.657715,-14.6484375,0.0,0.0,0.0,157.37915,69.63684,-147.95837
1766901675845,-1.2128906,0.1381836,0.12597656,-26.672363,-11.657715,-14.6484375,0.0,0.0,0.0,161.98792,68.933716,-133.92883
1766901675932,-1.0932617,-0.10058594,-0.30517578,52.79541,-77.02637,32.958984,0.0,0.0,0.0,161.98792,68.933716,-133.92883
1766901675943,-1.0932617,-0.10058594,-0.30517578,52.79541,-77.02637,32.958984,0.0,0.0,0.0,147.20032,74.921265,-147.84851
1766901676032,-0.6479492,0.28125,-0.35009766,34.91211,-86.54785,54.32129,0.0,0.0,0.0,147.20032,74.921265,-147.84851
1766901676044,-0.6479492,0.28125,-0.35009766,34.91211,-86.54785,54.32129,0.0,0.0,0.0,114.96643,77.63489,174.83093
1766901676132,-0.9946289,-0.023925781,-0.5136719,43.21289,51.940918,3.540039,0.0,0.0,0.0,114.96643,77.63489,174.83093
1766901676143,-0.9946289,-0.023925781,-0.5136719,43.21289,51.940918,3.540039,0.0,0.0,0.0,114.4281,77.32178,172.66113
1766901676231,-1.4462891,0.42285156,1.2167969,-99.853516,134.46045,-47.180176,0.0,0.0,0.0,114.4281,77.32178,172.66113
1766901676243,-1.4462891,0.42285156,1.2167969,-99.853516,134.46045,-47.180176,0.0,0.0,0.0,159.84558,68.28552,-135.39551
1766901676331,-0.98095703,0.2265625,-0.20947266,90.63721,-2.6855469,43.762207,0.0,0.0,0.0,159.84558,68.28552,-135.39551
1766901676342,-0.98095703,0.2265625,-0.20947266,90.63721,-2.6855469,43.762207,0.0,0.0,0.0,156.23657,70.164185,-142.25098
1766901676431,-1.0546875,0.3935547,-0.30908203,23.620605,-5.6762695,14.831543,0.0,0.0,0.0,156.23657,70.164185,-142.25098
1766901676443,-1.0546875,0.3935547,-0.30908203,23.620605,-5.6762695,14.831543,0.0,0.0,0.0,148.16711,70.235596,-153.78113
1766901676530,-1.1669922,0.32128906,-0.1274414,-41.68701,-1.5869141,5.004883,0.0,0.0,0.0,148.16711,70.235596,-153.78113
1766901676543,-1.1669922,0.32128906,-0.1274414,-41.68701,-1.5869141,5.004883,0.0,0.0,0.0,143.56934,69.32922,-156.03333
1766901676630,-0.91064453,0.17480469,-0.28173828,-38.208008,-77.20947,-0.79345703,0.0,0.0,0.0,143.56934,69.32922,-156.03333
1766901676642,-0.91064453,0.17480469,-0.28173828,-38.208008,-77.20947,-0.79345703,0.0,0.0,0.0,125.288086,73.526,-169.6399
1766901676730,-0.77001953,-0.10986328,-0.34960938,1.8310547,-22.277832,-32.53174,0.0,0.0,0.0,125.288086,73.526,-169.6399
1766901676741,-0.77001953,-0.10986328,-0.34960938,1.8310547,-22.277832,-32.53174,0.0,0.0,0.0,113.411865,77.74475,177.79724
1766901676829,-1.0478516,0.3046875,-0.29492188,-27.832031,133.17871,-0.61035156,0.0,0.0,0.0,113.411865,77.74475,177.79724
1766901676841,-1.0478516,0.3046875,-0.29492188,-27.832031,133.17871,-0.61035156,0.0,0.0,0.0,139.84497,73.32825,-155.53345
1766901676929,-1.0195312,0.05419922,0.27978516,8.178711,-19.16504,-3.8452148,0.0,0.0,0.0,139.84497,73.32825,-155.53345
1766901676941,-1.0195312,0.05419922,0.27978516,8.178711,-19.16504,-3.8452148,0.0,0.0,0.0,152.6825,65.407104,-136.0437
1766901677029,-1.0283203,0.14550781,-0.36083984,-3.6010742,-42.785645,-8.972168,0.0,0.0,0.0,152.6825,65.407104,-136.0437
1766901677041,-1.0283203,0.14550781,-0.36083984,-3.6010742,-42.785645,-8.972168,0.0,0.0,0.0,149.87549,71.02112,-138.2959
1766901677128,-1.0849609,0.09667969,-0.30126953,-34.729004,35.7666,-22.399902,0.0,0.0,0.0,149.87549,71.02112,-138.2959
1766901677140,-1.0849609,0.09667969,-0.30126953,-34.729004,35.7666,-22.399902,0.0,0.0,0.0,151.59485,71.70227,-135.54932
1766901677228,-1.1733398,0.009765625,9.765625E-4,41.07666,-93.75,2.9907227,0.0,0.0,0.0,151.59485,71.70227,-135.54932
1766901677240,-1.1733398,0.009765625,9.765625E-4,41.07666,-93.75,2.9907227,0.0,0.0,0.0,154.50623,72.60864,-130.70435
1766901677328,-0.62939453,0.2553711,-0.33251953,10.437012,-103.45459,40.83252,0.0,0.0,0.0,154.50623,72.60864,-130.70435
1766901677339,-0.62939453,0.2553711,-0.33251953,10.437012,-103.45459,40.83252,0.0,0.0,0.0,122.03613,78.54675,-171.98547
1766901677429,-1.0253906,-0.11376953,-0.5595703,28.747559,66.40625,-9.887695,0.0,0.0,0.0,122.03613,78.54675,-171.98547
1766901677439,-1.0253906,-0.11376953,-0.5595703,28.747559,66.40625,-9.887695,0.0,0.0,0.0,113.17566,78.77197,173.66089
1766901677527,-1.1367188,0.16113281,0.15673828,-46.081543,203.24707,-40.161133,0.0,0.0,0.0,113.17566,78.77197,173.66089
1766901677539,-1.1367188,0.16113281,0.15673828,-46.081543,203.24707,-40.161133,0.0,0.0,0.0,163.59192,67.04407,-135.10437
1766901677627,-1.03125,0.14355469,-0.24658203,76.72119,-72.509766,58.776855,0.0,0.0,0.0,163.59192,67.04407,-135.10437
1766901677639,-1.03125,0.14355469,-0.24658203,76.72119,-72.509766,58.776855,0.0,0.0,0.0,161.72424,68.90076,-142.73987
1766901677727,-1.0249023,0.32128906,-0.41503906,7.385254,-15.014648,11.291504,0.0,0.0,0.0,161.72424,68.90076,-142.73987
1766901677741,-1.0249023,0.32128906,-0.41503906,7.385254,-15.014648,11.291504,0.0,0.0,0.0,149.11194,72.839355,-166.21216
1766901677827,-1.1323242,0.18554688,-0.22314453,-70.19043,57.617188,-22.888184,0.0,0.0,0.0,149.11194,72.839355,-166.21216
1766901677838,-1.1323242,0.18554688,-0.22314453,-70.19043,57.617188,-22.888184,0.0,0.0,0.0,151.10046,70.48828,-166.42639
1766901677926,-0.93603516,0.10888672,-0.24121094,-28.137207,-64.331055,-9.338379,0.0,0.0,0.0,151.10046,70.48828,-166.42639
1766901677941,-0.93603516,0.10888672,-0.24121094,-28.137207,-64.331055,-9.338379,0.0,0.0,0.0,150.72144,73.11951,-166.13525
1766901678026,-0.8413086,-0.2319336,-0.3540039,46.081543,-54.992676,-16.235352,0.0,0.0,0.0,150.72144,73.11951,-166.13525
1766901678038,-0.8413086,-0.2319336,-0.3540039,46.081543,-54.992676,-16.235352,0.0,0.0,0.0,140.98206,78.64014,177.04468
1766901678125,-0.98339844,0.30029297,-0.3798828,-3.2958984,96.13037,13.61084,0.0,0.0,0.0,140.98206,78.64014,177.04468
1766901678137,-0.98339844,0.30029297,-0.3798828,-3.2958984,96.13037,13.61084,0.0,0.0,0.0,144.81628,76.986694,173.27637
1766901678225,-1.043457,0.09277344,0.20166016,-61.21826,110.71777,-35.583496,0.0,0.0,0.0,144.81628,76.986694,173.27637
1766901678237,-1.043457,0.09277344,0.20166016,-61.21826,110.71777,-35.583496,0.0,0.0,0.0,161.24634,65.69824,-169.45312
1766901678325,-1.0517578,-0.033203125,-0.29833984,-10.009766,-64.63623,2.319336,0.0,0.0,0.0,161.24634,65.69824,-169.45312
1766901678337,-1.0517578,-0.033203125,-0.29833984,-10.009766,-64.63623,2.319336,0.0,0.0,0.0,163.81165,68.703,-167.0581
1766901678425,-1.1040039,0.0068359375,-0.34960938,-9.643555,-6.5307617,-4.9438477,0.0,0.0,0.0,163.81165,68.703,-167.0581
1766901678436,-1.1040039,0.0068359375,-0.34960938,-9.643555,-6.5307617,-4.9438477,0.0,0.0,0.0,161.89453,72.99866,-174.16626
1766901678524,-1.1176758,-0.016601562,-0.14941406,45.898438,-36.499023,23.4375,0.0,0.0,0.0,161.89453,72.99866,-174.16626
1766901678536,-1.1176758,-0.016601562,-0.14941406,45.898438,-36.499023,23.4375,0.0,0.0,0.0,160.16418,73.59741,177.79175
1766901678624,-0.58691406,0.25048828,-0.24365234,31.921387,-77.819824,62.01172,0.0,0.0,0.0,160.16418,73.59741,177.79175
1766901678635,-0.58691406,0.25048828,-0.24365234,31.921387,-77.819824,62.01172,0.0,0.0,0.0,140.03174,77.53601,146.54114
1766901678724,-1.1484375,-0.057128906,-0.5727539,47.60742,26.733398,12.207031,0.0,0.0,0.0,140.03174,77.53601,146.54114
1766901678736,-1.1484375,-0.057128906,-0.5727539,47.60742,26.733398,12.207031,0.0,0.0,0.0,119.036865,77.87109,117.20764
1766901678823,-0.98583984,0.08544922,-0.099609375,-32.65381,162.65869,-42.3584,0.0,0.0,0.0,119.036865,77.87109,117.20764
1766901678836,-0.98583984,0.08544922,-0.099609375,-32.65381,162.65869,-42.3584,0.0,0.0,0.0,159.84558,70.74097,155.34119
1766901678923,-0.9272461,0.2368164,-0.17041016,132.44629,-51.696777,63.23242,0.0,0.0,0.0,159.84558,70.74097,155.34119
1766901678936,-0.9272461,0.2368164,-0.17041016,132.44629,-51.696777,63.23242,0.0,0.0,0.0,159.25781,70.81787,148.44177
1766901679023,-1.0673828,0.33007812,-0.38378906,9.155273,-19.042969,17.51709,0.0,0.0,0.0,159.25781,70.81787,148.44177
1766901679035,-1.0673828,0.33007812,-0.38378906,9.155273,-19.042969,17.51709,0.0,0.0,0.0,140.80627,73.42163,117.91077
1766901679123,-1.2177734,0.2290039,0.030761719,-68.42041,19.714355,-18.127441,0.0,0.0,0.0,140.80627,73.42163,117.91077
1766901679134,-1.2177734,0.2290039,0.030761719,-68.42041,19.714355,-18.127441,0.0,0.0,0.0,140.96558,71.71875,115.14221
1766901679222,-0.69433594,-0.043945312,-0.2290039,-1.7700195,-56.82373,-1.7089844,0.0,0.0,0.0,140.96558,71.71875,115.14221
1766901679234,-0.69433594,-0.043945312,-0.2290039,-1.7700195,-56.82373,-1.7089844,0.0,0.0,0.0,129.38599,75.75073,101.052246
1766901679322,-0.9135742,-0.084472656,-0.4501953,26.611328,-17.8833,2.5634766,0.0,0.0,0.0,129.38599,75.75073,101.052246
1766901679334,-0.9135742,-0.084472656,-0.4501953,26.611328,-17.8833,2.5634766,0.0,0.0,0.0,118.21289,78.96973,79.70581
1766901679422,-0.9355469,0.30029297,-0.21044922,-48.583984,165.40527,-26.306152,0.0,0.0,0.0,118.21289,78.96973,79.70581
1766901679433,-0.9355469,0.30029297,-0.21044922,-48.583984,165.40527,-26.306152,0.0,0.0,0.0,138.40576,71.82861,93.05969
1766901679521,-0.9067383,0.048828125,-0.041992188,25.268555,-37.04834,-25.45166,0.0,0.0,0.0,138.40576,71.82861,93.05969
1766901679533,-0.9067383,0.048828125,-0.041992188,25.268555,-37.04834,-25.45166,0.0,0.0,0.0,153.84155,65.69824,110.390625
1766901679621,-1.0107422,0.06201172,-0.38671875,-19.836426,-25.32959,2.5024414,0.0,0.0,0.0,153.84155,65.69824,110.390625
1766901679633,-1.0107422,0.06201172,-0.38671875,-19.836426,-25.32959,2.5024414,0.0,0.0,0.0,150.63354,70.72998,102.87598
1766901679721,-1.1025391,0.068359375,-0.27539062,-23.07129,47.302246,-20.446777,0.0,0.0,0.0,150.63354,70.72998,102.87598
1766901679732,-1.1025391,0.068359375,-0.27539062,-23.07129,47.302246,-20.446777,0.0,0.0,0.0,154.94568,69.96094,103.656006
1766901679822,-1.1757812,0.09326172,-0.25195312,77.14844,-85.08301,39.42871,0.0,0.0,0.0,154.94568,69.96094,103.656006
1766901679832,-1.1757812,0.09326172,-0.25195312,77.14844,-85.08301,39.42871,0.0,0.0,0.0,155.0061,71.01013,97.64099
1766901679920,-0.62109375,0.16894531,-0.2919922,28.808594,-79.833984,37.353516,0.0,0.0,0.0,155.0061,71.01013,97.64099
1766901679932,-0.62109375,0.16894531,-0.2919922,28.808594,-79.833984,37.353516,0.0,0.0,0.0,133.65967,76.16272,62.770386
1766901680020,-0.92529297,0.29101562,-0.66503906,28.137207,-2.8076172,18.737793,0.0,0.0,0.0,133.65967,76.16272,62.770386
1766901680031,-0.92529297,0.29101562,-0.66503906,28.137207,-2.8076172,18.737793,0.0,0.0,0.0,110.00061,77.35474,32.091064
1766901680121,-1.0,-0.03515625,-0.31445312,-49.987793,165.58838,-71.77734,0.0,0.0,0.0,110.00061,77.35474,32.091064
1766901680131,-1.0,-0.03515625,-0.31445312,-49.987793,165.58838,-71.77734,0.0,0.0,0.0,139.03748,73.03711,54.173584
1766901680219,-0.9560547,0.119628906,0.103027344,72.32666,-78.00293,10.437012,0.0,0.0,0.0,139.03748,73.03711,54.173584
1766901680234,-0.9560547,0.119628906,0.103027344,72.32666,-78.00293,10.437012,0.0,0.0,0.0,158.3075,67.109985,74.43787
1766901680319,-0.9536133,0.12890625,-0.3359375,55.358887,-59.32617,26.794434,0.0,0.0,0.0,158.3075,67.109985,74.43787
1766901680331,-0.9536133,0.12890625,-0.3359375,55.358887,-59.32617,26.794434,0.0,0.0,0.0,150.77637,71.63086,53.475952
1766901680419,-1.0761719,0.39160156,-0.36816406,-9.765625,9.94873,7.2631836,0.0,0.0,0.0,150.77637,71.63086,53.475952
1766901680430,-1.0761719,0.39160156,-0.36816406,-9.765625,9.94873,7.2631836,0.0,0.0,0.0,144.0747,72.284546,38.22693
1766901680519,-1.1030273,0.2055664,-0.083984375,-56.33545,-6.225586,-19.104004,0.0,0.0,0.0,144.0747,72.284546,38.22693
1766901680530,-1.1030273,0.2055664,-0.083984375,-56.33545,-6.225586,-19.104004,0.0,0.0,0.0,143.75061,71.2738,37.47986
1766901680618,-0.71435547,-0.20996094,-0.24511719,22.949219,-78.00293,-14.343262,0.0,0.0,0.0,143.75061,71.2738,37.47986
1766901680630,-0.71435547,-0.20996094,-0.24511719,22.949219,-78.00293,-14.343262,0.0,0.0,0.0,130.177,76.70105,18.110962
1766901680718,-1.0048828,0.084472656,-0.52001953,8.666992,11.413574,17.39502,0.0,0.0,0.0,130.177,76.70105,18.110962
1766901680730,-1.0048828,0.084472656,-0.52001953,8.666992,11.413574,17.39502,0.0,0.0,0.0,114.8291,79.96948,3.2629395
1766901680818,-0.8432617,0.33496094,-0.1953125,-38.69629,152.52686,-9.216309,0.0,0.0,0.0,114.8291,79.96948,3.2629395
1766901680829,-0.8432617,0.33496094,-0.1953125,-38.69629,152.52686,-9.216309,0.0,0.0,0.0,145.7666,71.103516,31.38794
1766901680917,-0.97265625,0.115722656,-0.0073242188,21.54541,-51.452637,-2.2583008,0.0,0.0,0.0,145.7666,71.103516,31.38794
1766901680929,-0.97265625,0.115722656,-0.0073242188,21.54541,-51.452637,-2.2583008,0.0,0.0,0.0,151.93542,67.13745,35.546265
1766901681017,-1.1401367,0.00390625,-0.40234375,-15.441895,-31.49414,-19.65332,0.0,0.0,0.0,151.93542,67.13745,35.546265
1766901681028,-1.1401367,0.00390625,-0.40234375,-15.441895,-31.49414,-19.65332,0.0,0.0,0.0,144.33289,72.77344,22.703247
1766901681117,-1.1728516,0.20214844,-0.16259766,-17.578125,29.846191,-6.652832,0.0,0.0,0.0,144.33289,72.77344,22.703247
1766901681128,-1.1728516,0.20214844,-0.16259766,-17.578125,29.846191,-6.652832,0.0,0.0,0.0,149.79309,72.06482,23.291016
1766901681216,-0.7734375,0.14697266,-0.1899414,49.1333,-85.510254,29.846191,0.0,0.0,0.0,149.79309,72.06482,23.291016
1766901681228,-0.7734375,0.14697266,-0.1899414,49.1333,-85.510254,29.846191,0.0,0.0,0.0,141.69067,74.663086,5.5426025
1766901681316,-0.9301758,0.44335938,-0.5805664,-8.361816,-70.86182,1.7700195,0.0,0.0,0.0,141.69067,74.663086,5.5426025
1766901681328,-0.9301758,0.44335938,-0.5805664,-8.361816,-70.86182,1.7700195,0.0,0.0,0.0,108.03955,77.69531,-36.40869
1766901681416,-0.87890625,-0.08300781,-0.35742188,-32.043457,114.37988,-64.208984,0.0,0.0,0.0,108.03955,77.69531,-36.40869
1766901681428,-0.87890625,-0.08300781,-0.35742188,-32.043457,114.37988,-64.208984,0.0,0.0,0.0,118.377686,76.47034,-34.469604
1766901681516,-1.3691406,0.3491211,0.81884766,-65.7959,42.297363,-7.1411133,0.0,0.0,0.0,118.377686,76.47034,-34.469604
1766901681527,-1.3691406,0.3491211,0.81884766,-65.7959,42.297363,-7.1411133,0.0,0.0,0.0,157.63733,67.681274,4.993286
1766901681615,-1.0395508,0.096191406,-0.3359375,22.338867,-78.73535,38.391113,0.0,0.0,0.0,157.63733,67.681274,4.993286
1766901681627,-1.0395508,0.096191406,-0.3359375,22.338867,-78.73535,38.391113,0.0,0.0,0.0,149.68872,72.29004,-13.568115
1766901681715,-1.0244141,0.3203125,-0.32958984,-21.30127,18.859863,0.36621094,0.0,0.0,0.0,149.68872,72.29004,-13.568115
1766901681726,-1.0244141,0.3203125,-0.32958984,-21.30127,18.859863,0.36621094,0.0,0.0,0.0,138.97156,74.141235,-33.173218
1766901681815,-1.1538086,0.18652344,-0.15185547,-3.9672852,-72.75391,-26.672363,0.0,0.0,0.0,138.97156,74.141235,-33.173218
1766901681826,-1.1538086,0.18652344,-0.15185547,-3.9672852,-72.75391,-26.672363,0.0,0.0,0.0,138.12012,75.26184,-35.222168
1766901681914,-0.6796875,-0.20605469,-0.26953125,29.724121,-55.725098,-12.268066,0.0,0.0,0.0,138.12012,75.26184,-35.222168
1766901681926,-0.6796875,-0.20605469,-0.26953125,29.724121,-55.725098,-12.268066,0.0,0.0,0.0,114.9939,79.749756,-64.78638
1766901682014,-1.0297852,0.13671875,-0.46728516,7.019043,61.340332,13.48877,0.0,0.0,0.0,114.9939,79.749756,-64.78638
1766901682025,-1.0297852,0.13671875,-0.46728516,7.019043,61.340332,13.48877,0.0,0.0,0.0,112.95044,82.01843,-61.506958
1766901682114,-1.0566406,0.18798828,0.35107422,-71.83838,149.78027,-27.46582,0.0,0.0,0.0,112.95044,82.01843,-61.506958
1766901682128,-1.0566406,0.18798828,0.35107422,-71.83838,149.78027,-27.46582,0.0,0.0,0.0,157.14844,72.14722,-8.036499
1766901682213,-0.9760742,0.1772461,-0.25634766,-12.329102,-52.91748,4.5166016,0.0,0.0,0.0,157.14844,72.14722,-8.036499
1766901682225,-0.9760742,0.1772461,-0.25634766,-12.329102,-52.91748,4.5166016,0.0,0.0,0.0,159.32373,73.97644,-9.871216
1766901682314,-1.1523438,-0.040527344,-0.40625,-19.714355,17.27295,-30.700684,0.0,0.0,0.0,159.32373,73.97644,-9.871216
1766901682325,-1.1523438,-0.040527344,-0.40625,-19.714355,17.27295,-30.700684,0.0,0.0,0.0,155.67078,77.10205,-12.832031
1766901682413,-1.3374023,0.111328125,0.45410156,-11.047363,-76.293945,6.8359375,0.0,0.0,0.0,155.67078,77.10205,-12.832031
1766901682424,-1.3374023,0.111328125,0.45410156,-11.047363,-76.293945,6.8359375,0.0,0.0,0.0,163.6853,75.49805,4.350586
1766901682513,-0.57421875,0.11816406,-0.24658203,40.222168,-103.33252,44.37256,0.0,0.0,0.0,163.6853,75.49805,4.350586
1766901682524,-0.57421875,0.11816406,-0.24658203,40.222168,-103.33252,44.37256,0.0,0.0,0.0,118.66882,82.282104,-43.132324
1766901682613,-0.9448242,0.24365234,-0.62158203,20.080566,16.967773,7.1411133,0.0,0.0,0.0,118.66882,82.282104,-43.132324
1766901682624,-0.9448242,0.24365234,-0.62158203,20.080566,16.967773,7.1411133,0.0,0.0,0.0,79.27734,82.22717,-80.09033
1766901682712,-1.0239258,0.100097656,-0.20800781,-53.222656,207.09229,-52.856445,0.0,0.0,0.0,79.27734,82.22717,-80.09033
1766901682723,-1.0239258,0.100097656,-0.20800781,-53.222656,207.09229,-52.856445,0.0,0.0,0.0,158.45581,77.8656,3.9111328
1766901682812,-0.95410156,0.20214844,-0.16601562,118.59131,-50.1709,40.222168,0.0,0.0,0.0,158.45581,77.8656,3.9111328
1766901682823,-0.95410156,0.20214844,-0.16601562,118.59131,-50.1709,40.222168,0.0,0.0,0.0,165.7727,72.19116,16.655273
1766901682912,-1.046875,0.26513672,-0.3774414,41.137695,-31.49414,33.447266,0.0,0.0,0.0,165.7727,72.19116,16.655273
1766901682923,-1.046875,0.26513672,-0.3774414,41.137695,-31.49414,33.447266,0.0,0.0,0.0,149.53491,75.772705,-2.279663
1766901683011,-1.0834961,0.22998047,-0.2133789,-44.128418,45.166016,-5.3100586,0.0,0.0,0.0,149.53491,75.772705,-2.279663
1766901683023,-1.0834961,0.22998047,-0.2133789,-44.128418,45.166016,-5.3100586,0.0,0.0,0.0,146.60156,74.03137,-2.8125
1766901683111,-1.0302734,0.16113281,-0.21923828,-29.35791,-64.453125,-10.986328,0.0,0.0,0.0,146.60156,74.03137,-2.8125
1766901683122,-1.0302734,0.16113281,-0.21923828,-29.35791,-64.453125,-10.986328,0.0,0.0,0.0,143.30566,75.71228,1.8237305
1766901683210,-0.78564453,-0.21679688,-0.29736328,37.841797,-51.51367,-25.939941,0.0,0.0,0.0,143.30566,75.71228,1.8237305
1766901683222,-0.78564453,-0.21679688,-0.29736328,37.841797,-51.51367,-25.939941,0.0,0.0,0.0,129.2157,81.17798,-11.524658
1766901683310,-1.0546875,0.27978516,-0.37695312,2.9907227,85.81543,23.986816,0.0,0.0,0.0,129.2157,81.17798,-11.524658
1766901683322,-1.0546875,0.27978516,-0.37695312,2.9907227,85.81543,23.986816,0.0,0.0,0.0,133.97278,80.7605,-9.453735
1766901683410,-1.0522461,0.19335938,0.42333984,-57.18994,95.825195,-21.78955,0.0,0.0,0.0,133.97278,80.7605,-9.453735
1766901683422,-1.0522461,0.19335938,0.42333984,-57.18994,95.825195,-21.78955,0.0,0.0,0.0,159.38416,69.75769,21.209106
1766901683509,-0.98876953,0.19189453,-0.2685547,-24.291992,-45.410156,-4.9438477,0.0,0.0,0.0,159.38416,69.75769,21.209106
1766901683522,-0.98876953,0.19189453,-0.2685547,-24.291992,-45.410156,-4.9438477,0.0,0.0,0.0,158.05481,71.33423,26.098022
1766901683609,-1.2197266,-0.072753906,-0.34570312,-27.282715,17.8833,-40.039062,0.0,0.0,0.0,158.05481,71.33423,26.098022
1766901683621,-1.2197266,-0.072753906,-0.34570312,-27.282715,17.8833,-40.039062,0.0,0.0,0.0,156.19812,73.78418,27.943726
1766901683709,-1.1870117,0.07128906,0.1484375,23.498535,-65.55176,27.09961,0.0,0.0,0.0,156.19812,73.78418,27.943726
1766901683721,-1.1870117,0.07128906,0.1484375,23.498535,-65.55176,27.09961,0.0,0.0,0.0,162.0044,73.306274,34.903564
1766901683809,-0.6347656,0.24511719,-0.21191406,70.129395,-120.4834,57.86133,0.0,0.0,0.0,162.0044,73.306274,34.903564
1766901683820,-0.6347656,0.24511719,-0.21191406,70.129395,-120.4834,57.86133,0.0,0.0,0.0,128.68286,80.04089,-6.9818115
1766901683908,-0.85498047,0.20019531,-0.58691406,45.043945,-13.549805,21.1792,0.0,0.0,0.0,128.68286,80.04089,-6.9818115
1766901683920,-0.85498047,0.20019531,-0.58691406,45.043945,-13.549805,21.1792,0.0,0.0,0.0,80.91431,78.39844,-61.188354
1766901684008,-1.0112305,0.11816406,-0.26367188,-47.058105,220.03174,-66.40625,0.0,0.0,0.0,80.91431,78.39844,-61.188354
1766901684020,-1.0112305,0.11816406,-0.26367188,-47.058105,220.03174,-66.40625,0.0,0.0,0.0,131.34155,77.404175,-14.935913
1766901684108,-0.95703125,0.25341797,0.02734375,106.62842,-60.60791,22.460938,0.0,0.0,0.0,131.34155,77.404175,-14.935913
1766901684120,-0.95703125,0.25341797,0.02734375,106.62842,-60.60791,22.460938,0.0,0.0,0.0,157.69775,69.38965,14.985352
1766901684208,-1.0048828,0.2006836,-0.33447266,31.311035,-48.64502,23.925781,0.0,0.0,0.0,157.69775,69.38965,14.985352
1766901684219,-1.0048828,0.2006836,-0.33447266,31.311035,-48.64502,23.925781,0.0,0.0,0.0,141.6742,73.56445,-7.9925537
1766901684308,-1.0419922,0.35839844,-0.28222656,-27.70996,16.601562,6.713867,0.0,0.0,0.0,141.6742,73.56445,-7.9925537
1766901684319,-1.0419922,0.35839844,-0.28222656,-27.70996,16.601562,6.713867,0.0,0.0,0.0,133.62122,73.75122,-19.813843
1766901684407,-1.1166992,0.21142578,-0.07080078,-23.68164,-32.470703,-16.357422,0.0,0.0,0.0,133.62122,73.75122,-19.813843
1766901684418,-1.1166992,0.21142578,-0.07080078,-23.68164,-32.470703,-16.357422,0.0,0.0,0.0,134.63196,73.899536,-16.001587
1766901684507,-0.7553711,-0.19189453,-0.23388672,32.043457,-51.3916,-15.014648,0.0,0.0,0.0,134.63196,73.899536,-16.001587
1766901684518,-0.7553711,-0.19189453,-0.23388672,32.043457,-51.3916,-15.014648,0.0,0.0,0.0,116.57593,78.21716,-38.237915
1766901684606,-0.93847656,0.19384766,-0.38476562,52.06299,12.451172,33.081055,0.0,0.0,0.0,116.57593,78.21716,-38.237915
1766901684618,-0.93847656,0.19384766,-0.38476562,52.06299,12.451172,33.081055,0.0,0.0,0.0,114.35669,78.118286,-51.240234
1766901684707,-0.875,0.34277344,-0.14160156,-46.447754,134.21631,-4.9438477,0.0,0.0,0.0,114.35669,78.118286,-51.240234
1766901684718,-0.875,0.34277344,-0.14160156,-46.447754,134.21631,-4.9438477,0.0,0.0,0.0,142.50916,71.4386,-24.54895
1766901684807,-1.0253906,0.083496094,0.04248047,-22.460938,-24.414062,-44.006348,0.0,0.0,0.0,142.50916,71.4386,-24.54895
1766901684817,-1.0253906,0.083496094,0.04248047,-22.460938,-24.414062,-44.006348,0.0,0.0,0.0,152.60559,68.36792,-8.668213
1766901684906,-1.034668,-0.009277344,-0.26904297,-38.146973,-8.911133,-15.930176,0.0,0.0,0.0,152.60559,68.36792,-8.668213
1766901684917,-1.034668,-0.009277344,-0.26904297,-38.146973,-8.911133,-15.930176,0.0,0.0,0.0,150.1831,72.60315,-8.0529785
1766901685005,-1.1967773,0.03466797,-0.18115234,2.0141602,2.6245117,-13.671875,0.0,0.0,0.0,150.1831,72.60315,-8.0529785
1766901685017,-1.1967773,0.03466797,-0.18115234,2.0141602,2.6245117,-13.671875,0.0,0.0,0.0,155.79712,73.33923,-4.460449
1766901685105,-0.8720703,0.095703125,-0.18457031,51.51367,-63.11035,28.686523,0.0,0.0,0.0,155.79712,73.33923,-4.460449
1766901685116,-0.8720703,0.095703125,-0.18457031,51.51367,-63.11035,28.686523,0.0,0.0,0.0,146.35986,76.1792,-22.115479
1766901685205,-0.84375,0.37841797,-0.45361328,-16.967773,-71.10596,-11.352539,0.0,0.0,0.0,146.35986,76.1792,-22.115479
1766901685216,-0.84375,0.37841797,-0.45361328,-16.967773,-71.10596,-11.352539,0.0,0.0,0.0,116.103516,78.88733,-58.546143
1766901685304,-0.9428711,-0.0063476562,-0.37353516,-8.7890625,86.05957,-38.757324,0.0,0.0,0.0,116.103516,78.88733,-58.546143
1766901685316,-0.9428711,-0.0063476562,-0.37353516,-8.7890625,86.05957,-38.757324,0.0,0.0,0.0,123.9917,78.343506,-57.178345
1766901685404,-0.9970703,0.22070312,-0.0048828125,-10.864258,111.81641,7.6904297,0.0,0.0,0.0,123.9917,78.343506,-57.178345
1766901685416,-0.9970703,0.22070312,-0.0048828125,-10.864258,111.81641,7.6904297,0.0,0.0,0.0,157.2583,67.73071,-23.02185
1766901685504,-0.98779297,0.18603516,-0.13623047,52.124023,-60.424805,24.963379,0.0,0.0,0.0,157.2583,67.73071,-23.02185
1766901685515,-0.98779297,0.18603516,-0.13623047,52.124023,-60.424805,24.963379,0.0,0.0,0.0,156.18164,67.44507,-26.965942
1766901685604,-1.0395508,0.31103516,-0.33691406,30.090332,-45.776367,29.174805,0.0,0.0,0.0,156.18164,67.44507,-26.965942
1766901685615,-1.0395508,0.31103516,-0.33691406,30.090332,-45.776367,29.174805,0.0,0.0,0.0,144.27246,72.41089,-46.636963
1766901685703,-1.1069336,0.27490234,-0.22363281,-49.316406,4.9438477,-7.6293945,0.0,0.0,0.0,144.27246,72.41089,-46.636963
1766901685716,-1.1069336,0.27490234,-0.22363281,-49.316406,4.9438477,-7.6293945,0.0,0.0,0.0,139.15833,72.388916,-53.250732
1766901685803,-0.74072266,-0.111328125,-0.24365234,-9.155273,-31.61621,-19.28711,0.0,0.0,0.0,139.15833,72.388916,-53.250732
1766901685815,-0.74072266,-0.111328125,-0.24365234,-9.155273,-31.61621,-19.28711,0.0,0.0,0.0,134.20898,74.93225,-59.09546
1766901685903,-0.9711914,0.018066406,-0.42773438,-5.859375,6.8359375,12.573242,0.0,0.0,0.0,134.20898,74.93225,-59.09546
1766901685914,-0.9711914,0.018066406,-0.42773438,-5.859375,6.8359375,12.573242,0.0,0.0,0.0,136.09863,76.87134,-63.242798
1766901686003,-0.87402344,0.31298828,-0.21582031,-52.612305,119.62891,-28.625488,0.0,0.0,0.0,136.09863,76.87134,-63.242798
1766901686014,-0.87402344,0.31298828,-0.21582031,-52.612305,119.62891,-28.625488,0.0,0.0,0.0,147.15637,69.64783,-54.799805
1766901686104,-1.0336914,0.068359375,0.09716797,-28.259277,22.949219,-19.714355,0.0,0.0,0.0,147.15637,69.64783,-54.799805
1766901686113,-1.0336914,0.068359375,0.09716797,-28.259277,22.949219,-19.714355,0.0,0.0,0.0,157.03308,63.01758,-42.0282
1766901686202,-1.1210938,0.15722656,-0.3408203,5.92041,-70.129395,-8.7890625,0.0,0.0,0.0,157.03308,63.01758,-42.0282
1766901686213,-1.1210938,0.15722656,-0.3408203,5.92041,-70.129395,-8.7890625,0.0,0.0,0.0,156.86829,68.75244,-43.796997
1766901686301,-1.1445312,0.109375,-0.35986328,-11.535645,-3.7231445,-0.48828125,0.0,0.0,0.0,156.86829,68.75244,-43.796997
1766901686313,-1.1445312,0.109375,-0.35986328,-11.535645,-3.7231445,-0.48828125,0.0,0.0,0.0,150.27649,72.3999,-53.4375
1766901686401,-0.86279297,-0.061035156,-0.13769531,36.254883,-17.27295,15.686035,0.0,0.0,0.0,150.27649,72.3999,-53.4375
1766901686415,-0.86279297,-0.061035156,-0.13769531,36.254883,-17.27295,15.686035,0.0,0.0,0.0,150.63354,72.020874,-58.518677
1766901686501,-0.86279297,0.31933594,-0.39160156,-8.483887,-78.24707,28.381348,0.0,0.0,0.0,150.63354,72.020874,-58.518677
1766901686512,-0.86279297,0.31933594,-0.39160156,-8.483887,-78.24707,28.381348,0.0,0.0,0.0,131.7096,74.454346,-85.24841
1766901686601,-0.9458008,-0.14941406,-0.45263672,29.541016,30.761719,-30.212402,0.0,0.0,0.0,131.7096,74.454346,-85.24841
1766901686612,-0.9458008,-0.14941406,-0.45263672,29.541016,30.761719,-30.212402,0.0,0.0,0.0,122.3053,75.684814,-101.4093
1766901686700,-1.0395508,0.30273438,-0.13964844,-36.56006,159.91211,-28.625488,0.0,0.0,0.0,122.3053,75.684814,-101.4093
1766901686712,-1.0395508,0.30273438,-0.13964844,-36.56006,159.91211,-28.625488,0.0,0.0,0.0,158.26355,68.36243,-65.32471
1766901686801,-1.0024414,0.21972656,-0.17529297,57.006836,-65.61279,44.799805,0.0,0.0,0.0,158.26355,68.36243,-65.32471
1766901686815,-1.0024414,0.21972656,-0.17529297,57.006836,-65.61279,44.799805,0.0,0.0,0.0,158.48877,66.43982,-66.58264
1766901686900,-1.1503906,0.2133789,-0.45166016,23.376465,-62.438965,26.916504,0.0,0.0,0.0,158.48877,66.43982,-66.58264
1766901686912,-1.1503906,0.2133789,-0.45166016,23.376465,-62.438965,26.916504,0.0,0.0,0.0,143.26172,72.21863,-88.73657
1766901687001,-1.0693359,0.27246094,-0.24072266,-51.02539,17.8833,-13.916016,0.0,0.0,0.0,143.26172,72.21863,-88.73657
1766901687012,-1.0693359,0.27246094,-0.24072266,-51.02539,17.8833,-13.916016,0.0,0.0,0.0,135.75256,72.47681,-100.27222
1766901687099,-0.6196289,-0.08105469,-0.10253906,-0.7324219,-19.40918,-13.73291,0.0,0.0,0.0,135.75256,72.47681,-100.27222
1766901687111,-0.6196289,-0.08105469,-0.10253906,-0.7324219,-19.40918,-13.73291,0.0,0.0,0.0,137.0874,73.306274,-98.95935
1766901687199,-1.0566406,0.0078125,-0.4345703,-0.18310547,-22.216797,4.8217773,0.0,0.0,0.0,137.0874,73.306274,-98.95935
1766901687210,-1.0566406,0.0078125,-0.4345703,-0.18310547,-22.216797,4.8217773,0.0,0.0,0.0,134.69238,77.2229,-108.17139
1766901687299,-0.8100586,0.34375,-0.21923828,-66.833496,117.91992,-31.921387,0.0,0.0,0.0,134.69238,77.2229,-108.17139
1766901687310,-0.8100586,0.34375,-0.21923828,-66.833496,117.91992,-31.921387,0.0,0.0,0.0,143.9978,71.850586,-102.15088
1766901687398,-0.9272461,0.10839844,-0.0068359375,-2.5634766,-19.65332,-17.578125,0.0,0.0,0.0,143.9978,71.850586,-102.15088
1766901687410,-0.9272461,0.10839844,-0.0068359375,-2.5634766,-19.65332,-17.578125,0.0,0.0,0.0,155.44006,66.71997,-86.7865
1766901687499,-1.1791992,0.016113281,-0.37597656,-36.010742,-4.760742,-13.549805,0.0,0.0,0.0,155.44006,66.71997,-86.7865
1766901687509,-1.1791992,0.016113281,-0.37597656,-36.010742,-4.760742,-13.549805,0.0,0.0,0.0,150.77087,70.252075,-90.670166
1766901687598,-1.1748047,0.095214844,-0.041015625,-9.887695,-2.1972656,-6.0424805,0.0,0.0,0.0,150.77087,70.252075,-90.670166
1766901687609,-1.1748047,0.095214844,-0.041015625,-9.887695,-2.1972656,-6.0424805,0.0,0.0,0.0,156.46729,70.76294,-85.60547
1766901687697,-0.7998047,0.04296875,-0.234375,54.382324,-89.29443,36.92627,0.0,0.0,0.0,156.46729,70.76294,-85.60547
1766901687709,-0.7998047,0.04296875,-0.234375,54.382324,-89.29443,36.92627,0.0,0.0,0.0,144.04175,75.10254,-105.35339
1766901687797,-0.8144531,0.4506836,-0.54785156,-15.441895,-59.99756,-10.559082,0.0,0.0,0.0,144.04175,75.10254,-105.35339
1766901687809,-0.8144531,0.4506836,-0.54785156,-15.441895,-59.99756,-10.559082,0.0,0.0,0.0,112.51648,77.645874,-145.047
1766901687897,-1.0239258,-0.10107422,-0.44384766,7.751465,116.27197,-42.72461,0.0,0.0,0.0,112.51648,77.645874,-145.047
1766901687908,-1.0239258,-0.10107422,-0.44384766,7.751465,116.27197,-42.72461,0.0,0.0,0.0,119.61365,75.90454,-144.89319
1766901687996,-1.2729492,0.3125,0.8305664,-66.16211,53.527832,-13.244629,0.0,0.0,0.0,119.61365,75.90454,-144.89319
1766901688008,-1.2729492,0.3125,0.8305664,-66.16211,53.527832,-13.244629,0.0,0.0,0.0,160.81787,65.511475,-101.936646
1766901688096,-0.99316406,0.072265625,-0.31884766,40.893555,-76.78223,43.5791,0.0,0.0,0.0,160.81787,65.511475,-101.936646
1766901688108,-0.99316406,0.072265625,-0.31884766,40.893555,-76.78223,43.5791,0.0,0.0,0.0,154.75891,69.505005,-114.65332
1766901688196,-1.078125,0.36816406,-0.41064453,-7.2631836,5.3710938,2.9907227,0.0,0.0,0.0,154.75891,69.505005,-114.65332
1766901688207,-1.078125,0.36816406,-0.41064453,-7.2631836,5.3710938,2.9907227,0.0,0.0,0.0,143.78906,72.60315,-133.56628
1766901688296,-1.1513672,0.2211914,0.045898438,-72.387695,5.126953,-28.930664,0.0,0.0,0.0,143.78906,72.60315,-133.56628
1766901688307,-1.1513672,0.2211914,0.045898438,-72.387695,5.126953,-28.930664,0.0,0.0,0.0,146.38184,70.59265,-130.75378
1766901688396,-0.66552734,-0.16064453,-0.21386719,13.61084,-60.36377,-17.76123,0.0,0.0,0.0,146.38184,70.59265,-130.75378
1766901688407,-0.66552734,-0.16064453,-0.21386719,13.61084,-60.36377,-17.76123,0.0,0.0,0.0,139.19678,75.3772,-139.0979
1766901688495,-0.9433594,-0.05859375,-0.48095703,-0.9765625,-10.986328,10.7421875,0.0,0.0,0.0,139.19678,75.3772,-139.0979
1766901688506,-0.9433594,-0.05859375,-0.48095703,-0.9765625,-10.986328,10.7421875,0.0,0.0,0.0,133.64868,79.903564,-154.22058
1766901688595,-0.88916016,0.25195312,-0.2890625,-23.80371,132.14111,-5.065918,0.0,0.0,0.0,133.64868,79.903564,-154.22058
1766901688606,-0.88916016,0.25195312,-0.2890625,-23.80371,132.14111,-5.065918,0.0,0.0,0.0,146.0907,72.72949,-147.42004
1766901688695,-1.121582,0.119628906,0.296875,-38.146973,36.8042,-19.16504,0.0,0.0,0.0,146.0907,72.72949,-147.42004
1766901688706,-1.121582,0.119628906,0.296875,-38.146973,36.8042,-19.16504,0.0,0.0,0.0,159.8291,63.825073,-131.76453
1766901688795,-1.125,0.056640625,-0.37158203,-5.554199,-66.89453,4.8217773,0.0,0.0,0.0,159.8291,63.825073,-131.76453
1766901688806,-1.125,0.056640625,-0.37158203,-5.554199,-66.89453,4.8217773,0.0,0.0,0.0,156.5387,69.96094,-138.55408
1766901688894,-1.1079102,0.051757812,-0.2783203,-17.944336,13.244629,-6.164551,0.0,0.0,0.0,156.5387,69.96094,-138.55408
1766901688905,-1.1079102,0.051757812,-0.2783203,-17.944336,13.244629,-6.164551,0.0,0.0,0.0,155.01709,71.84509,-144.0033
1766901688994,-0.73779297,0.111816406,-0.13964844,46.75293,-53.894043,32.104492,0.0,0.0,0.0,155.01709,71.84509,-144.0033
1766901689005,-0.73779297,0.111816406,-0.13964844,46.75293,-53.894043,32.104492,0.0,0.0,0.0,148.80432,73.3667,-157.76917
1766901689093,-0.93066406,0.40625,-0.59375,-5.7373047,-76.171875,-16.479492,0.0,0.0,0.0,148.80432,73.3667,-157.76917
1766901689105,-0.93066406,0.40625,-0.59375,-5.7373047,-76.171875,-16.479492,0.0,0.0,0.0,121.86035,77.299805,168.62915
1766901689194,-0.92089844,-0.04296875,-0.36132812,-8.544922,115.53955,-40.649414,0.0,0.0,0.0,121.86035,77.299805,168.62915
1766901689205,-0.92089844,-0.04296875,-0.36132812,-8.544922,115.53955,-40.649414,0.0,0.0,0.0,135.14282,74.8114,174.97375
1766901689293,-1.1967773,0.08935547,0.5644531,-4.4555664,-18.188477,-0.061035156,0.0,0.0,0.0,135.14282,74.8114,174.97375
1766901689304,-1.1967773,0.08935547,0.5644531,-4.4555664,-18.188477,-0.061035156,0.0,0.0,0.0,159.38965,66.18713,-158.92822
1766901689392,-0.9873047,0.21435547,-0.32177734,44.799805,-55.664062,33.14209,0.0,0.0,0.0,159.38965,66.18713,-158.92822
1766901689404,-0.9873047,0.21435547,-0.32177734,44.799805,-55.664062,33.14209,0.0,0.0,0.0,152.22656,71.06506,-175.63843
1766901689492,-1.0654297,0.24267578,-0.31298828,-11.779785,14.099121,-3.479004,0.0,0.0,0.0,152.22656,71.06506,-175.63843
1766901689504,-1.0654297,0.24267578,-0.31298828,-11.779785,14.099121,-3.479004,0.0,0.0,0.0,146.3269,71.91101,172.33154
1766901689592,-1.0932617,0.25341797,-0.18457031,-49.438477,-19.042969,-17.51709,0.0,0.0,0.0,146.3269,71.91101,172.33154
1766901689603,-1.0932617,0.25341797,-0.18457031,-49.438477,-19.042969,-17.51709,0.0,0.0,0.0,147.9419,72.22412,174.16626
1766901689692,-0.7207031,-0.14013672,-0.25683594,-16.418457,-62.5,-28.564453,0.0,0.0,0.0,147.9419,72.22412,174.16626
1766901689703,-0.7207031,-0.14013672,-0.25683594,-16.418457,-62.5,-28.564453,0.0,0.0,0.0,138.09814,77.2229,163.05359
1766901689791,-0.94921875,-0.1015625,-0.49121094,-2.6245117,4.1503906,4.699707,0.0,0.0,0.0,138.09814,77.2229,163.05359
1766901689803,-0.94921875,-0.1015625,-0.49121094,-2.6245117,4.1503906,4.699707,0.0,0.0,0.0,129.15527,80.88135,146.74438
1766901689891,-0.9248047,0.20800781,-0.23242188,-36.92627,144.89746,0.0,0.0,0.0,0.0,129.15527,80.88135,146.74438
1766901689902,-0.9248047,0.20800781,-0.23242188,-36.92627,144.89746,0.0,0.0,0.0,0.0,151.64429,71.80664,164.98169
1766901689991,-1.0620117,0.071777344,0.14501953,4.4555664,-37.41455,2.4414062,0.0,0.0,0.0,151.64429,71.80664,164.98169
1766901690002,-1.0620117,0.071777344,0.14501953,4.4555664,-37.41455,2.4414062,0.0,0.0,0.0,159.60938,65.12146,173.54004
1766901690090,-1.1303711,0.028320312,-0.4267578,-5.493164,-59.448242,-2.2583008,0.0,0.0,0.0,159.60938,65.12146,173.54004
1766901690102,-1.1303711,0.028320312,-0.4267578,-5.493164,-59.448242,-2.2583008,0.0,0.0,0.0,153.2428,72.0813,162.9657
1766901690190,-1.203125,0.04248047,-0.21142578,-35.095215,57.556152,-18.005371,0.0,0.0,0.0,153.2428,72.0813,162.9657
1766901690202,-1.203125,0.04248047,-0.21142578,-35.095215,57.556152,-18.005371,0.0,0.0,0.0,156.80237,71.4386,163.24585
1766901690290,-0.7709961,0.001953125,-0.18359375,66.467285,-99.67041,48.64502,0.0,0.0,0.0,156.80237,71.4386,163.24585
1766901690302,-0.7709961,0.001953125,-0.18359375,66.467285,-99.67041,48.64502,0.0,0.0,0.0,147.67822,75.146484,145.03052
1766901690390,-0.8334961,0.38720703,-0.6479492,-8.911133,-84.59473,-8.911133,0.0,0.0,0.0,147.67822,75.146484,145.03052
1766901690402,-0.8334961,0.38720703,-0.6479492,-8.911133,-84.59473,-8.911133,0.0,0.0,0.0,102.33215,78.22815,88.43994
1766901690489,-1.0161133,-0.07421875,-0.45947266,7.873535,150.45166,-38.94043,0.0,0.0,0.0,102.33215,78.22815,88.43994
1766901690501,-1.0161133,-0.07421875,-0.45947266,7.873535,150.45166,-38.94043,0.0,0.0,0.0,121.69006,75.2948,99.453735
1766901690589,-1.4033203,0.20263672,0.9873047,-47.851562,-0.36621094,-3.1738281,0.0,0.0,0.0,121.69006,75.2948,99.453735
1766901690600,-1.4033203,0.20263672,0.9873047,-47.851562,-0.36621094,-3.1738281,0.0,0.0,0.0,159.05457,63.97888,138.7793
1766901690689,-1.0053711,0.15673828,-0.34814453,36.621094,-68.42041,42.3584,0.0,0.0,0.0,159.05457,63.97888,138.7793
1766901690700,-1.0053711,0.15673828,-0.34814453,36.621094,-68.42041,42.3584,0.0,0.0,0.0,152.57263,69.713745,120.97046
1766901690788,-1.0415039,0.31640625,-0.35595703,-5.9814453,6.7749023,4.5776367,0.0,0.0,0.0,152.57263,69.713745,120.97046
1766901690800,-1.0415039,0.31640625,-0.35595703,-5.9814453,6.7749023,4.5776367,0.0,0.0,0.0,144.73938,71.378174,103.656006
1766901690888,-1.1210938,0.27929688,-0.12646484,-60.85205,-11.047363,-9.521484,0.0,0.0,0.0,144.73938,71.378174,103.656006
1766901690899,-1.1210938,0.27929688,-0.12646484,-60.85205,-11.047363,-9.521484,0.0,0.0,0.0,144.22302,70.252075,100.39856
1766901690988,-0.6894531,-0.16308594,-0.25390625,12.451172,-72.509766,-19.836426,0.0,0.0,0.0,144.22302,70.252075,100.39856
1766901690999,-0.6894531,-0.16308594,-0.25390625,12.451172,-72.509766,-19.836426,0.0,0.0,0.0,131.42944,74.95972,83.10608
1766901691088,-0.9057617,-0.07324219,-0.48095703,-15.74707,4.8828125,9.399414,0.0,0.0,0.0,131.42944,74.95972,83.10608
1766901691099,-0.9057617,-0.07324219,-0.48095703,-15.74707,4.8828125,9.399414,0.0,0.0,0.0,119.35547,79.70581,68.03833
1766901691187,-0.83154297,0.49169922,-0.28808594,-72.93701,141.78467,-29.846191,0.0,0.0,0.0,119.35547,79.70581,68.03833
1766901691199,-0.83154297,0.49169922,-0.28808594,-72.93701,141.78467,-29.846191,0.0,0.0,0.0,144.3274,73.048096,94.801025
1766901691287,-1.0644531,0.08642578,0.028808594,-2.1972656,-35.705566,-22.827148,0.0,0.0,0.0,144.3274,73.048096,94.801025
1766901691301,-1.0644531,0.08642578,0.028808594,-2.1972656,-35.705566,-22.827148,0.0,0.0,0.0,156.63208,66.434326,106.85303
1766901691387,-1.1083984,-0.057128906,-0.3828125,-15.808105,-22.705078,-5.432129,0.0,0.0,0.0,156.63208,66.434326,106.85303
1766901691398,-1.1083984,-0.057128906,-0.3828125,-15.808105,-22.705078,-5.432129,0.0,0.0,0.0,152.40784,71.900024,97.316895
1766901691486,-1.206543,0.19628906,0.052246094,-13.916016,-13.366699,-6.0424805,0.0,0.0,0.0,152.40784,71.900024,97.316895
1766901691498,-1.206543,0.19628906,0.052246094,-13.916016,-13.366699,-6.0424805,0.0,0.0,0.0,155.22034,71.85608,95.15259
1766901691587,-0.7402344,0.03955078,-0.27148438,41.19873,-82.39746,25.390625,0.0,0.0,0.0,155.22034,71.85608,95.15259
1766901691597,-0.7402344,0.03955078,-0.27148438,41.19873,-82.39746,25.390625,0.0,0.0,0.0,139.07043,76.64612,68.170166
1766901691686,-0.89697266,0.43603516,-0.6411133,-10.009766,-23.4375,-10.559082,0.0,0.0,0.0,139.07043,76.64612,68.170166
1766901691697,-0.89697266,0.43603516,-0.6411133,-10.009766,-23.4375,-10.559082,0.0,0.0,0.0,110.61035,78.46985,30.80017
1766901691785,-0.9501953,-0.03125,-0.3022461,-37.231445,143.31055,-62.01172,0.0,0.0,0.0,110.61035,78.46985,30.80017
1766901691797,-0.9501953,-0.03125,-0.3022461,-37.231445,143.31055,-62.01172,0.0,0.0,0.0,133.31909,75.19592,46.433716
1766901691885,-0.9814453,0.10253906,0.018066406,89.660645,-51.818848,28.320312,0.0,0.0,0.0,133.31909,75.19592,46.433716
1766901691897,-0.9814453,0.10253906,0.018066406,89.660645,-51.818848,28.320312,0.0,0.0,0.0,157.6593,68.1427,68.77991
1766901691985,-0.9707031,0.2631836,-0.3388672,44.067383,-36.743164,35.7666,0.0,0.0,0.0,157.6593,68.1427,68.77991
1766901691996,-0.9707031,0.2631836,-0.3388672,44.067383,-36.743164,35.7666,0.0,0.0,0.0,148.57361,71.45508,47.043457
1766901692085,-1.0239258,0.28808594,-0.25683594,-26.367188,35.339355,-11.291504,0.0,0.0,0.0,148.57361,71.45508,47.043457
1766901692097,-1.0239258,0.28808594,-0.25683594,-26.367188,35.339355,-11.291504,0.0,0.0,0.0,147.10144,71.26831,37.974243
1766901692184,-1.0830078,0.2783203,-0.2109375,-12.634277,-91.30859,0.24414062,0.0,0.0,0.0,147.10144,71.26831,37.974243
1766901692196,-1.0830078,0.2783203,-0.2109375,-12.634277,-91.30859,0.24414062,0.0,0.0,0.0,145.95886,72.2406,35.513306
1766901692284,-0.7397461,-0.13867188,-0.39794922,12.390137,-68.725586,-8.178711,0.0,0.0,0.0,145.95886,72.2406,35.513306
1766901692298,-0.7397461,-0.13867188,-0.39794922,12.390137,-68.725586,-8.178711,0.0,0.0,0.0,118.11951,78.00842,2.1643066
1766901692384,-0.96972656,0.12451172,-0.53466797,13.977051,83.31299,1.3427734,0.0,0.0,0.0,118.11951,78.00842,2.1643066
1766901692395,-0.96972656,0.12451172,-0.53466797,13.977051,83.31299,1.3427734,0.0,0.0,0.0,111.555176,80.40344,-2.1148682
1766901692483,-1.0136719,0.26220703,0.0107421875,-64.39209,167.05322,-36.621094,0.0,0.0,0.0,111.555176,80.40344,-2.1148682
1766901692495,-1.0136719,0.26220703,0.0107421875,-64.39209,167.05322,-36.621094,0.0,0.0,0.0,157.28027,70.96069,49.91089
1766901692583,-1.1142578,0.028808594,-0.35986328,0.9765625,-64.39209,7.2631836,0.0,0.0,0.0,157.28027,70.96069,49.91089
