timestamp,accX,accY,accZ,gyroX,gyroY,gyroZ,magX,magY,magZ,roll,pitch,yaw
1769246674465,-0.95410156,-0.04248047,0.24658203,39.916992,-5.9814453,-5.004883,0.0,0.0,0.0,14.974365,67.14844,-57.03003
1769246674476,-0.95410156,-0.04248047,0.24658203,39.916992,-5.9814453,-5.004883,0.0,0.0,0.0,17.127686,64.35791,-54.750366
1769246674565,-0.9892578,0.12695312,0.41455078,15.625,9.887695,1.8920898,0.0,0.0,0.0,17.127686,64.35791,-54.750366
1769246674576,-0.9892578,0.12695312,0.41455078,15.625,9.887695,1.8920898,0.0,0.0,0.0,19.313965,66.31897,-57.55188
1769246674664,-1.2006836,0.056152344,0.25878906,-45.59326,24.230957,27.404785,0.0,0.0,0.0,19.313965,66.31897,-57.55188
1769246674676,-1.2006836,0.056152344,0.25878906,-45.59326,24.230957,27.404785,0.0,0.0,0.0,21.07727,66.555176,-51.9104
1769246674764,-1.0073242,0.03955078,0.42285156,-47.36328,20.812988,2.2583008,0.0,0.0,0.0,21.07727,66.555176,-51.9104
1769246674778,-1.0073242,0.03955078,0.42285156,-47.36328,20.812988,2.2583008,0.0,0.0,0.0,21.791382,68.85132,-45.74707
1769246674864,-0.9194336,0.24121094,0.5029297,33.935547,55.725098,-63.659668,0.0,0.0,0.0,21.791382,68.85132,-45.74707
1769246674875,-0.9194336,0.24121094,0.5029297,33.935547,55.725098,-63.659668,0.0,0.0,0.0,14.765625,72.751465,-55.849
1769246674964,-0.73291016,0.27929688,0.5102539,80.74951,-36.071777,-12.023926,0.0,0.0,0.0,14.765625,72.751465,-55.849
1769246674975,-0.73291016,0.27929688,0.5102539,80.74951,-36.071777,-12.023926,0.0,0.0,0.0,8.426514,75.23987,-68.74695
1769246675063,-0.8886719,0.07910156,0.2006836,-51.574707,-92.163086,55.480957,0.0,0.0,0.0,8.426514,75.23987,-68.74695
1769246675075,-0.8886719,0.07910156,0.2006836,-51.574707,-92.163086,55.480957,0.0,0.0,0.0,13.392334,65.05005,-60.303955
1769246675163,-1.0620117,0.018066406,0.20117188,32.226562,12.939453,-22.155762,0.0,0.0,0.0,13.392334,65.05005,-60.303955
1769246675174,-1.0620117,0.018066406,0.20117188,32.226562,12.939453,-22.155762,0.0,0.0,0.0,13.672485,63.808594,-58.666992
1769246675262,-1.0385742,0.11816406,0.4243164,-19.042969,-1.5258789,1.8310547,0.0,0.0,0.0,13.672485,63.808594,-58.666992
1769246675274,-1.0385742,0.11816406,0.4243164,-19.042969,-1.5258789,1.8310547,0.0,0.0,0.0,12.052002,65.42908,-61.864014
1769246675362,-1.1611328,0.122558594,0.34033203,11.962891,-6.5307617,3.90625,0.0,0.0,0.0,12.052002,65.42908,-61.864014
1769246675374,-1.1611328,0.122558594,0.34033203,11.962891,-6.5307617,3.90625,0.0,0.0,0.0,12.123413,64.747925,-59.848022
1769246675462,-0.7919922,0.0078125,0.4013672,11.474609,76.416016,-27.954102,0.0,0.0,0.0,12.123413,64.747925,-59.848022
1769246675473,-0.7919922,0.0078125,0.4013672,11.474609,76.416016,-27.954102,0.0,0.0,0.0,11.876221,69.30725,-62.286987
1769246675562,-0.84228516,-0.024414062,0.53515625,16.357422,9.94873,-13.061523,0.0,0.0,0.0,11.876221,69.30725,-62.286987
1769246675573,-0.84228516,-0.024414062,0.53515625,16.357422,9.94873,-13.061523,0.0,0.0,0.0,10.360107,74.60266,-64.088745
1769246675661,-0.8144531,0.09716797,0.39648438,-11.84082,-48.88916,21.057129,0.0,0.0,0.0,10.360107,74.60266,-64.088745
1769246675673,-0.8144531,0.09716797,0.39648438,-11.84082,-48.88916,21.057129,0.0,0.0,0.0,10.074463,70.91675,-66.170654
1769246675761,-0.92285156,-0.068847656,0.21533203,-2.380371,-17.27295,12.145996,0.0,0.0,0.0,10.074463,70.91675,-66.170654
1769246675773,-0.92285156,-0.068847656,0.21533203,-2.380371,-17.27295,12.145996,0.0,0.0,0.0,11.975098,66.47278,-61.935425
1769246675861,-0.9916992,0.09765625,0.26123047,20.202637,11.71875,-0.6713867,0.0,0.0,0.0,11.975098,66.47278,-61.935425
1769246675872,-0.9916992,0.09765625,0.26123047,20.202637,11.71875,-0.6713867,0.0,0.0,0.0,13.161621,66.829834,-63.38562
1769246675960,-1.0756836,0.011230469,0.296875,-12.023926,14.526367,10.925293,0.0,0.0,0.0,13.161621,66.829834,-63.38562
1769246675972,-1.0756836,0.011230469,0.296875,-12.023926,14.526367,10.925293,0.0,0.0,0.0,15.073242,67.86255,-60.463257
1769246676060,-1.1064453,0.07080078,0.42626953,-61.523438,27.34375,26.794434,0.0,0.0,0.0,15.073242,67.86255,-60.463257
1769246676072,-1.1064453,0.07080078,0.42626953,-61.523438,27.34375,26.794434,0.0,0.0,0.0,17.660522,69.67529,-53.580322
1769246676160,-0.9526367,0.08544922,0.4248047,29.174805,36.071777,-43.518066,0.0,0.0,0.0,17.660522,69.67529,-53.580322
1769246676171,-0.9526367,0.08544922,0.4248047,29.174805,36.071777,-43.518066,0.0,0.0,0.0,15.3479,72.405396,-53.503418
1769246676260,-0.7270508,0.23730469,0.4350586,77.51465,22.277832,-46.203613,0.0,0.0,0.0,15.3479,72.405396,-53.503418
1769246676271,-0.7270508,0.23730469,0.4350586,77.51465,22.277832,-46.203613,0.0,0.0,0.0,-0.13183594,77.25037,-75.547485
1769246676359,-0.7734375,0.17871094,0.23730469,-36.56006,-88.07373,47.48535,0.0,0.0,0.0,-0.13183594,77.25037,-75.547485
1769246676371,-0.7734375,0.17871094,0.23730469,-36.56006,-88.07373,47.48535,0.0,0.0,0.0,6.124878,71.46057,-70.96069
1769246676459,-1.0649414,-0.0073242188,0.13427734,-4.1503906,2.5634766,8.483887,0.0,0.0,0.0,6.124878,71.46057,-70.96069
1769246676471,-1.0649414,-0.0073242188,0.13427734,-4.1503906,2.5634766,8.483887,0.0,0.0,0.0,11.464233,66.92322,-61.2323
1769246676559,-1.1469727,0.05078125,0.30664062,-0.4272461,4.3945312,-9.460449,0.0,0.0,0.0,11.464233,66.92322,-61.2323
1769246676570,-1.1469727,0.05078125,0.30664062,-0.4272461,4.3945312,-9.460449,0.0,0.0,0.0,10.458984,68.31299,-63.967896
1769246676658,-1.2001953,0.12695312,0.31201172,-27.770996,-3.7841797,7.080078,0.0,0.0,0.0,10.458984,68.31299,-63.967896
1769246676670,-1.2001953,0.12695312,0.31201172,-27.770996,-3.7841797,7.080078,0.0,0.0,0.0,8.970337,68.71948,-64.000854
1769246676758,-0.69970703,0.03515625,0.28759766,23.864746,40.771484,-22.216797,0.0,0.0,0.0,8.970337,68.71948,-64.000854
1769246676770,-0.69970703,0.03515625,0.28759766,23.864746,40.771484,-22.216797,0.0,0.0,0.0,9.783325,69.47754,-65.12695
1769246676858,-0.98828125,-0.123535156,0.6816406,-6.652832,38.94043,7.2631836,0.0,0.0,0.0,9.783325,69.47754,-65.12695
1769246676869,-0.98828125,-0.123535156,0.6816406,-6.652832,38.94043,7.2631836,0.0,0.0,0.0,9.074707,75.94849,-65.736694
1769246676958,-0.8203125,0.1274414,0.3515625,10.314941,-61.21826,21.606445,0.0,0.0,0.0,9.074707,75.94849,-65.736694
1769246676969,-0.8203125,0.1274414,0.3515625,10.314941,-61.21826,21.606445,0.0,0.0,0.0,10.332642,72.526245,-64.96216
1769246677057,-0.91015625,-0.095214844,0.08935547,-7.5683594,-14.526367,13.793945,0.0,0.0,0.0,10.332642,72.526245,-64.96216
1769246677069,-0.91015625,-0.095214844,0.08935547,-7.5683594,-14.526367,13.793945,0.0,0.0,0.0,13.381348,67.099,-60.8313
1769246677157,-0.93310547,0.03955078,0.37451172,16.784668,14.099121,-11.901855,0.0,0.0,0.0,13.381348,67.099,-60.8313
1769246677169,-0.93310547,0.03955078,0.37451172,16.784668,14.099121,-11.901855,0.0,0.0,0.0,13.101196,68.71399,-62.50122
1769246677257,-1.0893555,0.1171875,0.3046875,-13.793945,1.953125,15.380859,0.0,0.0,0.0,13.101196,68.71399,-62.50122
1769246677268,-1.0893555,0.1171875,0.3046875,-13.793945,1.953125,15.380859,0.0,0.0,0.0,13.864746,69.191895,-62.199097
1769246677357,-1.1259766,0.020507812,0.28710938,-29.11377,27.22168,13.183594,0.0,0.0,0.0,13.864746,69.191895,-62.199097
1769246677368,-1.1259766,0.020507812,0.28710938,-29.11377,27.22168,13.183594,0.0,0.0,0.0,16.759644,70.773926,-56.53015
1769246677456,-0.7583008,0.0126953125,0.34765625,-4.8828125,3.112793,-10.559082,0.0,0.0,0.0,16.759644,70.773926,-56.53015
1769246677468,-0.7583008,0.0126953125,0.34765625,-4.8828125,3.112793,-10.559082,0.0,0.0,0.0,17.836304,72.72949,-52.283936
1769246677556,-0.8598633,0.1796875,0.42285156,34.729004,23.742676,-41.19873,0.0,0.0,0.0,17.836304,72.72949,-52.283936
1769246677568,-0.8598633,0.1796875,0.42285156,34.729004,23.742676,-41.19873,0.0,0.0,0.0,10.019531,74.141235,-62.23755
1769246677656,-0.80322266,0.15625,0.43554688,7.5683594,-66.345215,17.028809,0.0,0.0,0.0,10.019531,74.141235,-62.23755
1769246677667,-0.80322266,0.15625,0.43554688,7.5683594,-66.345215,17.028809,0.0,0.0,0.0,6.9763184,72.855835,-70.10925
1769246677755,-0.9663086,-0.05908203,0.10644531,-14.953613,-13.427734,10.7421875,0.0,0.0,0.0,6.9763184,72.855835,-70.10925
1769246677767,-0.9663086,-0.05908203,0.10644531,-14.953613,-13.427734,10.7421875,0.0,0.0,0.0,9.486694,66.73645,-63.061523
1769246677855,-0.9824219,0.118652344,0.46142578,-14.038086,0.0,-2.0141602,0.0,0.0,0.0,9.486694,66.73645,-63.061523
1769246677867,-0.9824219,0.118652344,0.46142578,-14.038086,0.0,-2.0141602,0.0,0.0,0.0,8.7561035,67.3407,-63.87451
1769246677955,-1.1132812,0.078125,0.23339844,-43.45703,-24.475098,20.202637,0.0,0.0,0.0,8.7561035,67.3407,-63.87451
1769246677966,-1.1132812,0.078125,0.23339844,-43.45703,-24.475098,20.202637,0.0,0.0,0.0,8.76709,65.374146,-61.28174
1769246678055,-1.0102539,0.025878906,0.30859375,22.766113,31.433105,-18.615723,0.0,0.0,0.0,8.76709,65.374146,-61.28174
1769246678066,-1.0102539,0.025878906,0.30859375,22.766113,31.433105,-18.615723,0.0,0.0,0.0,8.459473,65.11047,-60.00183
1769246678154,-1.0097656,0.02734375,0.625,-11.71875,73.24219,-6.225586,0.0,0.0,0.0,8.459473,65.11047,-60.00183
1769246678166,-1.0097656,0.02734375,0.625,-11.71875,73.24219,-6.225586,0.0,0.0,0.0,5.932617,71.99341,-64.56665
1769246678254,-0.7832031,0.037597656,0.4399414,41.931152,-21.850586,0.061035156,0.0,0.0,0.0,5.932617,71.99341,-64.56665
1769246678266,-0.7832031,0.037597656,0.4399414,41.931152,-21.850586,0.061035156,0.0,0.0,0.0,6.4050293,74.349976,-63.66028
1769246678360,-0.8017578,0.05029297,0.3779297,-22.583008,-47.912598,37.353516,0.0,0.0,0.0,6.4050293,74.349976,-63.66028
1769246678366,-0.8017578,0.05029297,0.3779297,-22.583008,-47.912598,37.353516,0.0,0.0,0.0,10.964355,69.5874,-61.358643
1769246678453,-0.9477539,-0.06689453,0.22216797,-2.0141602,-23.742676,27.34375,0.0,0.0,0.0,10.964355,69.5874,-61.358643
1769246678465,-0.9477539,-0.06689453,0.22216797,-2.0141602,-23.742676,27.34375,0.0,0.0,0.0,14.919434,64.89075,-55.17334
1769246678553,-0.98583984,0.043945312,0.30322266,31.921387,21.484375,-4.638672,0.0,0.0,0.0,14.919434,64.89075,-55.17334
1769246678565,-0.98583984,0.043945312,0.30322266,31.921387,21.484375,-4.638672,0.0,0.0,0.0,17.65503,66.02234,-55.722656
1769246678653,-1.0820312,0.08496094,0.27539062,-32.165527,16.418457,19.77539,0.0,0.0,0.0,17.65503,66.02234,-55.722656
1769246678664,-1.0820312,0.08496094,0.27539062,-32.165527,16.418457,19.77539,0.0,0.0,0.0,19.352417,67.52197,-51.78955
1769246678753,-1.0776367,0.107910156,0.4423828,-49.49951,7.6293945,21.728516,0.0,0.0,0.0,19.352417,67.52197,-51.78955
1769246678764,-1.0776367,0.107910156,0.4423828,-49.49951,7.6293945,21.728516,0.0,0.0,0.0,22.109985,68.40088,-44.609985
1769246678852,-0.92529297,0.21386719,0.4501953,27.832031,33.63037,-47.180176,0.0,0.0,0.0,22.109985,68.40088,-44.609985
1769246678867,-0.92529297,0.21386719,0.4501953,27.832031,33.63037,-47.180176,0.0,0.0,0.0,18.616333,70.84534,-48.933105
1769246678952,-0.7817383,0.2368164,0.4428711,66.95557,-25.6958,-21.42334,0.0,0.0,0.0,18.616333,70.84534,-48.933105
1769246678964,-0.7817383,0.2368164,0.4428711,66.95557,-25.6958,-21.42334,0.0,0.0,0.0,13.425293,72.993164,-58.897705
1769246679052,-0.80908203,0.07714844,0.23388672,-44.98291,-65.7959,37.902832,0.0,0.0,0.0,13.425293,72.993164,-58.897705
1769246679063,-0.80908203,0.07714844,0.23388672,-44.98291,-65.7959,37.902832,0.0,0.0,0.0,14.875488,65.077515,-57.83203
1769246679152,-1.0205078,0.057128906,0.2631836,7.873535,-0.6713867,-9.70459,0.0,0.0,0.0,14.875488,65.077515,-57.83203
1769246679163,-1.0205078,0.057128906,0.2631836,7.873535,-0.6713867,-9.70459,0.0,0.0,0.0,14.051514,63.270264,-56.38733
1769246679251,-1.0239258,0.21044922,0.37939453,-15.136719,-5.3100586,-0.91552734,0.0,0.0,0.0,14.051514,63.270264,-56.38733
1769246679263,-1.0239258,0.21044922,0.37939453,-15.136719,-5.3100586,-0.91552734,0.0,0.0,0.0,11.392822,63.55591,-59.0625
1769246679351,-1.0615234,0.08496094,0.36083984,0.9765625,0.6713867,-2.9296875,0.0,0.0,0.0,11.392822,63.55591,-59.0625
1769246679362,-1.0615234,0.08496094,0.36083984,0.9765625,0.6713867,-2.9296875,0.0,0.0,0.0,10.761108,63.588867,-58.0188
1769246679451,-0.7939453,-0.029296875,0.43896484,-3.90625,66.833496,-29.11377,0.0,0.0,0.0,10.761108,63.588867,-58.0188
1769246679462,-0.7939453,-0.029296875,0.43896484,-3.90625,66.833496,-29.11377,0.0,0.0,0.0,9.129639,68.55469,-60.858765
1769246679550,-0.86621094,-0.025878906,0.5307617,27.46582,19.16504,-3.7231445,0.0,0.0,0.0,9.129639,68.55469,-60.858765
1769246679562,-0.86621094,-0.025878906,0.5307617,27.46582,19.16504,-3.7231445,0.0,0.0,0.0,7.498169,73.17444,-62.02881
1769246679650,-0.76123047,0.12011719,0.4580078,6.8359375,-33.63037,15.380859,0.0,0.0,0.0,7.498169,73.17444,-62.02881
1769246679662,-0.76123047,0.12011719,0.4580078,6.8359375,-33.63037,15.380859,0.0,0.0,0.0,9.244995,71.07605,-63.825073
1769246679750,-0.91748047,-0.03955078,0.2763672,-7.019043,-38.45215,31.00586,0.0,0.0,0.0,9.244995,71.07605,-63.825073
1769246679761,-0.91748047,-0.03955078,0.2763672,-7.019043,-38.45215,31.00586,0.0,0.0,0.0,12.892456,66.06079,-57.2937
1769246679850,-0.98876953,0.016113281,0.28955078,67.87109,14.038086,-20.690918,0.0,0.0,0.0,12.892456,66.06079,-57.2937
1769246679861,-0.98876953,0.016113281,0.28955078,67.87109,14.038086,-20.690918,0.0,0.0,0.0,15.721436,65.07202,-59.276733
1769246679949,-1.0263672,0.045410156,0.26611328,-42.114258,-9.521484,29.23584,0.0,0.0,0.0,15.721436,65.07202,-59.276733
1769246679961,-1.0263672,0.045410156,0.26611328,-42.114258,-9.521484,29.23584,0.0,0.0,0.0,17.979126,65.791626,-56.914673
1769246680049,-1.1025391,0.05078125,0.4326172,-28.259277,17.822266,6.652832,0.0,0.0,0.0,17.979126,65.791626,-56.914673
1769246680060,-1.1025391,0.05078125,0.4326172,-28.259277,17.822266,6.652832,0.0,0.0,0.0,19.379883,66.63757,-51.350098
1769246680149,-0.95214844,0.11230469,0.4638672,3.9672852,38.146973,-39.30664,0.0,0.0,0.0,19.379883,66.63757,-51.350098
1769246680160,-0.95214844,0.11230469,0.4638672,3.9672852,38.146973,-39.30664,0.0,0.0,0.0,15.073242,69.63135,-55.585327
1769246680249,-0.74560547,0.1796875,0.39746094,112.06055,6.1035156,-49.072266,0.0,0.0,0.0,15.073242,69.63135,-55.585327
1769246680260,-0.74560547,0.1796875,0.39746094,112.06055,6.1035156,-49.072266,0.0,0.0,0.0,5.619507,73.844604,-69.82361
1769246680348,-0.78222656,0.20117188,0.38916016,-32.165527,-66.101074,34.79004,0.0,0.0,0.0,5.619507,73.844604,-69.82361
1769246680360,-0.78222656,0.20117188,0.38916016,-32.165527,-66.101074,34.79004,0.0,0.0,0.0,7.6849365,69.21387,-73.361206
1769246680448,-1.0053711,-0.030761719,0.203125,-28.381348,-11.413574,22.460938,0.0,0.0,0.0,7.6849365,69.21387,-73.361206
1769246680460,-1.0053711,-0.030761719,0.203125,-28.381348,-11.413574,22.460938,0.0,0.0,0.0,11.80481,63.5614,-63.962402
1769246680548,-1.0610352,0.119628906,0.3720703,29.296875,-8.728027,-25.634766,0.0,0.0,0.0,11.80481,63.5614,-63.962402
1769246680560,-1.0610352,0.119628906,0.3720703,29.296875,-8.728027,-25.634766,0.0,0.0,0.0,10.93689,63.43506,-67.46155
1769246680647,-1.125,0.103027344,0.3486328,-10.681152,-16.723633,4.8828125,0.0,0.0,0.0,10.93689,63.43506,-67.46155
1769246680659,-1.125,0.103027344,0.3486328,-10.681152,-16.723633,4.8828125,0.0,0.0,0.0,10.239258,62.84729,-68.829346
1769246680747,-0.8222656,0.03955078,0.36035156,24.536133,71.3501,-36.132812,0.0,0.0,0.0,10.239258,62.84729,-68.829346
1769246680759,-0.8222656,0.03955078,0.36035156,24.536133,71.3501,-36.132812,0.0,0.0,0.0,8.778076,64.87427,-71.86157
1769246680847,-0.98046875,0.056152344,0.68408203,3.8452148,69.2749,-8.972168,0.0,0.0,0.0,8.778076,64.87427,-71.86157
1769246680858,-0.98046875,0.056152344,0.68408203,3.8452148,69.2749,-8.972168,0.0,0.0,0.0,3.4387207,73.88855,-78.28308
1769246680947,-0.76953125,0.10546875,0.49853516,45.22705,-43.273926,10.559082,0.0,0.0,0.0,3.4387207,73.88855,-78.28308
1769246680961,-0.76953125,0.10546875,0.49853516,45.22705,-43.273926,10.559082,0.0,0.0,0.0,5.83374,74.37744,-76.69556
1769246681046,-0.8305664,0.06542969,0.28076172,-26.550293,-68.84766,51.757812,0.0,0.0,0.0,5.83374,74.37744,-76.69556
1769246681058,-0.8305664,0.06542969,0.28076172,-26.550293,-68.84766,51.757812,0.0,0.0,0.0,13.079224,66.32446,-69.52698
1769246681146,-1.0009766,-0.1484375,0.22265625,60.546875,-12.329102,-16.723633,0.0,0.0,0.0,13.079224,66.32446,-69.52698
1769246681157,-1.0009766,-0.1484375,0.22265625,60.546875,-12.329102,-16.723633,0.0,0.0,0.0,16.364136,62.79785,-66.42883
1769246681246,-1.0629883,-0.009765625,0.33789062,-20.507812,21.850586,-2.0141602,0.0,0.0,0.0,16.364136,62.79785,-66.42883
1769246681257,-1.0629883,-0.009765625,0.33789062,-20.507812,21.850586,-2.0141602,0.0,0.0,0.0,16.051025,64.73694,-68.93921
1769246681346,-1.1816406,0.20263672,0.421875,-5.3710938,25.32959,4.333496,0.0,0.0,0.0,16.051025,64.73694,-68.93921
1769246681357,-1.1816406,0.20263672,0.421875,-5.3710938,25.32959,4.333496,0.0,0.0,0.0,15.331421,67.75818,-68.57666
1769246681445,-0.78027344,0.07421875,0.34960938,-23.31543,9.338379,-1.0375977,0.0,0.0,0.0,15.331421,67.75818,-68.57666
1769246681457,-0.78027344,0.07421875,0.34960938,-23.31543,9.338379,-1.0375977,0.0,0.0,0.0,15.1501465,69.61487,-64.6051
1769246681545,-0.94140625,0.26708984,0.4111328,5.92041,8.361816,-35.40039,0.0,0.0,0.0,15.1501465,69.61487,-64.6051
1769246681556,-0.94140625,0.26708984,0.4111328,5.92041,8.361816,-35.40039,0.0,0.0,0.0,12.200317,68.90625,-70.64758
1769246681644,-0.79003906,0.14404297,0.4453125,44.25049,-32.89795,-0.18310547,0.0,0.0,0.0,12.200317,68.90625,-70.64758
1769246681656,-0.79003906,0.14404297,0.4453125,44.25049,-32.89795,-0.18310547,0.0,0.0,0.0,11.304932,69.63684,-73.35022
1769246681745,-0.86035156,0.1171875,0.22509766,-29.663086,-33.87451,39.55078,0.0,0.0,0.0,11.304932,69.63684,-73.35022
1769246681756,-0.86035156,0.1171875,0.22509766,-29.663086,-33.87451,39.55078,0.0,0.0,0.0,14.216309,64.105225,-69.312744
1769246681844,-0.97216797,0.09863281,0.42822266,12.145996,23.986816,-9.887695,0.0,0.0,0.0,14.216309,64.105225,-69.312744
1769246681855,-0.97216797,0.09863281,0.42822266,12.145996,23.986816,-9.887695,0.0,0.0,0.0,16.704712,64.0448,-64.61609
1769246681944,-0.97802734,0.14013672,0.3076172,-2.1362305,-23.31543,8.605957,0.0,0.0,0.0,16.704712,64.0448,-64.61609
1769246681956,-0.97802734,0.14013672,0.3076172,-2.1362305,-23.31543,8.605957,0.0,0.0,0.0,17.44629,64.81384,-65.22583
1769246682043,-1.1015625,0.05908203,0.31884766,45.34912,-22.521973,-12.634277,0.0,0.0,0.0,17.44629,64.81384,-65.22583
1769246682055,-1.1015625,0.05908203,0.31884766,45.34912,-22.521973,-12.634277,0.0,0.0,0.0,16.78711,62.69348,-65.03906
1769246682143,-0.66748047,0.07373047,0.43115234,34.484863,54.748535,-65.30762,0.0,0.0,0.0,16.78711,62.69348,-65.03906
1769246682155,-0.66748047,0.07373047,0.43115234,34.484863,54.748535,-65.30762,0.0,0.0,0.0,14.370117,64.57214,-73.38318
1769246682243,-0.85302734,0.21728516,0.6748047,100.21973,-16.967773,-17.822266,0.0,0.0,0.0,14.370117,64.57214,-73.38318
1769246682254,-0.85302734,0.21728516,0.6748047,100.21973,-16.967773,-17.822266,0.0,0.0,0.0,13.688965,69.12598,-81.30432
1769246682342,-0.76708984,0.11035156,0.56591797,12.207031,-89.416504,4.5776367,0.0,0.0,0.0,13.688965,69.12598,-81.30432
1769246682354,-0.76708984,0.11035156,0.56591797,12.207031,-89.416504,4.5776367,0.0,0.0,0.0,13.381348,62.913208,-86.5448
1769246682442,-0.98828125,-0.05810547,0.39160156,7.8125,-37.719727,-7.873535,0.0,0.0,0.0,13.381348,62.913208,-86.5448
1769246682454,-0.98828125,-0.05810547,0.39160156,7.8125,-37.719727,-7.873535,0.0,0.0,0.0,12.502441,55.283203,-86.6272
1769246682542,-0.8911133,0.05078125,0.453125,30.517578,10.681152,-14.099121,0.0,0.0,0.0,12.502441,55.283203,-86.6272
1769246682554,-0.8911133,0.05078125,0.453125,30.517578,10.681152,-14.099121,0.0,0.0,0.0,12.875977,54.77234,-90.29663
1769246682642,-0.9238281,0.0068359375,0.49609375,-7.6293945,32.165527,6.591797,0.0,0.0,0.0,12.875977,54.77234,-90.29663
1769246682654,-0.9238281,0.0068359375,0.49609375,-7.6293945,32.165527,6.591797,0.0,0.0,0.0,13.447266,57.34314,-89.74182
1769246682742,-0.9975586,0.04296875,0.6665039,-60.11963,33.203125,29.35791,0.0,0.0,0.0,13.447266,57.34314,-89.74182
1769246682753,-0.9975586,0.04296875,0.6665039,-60.11963,33.203125,29.35791,0.0,0.0,0.0,14.710693,60.249023,-84.79797
1769246682841,-0.82421875,0.13769531,0.35595703,58.532715,-0.91552734,-7.9956055,0.0,0.0,0.0,14.710693,60.249023,-84.79797
1769246682853,-0.82421875,0.13769531,0.35595703,58.532715,-0.91552734,-7.9956055,0.0,0.0,0.0,14.853516,61.325684,-80.68359
1769246682941,-0.8310547,0.3227539,0.5083008,-55.17578,78.186035,-32.958984,0.0,0.0,0.0,14.853516,61.325684,-80.68359
1769246682953,-0.8310547,0.3227539,0.5083008,-55.17578,78.186035,-32.958984,0.0,0.0,0.0,9.783325,67.06055,-85.198975
1769246683041,-0.7026367,0.16015625,0.5107422,-56.762695,-4.0283203,29.418945,0.0,0.0,0.0,9.783325,67.06055,-85.198975
1769246683052,-0.7026367,0.16015625,0.5107422,-56.762695,-4.0283203,29.418945,0.0,0.0,0.0,10.096436,69.63684,-80.8374
1769246683140,-0.8198242,0.15332031,0.44580078,-74.46289,-28.808594,39.855957,0.0,0.0,0.0,10.096436,69.63684,-80.8374
1769246683152,-0.8198242,0.15332031,0.44580078,-74.46289,-28.808594,39.855957,0.0,0.0,0.0,11.859741,65.30823,-71.12549
1769246683240,-1.0717773,0.040527344,0.32373047,-77.02637,-34.362793,53.100586,0.0,0.0,0.0,11.859741,65.30823,-71.12549
1769246683251,-1.0717773,0.040527344,0.32373047,-77.02637,-34.362793,53.100586,0.0,0.0,0.0,13.139648,60.704956,-61.638794
1769246683340,-1.1166992,0.119628906,0.044433594,4.5166016,4.8217773,-0.4272461,0.0,0.0,0.0,13.139648,60.704956,-61.638794
1769246683351,-1.1166992,0.119628906,0.044433594,4.5166016,4.8217773,-0.4272461,0.0,0.0,0.0,13.980103,60.095215,-58.496704
1769246683440,-0.89746094,0.14257812,0.37451172,12.756348,42.3584,-13.793945,0.0,0.0,0.0,13.980103,60.095215,-58.496704
1769246683451,-0.89746094,0.14257812,0.37451172,12.756348,42.3584,-13.793945,0.0,0.0,0.0,14.875488,62.182617,-59.694214
1769246683539,-1.1337891,-0.07421875,0.6665039,44.98291,124.45068,-40.222168,0.0,0.0,0.0,14.875488,62.182617,-59.694214
1769246683551,-1.1337891,-0.07421875,0.6665039,44.98291,124.45068,-40.222168,0.0,0.0,0.0,16.517944,75.20691,-58.1781
1769246683639,-0.6694336,0.14697266,0.45166016,-27.038574,-50.65918,15.563965,0.0,0.0,0.0,16.517944,75.20691,-58.1781
1769246683650,-0.6694336,0.14697266,0.45166016,-27.038574,-50.65918,15.563965,0.0,0.0,0.0,12.55188,74.79492,-64.61609
1769246683739,-0.8408203,0.049804688,0.2602539,-31.677246,-71.96045,49.987793,0.0,0.0,0.0,12.55188,74.79492,-64.61609
1769246683750,-0.8408203,0.049804688,0.2602539,-31.677246,-71.96045,49.987793,0.0,0.0,0.0,15.490723,66.10474,-57.090454
1769246683838,-0.9550781,-0.04345703,0.15771484,64.27002,1.7089844,-21.606445,0.0,0.0,0.0,15.490723,66.10474,-57.090454
1769246683850,-0.9550781,-0.04345703,0.15771484,64.27002,1.7089844,-21.606445,0.0,0.0,0.0,18.138428,63.92395,-55.43152
1769246683938,-1.0512695,0.10253906,0.359375,-44.86084,12.634277,21.30127,0.0,0.0,0.0,18.138428,63.92395,-55.43152
1769246683949,-1.0512695,0.10253906,0.359375,-44.86084,12.634277,21.30127,0.0,0.0,0.0,18.901978,66.41235,-57.019043
1769246684038,-1.1083984,0.07421875,0.3725586,-59.936523,26.611328,24.963379,0.0,0.0,0.0,18.901978,66.41235,-57.019043
1769246684049,-1.1083984,0.07421875,0.3725586,-59.936523,26.611328,24.963379,0.0,0.0,0.0,20.648804,67.20886,-50.48767
1769246684138,-0.7832031,0.028320312,0.3095703,2.6855469,-3.1738281,-15.319824,0.0,0.0,0.0,20.648804,67.20886,-50.48767
1769246684149,-0.7832031,0.028320312,0.3095703,2.6855469,-3.1738281,-15.319824,0.0,0.0,0.0,18.693237,68.47778,-48.048706
1769246684237,-0.9033203,0.25097656,0.43847656,17.8833,40.100098,-39.978027,0.0,0.0,0.0,18.693237,68.47778,-48.048706
1769246684249,-0.9033203,0.25097656,0.43847656,17.8833,40.100098,-39.978027,0.0,0.0,0.0,9.805298,71.0376,-57.908936
1769246684337,-0.7475586,0.27197266,0.4091797,30.944824,-57.556152,7.019043,0.0,0.0,0.0,9.805298,71.0376,-57.908936
1769246684348,-0.7475586,0.27197266,0.4091797,30.944824,-57.556152,7.019043,0.0,0.0,0.0,9.629517,69.62036,-64.23706
1769246684437,-0.90625,-0.041503906,0.2939453,-53.527832,-27.70996,35.217285,0.0,0.0,0.0,9.629517,69.62036,-64.23706
1769246684448,-0.90625,-0.041503906,0.2939453,-53.527832,-27.70996,35.217285,0.0,0.0,0.0,12.689209,63.83606,-56.618042
1769246684536,-0.99853516,0.064941406,0.34814453,17.51709,-10.192871,-15.197754,0.0,0.0,0.0,12.689209,63.83606,-56.618042
1769246684548,-0.99853516,0.064941406,0.34814453,17.51709,-10.192871,-15.197754,0.0,0.0,0.0,12.584839,63.165894,-56.12915
1769246684636,-1.0585938,0.16601562,0.37939453,-4.0283203,-15.625,8.239746,0.0,0.0,0.0,12.584839,63.165894,-56.12915
1769246684647,-1.0585938,0.16601562,0.37939453,-4.0283203,-15.625,8.239746,0.0,0.0,0.0,12.815552,62.38037,-57.32666
1769246684736,-0.9326172,0.032226562,0.34179688,28.320312,30.822754,-30.212402,0.0,0.0,0.0,12.815552,62.38037,-57.32666
1769246684747,-0.9326172,0.032226562,0.34179688,28.320312,30.822754,-30.212402,0.0,0.0,0.0,11.958618,63.380127,-59.07898
1769246684835,-1.0151367,0.03125,0.6386719,-8.728027,73.05908,-24.902344,0.0,0.0,0.0,11.958618,63.380127,-59.07898
1769246684847,-1.0151367,0.03125,0.6386719,-8.728027,73.05908,-24.902344,0.0,0.0,0.0,6.992798,70.72998,-66.15967
1769246684935,-0.7680664,0.1616211,0.49951172,62.01172,-17.089844,-18.005371,0.0,0.0,0.0,6.992798,70.72998,-66.15967
1769246684947,-0.7680664,0.1616211,0.49951172,62.01172,-17.089844,-18.005371,0.0,0.0,0.0,4.015503,72.751465,-72.03735
1769246685035,-0.82714844,0.0078125,0.3696289,-48.217773,-65.7959,39.855957,0.0,0.0,0.0,4.015503,72.751465,-72.03735
1769246685046,-0.82714844,0.0078125,0.3696289,-48.217773,-65.7959,39.855957,0.0,0.0,0.0,7.662964,67.51648,-68.219604
1769246685135,-0.93310547,-0.16455078,0.25878906,41.56494,-7.6904297,-7.5683594,0.0,0.0,0.0,7.662964,67.51648,-68.219604
1769246685146,-0.93310547,-0.16455078,0.25878906,41.56494,-7.6904297,-7.5683594,0.0,0.0,0.0,9.475708,63.605347,-64.19861
1769246685234,-1.0283203,0.064941406,0.4399414,25.878906,19.104004,-6.8359375,0.0,0.0,0.0,9.475708,63.605347,-64.19861
1769246685246,-1.0283203,0.064941406,0.4399414,25.878906,19.104004,-6.8359375,0.0,0.0,0.0,10.008545,65.599365,-69.15344
1769246685334,-1.1318359,0.08496094,0.33007812,-31.738281,-11.779785,35.40039,0.0,0.0,0.0,10.008545,65.599365,-69.15344
1769246685346,-1.1318359,0.08496094,0.33007812,-31.738281,-11.779785,35.40039,0.0,0.0,0.0,11.854248,65.165405,-65.198364
1769246685434,-1.0136719,0.0146484375,0.4345703,-66.40625,23.31543,19.836426,0.0,0.0,0.0,11.854248,65.165405,-65.198364
1769246685445,-1.0136719,0.0146484375,0.4345703,-66.40625,23.31543,19.836426,0.0,0.0,0.0,13.397827,65.98389,-57.332153
1769246685533,-0.9375,0.14697266,0.4868164,35.7666,26.489258,-44.006348,0.0,0.0,0.0,13.397827,65.98389,-57.332153
1769246685545,-0.9375,0.14697266,0.4868164,35.7666,26.489258,-44.006348,0.0,0.0,0.0,10.821533,67.72522,-60.27649
1769246685633,-0.765625,0.2265625,0.51416016,95.03174,24.719238,-43.33496,0.0,0.0,0.0,10.821533,67.72522,-60.27649
1769246685645,-0.765625,0.2265625,0.51416016,95.03174,24.719238,-43.33496,0.0,0.0,0.0,2.5048828,73.29529,-74.349976
1769246685733,-0.8613281,0.11230469,0.37597656,-73.66943,-104.91943,50.65918,0.0,0.0,0.0,2.5048828,73.29529,-74.349976
1769246685744,-0.8613281,0.11230469,0.37597656,-73.66943,-104.91943,50.65918,0.0,0.0,0.0,7.1905518,67.18689,-70.90027
1769246685833,-0.9975586,-0.03955078,0.22802734,-5.493164,-3.2348633,14.831543,0.0,0.0,0.0,7.1905518,67.18689,-70.90027
1769246685844,-0.9975586,-0.03955078,0.22802734,-5.493164,-3.2348633,14.831543,0.0,0.0,0.0,10.134888,60.446777,-62.42981
1769246685932,-1.0522461,0.110839844,0.46777344,14.099121,13.549805,-13.793945,0.0,0.0,0.0,10.134888,60.446777,-62.42981
1769246685944,-1.0522461,0.110839844,0.46777344,14.099121,13.549805,-13.793945,0.0,0.0,0.0,10.008545,61.776123,-65.33569
1769246686032,-1.0654297,0.10595703,0.39257812,-40.161133,-3.7231445,18.310547,0.0,0.0,0.0,10.008545,61.776123,-65.33569
1769246686044,-1.0654297,0.10595703,0.39257812,-40.161133,-3.7231445,18.310547,0.0,0.0,0.0,9.431763,62.1167,-64.74243
1769246686132,-0.67529297,-0.026855469,0.328125,13.73291,73.24219,-36.071777,0.0,0.0,0.0,9.431763,62.1167,-64.74243
1769246686143,-0.67529297,-0.026855469,0.328125,13.73291,73.24219,-36.071777,0.0,0.0,0.0,8.997803,64.70398,-64.56116
1769246686232,-0.8857422,0.0048828125,0.62158203,0.7324219,31.12793,-0.91552734,0.0,0.0,0.0,8.997803,64.70398,-64.56116
1769246686244,-0.8857422,0.0048828125,0.62158203,0.7324219,31.12793,-0.91552734,0.0,0.0,0.0,5.998535,71.83411,-69.537964
1769246686331,-0.7949219,0.13916016,0.47558594,16.418457,-52.4292,18.615723,0.0,0.0,0.0,5.998535,71.83411,-69.537964
1769246686343,-0.7949219,0.13916016,0.47558594,16.418457,-52.4292,18.615723,0.0,0.0,0.0,8.283691,69.54346,-69.54895
1769246686431,-0.8666992,-0.07324219,0.23876953,-24.536133,-32.714844,31.188965,0.0,0.0,0.0,8.283691,69.54346,-69.54895
1769246686442,-0.8666992,-0.07324219,0.23876953,-24.536133,-32.714844,31.188965,0.0,0.0,0.0,12.156372,63.061523,-63.69873
1769246686531,-0.90771484,-0.03564453,0.32714844,49.926758,22.888184,-32.409668,0.0,0.0,0.0,12.156372,63.061523,-63.69873
1769246686542,-0.90771484,-0.03564453,0.32714844,49.926758,22.888184,-32.409668,0.0,0.0,0.0,12.442017,62.946167,-64.94568
1769246686630,-1.0371094,0.059570312,0.39013672,-16.601562,5.1879883,7.6904297,0.0,0.0,0.0,12.442017,62.946167,-64.94568
1769246686642,-1.0371094,0.059570312,0.39013672,-16.601562,5.1879883,7.6904297,0.0,0.0,0.0,11.711426,65.390625,-67.906494
1769246686730,-1.1162109,0.06298828,0.3623047,-33.5083,5.9814453,17.63916,0.0,0.0,0.0,11.711426,65.390625,-67.906494
1769246686741,-1.1162109,0.06298828,0.3623047,-33.5083,5.9814453,17.63916,0.0,0.0,0.0,12.073975,65.78064,-65.41809
1769246686830,-0.8691406,-0.10253906,0.31445312,-40.771484,26.672363,-1.5258789,0.0,0.0,0.0,12.073975,65.78064,-65.41809
1769246686841,-0.8691406,-0.10253906,0.31445312,-40.771484,26.672363,-1.5258789,0.0,0.0,0.0,10.799561,67.18689,-61.06201
1769246686930,-0.84277344,0.23828125,0.49658203,34.851074,55.847168,-64.331055,0.0,0.0,0.0,10.799561,67.18689,-61.06201
1769246686941,-0.84277344,0.23828125,0.49658203,34.851074,55.847168,-64.331055,0.0,0.0,0.0,3.0267334,70.15869,-72.301025
1769246687029,-0.75097656,0.18798828,0.57128906,31.982422,-13.122559,-1.4038086,0.0,0.0,0.0,3.0267334,70.15869,-72.301025
1769246687041,-0.75097656,0.18798828,0.57128906,31.982422,-13.122559,-1.4038086,0.0,0.0,0.0,-3.7573242,73.48755,-82.49634
1769246687129,-0.83203125,0.103515625,0.30517578,-41.809082,-80.322266,50.78125,0.0,0.0,0.0,-3.7573242,73.48755,-82.49634
1769246687140,-0.83203125,0.103515625,0.30517578,-41.809082,-80.322266,50.78125,0.0,0.0,0.0,3.949585,65.181885,-70.9552
1769246687229,-1.0063477,-0.012207031,0.3022461,14.587402,-8.422852,1.2817383,0.0,0.0,0.0,3.949585,65.181885,-70.9552
1769246687240,-1.0063477,-0.012207031,0.3022461,14.587402,-8.422852,1.2817383,0.0,0.0,0.0,6.668701,62.715454,-65.29724
1769246687328,-1.0561523,0.083984375,0.41455078,3.540039,-11.84082,5.432129,0.0,0.0,0.0,6.668701,62.715454,-65.29724
1769246687341,-1.0561523,0.083984375,0.41455078,3.540039,-11.84082,5.432129,0.0,0.0,0.0,7.437744,62.58362,-66.32446
1769246687428,-1.1186523,-0.0063476562,0.29052734,-5.79834,-0.061035156,11.901855,0.0,0.0,0.0,7.437744,62.58362,-66.32446
1769246687440,-1.1186523,-0.0063476562,0.29052734,-5.79834,-0.061035156,11.901855,0.0,0.0,0.0,8.063965,61.92993,-63.358154
1769246687528,-0.7758789,-0.0068359375,0.43798828,5.6152344,105.895996,-42.114258,0.0,0.0,0.0,8.063965,61.92993,-63.358154
1769246687539,-0.7758789,-0.0068359375,0.43798828,5.6152344,105.895996,-42.114258,0.0,0.0,0.0,5.493164,68.88428,-68.15918
1769246687628,-0.8144531,0.03857422,0.5859375,42.23633,14.038086,-15.136719,0.0,0.0,0.0,5.493164,68.88428,-68.15918
1769246687641,-0.8144531,0.03857422,0.5859375,42.23633,14.038086,-15.136719,0.0,0.0,0.0,1.3677979,74.95972,-74.22363
1769246687728,-0.82373047,0.107421875,0.4638672,-15.197754,-88.56201,41.44287,0.0,0.0,0.0,1.3677979,74.95972,-74.22363
1769246687739,-0.82373047,0.107421875,0.4638672,-15.197754,-88.56201,41.44287,0.0,0.0,0.0,7.7948,68.65906,-69.68628
1769246687827,-0.9658203,-0.1459961,0.2006836,-4.638672,-15.258789,24.475098,0.0,0.0,0.0,7.7948,68.65906,-69.68628
1769246687838,-0.9658203,-0.1459961,0.2006836,-4.638672,-15.258789,24.475098,0.0,0.0,0.0,12.23877,62.210083,-61.82007
1769246687927,-0.8959961,0.06542969,0.34326172,57.800293,26.123047,-29.47998,0.0,0.0,0.0,12.23877,62.210083,-61.82007
1769246687938,-0.8959961,0.06542969,0.34326172,57.800293,26.123047,-29.47998,0.0,0.0,0.0,12.88147,64.193115,-66.83533
1769246688026,-1.0366211,0.08984375,0.3984375,-6.3476562,9.216309,5.859375,0.0,0.0,0.0,12.88147,64.193115,-66.83533
1769246688038,-1.0366211,0.08984375,0.3984375,-6.3476562,9.216309,5.859375,0.0,0.0,0.0,13.161621,66.049805,-67.840576
1769246688126,-1.0039062,0.036621094,0.38183594,-31.49414,9.277344,18.981934,0.0,0.0,0.0,13.161621,66.049805,-67.840576
1769246688138,-1.0039062,0.036621094,0.38183594,-31.49414,9.277344,18.981934,0.0,0.0,0.0,16.02356,66.698,-64.30847
1769246688226,-0.84814453,-0.03466797,0.31933594,22.399902,5.126953,-23.19336,0.0,0.0,0.0,16.02356,66.698,-64.30847
1769246688237,-0.84814453,-0.03466797,0.31933594,22.399902,5.126953,-23.19336,0.0,0.0,0.0,14.397583,67.27478,-62.58362
1769246688325,-0.86279297,0.24609375,0.50097656,-1.8920898,48.828125,-42.663574,0.0,0.0,0.0,14.397583,67.27478,-62.58362
1769246688337,-0.86279297,0.24609375,0.50097656,-1.8920898,48.828125,-42.663574,0.0,0.0,0.0,6.3500977,70.20264,-74.23462
1769246688425,-0.7705078,0.13867188,0.4736328,-19.65332,-62.438965,14.343262,0.0,0.0,0.0,6.3500977,70.20264,-74.23462
1769246688437,-0.7705078,0.13867188,0.4736328,-19.65332,-62.438965,14.343262,0.0,0.0,0.0,5.0756836,69.12598,-75.71777
1769246688525,-0.89746094,0.06982422,0.30273438,-66.77246,-20.629883,40.71045,0.0,0.0,0.0,5.0756836,69.12598,-75.71777
1769246688537,-0.89746094,0.06982422,0.30273438,-66.77246,-20.629883,40.71045,0.0,0.0,0.0,8.113403,63.424072,-66.86279
1769246688625,-0.9663086,0.075683594,0.3955078,-10.070801,-4.4555664,15.136719,0.0,0.0,0.0,8.113403,63.424072,-66.86279
1769246688636,-0.9663086,0.075683594,0.3955078,-10.070801,-4.4555664,15.136719,0.0,0.0,0.0,9.733887,63.012085,-61.57837
1769246688724,-0.9682617,0.109375,0.3125,-27.34375,-27.34375,35.27832,0.0,0.0,0.0,9.733887,63.012085,-61.57837
1769246688736,-0.9682617,0.109375,0.3125,-27.34375,-27.34375,35.27832,0.0,0.0,0.0,12.183838,61.17737,-56.898193
1769246688824,-1.0756836,0.061035156,0.31201172,-13.427734,29.785156,10.620117,0.0,0.0,0.0,12.183838,61.17737,-56.898193
1769246688836,-1.0756836,0.061035156,0.31201172,-13.427734,29.785156,10.620117,0.0,0.0,0.0,13.974609,60.655518,-51.262207
1769246688924,-1.0117188,0.10058594,0.55859375,26.245117,112.54883,-33.14209,0.0,0.0,0.0,13.974609,60.655518,-51.262207
1769246688935,-1.0117188,0.10058594,0.55859375,26.245117,112.54883,-33.14209,0.0,0.0,0.0,14.348145,70.03784,-52.51465
1769246689023,-0.7753906,0.19238281,0.57128906,27.22168,-7.2631836,-2.8686523,0.0,0.0,0.0,14.348145,70.03784,-52.51465
1769246689035,-0.7753906,0.19238281,0.57128906,27.22168,-7.2631836,-2.8686523,0.0,0.0,0.0,16.083984,74.85535,-55.684204
1769246689123,-0.86083984,0.056152344,0.4165039,-15.625,-78.67432,31.860352,0.0,0.0,0.0,16.083984,74.85535,-55.684204
1769246689135,-0.86083984,0.056152344,0.4165039,-15.625,-78.67432,31.860352,0.0,0.0,0.0,16.781616,68.274536,-54.536133
1769246689223,-0.91503906,-0.064941406,0.27392578,39.42871,-24.963379,-5.1879883,0.0,0.0,0.0,16.781616,68.274536,-54.536133
1769246689234,-0.91503906,-0.064941406,0.27392578,39.42871,-24.963379,-5.1879883,0.0,0.0,0.0,17.55066,62.88025,-53.151855
1769246689323,-0.9433594,0.11816406,0.37695312,28.076172,19.836426,-9.643555,0.0,0.0,0.0,17.55066,62.88025,-53.151855
1769246689334,-0.9433594,0.11816406,0.37695312,28.076172,19.836426,-9.643555,0.0,0.0,0.0,18.050537,64.33594,-58.271484
1769246689422,-1.1254883,0.12451172,0.2915039,-19.28711,5.004883,23.68164,0.0,0.0,0.0,18.050537,64.33594,-58.271484
1769246689434,-1.1254883,0.12451172,0.2915039,-19.28711,5.004883,23.68164,0.0,0.0,0.0,18.874512,64.731445,-55.151367
1769246689522,-1.0385742,0.020507812,0.47216797,-62.01172,20.080566,18.005371,0.0,0.0,0.0,18.874512,64.731445,-55.151367
1769246689534,-1.0385742,0.020507812,0.47216797,-62.01172,20.080566,18.005371,0.0,0.0,0.0,20.324707,66.033325,-48.372803
1769246689622,-0.94677734,0.2290039,0.51416016,24.108887,23.31543,-52.001953,0.0,0.0,0.0,20.324707,66.033325,-48.372803
1769246689634,-0.94677734,0.2290039,0.51416016,24.108887,23.31543,-52.001953,0.0,0.0,0.0,15.507202,67.73071,-52.750854
1769246689722,-0.81152344,0.29833984,0.4868164,81.66504,-17.150879,-25.939941,0.0,0.0,0.0,15.507202,67.73071,-52.750854
1769246689734,-0.81152344,0.29833984,0.4868164,81.66504,-17.150879,-25.939941,0.0,0.0,0.0,10.464478,71.240845,-62.649536
1769246689821,-0.8066406,0.103515625,0.35595703,-65.73486,-62.561035,52.55127,0.0,0.0,0.0,10.464478,71.240845,-62.649536
1769246689833,-0.8066406,0.103515625,0.35595703,-65.73486,-62.561035,52.55127,0.0,0.0,0.0,13.518677,64.91272,-59.699707
1769246689921,-1.0019531,0.056152344,0.27294922,-18.005371,-1.8310547,7.6904297,0.0,0.0,0.0,13.518677,64.91272,-59.699707
1769246689933,-1.0019531,0.056152344,0.27294922,-18.005371,-1.8310547,7.6904297,0.0,0.0,0.0,14.37561,60.567627,-53.673706
1769246690021,-0.97021484,0.1875,0.39160156,4.272461,-5.2490234,-3.1738281,0.0,0.0,0.0,14.37561,60.567627,-53.673706
1769246690033,-0.97021484,0.1875,0.39160156,4.272461,-5.2490234,-3.1738281,0.0,0.0,0.0,14.144897,61.11145,-55.112915
1769246690120,-1.03125,0.115234375,0.35351562,-20.019531,-9.216309,10.925293,0.0,0.0,0.0,14.144897,61.11145,-55.112915
1769246690132,-1.03125,0.115234375,0.35351562,-20.019531,-9.216309,10.925293,0.0,0.0,0.0,14.562378,60.216064,-53.602295
1769246690220,-0.73828125,0.03857422,0.38330078,14.709473,83.984375,-39.367676,0.0,0.0,0.0,14.562378,60.216064,-53.602295
1769246690231,-0.73828125,0.03857422,0.38330078,14.709473,83.984375,-39.367676,0.0,0.0,0.0,14.61731,63.951416,-54.44275
1769246690320,-0.86328125,0.10253906,0.5932617,41.44287,41.07666,-20.507812,0.0,0.0,0.0,14.61731,63.951416,-54.44275
1769246690331,-0.86328125,0.10253906,0.5932617,41.44287,41.07666,-20.507812,0.0,0.0,0.0,14.28772,71.96045,-57.71118
1769246690419,-0.7973633,0.08984375,0.5024414,-8.544922,-64.94141,23.31543,0.0,0.0,0.0,14.28772,71.96045,-57.71118
1769246690431,-0.7973633,0.08984375,0.5024414,-8.544922,-64.94141,23.31543,0.0,0.0,0.0,15.441284,70.460815,-58.4198
1769246690519,-0.9399414,-0.025878906,0.23828125,-24.169922,-41.503906,24.780273,0.0,0.0,0.0,15.441284,70.460815,-58.4198
1769246690530,-0.9399414,-0.025878906,0.23828125,-24.169922,-41.503906,24.780273,0.0,0.0,0.0,15.534668,62.808838,-55.43701
1769246690619,-0.92822266,0.10839844,0.2319336,32.77588,13.977051,-18.798828,0.0,0.0,0.0,15.534668,62.808838,-55.43701
1769246690630,-0.92822266,0.10839844,0.2319336,32.77588,13.977051,-18.798828,0.0,0.0,0.0,15.78186,60.584106,-57.540894
1769246690718,-1.0654297,0.09814453,0.42285156,21.362305,39.79492,-20.507812,0.0,0.0,0.0,15.78186,60.584106,-57.540894
1769246690730,-1.0654297,0.09814453,0.42285156,21.362305,39.79492,-20.507812,0.0,0.0,0.0,15.968628,65.061035,-60.67749
1769246690818,-1.1132812,0.084472656,0.4428711,-41.992188,3.2348633,22.155762,0.0,0.0,0.0,15.968628,65.061035,-60.67749
1769246690830,-1.1132812,0.084472656,0.4428711,-41.992188,3.2348633,22.155762,0.0,0.0,0.0,17.248535,67.15393,-59.194336
1769246690918,-0.75146484,-0.067871094,0.31201172,-9.521484,0.7324219,-4.5166016,0.0,0.0,0.0,17.248535,67.15393,-59.194336
1769246690929,-0.75146484,-0.067871094,0.31201172,-9.521484,0.7324219,-4.5166016,0.0,0.0,0.0,15.628052,66.80237,-55.634766
1769246691018,-0.8564453,0.1899414,0.48095703,60.97412,25.756836,-53.28369,0.0,0.0,0.0,15.628052,66.80237,-55.634766
1769246691029,-0.8564453,0.1899414,0.48095703,60.97412,25.756836,-53.28369,0.0,0.0,0.0,7.734375,68.933716,-66.483765
1769246691117,-0.7578125,0.27490234,0.46826172,21.362305,-58.59375,-1.4648438,0.0,0.0,0.0,7.734375,68.933716,-66.483765
1769246691129,-0.7578125,0.27490234,0.46826172,21.362305,-58.59375,-1.4648438,0.0,0.0,0.0,6.8444824,67.994385,-75.12451
1769246691217,-0.7832031,0.015136719,0.3251953,-61.401367,-30.88379,38.57422,0.0,0.0,0.0,6.8444824,67.994385,-75.12451
1769246691229,-0.7832031,0.015136719,0.3251953,-61.401367,-30.88379,38.57422,0.0,0.0,0.0,8.00354,62.556152,-69.09302
1769246691317,-0.96777344,-0.015625,0.41308594,8.178711,-1.7089844,-6.7749023,0.0,0.0,0.0,8.00354,62.556152,-69.09302
1769246691328,-0.96777344,-0.015625,0.41308594,8.178711,-1.7089844,-6.7749023,0.0,0.0,0.0,8.410034,62.25403,-65.511475
1769246691417,-1.0063477,0.13623047,0.4482422,0.24414062,-21.42334,18.188477,0.0,0.0,0.0,8.410034,62.25403,-65.511475
1769246691428,-1.0063477,0.13623047,0.4482422,0.24414062,-21.42334,18.188477,0.0,0.0,0.0,9.299927,61.16089,-65.53345
1769246691516,-1.0317383,0.049804688,0.28222656,-9.765625,-0.6713867,18.249512,0.0,0.0,0.0,9.299927,61.16089,-65.53345
1769246691528,-1.0317383,0.049804688,0.28222656,-9.765625,-0.6713867,18.249512,0.0,0.0,0.0,11.063232,59.798584,-61.776123
1769246691616,-0.72753906,0.060058594,0.3725586,-5.004883,70.251465,-24.841309,0.0,0.0,0.0,11.063232,59.798584,-61.776123
1769246691628,-0.72753906,0.060058594,0.3725586,-5.004883,70.251465,-24.841309,0.0,0.0,0.0,10.415039,64.34143,-63.02307
1769246691715,-0.8544922,0.067871094,0.54296875,38.024902,37.719727,-21.057129,0.0,0.0,0.0,10.415039,64.34143,-63.02307
1769246691727,-0.8544922,0.067871094,0.54296875,38.024902,37.719727,-21.057129,0.0,0.0,0.0,10.17334,70.43884,-64.35242
1769246691815,-0.7841797,0.056152344,0.5283203,-20.874023,-45.776367,23.80371,0.0,0.0,0.0,10.17334,70.43884,-64.35242
1769246691827,-0.7841797,0.056152344,0.5283203,-20.874023,-45.776367,23.80371,0.0,0.0,0.0,11.348877,68.97766,-64.35791
1769246691915,-0.90625,-0.028320312,0.2524414,-7.8125,-33.63037,23.132324,0.0,0.0,0.0,11.348877,68.97766,-64.35791
1769246691926,-0.90625,-0.028320312,0.2524414,-7.8125,-33.63037,23.132324,0.0,0.0,0.0,12.084961,62.67151,-60.688477
1769246692015,-0.94921875,0.072753906,0.2763672,72.08252,32.89795,-32.043457,0.0,0.0,0.0,12.084961,62.67151,-60.688477
1769246692026,-0.94921875,0.072753906,0.2763672,72.08252,32.89795,-32.043457,0.0,0.0,0.0,14.172363,63.742676,-64.434814
1769246692114,-1.0463867,0.08984375,0.40478516,-7.9345703,1.8310547,8.483887,0.0,0.0,0.0,14.172363,63.742676,-64.434814
1769246692127,-1.0463867,0.08984375,0.40478516,-7.9345703,1.8310547,8.483887,0.0,0.0,0.0,15.996094,66.57715,-65.478516
1769246692214,-1.1787109,0.07861328,0.29638672,-31.921387,10.375977,28.015137,0.0,0.0,0.0,15.996094,66.57715,-65.478516
1769246692226,-1.1787109,0.07861328,0.29638672,-31.921387,10.375977,28.015137,0.0,0.0,0.0,18.407593,65.40161,-60.633545
1769246692314,-0.77783203,-0.014160156,0.35595703,-13.793945,21.911621,-26.855469,0.0,0.0,0.0,18.407593,65.40161,-60.633545
1769246692325,-0.77783203,-0.014160156,0.35595703,-13.793945,21.911621,-26.855469,0.0,0.0,0.0,13.331909,67.82959,-61.765137
1769246692414,-0.89208984,0.19091797,0.5,78.125,39.30664,-71.28906,0.0,0.0,0.0,13.331909,67.82959,-61.765137
1769246692425,-0.89208984,0.19091797,0.5,78.125,39.30664,-71.28906,0.0,0.0,0.0,3.8946533,72.11975,-75.651855
1769246692513,-0.7192383,0.26611328,0.45654297,18.127441,-45.59326,19.77539,0.0,0.0,0.0,3.8946533,72.11975,-75.651855
1769246692525,-0.7192383,0.26611328,0.45654297,18.127441,-45.59326,19.77539,0.0,0.0,0.0,3.4332275,71.38916,-82.716064
1769246692613,-0.8564453,0.041992188,0.25683594,-65.42969,-51.818848,56.762695,0.0,0.0,0.0,3.4332275,71.38916,-82.716064
1769246692624,-0.8564453,0.041992188,0.25683594,-65.42969,-51.818848,56.762695,0.0,0.0,0.0,9.94812,63.36914,-70.03235
1769246692713,-1.0556641,-0.0073242188,0.38476562,40.58838,-1.159668,-15.136719,0.0,0.0,0.0,9.94812,63.36914,-70.03235
1769246692724,-1.0556641,-0.0073242188,0.38476562,40.58838,-1.159668,-15.136719,0.0,0.0,0.0,12.150879,62.858276,-66.11572
1769246692812,-1.0214844,0.072265625,0.3618164,-6.7749023,-26.855469,8.483887,0.0,0.0,0.0,12.150879,62.858276,-66.11572
1769246692824,-1.0214844,0.072265625,0.3618164,-6.7749023,-26.855469,8.483887,0.0,0.0,0.0,12.645264,62.30896,-67.681274
1769246692913,-1.012207,0.08300781,0.31298828,19.042969,23.986816,-14.6484375,0.0,0.0,0.0,12.645264,62.30896,-67.681274
1769246692924,-1.012207,0.08300781,0.31298828,19.042969,23.986816,-14.6484375,0.0,0.0,0.0,12.6727295,61.226807,-66.989136
1769246693012,-1.0498047,0.03564453,0.64404297,-1.953125,129.45557,-37.231445,0.0,0.0,0.0,12.6727295,61.226807,-66.989136
1769246693023,-1.0498047,0.03564453,0.64404297,-1.953125,129.45557,-37.231445,0.0,0.0,0.0,8.377075,71.73523,-72.13074
1769246693111,-0.75439453,0.1538086,0.56591797,28.625488,-14.953613,-12.817383,0.0,0.0,0.0,8.377075,71.73523,-72.13074
1769246693123,-0.75439453,0.1538086,0.56591797,28.625488,-14.953613,-12.817383,0.0,0.0,0.0,3.010254,75.9375,-79.68384
1769246693211,-0.828125,0.11621094,0.37939453,-24.963379,-91.06445,41.015625,0.0,0.0,0.0,3.010254,75.9375,-79.68384
1769246693223,-0.828125,0.11621094,0.37939453,-24.963379,-91.06445,41.015625,0.0,0.0,0.0,8.074951,68.55469,-73.899536
1769246693311,-0.96240234,-0.1381836,0.15820312,23.68164,-15.930176,9.094238,0.0,0.0,0.0,8.074951,68.55469,-73.899536
1769246693323,-0.96240234,-0.1381836,0.15820312,23.68164,-15.930176,9.094238,0.0,0.0,0.0,12.398071,62.490234,-66.63208
1769246693411,-0.9638672,0.068359375,0.4248047,14.892578,17.028809,-6.713867,0.0,0.0,0.0,12.398071,62.490234,-66.63208
1769246693422,-0.9638672,0.068359375,0.4248047,14.892578,17.028809,-6.713867,0.0,0.0,0.0,13.617554,64.105225,-69.59839
1769246693510,-1.0395508,0.08251953,0.32666016,1.2817383,3.6010742,16.906738,0.0,0.0,0.0,13.617554,64.105225,-69.59839
1769246693522,-1.0395508,0.08251953,0.32666016,1.2817383,3.6010742,16.906738,0.0,0.0,0.0,14.820557,65.09949,-66.97815
1769246693610,-1.0209961,-0.014160156,0.41796875,-46.875,13.977051,15.563965,0.0,0.0,0.0,14.820557,65.09949,-66.97815
1769246693621,-1.0209961,-0.014160156,0.41796875,-46.875,13.977051,15.563965,0.0,0.0,0.0,17.424316,65.45105,-62.297974
1769246693710,-0.9482422,0.1171875,0.44726562,12.6953125,37.719727,-38.391113,0.0,0.0,0.0,17.424316,65.45105,-62.297974
1769246693721,-0.9482422,0.1171875,0.44726562,12.6953125,37.719727,-38.391113,0.0,0.0,0.0,14.72168,68.52722,-62.490234
1769246693809,-0.74853516,0.2602539,0.4428711,55.603027,33.75244,-45.043945,0.0,0.0,0.0,14.72168,68.52722,-62.490234
1769246693821,-0.74853516,0.2602539,0.4428711,55.603027,33.75244,-45.043945,0.0,0.0,0.0,5.855713,73.38867,-76.28906
1769246693909,-0.7817383,0.091308594,0.42578125,-52.18506,-78.91846,35.88867,0.0,0.0,0.0,5.855713,73.38867,-76.28906
1769246693921,-0.7817383,0.091308594,0.42578125,-52.18506,-78.91846,35.88867,0.0,0.0,0.0,9.041748,69.94446,-74.52576
1769246694009,-0.94970703,0.072265625,0.23242188,-39.79492,-3.8452148,32.165527,0.0,0.0,0.0,9.041748,69.94446,-74.52576
1769246694022,-0.94970703,0.072265625,0.23242188,-39.79492,-3.8452148,32.165527,0.0,0.0,0.0,11.947632,63.396606,-66.41235
1769246694108,-1.0244141,0.109375,0.39746094,31.25,-7.080078,-9.765625,0.0,0.0,0.0,11.947632,63.396606,-66.41235
1769246694121,-1.0244141,0.109375,0.39746094,31.25,-7.080078,-9.765625,0.0,0.0,0.0,13.150635,63.775635,-65.43457
1769246694208,-1.1157227,-0.017578125,0.107910156,-5.2490234,-12.817383,2.0141602,0.0,0.0,0.0,13.150635,63.775635,-65.43457
1769246694220,-1.1157227,-0.017578125,0.107910156,-5.2490234,-12.817383,2.0141602,0.0,0.0,0.0,13.485718,62.962646,-66.02234
1769246694309,-0.98291016,0.115722656,0.48095703,21.606445,12.145996,-15.136719,0.0,0.0,0.0,13.485718,62.962646,-66.02234
1769246694320,-0.98291016,0.115722656,0.48095703,21.606445,12.145996,-15.136719,0.0,0.0,0.0,14.249268,62.836304,-67.00012
1769246694408,-0.93115234,0.14746094,0.5917969,30.151367,75.43945,-22.399902,0.0,0.0,0.0,14.249268,62.836304,-67.00012
1769246694419,-0.93115234,0.14746094,0.5917969,30.151367,75.43945,-22.399902,0.0,0.0,0.0,12.189331,68.774414,-70.339966
1769246694507,-0.7841797,0.17089844,0.5551758,2.6245117,-31.860352,15.625,0.0,0.0,0.0,12.189331,68.774414,-70.339966
1769246694519,-0.7841797,0.17089844,0.5551758,2.6245117,-31.860352,15.625,0.0,0.0,0.0,14.150391,71.60339,-69.51599
1769246694607,-0.8334961,0.017578125,0.20605469,-38.391113,-60.85205,41.809082,0.0,0.0,0.0,14.150391,71.60339,-69.51599
1769246694618,-0.8334961,0.017578125,0.20605469,-38.391113,-60.85205,41.809082,0.0,0.0,0.0,16.00708,64.27002,-64.24805
1769246694707,-0.875,-0.022460938,0.2421875,39.123535,29.23584,-26.000977,0.0,0.0,0.0,16.00708,64.27002,-64.24805
1769246694718,-0.875,-0.022460938,0.2421875,39.123535,29.23584,-26.000977,0.0,0.0,0.0,17.297974,62.578125,-62.957153
1769246694807,-0.98583984,0.1171875,0.45996094,-4.638672,5.2490234,3.4179688,0.0,0.0,0.0,17.297974,62.578125,-62.957153
1769246694818,-0.98583984,0.1171875,0.45996094,-4.638672,5.2490234,3.4179688,0.0,0.0,0.0,17.918701,65.60486,-64.90723
1769246694906,-1.0361328,0.16357422,0.2788086,4.4555664,2.0141602,20.202637,0.0,0.0,0.0,17.918701,65.60486,-64.90723
1769246694918,-1.0361328,0.16357422,0.2788086,4.4555664,2.0141602,20.202637,0.0,0.0,0.0,20.429077,65.72571,-62.561646
1769246695006,-1.0327148,0.045898438,0.33251953,-43.273926,-6.958008,32.77588,0.0,0.0,0.0,20.429077,65.72571,-62.561646
1769246695018,-1.0327148,0.045898438,0.33251953,-43.273926,-6.958008,32.77588,0.0,0.0,0.0,24.417114,64.02832,-56.189575
1769246695106,-0.9433594,0.037597656,0.4501953,6.8969727,26.550293,-20.263672,0.0,0.0,0.0,24.417114,64.02832,-56.189575
1769246695117,-0.9433594,0.037597656,0.4501953,6.8969727,26.550293,-20.263672,0.0,0.0,0.0,23.950195,65.22034,-51.635742
1769246695205,-0.87646484,0.28710938,0.5253906,46.569824,47.36328,-71.96045,0.0,0.0,0.0,23.950195,65.22034,-51.635742
1769246695219,-0.87646484,0.28710938,0.5253906,46.569824,47.36328,-71.96045,0.0,0.0,0.0,16.776123,70.894775,-64.16565
1769246695305,-0.7675781,0.17236328,0.421875,-13.549805,-79.10156,18.249512,0.0,0.0,0.0,16.776123,70.894775,-64.16565
1769246695317,-0.7675781,0.17236328,0.421875,-13.549805,-79.10156,18.249512,0.0,0.0,0.0,13.024292,69.955444,-70.4718
1769246695405,-0.78466797,0.115234375,0.22607422,-57.617188,-41.748047,41.68701,0.0,0.0,0.0,13.024292,69.955444,-70.4718
1769246695416,-0.78466797,0.115234375,0.22607422,-57.617188,-41.748047,41.68701,0.0,0.0,0.0,14.024048,61.968384,-65.03906
1769246695505,-0.9916992,0.07861328,0.35742188,9.216309,25.939941,-8.666992,0.0,0.0,0.0,14.024048,61.968384,-65.03906
1769246695516,-0.9916992,0.07861328,0.35742188,9.216309,25.939941,-8.666992,0.0,0.0,0.0,14.100952,63.19336,-61.97937
1769246695604,-1.0942383,0.12597656,0.30517578,-0.48828125,-5.92041,1.4648438,0.0,0.0,0.0,14.100952,63.19336,-61.97937
1769246695616,-1.0942383,0.12597656,0.30517578,-0.48828125,-5.92041,1.4648438,0.0,0.0,0.0,14.0625,64.15466,-63.517456
1769246695704,-1.1264648,0.048339844,0.28125,10.559082,-10.559082,-6.5307617,0.0,0.0,0.0,14.0625,64.15466,-63.517456
1769246695715,-1.1264648,0.048339844,0.28125,10.559082,-10.559082,-6.5307617,0.0,0.0,0.0,13.271484,63.90747,-64.16565
1769246695804,-0.7475586,0.001953125,0.3959961,-37.841797,113.464355,-27.404785,0.0,0.0,0.0,13.271484,63.90747,-64.16565
1769246695815,-0.7475586,0.001953125,0.3959961,-37.841797,113.464355,-27.404785,0.0,0.0,0.0,10.074463,70.09827,-66.52222
1769246695904,-0.8022461,0.087890625,0.61376953,69.51904,15.136719,-39.55078,0.0,0.0,0.0,10.074463,70.09827,-66.52222
1769246695915,-0.8022461,0.087890625,0.61376953,69.51904,15.136719,-39.55078,0.0,0.0,0.0,0.9063721,78.17322,-78.17322
1769246696004,-0.8491211,0.119628906,0.4267578,-55.05371,-90.75928,45.043945,0.0,0.0,0.0,0.9063721,78.17322,-78.17322
1769246696015,-0.8491211,0.119628906,0.4267578,-55.05371,-90.75928,45.043945,0.0,0.0,0.0,5.0646973,71.40564,-72.89429
1769246696103,-0.9501953,-0.110839844,0.114746094,-0.30517578,-22.216797,16.540527,0.0,0.0,0.0,5.0646973,71.40564,-72.89429
1769246696114,-0.9501953,-0.110839844,0.114746094,-0.30517578,-22.216797,16.540527,0.0,0.0,0.0,9.920654,64.506226,-64.02283
1769246696202,-0.9824219,0.045898438,0.33447266,28.076172,30.151367,-12.268066,0.0,0.0,0.0,9.920654,64.506226,-64.02283
1769246696215,-0.9824219,0.045898438,0.33447266,28.076172,30.151367,-12.268066,0.0,0.0,0.0,10.925903,66.80237,-67.95593
1769246696302,-1.0805664,0.027832031,0.29541016,-10.620117,12.939453,16.906738,0.0,0.0,0.0,10.925903,66.80237,-67.95593
1769246696314,-1.0805664,0.027832031,0.29541016,-10.620117,12.939453,16.906738,0.0,0.0,0.0,11.975098,68.395386,-64.93469
1769246696402,-1.0419922,-0.001953125,0.29638672,-37.41455,14.953613,17.578125,0.0,0.0,0.0,11.975098,68.395386,-64.93469
1769246696413,-1.0419922,-0.001953125,0.29638672,-37.41455,14.953613,17.578125,0.0,0.0,0.0,14.743652,69.70825,-59.82605
1769246696502,-0.859375,0.08691406,0.36523438,0.61035156,7.9956055,-12.512207,0.0,0.0,0.0,14.743652,69.70825,-59.82605
1769246696513,-0.859375,0.08691406,0.36523438,0.61035156,7.9956055,-12.512207,0.0,0.0,0.0,14.523926,71.07605,-57.474976
1769246696601,-0.8461914,0.1821289,0.4482422,35.40039,41.3208,-43.029785,0.0,0.0,0.0,14.523926,71.07605,-57.474976
1769246696613,-0.8461914,0.1821289,0.4482422,35.40039,41.3208,-43.029785,0.0,0.0,0.0,6.7510986,74.11377,-67.961426
1769246696701,-0.78515625,0.10107422,0.421875,-31.188965,-68.359375,25.268555,0.0,0.0,0.0,6.7510986,74.11377,-67.961426
1769246696713,-0.78515625,0.10107422,0.421875,-31.188965,-68.359375,25.268555,0.0,0.0,0.0,6.8884277,71.6803,-70.92224
1769246696801,-0.94970703,0.07910156,0.20898438,-30.395508,-15.50293,21.484375,0.0,0.0,0.0,6.8884277,71.6803,-70.92224
1769246696812,-0.94970703,0.07910156,0.20898438,-30.395508,-15.50293,21.484375,0.0,0.0,0.0,10.101929,65.687256,-63.61084
1769246696900,-1.1367188,0.07519531,0.44677734,12.145996,-2.2583008,-9.399414,0.0,0.0,0.0,10.101929,65.687256,-63.61084
1769246696912,-1.1367188,0.07519531,0.44677734,12.145996,-2.2583008,-9.399414,0.0,0.0,0.0,9.629517,66.19263,-64.29199
1769246697000,-1.1806641,-0.036621094,0.05078125,-12.939453,-7.8125,1.2817383,0.0,0.0,0.0,9.629517,66.19263,-64.29199
1769246697012,-1.1806641,-0.036621094,0.05078125,-12.939453,-7.8125,1.2817383,0.0,0.0,0.0,8.849487,65.20935,-64.989624
1769246697100,-0.8588867,0.08496094,0.3642578,21.484375,42.84668,-27.893066,0.0,0.0,0.0,8.849487,65.20935,-64.989624
1769246697111,-0.8588867,0.08496094,0.3642578,21.484375,42.84668,-27.893066,0.0,0.0,0.0,7.536621,66.698,-68.48877
1769246697200,-1.0356445,0.07861328,0.68310547,7.8125,81.11572,-10.620117,0.0,0.0,0.0,7.536621,66.698,-68.48877
1769246697211,-1.0356445,0.07861328,0.68310547,7.8125,81.11572,-10.620117,0.0,0.0,0.0,2.1258545,75.26184,-75.19043
1769246697299,-0.7602539,0.13671875,0.4794922,14.831543,-48.950195,23.620605,0.0,0.0,0.0,2.1258545,75.26184,-75.19043
1769246697311,-0.7602539,0.13671875,0.4794922,14.831543,-48.950195,23.620605,0.0,0.0,0.0,6.5478516,74.62463,-71.96594
1769246697399,-0.8696289,0.021484375,0.32373047,0.8544922,-68.17627,41.931152,0.0,0.0,0.0,6.5478516,74.62463,-71.96594
1769246697411,-0.8696289,0.021484375,0.32373047,0.8544922,-68.17627,41.931152,0.0,0.0,0.0,13.842773,67.06604,-63.863525
1769246697499,-1.0566406,-0.087890625,0.15478516,32.470703,7.6293945,-0.24414062,0.0,0.0,0.0,13.842773,67.06604,-63.863525
1769246697510,-1.0566406,-0.087890625,0.15478516,32.470703,7.6293945,-0.24414062,0.0,0.0,0.0,16.902466,64.03931,-61.18286
1769246697598,-1.0126953,0.122558594,0.39501953,11.352539,5.554199,-0.30517578,0.0,0.0,0.0,16.902466,64.03931,-61.18286
1769246697610,-1.0126953,0.122558594,0.39501953,11.352539,5.554199,-0.30517578,0.0,0.0,0.0,18.19336,65.76416,-61.270752
1769246697698,-1.1376953,0.11621094,0.33154297,4.3945312,-4.0893555,17.456055,0.0,0.0,0.0,18.19336,65.76416,-61.270752
1769246697710,-1.1376953,0.11621094,0.33154297,4.3945312,-4.0893555,17.456055,0.0,0.0,0.0,20.714722,66.49475,-59.798584
1769246697798,-0.94970703,0.060058594,0.4140625,-31.61621,6.958008,12.145996,0.0,0.0,0.0,20.714722,66.49475,-59.798584
1769246697809,-0.94970703,0.060058594,0.4140625,-31.61621,6.958008,12.145996,0.0,0.0,0.0,22.51648,66.14319,-54.816284
1769246697898,-0.9472656,0.2939453,0.47851562,35.40039,14.526367,-48.706055,0.0,0.0,0.0,22.51648,66.14319,-54.816284
1769246697909,-0.9472656,0.2939453,0.47851562,35.40039,14.526367,-48.706055,0.0,0.0,0.0,19.989624,67.247314,-60.479736
1769246697997,-0.72753906,0.21777344,0.4482422,53.100586,0.36621094,-18.859863,0.0,0.0,0.0,19.989624,67.247314,-60.479736
1769246698009,-0.72753906,0.21777344,0.4482422,53.100586,0.36621094,-18.859863,0.0,0.0,0.0,16.375122,70.25757,-67.51099
1769246698097,-0.82714844,0.19824219,0.2915039,-33.996582,-71.59424,35.7666,0.0,0.0,0.0,16.375122,70.25757,-67.51099
1769246698109,-0.82714844,0.19824219,0.2915039,-33.996582,-71.59424,35.7666,0.0,0.0,0.0,17.144165,64.627075,-66.43982
1769246698197,-0.9291992,0.11279297,0.3486328,25.390625,6.3476562,-10.314941,0.0,0.0,0.0,17.144165,64.627075,-66.43982
1769246698208,-0.9291992,0.11279297,0.3486328,25.390625,6.3476562,-10.314941,0.0,0.0,0.0,17.979126,61.446533,-63.41858
1769246698297,-1.0219727,0.106933594,0.34716797,-6.652832,-12.817383,5.554199,0.0,0.0,0.0,17.979126,61.446533,-63.41858
1769246698308,-1.0219727,0.106933594,0.34716797,-6.652832,-12.817383,5.554199,0.0,0.0,0.0,18.347168,62.127686,-65.181885
1769246698396,-1.0712891,0.09277344,0.32421875,-3.7231445,-2.6245117,7.9345703,0.0,0.0,0.0,18.347168,62.127686,-65.181885
1769246698408,-1.0712891,0.09277344,0.32421875,-3.7231445,-2.6245117,7.9345703,0.0,0.0,0.0,17.775879,61.28723,-62.874756
1769246698496,-0.70166016,0.032226562,0.41455078,15.319824,82.39746,-41.809082,0.0,0.0,0.0,17.775879,61.28723,-62.874756
1769246698508,-0.70166016,0.032226562,0.41455078,15.319824,82.39746,-41.809082,0.0,0.0,0.0,18.275757,65.20935,-64.87427
1769246698596,-0.87939453,0.045410156,0.6147461,-2.5634766,-5.9814453,6.164551,0.0,0.0,0.0,18.275757,65.20935,-64.87427
1769246698607,-0.87939453,0.045410156,0.6147461,-2.5634766,-5.9814453,6.164551,0.0,0.0,0.0,20.31372,71.25183,-63.198853
1769246698695,-0.7895508,0.13916016,0.4165039,-23.254395,-48.950195,31.311035,0.0,0.0,0.0,20.31372,71.25183,-63.198853
1769246698708,-0.7895508,0.13916016,0.4165039,-23.254395,-48.950195,31.311035,0.0,0.0,0.0,20.022583,67.005615,-63.4021
1769246698795,-0.8261719,0.015136719,0.30810547,-32.226562,-4.760742,28.686523,0.0,0.0,0.0,20.022583,67.005615,-63.4021
1769246698807,-0.8261719,0.015136719,0.30810547,-32.226562,-4.760742,28.686523,0.0,0.0,0.0,20.280762,62.20459,-58.78235
1769246698895,-0.93652344,0.15478516,0.38916016,30.273438,13.793945,-0.9765625,0.0,0.0,0.0,20.280762,62.20459,-58.78235
1769246698906,-0.93652344,0.15478516,0.38916016,30.273438,13.793945,-0.9765625,0.0,0.0,0.0,22.664795,62.89673,-56.398315
1769246698995,-1.0444336,0.125,0.35058594,-15.014648,4.9438477,27.282715,0.0,0.0,0.0,22.664795,62.89673,-56.398315
1769246699006,-1.0444336,0.125,0.35058594,-15.014648,4.9438477,27.282715,0.0,0.0,0.0,26.466064,63.572388,-53.48694
1769246699094,-1.1035156,0.16552734,0.3071289,-16.052246,9.338379,19.226074,0.0,0.0,0.0,26.466064,63.572388,-53.48694
1769246699106,-1.1035156,0.16552734,0.3071289,-16.052246,9.338379,19.226074,0.0,0.0,0.0,29.525757,63.132935,-48.845215
1769246699194,-0.83154297,0.079589844,0.38183594,-36.865234,34.362793,-7.6904297,0.0,0.0,0.0,29.525757,63.132935,-48.845215
1769246699205,-0.83154297,0.079589844,0.38183594,-36.865234,34.362793,-7.6904297,0.0,0.0,0.0,29.84436,64.74243,-43.97827
1769246699294,-0.93847656,0.4345703,0.54345703,59.631348,35.949707,-88.92822,0.0,0.0,0.0,29.84436,64.74243,-43.97827
1769246699305,-0.93847656,0.4345703,0.54345703,59.631348,35.949707,-88.92822,0.0,0.0,0.0,25.889282,69.88953,-54.16809
1769246699393,-0.71191406,0.28808594,0.40625,39.733887,-41.748047,10.986328,0.0,0.0,0.0,25.889282,69.88953,-54.16809
1769246699405,-0.71191406,0.28808594,0.40625,39.733887,-41.748047,10.986328,0.0,0.0,0.0,20.588379,71.87805,-63.8031
1769246699493,-0.86376953,0.16308594,0.23828125,-55.29785,-69.94629,58.288574,0.0,0.0,0.0,20.588379,71.87805,-63.8031
1769246699504,-0.86376953,0.16308594,0.23828125,-55.29785,-69.94629,58.288574,0.0,0.0,0.0,21.807861,63.33069,-59.485474
1769246699593,-0.96533203,0.10107422,0.30126953,-1.3427734,19.77539,0.4272461,0.0,0.0,0.0,21.807861,63.33069,-59.485474
1769246699604,-0.96533203,0.10107422,0.30126953,-1.3427734,19.77539,0.4272461,0.0,0.0,0.0,22.769165,60.545654,-54.82727
1769246699692,-0.9946289,0.14453125,0.4169922,5.9814453,-8.483887,-15.50293,0.0,0.0,0.0,22.769165,60.545654,-54.82727
1769246699704,-0.9946289,0.14453125,0.4169922,5.9814453,-8.483887,-15.50293,0.0,0.0,0.0,21.637573,62.86377,-57.908936
1769246699792,-1.1152344,0.15722656,0.24658203,-11.59668,-31.066895,12.573242,0.0,0.0,0.0,21.637573,62.86377,-57.908936
1769246699804,-1.1152344,0.15722656,0.24658203,-11.59668,-31.066895,12.573242,0.0,0.0,0.0,18.896484,61.018066,-58.200073
1769246699892,-0.6821289,0.111328125,0.36376953,2.6855469,73.73047,-46.63086,0.0,0.0,0.0,18.896484,61.018066,-58.200073
1769246699903,-0.6821289,0.111328125,0.36376953,2.6855469,73.73047,-46.63086,0.0,0.0,0.0,18.407593,63.28125,-61.951904
1769246699992,-0.9008789,0.096191406,0.7392578,-2.319336,48.40088,-8.728027,0.0,0.0,0.0,18.407593,63.28125,-61.951904
1769246700003,-0.9008789,0.096191406,0.7392578,-2.319336,48.40088,-8.728027,0.0,0.0,0.0,19.98413,72.13623,-62.160645
1769246700091,-0.7832031,0.19384766,0.49853516,-14.831543,-62.25586,33.447266,0.0,0.0,0.0,19.98413,72.13623,-62.160645
1769246700103,-0.7832031,0.19384766,0.49853516,-14.831543,-62.25586,33.447266,0.0,0.0,0.0,20.324707,68.09326,-61.572876
1769246700191,-0.87402344,-0.038085938,0.1640625,-47.546387,-13.000488,34.240723,0.0,0.0,0.0,20.324707,68.09326,-61.572876
1769246700203,-0.87402344,-0.038085938,0.1640625,-47.546387,-13.000488,34.240723,0.0,0.0,0.0,20.357666,61.798096,-56.085205
1769246700291,-0.9223633,0.115234375,0.3852539,49.316406,27.22168,-23.68164,0.0,0.0,0.0,20.357666,61.798096,-56.085205
1769246700302,-0.9223633,0.115234375,0.3852539,49.316406,27.22168,-23.68164,0.0,0.0,0.0,21.895752,64.281006,-57.41455
1769246700391,-0.9980469,0.16357422,0.2890625,-5.1879883,2.6245117,17.76123,0.0,0.0,0.0,21.895752,64.281006,-57.41455
1769246700402,-0.9980469,0.16357422,0.2890625,-5.1879883,2.6245117,17.76123,0.0,0.0,0.0,24.093018,65.423584,-55.634766
1769246700490,-1.0732422,0.05810547,0.34033203,-10.559082,2.5634766,8.239746,0.0,0.0,0.0,24.093018,65.423584,-55.634766
1769246700502,-1.0732422,0.05810547,0.34033203,-10.559082,2.5634766,8.239746,0.0,0.0,0.0,26.998901,65.54443,-51.80603
1769246700590,-0.7919922,0.09082031,0.36523438,14.526367,7.446289,-14.038086,0.0,0.0,0.0,26.998901,65.54443,-51.80603
1769246700602,-0.7919922,0.09082031,0.36523438,14.526367,7.446289,-14.038086,0.0,0.0,0.0,25.268555,66.79138,-50.92163
1769246700690,-0.88427734,0.47021484,0.4897461,7.019043,24.047852,-48.217773,0.0,0.0,0.0,25.268555,66.79138,-50.92163
1769246700701,-0.88427734,0.47021484,0.4897461,7.019043,24.047852,-48.217773,0.0,0.0,0.0,19.385376,69.104004,-63.17688
1769246700789,-0.7836914,0.24023438,0.41308594,21.1792,-44.921875,4.9438477,0.0,0.0,0.0,19.385376,69.104004,-63.17688
1769246700801,-0.7836914,0.24023438,0.41308594,21.1792,-44.921875,4.9438477,0.0,0.0,0.0,18.759155,68.428345,-66.09375
1769246700889,-0.87353516,0.11376953,0.18945312,-39.123535,-32.287598,30.456543,0.0,0.0,0.0,18.759155,68.428345,-66.09375
1769246700901,-0.87353516,0.11376953,0.18945312,-39.123535,-32.287598,30.456543,0.0,0.0,0.0,19.187622,62.69348,-62.473755
1769246700989,-0.97021484,0.14355469,0.42578125,23.07129,17.822266,-20.874023,0.0,0.0,0.0,19.187622,62.69348,-62.473755
1769246701001,-0.97021484,0.14355469,0.42578125,23.07129,17.822266,-20.874023,0.0,0.0,0.0,19.555664,63.704224,-61.60034
1769246701089,-0.9819336,0.06347656,0.2626953,-14.526367,-6.286621,-0.48828125,0.0,0.0,0.0,19.555664,63.704224,-61.60034
1769246701100,-0.9819336,0.06347656,0.2626953,-14.526367,-6.286621,-0.48828125,0.0,0.0,0.0,18.781128,64.42932,-63.479004
1769246701188,-1.1323242,0.13427734,0.4248047,23.925781,-4.9438477,-7.5683594,0.0,0.0,0.0,18.781128,64.42932,-63.479004
1769246701200,-1.1323242,0.13427734,0.4248047,23.925781,-4.9438477,-7.5683594,0.0,0.0,0.0,17.698975,63.97339,-63.68225
1769246701288,-0.8774414,0.16113281,0.5136719,18.920898,78.49121,-34.484863,0.0,0.0,0.0,17.698975,63.97339,-63.68225
1769246701299,-0.8774414,0.16113281,0.5136719,18.920898,78.49121,-34.484863,0.0,0.0,0.0,16.75415,68.89526,-67.14844
1769246701388,-0.7573242,0.16845703,0.54345703,-3.9672852,-14.770508,4.760742,0.0,0.0,0.0,16.75415,68.89526,-67.14844
1769246701399,-0.7573242,0.16845703,0.54345703,-3.9672852,-14.770508,4.760742,0.0,0.0,0.0,16.748657,72.42737,-67.94495
1769246701488,-0.84716797,0.047851562,0.30810547,-56.33545,-70.67871,48.40088,0.0,0.0,0.0,16.748657,72.42737,-67.94495
1769246701499,-0.84716797,0.047851562,0.30810547,-56.33545,-70.67871,48.40088,0.0,0.0,0.0,18.347168,64.852295,-63.187866
1769246701587,-0.9111328,-0.08691406,0.2109375,34.362793,20.751953,-15.441895,0.0,0.0,0.0,18.347168,64.852295,-63.187866
1769246701599,-0.9111328,-0.08691406,0.2109375,34.362793,20.751953,-15.441895,0.0,0.0,0.0,18.869019,62.98462,-60.5896
1769246701687,-0.93310547,0.10595703,0.47265625,-7.9345703,7.019043,3.7841797,0.0,0.0,0.0,18.869019,62.98462,-60.5896
1769246701698,-0.93310547,0.10595703,0.47265625,-7.9345703,7.019043,3.7841797,0.0,0.0,0.0,19.79187,65.83557,-62.314453
1769246701786,-1.0629883,0.11230469,0.21679688,2.6245117,0.7324219,14.160156,0.0,0.0,0.0,19.79187,65.83557,-62.314453
1769246701798,-1.0629883,0.11230469,0.21679688,2.6245117,0.7324219,14.160156,0.0,0.0,0.0,20.527954,65.85205,-60.216064
1769246701886,-1.1035156,0.07763672,0.48242188,-50.964355,20.141602,14.221191,0.0,0.0,0.0,20.527954,65.85205,-60.216064
1769246701898,-1.1035156,0.07763672,0.48242188,-50.964355,20.141602,14.221191,0.0,0.0,0.0,22.538452,66.15967,-56.19507
1769246701986,-0.9321289,0.2421875,0.4970703,58.044434,-7.5683594,-51.696777,0.0,0.0,0.0,22.538452,66.15967,-56.19507
1769246701997,-0.9321289,0.2421875,0.4970703,58.044434,-7.5683594,-51.696777,0.0,0.0,0.0,20.341187,67.43408,-60.342407
1769246702086,-0.7373047,0.21533203,0.4584961,41.56494,23.620605,-25.878906,0.0,0.0,0.0,20.341187,67.43408,-60.342407
1769246702097,-0.7373047,0.21533203,0.4584961,41.56494,23.620605,-25.878906,0.0,0.0,0.0,14.37561,70.40588,-69.400635
1769246702185,-0.7973633,0.21044922,0.34570312,-57.617188,-74.035645,39.611816,0.0,0.0,0.0,14.37561,70.40588,-69.400635
1769246702197,-0.7973633,0.21044922,0.34570312,-57.617188,-74.035645,39.611816,0.0,0.0,0.0,15.177612,66.121216,-69.30176
1769246702285,-0.90771484,0.091308594,0.2626953,-15.74707,2.1972656,20.385742,0.0,0.0,0.0,15.177612,66.121216,-69.30176
1769246702296,-0.90771484,0.091308594,0.2626953,-15.74707,2.1972656,20.385742,0.0,0.0,0.0,16.171875,60.22705,-62.962646
1769246702385,-1.0761719,0.17871094,0.49121094,4.5166016,7.6293945,6.8359375,0.0,0.0,0.0,16.171875,60.22705,-62.962646
1769246702396,-1.0761719,0.17871094,0.49121094,4.5166016,7.6293945,6.8359375,0.0,0.0,0.0,18.85254,61.968384,-61.605835
1769246702484,-1.1206055,0.14501953,0.25927734,-24.414062,-12.573242,25.146484,0.0,0.0,0.0,18.85254,61.968384,-61.605835
1769246702496,-1.1206055,0.14501953,0.25927734,-24.414062,-12.573242,25.146484,0.0,0.0,0.0,18.57788,61.155396,-58.480225
1769246702584,-0.7192383,0.09375,0.40185547,5.859375,72.99805,-39.245605,0.0,0.0,0.0,18.57788,61.155396,-58.480225
1769246702596,-0.7192383,0.09375,0.40185547,5.859375,72.99805,-39.245605,0.0,0.0,0.0,20.286255,63.02307,-58.50769
1769246702684,-0.9736328,0.2133789,0.7207031,26.916504,44.433594,-12.817383,0.0,0.0,0.0,20.286255,63.02307,-58.50769
1769246702695,-0.9736328,0.2133789,0.7207031,26.916504,44.433594,-12.817383,0.0,0.0,0.0,22.126465,72.38342,-59.65027
1769246702784,-0.8364258,0.20898438,0.49902344,-53.03955,-60.97412,38.391113,0.0,0.0,0.0,22.126465,72.38342,-59.65027
1769246702795,-0.8364258,0.20898438,0.49902344,-53.03955,-60.97412,38.391113,0.0,0.0,0.0,22.055054,69.22485,-59.853516
1769246702883,-0.87109375,-0.04638672,0.16259766,-29.296875,-16.235352,25.57373,0.0,0.0,0.0,22.055054,69.22485,-59.853516
1769246702895,-0.87109375,-0.04638672,0.16259766,-29.296875,-16.235352,25.57373,0.0,0.0,0.0,20.857544,62.166138,-54.662476
1769246702983,-0.89501953,0.110839844,0.34472656,56.762695,26.489258,-26.672363,0.0,0.0,0.0,20.857544,62.166138,-54.662476
1769246702995,-0.89501953,0.110839844,0.34472656,56.762695,26.489258,-26.672363,0.0,0.0,0.0,22.088013,63.76465,-55.99182
1769246703083,-1.0380859,0.15332031,0.32714844,-15.991211,8.239746,14.953613,0.0,0.0,0.0,22.088013,63.76465,-55.99182
1769246703094,-1.0380859,0.15332031,0.32714844,-15.991211,8.239746,14.953613,0.0,0.0,0.0,24.14795,66.154175,-56.44226
1769246703182,-1.0869141,0.13574219,0.30126953,-22.705078,2.9907227,20.568848,0.0,0.0,0.0,24.14795,66.154175,-56.44226
1769246703194,-1.0869141,0.13574219,0.30126953,-22.705078,2.9907227,20.568848,0.0,0.0,0.0,26.328735,65.753174,-52.5531
1769246703282,-0.77001953,0.0073242188,0.31347656,11.474609,8.972168,-16.479492,0.0,0.0,0.0,26.328735,65.753174,-52.5531
1769246703294,-0.77001953,0.0073242188,0.31347656,11.474609,8.972168,-16.479492,0.0,0.0,0.0,26.608887,66.066284,-48.762817
1769246703382,-0.84716797,0.33984375,0.48242188,29.663086,32.77588,-49.987793,0.0,0.0,0.0,26.608887,66.066284,-48.762817
1769246703394,-0.84716797,0.33984375,0.48242188,29.663086,32.77588,-49.987793,0.0,0.0,0.0,21.00586,69.14795,-59.177856
1769246703482,-0.7885742,0.22851562,0.4868164,15.869141,-47.302246,6.4697266,0.0,0.0,0.0,21.00586,69.14795,-59.177856
1769246703493,-0.7885742,0.22851562,0.4868164,15.869141,-47.302246,6.4697266,0.0,0.0,0.0,18.945923,70.31799,-64.83032
1769246703581,-0.8911133,0.18457031,0.1586914,-58.532715,-52.67334,40.222168,0.0,0.0,0.0,18.945923,70.31799,-64.83032
1769246703593,-0.8911133,0.18457031,0.1586914,-58.532715,-52.67334,40.222168,0.0,0.0,0.0,17.435303,62.22107,-63.149414
1769246703681,-0.97021484,0.1538086,0.42871094,39.855957,18.859863,-31.00586,0.0,0.0,0.0,17.435303,62.22107,-63.149414
1769246703693,-0.97021484,0.1538086,0.42871094,39.855957,18.859863,-31.00586,0.0,0.0,0.0,17.764893,62.270508,-61.474
1769246703781,-1.0175781,0.107421875,0.3359375,-21.30127,-5.004883,1.5869141,0.0,0.0,0.0,17.764893,62.270508,-61.474
1769246703793,-1.0175781,0.107421875,0.3359375,-21.30127,-5.004883,1.5869141,0.0,0.0,0.0,17.22107,63.45703,-63.638306
1769246703880,-1.1386719,0.08203125,0.3178711,12.878418,-2.2583008,2.0751953,0.0,0.0,0.0,17.22107,63.45703,-63.638306
1769246703892,-1.1386719,0.08203125,0.3178711,12.878418,-2.2583008,2.0751953,0.0,0.0,0.0,16.721191,62.633057,-62.061768
1769246703980,-0.7451172,0.095214844,0.44091797,18.432617,96.19141,-40.649414,0.0,0.0,0.0,16.721191,62.633057,-62.061768
1769246703992,-0.7451172,0.095214844,0.44091797,18.432617,96.19141,-40.649414,0.0,0.0,0.0,16.298218,68.64258,-65.10498
1769246704080,-0.7763672,0.11621094,0.57177734,8.056641,-12.512207,5.9814453,0.0,0.0,0.0,16.298218,68.64258,-65.10498
1769246704091,-0.7763672,0.11621094,0.57177734,8.056641,-12.512207,5.9814453,0.0,0.0,0.0,17.363892,73.29529,-65.253296
1769246704179,-0.8120117,0.08935547,0.37304688,-43.70117,-70.80078,46.203613,0.0,0.0,0.0,17.363892,73.29529,-65.253296
1769246704191,-0.8120117,0.08935547,0.37304688,-43.70117,-70.80078,46.203613,0.0,0.0,0.0,18.572388,66.0553,-61.92444
1769246704279,-0.91064453,-0.08691406,0.19677734,-4.5166016,3.112793,7.9956055,0.0,0.0,0.0,18.572388,66.0553,-61.92444
1769246704291,-0.91064453,-0.08691406,0.19677734,-4.5166016,3.112793,7.9956055,0.0,0.0,0.0,18.869019,62.089233,-58.167114
1769246704379,-0.98339844,0.14404297,0.4794922,20.141602,28.015137,-14.831543,0.0,0.0,0.0,18.869019,62.089233,-58.167114
1769246704391,-0.98339844,0.14404297,0.4794922,20.141602,28.015137,-14.831543,0.0,0.0,0.0,19.841309,65.357666,-60.238037
1769246704479,-1.0268555,0.103027344,0.19433594,-10.7421875,0.4272461,19.65332,0.0,0.0,0.0,19.841309,65.357666,-60.238037
1769246704490,-1.0268555,0.103027344,0.19433594,-10.7421875,0.4272461,19.65332,0.0,0.0,0.0,21.401367,66.11023,-57.81006
1769246704578,-1.0874023,0.13720703,0.5288086,-23.31543,14.160156,20.202637,0.0,0.0,0.0,21.401367,66.11023,-57.81006
1769246704590,-1.0874023,0.13720703,0.5288086,-23.31543,14.160156,20.202637,0.0,0.0,0.0,24.609375,65.80261,-53.40454
1769246704678,-0.9008789,0.25976562,0.48583984,74.46289,-11.474609,-45.10498,0.0,0.0,0.0,24.609375,65.80261,-53.40454
1769246704690,-0.9008789,0.25976562,0.48583984,74.46289,-11.474609,-45.10498,0.0,0.0,0.0,24.109497,67.109985,-57.55188
1769246704778,-0.7426758,0.1743164,0.4086914,30.273438,-1.4038086,-5.432129,0.0,0.0,0.0,24.109497,67.109985,-57.55188
1769246704789,-0.7426758,0.1743164,0.4086914,30.273438,-1.4038086,-5.432129,0.0,0.0,0.0,19.379883,67.9834,-63.078003
1769246704877,-0.7524414,0.26123047,0.31298828,-28.442383,-46.50879,26.123047,0.0,0.0,0.0,19.379883,67.9834,-63.078003
1769246704889,-0.7524414,0.26123047,0.31298828,-28.442383,-46.50879,26.123047,0.0,0.0,0.0,19.907227,63.830566,-64.86328
1769246704977,-0.9243164,0.16748047,0.31445312,-8.605957,9.216309,7.080078,0.0,0.0,0.0,19.907227,63.830566,-64.86328
1769246704989,-0.9243164,0.16748047,0.31445312,-8.605957,9.216309,7.080078,0.0,0.0,0.0,20.3302,60.776367,-60.551147
1769246705077,-1.0039062,0.18652344,0.48046875,19.53125,4.5166016,-7.385254,0.0,0.0,0.0,20.3302,60.776367,-60.551147
1769246705088,-1.0039062,0.18652344,0.48046875,19.53125,4.5166016,-7.385254,0.0,0.0,0.0,21.97815,63.26477,-61.04004
1769246705177,-1.1464844,0.10546875,0.24072266,-43.395996,-23.010254,22.033691,0.0,0.0,0.0,21.97815,63.26477,-61.04004
1769246705188,-1.1464844,0.10546875,0.24072266,-43.395996,-23.010254,22.033691,0.0,0.0,0.0,21.071777,61.226807,-59.891968
1769246705276,-0.9550781,0.13134766,0.4633789,34.973145,35.40039,-31.066895,0.0,0.0,0.0,21.071777,61.226807,-59.891968
1769246705288,-0.9550781,0.13134766,0.4633789,34.973145,35.40039,-31.066895,0.0,0.0,0.0,21.192627,61.6333,-60.281982
1769246705376,-1.0322266,0.19482422,0.7294922,35.339355,75.927734,-38.94043,0.0,0.0,0.0,21.192627,61.6333,-60.281982
1769246705388,-1.0322266,0.19482422,0.7294922,35.339355,75.927734,-38.94043,0.0,0.0,0.0,19.660034,71.63635,-64.42932
1769246705476,-0.7084961,0.24707031,0.47753906,19.226074,-41.56494,2.1972656,0.0,0.0,0.0,19.660034,71.63635,-64.42932
1769246705488,-0.7084961,0.24707031,0.47753906,19.226074,-41.56494,2.1972656,0.0,0.0,0.0,17.671509,71.09802,-67.8241
1769246705576,-0.8364258,0.16796875,0.32226562,-68.96973,-66.40625,56.70166,0.0,0.0,0.0,17.671509,71.09802,-67.8241
1769246705587,-0.8364258,0.16796875,0.32226562,-68.96973,-66.40625,56.70166,0.0,0.0,0.0,18.440552,63.588867,-62.990112
1769246705675,-0.94384766,-0.041503906,0.29882812,36.865234,4.3945312,-5.7373047,0.0,0.0,0.0,18.440552,63.588867,-62.990112
1769246705688,-0.94384766,-0.041503906,0.29882812,36.865234,4.3945312,-5.7373047,0.0,0.0,0.0,20.407104,60.66101,-57.38159
1769246705775,-0.9794922,0.19677734,0.46679688,11.413574,27.832031,5.004883,0.0,0.0,0.0,20.407104,60.66101,-57.38159
1769246705787,-0.9794922,0.19677734,0.46679688,11.413574,27.832031,5.004883,0.0,0.0,0.0,23.400879,63.98987,-58.502197
1769246705875,-1.1049805,0.14111328,0.29003906,5.1879883,-7.873535,25.939941,0.0,0.0,0.0,23.400879,63.98987,-58.502197
1769246705886,-1.1049805,0.14111328,0.29003906,5.1879883,-7.873535,25.939941,0.0,0.0,0.0,26.30127,63.517456,-54.365845
1769246705974,-1.0263672,0.072265625,0.48388672,-53.344727,25.939941,8.117676,0.0,0.0,0.0,26.30127,63.517456,-54.365845
1769246705986,-1.0263672,0.072265625,0.48388672,-53.344727,25.939941,8.117676,0.0,0.0,0.0,27.89978,63.85254,-49.63623
1769246706074,-0.9658203,0.22949219,0.5336914,39.855957,22.888184,-63.11035,0.0,0.0,0.0,27.89978,63.85254,-49.63623
1769246706085,-0.9658203,0.22949219,0.5336914,39.855957,22.888184,-63.11035,0.0,0.0,0.0,25.72998,66.708984,-54.228516
1769246706174,-0.7163086,0.27539062,0.43652344,69.51904,13.305664,-30.456543,0.0,0.0,0.0,25.72998,66.708984,-54.228516
1769246706185,-0.7163086,0.27539062,0.43652344,69.51904,13.305664,-30.456543,0.0,0.0,0.0,19.786377,71.57593,-64.26453
1769246706273,-0.8432617,0.2607422,0.3334961,-72.265625,-82.88574,51.696777,0.0,0.0,0.0,19.786377,71.57593,-64.26453
1769246706285,-0.8432617,0.2607422,0.3334961,-72.265625,-82.88574,51.696777,0.0,0.0,0.0,20.379639,66.170654,-64.57214
1769246706373,-0.97509766,0.099121094,0.20361328,-17.578125,7.1411133,15.686035,0.0,0.0,0.0,20.379639,66.170654,-64.57214
1769246706385,-0.97509766,0.099121094,0.20361328,-17.578125,7.1411133,15.686035,0.0,0.0,0.0,20.352173,59.414062,-58.38684
1769246706473,-1.0424805,0.16796875,0.4609375,24.597168,12.145996,-18.310547,0.0,0.0,0.0,20.352173,59.414062,-58.38684
1769246706484,-1.0424805,0.16796875,0.4609375,24.597168,12.145996,-18.310547,0.0,0.0,0.0,22.148438,62.42981,-59.331665
1769246706573,-1.1269531,0.10449219,0.2944336,-39.245605,-13.000488,15.50293,0.0,0.0,0.0,22.148438,62.42981,-59.331665
1769246706584,-1.1269531,0.10449219,0.2944336,-39.245605,-13.000488,15.50293,0.0,0.0,0.0,21.19812,62.451782,-58.963623
1769246706672,-0.69677734,0.08544922,0.37353516,20.629883,44.311523,-33.935547,0.0,0.0,0.0,21.19812,62.451782,-58.963623
1769246706684,-0.69677734,0.08544922,0.37353516,20.629883,44.311523,-33.935547,0.0,0.0,0.0,21.126709,63.275757,-60.358887
1769246706772,-0.94970703,0.18261719,0.65478516,47.302246,59.99756,-33.87451,0.0,0.0,0.0,21.126709,63.275757,-60.358887
1769246706783,-0.94970703,0.18261719,0.65478516,47.302246,59.99756,-33.87451,0.0,0.0,0.0,20.632324,72.10327,-62.60559
1769246706872,-0.74316406,0.19824219,0.5024414,-26.550293,-64.39209,37.78076,0.0,0.0,0.0,20.632324,72.10327,-62.60559
1769246706883,-0.74316406,0.19824219,0.5024414,-26.550293,-64.39209,37.78076,0.0,0.0,0.0,21.099243,70.31799,-63.05603
1769246706971,-0.8823242,-0.041992188,0.16503906,-41.259766,-31.799316,38.085938,0.0,0.0,0.0,21.099243,70.31799,-63.05603
1769246706983,-0.8823242,-0.041992188,0.16503906,-41.259766,-31.799316,38.085938,0.0,0.0,0.0,20.786133,61.869507,-57.227783
1769246707071,-0.9116211,0.10107422,0.3359375,37.963867,25.268555,-19.65332,0.0,0.0,0.0,20.786133,61.869507,-57.227783
1769246707083,-0.9116211,0.10107422,0.3359375,37.963867,25.268555,-19.65332,0.0,0.0,0.0,22.747192,61.968384,-57.128906
1769246707171,-1.0083008,0.07324219,0.34423828,-10.314941,5.79834,12.817383,0.0,0.0,0.0,22.747192,61.968384,-57.128906
1769246707182,-1.0083008,0.07324219,0.34423828,-10.314941,5.79834,12.817383,0.0,0.0,0.0,24.494019,64.53369,-55.90393
1769246707271,-1.1274414,0.107421875,0.38867188,-36.193848,4.1503906,17.089844,0.0,0.0,0.0,24.494019,64.53369,-55.90393
1769246707282,-1.1274414,0.107421875,0.38867188,-36.193848,4.1503906,17.089844,0.0,0.0,0.0,25.581665,64.09424,-53.168335
1769246707370,-0.79296875,0.16552734,0.41064453,65.12451,-9.033203,-35.64453,0.0,0.0,0.0,25.581665,64.09424,-53.168335
1769246707382,-0.79296875,0.16552734,0.41064453,65.12451,-9.033203,-35.64453,0.0,0.0,0.0,23.81836,64.68201,-53.151855
1769246707470,-0.77441406,0.359375,0.43164062,18.920898,17.8833,-32.592773,0.0,0.0,0.0,23.81836,64.68201,-53.151855
1769246707482,-0.77441406,0.359375,0.43164062,18.920898,17.8833,-32.592773,0.0,0.0,0.0,17.72644,67.142944,-64.09424
1769246707570,-0.7675781,0.2705078,0.4008789,-15.563965,-48.461914,19.348145,0.0,0.0,0.0,17.72644,67.142944,-64.09424
1769246707581,-0.7675781,0.2705078,0.4008789,-15.563965,-48.461914,19.348145,0.0,0.0,0.0,18.17688,65.71472,-66.34094
1769246707669,-0.9267578,0.17138672,0.28222656,-20.874023,-27.954102,22.827148,0.0,0.0,0.0,18.17688,65.71472,-66.34094
1769246707682,-0.9267578,0.17138672,0.28222656,-20.874023,-27.954102,22.827148,0.0,0.0,0.0,18.638306,59.935913,-61.792603
1769246707769,-1.0014648,0.15917969,0.4248047,31.677246,7.385254,-17.150879,0.0,0.0,0.0,18.638306,59.935913,-61.792603
1769246707781,-1.0014648,0.15917969,0.4248047,31.677246,7.385254,-17.150879,0.0,0.0,0.0,20.011597,60.441284,-61.501465
1769246707869,-1.078125,0.17285156,0.3173828,-43.70117,-13.122559,22.094727,0.0,0.0,0.0,20.011597,60.441284,-61.501465
1769246707880,-1.078125,0.17285156,0.3173828,-43.70117,-13.122559,22.094727,0.0,0.0,0.0,20.159912,60.490723,-61.517944
1769246707969,-1.0581055,0.13378906,0.52001953,31.555176,13.916016,-19.40918,0.0,0.0,0.0,20.159912,60.490723,-61.517944
1769246707980,-1.0581055,0.13378906,0.52001953,31.555176,13.916016,-19.40918,0.0,0.0,0.0,20.159912,60.408325,-61.14441
1769246708068,-0.8911133,0.24560547,0.6635742,30.273438,75.13428,-11.59668,0.0,0.0,0.0,20.159912,60.408325,-61.14441
1769246708080,-0.8911133,0.24560547,0.6635742,30.273438,75.13428,-11.59668,0.0,0.0,0.0,21.329956,68.04932,-63.215332
1769246708168,-0.6845703,0.13964844,0.5214844,-14.526367,-28.320312,14.160156,0.0,0.0,0.0,21.329956,68.04932,-63.215332
1769246708179,-0.6845703,0.13964844,0.5214844,-14.526367,-28.320312,14.160156,0.0,0.0,0.0,22.769165,66.96167,-61.04004
1769246708268,-0.8208008,0.08691406,0.45898438,-30.944824,-35.583496,29.724121,0.0,0.0,0.0,22.769165,66.96167,-61.04004
1769246708279,-0.8208008,0.08691406,0.45898438,-30.944824,-35.583496,29.724121,0.0,0.0,0.0,22.225342,62.094727,-58.134155
1769246708367,-0.9394531,0.11230469,0.41015625,9.765625,-13.977051,13.793945,0.0,0.0,0.0,22.225342,62.094727,-58.134155
1769246708379,-0.9394531,0.11230469,0.41015625,9.765625,-13.977051,13.793945,0.0,0.0,0.0,22.615356,59.397583,-56.013794
1769246708467,-0.9770508,0.13378906,0.3256836,33.203125,0.30517578,3.9672852,0.0,0.0,0.0,22.615356,59.397583,-56.013794
1769246708479,-0.9770508,0.13378906,0.3256836,33.203125,0.30517578,3.9672852,0.0,0.0,0.0,25.559692,58.842773,-55.876465
1769246708567,-1.1254883,0.021972656,0.56347656,-48.76709,15.869141,11.291504,0.0,0.0,0.0,25.559692,58.842773,-55.876465
1769246708578,-1.1254883,0.021972656,0.56347656,-48.76709,15.869141,11.291504,0.0,0.0,0.0,27.702026,59.523926,-53.5968
1769246708666,-0.8173828,0.104003906,0.36132812,67.19971,-3.90625,-37.04834,0.0,0.0,0.0,27.702026,59.523926,-53.5968
1769246708678,-0.8173828,0.104003906,0.36132812,67.19971,-3.90625,-37.04834,0.0,0.0,0.0,25.768433,61.06201,-54.821777
1769246708766,-0.6933594,0.38916016,0.36621094,27.22168,37.04834,-51.26953,0.0,0.0,0.0,25.768433,61.06201,-54.821777
1769246708778,-0.6933594,0.38916016,0.36621094,27.22168,37.04834,-51.26953,0.0,0.0,0.0,20.099487,65.29175,-65.42908
1769246708866,-0.83691406,0.40429688,0.53808594,-14.465332,-4.5166016,-2.5024414,0.0,0.0,0.0,20.099487,65.29175,-65.42908
1769246708877,-0.83691406,0.40429688,0.53808594,-14.465332,-4.5166016,-2.5024414,0.0,0.0,0.0,20.863037,67.56592,-67.86804
1769246708966,-0.87890625,0.24023438,0.5024414,-39.30664,-55.480957,35.461426,0.0,0.0,0.0,20.863037,67.56592,-67.86804
1769246708977,-0.87890625,0.24023438,0.5024414,-39.30664,-55.480957,35.461426,0.0,0.0,0.0,20.429077,62.265015,-64.72595
1769246709065,-1.0595703,0.057128906,0.22705078,-38.513184,-33.447266,30.944824,0.0,0.0,0.0,20.429077,62.265015,-64.72595
1769246709077,-1.0595703,0.057128906,0.22705078,-38.513184,-33.447266,30.944824,0.0,0.0,0.0,19.605103,56.0083,-60.249023
1769246709165,-1.1601562,0.12548828,0.31640625,7.507324,10.437012,-13.48877,0.0,0.0,0.0,19.605103,56.0083,-60.249023
1769246709176,-1.1601562,0.12548828,0.31640625,7.507324,10.437012,-13.48877,0.0,0.0,0.0,20.12146,56.30493,-60.26001
1769246709265,-0.74121094,0.07373047,0.43408203,-21.362305,72.81494,-37.109375,0.0,0.0,0.0,20.12146,56.30493,-60.26001
1769246709276,-0.74121094,0.07373047,0.43408203,-21.362305,72.81494,-37.109375,0.0,0.0,0.0,18.69873,60.386353,-63.446045
1769246709365,-1.0024414,0.25830078,0.67822266,104.73633,87.46338,-67.56592,0.0,0.0,0.0,18.69873,60.386353,-63.446045
1769246709376,-1.0024414,0.25830078,0.67822266,104.73633,87.46338,-67.56592,0.0,0.0,0.0,15.710449,72.79541,-70.43335
1769246709464,-0.7895508,0.16748047,0.5678711,-60.791016,-68.17627,47.424316,0.0,0.0,0.0,15.710449,72.79541,-70.43335
1769246709476,-0.7895508,0.16748047,0.5678711,-60.791016,-68.17627,47.424316,0.0,0.0,0.0,16.259766,71.746216,-69.45007
1769246709564,-0.81591797,0.033691406,0.15283203,-57.434082,-65.61279,55.847168,0.0,0.0,0.0,16.259766,71.746216,-69.45007
1769246709576,-0.81591797,0.033691406,0.15283203,-57.434082,-65.61279,55.847168,0.0,0.0,0.0,17.133179,60.342407,-61.07849
1769246709664,-0.9536133,0.04345703,0.2626953,59.631348,14.160156,-18.493652,0.0,0.0,0.0,17.133179,60.342407,-61.07849
1769246709675,-0.9536133,0.04345703,0.2626953,59.631348,14.160156,-18.493652,0.0,0.0,0.0,20.31372,58.97461,-59.666748
1769246709763,-1.0541992,0.080566406,0.42236328,-12.573242,32.77588,8.911133,0.0,0.0,0.0,20.31372,58.97461,-59.666748
1769246709775,-1.0541992,0.080566406,0.42236328,-12.573242,32.77588,8.911133,0.0,0.0,0.0,23.060303,63.204346,-57.96936
1769246709863,-0.99072266,0.107910156,0.47851562,-19.65332,2.746582,11.047363,0.0,0.0,0.0,23.060303,63.204346,-57.96936
1769246709874,-0.99072266,0.107910156,0.47851562,-19.65332,2.746582,11.047363,0.0,0.0,0.0,24.570923,63.759155,-56.002808
1769246709963,-0.8076172,0.08251953,0.46826172,71.899414,12.268066,-35.583496,0.0,0.0,0.0,24.570923,63.759155,-56.002808
1769246709975,-0.8076172,0.08251953,0.46826172,71.899414,12.268066,-35.583496,0.0,0.0,0.0,24.521484,65.23682,-55.7666
1769246710062,-0.7910156,0.37597656,0.4560547,30.395508,-0.12207031,-19.77539,0.0,0.0,0.0,24.521484,65.23682,-55.7666
1769246710074,-0.7910156,0.37597656,0.4560547,30.395508,-0.12207031,-19.77539,0.0,0.0,0.0,18.841553,68.13721,-66.42883
1769246710162,-0.8051758,0.27197266,0.36865234,-39.42871,-63.293457,41.56494,0.0,0.0,0.0,18.841553,68.13721,-66.42883
1769246710174,-0.8051758,0.27197266,0.36865234,-39.42871,-63.293457,41.56494,0.0,0.0,0.0,20.687256,63.53943,-65.5719
1769246710262,-0.9160156,0.052734375,0.22949219,-19.16504,11.84082,13.73291,0.0,0.0,0.0,20.687256,63.53943,-65.5719
1769246710273,-0.9160156,0.052734375,0.22949219,-19.16504,11.84082,13.73291,0.0,0.0,0.0,21.549683,59.155884,-59.47998
1769246710365,-0.9399414,0.17773438,0.47021484,2.2583008,12.634277,-8.178711,0.0,0.0,0.0,21.549683,59.155884,-59.47998
1769246710373,-0.9399414,0.17773438,0.47021484,2.2583008,12.634277,-8.178711,0.0,0.0,0.0,22.18689,61.671753,-59.468994
1769246710462,-1.0048828,0.14794922,0.23388672,-32.226562,-14.6484375,13.793945,0.0,0.0,0.0,22.18689,61.671753,-59.468994
1769246710473,-1.0048828,0.14794922,0.23388672,-32.226562,-14.6484375,13.793945,0.0,0.0,0.0,21.351929,61.171875,-58.601074
1769246710561,-0.96435547,0.13623047,0.43115234,36.43799,21.30127,-24.353027,0.0,0.0,0.0,21.351929,61.171875,-58.601074
1769246710572,-0.96435547,0.13623047,0.43115234,36.43799,21.30127,-24.353027,0.0,0.0,0.0,19.868774,61.550903,-59.16687
1769246710661,-0.9736328,0.16699219,0.61279297,43.640137,117.126465,-53.16162,0.0,0.0,0.0,19.868774,61.550903,-59.16687
1769246710672,-0.9736328,0.16699219,0.61279297,43.640137,117.126465,-53.16162,0.0,0.0,0.0,19.47876,70.7135,-62.929688
1769246710760,-0.72265625,0.18457031,0.5283203,-35.88867,-58.10547,23.80371,0.0,0.0,0.0,19.47876,70.7135,-62.929688
1769246710772,-0.72265625,0.18457031,0.5283203,-35.88867,-58.10547,23.80371,0.0,0.0,0.0,18.555908,72.86133,-65.21484
1769246710860,-0.8310547,0.04248047,0.21044922,-59.143066,-60.913086,54.6875,0.0,0.0,0.0,18.555908,72.86133,-65.21484
1769246710872,-0.8310547,0.04248047,0.21044922,-59.143066,-60.913086,54.6875,0.0,0.0,0.0,18.171387,63.31421,-58.535156
1769246710960,-0.97753906,0.08251953,0.2241211,50.964355,9.277344,-18.615723,0.0,0.0,0.0,18.171387,63.31421,-58.535156
1769246710971,-0.97753906,0.08251953,0.2241211,50.964355,9.277344,-18.615723,0.0,0.0,0.0,19.841309,61.452026,-56.4917
1769246711059,-1.0024414,0.092285156,0.42773438,-2.8686523,24.597168,1.4648438,0.0,0.0,0.0,19.841309,61.452026,-56.4917
1769246711072,-1.0024414,0.092285156,0.42773438,-2.8686523,24.597168,1.4648438,0.0,0.0,0.0,21.758423,64.80286,-57.420044
1769246711159,-1.144043,0.16845703,0.3125,-31.677246,10.864258,23.07129,0.0,0.0,0.0,21.758423,64.80286,-57.420044
1769246711171,-1.144043,0.16845703,0.3125,-31.677246,10.864258,23.07129,0.0,0.0,0.0,23.983154,65.74219,-53.860474
1769246711259,-0.79833984,0.022949219,0.27148438,16.601562,29.052734,-20.812988,0.0,0.0,0.0,23.983154,65.74219,-53.860474
1769246711270,-0.79833984,0.022949219,0.27148438,16.601562,29.052734,-20.812988,0.0,0.0,0.0,24.752197,67.59888,-48.90564
1769246711364,-0.96484375,0.24316406,0.5551758,-2.9907227,40.283203,-61.645508,0.0,0.0,0.0,24.752197,67.59888,-48.90564
1769246711372,-0.96484375,0.24316406,0.5551758,-2.9907227,40.283203,-61.645508,0.0,0.0,0.0,16.155396,71.658325,-61.534424
1769246711458,-0.7553711,0.16113281,0.49072266,54.19922,-37.109375,-2.1362305,0.0,0.0,0.0,16.155396,71.658325,-61.534424
1769246711470,-0.7553711,0.16113281,0.49072266,54.19922,-37.109375,-2.1362305,0.0,0.0,0.0,10.38208,74.608154,-69.86206
1769246711558,-0.8334961,0.20458984,0.25683594,-67.62695,-62.805176,59.753418,0.0,0.0,0.0,10.38208,74.608154,-69.86206
1769246711570,-0.8334961,0.20458984,0.25683594,-67.62695,-62.805176,59.753418,0.0,0.0,0.0,13.205566,66.51123,-64.86328
1769246711658,-1.0581055,-4.8828125E-4,0.30810547,-4.638672,26.489258,-2.6855469,0.0,0.0,0.0,13.205566,66.51123,-64.86328
1769246711669,-1.0581055,-4.8828125E-4,0.30810547,-4.638672,26.489258,-2.6855469,0.0,0.0,0.0,15.457764,64.89075,-55.772095
1769246711758,-1.1245117,-0.03515625,0.13623047,-7.5683594,-10.070801,1.6479492,0.0,0.0,0.0,15.457764,64.89075,-55.772095
1769246711769,-1.1245117,-0.03515625,0.13623047,-7.5683594,-10.070801,1.6479492,0.0,0.0,0.0,15.57312,65.95093,-58.74939
1769246711857,-1.1787109,0.16357422,0.42041016,12.878418,14.099121,-22.460938,0.0,0.0,0.0,15.57312,65.95093,-58.74939
1769246711869,-1.1787109,0.16357422,0.42041016,12.878418,14.099121,-22.460938,0.0,0.0,0.0,13.348389,65.6488,-61.045532
1769246711957,-0.81591797,0.013671875,0.48046875,-16.906738,120.05615,-37.109375,0.0,0.0,0.0,13.348389,65.6488,-61.045532
1769246711969,-0.81591797,0.013671875,0.48046875,-16.906738,120.05615,-37.109375,0.0,0.0,0.0,8.893433,73.33374,-65.97839
1769246712057,-0.7451172,0.10205078,0.48388672,23.498535,-26.428223,-10.559082,0.0,0.0,0.0,8.893433,73.33374,-65.97839
1769246712068,-0.7451172,0.10205078,0.48388672,23.498535,-26.428223,-10.559082,0.0,0.0,0.0,2.307129,78.78845,-73.2074
1769246712156,-0.84765625,0.10498047,0.3100586,-29.47998,-89.47754,51.086426,0.0,0.0,0.0,2.307129,78.78845,-73.2074
1769246712168,-0.84765625,0.10498047,0.3100586,-29.47998,-89.47754,51.086426,0.0,0.0,0.0,7.943115,71.520996,-67.230835
1769246712256,-1.012207,-0.13134766,0.103027344,3.6621094,-33.63037,21.362305,0.0,0.0,0.0,7.943115,71.520996,-67.230835
1769246712268,-1.012207,-0.13134766,0.103027344,3.6621094,-33.63037,21.362305,0.0,0.0,0.0,13.364868,64.14917,-59.161377
1769246712356,-1.0268555,0.049316406,0.39111328,16.967773,29.968262,-8.972168,0.0,0.0,0.0,13.364868,64.14917,-59.161377
1769246712367,-1.0268555,0.049316406,0.39111328,16.967773,29.968262,-8.972168,0.0,0.0,0.0,14.188843,67.13745,-62.297974
1769246712456,-0.9921875,0.032226562,0.23828125,-3.90625,8.239746,14.099121,0.0,0.0,0.0,14.188843,67.13745,-62.297974
1769246712467,-0.9921875,0.032226562,0.23828125,-3.90625,8.239746,14.099121,0.0,0.0,0.0,15.380859,68.40088,-59.65576
1769246712555,-1.0258789,0.029296875,0.4477539,-46.99707,19.470215,17.456055,0.0,0.0,0.0,15.380859,68.40088,-59.65576
1769246712567,-1.0258789,0.029296875,0.4477539,-46.99707,19.470215,17.456055,0.0,0.0,0.0,18.17688,70.00488,-54.486694
1769246712655,-0.8613281,0.09375,0.3491211,15.686035,17.456055,-35.583496,0.0,0.0,0.0,18.17688,70.00488,-54.486694
1769246712666,-0.8613281,0.09375,0.3491211,15.686035,17.456055,-35.583496,0.0,0.0,0.0,14.342651,71.762695,-57.420044
1769246712755,-0.8203125,0.21875,0.4399414,70.67871,10.620117,-31.433105,0.0,0.0,0.0,14.342651,71.762695,-57.420044
1769246712766,-0.8203125,0.21875,0.4399414,70.67871,10.620117,-31.433105,0.0,0.0,0.0,5.8447266,74.663086,-70.88928
1769246712854,-0.8696289,0.20605469,0.37841797,-46.14258,-98.44971,56.82373,0.0,0.0,0.0,5.8447266,74.663086,-70.88928
1769246712866,-0.8696289,0.20605469,0.37841797,-46.14258,-98.44971,56.82373,0.0,0.0,0.0,12.606812,67.32422,-67.71973
1769246712954,-1.0283203,-0.09814453,0.13623047,-11.413574,-18.554688,20.751953,0.0,0.0,0.0,12.606812,67.32422,-67.71973
1769246712966,-1.0283203,-0.09814453,0.13623047,-11.413574,-18.554688,20.751953,0.0,0.0,0.0,16.331177,60.19409,-58.529663
1769246713054,-1.0527344,0.20703125,0.46240234,11.71875,25.6958,-11.657715,0.0,0.0,0.0,16.331177,60.19409,-58.529663
1769246713065,-1.0527344,0.20703125,0.46240234,11.71875,25.6958,-11.657715,0.0,0.0,0.0,16.924438,63.099976,-60.699463
1769246713154,-1.0180664,0.17675781,0.32470703,-25.268555,-13.61084,16.967773,0.0,0.0,0.0,16.924438,63.099976,-60.699463
1769246713165,-1.0180664,0.17675781,0.32470703,-25.268555,-13.61084,16.967773,0.0,0.0,0.0,17.484741,62.737427,-58.425293
1769246713253,-0.7133789,0.06591797,0.36621094,12.756348,61.279297,-27.648926,0.0,0.0,0.0,17.484741,62.737427,-58.425293
1769246713265,-0.7133789,0.06591797,0.36621094,12.756348,61.279297,-27.648926,0.0,0.0,0.0,17.600098,65.71472,-59.397583
1769246713353,-0.9272461,0.044921875,0.6323242,5.432129,33.38623,2.1972656,0.0,0.0,0.0,17.600098,65.71472,-59.397583
1769246713364,-0.9272461,0.044921875,0.6323242,5.432129,33.38623,2.1972656,0.0,0.0,0.0,20.236816,71.81763,-57.700195
1769246713453,-0.77441406,0.203125,0.453125,15.50293,-43.21289,17.27295,0.0,0.0,0.0,20.236816,71.81763,-57.700195
1769246713464,-0.77441406,0.203125,0.453125,15.50293,-43.21289,17.27295,0.0,0.0,0.0,21.296997,69.37317,-59.089966
1769246713552,-0.8901367,-0.018066406,0.24853516,-31.188965,-25.939941,29.724121,0.0,0.0,0.0,21.296997,69.37317,-59.089966
1769246713564,-0.8901367,-0.018066406,0.24853516,-31.188965,-25.939941,29.724121,0.0,0.0,0.0,21.818848,63.896484,-55.530396
1769246713653,-0.9316406,0.09667969,0.32861328,47.790527,8.056641,-21.30127,0.0,0.0,0.0,21.818848,63.896484,-55.530396
1769246713664,-0.9316406,0.09667969,0.32861328,47.790527,8.056641,-21.30127,0.0,0.0,0.0,22.686768,64.02283,-57.002563
1769246713752,-0.99658203,0.1430664,0.36083984,-5.7373047,3.2958984,9.094238,0.0,0.0,0.0,22.686768,64.02283,-57.002563
1769246713763,-0.99658203,0.1430664,0.36083984,-5.7373047,3.2958984,9.094238,0.0,0.0,0.0,23.274536,65.35217,-58.425293
1769246713852,-1.1201172,0.14892578,0.359375,-34.484863,14.465332,22.644043,0.0,0.0,0.0,23.274536,65.35217,-58.425293
1769246713863,-1.1201172,0.14892578,0.359375,-34.484863,14.465332,22.644043,0.0,0.0,0.0,25.274048,65.13794,-54.486694
1769246713951,-0.7578125,0.048339844,0.3359375,44.73877,-0.18310547,-37.231445,0.0,0.0,0.0,25.274048,65.13794,-54.486694
1769246713963,-0.7578125,0.048339844,0.3359375,44.73877,-0.18310547,-37.231445,0.0,0.0,0.0,23.933716,67.109985,-52.091675
1769246714051,-0.8022461,0.27929688,0.4423828,29.60205,36.010742,-46.691895,0.0,0.0,0.0,23.933716,67.109985,-52.091675
1769246714063,-0.8022461,0.27929688,0.4423828,29.60205,36.010742,-46.691895,0.0,0.0,0.0,14.93042,70.62012,-66.033325
1769246714151,-0.81152344,0.32080078,0.45214844,-16.662598,-66.833496,25.390625,0.0,0.0,0.0,14.93042,70.62012,-66.033325
1769246714162,-0.81152344,0.32080078,0.45214844,-16.662598,-66.833496,25.390625,0.0,0.0,0.0,16.896973,68.41736,-68.87329
1769246714251,-0.9379883,0.014160156,0.21386719,-57.006836,-29.296875,34.973145,0.0,0.0,0.0,16.896973,68.41736,-68.87329
1769246714262,-0.9379883,0.014160156,0.21386719,-57.006836,-29.296875,34.973145,0.0,0.0,0.0,17.237549,60.600586,-61.35315
1769246714350,-0.9770508,0.140625,0.38378906,45.043945,18.371582,-31.921387,0.0,0.0,0.0,17.237549,60.600586,-61.35315
1769246714362,-0.9770508,0.140625,0.38378906,45.043945,18.371582,-31.921387,0.0,0.0,0.0,17.84729,62.737427,-62.199097
1769246714450,-1.0615234,0.14990234,0.36572266,-25.939941,-20.385742,14.6484375,0.0,0.0,0.0,17.84729,62.737427,-62.199097
1769246714461,-1.0615234,0.14990234,0.36572266,-25.939941,-20.385742,14.6484375,0.0,0.0,0.0,17.885742,63.1604,-63.028564
1769246714550,-1.0805664,0.091796875,0.43359375,19.958496,32.165527,-19.89746,0.0,0.0,0.0,17.885742,63.1604,-63.028564
1769246714562,-1.0805664,0.091796875,0.43359375,19.958496,32.165527,-19.89746,0.0,0.0,0.0,18.511963,63.286743,-62.177124
1769246714649,-0.9433594,0.11376953,0.57714844,15.563965,52.79541,-18.493652,0.0,0.0,0.0,18.511963,63.286743,-62.177124
1769246714661,-0.9433594,0.11376953,0.57714844,15.563965,52.79541,-18.493652,0.0,0.0,0.0,18.105469,69.88403,-63.726196
1769246714749,-0.75,0.17041016,0.46435547,20.690918,-14.587402,0.36621094,0.0,0.0,0.0,18.105469,69.88403,-63.726196
1769246714761,-0.75,0.17041016,0.46435547,20.690918,-14.587402,0.36621094,0.0,0.0,0.0,18.204346,71.015625,-64.23706
1769246714849,-0.8251953,0.123535156,0.40673828,-24.597168,-57.06787,37.78076,0.0,0.0,0.0,18.204346,71.015625,-64.23706
1769246714860,-0.8251953,0.123535156,0.40673828,-24.597168,-57.06787,37.78076,0.0,0.0,0.0,18.726196,66.34094,-63.363647
1769246714948,-0.9526367,-0.04638672,0.25732422,25.512695,-8.7890625,0.91552734,0.0,0.0,0.0,18.726196,66.34094,-63.363647
1769246714960,-0.9526367,-0.04638672,0.25732422,25.512695,-8.7890625,0.91552734,0.0,0.0,0.0,19.682007,61.913452,-59.782104
1769246715048,-0.984375,0.15917969,0.43115234,23.498535,25.878906,-13.73291,0.0,0.0,0.0,19.682007,61.913452,-59.782104
1769246715060,-0.984375,0.15917969,0.43115234,23.498535,25.878906,-13.73291,0.0,0.0,0.0,20.390625,64.27551,-63.12744
1769246715148,-1.0117188,0.10644531,0.28808594,-13.549805,1.953125,14.465332,0.0,0.0,0.0,20.390625,64.27551,-63.12744
1769246715160,-1.0117188,0.10644531,0.28808594,-13.549805,1.953125,14.465332,0.0,0.0,0.0,21.730957,65.44006,-61.16089
1769246715248,-1.0727539,0.080566406,0.50439453,-51.574707,39.001465,5.92041,0.0,0.0,0.0,21.730957,65.44006,-61.16089
1769246715259,-1.0727539,0.080566406,0.50439453,-51.574707,39.001465,5.92041,0.0,0.0,0.0,22.686768,67.15393,-56.678467
1769246715347,-1.0136719,0.13964844,0.46728516,32.287598,19.470215,-51.208496,0.0,0.0,0.0,22.686768,67.15393,-56.678467
1769246715359,-1.0136719,0.13964844,0.46728516,32.287598,19.470215,-51.208496,0.0,0.0,0.0,18.759155,70.25757,-59.01306
1769246715447,-0.7192383,0.19384766,0.41357422,42.84668,16.662598,-28.930664,0.0,0.0,0.0,18.759155,70.25757,-59.01306
1769246715458,-0.7192383,0.19384766,0.41357422,42.84668,16.662598,-28.930664,0.0,0.0,0.0,6.932373,73.99292,-74.84985
1769246715547,-0.84033203,0.18066406,0.23730469,-61.21826,-81.54297,52.91748,0.0,0.0,0.0,6.932373,73.99292,-74.84985
1769246715558,-0.84033203,0.18066406,0.23730469,-61.21826,-81.54297,52.91748,0.0,0.0,0.0,9.228516,69.09851,-71.520996
1769246715646,-1.0073242,0.0107421875,0.22802734,1.5258789,18.676758,-4.272461,0.0,0.0,0.0,9.228516,69.09851,-71.520996
1769246715658,-1.0073242,0.0107421875,0.22802734,1.5258789,18.676758,-4.272461,0.0,0.0,0.0,12.771606,65.00061,-62.347412
1769246715746,-1.0117188,0.049804688,0.37890625,13.793945,15.258789,-13.183594,0.0,0.0,0.0,12.771606,65.00061,-62.347412
1769246715758,-1.0117188,0.049804688,0.37890625,13.793945,15.258789,-13.183594,0.0,0.0,0.0,12.628784,68.07678,-65.54443
1769246715846,-1.2504883,-0.016601562,0.12548828,-19.348145,20.202637,-10.070801,0.0,0.0,0.0,12.628784,68.07678,-65.54443
1769246715857,-1.2504883,-0.016601562,0.12548828,-19.348145,20.202637,-10.070801,0.0,0.0,0.0,10.546875,68.40637,-66.291504
1769246715946,-0.7080078,0.12207031,0.25927734,24.047852,81.48193,-52.79541,0.0,0.0,0.0,10.546875,68.40637,-66.291504
1769246715957,-0.7080078,0.12207031,0.25927734,24.047852,81.48193,-52.79541,0.0,0.0,0.0,4.8779297,73.048096,-74.800415
1769246716045,-1.0195312,0.04638672,0.77734375,-13.000488,4.3945312,8.178711,0.0,0.0,0.0,4.8779297,73.048096,-74.800415
1769246716057,-1.0195312,0.04638672,0.77734375,-13.000488,4.3945312,8.178711,0.0,0.0,0.0,-13.216553,82.0459,-94.13086
1769246716145,-0.8227539,-0.011230469,0.10839844,-5.859375,-69.33594,42.84668,0.0,0.0,0.0,-13.216553,82.0459,-94.13086
1769246716156,-0.8227539,-0.011230469,0.10839844,-5.859375,-69.33594,42.84668,0.0,0.0,0.0,4.8724365,76.09131,-73.69629
1769246716245,-0.91503906,0.051757812,0.13183594,20.874023,20.507812,-12.6953125,0.0,0.0,0.0,4.8724365,76.09131,-73.69629
1769246716256,-0.91503906,0.051757812,0.13183594,20.874023,20.507812,-12.6953125,0.0,0.0,0.0,8.865967,73.66882,-68.499756
1769246716344,-0.95751953,0.010253906,0.17675781,5.004883,6.958008,0.79345703,0.0,0.0,0.0,8.865967,73.66882,-68.499756
1769246716356,-0.95751953,0.010253906,0.17675781,5.004883,6.958008,0.79345703,0.0,0.0,0.0,7.097168,75.34424,-72.4823
1769246716444,-1.0678711,-0.1875,0.09277344,-31.982422,14.587402,16.540527,0.0,0.0,0.0,7.097168,75.34424,-72.4823
1769246716456,-1.0678711,-0.1875,0.09277344,-31.982422,14.587402,16.540527,0.0,0.0,0.0,11.782837,76.82739,-67.4176
1769246716544,-1.1782227,0.12451172,0.3696289,-23.132324,17.456055,8.911133,0.0,0.0,0.0,11.782837,76.82739,-67.4176
1769246716556,-1.1782227,0.12451172,0.3696289,-23.132324,17.456055,8.911133,0.0,0.0,0.0,14.688721,78.85437,-63.028564
1769246716644,-0.81640625,0.18408203,0.123535156,10.375977,-16.235352,-3.6010742,0.0,0.0,0.0,14.688721,78.85437,-63.028564
1769246716655,-0.81640625,0.18408203,0.123535156,10.375977,-16.235352,-3.6010742,0.0,0.0,0.0,16.605835,78.0249,-59.639282
1769246716743,-1.034668,0.096191406,0.38867188,35.88867,-0.8544922,-31.982422,0.0,0.0,0.0,16.605835,78.0249,-59.639282
1769246716755,-1.034668,0.096191406,0.38867188,35.88867,-0.8544922,-31.982422,0.0,0.0,0.0,10.1953125,77.975464,-68.18115
1769246716843,-0.8359375,-0.05908203,0.1875,-43.21289,-32.104492,23.620605,0.0,0.0,0.0,10.1953125,77.975464,-68.18115
1769246716855,-0.8359375,-0.05908203,0.1875,-43.21289,-32.104492,23.620605,0.0,0.0,0.0,10.546875,76.25061,-71.2738
1769246716943,-0.9301758,0.13134766,0.28320312,-9.460449,5.6762695,-3.540039,0.0,0.0,0.0,10.546875,76.25061,-71.2738
1769246716954,-0.9301758,0.13134766,0.28320312,-9.460449,5.6762695,-3.540039,0.0,0.0,0.0,10.360107,75.67383,-69.2688
1769246717042,-1.0742188,-0.051757812,0.06298828,-15.197754,-2.0751953,-1.4038086,0.0,0.0,0.0,10.360107,75.67383,-69.2688
1769246717054,-1.0742188,-0.051757812,0.06298828,-15.197754,-2.0751953,-1.4038086,0.0,0.0,0.0,9.613037,75.28381,-68.56018
1769246717142,-1.0712891,0.053222656,0.07324219,-4.4555664,7.3242188,-13.427734,0.0,0.0,0.0,9.613037,75.28381,-68.56018
1769246717154,-1.0712891,0.053222656,0.07324219,-4.4555664,7.3242188,-13.427734,0.0,0.0,0.0,4.614258,76.607666,-72.69104
1769246717242,-1.0844727,0.06738281,0.3642578,13.183594,14.160156,-14.831543,0.0,0.0,0.0,4.614258,76.607666,-72.69104
1769246717253,-1.0844727,0.06738281,0.3642578,13.183594,14.160156,-14.831543,0.0,0.0,0.0,-1.0821533,77.87109,-78.77197
1769246717341,-0.83935547,-0.16455078,0.46484375,-36.254883,17.028809,11.108398,0.0,0.0,0.0,-1.0821533,77.87109,-78.77197
1769246717353,-0.83935547,-0.16455078,0.46484375,-36.254883,17.028809,11.108398,0.0,0.0,0.0,-1.0766602,79.28833,-77.58545
1769246717441,-0.9316406,0.059570312,-0.043945312,-28.259277,-11.901855,28.686523,0.0,0.0,0.0,-1.0766602,79.28833,-77.58545
1769246717453,-0.9316406,0.059570312,-0.043945312,-28.259277,-11.901855,28.686523,0.0,0.0,0.0,4.5043945,77.40967,-70.16968
1769246717541,-0.7626953,-0.05908203,0.390625,5.9814453,5.126953,3.0517578,0.0,0.0,0.0,4.5043945,77.40967,-70.16968
1769246717552,-0.7626953,-0.05908203,0.390625,5.9814453,5.126953,3.0517578,0.0,0.0,0.0,7.9156494,77.7887,-65.79712
1769246717641,-1.09375,0.091796875,0.051757812,-4.638672,-38.391113,15.74707,0.0,0.0,0.0,7.9156494,77.7887,-65.79712
1769246717652,-1.09375,0.091796875,0.051757812,-4.638672,-38.391113,15.74707,0.0,0.0,0.0,9.003296,74.20715,-64.99512
1769246717740,-1.0415039,-0.05908203,0.31347656,-7.5683594,6.164551,10.559082,0.0,0.0,0.0,9.003296,74.20715,-64.99512
1769246717752,-1.0415039,-0.05908203,0.31347656,-7.5683594,6.164551,10.559082,0.0,0.0,0.0,13.425293,74.036865,-60.924683
1769246717840,-1.1259766,0.060546875,0.11279297,-0.61035156,2.1972656,20.446777,0.0,0.0,0.0,13.425293,74.036865,-60.924683
1769246717851,-1.1259766,0.060546875,0.11279297,-0.61035156,2.1972656,20.446777,0.0,0.0,0.0,16.776123,73.64136,-57.70569
1769246717940,-1.0419922,0.0107421875,0.40039062,-5.92041,-0.48828125,1.4648438,0.0,0.0,0.0,16.776123,73.64136,-57.70569
1769246717951,-1.0419922,0.0107421875,0.40039062,-5.92041,-0.48828125,1.4648438,0.0,0.0,0.0,21.741943,74.8114,-51.470947
1769246718039,-0.96240234,0.2548828,0.33789062,3.90625,1.2817383,-13.427734,0.0,0.0,0.0,21.741943,74.8114,-51.470947
1769246718051,-0.96240234,0.2548828,0.33789062,3.90625,1.2817383,-13.427734,0.0,0.0,0.0,18.36914,74.558716,-55.964355
1769246718139,-0.79248047,0.09716797,0.29345703,60.85205,-18.127441,-21.42334,0.0,0.0,0.0,18.36914,74.558716,-55.964355
1769246718151,-0.79248047,0.09716797,0.29345703,60.85205,-18.127441,-21.42334,0.0,0.0,0.0,14.666748,74.43787,-63.572388
1769246718239,-0.82373047,0.09375,0.19970703,-5.859375,-8.972168,1.3427734,0.0,0.0,0.0,14.666748,74.43787,-63.572388
1769246718250,-0.82373047,0.09375,0.19970703,-5.859375,-8.972168,1.3427734,0.0,0.0,0.0,13.859253,72.37244,-64.62158
1769246718339,-0.9741211,0.107421875,0.35498047,-11.657715,-19.65332,11.535645,0.0,0.0,0.0,13.859253,72.37244,-64.62158
1769246718350,-0.9741211,0.107421875,0.35498047,-11.657715,-19.65332,11.535645,0.0,0.0,0.0,14.331665,71.30676,-63.48999
1769246718438,-1.1586914,-0.020019531,0.08544922,-12.634277,-3.3569336,-3.7841797,0.0,0.0,0.0,14.331665,71.30676,-63.48999
1769246718450,-1.1586914,-0.020019531,0.08544922,-12.634277,-3.3569336,-3.7841797,0.0,0.0,0.0,13.892212,69.77417,-63.319702
1769246718538,-1.0942383,0.18652344,0.3725586,-9.460449,-2.5024414,-2.9907227,0.0,0.0,0.0,13.892212,69.77417,-63.319702
1769246718550,-1.0942383,0.18652344,0.3725586,-9.460449,-2.5024414,-2.9907227,0.0,0.0,0.0,10.986328,70.49927,-65.462036
1769246718638,-0.67529297,-0.0068359375,0.30615234,31.00586,38.45215,-12.329102,0.0,0.0,0.0,10.986328,70.49927,-65.462036
1769246718649,-0.67529297,-0.0068359375,0.30615234,31.00586,38.45215,-12.329102,0.0,0.0,0.0,11.2664795,72.26807,-66.75842
1769246718738,-0.95947266,0.036621094,0.41357422,-15.930176,13.000488,4.760742,0.0,0.0,0.0,11.2664795,72.26807,-66.75842
1769246718749,-0.95947266,0.036621094,0.41357422,-15.930176,13.000488,4.760742,0.0,0.0,0.0,10.83252,74.89929,-66.5387
1769246718837,-0.8041992,0.079589844,0.32421875,9.643555,-12.573242,-0.91552734,0.0,0.0,0.0,10.83252,74.89929,-66.5387
1769246718849,-0.8041992,0.079589844,0.32421875,9.643555,-12.573242,-0.91552734,0.0,0.0,0.0,10.184326,74.52576,-67.576904
1769246718937,-0.9633789,-0.08203125,0.12646484,0.36621094,1.4648438,5.493164,0.0,0.0,0.0,10.184326,74.52576,-67.576904
1769246718948,-0.9633789,-0.08203125,0.12646484,0.36621094,1.4648438,5.493164,0.0,0.0,0.0,11.557617,72.51526,-66.16516
1769246719037,-1.0161133,0.08203125,0.20166016,4.699707,1.953125,9.094238,0.0,0.0,0.0,11.557617,72.51526,-66.16516
1769246719048,-1.0161133,0.08203125,0.20166016,4.699707,1.953125,9.094238,0.0,0.0,0.0,13.106689,73.65784,-65.34668
1769246719136,-1.0913086,-0.028808594,0.171875,6.7749023,7.9956055,11.59668,0.0,0.0,0.0,13.106689,73.65784,-65.34668
1769246719148,-1.0913086,-0.028808594,0.171875,6.7749023,7.9956055,11.59668,0.0,0.0,0.0,17.65503,74.04785,-61.314697
1769246719236,-1.1801758,0.0234375,0.32958984,-50.598145,17.39502,21.78955,0.0,0.0,0.0,17.65503,74.04785,-61.314697
1769246719247,-1.1801758,0.0234375,0.32958984,-50.598145,17.39502,21.78955,0.0,0.0,0.0,22.571411,74.86084,-54.44275
1769246719336,-0.7270508,0.07519531,0.31884766,1.8310547,-3.7841797,-27.404785,0.0,0.0,0.0,22.571411,74.86084,-54.44275
1769246719347,-0.7270508,0.07519531,0.31884766,1.8310547,-3.7841797,-27.404785,0.0,0.0,0.0,18.934937,75.93201,-55.371094
1769246719435,-0.9848633,0.13183594,0.33398438,-7.6904297,12.878418,-28.9917,0.0,0.0,0.0,18.934937,75.93201,-55.371094
1769246719447,-0.9848633,0.13183594,0.33398438,-7.6904297,12.878418,-28.9917,0.0,0.0,0.0,6.4819336,76.51428,-67.22534
1769246719535,-0.7553711,0.22167969,0.20800781,4.5166016,-29.663086,7.507324,0.0,0.0,0.0,6.4819336,76.51428,-67.22534
1769246719547,-0.7553711,0.22167969,0.20800781,4.5166016,-29.663086,7.507324,0.0,0.0,0.0,2.5927734,74.712524,-73.899536
1769246719635,-0.9580078,-0.025390625,0.0703125,-14.404297,5.92041,8.7890625,0.0,0.0,0.0,2.5927734,74.712524,-73.899536
1769246719646,-0.9580078,-0.025390625,0.0703125,-14.404297,5.92041,8.7890625,0.0,0.0,0.0,8.33313,72.89978,-65.24231
1769246719734,-1.0244141,0.03466797,0.28515625,-28.808594,-4.760742,12.6953125,0.0,0.0,0.0,8.33313,72.89978,-65.24231
1769246719746,-1.0244141,0.03466797,0.28515625,-28.808594,-4.760742,12.6953125,0.0,0.0,0.0,9.53064,74.43787,-62.995605
1769246719834,-1.2167969,0.018066406,0.15527344,-29.541016,-8.544922,5.2490234,0.0,0.0,0.0,9.53064,74.43787,-62.995605
1769246719846,-1.2167969,0.018066406,0.15527344,-29.541016,-8.544922,5.2490234,0.0,0.0,0.0,9.552612,73.35022,-60.60608
1769246719934,-1.0571289,0.064941406,0.32177734,-15.74707,-2.5024414,-5.493164,0.0,0.0,0.0,9.552612,73.35022,-60.60608
1769246719946,-1.0571289,0.064941406,0.32177734,-15.74707,-2.5024414,-5.493164,0.0,0.0,0.0,7.426758,72.42737,-60.836792
1769246720034,-0.88916016,-0.0126953125,0.5019531,-41.44287,18.005371,15.991211,0.0,0.0,0.0,7.426758,72.42737,-60.836792
1769246720045,-0.88916016,-0.0126953125,0.5019531,-41.44287,18.005371,15.991211,0.0,0.0,0.0,8.21228,73.690796,-60.21057
1769246720133,-0.8666992,-0.016601562,0.35546875,16.479492,-23.19336,-1.2817383,0.0,0.0,0.0,8.21228,73.690796,-60.21057
1769246720145,-0.8666992,-0.016601562,0.35546875,16.479492,-23.19336,-1.2817383,0.0,0.0,0.0,10.420532,73.635864,-55.39856
1769246720233,-0.81591797,-0.036621094,0.1928711,-9.94873,-13.916016,2.0141602,0.0,0.0,0.0,10.420532,73.635864,-55.39856
1769246720244,-0.81591797,-0.036621094,0.1928711,-9.94873,-13.916016,2.0141602,0.0,0.0,0.0,9.212036,71.04309,-56.722412
1769246720333,-0.90283203,0.071777344,0.28759766,15.74707,-4.0893555,-7.9345703,0.0,0.0,0.0,9.212036,71.04309,-56.722412
1769246720344,-0.90283203,0.071777344,0.28759766,15.74707,-4.0893555,-7.9345703,0.0,0.0,0.0,7.393799,70.7959,-58.95813
1769246720432,-1.0180664,-0.043945312,0.21044922,1.8920898,6.8969727,2.6245117,0.0,0.0,0.0,7.393799,70.7959,-58.95813
1769246720444,-1.0180664,-0.043945312,0.21044922,1.8920898,6.8969727,2.6245117,0.0,0.0,0.0,8.256226,71.048584,-59.869995
1769246720533,-1.1967773,0.09033203,0.24072266,-9.460449,26.062012,15.197754,0.0,0.0,0.0,8.256226,71.048584,-59.869995
1769246720544,-1.1967773,0.09033203,0.24072266,-9.460449,26.062012,15.197754,0.0,0.0,0.0,10.431519,72.767944,-57.387085
1769246720632,-1.1142578,-0.032226562,0.5058594,-38.45215,19.16504,17.700195,0.0,0.0,0.0,10.431519,72.767944,-57.387085
1769246720643,-1.1142578,-0.032226562,0.5058594,-38.45215,19.16504,17.700195,0.0,0.0,0.0,16.018066,74.83887,-49.16931
1769246720732,-0.9370117,0.21435547,0.3569336,19.77539,-14.6484375,-27.09961,0.0,0.0,0.0,16.018066,74.83887,-49.16931
1769246720743,-0.9370117,0.21435547,0.3569336,19.77539,-14.6484375,-27.09961,0.0,0.0,0.0,10.92041,73.90503,-55.393066
1769246720831,-0.78222656,0.05517578,0.36816406,50.1709,-16.174316,-23.07129,0.0,0.0,0.0,10.92041,73.90503,-55.393066
1769246720843,-0.78222656,0.05517578,0.36816406,50.1709,-16.174316,-23.07129,0.0,0.0,0.0,5.7019043,73.65234,-63.918457
1769246720931,-0.87158203,0.041015625,0.16455078,-23.254395,-28.320312,18.371582,0.0,0.0,0.0,5.7019043,73.65234,-63.918457
1769246720943,-0.87158203,0.041015625,0.16455078,-23.254395,-28.320312,18.371582,0.0,0.0,0.0,7.0477295,69.65881,-62.764893
1769246721031,-0.97265625,0.08544922,0.40673828,-16.662598,-4.0283203,9.70459,0.0,0.0,0.0,7.0477295,69.65881,-62.764893
1769246721042,-0.97265625,0.08544922,0.40673828,-16.662598,-4.0283203,9.70459,0.0,0.0,0.0,7.7948,68.933716,-60.64453
1769246721131,-1.1738281,0.041992188,0.16259766,-22.460938,-23.620605,7.446289,0.0,0.0,0.0,7.7948,68.933716,-60.64453
1769246721142,-1.1738281,0.041992188,0.16259766,-22.460938,-23.620605,7.446289,0.0,0.0,0.0,7.8442383,66.38489,-58.19458
1769246721230,-1.043457,0.1381836,0.29882812,25.57373,-7.507324,-12.756348,0.0,0.0,0.0,7.8442383,66.38489,-58.19458
1769246721242,-1.043457,0.1381836,0.29882812,25.57373,-7.507324,-12.756348,0.0,0.0,0.0,7.827759,66.258545,-58.463745
1769246721330,-0.7163086,-0.06640625,0.43115234,34.79004,78.36914,-32.165527,0.0,0.0,0.0,7.827759,66.258545,-58.463745
1769246721342,-0.7163086,-0.06640625,0.43115234,34.79004,78.36914,-32.165527,0.0,0.0,0.0,7.2454834,72.509766,-62.55066
1769246721429,-0.89160156,-0.04248047,0.49951172,23.68164,-3.4179688,-10.070801,0.0,0.0,0.0,7.2454834,72.509766,-62.55066
1769246721441,-0.89160156,-0.04248047,0.49951172,23.68164,-3.4179688,-10.070801,0.0,0.0,0.0,5.284424,75.19043,-66.329956
1769246721529,-0.79589844,0.09082031,0.33642578,27.404785,-36.92627,0.8544922,0.0,0.0,0.0,5.284424,75.19043,-66.329956
1769246721541,-0.79589844,0.09082031,0.33642578,27.404785,-36.92627,0.8544922,0.0,0.0,0.0,5.026245,71.987915,-70.51575
1769246721629,-0.92089844,-0.08496094,0.2421875,0.9765625,-22.949219,11.108398,0.0,0.0,0.0,5.026245,71.987915,-70.51575
1769246721640,-0.92089844,-0.08496094,0.2421875,0.9765625,-22.949219,11.108398,0.0,0.0,0.0,7.9266357,68.25256,-68.03833
1769246721729,-0.9711914,-0.03466797,0.2133789,-1.4038086,15.319824,0.18310547,0.0,0.0,0.0,7.9266357,68.25256,-68.03833
1769246721740,-0.9711914,-0.03466797,0.2133789,-1.4038086,15.319824,0.18310547,0.0,0.0,0.0,8.492432,69.175415,-68.02734
1769246721828,-1.0800781,0.028320312,0.29101562,-14.526367,13.549805,14.770508,0.0,0.0,0.0,8.492432,69.175415,-68.02734
1769246721840,-1.0800781,0.028320312,0.29101562,-14.526367,13.549805,14.770508,0.0,0.0,0.0,9.706421,70.81787,-65.93994
1769246721928,-1.1577148,-0.09716797,0.34570312,-53.710938,17.028809,21.057129,0.0,0.0,0.0,9.706421,70.81787,-65.93994
1769246721939,-1.1577148,-0.09716797,0.34570312,-53.710938,17.028809,21.057129,0.0,0.0,0.0,12.540894,71.63086,-58.518677
1769246722028,-0.7993164,0.16503906,0.2993164,2.8076172,4.699707,-26.367188,0.0,0.0,0.0,12.540894,71.63086,-58.518677
1769246722039,-0.7993164,0.16503906,0.2993164,2.8076172,4.699707,-26.367188,0.0,0.0,0.0,8.635254,72.31201,-61.3916
1769246722127,-0.8769531,0.11328125,0.43603516,46.75293,30.334473,-37.597656,0.0,0.0,0.0,8.635254,72.31201,-61.3916
1769246722139,-0.8769531,0.11328125,0.43603516,46.75293,30.334473,-37.597656,0.0,0.0,0.0,-0.6756592,76.0199,-72.092285
1769246722227,-0.79003906,0.11425781,0.28808594,-36.743164,-62.98828,32.65381,0.0,0.0,0.0,-0.6756592,76.0199,-72.092285
1769246722239,-0.79003906,0.11425781,0.28808594,-36.743164,-62.98828,32.65381,0.0,0.0,0.0,1.9335938,72.734985,-71.47705
1769246722327,-0.99072266,-0.0024414062,0.21044922,-14.465332,-22.949219,15.197754,0.0,0.0,0.0,1.9335938,72.734985,-71.47705
1769246722339,-0.99072266,-0.0024414062,0.21044922,-14.465332,-22.949219,15.197754,0.0,0.0,0.0,7.7838135,68.186646,-62.078247
1769246722427,-1.1220703,0.03466797,0.23632812,-11.84082,-3.2348633,1.953125,0.0,0.0,0.0,7.7838135,68.186646,-62.078247
1769246722438,-1.1220703,0.03466797,0.23632812,-11.84082,-3.2348633,1.953125,0.0,0.0,0.0,7.9101562,67.44507,-61.501465
1769246722526,-1.1484375,0.114746094,0.33203125,-5.7373047,-0.12207031,0.12207031,0.0,0.0,0.0,7.9101562,67.44507,-61.501465
1769246722538,-1.1484375,0.114746094,0.33203125,-5.7373047,-0.12207031,0.12207031,0.0,0.0,0.0,7.2070312,68.01636,-61.51245
1769246722626,-0.7182617,-0.096191406,0.3642578,21.240234,65.73486,-23.864746,0.0,0.0,0.0,7.2070312,68.01636,-61.51245
1769246722637,-0.7182617,-0.096191406,0.3642578,21.240234,65.73486,-23.864746,0.0,0.0,0.0,7.2070312,71.71875,-63.374634
1769246722726,-0.9638672,-0.10595703,0.54248047,-9.82666,1.7089844,-2.1972656,0.0,0.0,0.0,7.2070312,71.71875,-63.374634
1769246722737,-0.9638672,-0.10595703,0.54248047,-9.82666,1.7089844,-2.1972656,0.0,0.0,0.0,4.4110107,75.92651,-65.67078
1769246722825,-0.8178711,0.107910156,0.32763672,13.000488,-37.41455,2.8076172,0.0,0.0,0.0,4.4110107,75.92651,-65.67078
1769246722837,-0.8178711,0.107910156,0.32763672,13.000488,-37.41455,2.8076172,0.0,0.0,0.0,3.2244873,73.05908,-68.47229
1769246722925,-0.8886719,-0.087402344,0.21972656,-4.760742,-23.864746,17.63916,0.0,0.0,0.0,3.2244873,73.05908,-68.47229
1769246722937,-0.8886719,-0.087402344,0.21972656,-4.760742,-23.864746,17.63916,0.0,0.0,0.0,6.965332,68.9447,-64.78088
1769246723025,-0.93408203,-0.012207031,0.23339844,11.291504,16.052246,-4.5166016,0.0,0.0,0.0,6.965332,68.9447,-64.78088
1769246723036,-0.93408203,-0.012207031,0.23339844,11.291504,16.052246,-4.5166016,0.0,0.0,0.0,8.283691,69.39514,-64.87427
1769246723125,-1.1044922,0.04296875,0.3125,3.3569336,8.972168,18.005371,0.0,0.0,0.0,8.283691,69.39514,-64.87427
1769246723136,-1.1044922,0.04296875,0.3125,3.3569336,8.972168,18.005371,0.0,0.0,0.0,10.464478,70.83435,-63.45703
1769246723224,-1.1201172,-0.084472656,0.37353516,-51.51367,21.240234,19.470215,0.0,0.0,0.0,10.464478,70.83435,-63.45703
1769246723236,-1.1201172,-0.084472656,0.37353516,-51.51367,21.240234,19.470215,0.0,0.0,0.0,14.859009,71.40564,-56.37085
1769246723324,-0.72509766,0.1015625,0.32421875,-5.9814453,-7.446289,-16.357422,0.0,0.0,0.0,14.859009,71.40564,-56.37085
1769246723335,-0.72509766,0.1015625,0.32421875,-5.9814453,-7.446289,-16.357422,0.0,0.0,0.0,12.244263,72.32849,-56.661987
1769246723424,-0.9550781,0.07714844,0.40673828,18.798828,33.87451,-36.621094,0.0,0.0,0.0,12.244263,72.32849,-56.661987
1769246723435,-0.9550781,0.07714844,0.40673828,18.798828,33.87451,-36.621094,0.0,0.0,0.0,5.383301,74.069824,-63.17688
1769246723523,-0.7651367,0.22607422,0.34326172,14.343262,-44.677734,9.216309,0.0,0.0,0.0,5.383301,74.069824,-63.17688
1769246723535,-0.7651367,0.22607422,0.34326172,14.343262,-44.677734,9.216309,0.0,0.0,0.0,1.9445801,73.02063,-72.213135
1769246723623,-0.9013672,-0.0234375,0.17919922,-11.84082,-12.634277,15.441895,0.0,0.0,0.0,1.9445801,73.02063,-72.213135
1769246723634,-0.9013672,-0.0234375,0.17919922,-11.84082,-12.634277,15.441895,0.0,0.0,0.0,7.8167725,69.09302,-63.77014
1769246723723,-1.0595703,0.06542969,0.3618164,-14.953613,-16.540527,3.3569336,0.0,0.0,0.0,7.8167725,69.09302,-63.77014
1769246723734,-1.0595703,0.06542969,0.3618164,-14.953613,-16.540527,3.3569336,0.0,0.0,0.0,7.630005,68.97766,-64.17114
1769246723822,-1.2192383,0.1274414,0.203125,-5.065918,-1.8310547,-2.1972656,0.0,0.0,0.0,7.630005,68.97766,-64.17114
1769246723834,-1.2192383,0.1274414,0.203125,-5.065918,-1.8310547,-2.1972656,0.0,0.0,0.0,6.053467,68.00537,-63.847046
1769246723922,-0.9526367,0.083984375,0.39208984,17.8833,32.89795,-6.1035156,0.0,0.0,0.0,6.053467,68.00537,-63.847046
1769246723935,-0.9526367,0.083984375,0.39208984,17.8833,32.89795,-6.1035156,0.0,0.0,0.0,6.723633,68.670044,-63.863525
1769246724022,-0.9838867,-0.119140625,0.6557617,-22.338867,58.71582,-0.48828125,0.0,0.0,0.0,6.723633,68.670044,-63.863525
1769246724033,-0.9838867,-0.119140625,0.6557617,-22.338867,58.71582,-0.48828125,0.0,0.0,0.0,6.564331,74.328,-64.56116
1769246724122,-0.72509766,0.100097656,0.37451172,16.845703,-30.456543,-2.1972656,0.0,0.0,0.0,6.564331,74.328,-64.56116
1769246724133,-0.72509766,0.100097656,0.37451172,16.845703,-30.456543,-2.1972656,0.0,0.0,0.0,4.790039,75.097046,-65.78613
1769246724221,-0.8676758,-0.08984375,0.0107421875,-25.268555,-12.634277,26.000977,0.0,0.0,0.0,4.790039,75.097046,-65.78613
1769246724233,-0.8676758,-0.08984375,0.0107421875,-25.268555,-12.634277,26.000977,0.0,0.0,0.0,8.690186,70.773926,-61.116943
1769246724321,-0.9199219,0.033691406,0.3852539,4.5166016,6.4086914,1.3427734,0.0,0.0,0.0,8.690186,70.773926,-61.116943
1769246724333,-0.9199219,0.033691406,0.3852539,4.5166016,6.4086914,1.3427734,0.0,0.0,0.0,10.239258,72.08679,-60.17212
1769246724421,-1.1845703,0.10253906,0.111816406,2.6855469,-3.9672852,18.920898,0.0,0.0,0.0,10.239258,72.08679,-60.17212
1769246724434,-1.1845703,0.10253906,0.111816406,2.6855469,-3.9672852,18.920898,0.0,0.0,0.0,12.722168,71.17493,-58.21106
1769246724520,-1.2197266,0.071777344,0.3779297,-45.410156,20.141602,16.418457,0.0,0.0,0.0,12.722168,71.17493,-58.21106
1769246724532,-1.2197266,0.071777344,0.3779297,-45.410156,20.141602,16.418457,0.0,0.0,0.0,16.14441,71.64734,-54.28894
1769246724620,-0.8691406,0.001953125,0.42871094,-12.512207,-1.2207031,-14.953613,0.0,0.0,0.0,16.14441,71.64734,-54.28894
