timestamp,accX,accY,accZ,gyroX,gyroY,gyroZ,magX,magY,magZ,roll,pitch,yaw
1769254723954,-0.6010742,0.046875,0.22851562,-0.9765625,-6.164551,13.122559,0.0,0.0,0.0,-38.463135,84.28711,-125.98572
1769254723965,-0.6010742,0.046875,0.22851562,-0.9765625,-6.164551,13.122559,0.0,0.0,0.0,-40.12207,83.95752,-129.99573
1769254724054,-1.2905273,-0.019042969,0.057128906,-24.902344,-12.084961,15.075684,0.0,0.0,0.0,-40.12207,83.95752,-129.99573
1769254724065,-1.2905273,-0.019042969,0.057128906,-24.902344,-12.084961,15.075684,0.0,0.0,0.0,-22.390137,83.04016,-110.29724
1769254724153,-0.8930664,-0.040039062,0.078125,7.6293945,-10.375977,-3.479004,0.0,0.0,0.0,-22.390137,83.04016,-110.29724
1769254724165,-0.8930664,-0.040039062,0.078125,7.6293945,-10.375977,-3.479004,0.0,0.0,0.0,-15.79834,82.836914,-103.52417
1769254724253,-1.0288086,-0.2241211,0.087402344,-3.0517578,-5.126953,7.019043,0.0,0.0,0.0,-15.79834,82.836914,-103.52417
1769254724266,-1.0288086,-0.2241211,0.087402344,-3.0517578,-5.126953,7.019043,0.0,0.0,0.0,-12.123413,82.70508,-100.46997
1769254724355,-1.0200195,-0.12597656,-0.12695312,9.82666,21.54541,-7.751465,0.0,0.0,0.0,-12.123413,82.70508,-100.46997
1769254724364,-1.0200195,-0.12597656,-0.12695312,9.82666,21.54541,-7.751465,0.0,0.0,0.0,-15.831299,83.32031,-103.826294
1769254724452,-1.0366211,0.15722656,0.37451172,26.855469,-23.68164,-8.911133,0.0,0.0,0.0,-15.831299,83.32031,-103.826294
1769254724464,-1.0366211,0.15722656,0.37451172,26.855469,-23.68164,-8.911133,0.0,0.0,0.0,-33.865356,83.14453,-124.08508
1769254724552,-1.2460938,0.15283203,0.19140625,2.4414062,-26.123047,12.817383,0.0,0.0,0.0,-33.865356,83.14453,-124.08508
1769254724563,-1.2460938,0.15283203,0.19140625,2.4414062,-26.123047,12.817383,0.0,0.0,0.0,-18.19336,80.24414,-110.09949
1769254724652,-0.8642578,0.09277344,0.3564453,48.15674,11.474609,-12.023926,0.0,0.0,0.0,-18.19336,80.24414,-110.09949
1769254724663,-0.8642578,0.09277344,0.3564453,48.15674,11.474609,-12.023926,0.0,0.0,0.0,-24.537964,79.903564,-122.20642
1769254724751,-1.0708008,-0.088378906,-0.1015625,15.197754,-9.155273,-7.751465,0.0,0.0,0.0,-24.537964,79.903564,-122.20642
1769254724763,-1.0708008,-0.088378906,-0.1015625,15.197754,-9.155273,-7.751465,0.0,0.0,0.0,-16.99585,77.684326,-115.32898
1769254724851,-1.043457,-0.16259766,0.15332031,10.864258,8.483887,-26.489258,0.0,0.0,0.0,-16.99585,77.684326,-115.32898
1769254724863,-1.043457,-0.16259766,0.15332031,10.864258,8.483887,-26.489258,0.0,0.0,0.0,-26.488037,77.57446,-127.99072
1769254724951,-1.25,-0.107910156,0.29248047,21.240234,13.183594,-20.324707,0.0,0.0,0.0,-26.488037,77.57446,-127.99072
1769254724963,-1.25,-0.107910156,0.29248047,21.240234,13.183594,-20.324707,0.0,0.0,0.0,-38.28186,77.805176,-140.11414
1769254725051,-0.6035156,-0.119140625,0.3076172,-22.460938,-4.0893555,18.127441,0.0,0.0,0.0,-38.28186,77.805176,-140.11414
1769254725062,-0.6035156,-0.119140625,0.3076172,-22.460938,-4.0893555,18.127441,0.0,0.0,0.0,-38.638916,78.10181,-141.427
1769254725150,-0.90283203,-0.06201172,0.087890625,-40.161133,-18.066406,30.578613,0.0,0.0,0.0,-38.638916,78.10181,-141.427
1769254725162,-0.90283203,-0.06201172,0.087890625,-40.161133,-18.066406,30.578613,0.0,0.0,0.0,-26.504517,77.44812,-126.1615
1769254725250,-1.0380859,-0.18798828,0.234375,-22.827148,-4.211426,22.338867,0.0,0.0,0.0,-26.504517,77.44812,-126.1615
1769254725262,-1.0380859,-0.18798828,0.234375,-22.827148,-4.211426,22.338867,0.0,0.0,0.0,-18.539429,77.629395,-114.89502
1769254725350,-0.94677734,-0.13427734,0.041992188,-13.061523,4.638672,23.925781,0.0,0.0,0.0,-18.539429,77.629395,-114.89502
1769254725361,-0.94677734,-0.13427734,0.041992188,-13.061523,4.638672,23.925781,0.0,0.0,0.0,-9.585571,77.73926,-103.342896
1769254725449,-1.2744141,-0.07080078,0.23339844,16.540527,30.273438,-2.1972656,0.0,0.0,0.0,-9.585571,77.73926,-103.342896
1769254725461,-1.2744141,-0.07080078,0.23339844,16.540527,30.273438,-2.1972656,0.0,0.0,0.0,-6.7510986,80.26611,-100.72815
1769254725549,-0.86279297,0.18359375,0.31201172,3.6621094,-15.197754,4.0283203,0.0,0.0,0.0,-6.7510986,80.26611,-100.72815
1769254725561,-0.86279297,0.18359375,0.31201172,3.6621094,-15.197754,4.0283203,0.0,0.0,0.0,-5.223999,80.996704,-101.15112
1769254725649,-0.81884766,-0.171875,-0.011230469,1.5258789,3.6010742,-7.446289,0.0,0.0,0.0,-5.223999,80.996704,-101.15112
1769254725660,-0.81884766,-0.171875,-0.011230469,1.5258789,3.6010742,-7.446289,0.0,0.0,0.0,-0.6591797,78.62915,-96.33362
1769254725749,-0.96728516,0.12011719,0.21972656,-44.677734,-10.681152,21.606445,0.0,0.0,0.0,-0.6591797,78.62915,-96.33362
1769254725760,-0.96728516,0.12011719,0.21972656,-44.677734,-10.681152,21.606445,0.0,0.0,0.0,3.850708,80.54077,-90.86792
1769254725848,-0.9868164,-0.0146484375,0.048339844,5.79834,30.517578,-15.136719,0.0,0.0,0.0,3.850708,80.54077,-90.86792
1769254725860,-0.9868164,-0.0146484375,0.048339844,5.79834,30.517578,-15.136719,0.0,0.0,0.0,4.713135,81.430664,-88.45093
1769254725948,-1.0532227,0.0,-0.019042969,-36.315918,5.2490234,-2.319336,0.0,0.0,0.0,4.713135,81.430664,-88.45093
1769254725959,-1.0532227,0.0,-0.019042969,-36.315918,5.2490234,-2.319336,0.0,0.0,0.0,-2.680664,83.06763,-94.25171
1769254726048,-1.394043,-0.036132812,0.09277344,4.3945312,22.155762,-25.6958,0.0,0.0,0.0,-2.680664,83.06763,-94.25171
1769254726059,-1.394043,-0.036132812,0.09277344,4.3945312,22.155762,-25.6958,0.0,0.0,0.0,-20.352173,84.677124,-109.46777
1769254726147,-0.4638672,-0.029785156,0.18310547,-40.58838,-2.9907227,3.7841797,0.0,0.0,0.0,-20.352173,84.677124,-109.46777
1769254726159,-0.4638672,-0.029785156,0.18310547,-40.58838,-2.9907227,3.7841797,0.0,0.0,0.0,-31.102295,84.64966,-120.04761
1769254726247,-1.090332,-0.048339844,-0.083496094,-46.813965,11.535645,18.737793,0.0,0.0,0.0,-31.102295,84.64966,-120.04761
1769254726259,-1.090332,-0.048339844,-0.083496094,-46.813965,11.535645,18.737793,0.0,0.0,0.0,-25.263062,83.913574,-110.07202
1769254726347,-0.97998047,-0.09375,0.04736328,-9.155273,3.9672852,-7.2631836,0.0,0.0,0.0,-25.263062,83.913574,-110.07202
1769254726358,-0.97998047,-0.09375,0.04736328,-9.155273,3.9672852,-7.2631836,0.0,0.0,0.0,-33.447876,84.75952,-116.674805
1769254726446,-1.0395508,-0.056640625,-0.0703125,7.873535,-5.6152344,4.272461,0.0,0.0,0.0,-33.447876,84.75952,-116.674805
1769254726458,-1.0395508,-0.056640625,-0.0703125,7.873535,-5.6152344,4.272461,0.0,0.0,0.0,-33.112793,84.38049,-116.05408
1769254726546,-1.0166016,-0.23291016,-0.08886719,29.35791,22.705078,-12.023926,0.0,0.0,0.0,-33.112793,84.38049,-116.05408
1769254726558,-1.0166016,-0.23291016,-0.08886719,29.35791,22.705078,-12.023926,0.0,0.0,0.0,-38.276367,85.02319,-123.29407
1769254726646,-0.8618164,0.020996094,0.33398438,-2.1972656,-14.587402,2.0751953,0.0,0.0,0.0,-38.276367,85.02319,-123.29407
1769254726657,-0.8618164,0.020996094,0.33398438,-2.1972656,-14.587402,2.0751953,0.0,0.0,0.0,-67.40662,85.39673,-154.1272
1769254726746,-1.3564453,0.110839844,0.12158203,-24.047852,-32.043457,13.000488,0.0,0.0,0.0,-67.40662,85.39673,-154.1272
1769254726757,-1.3564453,0.110839844,0.12158203,-24.047852,-32.043457,13.000488,0.0,0.0,0.0,-35.441895,83.0072,-122.7832
1769254726845,-0.81347656,0.025878906,0.31640625,-5.126953,0.6713867,0.7324219,0.0,0.0,0.0,-35.441895,83.0072,-122.7832
1769254726857,-0.81347656,0.025878906,0.31640625,-5.126953,0.6713867,0.7324219,0.0,0.0,0.0,-38.66638,81.97998,-128.60046
1769254726945,-1.0263672,-0.068359375,-0.13574219,-8.728027,-2.5024414,3.9672852,0.0,0.0,0.0,-38.66638,81.97998,-128.60046
1769254726957,-1.0263672,-0.068359375,-0.13574219,-8.728027,-2.5024414,3.9672852,0.0,0.0,0.0,-26.900024,80.29907,-114.58191
1769254727045,-1.1386719,-0.14160156,0.005859375,14.099121,6.0424805,-20.446777,0.0,0.0,0.0,-26.900024,80.29907,-114.58191
1769254727056,-1.1386719,-0.14160156,0.005859375,14.099121,6.0424805,-20.446777,0.0,0.0,0.0,-32.678833,80.32654,-121.54175
1769254727144,-1.2763672,-0.1665039,0.036621094,1.159668,17.333984,-13.85498,0.0,0.0,0.0,-32.678833,80.32654,-121.54175
1769254727156,-1.2763672,-0.1665039,0.036621094,1.159668,17.333984,-13.85498,0.0,0.0,0.0,-44.851685,80.90332,-133.78052
1769254727244,-0.62109375,0.0107421875,0.2788086,-16.357422,4.272461,6.8969727,0.0,0.0,0.0,-44.851685,80.90332,-133.78052
1769254727256,-0.62109375,0.0107421875,0.2788086,-16.357422,4.272461,6.8969727,0.0,0.0,0.0,-51.05896,80.9198,-140.99854
1769254727344,-1.1655273,-0.15966797,0.2553711,-39.855957,-39.123535,18.310547,0.0,0.0,0.0,-51.05896,80.9198,-140.99854
1769254727355,-1.1655273,-0.15966797,0.2553711,-39.855957,-39.123535,18.310547,0.0,0.0,0.0,-39.122314,79.974976,-126.16699
1769254727444,-0.9013672,-0.14257812,0.21044922,10.986328,11.962891,-17.089844,0.0,0.0,0.0,-39.122314,79.974976,-126.16699
1769254727456,-0.9013672,-0.14257812,0.21044922,10.986328,11.962891,-17.089844,0.0,0.0,0.0,-40.5011,80.48584,-125.99121
1769254727543,-0.98828125,-0.17382812,-0.068847656,-14.465332,-4.333496,9.70459,0.0,0.0,0.0,-40.5011,80.48584,-125.99121
1769254727555,-0.98828125,-0.17382812,-0.068847656,-14.465332,-4.333496,9.70459,0.0,0.0,0.0,-35.200195,80.12329,-118.98743
1769254727643,-0.99121094,-0.2680664,-0.09667969,10.375977,21.30127,-0.4272461,0.0,0.0,0.0,-35.200195,80.12329,-118.98743
1769254727655,-0.99121094,-0.2680664,-0.09667969,10.375977,21.30127,-0.4272461,0.0,0.0,0.0,-38.534546,81.31531,-122.84363
1769254727743,-1.1801758,-0.0048828125,0.48583984,20.202637,3.3569336,-1.7700195,0.0,0.0,0.0,-38.534546,81.31531,-122.84363
1769254727754,-1.1801758,-0.0048828125,0.48583984,20.202637,3.3569336,-1.7700195,0.0,0.0,0.0,-55.480957,82.69409,-141.04797
1769254727843,-1.3388672,0.060058594,0.061523438,-30.151367,-0.48828125,17.51709,0.0,0.0,0.0,-55.480957,82.69409,-141.04797
1769254727854,-1.3388672,0.060058594,0.061523438,-30.151367,-0.48828125,17.51709,0.0,0.0,0.0,-38.111572,81.57898,-123.54675
1769254727942,-0.7836914,0.1352539,0.20507812,7.5683594,-3.7231445,-3.8452148,0.0,0.0,0.0,-38.111572,81.57898,-123.54675
1769254727954,-0.7836914,0.1352539,0.20507812,7.5683594,-3.7231445,-3.8452148,0.0,0.0,0.0,-46.26892,80.38147,-134.80774
1769254728042,-1.0322266,-0.04638672,-0.06591797,21.484375,1.4038086,-7.751465,0.0,0.0,0.0,-46.26892,80.38147,-134.80774
1769254728057,-1.0322266,-0.04638672,-0.06591797,21.484375,1.4038086,-7.751465,0.0,0.0,0.0,-37.644653,80.31006,-125.617676
1769254728142,-1.0864258,-0.27734375,0.12695312,4.5166016,-0.7324219,-23.925781,0.0,0.0,0.0,-37.644653,80.31006,-125.617676
1769254728153,-1.0864258,-0.27734375,0.12695312,4.5166016,-0.7324219,-23.925781,0.0,0.0,0.0,-43.516846,79.86511,-132.68738
1769254728242,-1.1914062,-0.109375,0.13134766,12.145996,-0.8544922,-17.578125,0.0,0.0,0.0,-43.516846,79.86511,-132.68738
1769254728253,-1.1914062,-0.109375,0.13134766,12.145996,-0.8544922,-17.578125,0.0,0.0,0.0,-54.179077,79.09607,-142.43225
1769254728341,-0.70947266,-0.1850586,0.39160156,-52.18506,-20.568848,4.3945312,0.0,0.0,0.0,-54.179077,79.09607,-142.43225
1769254728356,-0.70947266,-0.1850586,0.39160156,-52.18506,-20.568848,4.3945312,0.0,0.0,0.0,-53.503418,78.046875,-141.54236
1769254728441,-0.8798828,-0.16308594,0.12841797,-14.221191,0.6713867,-6.1035156,0.0,0.0,0.0,-53.503418,78.046875,-141.54236
1769254728453,-0.8798828,-0.16308594,0.12841797,-14.221191,0.6713867,-6.1035156,0.0,0.0,0.0,-52.075195,77.2229,-136.07117
1769254728540,-0.9189453,-0.26123047,0.08886719,-15.808105,-2.9296875,3.1738281,0.0,0.0,0.0,-52.075195,77.2229,-136.07117
1769254728552,-0.9189453,-0.26123047,0.08886719,-15.808105,-2.9296875,3.1738281,0.0,0.0,0.0,-53.475952,76.91528,-135.75256
1769254728640,-1.034668,-0.26464844,-0.041503906,-1.8310547,4.5166016,8.422852,0.0,0.0,0.0,-53.475952,76.91528,-135.75256
1769254728652,-1.034668,-0.26464844,-0.041503906,-1.8310547,4.5166016,8.422852,0.0,0.0,0.0,-54.014282,77.33826,-134.8352
1769254728740,-1.0385742,-0.24609375,-0.16064453,-7.751465,26.306152,9.094238,0.0,0.0,0.0,-54.014282,77.33826,-134.8352
1769254728751,-1.0385742,-0.24609375,-0.16064453,-7.751465,26.306152,9.094238,0.0,0.0,0.0,-56.722412,78.43689,-138.41125
1769254728840,-0.75,-0.10058594,0.3125,25.57373,-0.6713867,-12.145996,0.0,0.0,0.0,-56.722412,78.43689,-138.41125
1769254728851,-0.75,-0.10058594,0.3125,25.57373,-0.6713867,-12.145996,0.0,0.0,0.0,-71.61438,79.62891,-157.04956
1769254728939,-0.9213867,0.013671875,0.39111328,16.052246,-29.47998,19.042969,0.0,0.0,0.0,-71.61438,79.62891,-157.04956
1769254728951,-0.9213867,0.013671875,0.39111328,16.052246,-29.47998,19.042969,0.0,0.0,0.0,-64.6051,79.28284,-152.9187
1769254729039,-0.9038086,-0.068847656,0.0073242188,32.409668,-1.3427734,-11.901855,0.0,0.0,0.0,-64.6051,79.28284,-152.9187
1769254729050,-0.9038086,-0.068847656,0.0073242188,32.409668,-1.3427734,-11.901855,0.0,0.0,0.0,-53.5968,77.66785,-140.15808
1769254729139,-0.9526367,-0.08496094,-0.078125,-16.845703,-9.70459,9.094238,0.0,0.0,0.0,-53.5968,77.66785,-140.15808
1769254729150,-0.9526367,-0.08496094,-0.078125,-16.845703,-9.70459,9.094238,0.0,0.0,0.0,-49.5813,77.041626,-136.06567
1769254729238,-1.1342773,-0.12890625,-0.013183594,2.6245117,20.019531,10.192871,0.0,0.0,0.0,-49.5813,77.041626,-136.06567
1769254729251,-1.1342773,-0.12890625,-0.013183594,2.6245117,20.019531,10.192871,0.0,0.0,0.0,-49.921875,79.0741,-136.40076
1769254729338,-1.362793,-0.14746094,-0.083496094,11.535645,30.700684,-9.70459,0.0,0.0,0.0,-49.921875,79.0741,-136.40076
1769254729350,-1.362793,-0.14746094,-0.083496094,11.535645,30.700684,-9.70459,0.0,0.0,0.0,-62.248535,80.29358,-148.51318
1769254729438,-0.54589844,0.01171875,0.23730469,0.18310547,11.352539,16.967773,0.0,0.0,0.0,-62.248535,80.29358,-148.51318
1769254729449,-0.54589844,0.01171875,0.23730469,0.18310547,11.352539,16.967773,0.0,0.0,0.0,-68.42285,80.69458,-157.54395
1769254729538,-1.2319336,-0.16748047,-0.057617188,-81.726074,-28.381348,22.766113,0.0,0.0,0.0,-68.42285,80.69458,-157.54395
1769254729549,-1.2319336,-0.16748047,-0.057617188,-81.726074,-28.381348,22.766113,0.0,0.0,0.0,-52.338867,83.172,-138.6914
1769254729637,-0.83691406,-0.017578125,0.17626953,-6.713867,-1.4038086,3.7841797,0.0,0.0,0.0,-52.338867,83.172,-138.6914
1769254729649,-0.83691406,-0.017578125,0.17626953,-6.713867,-1.4038086,3.7841797,0.0,0.0,0.0,-53.448486,83.67737,-138.62549
1769254729737,-1.0288086,-0.2763672,-0.005859375,-15.075684,1.8310547,-2.319336,0.0,0.0,0.0,-53.448486,83.67737,-138.62549
1769254729749,-1.0288086,-0.2763672,-0.005859375,-15.075684,1.8310547,-2.319336,0.0,0.0,0.0,-48.30139,83.68286,-132.08313
1769254729838,-1.1035156,-0.08251953,-0.11621094,-9.82666,0.79345703,17.456055,0.0,0.0,0.0,-48.30139,83.68286,-132.08313
1769254729848,-1.1035156,-0.08251953,-0.11621094,-9.82666,0.79345703,17.456055,0.0,0.0,0.0,-46.345825,83.38074,-129.83093
1769254729937,-1.2124023,-0.100097656,0.20458984,-14.831543,13.122559,-1.2207031,0.0,0.0,0.0,-46.345825,83.38074,-129.83093
1769254729948,-1.2124023,-0.100097656,0.20458984,-14.831543,13.122559,-1.2207031,0.0,0.0,0.0,-57.035522,84.627686,-139.7461
1769254730036,-0.58691406,0.171875,0.13769531,36.621094,-36.132812,-13.793945,0.0,0.0,0.0,-57.035522,84.627686,-139.7461
1769254730048,-0.58691406,0.171875,0.13769531,36.621094,-36.132812,-13.793945,0.0,0.0,0.0,-46.42273,82.82593,-130.44067
1769254730136,-1.2041016,-0.34716797,0.09716797,6.3476562,-29.418945,-4.699707,0.0,0.0,0.0,-46.42273,82.82593,-130.44067
1769254730147,-1.2041016,-0.34716797,0.09716797,6.3476562,-29.418945,-4.699707,0.0,0.0,0.0,-25.823364,80.67261,-109.35242
1769254730236,-0.8730469,0.0053710938,0.1538086,11.59668,-14.770508,10.314941,0.0,0.0,0.0,-25.823364,80.67261,-109.35242
1769254730247,-0.8730469,0.0053710938,0.1538086,11.59668,-14.770508,10.314941,0.0,0.0,0.0,-22.653809,80.54077,-107.545166
1769254730335,-1.0209961,-0.03173828,0.001953125,18.005371,7.8125,3.7231445,0.0,0.0,0.0,-22.653809,80.54077,-107.545166
1769254730347,-1.0209961,-0.03173828,0.001953125,18.005371,7.8125,3.7231445,0.0,0.0,0.0,-14.853516,80.91431,-99.73389
1769254730435,-1.0932617,-0.03564453,0.032226562,-22.277832,9.70459,-10.192871,0.0,0.0,0.0,-14.853516,80.91431,-99.73389
1769254730448,-1.0932617,-0.03564453,0.032226562,-22.277832,9.70459,-10.192871,0.0,0.0,0.0,-16.97937,81.57349,-101.8103
1769254730535,-1.105957,-0.0053710938,0.13476562,27.09961,2.0141602,-18.432617,0.0,0.0,0.0,-16.97937,81.57349,-101.8103
1769254730547,-1.105957,-0.0053710938,0.13476562,27.09961,2.0141602,-18.432617,0.0,0.0,0.0,-30.217896,82.51831,-113.933716
1769254730635,-0.87597656,-0.18066406,0.4086914,3.6621094,13.916016,0.0,0.0,0.0,0.0,-30.217896,82.51831,-113.933716
1769254730647,-0.87597656,-0.18066406,0.4086914,3.6621094,13.916016,0.0,0.0,0.0,0.0,-39.797974,82.93579,-124.61792
1769254730736,-0.98535156,-0.28271484,-0.2915039,-38.085938,2.6855469,12.329102,0.0,0.0,0.0,-39.797974,82.93579,-124.61792
1769254730746,-0.98535156,-0.28271484,-0.2915039,-38.085938,2.6855469,12.329102,0.0,0.0,0.0,-18.583374,81.60095,-102.73865
1769254730834,-0.91503906,-0.08154297,0.4013672,12.512207,-6.0424805,3.1738281,0.0,0.0,0.0,-18.583374,81.60095,-102.73865
1769254730845,-0.91503906,-0.08154297,0.4013672,12.512207,-6.0424805,3.1738281,0.0,0.0,0.0,-30.2948,82.298584,-117.405396
1769254730933,-1.0083008,-0.087890625,-0.030273438,5.1879883,15.991211,1.4038086,0.0,0.0,0.0,-30.2948,82.298584,-117.405396
1769254730945,-1.0083008,-0.087890625,-0.030273438,5.1879883,15.991211,1.4038086,0.0,0.0,0.0,-23.900757,81.70532,-109.5282
1769254731033,-1.027832,-0.22558594,-0.06298828,-12.939453,20.263672,1.6479492,0.0,0.0,0.0,-23.900757,81.70532,-109.5282
1769254731045,-1.027832,-0.22558594,-0.06298828,-12.939453,20.263672,1.6479492,0.0,0.0,0.0,-29.091797,83.18298,-114.279785
1769254731133,-1.0019531,0.020019531,0.26464844,-5.9814453,8.300781,-1.2207031,0.0,0.0,0.0,-29.091797,83.18298,-114.279785
1769254731144,-1.0019531,0.020019531,0.26464844,-5.9814453,8.300781,-1.2207031,0.0,0.0,0.0,-52.82776,84.990234,-137.13135
1769254731233,-0.98339844,0.27978516,0.24658203,3.6010742,-19.714355,0.0,0.0,0.0,0.0,-52.82776,84.990234,-137.13135
1769254731244,-0.98339844,0.27978516,0.24658203,3.6010742,-19.714355,0.0,0.0,0.0,0.0,-42.198486,83.50159,-127.39746
1769254731332,-1.0283203,-0.31640625,-0.10498047,50.354004,9.70459,-32.77588,0.0,0.0,0.0,-42.198486,83.50159,-127.39746
1769254731344,-1.0283203,-0.31640625,-0.10498047,50.354004,9.70459,-32.77588,0.0,0.0,0.0,-37.007446,82.34802,-122.98645
1769254731432,-0.90771484,-0.041015625,0.10205078,1.2207031,-18.066406,2.319336,0.0,0.0,0.0,-37.007446,82.34802,-122.98645
1769254731444,-0.90771484,-0.041015625,0.10205078,1.2207031,-18.066406,2.319336,0.0,0.0,0.0,-37.13379,81.84265,-125.29358
1769254731532,-1.0249023,-0.10839844,0.013671875,16.357422,-3.4179688,-6.713867,0.0,0.0,0.0,-37.13379,81.84265,-125.29358
1769254731544,-1.0249023,-0.10839844,0.013671875,16.357422,-3.4179688,-6.713867,0.0,0.0,0.0,-35.21118,81.936035,-124.27185
1769254731632,-1.1137695,-0.114746094,-0.043945312,-9.399414,1.8920898,-7.5683594,0.0,0.0,0.0,-35.21118,81.936035,-124.27185
1769254731643,-1.1137695,-0.114746094,-0.043945312,-9.399414,1.8920898,-7.5683594,0.0,0.0,0.0,-42.736816,81.66687,-132.36877
1769254731731,-1.15625,-0.14404297,-0.0053710938,34.851074,7.8125,-15.930176,0.0,0.0,0.0,-42.736816,81.66687,-132.36877
1769254731743,-1.15625,-0.14404297,-0.0053710938,34.851074,7.8125,-15.930176,0.0,0.0,0.0,-54.470215,81.99646,-144.99207
1769254731831,-0.6352539,-0.07910156,0.31933594,-27.09961,10.070801,13.61084,0.0,0.0,0.0,-54.470215,81.99646,-144.99207
1769254731842,-0.6352539,-0.07910156,0.31933594,-27.09961,10.070801,13.61084,0.0,0.0,0.0,-59.21631,82.51831,-150.31494
1769254731931,-1.1269531,0.011230469,0.060546875,-82.51953,-49.865723,15.808105,0.0,0.0,0.0,-59.21631,82.51831,-150.31494
1769254731943,-1.1269531,0.011230469,0.060546875,-82.51953,-49.865723,15.808105,0.0,0.0,0.0,-40.17151,81.968994,-126.55701
1769254732030,-0.8769531,0.030273438,0.063964844,-6.713867,0.36621094,0.12207031,0.0,0.0,0.0,-40.17151,81.968994,-126.55701
1769254732042,-0.8769531,0.030273438,0.063964844,-6.713867,0.36621094,0.12207031,0.0,0.0,0.0,-42.96753,84.435425,-126.55151
1769254732130,-1.0620117,-0.24658203,0.017578125,10.009766,3.6010742,-3.540039,0.0,0.0,0.0,-42.96753,84.435425,-126.55151
1769254732141,-1.0620117,-0.24658203,0.017578125,10.009766,3.6010742,-3.540039,0.0,0.0,0.0,-37.98523,84.00696,-122.178955
1769254732230,-1.0908203,-0.12695312,-0.09375,-11.71875,31.12793,7.6293945,0.0,0.0,0.0,-37.98523,84.00696,-122.178955
1769254732241,-1.0908203,-0.12695312,-0.09375,-11.71875,31.12793,7.6293945,0.0,0.0,0.0,-54.228516,85.96802,-137.5653
1769254732329,-1.2163086,-0.07714844,0.12158203,-12.268066,43.945312,-7.9345703,0.0,0.0,0.0,-54.228516,85.96802,-137.5653
1769254732341,-1.2163086,-0.07714844,0.12158203,-12.268066,43.945312,-7.9345703,0.0,0.0,0.0,-117.65259,85.36926,160.49377
1769254732429,-0.6743164,0.19726562,0.10449219,4.8828125,-52.55127,2.5634766,0.0,0.0,0.0,-117.65259,85.36926,160.49377
1769254732441,-0.6743164,0.19726562,0.10449219,4.8828125,-52.55127,2.5634766,0.0,0.0,0.0,-84.49036,85.61096,-166.44836
1769254732529,-1.0385742,-0.19873047,-0.01953125,82.51953,6.225586,-48.52295,0.0,0.0,0.0,-84.49036,85.61096,-166.44836
1769254732540,-1.0385742,-0.19873047,-0.01953125,82.51953,6.225586,-48.52295,0.0,0.0,0.0,-70.04883,85.12756,-153.12744
1769254732629,-0.85546875,-0.044433594,0.033203125,-7.6293945,-14.587402,1.3427734,0.0,0.0,0.0,-70.04883,85.12756,-153.12744
1769254732640,-0.85546875,-0.044433594,0.033203125,-7.6293945,-14.587402,1.3427734,0.0,0.0,0.0,-59.716187,84.46838,-144.0857
1769254732728,-1.0332031,-0.07470703,-0.14892578,1.5869141,-0.48828125,-4.3945312,0.0,0.0,0.0,-59.716187,84.46838,-144.0857
1769254732740,-1.0332031,-0.07470703,-0.14892578,1.5869141,-0.48828125,-4.3945312,0.0,0.0,0.0,-56.310425,85.00122,-139.71313
1769254732828,-1.1191406,-0.033691406,-0.044921875,-24.963379,-8.300781,-13.73291,0.0,0.0,0.0,-56.310425,85.00122,-139.71313
1769254732840,-1.1191406,-0.033691406,-0.044921875,-24.963379,-8.300781,-13.73291,0.0,0.0,0.0,-66.676025,83.809204,-149.91394
1769254732928,-1.171875,-0.06933594,-0.06347656,80.13916,5.493164,-31.49414,0.0,0.0,0.0,-66.676025,83.809204,-149.91394
1769254732939,-1.171875,-0.06933594,-0.06347656,80.13916,5.493164,-31.49414,0.0,0.0,0.0,-84.885864,83.150024,-167.44812
1769254733027,-0.7290039,-0.15966797,0.3696289,-31.555176,9.338379,8.117676,0.0,0.0,0.0,-84.885864,83.150024,-167.44812
1769254733039,-0.7290039,-0.15966797,0.3696289,-31.555176,9.338379,8.117676,0.0,0.0,0.0,-81.936035,82.41394,-168.19519
1769254733128,-0.9951172,0.029785156,-0.36572266,-49.316406,11.413574,37.41455,0.0,0.0,0.0,-81.936035,82.41394,-168.19519
1769254733139,-0.9951172,0.029785156,-0.36572266,-49.316406,11.413574,37.41455,0.0,0.0,0.0,-62.611084,83.776245,-146.79382
1769254733227,-0.92626953,-0.06933594,0.16503906,10.009766,-34.057617,9.70459,0.0,0.0,0.0,-62.611084,83.776245,-146.79382
1769254733238,-0.92626953,-0.06933594,0.16503906,10.009766,-34.057617,9.70459,0.0,0.0,0.0,-60.023804,84.09485,-147.75513
1769254733326,-1.0244141,-0.16699219,0.095214844,-8.178711,-1.7089844,11.71875,0.0,0.0,0.0,-60.023804,84.09485,-147.75513
1769254733338,-1.0244141,-0.16699219,0.095214844,-8.178711,-1.7089844,11.71875,0.0,0.0,0.0,-43.4729,84.07837,-130.77026
1769254733426,-1.1162109,-0.12402344,-0.059570312,-5.6152344,7.9345703,4.760742,0.0,0.0,0.0,-43.4729,84.07837,-130.77026
1769254733438,-1.1162109,-0.12402344,-0.059570312,-5.6152344,7.9345703,4.760742,0.0,0.0,0.0,-41.709595,84.84741,-127.91931
1769254733526,-1.2485352,-0.119628906,-0.07519531,-3.4179688,34.240723,-3.0517578,0.0,0.0,0.0,-41.709595,84.84741,-127.91931
1769254733538,-1.2485352,-0.119628906,-0.07519531,-3.4179688,34.240723,-3.0517578,0.0,0.0,0.0,-64.24805,86.050415,-149.82605
1769254733626,-0.6748047,-0.0146484375,0.12792969,36.132812,-32.65381,-9.58252,0.0,0.0,0.0,-64.24805,86.050415,-149.82605
1769254733637,-0.6748047,-0.0146484375,0.12792969,36.132812,-32.65381,-9.58252,0.0,0.0,0.0,-73.33374,85.9845,-160.00488
1769254733725,-1.2651367,-0.07470703,0.16455078,2.380371,-19.77539,-9.70459,0.0,0.0,0.0,-73.33374,85.9845,-160.00488
1769254733737,-1.2651367,-0.07470703,0.16455078,2.380371,-19.77539,-9.70459,0.0,0.0,0.0,-44.86267,83.86963,-133.7201
1769254733825,-0.79589844,0.022949219,0.171875,-5.3710938,0.24414062,11.291504,0.0,0.0,0.0,-44.86267,83.86963,-133.7201
1769254733837,-0.79589844,0.022949219,0.171875,-5.3710938,0.24414062,11.291504,0.0,0.0,0.0,-55.96985,82.820435,-147.3706
1769254733925,-1.0292969,-0.043945312,-0.10205078,-7.8125,2.0751953,11.230469,0.0,0.0,0.0,-55.96985,82.820435,-147.3706
1769254733936,-1.0292969,-0.043945312,-0.10205078,-7.8125,2.0751953,11.230469,0.0,0.0,0.0,-46.6864,83.150024,-137.06543
1769254734024,-1.0488281,-0.15136719,0.061035156,-0.36621094,5.7373047,-14.160156,0.0,0.0,0.0,-46.6864,83.150024,-137.06543
1769254734037,-1.0488281,-0.15136719,0.061035156,-0.36621094,5.7373047,-14.160156,0.0,0.0,0.0,-51.99829,83.38623,-142.41028
1769254734124,-1.2666016,-0.110839844,-0.30078125,-34.606934,30.517578,-3.2348633,0.0,0.0,0.0,-51.99829,83.38623,-142.41028
1769254734136,-1.2666016,-0.110839844,-0.30078125,-34.606934,30.517578,-3.2348633,0.0,0.0,0.0,-59.084473,83.01819,-147.02454
1769254734224,-0.83203125,0.14453125,0.19628906,53.894043,6.958008,-8.422852,0.0,0.0,0.0,-59.084473,83.01819,-147.02454
1769254734235,-0.83203125,0.14453125,0.19628906,53.894043,6.958008,-8.422852,0.0,0.0,0.0,-79.30481,82.33154,-172.18872
1769254734324,-1.0742188,-0.44921875,0.4658203,-15.197754,-10.864258,24.658203,0.0,0.0,0.0,-79.30481,82.33154,-172.18872
1769254734335,-1.0742188,-0.44921875,0.4658203,-15.197754,-10.864258,24.658203,0.0,0.0,0.0,-69.834595,83.479614,-162.52075
1769254734424,-0.8256836,-0.021484375,0.14160156,6.591797,-2.9296875,3.8452148,0.0,0.0,0.0,-69.834595,83.479614,-162.52075
1769254734435,-0.8256836,-0.021484375,0.14160156,6.591797,-2.9296875,3.8452148,0.0,0.0,0.0,-66.708984,84.18823,-159.14795
1769254734523,-0.96777344,-0.19824219,0.083496094,9.155273,-3.0517578,-0.12207031,0.0,0.0,0.0,-66.708984,84.18823,-159.14795
1769254734535,-0.96777344,-0.19824219,0.083496094,9.155273,-3.0517578,-0.12207031,0.0,0.0,0.0,-57.81555,84.01245,-150.30945
1769254734623,-1.1049805,-0.10107422,-0.033203125,-1.2207031,4.760742,3.8452148,0.0,0.0,0.0,-57.81555,84.01245,-150.30945
1769254734634,-1.1049805,-0.10107422,-0.033203125,-1.2207031,4.760742,3.8452148,0.0,0.0,0.0,-56.66748,83.71033,-148.84827
1769254734722,-1.0439453,-0.2631836,-0.115234375,-3.1738281,20.141602,0.7324219,0.0,0.0,0.0,-56.66748,83.71033,-148.84827
1769254734734,-1.0439453,-0.2631836,-0.115234375,-3.1738281,20.141602,0.7324219,0.0,0.0,0.0,-63.753662,84.677124,-155.75867
1769254734822,-0.8574219,0.008300781,0.24414062,-2.0141602,-0.61035156,-0.5493164,0.0,0.0,0.0,-63.753662,84.677124,-155.75867
1769254734834,-0.8574219,0.008300781,0.24414062,-2.0141602,-0.61035156,-0.5493164,0.0,0.0,0.0,-99.003296,84.80896,170.15625
1769254734922,-0.9995117,0.24316406,0.18701172,-15.991211,-26.550293,23.742676,0.0,0.0,0.0,-99.003296,84.80896,170.15625
1769254734933,-0.9995117,0.24316406,0.18701172,-15.991211,-26.550293,23.742676,0.0,0.0,0.0,-64.506226,84.88037,-156.44531
1769254735022,-0.9091797,-0.068359375,-0.0073242188,44.677734,7.9956055,-16.845703,0.0,0.0,0.0,-64.506226,84.88037,-156.44531
1769254735033,-0.9091797,-0.068359375,-0.0073242188,44.677734,7.9956055,-16.845703,0.0,0.0,0.0,-48.169556,84.1333,-141.026
1769254735122,-0.9511719,-0.020507812,0.013183594,-28.747559,-10.986328,8.117676,0.0,0.0,0.0,-48.169556,84.1333,-141.026
1769254735133,-0.9511719,-0.020507812,0.013183594,-28.747559,-10.986328,8.117676,0.0,0.0,0.0,-41.92383,83.600464,-134.1211
1769254735221,-1.0947266,-0.091308594,-0.061523438,-30.151367,-6.8969727,-0.36621094,0.0,0.0,0.0,-41.92383,83.600464,-134.1211
1769254735233,-1.0947266,-0.091308594,-0.061523438,-30.151367,-6.8969727,-0.36621094,0.0,0.0,0.0,-35.507812,83.77075,-124.53552
1769254735321,-1.0859375,0.07324219,-0.095214844,-30.822754,1.5258789,-0.36621094,0.0,0.0,0.0,-35.507812,83.77075,-124.53552
1769254735332,-1.0859375,0.07324219,-0.095214844,-30.822754,1.5258789,-0.36621094,0.0,0.0,0.0,-43.220215,83.46863,-129.2981
1769254735420,-1.0551758,0.009765625,0.064453125,51.51367,12.817383,-15.563965,0.0,0.0,0.0,-43.220215,83.46863,-129.2981
1769254735432,-1.0551758,0.009765625,0.064453125,51.51367,12.817383,-15.563965,0.0,0.0,0.0,-57.22229,84.58923,-142.03674
1769254735520,-0.6933594,-0.079589844,0.32714844,-28.381348,10.070801,7.6904297,0.0,0.0,0.0,-57.22229,84.58923,-142.03674
1769254735532,-0.6933594,-0.079589844,0.32714844,-28.381348,10.070801,7.6904297,0.0,0.0,0.0,-61.204834,84.99573,-147.59583
1769254735620,-1.1171875,-0.03857422,-0.27246094,-93.38379,-2.8076172,51.208496,0.0,0.0,0.0,-61.204834,84.99573,-147.59583
1769254735631,-1.1171875,-0.03857422,-0.27246094,-93.38379,-2.8076172,51.208496,0.0,0.0,0.0,-34.178467,85.45715,-118.10303
1769254735720,-0.93847656,-0.07861328,0.07470703,-2.6245117,-15.014648,-7.080078,0.0,0.0,0.0,-34.178467,85.45715,-118.10303
1769254735731,-0.93847656,-0.07861328,0.07470703,-2.6245117,-15.014648,-7.080078,0.0,0.0,0.0,-37.25464,85.303345,-122.18994
1769254735819,-1.0463867,-0.14746094,-0.08251953,-6.4697266,3.0517578,10.925293,0.0,0.0,0.0,-37.25464,85.303345,-122.18994
1769254735831,-1.0463867,-0.14746094,-0.08251953,-6.4697266,3.0517578,10.925293,0.0,0.0,0.0,-38.31482,85.60547,-123.56323
1769254735919,-0.97802734,-0.28564453,-0.0068359375,-11.71875,22.094727,-12.451172,0.0,0.0,0.0,-38.31482,85.60547,-123.56323
1769254735931,-0.97802734,-0.28564453,-0.0068359375,-11.71875,22.094727,-12.451172,0.0,0.0,0.0,-64.53369,86.42395,-149.45801
1769254736019,-1.324707,0.049804688,0.24951172,-5.126953,10.009766,-6.1035156,0.0,0.0,0.0,-64.53369,86.42395,-149.45801
1769254736030,-1.324707,0.049804688,0.24951172,-5.126953,10.009766,-6.1035156,0.0,0.0,0.0,-102.041016,85.77026,175.81421
1769254736119,-0.8652344,0.26513672,-0.103027344,-14.892578,-26.000977,5.432129,0.0,0.0,0.0,-102.041016,85.77026,175.81421
1769254736130,-0.8652344,0.26513672,-0.103027344,-14.892578,-26.000977,5.432129,0.0,0.0,0.0,-51.75659,85.006714,-133.7915
1769254736218,-0.89990234,-0.05908203,0.1899414,82.82471,7.6904297,-10.864258,0.0,0.0,0.0,-51.75659,85.006714,-133.7915
1769254736230,-0.89990234,-0.05908203,0.1899414,82.82471,7.6904297,-10.864258,0.0,0.0,0.0,-62.858276,83.84766,-150.77637
1769254736318,-0.9091797,-0.009277344,-0.00390625,8.239746,-5.1879883,-1.8310547,0.0,0.0,0.0,-62.858276,83.84766,-150.77637
1769254736329,-0.9091797,-0.009277344,-0.00390625,8.239746,-5.1879883,-1.8310547,0.0,0.0,0.0,-47.889404,83.23242,-136.31287
1769254736418,-1.0205078,-0.06542969,-0.09326172,15.441895,1.8310547,-2.6245117,0.0,0.0,0.0,-47.889404,83.23242,-136.31287
1769254736429,-1.0205078,-0.06542969,-0.09326172,15.441895,1.8310547,-2.6245117,0.0,0.0,0.0,-50.03174,83.97949,-139.15833
1769254736518,-1.1606445,-0.119140625,-0.020019531,-5.6762695,-2.2583008,-3.90625,0.0,0.0,0.0,-50.03174,83.97949,-139.15833
1769254736529,-1.1606445,-0.119140625,-0.020019531,-5.6762695,-2.2583008,-3.90625,0.0,0.0,0.0,-58.222046,83.83118,-148.69446
1769254736617,-1.0756836,-0.056640625,0.014160156,50.231934,4.3945312,-22.399902,0.0,0.0,0.0,-58.222046,83.83118,-148.69446
1769254736629,-1.0756836,-0.056640625,0.014160156,50.231934,4.3945312,-22.399902,0.0,0.0,0.0,-70.18616,82.94678,-162.13074
1769254736717,-0.66503906,-0.107421875,0.3310547,-13.366699,1.2207031,8.911133,0.0,0.0,0.0,-70.18616,82.94678,-162.13074
1769254736728,-0.66503906,-0.107421875,0.3310547,-13.366699,1.2207031,8.911133,0.0,0.0,0.0,-71.82312,82.941284,-165.92102
1769254736816,-1.0517578,0.072753906,-0.12792969,-93.26172,-34.729004,44.98291,0.0,0.0,0.0,-71.82312,82.941284,-165.92102
1769254736828,-1.0517578,0.072753906,-0.12792969,-93.26172,-34.729004,44.98291,0.0,0.0,0.0,-42.4292,82.91382,-133.42896
1769254736916,-0.89697266,0.03955078,0.08886719,2.5634766,-20.446777,-1.4038086,0.0,0.0,0.0,-42.4292,82.91382,-133.42896
1769254736928,-0.89697266,0.03955078,0.08886719,2.5634766,-20.446777,-1.4038086,0.0,0.0,0.0,-32.244873,83.309326,-121.777954
1769254737016,-1.0615234,-0.19873047,0.07128906,-19.348145,-4.3945312,4.9438477,0.0,0.0,0.0,-32.244873,83.309326,-121.777954
1769254737027,-1.0615234,-0.19873047,0.07128906,-19.348145,-4.3945312,4.9438477,0.0,0.0,0.0,-25.466309,82.33154,-114.296265
1769254737116,-1.1147461,-0.14892578,0.01171875,-3.3569336,20.324707,0.0,0.0,0.0,0.0,-25.466309,82.33154,-114.296265
1769254737127,-1.1147461,-0.14892578,0.01171875,-3.3569336,20.324707,0.0,0.0,0.0,0.0,-31.426392,83.638916,-119.503784
1769254737215,-1.237793,-0.12158203,0.057617188,-16.479492,43.518066,-10.925293,0.0,0.0,0.0,-31.426392,83.638916,-119.503784
1769254737227,-1.237793,-0.12158203,0.057617188,-16.479492,43.518066,-10.925293,0.0,0.0,0.0,-68.84033,85.17151,-155.98938
1769254737315,-0.6113281,0.11376953,0.16845703,19.042969,-27.954102,-16.784668,0.0,0.0,0.0,-68.84033,85.17151,-155.98938
1769254737327,-0.6113281,0.11376953,0.16845703,19.042969,-27.954102,-16.784668,0.0,0.0,0.0,-75.87158,84.06738,-163.09753
1769254737415,-1.3110352,-0.3466797,-0.17626953,3.3569336,0.79345703,-23.4375,0.0,0.0,0.0,-75.87158,84.06738,-163.09753
1769254737426,-1.3110352,-0.3466797,-0.17626953,3.3569336,0.79345703,-23.4375,0.0,0.0,0.0,-53.17383,83.06763,-140.10864
1769254737514,-0.8339844,-0.07080078,0.17382812,-23.620605,-13.977051,14.099121,0.0,0.0,0.0,-53.17383,83.06763,-140.10864
1769254737526,-0.8339844,-0.07080078,0.17382812,-23.620605,-13.977051,14.099121,0.0,0.0,0.0,-60.446777,82.39746,-150.65002
1769254737614,-1.0024414,-0.04638672,-0.083496094,-20.812988,-7.446289,12.084961,0.0,0.0,0.0,-60.446777,82.39746,-150.65002
1769254737626,-1.0024414,-0.04638672,-0.083496094,-20.812988,-7.446289,12.084961,0.0,0.0,0.0,-51.069946,82.77649,-139.5813
1769254737714,-1.0732422,-0.13574219,0.027832031,-8.117676,9.82666,-11.291504,0.0,0.0,0.0,-51.069946,82.77649,-139.5813
1769254737725,-1.0732422,-0.13574219,0.027832031,-8.117676,9.82666,-11.291504,0.0,0.0,0.0,-56.689453,83.09509,-144.00879
1769254737814,-1.3647461,-0.12060547,-0.22021484,4.5166016,29.296875,-8.117676,0.0,0.0,0.0,-56.689453,83.09509,-144.00879
1769254737825,-1.3647461,-0.12060547,-0.22021484,4.5166016,29.296875,-8.117676,0.0,0.0,0.0,-70.460815,83.27637,-155.4895
1769254737913,-0.68847656,-0.018554688,0.30859375,0.7324219,-14.770508,18.188477,0.0,0.0,0.0,-70.460815,83.27637,-155.4895
1769254737925,-0.68847656,-0.018554688,0.30859375,0.7324219,-14.770508,18.188477,0.0,0.0,0.0,-78.70056,83.237915,-167.26135
1769254738013,-1.0756836,-0.13085938,-0.14990234,-36.254883,14.404297,9.155273,0.0,0.0,0.0,-78.70056,83.237915,-167.26135
1769254738025,-1.0756836,-0.13085938,-0.14990234,-36.254883,14.404297,9.155273,0.0,0.0,0.0,-65.0116,84.36951,-149.9414
1769254738113,-0.89160156,-0.1015625,-0.015136719,-16.479492,-10.7421875,14.892578,0.0,0.0,0.0,-65.0116,84.36951,-149.9414
1769254738124,-0.89160156,-0.1015625,-0.015136719,-16.479492,-10.7421875,14.892578,0.0,0.0,0.0,-64.017334,85.632935,-148.80432
1769254738212,-1.0419922,-0.16601562,0.0390625,-3.112793,-7.507324,-1.8920898,0.0,0.0,0.0,-64.017334,85.632935,-148.80432
1769254738224,-1.0419922,-0.16601562,0.0390625,-3.112793,-7.507324,-1.8920898,0.0,0.0,0.0,-53.250732,85.215454,-138.03223
1769254738312,-1.0546875,-0.096191406,-0.09326172,-8.972168,17.27295,4.1503906,0.0,0.0,0.0,-53.250732,85.215454,-138.03223
1769254738324,-1.0546875,-0.096191406,-0.09326172,-8.972168,17.27295,4.1503906,0.0,0.0,0.0,-57.337646,85.55054,-141.63574
1769254738412,-1.1806641,-0.123046875,-0.15429688,-45.532227,43.029785,-7.873535,0.0,0.0,0.0,-57.337646,85.55054,-141.63574
1769254738423,-1.1806641,-0.123046875,-0.15429688,-45.532227,43.029785,-7.873535,0.0,0.0,0.0,-94.625244,85.59448,-177.86865
1769254738512,-0.72509766,0.15771484,0.22363281,24.353027,-25.32959,-8.178711,0.0,0.0,0.0,-94.625244,85.59448,-177.86865
1769254738523,-0.72509766,0.15771484,0.22363281,24.353027,-25.32959,-8.178711,0.0,0.0,0.0,-117.74048,83.76526,159.0216
1769254738612,-1.1489258,-0.24169922,-0.04345703,39.611816,3.6621094,-29.785156,0.0,0.0,0.0,-117.74048,83.76526,159.0216
1769254738623,-1.1489258,-0.24169922,-0.04345703,39.611816,3.6621094,-29.785156,0.0,0.0,0.0,-92.180786,85.10559,-175.45166
1769254738711,-0.8120117,-0.21582031,-0.024414062,-14.526367,-18.249512,-8.483887,0.0,0.0,0.0,-92.180786,85.10559,-175.45166
1769254738723,-0.8120117,-0.21582031,-0.024414062,-14.526367,-18.249512,-8.483887,0.0,0.0,0.0,-85.68237,83.573,-172.54028
1769254738811,-0.9916992,-0.017089844,-0.08691406,-34.973145,-10.803223,12.878418,0.0,0.0,0.0,-85.68237,83.573,-172.54028
1769254738822,-0.9916992,-0.017089844,-0.08691406,-34.973145,-10.803223,12.878418,0.0,0.0,0.0,-79.51904,83.50708,-164.6576
1769254738910,-1.0981445,-0.099121094,-0.05517578,-9.82666,-1.7089844,-5.859375,0.0,0.0,0.0,-79.51904,83.50708,-164.6576
1769254738922,-1.0981445,-0.099121094,-0.05517578,-9.82666,-1.7089844,-5.859375,0.0,0.0,0.0,-77.21741,83.984985,-160.40588
1769254739010,-1.3569336,-0.15576172,-0.24658203,-1.8310547,13.61084,-5.859375,0.0,0.0,0.0,-77.21741,83.984985,-160.40588
1769254739022,-1.3569336,-0.15576172,-0.24658203,-1.8310547,13.61084,-5.859375,0.0,0.0,0.0,-81.13403,84.017944,-162.20215
1769254739110,-0.70751953,0.04248047,0.14648438,23.254395,-19.958496,5.6152344,0.0,0.0,0.0,-81.13403,84.017944,-162.20215
1769254739121,-0.70751953,0.04248047,0.14648438,23.254395,-19.958496,5.6152344,0.0,0.0,0.0,-83.3313,83.39172,-167.2284
1769254739210,-1.1962891,-0.14453125,0.45410156,22.338867,-35.40039,17.63916,0.0,0.0,0.0,-83.3313,83.39172,-167.2284
1769254739221,-1.1962891,-0.14453125,0.45410156,22.338867,-35.40039,17.63916,0.0,0.0,0.0,-68.68652,84.39148,-152.21008
1769254739309,-0.8979492,-0.20361328,0.037597656,32.409668,3.7231445,-5.493164,0.0,0.0,0.0,-68.68652,84.39148,-152.21008
1769254739321,-0.8979492,-0.20361328,0.037597656,32.409668,3.7231445,-5.493164,0.0,0.0,0.0,-43.236694,86.00098,-125.97473
1769254739409,-1.0209961,-0.18798828,0.044921875,6.4086914,-7.9956055,9.033203,0.0,0.0,0.0,-43.236694,86.00098,-125.97473
1769254739421,-1.0209961,-0.18798828,0.044921875,6.4086914,-7.9956055,9.033203,0.0,0.0,0.0,-29.679565,84.16077,-114.41162
1769254739509,-1.0224609,-0.1743164,0.029296875,-7.3242188,5.3100586,-2.9907227,0.0,0.0,0.0,-29.679565,84.16077,-114.41162
1769254739520,-1.0224609,-0.1743164,0.029296875,-7.3242188,5.3100586,-2.9907227,0.0,0.0,0.0,-29.893799,84.34204,-114.8291
1769254739608,-1.0532227,-0.14990234,-0.045410156,-31.677246,19.28711,-4.699707,0.0,0.0,0.0,-29.893799,84.34204,-114.8291
1769254739620,-1.0532227,-0.14990234,-0.045410156,-31.677246,19.28711,-4.699707,0.0,0.0,0.0,-48.883667,84.852905,-132.13257
1769254739708,-0.89746094,0.032714844,0.16796875,8.728027,-9.765625,-12.6953125,0.0,0.0,0.0,-48.883667,84.852905,-132.13257
1769254739720,-0.89746094,0.032714844,0.16796875,8.728027,-9.765625,-12.6953125,0.0,0.0,0.0,-70.83435,84.6991,-152.53967
1769254739808,-1.1430664,0.12548828,0.19628906,8.239746,-9.277344,-5.7373047,0.0,0.0,0.0,-70.83435,84.6991,-152.53967
1769254739819,-1.1430664,0.12548828,0.19628906,8.239746,-9.277344,-5.7373047,0.0,0.0,0.0,-55.69519,82.96875,-139.38904
1769254739908,-0.8125,-0.029785156,0.20458984,18.310547,10.7421875,-8.178711,0.0,0.0,0.0,-55.69519,82.96875,-139.38904
1769254739919,-0.8125,-0.029785156,0.20458984,18.310547,10.7421875,-8.178711,0.0,0.0,0.0,-68.395386,81.83716,-155.92346
1769254740007,-0.9916992,-0.06640625,-0.032226562,17.39502,7.5683594,0.18310547,0.0,0.0,0.0,-68.395386,81.83716,-155.92346
1769254740019,-0.9916992,-0.06640625,-0.032226562,17.39502,7.5683594,0.18310547,0.0,0.0,0.0,-64.3689,81.67236,-152.53967
1769254740107,-1.0805664,-0.19873047,0.001953125,5.79834,7.873535,-8.483887,0.0,0.0,0.0,-64.3689,81.67236,-152.53967
1769254740118,-1.0805664,-0.19873047,0.001953125,5.79834,7.873535,-8.483887,0.0,0.0,0.0,-67.29675,81.639404,-156.06079
1769254740207,-1.2109375,-0.1953125,-0.2680664,-7.3242188,20.263672,-4.0283203,0.0,0.0,0.0,-67.29675,81.639404,-156.06079
1769254740218,-1.2109375,-0.1953125,-0.2680664,-7.3242188,20.263672,-4.0283203,0.0,0.0,0.0,-73.81714,81.54602,-161.79016
1769254740306,-0.8544922,0.0126953125,0.17919922,24.536133,-2.9907227,3.2958984,0.0,0.0,0.0,-73.81714,81.54602,-161.79016
1769254740318,-0.8544922,0.0126953125,0.17919922,24.536133,-2.9907227,3.2958984,0.0,0.0,0.0,-77.81616,80.72754,-170.47485
1769254740406,-1.0512695,-0.3227539,0.3618164,-17.51709,-17.39502,20.629883,0.0,0.0,0.0,-77.81616,80.72754,-170.47485
1769254740418,-1.0512695,-0.3227539,0.3618164,-17.51709,-17.39502,20.629883,0.0,0.0,0.0,-61.973877,81.99646,-153.97888
1769254740506,-0.84375,-0.056640625,0.11816406,-2.8686523,-2.319336,18.493652,0.0,0.0,0.0,-61.973877,81.99646,-153.97888
1769254740517,-0.84375,-0.056640625,0.11816406,-2.8686523,-2.319336,18.493652,0.0,0.0,0.0,-57.03003,83.72131,-148.30994
1769254740605,-0.9926758,-0.15722656,0.119140625,8.605957,-6.3476562,2.319336,0.0,0.0,0.0,-57.03003,83.72131,-148.30994
1769254740617,-0.9926758,-0.15722656,0.119140625,8.605957,-6.3476562,2.319336,0.0,0.0,0.0,-43.75305,83.52905,-135.01648
1769254740705,-1.1298828,-0.12548828,0.046875,5.554199,4.8828125,-1.4038086,0.0,0.0,0.0,-43.75305,83.52905,-135.01648
1769254740717,-1.1298828,-0.12548828,0.046875,5.554199,4.8828125,-1.4038086,0.0,0.0,0.0,-42.077637,83.42468,-132.71484
1769254740805,-1.0888672,-0.24951172,-0.087402344,-14.831543,30.029297,-7.8125,0.0,0.0,0.0,-42.077637,83.42468,-132.71484
1769254740816,-1.0888672,-0.24951172,-0.087402344,-14.831543,30.029297,-7.8125,0.0,0.0,0.0,-57.03003,84.314575,-147.11243
1769254740905,-0.8413086,-0.018554688,0.24609375,-11.169434,-14.770508,-0.12207031,0.0,0.0,0.0,-57.03003,84.314575,-147.11243
1769254740916,-0.8413086,-0.018554688,0.24609375,-11.169434,-14.770508,-0.12207031,0.0,0.0,0.0,-86.66565,84.523315,-174.59473
1769254741004,-1.1591797,0.10253906,0.1328125,-29.052734,-15.563965,19.836426,0.0,0.0,0.0,-86.66565,84.523315,-174.59473
1769254741016,-1.1591797,0.10253906,0.1328125,-29.052734,-15.563965,19.836426,0.0,0.0,0.0,-54.89319,84.23218,-142.16858
1769254741104,-0.8413086,0.03564453,0.16992188,14.343262,-0.61035156,-5.2490234,0.0,0.0,0.0,-54.89319,84.23218,-142.16858
1769254741115,-0.8413086,0.03564453,0.16992188,14.343262,-0.61035156,-5.2490234,0.0,0.0,0.0,-61.072998,83.41919,-150.54565
1769254741204,-1.0175781,-0.028320312,-0.06689453,-14.831543,-7.2631836,3.7231445,0.0,0.0,0.0,-61.072998,83.41919,-150.54565
1769254741215,-1.0175781,-0.028320312,-0.06689453,-14.831543,-7.2631836,3.7231445,0.0,0.0,0.0,-47.850952,82.94678,-135.65918
1769254741303,-1.1220703,-0.115234375,-0.115722656,3.112793,6.7749023,-11.84082,0.0,0.0,0.0,-47.850952,82.94678,-135.65918
1769254741315,-1.1220703,-0.115234375,-0.115722656,3.112793,6.7749023,-11.84082,0.0,0.0,0.0,-48.27942,83.26538,-135.02197
1769254741403,-1.2514648,-0.048828125,-0.15332031,-18.981934,15.563965,1.159668,0.0,0.0,0.0,-48.27942,83.26538,-135.02197
1769254741415,-1.2514648,-0.048828125,-0.15332031,-18.981934,15.563965,1.159668,0.0,0.0,0.0,-61.814575,83.49609,-147.89795
1769254741503,-0.70751953,0.057617188,0.15625,26.855469,-1.0375977,6.3476562,0.0,0.0,0.0,-61.814575,83.49609,-147.89795
1769254741514,-0.70751953,0.057617188,0.15625,26.855469,-1.0375977,6.3476562,0.0,0.0,0.0,-67.423096,84.00696,-156.19263
1769254741602,-1.1772461,-0.39501953,0.2866211,-15.930176,-26.184082,9.82666,0.0,0.0,0.0,-67.423096,84.00696,-156.19263
1769254741614,-1.1772461,-0.39501953,0.2866211,-15.930176,-26.184082,9.82666,0.0,0.0,0.0,-51.152344,85.166016,-138.76282
1769254741702,-0.8823242,-0.04345703,0.17041016,-10.437012,3.7231445,12.145996,0.0,0.0,0.0,-51.152344,85.166016,-138.76282
1769254741714,-0.8823242,-0.04345703,0.17041016,-10.437012,3.7231445,12.145996,0.0,0.0,0.0,-59.924927,86.75354,-148.0957
1769254741802,-0.98339844,-0.15820312,0.17041016,-11.474609,-5.004883,10.498047,0.0,0.0,0.0,-59.924927,86.75354,-148.0957
1769254741813,-0.98339844,-0.15820312,0.17041016,-11.474609,-5.004883,10.498047,0.0,0.0,0.0,-33.447876,86.23718,-121.70654
1769254741902,-1.2246094,-0.06689453,-0.026855469,7.6293945,20.996094,3.479004,0.0,0.0,0.0,-33.447876,86.23718,-121.70654
1769254741913,-1.2246094,-0.06689453,-0.026855469,7.6293945,20.996094,3.479004,0.0,0.0,0.0,-27.04834,87.681885,-113.82385
1769254742001,-1.1230469,-0.14013672,-0.08691406,-18.066406,37.597656,-13.305664,0.0,0.0,0.0,-27.04834,87.681885,-113.82385
1769254742013,-1.1230469,-0.14013672,-0.08691406,-18.066406,37.597656,-13.305664,0.0,0.0,0.0,-111.033325,88.24768,162.69653
1769254742101,-0.6850586,0.13769531,0.17871094,-10.7421875,-22.521973,-4.211426,0.0,0.0,0.0,-111.033325,88.24768,162.69653
1769254742112,-0.6850586,0.13769531,0.17871094,-10.7421875,-22.521973,-4.211426,0.0,0.0,0.0,-124.14551,86.71509,151.16089
1769254742201,-1.2246094,0.111328125,0.13427734,-16.296387,-48.40088,4.272461,0.0,0.0,0.0,-124.14551,86.71509,151.16089
1769254742212,-1.2246094,0.111328125,0.13427734,-16.296387,-48.40088,4.272461,0.0,0.0,0.0,-34.985962,86.59424,-118.59192
1769254742300,-0.8095703,0.11425781,0.2241211,15.197754,7.873535,-11.657715,0.0,0.0,0.0,-34.985962,86.59424,-118.59192
1769254742312,-0.8095703,0.11425781,0.2241211,15.197754,7.873535,-11.657715,0.0,0.0,0.0,-58.62854,85.3363,-145.00854
1769254742400,-0.9941406,-0.022949219,-0.19042969,-17.76123,-1.4648438,5.432129,0.0,0.0,0.0,-58.62854,85.3363,-145.00854
1769254742412,-0.9941406,-0.022949219,-0.19042969,-17.76123,-1.4648438,5.432129,0.0,0.0,0.0,-41.709595,84.611206,-126.55701
1769254742500,-1.137207,-0.13427734,-0.01171875,1.5258789,-0.30517578,-18.554688,0.0,0.0,0.0,-41.709595,84.611206,-126.55701
1769254742511,-1.137207,-0.13427734,-0.01171875,1.5258789,-0.30517578,-18.554688,0.0,0.0,0.0,-49.647217,84.65515,-134.41772
1769254742599,-1.2631836,-0.029785156,-0.08105469,25.32959,18.554688,-14.282227,0.0,0.0,0.0,-49.647217,84.65515,-134.41772
1769254742611,-1.2631836,-0.029785156,-0.08105469,25.32959,18.554688,-14.282227,0.0,0.0,0.0,-65.0885,84.15527,-149.44702
1769254742699,-0.69091797,0.049316406,0.14257812,30.273438,11.230469,14.221191,0.0,0.0,0.0,-65.0885,84.15527,-149.44702
1769254742711,-0.69091797,0.049316406,0.14257812,30.273438,11.230469,14.221191,0.0,0.0,0.0,-72.86682,84.11682,-161.44958
1769254742799,-1.1381836,-0.32617188,0.5419922,2.6245117,-30.456543,13.000488,0.0,0.0,0.0,-72.86682,84.11682,-161.44958
1769254742811,-1.1381836,-0.32617188,0.5419922,2.6245117,-30.456543,13.000488,0.0,0.0,0.0,-58.33191,85.0177,-146.03027
1769254742900,-0.8574219,-0.22021484,-0.16357422,1.2207031,15.686035,16.113281,0.0,0.0,0.0,-58.33191,85.0177,-146.03027
1769254742910,-0.8574219,-0.22021484,-0.16357422,1.2207031,15.686035,16.113281,0.0,0.0,0.0,-13.233032,83.792725,-99.157104
1769254742998,-1.0541992,-0.07763672,0.20605469,14.160156,-33.26416,0.6713867,0.0,0.0,0.0,-13.233032,83.792725,-99.157104
1769254743010,-1.0541992,-0.07763672,0.20605469,14.160156,-33.26416,0.6713867,0.0,0.0,0.0,-15.386353,82.073364,-104.58435
1769254743098,-1.1098633,-0.104003906,0.06347656,-5.6152344,10.7421875,8.361816,0.0,0.0,0.0,-15.386353,82.073364,-104.58435
1769254743110,-1.1098633,-0.104003906,0.06347656,-5.6152344,10.7421875,8.361816,0.0,0.0,0.0,-9.470215,81.397705,-98.52539
1769254743198,-1.1699219,-0.15527344,0.015625,-23.80371,40.771484,-10.498047,0.0,0.0,0.0,-9.470215,81.397705,-98.52539
1769254743209,-1.1699219,-0.15527344,0.015625,-23.80371,40.771484,-10.498047,0.0,0.0,0.0,-19.539185,83.67737,-107.61658
1769254743298,-0.6928711,0.09667969,0.2241211,4.1503906,-0.4272461,-6.3476562,0.0,0.0,0.0,-19.539185,83.67737,-107.61658
1769254743310,-0.6928711,0.09667969,0.2241211,4.1503906,-0.4272461,-6.3476562,0.0,0.0,0.0,-50.05371,85.49011,-137.5653
1769254743397,-1.1704102,-0.13330078,0.24267578,1.2207031,-33.447266,1.2817383,0.0,0.0,0.0,-50.05371,85.49011,-137.5653
1769254743409,-1.1704102,-0.13330078,0.24267578,1.2207031,-33.447266,1.2817383,0.0,0.0,0.0,-34.052124,84.16077,-121.30554
1769254743497,-0.8208008,0.104003906,0.25097656,23.498535,6.958008,6.225586,0.0,0.0,0.0,-34.052124,84.16077,-121.30554
1769254743508,-0.8208008,0.104003906,0.25097656,23.498535,6.958008,6.225586,0.0,0.0,0.0,-37.507324,83.91907,-125.01343
1769254743597,-1.0708008,-0.0029296875,-0.19628906,-40.58838,-7.019043,19.348145,0.0,0.0,0.0,-37.507324,83.91907,-125.01343
1769254743608,-1.0708008,-0.0029296875,-0.19628906,-40.58838,-7.019043,19.348145,0.0,0.0,0.0,-19.923706,83.3313,-104.76013
1769254743696,-1.0615234,-0.060058594,0.061035156,7.873535,-3.2958984,-14.099121,0.0,0.0,0.0,-19.923706,83.3313,-104.76013
1769254743708,-1.0615234,-0.060058594,0.061035156,7.873535,-3.2958984,-14.099121,0.0,0.0,0.0,-20.582886,83.375244,-105.29846
1769254743796,-1.1650391,-0.06347656,-0.08935547,-20.385742,15.563965,5.1879883,0.0,0.0,0.0,-20.582886,83.375244,-105.29846
1769254743807,-1.1650391,-0.06347656,-0.08935547,-20.385742,15.563965,5.1879883,0.0,0.0,0.0,-21.950684,84.27612,-104.71069
1769254743896,-0.8022461,0.13330078,0.18164062,16.418457,7.2021484,-1.2207031,0.0,0.0,0.0,-21.950684,84.27612,-104.71069
1769254743907,-0.8022461,0.13330078,0.18164062,16.418457,7.2021484,-1.2207031,0.0,0.0,0.0,-34.002686,84.75403,-119.31702
1769254743996,-1.043457,-0.080566406,0.43945312,20.629883,-25.817871,-4.760742,0.0,0.0,0.0,-34.002686,84.75403,-119.31702
1769254744007,-1.043457,-0.080566406,0.43945312,20.629883,-25.817871,-4.760742,0.0,0.0,0.0,-30.52002,84.68811,-114.818115
1769254744095,-0.9160156,-0.24316406,-0.10253906,8.544922,7.507324,3.7231445,0.0,0.0,0.0,-30.52002,84.68811,-114.818115
1769254744107,-0.9160156,-0.24316406,-0.10253906,8.544922,7.507324,3.7231445,0.0,0.0,0.0,-2.6696777,83.61145,-85.177
1769254744195,-0.96972656,-0.083984375,0.23486328,-0.8544922,-20.751953,9.033203,0.0,0.0,0.0,-2.6696777,83.61145,-85.177
1769254744206,-0.96972656,-0.083984375,0.23486328,-0.8544922,-20.751953,9.033203,0.0,0.0,0.0,-8.684692,82.58423,-94.086914
1769254744294,-1.0478516,-0.09863281,0.0390625,-0.18310547,7.9956055,-0.18310547,0.0,0.0,0.0,-8.684692,82.58423,-94.086914
1769254744306,-1.0478516,-0.09863281,0.0390625,-0.18310547,7.9956055,-0.18310547,0.0,0.0,0.0,-5.8447266,82.21619,-90.79651
1769254744394,-1.0600586,-0.22607422,-0.021972656,-21.240234,22.521973,0.6713867,0.0,0.0,0.0,-5.8447266,82.21619,-90.79651
1769254744406,-1.0600586,-0.22607422,-0.021972656,-21.240234,22.521973,0.6713867,0.0,0.0,0.0,-13.31543,84.18823,-98.15735
1769254744494,-0.8798828,0.076660156,0.2602539,7.751465,-0.7324219,-9.460449,0.0,0.0,0.0,-13.31543,84.18823,-98.15735
1769254744505,-0.8798828,0.076660156,0.2602539,7.751465,-0.7324219,-9.460449,0.0,0.0,0.0,-32.61841,85.86914,-116.52649
1769254744593,-1.0893555,0.16699219,0.3330078,-5.6762695,-19.592285,-3.2348633,0.0,0.0,0.0,-32.61841,85.86914,-116.52649
1769254744605,-1.0893555,0.16699219,0.3330078,-5.6762695,-19.592285,-3.2348633,0.0,0.0,0.0,-26.032104,83.8147,-110.6543
1769254744693,-0.7553711,-0.0146484375,0.014160156,11.413574,5.6152344,0.7324219,0.0,0.0,0.0,-26.032104,83.8147,-110.6543
1769254744705,-0.7553711,-0.0146484375,0.014160156,11.413574,5.6152344,0.7324219,0.0,0.0,0.0,-30.344238,82.64465,-113.79089
1769254744793,-0.9946289,0.083984375,-0.017089844,-37.841797,-22.155762,11.59668,0.0,0.0,0.0,-30.344238,82.64465,-113.79089
1769254744804,-0.9946289,0.083984375,-0.017089844,-37.841797,-22.155762,11.59668,0.0,0.0,0.0,-23.719482,82.144775,-106.155396
1769254744892,-1.0454102,-0.09326172,0.023925781,17.150879,6.591797,-28.808594,0.0,0.0,0.0,-23.719482,82.144775,-106.155396
1769254744904,-1.0454102,-0.09326172,0.023925781,17.150879,6.591797,-28.808594,0.0,0.0,0.0,-27.537231,82.31506,-109.24255
1769254744992,-1.2070312,-0.0063476562,-0.104003906,-47.973633,8.422852,2.8076172,0.0,0.0,0.0,-27.537231,82.31506,-109.24255
1769254745004,-1.2070312,-0.0063476562,-0.104003906,-47.973633,8.422852,2.8076172,0.0,0.0,0.0,-37.23816,82.07886,-117.51526
1769254745092,-0.8046875,0.15673828,0.19970703,39.245605,9.521484,-10.253906,0.0,0.0,0.0,-37.23816,82.07886,-117.51526
1769254745103,-0.8046875,0.15673828,0.19970703,39.245605,9.521484,-10.253906,0.0,0.0,0.0,-49.39453,82.11182,-132.07764
1769254745192,-1.0644531,-0.16552734,0.5390625,35.949707,-29.174805,-0.18310547,0.0,0.0,0.0,-49.39453,82.11182,-132.07764
1769254745203,-1.0644531,-0.16552734,0.5390625,35.949707,-29.174805,-0.18310547,0.0,0.0,0.0,-51.619263,83.166504,-134.4342
1769254745291,-0.99121094,-0.359375,-0.26660156,38.269043,33.5083,-2.380371,0.0,0.0,0.0,-51.619263,83.166504,-134.4342
1769254745303,-0.99121094,-0.359375,-0.26660156,38.269043,33.5083,-2.380371,0.0,0.0,0.0,-21.324463,82.32056,-103.31543
1769254745391,-0.9135742,-0.24560547,0.18798828,-19.226074,-17.150879,3.7231445,0.0,0.0,0.0,-21.324463,82.32056,-103.31543
1769254745403,-0.9135742,-0.24560547,0.18798828,-19.226074,-17.150879,3.7231445,0.0,0.0,0.0,-29.031372,82.770996,-114.27429
1769254745491,-1.0708008,-0.107421875,0.09814453,-6.4697266,13.549805,-0.79345703,0.0,0.0,0.0,-29.031372,82.770996,-114.27429
1769254745503,-1.0708008,-0.107421875,0.09814453,-6.4697266,13.549805,-0.79345703,0.0,0.0,0.0,-35.282593,83.655396,-119.575195
1769254745590,-1.1850586,-0.19042969,-0.076660156,-17.333984,31.61621,-6.591797,0.0,0.0,0.0,-35.282593,83.655396,-119.575195
1769254745602,-1.1850586,-0.19042969,-0.076660156,-17.333984,31.61621,-6.591797,0.0,0.0,0.0,-53.069458,84.72107,-136.57654
1769254745690,-0.84033203,-0.026855469,0.122558594,19.104004,-9.82666,-5.065918,0.0,0.0,0.0,-53.069458,84.72107,-136.57654
1769254745702,-0.84033203,-0.026855469,0.122558594,19.104004,-9.82666,-5.065918,0.0,0.0,0.0,-80.39795,84.80347,-163.67981
1769254745790,-1.0253906,0.16748047,0.32080078,0.24414062,-10.253906,4.699707,0.0,0.0,0.0,-80.39795,84.80347,-163.67981
1769254745801,-1.0253906,0.16748047,0.32080078,0.24414062,-10.253906,4.699707,0.0,0.0,0.0,-61.210327,83.01819,-147.98584
1769254745890,-0.8125,-0.091796875,-0.013671875,24.108887,7.1411133,-7.385254,0.0,0.0,0.0,-61.210327,83.01819,-147.98584
1769254745901,-0.8125,-0.091796875,-0.013671875,24.108887,7.1411133,-7.385254,0.0,0.0,0.0,-60.48523,82.45239,-147.9364
1769254745989,-0.9501953,-0.051757812,0.026855469,-10.925293,-8.544922,3.6621094,0.0,0.0,0.0,-60.48523,82.45239,-147.9364
1769254746001,-0.9501953,-0.051757812,0.026855469,-10.925293,-8.544922,3.6621094,0.0,0.0,0.0,-58.859253,82.51831,-146.55212
1769254746089,-1.1025391,-0.15722656,-0.0390625,-11.535645,9.155273,-13.671875,0.0,0.0,0.0,-58.859253,82.51831,-146.55212
1769254746101,-1.1025391,-0.15722656,-0.0390625,-11.535645,9.155273,-13.671875,0.0,0.0,0.0,-58.079224,82.282104,-144.3274
1769254746189,-1.2163086,-0.084472656,-0.2241211,-23.864746,20.385742,-0.91552734,0.0,0.0,0.0,-58.079224,82.282104,-144.3274
1769254746200,-1.2163086,-0.084472656,-0.2241211,-23.864746,20.385742,-0.91552734,0.0,0.0,0.0,-67.37366,82.13379,-151.84204
1769254746288,-0.8720703,0.037597656,0.10058594,27.70996,4.8217773,9.82666,0.0,0.0,0.0,-67.37366,82.13379,-151.84204
1769254746300,-0.8720703,0.037597656,0.10058594,27.70996,4.8217773,9.82666,0.0,0.0,0.0,-75.964966,82.43591,-163.21289
1769254746388,-0.88916016,-0.25097656,0.3359375,-10.009766,-4.0283203,16.845703,0.0,0.0,0.0,-75.964966,82.43591,-163.21289
1769254746400,-0.88916016,-0.25097656,0.3359375,-10.009766,-4.0283203,16.845703,0.0,0.0,0.0,-67.36267,83.974,-154.13818
1769254746488,-0.8857422,-0.0078125,0.08105469,8.7890625,12.939453,1.8920898,0.0,0.0,0.0,-67.36267,83.974,-154.13818
1769254746499,-0.8857422,-0.0078125,0.08105469,8.7890625,12.939453,1.8920898,0.0,0.0,0.0,-67.906494,85.24292,-153.42407
1769254746588,-0.99853516,-0.15234375,0.030273438,25.634766,-5.1879883,0.18310547,0.0,0.0,0.0,-67.906494,85.24292,-153.42407
1769254746599,-0.99853516,-0.15234375,0.030273438,25.634766,-5.1879883,0.18310547,0.0,0.0,0.0,-60.985107,85.78125,-147.26074
1769254746688,-1.0610352,-0.15234375,0.025878906,7.8125,-4.699707,5.3100586,0.0,0.0,0.0,-60.985107,85.78125,-147.26074
1769254746699,-1.0610352,-0.15234375,0.025878906,7.8125,-4.699707,5.3100586,0.0,0.0,0.0,-53.085938,85.545044,-140.84473
1769254746787,-1.03125,-0.24902344,-0.17089844,1.7700195,21.240234,-3.1738281,0.0,0.0,0.0,-53.085938,85.545044,-140.84473
1769254746798,-1.03125,-0.24902344,-0.17089844,1.7700195,21.240234,-3.1738281,0.0,0.0,0.0,-56.07422,86.083374,-143.62427
1769254746887,-0.96240234,0.015625,0.27441406,3.90625,1.3427734,-6.1035156,0.0,0.0,0.0,-56.07422,86.083374,-143.62427
1769254746898,-0.96240234,0.015625,0.27441406,3.90625,1.3427734,-6.1035156,0.0,0.0,0.0,-108.79761,85.2594,163.6853
1769254746986,-1.0395508,0.19482422,0.13427734,-1.5258789,-21.484375,7.873535,0.0,0.0,0.0,-108.79761,85.2594,163.6853
1769254746998,-1.0395508,0.19482422,0.13427734,-1.5258789,-21.484375,7.873535,0.0,0.0,0.0,-71.68579,85.05615,-160.3125
1769254747086,-0.8725586,0.032714844,0.14013672,32.348633,-3.0517578,-9.460449,0.0,0.0,0.0,-71.68579,85.05615,-160.3125
1769254747098,-0.8725586,0.032714844,0.14013672,32.348633,-3.0517578,-9.460449,0.0,0.0,0.0,-66.54419,83.83118,-157.2638
1769254747186,-0.9482422,-0.11376953,-0.119140625,-20.385742,-13.85498,9.277344,0.0,0.0,0.0,-66.54419,83.83118,-157.2638
1769254747197,-0.9482422,-0.11376953,-0.119140625,-20.385742,-13.85498,9.277344,0.0,0.0,0.0,-46.09314,83.47412,-135.69214
1769254747285,-1.0864258,-0.07421875,-0.0126953125,-11.291504,-18.920898,-2.4414062,0.0,0.0,0.0,-46.09314,83.47412,-135.69214
1769254747297,-1.0864258,-0.07421875,-0.0126953125,-11.291504,-18.920898,-2.4414062,0.0,0.0,0.0,-36.150513,83.172,-124.44214
1769254747385,-1.1494141,-0.029785156,-0.12451172,-23.4375,4.0283203,-4.5776367,0.0,0.0,0.0,-36.150513,83.172,-124.44214
1769254747397,-1.1494141,-0.029785156,-0.12451172,-23.4375,4.0283203,-4.5776367,0.0,0.0,0.0,-41.03943,82.5238,-128.4906
1769254747485,-0.9589844,0.0146484375,-0.015625,62.98828,20.446777,-15.563965,0.0,0.0,0.0,-41.03943,82.5238,-128.4906
1769254747497,-0.9589844,0.0146484375,-0.015625,62.98828,20.446777,-15.563965,0.0,0.0,0.0,-53.569336,82.81494,-142.88269
1769254747585,-0.8330078,-0.2866211,0.43798828,-16.113281,-0.24414062,-5.6152344,0.0,0.0,0.0,-53.569336,82.81494,-142.88269
1769254747596,-0.8330078,-0.2866211,0.43798828,-16.113281,-0.24414062,-5.6152344,0.0,0.0,0.0,-62.18811,83.56201,-154.09973
1769254747685,-1.0258789,0.0073242188,-0.18408203,-66.28418,-20.690918,49.072266,0.0,0.0,0.0,-62.18811,83.56201,-154.09973
1769254747696,-1.0258789,0.0073242188,-0.18408203,-66.28418,-20.690918,49.072266,0.0,0.0,0.0,-30.124512,82.32056,-122.74475
1769254747784,-0.91259766,-0.03857422,0.22021484,30.456543,2.6855469,-9.643555,0.0,0.0,0.0,-30.124512,82.32056,-122.74475
1769254747796,-0.91259766,-0.03857422,0.22021484,30.456543,2.6855469,-9.643555,0.0,0.0,0.0,-26.768188,83.08411,-119.86633
1769254747884,-1.1196289,-0.19824219,0.01171875,-14.404297,-9.460449,10.7421875,0.0,0.0,0.0,-26.768188,83.08411,-119.86633
1769254747895,-1.1196289,-0.19824219,0.01171875,-14.404297,-9.460449,10.7421875,0.0,0.0,0.0,-17.08374,81.0791,-109.37439
1769254747983,-1.137207,-0.06591797,-0.05078125,9.094238,26.000977,-0.7324219,0.0,0.0,0.0,-17.08374,81.0791,-109.37439
1769254747995,-1.137207,-0.06591797,-0.05078125,9.094238,26.000977,-0.7324219,0.0,0.0,0.0,-18.215332,82.39197,-111.242065
1769254748083,-1.0834961,0.020507812,0.265625,8.483887,48.52295,-14.160156,0.0,0.0,0.0,-18.215332,82.39197,-111.242065
1769254748095,-1.0834961,0.020507812,0.265625,8.483887,48.52295,-14.160156,0.0,0.0,0.0,-58.826294,84.990234,-153.53394
1769254748183,-0.73779297,0.20507812,0.20996094,27.648926,-19.226074,-7.1411133,0.0,0.0,0.0,-58.826294,84.990234,-153.53394
1769254748194,-0.73779297,0.20507812,0.20996094,27.648926,-19.226074,-7.1411133,0.0,0.0,0.0,-60.996094,83.99048,-156.5387
1769254748282,-1.1362305,-0.42041016,-0.3515625,-19.042969,6.3476562,-11.413574,0.0,0.0,0.0,-60.996094,83.99048,-156.5387
1769254748294,-1.1362305,-0.42041016,-0.3515625,-19.042969,6.3476562,-11.413574,0.0,0.0,0.0,-36.584473,82.79297,-130.80872
1769254748382,-0.8754883,-0.053710938,0.23583984,-15.197754,-7.9956055,3.9672852,0.0,0.0,0.0,-36.584473,82.79297,-130.80872
1769254748394,-0.8754883,-0.053710938,0.23583984,-15.197754,-7.9956055,3.9672852,0.0,0.0,0.0,-46.18103,83.59497,-141.54785
1769254748482,-0.98583984,-0.087890625,-0.03955078,-9.643555,-1.8920898,0.30517578,0.0,0.0,0.0,-46.18103,83.59497,-141.54785
1769254748493,-0.98583984,-0.087890625,-0.03955078,-9.643555,-1.8920898,0.30517578,0.0,0.0,0.0,-39.830933,83.117065,-133.28064
1769254748582,-1.1269531,-0.07373047,-0.083496094,-25.512695,3.3569336,0.91552734,0.0,0.0,0.0,-39.830933,83.117065,-133.28064
1769254748593,-1.1269531,-0.07373047,-0.083496094,-25.512695,3.3569336,0.91552734,0.0,0.0,0.0,-43.027954,82.97424,-134.73083
1769254748681,-1.234375,-0.1953125,-0.18261719,17.27295,16.906738,-8.972168,0.0,0.0,0.0,-43.027954,82.97424,-134.73083
1769254748693,-1.234375,-0.1953125,-0.18261719,17.27295,16.906738,-8.972168,0.0,0.0,0.0,-54.700928,84.11133,-145.47546
1769254748781,-0.68115234,0.018066406,0.17529297,13.427734,-6.652832,5.859375,0.0,0.0,0.0,-54.700928,84.11133,-145.47546
1769254748792,-0.68115234,0.018066406,0.17529297,13.427734,-6.652832,5.859375,0.0,0.0,0.0,-61.034546,84.25415,-154.62158
1769254748881,-1.121582,-0.032226562,0.032226562,-22.338867,5.493164,26.611328,0.0,0.0,0.0,-61.034546,84.25415,-154.62158
1769254748892,-1.121582,-0.032226562,0.032226562,-22.338867,5.493164,26.611328,0.0,0.0,0.0,-43.390503,84.375,-135.46692
1769254748980,-0.86572266,-0.107910156,0.0,7.385254,-14.709473,2.6855469,0.0,0.0,0.0,-43.390503,84.375,-135.46692
1769254748992,-0.86572266,-0.107910156,0.0,7.385254,-14.709473,2.6855469,0.0,0.0,0.0,-33.667603,86.01196,-125.529785
1769254749080,-1.0,-0.20458984,0.13867188,-11.535645,-15.625,2.6245117,0.0,0.0,0.0,-33.667603,86.01196,-125.529785
1769254749092,-1.0,-0.20458984,0.13867188,-11.535645,-15.625,2.6245117,0.0,0.0,0.0,-21.802368,84.52881,-114.45557
1769254749180,-1.1362305,-0.1430664,-0.045898438,-1.8920898,10.7421875,3.7841797,0.0,0.0,0.0,-21.802368,84.52881,-114.45557
1769254749191,-1.1362305,-0.1430664,-0.045898438,-1.8920898,10.7421875,3.7841797,0.0,0.0,0.0,-17.913208,84.6936,-110.03357
1769254749279,-1.2236328,-0.14794922,0.013671875,-11.657715,26.306152,-11.657715,0.0,0.0,0.0,-17.913208,84.6936,-110.03357
1769254749291,-1.2236328,-0.14794922,0.013671875,-11.657715,26.306152,-11.657715,0.0,0.0,0.0,-43.10486,85.94055,-135.75256
1769254749379,-0.63427734,0.09716797,0.22851562,12.6953125,-33.5083,-2.0751953,0.0,0.0,0.0,-43.10486,85.94055,-135.75256
1769254749391,-0.63427734,0.09716797,0.22851562,12.6953125,-33.5083,-2.0751953,0.0,0.0,0.0,-47.686157,86.033936,-141.53137
1769254749479,-1.1381836,-0.33789062,-0.14111328,26.794434,6.8359375,-16.723633,0.0,0.0,0.0,-47.686157,86.033936,-141.53137
1769254749491,-1.1381836,-0.33789062,-0.14111328,26.794434,6.8359375,-16.723633,0.0,0.0,0.0,-19.401855,84.32007,-113.58765
1769254749579,-0.9379883,0.017089844,0.18798828,-30.395508,-32.043457,30.456543,0.0,0.0,0.0,-19.401855,84.32007,-113.58765
1769254749590,-0.9379883,0.017089844,0.18798828,-30.395508,-32.043457,30.456543,0.0,0.0,0.0,-12.650757,84.06738,-108.13843
1769254749678,-1.0429688,0.034179688,0.023925781,-15.136719,-15.014648,21.42334,0.0,0.0,0.0,-12.650757,84.06738,-108.13843
1769254749690,-1.0429688,0.034179688,0.023925781,-15.136719,-15.014648,21.42334,0.0,0.0,0.0,10.986328,82.91931,-82.06238
1769254749778,-1.09375,0.049804688,-0.12939453,-17.76123,5.2490234,6.225586,0.0,0.0,0.0,10.986328,82.91931,-82.06238
1769254749790,-1.09375,0.049804688,-0.12939453,-17.76123,5.2490234,6.225586,0.0,0.0,0.0,15.490723,81.919556,-75.701294
1769254749878,-1.159668,-0.06689453,-0.014160156,4.699707,12.084961,-18.859863,0.0,0.0,0.0,15.490723,81.919556,-75.701294
1769254749889,-1.159668,-0.06689453,-0.014160156,4.699707,12.084961,-18.859863,0.0,0.0,0.0,16.166382,83.237915,-74.63013
1769254749977,-0.59228516,0.061523438,0.22753906,-9.94873,-11.535645,2.8076172,0.0,0.0,0.0,16.166382,83.237915,-74.63013
1769254749989,-0.59228516,0.061523438,0.22753906,-9.94873,-11.535645,2.8076172,0.0,0.0,0.0,11.541138,83.34778,-80.0354
1769254750077,-1.1582031,0.071777344,0.07910156,-27.22168,-16.601562,17.456055,0.0,0.0,0.0,11.541138,83.34778,-80.0354
1769254750089,-1.1582031,0.071777344,0.07910156,-27.22168,-16.601562,17.456055,0.0,0.0,0.0,12.403564,81.35376,-77.41516
1769254750177,-1.0166016,0.029785156,0.09765625,9.521484,0.0,-13.366699,0.0,0.0,0.0,12.403564,81.35376,-77.41516
1769254750188,-1.0166016,0.029785156,0.09765625,9.521484,0.0,-13.366699,0.0,0.0,0.0,13.573608,80.93628,-74.01489
1769254750277,-0.953125,-0.045898438,0.08105469,-2.1362305,-1.8920898,-3.6621094,0.0,0.0,0.0,13.573608,80.93628,-74.01489
1769254750288,-0.953125,-0.045898438,0.08105469,-2.1362305,-1.8920898,-3.6621094,0.0,0.0,0.0,8.833008,81.41968,-79.96399
1769254750376,-0.9848633,-0.16308594,-0.041992188,-3.4179688,36.987305,-21.484375,0.0,0.0,0.0,8.833008,81.41968,-79.96399
1769254750388,-0.9848633,-0.16308594,-0.041992188,-3.4179688,36.987305,-21.484375,0.0,0.0,0.0,0.5987549,83.237915,-87.89612
1769254750476,-0.96972656,0.051757812,0.40234375,-2.746582,0.0,-6.8359375,0.0,0.0,0.0,0.5987549,83.237915,-87.89612
1769254750487,-0.96972656,0.051757812,0.40234375,-2.746582,0.0,-6.8359375,0.0,0.0,0.0,-24.25232,85.47363,-111.450806
1769254750576,-1.206543,-0.14697266,0.038085938,-18.615723,-25.20752,-9.216309,0.0,0.0,0.0,-24.25232,85.47363,-111.450806
1769254750587,-1.206543,-0.14697266,0.038085938,-18.615723,-25.20752,-9.216309,0.0,0.0,0.0,-22.011108,82.32056,-108.90198
1769254750675,-0.8017578,0.08642578,0.30322266,-15.197754,-4.5776367,1.953125,0.0,0.0,0.0,-22.011108,82.32056,-108.90198
1769254750687,-0.8017578,0.08642578,0.30322266,-15.197754,-4.5776367,1.953125,0.0,0.0,0.0,-32.4646,82.32056,-120.60791
1769254750775,-1.050293,-0.22460938,-0.08544922,0.48828125,9.521484,-4.760742,0.0,0.0,0.0,-32.4646,82.32056,-120.60791
1769254750787,-1.050293,-0.22460938,-0.08544922,0.48828125,9.521484,-4.760742,0.0,0.0,0.0,-24.58191,81.26587,-110.753174
1769254750875,-1.0317383,-0.123046875,-0.022460938,-32.836914,1.4038086,-1.0375977,0.0,0.0,0.0,-24.58191,81.26587,-110.753174
1769254750886,-1.0317383,-0.123046875,-0.022460938,-32.836914,1.4038086,-1.0375977,0.0,0.0,0.0,-30.888062,81.54053,-115.581665
1769254750974,-1.4038086,-0.17480469,-0.038085938,15.930176,38.757324,-22.949219,0.0,0.0,0.0,-30.888062,81.54053,-115.581665
1769254750986,-1.4038086,-0.17480469,-0.038085938,15.930176,38.757324,-22.949219,0.0,0.0,0.0,-50.20752,82.75452,-132.41821
1769254751074,-0.65283203,-0.047851562,0.35253906,-31.555176,-1.7089844,4.0893555,0.0,0.0,0.0,-50.20752,82.75452,-132.41821
1769254751086,-0.65283203,-0.047851562,0.35253906,-31.555176,-1.7089844,4.0893555,0.0,0.0,0.0,-62.166138,81.936035,-145.9314
1769254751174,-0.94921875,-0.14892578,-0.18261719,-27.09961,31.555176,24.108887,0.0,0.0,0.0,-62.166138,81.936035,-145.9314
1769254751186,-0.94921875,-0.14892578,-0.18261719,-27.09961,31.555176,24.108887,0.0,0.0,0.0,-48.83423,83.83118,-129.25415
1769254751274,-0.99316406,-0.17041016,0.11376953,-6.652832,-16.357422,0.0,0.0,0.0,0.0,-48.83423,83.83118,-129.25415
1769254751285,-0.99316406,-0.17041016,0.11376953,-6.652832,-16.357422,0.0,0.0,0.0,0.0,-53.640747,84.25415,-135.21423
1769254751373,-1.0332031,-0.12841797,0.026855469,-12.207031,3.6621094,5.554199,0.0,0.0,0.0,-53.640747,84.25415,-135.21423
1769254751385,-1.0332031,-0.12841797,0.026855469,-12.207031,3.6621094,5.554199,0.0,0.0,0.0,-51.6687,83.94653,-133.00049
1769254751473,-1.0415039,-0.24072266,-0.14208984,-3.6621094,20.080566,-9.765625,0.0,0.0,0.0,-51.6687,83.94653,-133.00049
1769254751485,-1.0415039,-0.24072266,-0.14208984,-3.6621094,20.080566,-9.765625,0.0,0.0,0.0,-65.028076,84.57825,-145.33813
1769254751573,-1.1914062,-0.09765625,0.22363281,-17.27295,13.977051,-3.6010742,0.0,0.0,0.0,-65.028076,84.57825,-145.33813
1769254751585,-1.1914062,-0.09765625,0.22363281,-17.27295,13.977051,-3.6010742,0.0,0.0,0.0,-97.06421,83.7323,-176.19873
1769254751672,-0.7963867,0.23876953,0.0390625,24.475098,-10.192871,-9.94873,0.0,0.0,0.0,-97.06421,83.7323,-176.19873
1769254751685,-0.7963867,0.23876953,0.0390625,24.475098,-10.192871,-9.94873,0.0,0.0,0.0,-81.45813,82.7655,-160.5597
1769254751772,-0.99560547,-0.23632812,0.0625,34.973145,-12.145996,-7.9956055,0.0,0.0,0.0,-81.45813,82.7655,-160.5597
1769254751784,-0.99560547,-0.23632812,0.0625,34.973145,-12.145996,-7.9956055,0.0,0.0,0.0,-75.130005,82.2876,-156.14319
1769254751872,-0.8564453,-0.047851562,0.03173828,-6.652832,-12.939453,4.8828125,0.0,0.0,0.0,-75.130005,82.2876,-156.14319
1769254751883,-0.8564453,-0.047851562,0.03173828,-6.652832,-12.939453,4.8828125,0.0,0.0,0.0,-62.98462,81.73279,-144.39331
1769254751972,-1.0805664,-0.13232422,-0.08251953,1.953125,-8.850098,-0.36621094,0.0,0.0,0.0,-62.98462,81.73279,-144.39331
1769254751983,-1.0805664,-0.13232422,-0.08251953,1.953125,-8.850098,-0.36621094,0.0,0.0,0.0,-56.59607,81.936035,-137.42798
1769254752071,-1.0859375,-0.09472656,-0.019042969,-13.244629,-8.178711,-7.6293945,0.0,0.0,0.0,-56.59607,81.936035,-137.42798
1769254752083,-1.0859375,-0.09472656,-0.019042969,-13.244629,-8.178711,-7.6293945,0.0,0.0,0.0,-60.474243,81.01318,-142.00928
1769254752171,-1.2695312,-0.18701172,-0.1977539,45.166016,29.296875,-14.526367,0.0,0.0,0.0,-60.474243,81.01318,-142.00928
1769254752183,-1.2695312,-0.18701172,-0.1977539,45.166016,29.296875,-14.526367,0.0,0.0,0.0,-74.262085,81.41968,-155.53345
1769254752271,-0.6665039,-0.083496094,0.34326172,-17.8833,-3.112793,7.385254,0.0,0.0,0.0,-74.262085,81.41968,-155.53345
1769254752282,-0.6665039,-0.083496094,0.34326172,-17.8833,-3.112793,7.385254,0.0,0.0,0.0,-73.78967,80.826416,-157.30225
1769254752370,-1.0566406,0.12109375,-0.34326172,-81.66504,10.314941,55.541992,0.0,0.0,0.0,-73.78967,80.826416,-157.30225
1769254752382,-1.0566406,0.12109375,-0.34326172,-81.66504,10.314941,55.541992,0.0,0.0,0.0,-57.963867,82.490845,-138.20251
1769254752470,-0.90283203,-0.03857422,0.08496094,16.662598,-17.27295,3.4179688,0.0,0.0,0.0,-57.963867,82.490845,-138.20251
1769254752482,-0.90283203,-0.03857422,0.08496094,16.662598,-17.27295,3.4179688,0.0,0.0,0.0,-57.60681,83.2489,-139.14185
1769254752570,-1.0561523,-0.21777344,0.123046875,-7.2631836,-5.432129,6.713867,0.0,0.0,0.0,-57.60681,83.2489,-139.14185
1769254752581,-1.0561523,-0.21777344,0.123046875,-7.2631836,-5.432129,6.713867,0.0,0.0,0.0,-45.85144,83.00171,-127.09534
1769254752670,-1.0883789,-0.14355469,-0.052246094,-0.24414062,16.174316,4.638672,0.0,0.0,0.0,-45.85144,83.00171,-127.09534
1769254752681,-1.0883789,-0.14355469,-0.052246094,-0.24414062,16.174316,4.638672,0.0,0.0,0.0,-49.136353,83.99048,-130.11108
1769254752769,-1.1982422,-0.18847656,-0.079589844,-11.413574,31.12793,-9.765625,0.0,0.0,0.0,-49.136353,83.99048,-130.11108
1769254752781,-1.1982422,-0.18847656,-0.079589844,-11.413574,31.12793,-9.765625,0.0,0.0,0.0,-75.563965,84.4574,-156.91223
1769254752869,-0.79248047,-0.060058594,0.1586914,1.7089844,-18.127441,-11.352539,0.0,0.0,0.0,-75.563965,84.4574,-156.91223
1769254752880,-0.79248047,-0.060058594,0.1586914,1.7089844,-18.127441,-11.352539,0.0,0.0,0.0,-87.22046,83.534546,-168.53027
1769254752969,-1.1630859,0.060058594,0.18896484,2.1362305,-19.348145,7.9956055,0.0,0.0,0.0,-87.22046,83.534546,-168.53027
1769254752980,-1.1630859,0.060058594,0.18896484,2.1362305,-19.348145,7.9956055,0.0,0.0,0.0,-67.022095,82.24365,-150.54016
1769254753068,-0.80078125,-0.029296875,0.18554688,9.94873,0.061035156,1.0986328,0.0,0.0,0.0,-67.022095,82.24365,-150.54016
1769254753080,-0.80078125,-0.029296875,0.18554688,9.94873,0.061035156,1.0986328,0.0,0.0,0.0,-65.061035,81.55151,-151.00708
1769254753168,-0.9785156,-0.12646484,-0.052734375,-3.8452148,-6.164551,7.8125,0.0,0.0,0.0,-65.061035,81.55151,-151.00708
1769254753180,-0.9785156,-0.12646484,-0.052734375,-3.8452148,-6.164551,7.8125,0.0,0.0,0.0,-56.20056,81.589966,-141.7456
1769254753268,-1.0844727,-0.16601562,-0.060546875,-9.521484,-0.4272461,-4.8217773,0.0,0.0,0.0,-56.20056,81.589966,-141.7456
1769254753279,-1.0844727,-0.16601562,-0.060546875,-9.521484,-0.4272461,-4.8217773,0.0,0.0,0.0,-54.20105,81.5625,-138.89465
1769254753367,-1.0810547,-0.06201172,-0.09814453,-12.878418,2.8076172,-6.7749023,0.0,0.0,0.0,-54.20105,81.5625,-138.89465
1769254753379,-1.0810547,-0.06201172,-0.09814453,-12.878418,2.8076172,-6.7749023,0.0,0.0,0.0,-61.990356,81.02417,-145.66223
1769254753467,-0.98876953,0.0126953125,0.13183594,43.762207,15.74707,-13.244629,0.0,0.0,0.0,-61.990356,81.02417,-145.66223
1769254753479,-0.98876953,0.0126953125,0.13183594,43.762207,15.74707,-13.244629,0.0,0.0,0.0,-76.102295,80.77698,-161.29028
1769254753567,-0.82128906,-0.22216797,0.4140625,-10.559082,-22.949219,19.53125,0.0,0.0,0.0,-76.102295,80.77698,-161.29028
1769254753578,-0.82128906,-0.22216797,0.4140625,-10.559082,-22.949219,19.53125,0.0,0.0,0.0,-70.35095,81.82617,-154.96216
1769254753667,-0.8408203,-0.118652344,0.1743164,41.625977,25.268555,-5.6152344,0.0,0.0,0.0,-70.35095,81.82617,-154.96216
1769254753678,-0.8408203,-0.118652344,0.1743164,41.625977,25.268555,-5.6152344,0.0,0.0,0.0,-72.35596,83.62244,-155.30823
1769254753766,-1.0009766,-0.20214844,0.013183594,20.935059,3.7841797,1.5258789,0.0,0.0,0.0,-72.35596,83.62244,-155.30823
1769254753778,-1.0009766,-0.20214844,0.013183594,20.935059,3.7841797,1.5258789,0.0,0.0,0.0,-66.87927,83.96301,-149.90295
1769254753866,-1.0732422,-0.17578125,-0.060058594,-8.117676,1.3427734,4.0893555,0.0,0.0,0.0,-66.87927,83.96301,-149.90295
1769254753878,-1.0732422,-0.17578125,-0.060058594,-8.117676,1.3427734,4.0893555,0.0,0.0,0.0,-64.22058,83.78174,-147.7716
1769254753966,-1.0234375,-0.25976562,-0.12011719,-5.7373047,16.662598,-7.9956055,0.0,0.0,0.0,-64.22058,83.78174,-147.7716
1769254753978,-1.0234375,-0.25976562,-0.12011719,-5.7373047,16.662598,-7.9956055,0.0,0.0,0.0,-77.37671,83.99048,-160.88928
1769254754065,-0.99560547,-0.05859375,0.26708984,-3.8452148,0.18310547,-7.5683594,0.0,0.0,0.0,-77.37671,83.99048,-160.88928
1769254754077,-0.99560547,-0.05859375,0.26708984,-3.8452148,0.18310547,-7.5683594,0.0,0.0,0.0,-100.71716,82.941284,176.72058
1769254754165,-1.0126953,0.14794922,0.064453125,14.160156,-15.441895,-4.272461,0.0,0.0,0.0,-100.71716,82.941284,176.72058
1769254754177,-1.0126953,0.14794922,0.064453125,14.160156,-15.441895,-4.272461,0.0,0.0,0.0,-81.710815,82.265625,-164.28955
1769254754265,-0.8676758,-0.10058594,0.07714844,16.357422,-13.85498,-4.333496,0.0,0.0,0.0,-81.710815,82.265625,-164.28955
1769254754277,-0.8676758,-0.10058594,0.07714844,16.357422,-13.85498,-4.333496,0.0,0.0,0.0,-74.37195,81.45264,-159.21936
1769254754365,-0.9628906,-0.0390625,-0.013671875,-18.554688,-18.188477,15.441895,0.0,0.0,0.0,-74.37195,81.45264,-159.21936
1769254754376,-0.9628906,-0.0390625,-0.013671875,-18.554688,-18.188477,15.441895,0.0,0.0,0.0,-63.71521,81.760254,-147.81006
1769254754464,-1.0996094,-0.14746094,-0.07861328,7.446289,-3.4179688,-3.7231445,0.0,0.0,0.0,-63.71521,81.760254,-147.81006
1769254754476,-1.0996094,-0.14746094,-0.07861328,7.446289,-3.4179688,-3.7231445,0.0,0.0,0.0,-52.49817,81.89209,-135.7196
1769254754564,-1.0097656,-0.0146484375,-0.12451172,-3.3569336,22.399902,-5.065918,0.0,0.0,0.0,-52.49817,81.89209,-135.7196
1769254754576,-1.0097656,-0.0146484375,-0.12451172,-3.3569336,22.399902,-5.065918,0.0,0.0,0.0,-63.286743,82.05139,-147.1399
1769254754664,-0.8642578,-0.0053710938,0.1928711,32.226562,-3.9672852,-0.6713867,0.0,0.0,0.0,-63.286743,82.05139,-147.1399
1769254754675,-0.8642578,-0.0053710938,0.1928711,32.226562,-3.9672852,-0.6713867,0.0,0.0,0.0,-74.31152,82.48535,-160.9607
1769254754763,-1.1567383,-0.22265625,0.31445312,15.441895,-23.132324,12.451172,0.0,0.0,0.0,-74.31152,82.48535,-160.9607
1769254754775,-1.1567383,-0.22265625,0.31445312,15.441895,-23.132324,12.451172,0.0,0.0,0.0,-53.580322,82.908325,-140.73486
1769254754863,-0.81103516,-0.15771484,0.10449219,14.099121,18.493652,5.3710938,0.0,0.0,0.0,-53.580322,82.908325,-140.73486
1769254754875,-0.81103516,-0.15771484,0.10449219,14.099121,18.493652,5.3710938,0.0,0.0,0.0,-53.95935,84.402466,-141.89392
1769254754963,-0.95214844,-0.21386719,0.119628906,-7.9345703,-4.0283203,3.3569336,0.0,0.0,0.0,-53.95935,84.402466,-141.89392
1769254754974,-0.95214844,-0.21386719,0.119628906,-7.9345703,-4.0283203,3.3569336,0.0,0.0,0.0,-49.801025,83.77075,-137.65869
1769254755063,-1.1333008,-0.027832031,-0.04345703,3.6010742,-3.0517578,5.493164,0.0,0.0,0.0,-49.801025,83.77075,-137.65869
1769254755075,-1.1333008,-0.027832031,-0.04345703,3.6010742,-3.0517578,5.493164,0.0,0.0,0.0,-41.39099,82.9303,-129.20471
1769254755162,-1.0297852,-0.19238281,-0.017089844,18.127441,10.375977,2.1362305,0.0,0.0,0.0,-41.39099,82.9303,-129.20471
1769254755174,-1.0297852,-0.19238281,-0.017089844,18.127441,10.375977,2.1362305,0.0,0.0,0.0,-45.093384,83.54553,-134.81323
1769254755262,-0.86035156,-0.014160156,0.23339844,6.652832,0.5493164,-3.8452148,0.0,0.0,0.0,-45.093384,83.54553,-134.81323
1769254755274,-0.86035156,-0.014160156,0.23339844,6.652832,0.5493164,-3.8452148,0.0,0.0,0.0,-57.612305,84.14978,-148.29346
1769254755362,-1.065918,0.17285156,0.3227539,-13.244629,-18.676758,11.108398,0.0,0.0,0.0,-57.612305,84.14978,-148.29346
1769254755373,-1.065918,0.17285156,0.3227539,-13.244629,-18.676758,11.108398,0.0,0.0,0.0,-45.203247,83.0072,-137.30713
1769254755461,-0.84375,0.048828125,0.07763672,25.939941,16.906738,3.112793,0.0,0.0,0.0,-45.203247,83.0072,-137.30713
1769254755473,-0.84375,0.048828125,0.07763672,25.939941,16.906738,3.112793,0.0,0.0,0.0,-40.479126,82.67761,-131.80847
1769254755561,-1.019043,-0.036621094,-0.10498047,-15.380859,-14.6484375,7.9956055,0.0,0.0,0.0,-40.479126,82.67761,-131.80847
1769254755573,-1.019043,-0.036621094,-0.10498047,-15.380859,-14.6484375,7.9956055,0.0,0.0,0.0,-28.685303,82.31506,-118.85559
1769254755661,-0.984375,-0.09814453,0.018554688,-16.357422,-3.2958984,-5.6762695,0.0,0.0,0.0,-28.685303,82.31506,-118.85559
1769254755672,-0.984375,-0.09814453,0.018554688,-16.357422,-3.2958984,-5.6762695,0.0,0.0,0.0,-22.890015,81.952515,-111.58264
1769254755760,-1.1445312,-0.01171875,-0.15283203,-18.005371,23.19336,0.8544922,0.0,0.0,0.0,-22.890015,81.952515,-111.58264
1769254755772,-1.1445312,-0.01171875,-0.15283203,-18.005371,23.19336,0.8544922,0.0,0.0,0.0,-30.267334,82.74353,-117.49878
1769254755860,-0.9326172,0.043945312,0.13330078,43.33496,7.507324,-6.7749023,0.0,0.0,0.0,-30.267334,82.74353,-117.49878
1769254755872,-0.9326172,0.043945312,0.13330078,43.33496,7.507324,-6.7749023,0.0,0.0,0.0,-48.12561,84.02893,-138.66394
1769254755960,-0.91259766,-0.19628906,0.44677734,-1.3427734,-24.475098,8.483887,0.0,0.0,0.0,-48.12561,84.02893,-138.66394
1769254755971,-0.91259766,-0.19628906,0.44677734,-1.3427734,-24.475098,8.483887,0.0,0.0,0.0,-39.63867,84.24866,-130.53406
1769254756059,-1.0830078,-0.001953125,-0.19189453,-67.62695,-15.136719,41.992188,0.0,0.0,0.0,-39.63867,84.24866,-130.53406
1769254756072,-1.0830078,-0.001953125,-0.19189453,-67.62695,-15.136719,41.992188,0.0,0.0,0.0,-6.322632,81.73279,-95.36133
1769254756160,-0.9765625,0.033203125,0.2319336,28.9917,-19.958496,-12.390137,0.0,0.0,0.0,-6.322632,81.73279,-95.36133
1769254756171,-0.9765625,0.033203125,0.2319336,28.9917,-19.958496,-12.390137,0.0,0.0,0.0,-10.585327,81.397705,-101.13464
1769254756259,-1.0766602,-0.13330078,0.10595703,-6.8969727,2.4414062,3.540039,0.0,0.0,0.0,-10.585327,81.397705,-101.13464
1769254756271,-1.0766602,-0.13330078,0.10595703,-6.8969727,2.4414062,3.540039,0.0,0.0,0.0,-8.432007,80.68359,-98.53088
1769254756359,-1.0263672,-0.21289062,0.018066406,-20.263672,19.104004,-5.9814453,0.0,0.0,0.0,-8.432007,80.68359,-98.53088
1769254756370,-1.0263672,-0.21289062,0.018066406,-20.263672,19.104004,-5.9814453,0.0,0.0,0.0,-14.952393,82.05139,-104.210815
1769254756458,-0.9785156,0.016601562,0.296875,-17.76123,16.784668,-5.9814453,0.0,0.0,0.0,-14.952393,82.05139,-104.210815
1769254756470,-0.9785156,0.016601562,0.296875,-17.76123,16.784668,-5.9814453,0.0,0.0,0.0,-33.22815,84.298096,-120.146484
1769254756558,-1.0141602,0.31103516,0.32226562,3.6010742,-24.353027,4.699707,0.0,0.0,0.0,-33.22815,84.298096,-120.146484
1769254756570,-1.0141602,0.31103516,0.32226562,3.6010742,-24.353027,4.699707,0.0,0.0,0.0,-28.998413,82.60071,-115.356445
1769254756658,-0.9501953,-0.13427734,-0.2734375,-20.812988,8.544922,-1.5258789,0.0,0.0,0.0,-28.998413,82.60071,-115.356445
1769254756669,-0.9501953,-0.13427734,-0.2734375,-20.812988,8.544922,-1.5258789,0.0,0.0,0.0,-16.056519,80.10132,-99.31091
1769254756757,-0.98339844,0.08886719,0.13232422,-25.512695,-29.907227,9.58252,0.0,0.0,0.0,-16.056519,80.10132,-99.31091
1769254756769,-0.98339844,0.08886719,0.13232422,-25.512695,-29.907227,9.58252,0.0,0.0,0.0,-13.892212,79.80469,-97.08069
1769254756857,-1.097168,-0.057128906,0.084472656,13.793945,8.178711,-21.240234,0.0,0.0,0.0,-13.892212,79.80469,-97.08069
1769254756869,-1.097168,-0.057128906,0.084472656,13.793945,8.178711,-21.240234,0.0,0.0,0.0,-15.479736,80.00244,-97.72888
1769254756957,-1.2973633,-0.0087890625,0.005859375,-40.893555,19.89746,6.591797,0.0,0.0,0.0,-15.479736,80.00244,-97.72888
1769254756968,-1.2973633,-0.0087890625,0.005859375,-40.893555,19.89746,6.591797,0.0,0.0,0.0,-24.11499,80.9198,-104.45801
1769254757057,-0.57177734,0.013183594,0.21923828,14.282227,20.629883,-8.728027,0.0,0.0,0.0,-24.11499,80.9198,-104.45801
1769254757068,-0.57177734,0.013183594,0.21923828,14.282227,20.629883,-8.728027,0.0,0.0,0.0,-29.421387,81.78772,-111.154175
1769254757156,-0.9033203,0.009765625,0.18896484,-4.211426,-43.029785,26.916504,0.0,0.0,0.0,-29.421387,81.78772,-111.154175
1769254757168,-0.9033203,0.009765625,0.18896484,-4.211426,-43.029785,26.916504,0.0,0.0,0.0,-19.934692,81.78772,-102.64526
1769254757256,-0.9199219,-0.12060547,0.20947266,31.921387,16.296387,-17.76123,0.0,0.0,0.0,-19.934692,81.78772,-102.64526
1769254757267,-0.9199219,-0.12060547,0.20947266,31.921387,16.296387,-17.76123,0.0,0.0,0.0,-13.178101,82.35901,-95.8667
1769254757356,-1.0332031,-0.14257812,0.06542969,-20.080566,-10.559082,12.573242,0.0,0.0,0.0,-13.178101,82.35901,-95.8667
1769254757367,-1.0332031,-0.14257812,0.06542969,-20.080566,-10.559082,12.573242,0.0,0.0,0.0,-11.348877,81.99646,-94.174805
1769254757456,-1.1020508,-0.11035156,-0.056152344,12.878418,27.954102,-1.7700195,0.0,0.0,0.0,-11.348877,81.99646,-94.174805
1769254757468,-1.1020508,-0.11035156,-0.056152344,12.878418,27.954102,-1.7700195,0.0,0.0,0.0,-12.44751,83.47412,-95.29541
1769254757555,-1.1293945,-0.051757812,0.24316406,-15.075684,23.132324,2.319336,0.0,0.0,0.0,-12.44751,83.47412,-95.29541
1769254757567,-1.1293945,-0.051757812,0.24316406,-15.075684,23.132324,2.319336,0.0,0.0,0.0,-30.83313,86.25366,-114.312744
1769254757655,-0.68847656,0.14697266,0.125,19.89746,-16.723633,-10.864258,0.0,0.0,0.0,-30.83313,86.25366,-114.312744
1769254757666,-0.68847656,0.14697266,0.125,19.89746,-16.723633,-10.864258,0.0,0.0,0.0,-33.546753,85.38025,-117.68005
1769254757754,-1.0712891,-0.2998047,-0.06591797,16.906738,-8.117676,-19.958496,0.0,0.0,0.0,-33.546753,85.38025,-117.68005
1769254757766,-1.0712891,-0.2998047,-0.06591797,16.906738,-8.117676,-19.958496,0.0,0.0,0.0,-24.708252,83.39722,-108.742676
1769254757854,-0.9116211,-0.0024414062,0.1586914,-12.268066,-24.536133,10.620117,0.0,0.0,0.0,-24.708252,83.39722,-108.742676
1769254757866,-0.9116211,-0.0024414062,0.1586914,-12.268066,-24.536133,10.620117,0.0,0.0,0.0,-22.324219,82.8479,-108.33618
1769254757954,-1.0585938,-0.0014648438,0.087402344,-2.1362305,-0.18310547,-7.751465,0.0,0.0,0.0,-22.324219,82.8479,-108.33618
1769254757966,-1.0585938,-0.0014648438,0.087402344,-2.1362305,-0.18310547,-7.751465,0.0,0.0,0.0,-19.429321,82.0459,-105.17212
1769254758053,-1.0966797,0.0043945312,-0.092285156,-28.320312,10.925293,0.9765625,0.0,0.0,0.0,-19.429321,82.0459,-105.17212
1769254758065,-1.0966797,0.0043945312,-0.092285156,-28.320312,10.925293,0.9765625,0.0,0.0,0.0,-27.39441,82.161255,-111.59912
1769254758153,-1.0883789,4.8828125E-4,0.13623047,55.05371,24.719238,-32.714844,0.0,0.0,0.0,-27.39441,82.161255,-111.59912
1769254758165,-1.0883789,4.8828125E-4,0.13623047,55.05371,24.719238,-32.714844,0.0,0.0,0.0,-49.630737,83.80371,-133.73657
1769254758253,-0.91064453,-0.21826172,0.40625,-4.0893555,-10.131836,13.366699,0.0,0.0,0.0,-49.630737,83.80371,-133.73657
1769254758264,-0.91064453,-0.21826172,0.40625,-4.0893555,-10.131836,13.366699,0.0,0.0,0.0,-55.99182,84.63867,-142.43225
1769254758353,-0.8588867,-0.11279297,0.07373047,26.794434,21.362305,1.953125,0.0,0.0,0.0,-55.99182,84.63867,-142.43225
1769254758364,-0.8588867,-0.11279297,0.07373047,26.794434,21.362305,1.953125,0.0,0.0,0.0,-35.579224,85.841675,-121.50879
1769254758452,-0.92578125,-0.13867188,0.16113281,-2.319336,-15.930176,3.6010742,0.0,0.0,0.0,-35.579224,85.841675,-121.50879
1769254758464,-0.92578125,-0.13867188,0.16113281,-2.319336,-15.930176,3.6010742,0.0,0.0,0.0,-30.245361,85.86914,-117.020874
1769254758552,-1.1367188,-0.0703125,-0.044921875,-3.7841797,14.343262,3.3569336,0.0,0.0,0.0,-30.245361,85.86914,-117.020874
1769254758564,-1.1367188,-0.0703125,-0.044921875,-3.7841797,14.343262,3.3569336,0.0,0.0,0.0,-29.146729,85.53955,-115.40588
1769254758652,-1.0981445,-0.28320312,-0.14501953,3.6010742,14.831543,-6.713867,0.0,0.0,0.0,-29.146729,85.53955,-115.40588
1769254758664,-1.0981445,-0.28320312,-0.14501953,3.6010742,14.831543,-6.713867,0.0,0.0,0.0,-36.727295,86.48987,-123.239136
1769254758751,-0.79248047,0.10888672,0.31396484,12.084961,-11.71875,-3.112793,0.0,0.0,0.0,-36.727295,86.48987,-123.239136
1769254758764,-0.79248047,0.10888672,0.31396484,12.084961,-11.71875,-3.112793,0.0,0.0,0.0,-82.941284,86.555786,-170.29358
1769254758851,-1.2719727,0.16064453,0.11035156,-24.230957,-32.53174,25.512695,0.0,0.0,0.0,-82.941284,86.555786,-170.29358
1769254758863,-1.2719727,0.16064453,0.11035156,-24.230957,-32.53174,25.512695,0.0,0.0,0.0,-25.900269,84.51233,-113.411865
1769254758951,-0.79296875,0.08154297,0.19970703,2.0751953,-5.92041,11.474609,0.0,0.0,0.0,-25.900269,84.51233,-113.411865
1769254758962,-0.79296875,0.08154297,0.19970703,2.0751953,-5.92041,11.474609,0.0,0.0,0.0,-23.790894,84.46289,-114.06555
1769254759050,-1.03125,-0.06933594,-0.036132812,-1.159668,-5.2490234,2.8686523,0.0,0.0,0.0,-23.790894,84.46289,-114.06555
1769254759062,-1.03125,-0.06933594,-0.036132812,-1.159668,-5.2490234,2.8686523,0.0,0.0,0.0,-6.2072754,82.996216,-95.12512
1769254759150,-1.0483398,-0.032714844,-0.03125,-15.197754,-2.4414062,-6.164551,0.0,0.0,0.0,-6.2072754,82.996216,-95.12512
1769254759162,-1.0483398,-0.032714844,-0.03125,-15.197754,-2.4414062,-6.164551,0.0,0.0,0.0,-7.7178955,82.46887,-95.79529
1769254759250,-1.2915039,0.016113281,-0.072753906,-10.803223,14.465332,-8.911133,0.0,0.0,0.0,-7.7178955,82.46887,-95.79529
1769254759262,-1.2915039,0.016113281,-0.072753906,-10.803223,14.465332,-8.911133,0.0,0.0,0.0,-17.391357,83.33679,-104.50745
1769254759350,-0.7675781,0.1328125,0.099609375,40.527344,14.404297,1.2207031,0.0,0.0,0.0,-17.391357,83.33679,-104.50745
1769254759361,-0.7675781,0.1328125,0.099609375,40.527344,14.404297,1.2207031,0.0,0.0,0.0,-32.684326,84.54529,-123.78845
1769254759449,-0.9248047,-0.19677734,0.38330078,19.65332,-4.760742,-4.0283203,0.0,0.0,0.0,-32.684326,84.54529,-123.78845
1769254759461,-0.9248047,-0.19677734,0.38330078,19.65332,-4.760742,-4.0283203,0.0,0.0,0.0,-26.515503,85.5011,-118.05359
1769254759549,-0.89404297,-0.16308594,-0.16845703,23.742676,21.057129,-1.7700195,0.0,0.0,0.0,-26.515503,85.5011,-118.05359
1769254759561,-0.89404297,-0.16308594,-0.16845703,23.742676,21.057129,-1.7700195,0.0,0.0,0.0,-9.129639,84.36401,-100.48096
1769254759649,-1.0825195,-0.12988281,0.13867188,6.713867,-28.686523,8.850098,0.0,0.0,0.0,-9.129639,84.36401,-100.48096
1769254759660,-1.0825195,-0.12988281,0.13867188,6.713867,-28.686523,8.850098,0.0,0.0,0.0,-16.792603,84.42993,-111.38489
1769254759748,-1.0419922,-0.096191406,0.028808594,9.155273,6.591797,-3.8452148,0.0,0.0,0.0,-16.792603,84.42993,-111.38489
1769254759761,-1.0419922,-0.096191406,0.028808594,9.155273,6.591797,-3.8452148,0.0,0.0,0.0,-10.437012,83.19397,-106.09497
1769254759848,-1.2011719,-0.02734375,0.19677734,5.9814453,25.146484,-30.151367,0.0,0.0,0.0,-10.437012,83.19397,-106.09497
1769254759860,-1.2011719,-0.02734375,0.19677734,5.9814453,25.146484,-30.151367,0.0,0.0,0.0,-39.18274,84.09485,-136.1206
1769254759948,-0.79248047,0.24365234,0.21533203,29.11377,-47.302246,-12.268066,0.0,0.0,0.0,-39.18274,84.09485,-136.1206
1769254759959,-0.79248047,0.24365234,0.21533203,29.11377,-47.302246,-12.268066,0.0,0.0,0.0,-43.879395,82.144775,-142.88269
1769254760047,-1.0898438,-0.42382812,-0.091308594,53.03955,4.5776367,-37.353516,0.0,0.0,0.0,-43.879395,82.144775,-142.88269
1769254760059,-1.0898438,-0.42382812,-0.091308594,53.03955,4.5776367,-37.353516,0.0,0.0,0.0,-32.89856,79.62891,-132.95654
1769254760147,-0.87597656,-0.08203125,0.23242188,31.860352,-7.507324,-12.268066,0.0,0.0,0.0,-32.89856,79.62891,-132.95654
1769254760159,-0.87597656,-0.08203125,0.23242188,31.860352,-7.507324,-12.268066,0.0,0.0,0.0,-42.489624,79.38721,-147.81006
1769254760247,-1.0117188,-0.17578125,-0.013671875,33.87451,10.375977,-14.6484375,0.0,0.0,0.0,-42.489624,79.38721,-147.81006
1769254760258,-1.0117188,-0.17578125,-0.013671875,33.87451,10.375977,-14.6484375,0.0,0.0,0.0,-42.34131,78.28308,-149.97986
1769254760347,-1.0205078,-0.17236328,0.110839844,4.5776367,-9.216309,-14.282227,0.0,0.0,0.0,-42.34131,78.28308,-149.97986
1769254760358,-1.0205078,-0.17236328,0.110839844,4.5776367,-9.216309,-14.282227,0.0,0.0,0.0,-48.48816,77.43164,-157.59338
1769254760446,-1.0878906,-0.115234375,0.22265625,49.1333,13.916016,-31.00586,0.0,0.0,0.0,-48.48816,77.43164,-157.59338
1769254760458,-1.0878906,-0.115234375,0.22265625,49.1333,13.916016,-31.00586,0.0,0.0,0.0,-55.079956,75.88806,-165.36621
1769254760546,-0.93408203,-0.09277344,0.35498047,2.0751953,-16.784668,10.375977,0.0,0.0,0.0,-55.079956,75.88806,-165.36621
1769254760558,-0.93408203,-0.09277344,0.35498047,2.0751953,-16.784668,10.375977,0.0,0.0,0.0,-50.828247,76.21216,-162.4054
1769254760646,-0.89208984,-0.1616211,0.13134766,36.92627,14.709473,5.004883,0.0,0.0,0.0,-50.828247,76.21216,-162.4054
1769254760657,-0.89208984,-0.1616211,0.13134766,36.92627,14.709473,5.004883,0.0,0.0,0.0,-43.659668,77.492065,-156.88477
1769254760745,-0.9238281,-0.22265625,0.22167969,13.305664,-3.1738281,8.300781,0.0,0.0,0.0,-43.659668,77.492065,-156.88477
1769254760757,-0.9238281,-0.22265625,0.22167969,13.305664,-3.1738281,8.300781,0.0,0.0,0.0,-40.231934,78.14026,-155.0885
1769254760845,-1.1625977,-0.2109375,0.0859375,6.4086914,13.183594,-3.479004,0.0,0.0,0.0,-40.231934,78.14026,-155.0885
1769254760856,-1.1625977,-0.2109375,0.0859375,6.4086914,13.183594,-3.479004,0.0,0.0,0.0,-41.09436,78.20068,-156.4563
1769254760945,-0.98339844,-0.3828125,0.13134766,21.606445,18.859863,-21.66748,0.0,0.0,0.0,-41.09436,78.20068,-156.4563
1769254760956,-0.98339844,-0.3828125,0.13134766,21.606445,18.859863,-21.66748,0.0,0.0,0.0,-49.976807,78.53577,-167.16248
1769254761045,-0.74853516,0.1171875,0.18847656,63.23242,8.178711,-19.53125,0.0,0.0,0.0,-49.976807,78.53577,-167.16248
1769254761056,-0.74853516,0.1171875,0.18847656,63.23242,8.178711,-19.53125,0.0,0.0,0.0,-59.485474,76.71753,-179.89563
1769254761144,-1.2182617,-0.42138672,-0.22998047,7.3242188,-0.24414062,-21.850586,0.0,0.0,0.0,-59.485474,76.71753,-179.89563
1769254761156,-1.2182617,-0.42138672,-0.22998047,7.3242188,-0.24414062,-21.850586,0.0,0.0,0.0,-54.40979,75.756226,-175.6659
1769254761244,-0.8359375,-0.15039062,0.45214844,10.498047,-6.225586,14.831543,0.0,0.0,0.0,-54.40979,75.756226,-175.6659
1769254761255,-0.8359375,-0.15039062,0.45214844,10.498047,-6.225586,14.831543,0.0,0.0,0.0,-57.529907,76.135254,175.07812
1769254761344,-1.015625,-0.28955078,-0.17822266,-0.061035156,-1.6479492,12.634277,0.0,0.0,0.0,-57.529907,76.135254,175.07812
1769254761355,-1.015625,-0.28955078,-0.17822266,-0.061035156,-1.6479492,12.634277,0.0,0.0,0.0,-44.972534,75.98694,-169.54651
1769254761443,-1.0083008,-0.34472656,0.22021484,-31.25,-17.089844,8.850098,0.0,0.0,0.0,-44.972534,75.98694,-169.54651
1769254761455,-1.0083008,-0.34472656,0.22021484,-31.25,-17.089844,8.850098,0.0,0.0,0.0,-43.43994,75.87158,-167.41516
1769254761543,-1.2666016,-0.3930664,0.11279297,-7.385254,14.587402,-19.40918,0.0,0.0,0.0,-43.43994,75.87158,-167.41516
1769254761554,-1.2666016,-0.3930664,0.11279297,-7.385254,14.587402,-19.40918,0.0,0.0,0.0,-46.906128,75.56946,-167.51404
1769254761643,-0.8417969,-0.06933594,0.1328125,-32.77588,-0.12207031,26.123047,0.0,0.0,0.0,-46.906128,75.56946,-167.51404
1769254761654,-0.8417969,-0.06933594,0.1328125,-32.77588,-0.12207031,26.123047,0.0,0.0,0.0,-50.15808,76.45386,-168.86536
1769254761742,-1.0566406,-0.060546875,0.31982422,-46.14258,-7.8125,26.245117,0.0,0.0,0.0,-50.15808,76.45386,-168.86536
1769254761754,-1.0566406,-0.060546875,0.31982422,-46.14258,-7.8125,26.245117,0.0,0.0,0.0,-43.97278,78.272095,-157.75269
1769254761842,-0.8754883,-0.1899414,0.12988281,-41.503906,-6.4086914,9.70459,0.0,0.0,0.0,-43.97278,78.272095,-157.75269
1769254761854,-0.8754883,-0.1899414,0.12988281,-41.503906,-6.4086914,9.70459,0.0,0.0,0.0,-35.36499,78.94226,-143.73962
1769254761942,-1.0395508,-0.08154297,0.18261719,-31.066895,-16.296387,6.7749023,0.0,0.0,0.0,-35.36499,78.94226,-143.73962
1769254761953,-1.0395508,-0.08154297,0.18261719,-31.066895,-16.296387,6.7749023,0.0,0.0,0.0,-34.46411,78.40393,-139.13635
1769254762041,-1.0317383,-0.25048828,0.053710938,-24.047852,3.479004,10.7421875,0.0,0.0,0.0,-34.46411,78.40393,-139.13635
1769254762053,-1.0317383,-0.25048828,0.053710938,-24.047852,3.479004,10.7421875,0.0,0.0,0.0,-29.98169,78.6676,-131.82495
1769254762141,-0.89453125,-0.33154297,0.088378906,-44.73877,19.104004,-7.2631836,0.0,0.0,0.0,-29.98169,78.6676,-131.82495
1769254762153,-0.89453125,-0.33154297,0.088378906,-44.73877,19.104004,-7.2631836,0.0,0.0,0.0,-39.677124,79.83765,-138.38379
1769254762241,-0.75634766,0.0390625,0.36669922,-22.705078,-7.9345703,-12.634277,0.0,0.0,0.0,-39.677124,79.83765,-138.38379
1769254762252,-0.75634766,0.0390625,0.36669922,-22.705078,-7.9345703,-12.634277,0.0,0.0,0.0,-55.859985,80.05737,-151.53992
1769254762340,-1.2827148,-0.18310547,-0.040039062,-84.41162,-50.964355,31.25,0.0,0.0,0.0,-55.859985,80.05737,-151.53992
1769254762352,-1.2827148,-0.18310547,-0.040039062,-84.41162,-50.964355,31.25,0.0,0.0,0.0,-38.485107,78.01941,-132.03918
1769254762440,-0.8754883,0.029785156,0.35253906,-43.45703,11.59668,12.329102,0.0,0.0,0.0,-38.485107,78.01941,-132.03918
1769254762452,-0.8754883,0.029785156,0.35253906,-43.45703,11.59668,12.329102,0.0,0.0,0.0,-40.951538,78.1073,-133.78601
1769254762540,-1.0292969,-0.20166016,-0.16210938,-16.418457,8.056641,9.216309,0.0,0.0,0.0,-40.951538,78.1073,-133.78601
1769254762551,-1.0292969,-0.20166016,-0.16210938,-16.418457,8.056641,9.216309,0.0,0.0,0.0,-34.414673,78.15674,-123.777466
1769254762640,-1.0546875,-0.22998047,0.08544922,-17.150879,9.399414,-12.634277,0.0,0.0,0.0,-34.414673,78.15674,-123.777466
1769254762651,-1.0546875,-0.22998047,0.08544922,-17.150879,9.399414,-12.634277,0.0,0.0,0.0,-44.214478,78.947754,-133.51685
1769254762739,-1.2949219,-0.17822266,-0.041992188,20.935059,34.118652,-23.498535,0.0,0.0,0.0,-44.214478,78.947754,-133.51685
1769254762751,-1.2949219,-0.17822266,-0.041992188,20.935059,34.118652,-23.498535,0.0,0.0,0.0,-60.507202,79.420166,-148.71094
1769254762839,-0.6279297,-0.1586914,0.29345703,-39.733887,-7.1411133,22.949219,0.0,0.0,0.0,-60.507202,79.420166,-148.71094
1769254762850,-0.6279297,-0.1586914,0.29345703,-39.733887,-7.1411133,22.949219,0.0,0.0,0.0,-63.110962,80.17273,-150.73792
1769254762939,-0.99609375,0.041015625,4.8828125E-4,-64.086914,-21.66748,47.180176,0.0,0.0,0.0,-63.110962,80.17273,-150.73792
1769254762950,-0.99609375,0.041015625,4.8828125E-4,-64.086914,-21.66748,47.180176,0.0,0.0,0.0,-43.428955,80.95276,-127.10083
1769254763038,-0.953125,-0.13671875,0.076660156,1.2207031,-0.61035156,-1.0375977,0.0,0.0,0.0,-43.428955,80.95276,-127.10083
1769254763050,-0.953125,-0.13671875,0.076660156,1.2207031,-0.61035156,-1.0375977,0.0,0.0,0.0,-30.272827,81.93054,-110.69275
1769254763138,-1.0390625,-0.16503906,0.067871094,-18.493652,-9.094238,11.352539,0.0,0.0,0.0,-30.272827,81.93054,-110.69275
1769254763150,-1.0390625,-0.16503906,0.067871094,-18.493652,-9.094238,11.352539,0.0,0.0,0.0,-30.421143,81.831665,-111.54419
1769254763238,-1.0336914,-0.27783203,-0.03125,-6.5307617,24.108887,-7.8125,0.0,0.0,0.0,-30.421143,81.831665,-111.54419
1769254763249,-1.0336914,-0.27783203,-0.03125,-6.5307617,24.108887,-7.8125,0.0,0.0,0.0,-32.74475,82.70508,-112.802124
1769254763337,-1.1401367,4.8828125E-4,0.24804688,-20.751953,15.686035,0.30517578,0.0,0.0,0.0,-32.74475,82.70508,-112.802124
1769254763349,-1.1401367,4.8828125E-4,0.24804688,-20.751953,15.686035,0.30517578,0.0,0.0,0.0,-58.04077,83.974,-136.47217
1769254763437,-0.8574219,0.24169922,0.19091797,7.8125,-26.245117,2.9907227,0.0,0.0,0.0,-58.04077,83.974,-136.47217
1769254763449,-0.8574219,0.24169922,0.19091797,7.8125,-26.245117,2.9907227,0.0,0.0,0.0,-50.476685,83.19946,-129.64966
1769254763537,-0.9995117,-0.2397461,-0.041015625,2.8686523,14.6484375,-14.404297,0.0,0.0,0.0,-50.476685,83.19946,-129.64966
1769254763548,-0.9995117,-0.2397461,-0.041015625,2.8686523,14.6484375,-14.404297,0.0,0.0,0.0,-36.90857,81.71631,-116.42761
1769254763637,-0.96435547,0.013183594,0.13964844,-43.518066,-29.785156,15.869141,0.0,0.0,0.0,-36.90857,81.71631,-116.42761
1769254763648,-0.96435547,0.013183594,0.13964844,-43.518066,-29.785156,15.869141,0.0,0.0,0.0,-31.629639,81.50757,-110.54443
1769254763736,-1.090332,-0.024902344,0.03173828,-11.535645,4.211426,4.5776367,0.0,0.0,0.0,-31.629639,81.50757,-110.54443
1769254763748,-1.090332,-0.024902344,0.03173828,-11.535645,4.211426,4.5776367,0.0,0.0,0.0,-22.478027,81.67236,-98.44299
1769254763836,-1.0830078,-0.03857422,-0.072265625,-51.51367,21.1792,11.352539,0.0,0.0,0.0,-22.478027,81.67236,-98.44299
1769254763847,-1.0830078,-0.03857422,-0.072265625,-51.51367,21.1792,11.352539,0.0,0.0,0.0,-26.70227,82.5238,-100.07446
1769254763936,-0.7910156,0.041015625,0.25146484,-44.73877,-8.056641,22.277832,0.0,0.0,0.0,-26.70227,82.5238,-100.07446
1769254763947,-0.7910156,0.041015625,0.25146484,-44.73877,-8.056641,22.277832,0.0,0.0,0.0,-27.927246,84.72107,-97.94861
1769254764035,-1.1079102,-0.16210938,0.42333984,-23.498535,-15.197754,24.536133,0.0,0.0,0.0,-27.927246,84.72107,-97.94861
1769254764047,-1.1079102,-0.16210938,0.42333984,-23.498535,-15.197754,24.536133,0.0,0.0,0.0,-1.8621826,85.407715,-65.67078
1769254764135,-0.87109375,0.011230469,0.0087890625,-50.964355,19.714355,23.132324,0.0,0.0,0.0,-1.8621826,85.407715,-65.67078
1769254764147,-0.87109375,0.011230469,0.0087890625,-50.964355,19.714355,23.132324,0.0,0.0,0.0,22.807617,85.28137,-36.743774
1769254764235,-1.0375977,-0.037109375,0.07421875,29.541016,-11.535645,-12.6953125,0.0,0.0,0.0,22.807617,85.28137,-36.743774
1769254764246,-1.0375977,-0.037109375,0.07421875,29.541016,-11.535645,-12.6953125,0.0,0.0,0.0,13.304443,84.49036,-47.625732
1769254764334,-1.0732422,0.013671875,0.037597656,0.4272461,9.399414,1.0986328,0.0,0.0,0.0,13.304443,84.49036,-47.625732
1769254764346,-1.0732422,0.013671875,0.037597656,0.4272461,9.399414,1.0986328,0.0,0.0,0.0,10.50293,84.58923,-51.256714
1769254764434,-1.0424805,-0.061035156,-0.078125,-29.663086,34.5459,-5.79834,0.0,0.0,0.0,10.50293,84.58923,-51.256714
1769254764446,-1.0424805,-0.061035156,-0.078125,-29.663086,34.5459,-5.79834,0.0,0.0,0.0,4.081421,86.901855,-57.2937
1769254764534,-0.64941406,0.07470703,0.27441406,-15.74707,-3.7231445,-9.643555,0.0,0.0,0.0,4.081421,86.901855,-57.2937
1769254764545,-0.64941406,0.07470703,0.27441406,-15.74707,-3.7231445,-9.643555,0.0,0.0,0.0,-53.07495,88.67615,-113.26355
1769254764633,-1.1870117,-0.2055664,-0.17480469,3.7231445,-19.28711,-2.0751953,0.0,0.0,0.0,-53.07495,88.67615,-113.26355
1769254764645,-1.1870117,-0.2055664,-0.17480469,3.7231445,-19.28711,-2.0751953,0.0,0.0,0.0,-11.189575,86.16028,-70.53223
1769254764733,-0.8847656,0.10595703,0.12792969,-17.456055,-9.033203,9.216309,0.0,0.0,0.0,-11.189575,86.16028,-70.53223
1769254764745,-0.8847656,0.10595703,0.12792969,-17.456055,-9.033203,9.216309,0.0,0.0,0.0,-12.914429,85.49011,-72.94922
1769254764833,-0.98876953,0.0,-0.032226562,-34.729004,-2.2583008,17.822266,0.0,0.0,0.0,-12.914429,85.49011,-72.94922
1769254764844,-0.98876953,0.0,-0.032226562,-34.729004,-2.2583008,17.822266,0.0,0.0,0.0,4.8394775,84.56726,-53.063965
1769254764933,-1.1162109,0.09082031,0.028320312,-35.40039,11.047363,16.357422,0.0,0.0,0.0,4.8394775,84.56726,-53.063965
1769254764944,-1.1162109,0.09082031,0.028320312,-35.40039,11.047363,16.357422,0.0,0.0,0.0,21.329956,84.957275,-33.88733
1769254765032,-1.1850586,0.14404297,-0.123535156,-20.202637,15.869141,14.526367,0.0,0.0,0.0,21.329956,84.957275,-33.88733
1769254765044,-1.1850586,0.14404297,-0.123535156,-20.202637,15.869141,14.526367,0.0,0.0,0.0,44.489136,85.07263,-8.217773
1769254765133,-0.7163086,0.041992188,0.21533203,28.686523,-6.958008,-10.314941,0.0,0.0,0.0,44.489136,85.07263,-8.217773
1769254765143,-0.7163086,0.041992188,0.21533203,28.686523,-6.958008,-10.314941,0.0,0.0,0.0,61.550903,85.44617,6.05896
1769254765232,-1.2192383,0.047851562,-0.057128906,11.047363,16.052246,11.169434,0.0,0.0,0.0,61.550903,85.44617,6.05896
1769254765243,-1.2192383,0.047851562,-0.057128906,11.047363,16.052246,11.169434,0.0,0.0,0.0,51.13037,83.91907,-4.1088867
1769254765331,-0.86572266,0.14501953,-0.0048828125,9.643555,-30.578613,1.5258789,0.0,0.0,0.0,51.13037,83.91907,-4.1088867
1769254765343,-0.86572266,0.14501953,-0.0048828125,9.643555,-30.578613,1.5258789,0.0,0.0,0.0,51.21277,84.034424,-5.394287
1769254765431,-1.0410156,-0.030273438,0.12451172,33.325195,-11.779785,-13.183594,0.0,0.0,0.0,51.21277,84.034424,-5.394287
1769254765443,-1.0410156,-0.030273438,0.12451172,33.325195,-11.779785,-13.183594,0.0,0.0,0.0,32.48108,83.430176,-27.855835
1769254765531,-1.1035156,0.08105469,0.016113281,18.798828,2.0751953,-8.7890625,0.0,0.0,0.0,32.48108,83.430176,-27.855835
1769254765542,-1.1035156,0.08105469,0.016113281,18.798828,2.0751953,-8.7890625,0.0,0.0,0.0,22.988892,83.74878,-39.973755
1769254765630,-1.078125,-0.056640625,-0.07421875,33.325195,18.127441,-17.51709,0.0,0.0,0.0,22.988892,83.74878,-39.973755
1769254765642,-1.078125,-0.056640625,-0.07421875,33.325195,18.127441,-17.51709,0.0,0.0,0.0,16.64978,85.44617,-49.768066
1769254765730,-0.78222656,0.0043945312,0.2319336,33.38623,-9.70459,-19.89746,0.0,0.0,0.0,16.64978,85.44617,-49.768066
1769254765742,-0.78222656,0.0043945312,0.2319336,33.38623,-9.70459,-19.89746,0.0,0.0,0.0,-10.118408,87.09961,-80.10132
1769254765830,-1.0927734,0.07421875,0.36816406,36.499023,-10.7421875,-14.160156,0.0,0.0,0.0,-10.118408,87.09961,-80.10132
1769254765842,-1.0927734,0.07421875,0.36816406,36.499023,-10.7421875,-14.160156,0.0,0.0,0.0,-28.22937,85.061646,-101.43677
1769254765930,-0.8881836,-0.14990234,-0.24658203,-2.4414062,-4.272461,-16.723633,0.0,0.0,0.0,-28.22937,85.061646,-101.43677
1769254765941,-0.8881836,-0.14990234,-0.24658203,-2.4414062,-4.272461,-16.723633,0.0,0.0,0.0,-19.995117,81.34277,-95.08118
1769254766029,-0.98339844,0.056640625,0.10253906,-4.8217773,-21.30127,7.385254,0.0,0.0,0.0,-19.995117,81.34277,-95.08118
1769254766041,-0.98339844,0.056640625,0.10253906,-4.8217773,-21.30127,7.385254,0.0,0.0,0.0,-20.247803,80.44739,-97.16858
1769254766129,-1.1147461,-0.0390625,0.104003906,7.507324,1.159668,-14.221191,0.0,0.0,0.0,-20.247803,80.44739,-97.16858
1769254766141,-1.1147461,-0.0390625,0.104003906,7.507324,1.159668,-14.221191,0.0,0.0,0.0,-19.813843,80.34302,-97.02576
1769254766229,-1.1445312,0.022949219,-0.08544922,0.24414062,21.057129,-9.82666,0.0,0.0,0.0,-19.813843,80.34302,-97.02576
1769254766240,-1.1445312,0.022949219,-0.08544922,0.24414062,21.057129,-9.82666,0.0,0.0,0.0,-29.696045,80.875854,-107.31995
1769254766328,-0.8183594,0.0390625,0.23046875,27.46582,8.972168,-7.3242188,0.0,0.0,0.0,-29.696045,80.875854,-107.31995
1769254766340,-0.8183594,0.0390625,0.23046875,27.46582,8.972168,-7.3242188,0.0,0.0,0.0,-41.132812,81.95801,-121.986694
1769254766428,-1.0449219,-0.25390625,0.62939453,5.6152344,2.746582,2.4414062,0.0,0.0,0.0,-41.132812,81.95801,-121.986694
1769254766439,-1.0449219,-0.25390625,0.62939453,5.6152344,2.746582,2.4414062,0.0,0.0,0.0,-56.82129,83.704834,-136.89514
1769254766528,-1.0058594,-0.21826172,-0.4609375,-126.0376,-9.887695,54.504395,0.0,0.0,0.0,-56.82129,83.704834,-136.89514
1769254766539,-1.0058594,-0.21826172,-0.4609375,-126.0376,-9.887695,54.504395,0.0,0.0,0.0,-12.727661,80.95825,-92.09839
1769254766627,-0.95654297,0.07470703,0.27441406,-13.61084,-32.165527,6.3476562,0.0,0.0,0.0,-12.727661,80.95825,-92.09839
1769254766639,-0.95654297,0.07470703,0.27441406,-13.61084,-32.165527,6.3476562,0.0,0.0,0.0,-14.655762,81.49658,-96.102905
1769254766727,-1.1420898,-0.13964844,0.015136719,17.51709,15.014648,-2.4414062,0.0,0.0,0.0,-14.655762,81.49658,-96.102905
1769254766739,-1.1420898,-0.13964844,0.015136719,17.51709,15.014648,-2.4414062,0.0,0.0,0.0,-11.002808,80.57373,-92.77954
1769254766827,-1.0654297,-0.21533203,-0.05810547,5.6152344,31.555176,-11.047363,0.0,0.0,0.0,-11.002808,80.57373,-92.77954
1769254766838,-1.0654297,-0.21533203,-0.05810547,5.6152344,31.555176,-11.047363,0.0,0.0,0.0,-21.862793,82.32056,-104.96887
1769254766926,-0.80859375,-0.046875,0.2368164,-1.2207031,9.033203,-11.291504,0.0,0.0,0.0,-21.862793,82.32056,-104.96887
1769254766938,-0.80859375,-0.046875,0.2368164,-1.2207031,9.033203,-11.291504,0.0,0.0,0.0,-44.642944,84.0564,-127.56775
1769254767026,-1.1035156,0.18164062,0.3984375,13.793945,-2.2583008,-8.239746,0.0,0.0,0.0,-44.642944,84.0564,-127.56775
1769254767038,-1.1035156,0.18164062,0.3984375,13.793945,-2.2583008,-8.239746,0.0,0.0,0.0,-52.82776,82.65564,-137.36755
1769254767126,-0.9628906,-0.40722656,-0.2734375,-61.340332,-20.874023,14.282227,0.0,0.0,0.0,-52.82776,82.65564,-137.36755
1769254767137,-0.9628906,-0.40722656,-0.2734375,-61.340332,-20.874023,14.282227,0.0,0.0,0.0,-26.740723,79.2334,-112.142944
1769254767226,-0.9472656,0.100097656,0.2319336,-8.300781,-18.676758,10.803223,0.0,0.0,0.0,-26.740723,79.2334,-112.142944
1769254767237,-0.9472656,0.100097656,0.2319336,-8.300781,-18.676758,10.803223,0.0,0.0,0.0,-26.515503,78.568726,-111.85181
1769254767325,-1.128418,-0.14648438,0.09765625,2.1362305,13.793945,-16.967773,0.0,0.0,0.0,-26.515503,78.568726,-111.85181
1769254767338,-1.128418,-0.14648438,0.09765625,2.1362305,13.793945,-16.967773,0.0,0.0,0.0,-22.08252,78.21716,-105.61157
1769254767425,-1.2626953,-0.080566406,-0.07421875,-20.263672,19.042969,3.540039,0.0,0.0,0.0,-22.08252,78.21716,-105.61157
1769254767436,-1.2626953,-0.080566406,-0.07421875,-20.263672,19.042969,3.540039,0.0,0.0,0.0,-29.61914,79.090576,-111.78589
1769254767525,-0.7973633,0.045410156,0.22753906,11.230469,21.78955,2.1972656,0.0,0.0,0.0,-29.61914,79.090576,-111.78589
1769254767537,-0.7973633,0.045410156,0.22753906,11.230469,21.78955,2.1972656,0.0,0.0,0.0,-38.413696,80.321045,-122.404175
1769254767624,-1.1005859,-0.27978516,0.6166992,3.6621094,-5.9814453,-6.1035156,0.0,0.0,0.0,-38.413696,80.321045,-122.404175
1769254767636,-1.1005859,-0.27978516,0.6166992,3.6621094,-5.9814453,-6.1035156,0.0,0.0,0.0,-49.9823,82.54028,-132.47864
1769254767724,-0.99609375,-0.1928711,-0.30029297,-105.407715,-13.793945,50.109863,0.0,0.0,0.0,-49.9823,82.54028,-132.47864
1769254767735,-0.99609375,-0.1928711,-0.30029297,-105.407715,-13.793945,50.109863,0.0,0.0,0.0,-16.611328,79.45862,-98.92639
1769254767824,-0.9584961,0.04345703,0.29638672,6.286621,-3.4179688,6.1035156,0.0,0.0,0.0,-16.611328,79.45862,-98.92639
1769254767835,-0.9584961,0.04345703,0.29638672,6.286621,-3.4179688,6.1035156,0.0,0.0,0.0,-17.715454,80.44739,-100.73364
1769254767923,-1.1010742,-0.15625,0.01171875,13.793945,19.348145,-0.5493164,0.0,0.0,0.0,-17.715454,80.44739,-100.73364
1769254767935,-1.1010742,-0.15625,0.01171875,13.793945,19.348145,-0.5493164,0.0,0.0,0.0,-12.282715,80.23865,-95.60303
1769254768023,-1.1162109,-0.22314453,-0.01171875,-8.7890625,35.095215,-15.197754,0.0,0.0,0.0,-12.282715,80.23865,-95.60303
1769254768035,-1.1162109,-0.22314453,-0.01171875,-8.7890625,35.095215,-15.197754,0.0,0.0,0.0,-23.66455,82.15027,-107.90222
1769254768123,-0.96191406,0.024414062,0.22802734,-10.864258,14.465332,-5.432129,0.0,0.0,0.0,-23.66455,82.15027,-107.90222
1769254768134,-0.96191406,0.024414062,0.22802734,-10.864258,14.465332,-5.432129,0.0,0.0,0.0,-51.383057,83.90808,-134.3628
1769254768222,-0.92285156,0.2211914,0.19580078,3.540039,-15.319824,0.36621094,0.0,0.0,0.0,-51.383057,83.90808,-134.3628
1769254768235,-0.92285156,0.2211914,0.19580078,3.540039,-15.319824,0.36621094,0.0,0.0,0.0,-44.67041,82.85339,-127.924805
1769254768322,-0.92626953,-0.13867188,0.13232422,23.31543,-5.6152344,-7.446289,0.0,0.0,0.0,-44.67041,82.85339,-127.924805
1769254768334,-0.92626953,-0.13867188,0.13232422,23.31543,-5.6152344,-7.446289,0.0,0.0,0.0,-42.615967,81.589966,-127.67761
1769254768422,-0.90966797,-0.014160156,0.076660156,-1.0375977,-5.1879883,1.3427734,0.0,0.0,0.0,-42.615967,81.589966,-127.67761
1769254768434,-0.90966797,-0.014160156,0.076660156,-1.0375977,-5.1879883,1.3427734,0.0,0.0,0.0,-36.749268,80.529785,-120.92651
1769254768522,-1.1591797,-0.14794922,-0.0859375,-4.699707,7.873535,-0.061035156,0.0,0.0,0.0,-36.749268,80.529785,-120.92651
1769254768533,-1.1591797,-0.14794922,-0.0859375,-4.699707,7.873535,-0.061035156,0.0,0.0,0.0,-32.95349,80.787964,-116.14746
1769254768622,-1.0356445,0.030273438,0.0,-9.82666,-8.300781,-2.2583008,0.0,0.0,0.0,-32.95349,80.787964,-116.14746
1769254768633,-1.0356445,0.030273438,0.0,-9.82666,-8.300781,-2.2583008,0.0,0.0,0.0,-42.160034,81.04065,-125.875854
1769254768721,-0.8979492,0.021972656,0.2055664,32.53174,8.178711,-12.878418,0.0,0.0,0.0,-42.160034,81.04065,-125.875854
1769254768732,-0.8979492,0.021972656,0.2055664,32.53174,8.178711,-12.878418,0.0,0.0,0.0,-51.569824,81.4801,-137.22473
1769254768821,-1.0200195,-0.2763672,0.5595703,12.6953125,3.112793,12.878418,0.0,0.0,0.0,-51.569824,81.4801,-137.22473
1769254768832,-1.0200195,-0.2763672,0.5595703,12.6953125,3.112793,12.878418,0.0,0.0,0.0,-57.738647,82.91931,-142.44873
1769254768920,-0.97021484,-0.14794922,-0.39941406,-94.42139,-2.9907227,48.095703,0.0,0.0,0.0,-57.738647,82.91931,-142.44873
1769254768932,-0.97021484,-0.14794922,-0.39941406,-94.42139,-2.9907227,48.095703,0.0,0.0,0.0,-16.589355,80.79346,-98.47595
1769254769020,-1.0083008,-4.8828125E-4,0.25,22.949219,-22.033691,4.638672,0.0,0.0,0.0,-16.589355,80.79346,-98.47595
1769254769031,-1.0083008,-4.8828125E-4,0.25,22.949219,-22.033691,4.638672,0.0,0.0,0.0,-16.534424,80.57373,-101.085205
1769254769120,-1.0527344,-0.10449219,0.07128906,-2.5634766,4.5166016,8.178711,0.0,0.0,0.0,-16.534424,80.57373,-101.085205
1769254769131,-1.0527344,-0.10449219,0.07128906,-2.5634766,4.5166016,8.178711,0.0,0.0,0.0,-10.151367,79.94751,-94.99878
1769254769219,-1.0522461,-0.20117188,0.0029296875,-11.84082,37.719727,-11.901855,0.0,0.0,0.0,-10.151367,79.94751,-94.99878
1769254769231,-1.0522461,-0.20117188,0.0029296875,-11.84082,37.719727,-11.901855,0.0,0.0,0.0,-17.589111,81.93054,-101.90918
1769254769319,-0.9160156,0.0024414062,0.21582031,-5.859375,-1.6479492,-3.9672852,0.0,0.0,0.0,-17.589111,81.93054,-101.90918
1769254769331,-0.9160156,0.0024414062,0.21582031,-5.859375,-1.6479492,-3.9672852,0.0,0.0,0.0,-30.031128,83.69934,-112.30774
1769254769419,-1.0229492,0.20800781,0.27978516,7.6293945,-10.070801,-3.7841797,0.0,0.0,0.0,-30.031128,83.69934,-112.30774
1769254769430,-1.0229492,0.20800781,0.27978516,7.6293945,-10.070801,-3.7841797,0.0,0.0,0.0,-31.113281,82.11182,-114.70825
1769254769519,-0.8652344,-0.17773438,0.049316406,13.427734,-11.169434,-8.178711,0.0,0.0,0.0,-31.113281,82.11182,-114.70825
1769254769530,-0.8652344,-0.17773438,0.049316406,13.427734,-11.169434,-8.178711,0.0,0.0,0.0,-28.273315,79.469604,-113.37341
1769254769618,-0.98291016,0.033691406,0.13671875,-9.82666,-10.437012,8.300781,0.0,0.0,0.0,-28.273315,79.469604,-113.37341
1769254769630,-0.98291016,0.033691406,0.13671875,-9.82666,-10.437012,8.300781,0.0,0.0,0.0,-25.109253,78.69507,-108.73169
1769254769718,-1.1557617,-0.15820312,0.13964844,-1.4038086,9.82666,-14.160156,0.0,0.0,0.0,-25.109253,78.69507,-108.73169
1769254769730,-1.1557617,-0.15820312,0.13964844,-1.4038086,9.82666,-14.160156,0.0,0.0,0.0,-26.218872,79.11255,-108.94043
1769254769818,-1.2763672,-0.059570312,-0.061523438,-10.803223,35.583496,-4.272461,0.0,0.0,0.0,-26.218872,79.11255,-108.94043
1769254769829,-1.2763672,-0.059570312,-0.061523438,-10.803223,35.583496,-4.272461,0.0,0.0,0.0,-38.320312,80.48584,-119.62463
1769254769917,-0.69921875,0.024414062,0.25146484,-2.6855469,26.062012,4.760742,0.0,0.0,0.0,-38.320312,80.48584,-119.62463
1769254769929,-0.69921875,0.024414062,0.25146484,-2.6855469,26.062012,4.760742,0.0,0.0,0.0,-52.816772,81.760254,-135.84045
1769254770017,-1.0092773,-0.060546875,0.45947266,21.1792,-58.10547,3.2958984,0.0,0.0,0.0,-52.816772,81.760254,-135.84045
1769254770028,-1.0092773,-0.060546875,0.45947266,21.1792,-58.10547,3.2958984,0.0,0.0,0.0,-50.32837,82.62268,-132.17651
1769254770117,-0.890625,-0.27978516,-0.060546875,32.226562,26.916504,6.591797,0.0,0.0,0.0,-50.32837,82.62268,-132.17651
1769254770128,-0.890625,-0.27978516,-0.060546875,32.226562,26.916504,6.591797,0.0,0.0,0.0,-20.516968,83.76526,-99.17908
1769254770217,-1.0405273,-0.22167969,0.09082031,-6.225586,-17.39502,6.5307617,0.0,0.0,0.0,-20.516968,83.76526,-99.17908
1769254770228,-1.0405273,-0.22167969,0.09082031,-6.225586,-17.39502,6.5307617,0.0,0.0,0.0,-20.231323,82.6062,-101.88721
1769254770316,-1.097168,-0.07470703,0.011230469,-5.554199,13.366699,2.380371,0.0,0.0,0.0,-20.231323,82.6062,-101.88721
1769254770328,-1.097168,-0.07470703,0.011230469,-5.554199,13.366699,2.380371,0.0,0.0,0.0,-22.884521,83.26538,-104.96338
1769254770416,-1.1967773,-0.12939453,0.18457031,-14.953613,30.151367,-14.465332,0.0,0.0,0.0,-22.884521,83.26538,-104.96338
1769254770427,-1.1967773,-0.12939453,0.18457031,-14.953613,30.151367,-14.465332,0.0,0.0,0.0,-50.125122,84.732056,-131.79749
1769254770516,-0.66259766,0.087402344,0.09423828,30.700684,-10.925293,-23.376465,0.0,0.0,0.0,-50.125122,84.732056,-131.79749
1769254770528,-0.66259766,0.087402344,0.09423828,30.700684,-10.925293,-23.376465,0.0,0.0,0.0,-58.727417,83.71582,-139.86694
1769254770615,-1.097168,-0.3305664,0.053710938,15.563965,-9.216309,-26.672363,0.0,0.0,0.0,-58.727417,83.71582,-139.86694
1769254770627,-1.097168,-0.3305664,0.053710938,15.563965,-9.216309,-26.672363,0.0,0.0,0.0,-48.762817,82.23816,-130.51208
1769254770715,-0.8642578,-0.06933594,0.028320312,-13.73291,-19.836426,-1.3427734,0.0,0.0,0.0,-48.762817,82.23816,-130.51208
1769254770727,-0.8642578,-0.06933594,0.028320312,-13.73291,-19.836426,-1.3427734,0.0,0.0,0.0,-45.027466,80.4364,-128.12256
1769254770815,-1.0180664,-0.009765625,0.044921875,-16.418457,-6.5307617,8.178711,0.0,0.0,0.0,-45.027466,80.4364,-128.12256
1769254770826,-1.0180664,-0.009765625,0.044921875,-16.418457,-6.5307617,8.178711,0.0,0.0,0.0,-43.654175,80.29358,-125.7605
1769254770914,-1.1318359,-0.09765625,0.12597656,1.5869141,2.0141602,-11.535645,0.0,0.0,0.0,-43.654175,80.29358,-125.7605
1769254770926,-1.1318359,-0.09765625,0.12597656,1.5869141,2.0141602,-11.535645,0.0,0.0,0.0,-47.631226,80.5188,-129.20471
1769254771014,-1.137207,-0.10107422,0.07763672,44.73877,15.319824,-16.967773,0.0,0.0,0.0,-47.631226,80.5188,-129.20471
1769254771026,-1.137207,-0.10107422,0.07763672,44.73877,15.319824,-16.967773,0.0,0.0,0.0,-57.348633,81.0022,-139.15833
1769254771114,-0.6821289,-0.2055664,0.3359375,-35.52246,21.850586,12.084961,0.0,0.0,0.0,-57.348633,81.0022,-139.15833
1769254771125,-0.6821289,-0.2055664,0.3359375,-35.52246,21.850586,12.084961,0.0,0.0,0.0,-61.2323,81.848145,-143.58032
1769254771213,-1.0097656,0.25927734,-0.24511719,-82.214355,-26.123047,68.17627,0.0,0.0,0.0,-61.2323,81.848145,-143.58032
1769254771225,-1.0097656,0.25927734,-0.24511719,-82.214355,-26.123047,68.17627,0.0,0.0,0.0,-38.946533,81.101074,-121.05286
1769254771313,-0.9057617,-0.012207031,0.20410156,39.0625,-18.127441,-7.751465,0.0,0.0,0.0,-38.946533,81.101074,-121.05286
1769254771325,-0.9057617,-0.012207031,0.20410156,39.0625,-18.127441,-7.751465,0.0,0.0,0.0,-30.080566,82.716064,-111.11572
1769254771413,-1.0639648,-0.17626953,0.1015625,10.681152,-7.019043,11.59668,0.0,0.0,0.0,-30.080566,82.716064,-111.11572
1769254771424,-1.0639648,-0.17626953,0.1015625,10.681152,-7.019043,11.59668,0.0,0.0,0.0,-16.380615,80.34302,-98.57483
1769254771513,-1.0727539,-0.27783203,-9.765625E-4,-0.61035156,19.53125,-4.3945312,0.0,0.0,0.0,-16.380615,80.34302,-98.57483
1769254771524,-1.0727539,-0.27783203,-9.765625E-4,-0.61035156,19.53125,-4.3945312,0.0,0.0,0.0,-15.265503,80.84839,-97.822266
1769254771612,-1.0541992,0.0146484375,0.23535156,-23.864746,11.84082,2.746582,0.0,0.0,0.0,-15.265503,80.84839,-97.822266
1769254771624,-1.0541992,0.0146484375,0.23535156,-23.864746,11.84082,2.746582,0.0,0.0,0.0,-27.537231,82.85889,-108.55591
1769254771712,-0.8676758,0.23095703,0.17578125,15.258789,-9.216309,-20.996094,0.0,0.0,0.0,-27.537231,82.85889,-108.55591
1769254771723,-0.8676758,0.23095703,0.17578125,15.258789,-9.216309,-20.996094,0.0,0.0,0.0,-33.931274,81.79321,-115.043335
1769254771812,-0.89941406,-0.20751953,0.33642578,53.40576,-40.527344,2.5634766,0.0,0.0,0.0,-33.931274,81.79321,-115.043335
1769254771823,-0.89941406,-0.20751953,0.33642578,53.40576,-40.527344,2.5634766,0.0,0.0,0.0,-32.612915,80.128784,-115.53223
1769254771911,-0.9404297,-0.016113281,0.19238281,29.296875,6.286621,-16.357422,0.0,0.0,0.0,-32.612915,80.128784,-115.53223
1769254771923,-0.9404297,-0.016113281,0.19238281,29.296875,6.286621,-16.357422,0.0,0.0,0.0,-24.175415,78.67859,-105.63904
1769254772011,-1.1069336,-0.19238281,-0.15625,-11.047363,12.512207,-2.6245117,0.0,0.0,0.0,-24.175415,78.67859,-105.63904
1769254772023,-1.1069336,-0.19238281,-0.15625,-11.047363,12.512207,-2.6245117,0.0,0.0,0.0,-24.922485,78.66211,-106.27075
1769254772111,-1.0766602,-0.080078125,0.023925781,-20.935059,16.967773,-12.939453,0.0,0.0,0.0,-24.922485,78.66211,-106.27075
1769254772122,-1.0766602,-0.080078125,0.023925781,-20.935059,16.967773,-12.939453,0.0,0.0,0.0,-40.62744,79.799194,-122.31079
1769254772211,-1.0024414,-0.024902344,0.09277344,35.15625,25.512695,-24.108887,0.0,0.0,0.0,-40.62744,79.799194,-122.31079
1769254772222,-1.0024414,-0.024902344,0.09277344,35.15625,25.512695,-24.108887,0.0,0.0,0.0,-59.260254,80.41992,-141.5094
1769254772310,-0.7446289,-0.25732422,0.40722656,-14.221191,27.404785,10.192871,0.0,0.0,0.0,-59.260254,80.41992,-141.5094
1769254772322,-0.7446289,-0.25732422,0.40722656,-14.221191,27.404785,10.192871,0.0,0.0,0.0,-72.493286,81.60095,-154.29199
1769254772410,-1.1191406,0.21191406,-0.53759766,-123.84033,15.014648,79.10156,0.0,0.0,0.0,-72.493286,81.60095,-154.29199
1769254772421,-1.1191406,0.21191406,-0.53759766,-123.84033,15.014648,79.10156,0.0,0.0,0.0,-40.687866,82.51831,-118.93799
1769254772510,-0.9194336,0.001953125,0.21044922,46.26465,-15.563965,-10.620117,0.0,0.0,0.0,-40.687866,82.51831,-118.93799
1769254772521,-0.9194336,0.001953125,0.21044922,46.26465,-15.563965,-10.620117,0.0,0.0,0.0,-52.70691,84.28162,-133.82996
1769254772609,-1.0717773,-0.20361328,0.114746094,15.74707,12.939453,0.0,0.0,0.0,0.0,-52.70691,84.28162,-133.82996
1769254772621,-1.0717773,-0.20361328,0.114746094,15.74707,12.939453,0.0,0.0,0.0,0.0,-35.837402,82.9303,-118.29529
1769254772709,-1.059082,-0.33642578,-0.13134766,5.6762695,21.1792,-9.033203,0.0,0.0,0.0,-35.837402,82.9303,-118.29529
1769254772721,-1.059082,-0.33642578,-0.13134766,5.6762695,21.1792,-9.033203,0.0,0.0,0.0,-41.539307,83.73779,-124.244385
1769254772809,-1.0546875,-0.029785156,0.19433594,-11.413574,16.052246,-11.108398,0.0,0.0,0.0,-41.539307,83.73779,-124.244385
1769254772820,-1.0546875,-0.029785156,0.19433594,-11.413574,16.052246,-11.108398,0.0,0.0,0.0,-75.25635,83.67737,-157.44507
1769254772908,-0.80810547,0.24365234,0.14160156,39.67285,-16.662598,-13.977051,0.0,0.0,0.0,-75.25635,83.67737,-157.44507
1769254772920,-0.80810547,0.24365234,0.14160156,39.67285,-16.662598,-13.977051,0.0,0.0,0.0,-65.961914,81.82617,-150.40283
1769254773008,-0.9794922,-0.34033203,0.11816406,28.869629,-3.1738281,-21.972656,0.0,0.0,0.0,-65.961914,81.82617,-150.40283
1769254773020,-0.9794922,-0.34033203,0.11816406,28.869629,-3.1738281,-21.972656,0.0,0.0,0.0,-57.354126,80.079346,-143.41553
