timestamp,accX,accY,accZ,gyroX,gyroY,gyroZ,magX,magY,magZ,roll,pitch,yaw
1766901582609,-1.0390625,-0.16601562,-0.36621094,22.277832,96.49658,-48.88916,0.0,0.0,0.0,107.22656,77.733765,36.254883
1766901582619,-1.0390625,-0.16601562,-0.36621094,22.277832,96.49658,-48.88916,0.0,0.0,0.0,129.2981,75.88257,56.7334
1766901582706,-1.3535156,0.3725586,0.8071289,-39.245605,0.48828125,17.944336,0.0,0.0,0.0,129.2981,75.88257,56.7334
1766901582718,-1.3535156,0.3725586,0.8071289,-39.245605,0.48828125,17.944336,0.0,0.0,0.0,159.36218,67.21985,92.83447
1766901582806,-0.90966797,0.19921875,-0.27685547,29.052734,-66.65039,32.53174,0.0,0.0,0.0,159.36218,67.21985,92.83447
1766901582817,-0.90966797,0.19921875,-0.27685547,29.052734,-66.65039,32.53174,0.0,0.0,0.0,145.047,71.586914,74.921265
1766901582906,-1.0332031,0.4140625,-0.25048828,-27.282715,16.052246,-2.1362305,0.0,0.0,0.0,145.047,71.586914,74.921265
1766901582918,-1.0332031,0.4140625,-0.25048828,-27.282715,16.052246,-2.1362305,0.0,0.0,0.0,138.1311,72.62512,66.43982
1766901583005,-1.0795898,0.24414062,-0.14892578,-25.45166,-55.603027,-12.573242,0.0,0.0,0.0,138.1311,72.62512,66.43982
1766901583017,-1.0795898,0.24414062,-0.14892578,-25.45166,-55.603027,-12.573242,0.0,0.0,0.0,130.78125,73.723755,63.484497
1766901583105,-0.7680664,-0.27001953,-0.26171875,30.761719,-32.409668,-34.118652,0.0,0.0,0.0,130.78125,73.723755,63.484497
1766901583120,-0.7680664,-0.27001953,-0.26171875,30.761719,-32.409668,-34.118652,0.0,0.0,0.0,120.371704,77.95349,51.289673
1766901583205,-1.0380859,0.26416016,-0.37597656,27.282715,65.18555,33.26416,0.0,0.0,0.0,120.371704,77.95349,51.289673
1766901583217,-1.0380859,0.26416016,-0.37597656,27.282715,65.18555,33.26416,0.0,0.0,0.0,133.73108,76.66809,58.5791
1766901583304,-0.9116211,0.30126953,0.03564453,-47.60742,109.74121,-1.2817383,0.0,0.0,0.0,133.73108,76.66809,58.5791
1766901583316,-0.9116211,0.30126953,0.03564453,-47.60742,109.74121,-1.2817383,0.0,0.0,0.0,149.07349,66.95068,76.11328
1766901583404,-1.0224609,0.18115234,-0.23046875,-26.123047,-51.26953,-21.1792,0.0,0.0,0.0,149.07349,66.95068,76.11328
1766901583416,-1.0224609,0.18115234,-0.23046875,-26.123047,-51.26953,-21.1792,0.0,0.0,0.0,145.87646,68.98865,76.54175
1766901583504,-1.121582,-0.0234375,-0.27490234,-33.87451,14.892578,-26.794434,0.0,0.0,0.0,145.87646,68.98865,76.54175
1766901583515,-1.121582,-0.0234375,-0.27490234,-33.87451,14.892578,-26.794434,0.0,0.0,0.0,144.75586,72.04285,77.475586
1766901583604,-1.2641602,0.061523438,-0.057617188,61.828613,-79.956055,21.118164,0.0,0.0,0.0,144.75586,72.04285,77.475586
1766901583615,-1.2641602,0.061523438,-0.057617188,61.828613,-79.956055,21.118164,0.0,0.0,0.0,145.23926,74.0863,75.19043
1766901583704,-0.52490234,0.29882812,-0.18066406,49.560547,-96.25244,51.3916,0.0,0.0,0.0,145.23926,74.0863,75.19043
1766901583715,-0.52490234,0.29882812,-0.18066406,49.560547,-96.25244,51.3916,0.0,0.0,0.0,114.1095,77.612915,33.45337
1766901583803,-0.9448242,0.13476562,-0.5839844,33.813477,15.258789,4.9438477,0.0,0.0,0.0,114.1095,77.612915,33.45337
1766901583814,-0.9448242,0.13476562,-0.5839844,33.813477,15.258789,4.9438477,0.0,0.0,0.0,94.850464,77.66785,8.058472
1766901583903,-1.0961914,0.080078125,-0.24169922,-51.330566,212.46338,-51.086426,0.0,0.0,0.0,94.850464,77.66785,8.058472
1766901583914,-1.0961914,0.080078125,-0.24169922,-51.330566,212.46338,-51.086426,0.0,0.0,0.0,146.03027,72.41089,56.381836
1766901584002,-0.93603516,0.30517578,-0.15136719,115.9668,-68.725586,37.231445,0.0,0.0,0.0,146.03027,72.41089,56.381836
1766901584014,-0.93603516,0.30517578,-0.15136719,115.9668,-68.725586,37.231445,0.0,0.0,0.0,153.30872,68.4668,61.539917
1766901584102,-1.0341797,0.31689453,-0.36816406,6.7749023,-11.291504,3.540039,0.0,0.0,0.0,153.30872,68.4668,61.539917
1766901584114,-1.0341797,0.31689453,-0.36816406,6.7749023,-11.291504,3.540039,0.0,0.0,0.0,140.69641,71.54846,42.143555
1766901584202,-1.1401367,0.38623047,-0.10595703,-53.95508,28.198242,-3.9672852,0.0,0.0,0.0,140.69641,71.54846,42.143555
1766901584214,-1.1401367,0.38623047,-0.10595703,-53.95508,28.198242,-3.9672852,0.0,0.0,0.0,140.3009,70.31799,40.858154
1766901584302,-0.8569336,0.19335938,-0.24023438,-26.062012,-71.41113,-12.084961,0.0,0.0,0.0,140.3009,70.31799,40.858154
1766901584313,-0.8569336,0.19335938,-0.24023438,-26.062012,-71.41113,-12.084961,0.0,0.0,0.0,126.518555,74.82788,28.828125
1766901584402,-0.88671875,-0.21923828,-0.34375,32.592773,-13.671875,-30.151367,0.0,0.0,0.0,126.518555,74.82788,28.828125
1766901584413,-0.88671875,-0.21923828,-0.34375,32.592773,-13.671875,-30.151367,0.0,0.0,0.0,118.10303,78.53027,14.518433
1766901584501,-0.9770508,0.29248047,-0.33154297,7.080078,101.989746,35.88867,0.0,0.0,0.0,118.10303,78.53027,14.518433
1766901584513,-0.9770508,0.29248047,-0.33154297,7.080078,101.989746,35.88867,0.0,0.0,0.0,133.33557,73.482056,22.000122
1766901584601,-1.1333008,0.1977539,0.3149414,-60.058594,94.23828,-31.311035,0.0,0.0,0.0,133.33557,73.482056,22.000122
1766901584612,-1.1333008,0.1977539,0.3149414,-60.058594,94.23828,-31.311035,0.0,0.0,0.0,155.02258,63.566895,45.12085
1766901584700,-1.0703125,0.1665039,-0.32617188,-15.563965,-99.67041,-17.8833,0.0,0.0,0.0,155.02258,63.566895,45.12085
1766901584712,-1.0703125,0.1665039,-0.32617188,-15.563965,-99.67041,-17.8833,0.0,0.0,0.0,154.4458,68.236084,45.411987
1766901584800,-0.99902344,-0.025878906,-0.38134766,-25.817871,14.038086,-22.521973,0.0,0.0,0.0,154.4458,68.236084,45.411987
1766901584811,-0.99902344,-0.025878906,-0.38134766,-25.817871,14.038086,-22.521973,0.0,0.0,0.0,149.43054,74.03137,37.91382
1766901584900,-1.2509766,-0.0146484375,-0.03564453,10.7421875,45.288086,10.498047,0.0,0.0,0.0,149.43054,74.03137,37.91382
1766901584912,-1.2509766,-0.0146484375,-0.03564453,10.7421875,45.288086,10.498047,0.0,0.0,0.0,158.80188,69.76868,44.225464
1766901585000,-0.6933594,0.24365234,-0.13867188,68.96973,-136.04736,58.654785,0.0,0.0,0.0,158.80188,69.76868,44.225464
1766901585011,-0.6933594,0.24365234,-0.13867188,68.96973,-136.04736,58.654785,0.0,0.0,0.0,150.52917,74.08081,25.977173
1766901585099,-0.9291992,0.14550781,-0.63134766,49.438477,-63.537598,19.89746,0.0,0.0,0.0,150.52917,74.08081,25.977173
1766901585111,-0.9291992,0.14550781,-0.63134766,49.438477,-63.537598,19.89746,0.0,0.0,0.0,97.13562,78.88733,-37.27661
1766901585200,-0.9736328,0.059570312,-0.36376953,-62.438965,206.66504,-66.89453,0.0,0.0,0.0,97.13562,78.88733,-37.27661
1766901585210,-0.9736328,0.059570312,-0.36376953,-62.438965,206.66504,-66.89453,0.0,0.0,0.0,131.71509,77.18994,-9.437256
1766901585298,-1.3149414,0.06933594,0.82177734,4.760742,-30.88379,4.8217773,0.0,0.0,0.0,131.71509,77.18994,-9.437256
1766901585314,-1.3149414,0.06933594,0.82177734,4.760742,-30.88379,4.8217773,0.0,0.0,0.0,161.93848,64.105225,22.48352
1766901585398,-1.1030273,0.13964844,-0.35742188,46.020508,-117.73682,39.367676,0.0,0.0,0.0,161.93848,64.105225,22.48352
1766901585410,-1.1030273,0.13964844,-0.35742188,46.020508,-117.73682,39.367676,0.0,0.0,0.0,148.07373,72.69104,-0.7470703
1766901585498,-1.0600586,0.3251953,-0.33642578,-55.541992,5.3100586,2.0751953,0.0,0.0,0.0,148.07373,72.69104,-0.7470703
1766901585509,-1.0600586,0.3251953,-0.33642578,-55.541992,5.3100586,2.0751953,0.0,0.0,0.0,128.11707,75.91553,-28.355713
1766901585598,-0.8417969,0.099121094,-0.119140625,-73.36426,31.37207,-38.635254,0.0,0.0,0.0,128.11707,75.91553,-28.355713
1766901585610,-0.8417969,0.099121094,-0.119140625,-73.36426,31.37207,-38.635254,0.0,0.0,0.0,135.41748,76.35498,-19.077759
1766901585698,-0.8925781,-0.27197266,-0.2319336,35.27832,-8.7890625,-15.014648,0.0,0.0,0.0,135.41748,76.35498,-19.077759
1766901585709,-0.8925781,-0.27197266,-0.2319336,35.27832,-8.7890625,-15.014648,0.0,0.0,0.0,148.87024,77.371216,-10.189819
1766901585797,-1.0263672,0.34765625,-0.33691406,19.16504,34.301758,59.143066,0.0,0.0,0.0,148.87024,77.371216,-10.189819
1766901585808,-1.0263672,0.34765625,-0.33691406,19.16504,34.301758,59.143066,0.0,0.0,0.0,143.1958,75.4541,-27.037354
1766901585897,-0.92871094,0.1171875,-0.1665039,-22.155762,71.96045,-13.061523,0.0,0.0,0.0,143.1958,75.4541,-27.037354
1766901585908,-0.92871094,0.1171875,-0.1665039,-22.155762,71.96045,-13.061523,0.0,0.0,0.0,150.57861,68.98865,-24.378662
1766901585996,-1.0771484,0.063964844,-0.19482422,-17.578125,-19.226074,-20.019531,0.0,0.0,0.0,150.57861,68.98865,-24.378662
1766901586009,-1.0771484,0.063964844,-0.19482422,-17.578125,-19.226074,-20.019531,0.0,0.0,0.0,157.1814,66.95618,-20.236816
1766901586096,-1.1533203,0.041992188,-0.22558594,-15.563965,-22.827148,-11.71875,0.0,0.0,0.0,157.1814,66.95618,-20.236816
1766901586109,-1.1533203,0.041992188,-0.22558594,-15.563965,-22.827148,-11.71875,0.0,0.0,0.0,158.57117,70.653076,-22.060547
1766901586196,-1.0141602,0.038085938,-0.24609375,44.067383,-52.30713,21.972656,0.0,0.0,0.0,158.57117,70.653076,-22.060547
1766901586207,-1.0141602,0.038085938,-0.24609375,44.067383,-52.30713,21.972656,0.0,0.0,0.0,153.94592,74.91028,-34.178467
1766901586295,-0.6972656,0.25585938,-0.28808594,-16.418457,-42.114258,1.5869141,0.0,0.0,0.0,153.94592,74.91028,-34.178467
1766901586308,-0.6972656,0.25585938,-0.28808594,-16.418457,-42.114258,1.5869141,0.0,0.0,0.0,134.56604,77.17346,-62.7594
1766901586398,-1.0214844,-0.076660156,-0.4580078,28.686523,34.057617,-18.493652,0.0,0.0,0.0,134.56604,77.17346,-62.7594
1766901586407,-1.0214844,-0.076660156,-0.4580078,28.686523,34.057617,-18.493652,0.0,0.0,0.0,124.17847,78.04138,-80.87036
1766901586495,-1.0151367,0.14941406,-0.08300781,-28.015137,124.938965,-33.203125,0.0,0.0,0.0,124.17847,78.04138,-80.87036
1766901586506,-1.0151367,0.14941406,-0.08300781,-28.015137,124.938965,-33.203125,0.0,0.0,0.0,159.55994,71.09802,-47.938843
1766901586596,-1.046875,0.19921875,-0.24853516,37.902832,-41.503906,36.499023,0.0,0.0,0.0,159.55994,71.09802,-47.938843
1766901586606,-1.046875,0.19921875,-0.24853516,37.902832,-41.503906,36.499023,0.0,0.0,0.0,161.93298,71.02661,-49.81201
1766901586695,-1.078125,0.1899414,-0.29541016,-6.225586,-2.1972656,2.9296875,0.0,0.0,0.0,161.93298,71.02661,-49.81201
1766901586706,-1.078125,0.1899414,-0.29541016,-6.225586,-2.1972656,2.9296875,0.0,0.0,0.0,154.4403,73.361206,-63.792114
1766901586794,-1.2011719,0.24853516,0.21142578,-37.53662,-57.006836,8.483887,0.0,0.0,0.0,154.4403,73.361206,-63.792114
1766901586807,-1.2011719,0.24853516,0.21142578,-37.53662,-57.006836,8.483887,0.0,0.0,0.0,148.78235,74.27307,-69.69177
1766901586894,-0.86083984,0.025390625,-0.3408203,-11.535645,-84.04541,-4.211426,0.0,0.0,0.0,148.78235,74.27307,-69.69177
1766901586905,-0.86083984,0.025390625,-0.3408203,-11.535645,-84.04541,-4.211426,0.0,0.0,0.0,110.29175,81.00769,-111.51123
1766901586993,-0.8149414,-0.30517578,-0.3618164,19.042969,8.7890625,-9.155273,0.0,0.0,0.0,110.29175,81.00769,-111.51123
1766901587005,-0.8149414,-0.30517578,-0.3618164,19.042969,8.7890625,-9.155273,0.0,0.0,0.0,91.56555,80.947266,-138.19702
1766901587093,-1.0791016,0.4267578,-0.28222656,-10.986328,159.30176,47.729492,0.0,0.0,0.0,91.56555,80.947266,-138.19702
1766901587104,-1.0791016,0.4267578,-0.28222656,-10.986328,159.30176,47.729492,0.0,0.0,0.0,138.10364,74.77295,-90.06592
1766901587193,-0.9326172,0.08935547,0.0703125,42.541504,-41.870117,-15.991211,0.0,0.0,0.0,138.10364,74.77295,-90.06592
1766901587204,-0.9326172,0.08935547,0.0703125,42.541504,-41.870117,-15.991211,0.0,0.0,0.0,149.91394,68.620605,-79.590454
1766901587293,-1.0419922,-0.025390625,-0.36767578,-9.765625,-37.902832,-13.977051,0.0,0.0,0.0,149.91394,68.620605,-79.590454
1766901587304,-1.0419922,-0.025390625,-0.36767578,-9.765625,-37.902832,-13.977051,0.0,0.0,0.0,144.31091,74.2511,-91.433716
1766901587392,-1.0483398,0.111816406,-0.21923828,-22.705078,47.729492,-18.859863,0.0,0.0,0.0,144.31091,74.2511,-91.433716
1766901587407,-1.0483398,0.111816406,-0.21923828,-22.705078,47.729492,-18.859863,0.0,0.0,0.0,151.67175,73.70178,-88.461914
1766901587493,-1.1015625,0.08300781,-0.25683594,64.819336,-83.55713,29.907227,0.0,0.0,0.0,151.67175,73.70178,-88.461914
1766901587503,-1.1015625,0.08300781,-0.25683594,64.819336,-83.55713,29.907227,0.0,0.0,0.0,144.44275,76.986694,-103.52966
1766901587592,-0.6357422,0.2524414,-0.32958984,26.367188,-64.819336,37.353516,0.0,0.0,0.0,144.44275,76.986694,-103.52966
1766901587603,-0.6357422,0.2524414,-0.32958984,26.367188,-64.819336,37.353516,0.0,0.0,0.0,104.82605,79.211426,-143.55286
1766901587692,-0.97509766,-0.05810547,-0.4453125,30.88379,57.128906,-6.8359375,0.0,0.0,0.0,104.82605,79.211426,-143.55286
1766901587703,-0.97509766,-0.05810547,-0.4453125,30.88379,57.128906,-6.8359375,0.0,0.0,0.0,107.89673,79.96948,-134.73633
1766901587791,-1.21875,0.27978516,0.62890625,-64.51416,145.50781,-35.27832,0.0,0.0,0.0,107.89673,79.96948,-134.73633
1766901587802,-1.21875,0.27978516,0.62890625,-64.51416,145.50781,-35.27832,0.0,0.0,0.0,165.6189,71.482544,-65.494995
1766901587891,-1.0693359,0.1796875,-0.23779297,43.273926,-43.70117,46.325684,0.0,0.0,0.0,165.6189,71.482544,-65.494995
1766901587902,-1.0693359,0.1796875,-0.23779297,43.273926,-43.70117,46.325684,0.0,0.0,0.0,162.49878,74.679565,-78.5083
1766901587990,-1.0634766,0.33447266,-0.28515625,4.211426,-10.009766,16.845703,0.0,0.0,0.0,162.49878,74.679565,-78.5083
1766901588002,-1.0634766,0.33447266,-0.28515625,4.211426,-10.009766,16.845703,0.0,0.0,0.0,148.83728,76.5802,-89.06616
1766901588090,-1.1591797,0.21728516,0.05517578,-62.072754,-19.714355,-9.58252,0.0,0.0,0.0,148.83728,76.5802,-89.06616
1766901588102,-1.1591797,0.21728516,0.05517578,-62.072754,-19.714355,-9.58252,0.0,0.0,0.0,141.68518,75.52551,-86.726074
1766901588190,-0.6689453,0.016601562,-0.22998047,4.8217773,-55.05371,3.479004,0.0,0.0,0.0,141.68518,75.52551,-86.726074
1766901588203,-0.6689453,0.016601562,-0.22998047,4.8217773,-55.05371,3.479004,0.0,0.0,0.0,123.673096,79.887085,-97.75635
1766901588289,-1.0302734,-0.091308594,-0.42382812,22.338867,19.65332,-8.239746,0.0,0.0,0.0,123.673096,79.887085,-97.75635
1766901588301,-1.0302734,-0.091308594,-0.42382812,22.338867,19.65332,-8.239746,0.0,0.0,0.0,121.73401,81.35925,-99.84924
1766901588389,-0.9741211,0.37695312,-0.1850586,-40.527344,146.60645,14.160156,0.0,0.0,0.0,121.73401,81.35925,-99.84924
1766901588401,-0.9741211,0.37695312,-0.1850586,-40.527344,146.60645,14.160156,0.0,0.0,0.0,151.45203,73.33923,-67.50549
1766901588489,-0.9448242,0.118652344,-0.118652344,28.930664,-34.851074,-7.5683594,0.0,0.0,0.0,151.45203,73.33923,-67.50549
1766901588500,-0.9448242,0.118652344,-0.118652344,28.930664,-34.851074,-7.5683594,0.0,0.0,0.0,154.25354,68.532715,-56.310425
1766901588589,-1.0878906,0.053710938,-0.37402344,-9.70459,-34.851074,-4.8828125,0.0,0.0,0.0,154.25354,68.532715,-56.310425
1766901588600,-1.0878906,0.053710938,-0.37402344,-9.70459,-34.851074,-4.8828125,0.0,0.0,0.0,146.83228,73.25134,-58.617554
1766901588688,-1.2387695,0.24414062,0.23583984,-26.550293,21.78955,-13.85498,0.0,0.0,0.0,146.83228,73.25134,-58.617554
1766901588700,-1.2387695,0.24414062,0.23583984,-26.550293,21.78955,-13.85498,0.0,0.0,0.0,152.40234,72.62512,-48.180542
1766901588788,-0.8696289,0.071777344,-0.2553711,34.66797,-77.697754,20.141602,0.0,0.0,0.0,152.40234,72.62512,-48.180542
1766901588799,-0.8696289,0.071777344,-0.2553711,34.66797,-77.697754,20.141602,0.0,0.0,0.0,131.68213,77.75574,-69.43359
1766901588888,-0.7441406,0.47607422,-0.41845703,-35.15625,-25.20752,-15.869141,0.0,0.0,0.0,131.68213,77.75574,-69.43359
1766901588899,-0.7441406,0.47607422,-0.41845703,-35.15625,-25.20752,-15.869141,0.0,0.0,0.0,111.362915,80.09033,-91.38428
1766901588987,-1.0297852,-0.046875,-0.3359375,-12.878418,109.92432,-38.635254,0.0,0.0,0.0,111.362915,80.09033,-91.38428
1766901588999,-1.0297852,-0.046875,-0.3359375,-12.878418,109.92432,-38.635254,0.0,0.0,0.0,129.25964,78.32703,-75.531006
1766901589087,-1.0722656,0.09082031,0.29638672,37.17041,-61.21826,3.112793,0.0,0.0,0.0,129.25964,78.32703,-75.531006
1766901589098,-1.0722656,0.09082031,0.29638672,37.17041,-61.21826,3.112793,0.0,0.0,0.0,161.32324,70.982666,-37.06787
1766901589187,-0.9116211,0.1665039,-0.29101562,33.02002,-46.691895,24.353027,0.0,0.0,0.0,161.32324,70.982666,-37.06787
1766901589198,-0.9116211,0.1665039,-0.29101562,33.02002,-46.691895,24.353027,0.0,0.0,0.0,148.04626,74.8938,-54.93164
1766901589287,-1.0761719,0.3227539,-0.26953125,-32.348633,26.855469,1.0986328,0.0,0.0,0.0,148.04626,74.8938,-54.93164
1766901589298,-1.0761719,0.3227539,-0.26953125,-32.348633,26.855469,1.0986328,0.0,0.0,0.0,143.49243,75.234375,-60.66101
1766901589386,-1.2016602,0.19677734,-0.19482422,9.460449,-91.24756,3.2958984,0.0,0.0,0.0,143.49243,75.234375,-60.66101
1766901589398,-1.2016602,0.19677734,-0.19482422,9.460449,-91.24756,3.2958984,0.0,0.0,0.0,133.0774,76.56372,-66.868286
1766901589486,-0.6386719,-0.14355469,-0.25097656,26.184082,-24.291992,-6.3476562,0.0,0.0,0.0,133.0774,76.56372,-66.868286
1766901589497,-0.6386719,-0.14355469,-0.25097656,26.184082,-24.291992,-6.3476562,0.0,0.0,0.0,108.40759,79.090576,-94.31213
1766901589586,-0.99853516,0.203125,-0.3647461,9.887695,78.73535,9.216309,0.0,0.0,0.0,108.40759,79.090576,-94.31213
1766901589597,-0.99853516,0.203125,-0.3647461,9.887695,78.73535,9.216309,0.0,0.0,0.0,125.58472,78.51929,-82.85889
1766901589685,-1.0961914,0.30517578,0.4086914,-67.32178,100.28076,-14.770508,0.0,0.0,0.0,125.58472,78.51929,-82.85889
1766901589701,-1.0961914,0.30517578,0.4086914,-67.32178,100.28076,-14.770508,0.0,0.0,0.0,150.46326,69.09851,-57.974854
1766901589785,-1.0273438,0.06982422,-0.30664062,-14.709473,-51.51367,-9.765625,0.0,0.0,0.0,150.46326,69.09851,-57.974854
1766901589796,-1.0273438,0.06982422,-0.30664062,-14.709473,-51.51367,-9.765625,0.0,0.0,0.0,150.0238,70.7959,-57.58484
1766901589885,-1.0395508,0.12597656,-0.36035156,-26.97754,4.1503906,-18.920898,0.0,0.0,0.0,150.0238,70.7959,-57.58484
1766901589896,-1.0395508,0.12597656,-0.36035156,-26.97754,4.1503906,-18.920898,0.0,0.0,0.0,144.68994,75.10803,-64.53369
1766901589984,-1.2504883,0.06640625,-0.13232422,62.62207,-112.24365,3.3569336,0.0,0.0,0.0,144.68994,75.10803,-64.53369
1766901589996,-1.2504883,0.06640625,-0.13232422,62.62207,-112.24365,3.3569336,0.0,0.0,0.0,150.0238,76.73401,-57.782593
1766901590084,-0.5908203,0.171875,-0.2319336,55.96924,-51.26953,36.499023,0.0,0.0,0.0,150.0238,76.73401,-57.782593
1766901590095,-0.5908203,0.171875,-0.2319336,55.96924,-51.26953,36.499023,0.0,0.0,0.0,122.283325,79.590454,-98.256226
1766901590184,-1.0273438,0.24902344,-0.48242188,36.071777,27.770996,11.901855,0.0,0.0,0.0,122.283325,79.590454,-98.256226
1766901590195,-1.0273438,0.24902344,-0.48242188,36.071777,27.770996,11.901855,0.0,0.0,0.0,111.80237,78.33801,-117.59216
1766901590283,-0.9638672,0.08691406,-0.11279297,-34.729004,155.82275,-53.710938,0.0,0.0,0.0,111.80237,78.33801,-117.59216
1766901590296,-0.9638672,0.08691406,-0.11279297,-34.729004,155.82275,-53.710938,0.0,0.0,0.0,147.12341,73.322754,-87.63245
1766901590383,-1.0507812,0.2006836,-0.24121094,45.288086,-21.66748,29.663086,0.0,0.0,0.0,147.12341,73.322754,-87.63245
1766901590395,-1.0507812,0.2006836,-0.24121094,45.288086,-21.66748,29.663086,0.0,0.0,0.0,155.6488,71.91101,-83.99048
1766901590483,-1.0170898,0.2705078,-0.25683594,22.460938,-3.540039,25.08545,0.0,0.0,0.0,155.6488,71.91101,-83.99048
1766901590495,-1.0170898,0.2705078,-0.25683594,22.460938,-3.540039,25.08545,0.0,0.0,0.0,149.80957,72.51526,-99.04175
1766901590583,-1.1264648,0.42529297,0.026855469,-48.095703,-15.991211,8.056641,0.0,0.0,0.0,149.80957,72.51526,-99.04175
1766901590594,-1.1264648,0.42529297,0.026855469,-48.095703,-15.991211,8.056641,0.0,0.0,0.0,142.49268,71.63086,-111.61011
1766901590682,-0.96875,0.15966797,-0.3203125,-29.60205,-73.12012,-11.901855,0.0,0.0,0.0,142.49268,71.63086,-111.61011
1766901590694,-0.96875,0.15966797,-0.3203125,-29.60205,-73.12012,-11.901855,0.0,0.0,0.0,122.84363,76.22864,-133.34656
1766901590782,-0.80029297,-0.22314453,-0.31884766,15.380859,-1.8310547,-20.874023,0.0,0.0,0.0,122.84363,76.22864,-133.34656
1766901590793,-0.80029297,-0.22314453,-0.31884766,15.380859,-1.8310547,-20.874023,0.0,0.0,0.0,107.13867,78.722534,-155.28076
1766901590882,-1.0307617,0.23730469,-0.37353516,22.705078,87.58545,20.263672,0.0,0.0,0.0,107.13867,78.722534,-155.28076
1766901590893,-1.0307617,0.23730469,-0.37353516,22.705078,87.58545,20.263672,0.0,0.0,0.0,127.37549,76.21765,-142.44324
1766901590982,-1.0444336,0.3256836,0.36767578,-40.527344,103.57666,-8.361816,0.0,0.0,0.0,127.37549,76.21765,-142.44324
1766901590993,-1.0444336,0.3256836,0.36767578,-40.527344,103.57666,-8.361816,0.0,0.0,0.0,148.24951,65.720215,-123.46985
1766901591081,-1.0371094,0.1538086,-0.28271484,-16.723633,-68.603516,-18.493652,0.0,0.0,0.0,148.24951,65.720215,-123.46985
1766901591092,-1.0371094,0.1538086,-0.28271484,-16.723633,-68.603516,-18.493652,0.0,0.0,0.0,145.98633,70.06531,-129.52881
1766901591181,-1.0664062,0.03173828,-0.3388672,-24.536133,21.42334,-27.526855,0.0,0.0,0.0,145.98633,70.06531,-129.52881
1766901591192,-1.0664062,0.03173828,-0.3388672,-24.536133,21.42334,-27.526855,0.0,0.0,0.0,144.45923,73.64136,-134.98901
1766901591281,-1.2490234,0.17773438,-0.051757812,58.34961,-90.33203,31.433105,0.0,0.0,0.0,144.45923,73.64136,-134.98901
1766901591292,-1.2490234,0.17773438,-0.051757812,58.34961,-90.33203,31.433105,0.0,0.0,0.0,144.06372,74.43237,-140.89966
1766901591380,-0.5839844,0.16210938,-0.23388672,32.226562,-78.430176,26.672363,0.0,0.0,0.0,144.06372,74.43237,-140.89966
1766901591392,-0.5839844,0.16210938,-0.23388672,32.226562,-78.430176,26.672363,0.0,0.0,0.0,112.80762,77.1405,175.50659
1766901591480,-0.9614258,0.20703125,-0.57421875,30.517578,14.160156,10.253906,0.0,0.0,0.0,112.80762,77.1405,175.50659
1766901591491,-0.9614258,0.20703125,-0.57421875,30.517578,14.160156,10.253906,0.0,0.0,0.0,98.21777,76.712036,152.72095
1766901591579,-1.0722656,0.08544922,-0.21435547,-55.29785,194.39697,-67.44385,0.0,0.0,0.0,98.21777,76.712036,152.72095
1766901591591,-1.0722656,0.08544922,-0.21435547,-55.29785,194.39697,-67.44385,0.0,0.0,0.0,144.61304,71.86157,-164.50928
1766901591680,-0.9868164,0.30029297,-0.18945312,97.77832,-44.73877,35.52246,0.0,0.0,0.0,144.61304,71.86157,-164.50928
1766901591691,-0.9868164,0.30029297,-0.18945312,97.77832,-44.73877,35.52246,0.0,0.0,0.0,151.12244,71.30676,-163.35022
1766901591779,-0.9897461,0.20361328,-0.32714844,17.51709,-20.385742,14.160156,0.0,0.0,0.0,151.12244,71.30676,-163.35022
1766901591794,-0.9897461,0.20361328,-0.32714844,17.51709,-20.385742,14.160156,0.0,0.0,0.0,138.95508,73.64136,174.6112
1766901591879,-1.0595703,0.41015625,-0.16210938,-39.67285,32.287598,-2.0141602,0.0,0.0,0.0,138.95508,73.64136,174.6112
1766901591894,-1.0595703,0.41015625,-0.16210938,-39.67285,32.287598,-2.0141602,0.0,0.0,0.0,140.26794,72.4823,171.35376
1766901591978,-1.0322266,0.20019531,-0.18261719,-27.160645,-70.739746,-7.6293945,0.0,0.0,0.0,140.26794,72.4823,171.35376
1766901591990,-1.0322266,0.20019531,-0.18261719,-27.160645,-70.739746,-7.6293945,0.0,0.0,0.0,130.51758,74.82239,160.16968
1766901592078,-0.75634766,-0.22753906,-0.27978516,43.823242,-50.354004,-19.53125,0.0,0.0,0.0,130.51758,74.82239,160.16968
1766901592090,-0.75634766,-0.22753906,-0.27978516,43.823242,-50.354004,-19.53125,0.0,0.0,0.0,109.37988,78.69507,131.59424
1766901592178,-1.0488281,0.30126953,-0.39111328,16.662598,87.28027,29.35791,0.0,0.0,0.0,109.37988,78.69507,131.59424
1766901592189,-1.0488281,0.30126953,-0.39111328,16.662598,87.28027,29.35791,0.0,0.0,0.0,116.4386,78.68408,143.45398
1766901592278,-0.9897461,0.21582031,0.078125,-36.071777,136.59668,-23.19336,0.0,0.0,0.0,116.4386,78.68408,143.45398
1766901592289,-0.9897461,0.21582031,0.078125,-36.071777,136.59668,-23.19336,0.0,0.0,0.0,149.11743,68.81287,176.2207
1766901592377,-1.0112305,0.18115234,-0.21386719,-6.8359375,-82.39746,-16.540527,0.0,0.0,0.0,149.11743,68.81287,176.2207
1766901592388,-1.0112305,0.18115234,-0.21386719,-6.8359375,-82.39746,-16.540527,0.0,0.0,0.0,150.21606,71.224365,173.0127
1766901592477,-1.0883789,-0.013183594,-0.3955078,-20.751953,-28.198242,-17.8833,0.0,0.0,0.0,150.21606,71.224365,173.0127
1766901592488,-1.0883789,-0.013183594,-0.3955078,-20.751953,-28.198242,-17.8833,0.0,0.0,0.0,136.69739,77.63489,153.46252
1766901592577,-1.1992188,0.056640625,-0.10107422,12.512207,26.489258,10.681152,0.0,0.0,0.0,136.69739,77.63489,153.46252
1766901592588,-1.1992188,0.056640625,-0.10107422,12.512207,26.489258,10.681152,0.0,0.0,0.0,146.34338,76.294556,157.65381
1766901592676,-0.64746094,0.31298828,-0.13085938,48.461914,-74.95117,50.78125,0.0,0.0,0.0,146.34338,76.294556,157.65381
1766901592689,-0.64746094,0.31298828,-0.13085938,48.461914,-74.95117,50.78125,0.0,0.0,0.0,132.22046,77.66785,132.2699
1766901592776,-0.98779297,0.20654297,-0.51171875,46.447754,-37.963867,6.1035156,0.0,0.0,0.0,132.22046,77.66785,132.2699
1766901592787,-0.98779297,0.20654297,-0.51171875,46.447754,-37.963867,6.1035156,0.0,0.0,0.0,98.948364,79.140015,90.406494
1766901592876,-0.94384766,0.028320312,-0.29003906,-43.395996,170.16602,-49.926758,0.0,0.0,0.0,98.948364,79.140015,90.406494
1766901592888,-0.94384766,0.028320312,-0.29003906,-43.395996,170.16602,-49.926758,0.0,0.0,0.0,140.3064,78.69507,136.65894
1766901592976,-1.1005859,0.1694336,0.19628906,42.96875,-31.677246,12.878418,0.0,0.0,0.0,140.3064,78.69507,136.65894
1766901592987,-1.1005859,0.1694336,0.19628906,42.96875,-31.677246,12.878418,0.0,0.0,0.0,165.09705,70.08728,164.98169
1766901593075,-1.0219727,0.091796875,-0.3076172,34.973145,-62.25586,20.935059,0.0,0.0,0.0,165.09705,70.08728,164.98169
1766901593087,-1.0219727,0.091796875,-0.3076172,34.973145,-62.25586,20.935059,0.0,0.0,0.0,155.92346,75.025635,144.21204
1766901593175,-1.0839844,0.4477539,-0.27148438,-22.460938,17.39502,18.127441,0.0,0.0,0.0,155.92346,75.025635,144.21204
1766901593186,-1.0839844,0.4477539,-0.27148438,-22.460938,17.39502,18.127441,0.0,0.0,0.0,146.50269,76.712036,137.1753
1766901593275,-0.9316406,0.20410156,-0.15039062,-28.747559,-33.75244,-14.892578,0.0,0.0,0.0,146.50269,76.712036,137.1753
1766901593286,-0.9316406,0.20410156,-0.15039062,-28.747559,-33.75244,-14.892578,0.0,0.0,0.0,144.82178,76.294556,146.54114
1766901593374,-0.8232422,-0.22851562,-0.2446289,23.55957,-27.893066,-20.385742,0.0,0.0,0.0,144.82178,76.294556,146.54114
1766901593385,-0.8232422,-0.22851562,-0.2446289,23.55957,-27.893066,-20.385742,0.0,0.0,0.0,138.64197,80.15076,147.88696
1766901593474,-1.0581055,0.2397461,-0.3720703,19.470215,38.45215,28.076172,0.0,0.0,0.0,138.64197,80.15076,147.88696
1766901593487,-1.0581055,0.2397461,-0.3720703,19.470215,38.45215,28.076172,0.0,0.0,0.0,137.0874,80.842896,149.61731
1766901593573,-0.9091797,0.14990234,-0.10058594,-30.639648,117.492676,-19.16504,0.0,0.0,0.0,137.0874,80.842896,149.61731
1766901593585,-0.9091797,0.14990234,-0.10058594,-30.639648,117.492676,-19.16504,0.0,0.0,0.0,158.23059,72.36145,179.15405
1766901593673,-1.0556641,0.14697266,-0.15527344,-1.5869141,-58.71582,-11.352539,0.0,0.0,0.0,158.23059,72.36145,179.15405
1766901593686,-1.0556641,0.14697266,-0.15527344,-1.5869141,-58.71582,-11.352539,0.0,0.0,0.0,161.71875,69.76868,-171.37573
1766901593773,-1.0444336,0.05419922,-0.34277344,-22.583008,-28.930664,-22.399902,0.0,0.0,0.0,161.71875,69.76868,-171.37573
1766901593788,-1.0444336,0.05419922,-0.34277344,-22.583008,-28.930664,-22.399902,0.0,0.0,0.0,156.41235,76.00891,-169.00818
1766901593872,-1.3041992,0.033691406,0.046875,17.578125,-58.10547,5.065918,0.0,0.0,0.0,156.41235,76.00891,-169.00818
1766901593885,-1.3041992,0.033691406,0.046875,17.578125,-58.10547,5.065918,0.0,0.0,0.0,158.43384,77.59094,-159.82361
1766901593972,-0.56640625,0.2446289,-0.19335938,41.44287,-60.180664,44.49463,0.0,0.0,0.0,158.43384,77.59094,-159.82361
1766901593987,-0.56640625,0.2446289,-0.19335938,41.44287,-60.180664,44.49463,0.0,0.0,0.0,128.13354,80.70557,168.9862
1766901594073,-0.94677734,0.068359375,-0.44873047,40.34424,11.047363,5.79834,0.0,0.0,0.0,128.13354,80.70557,168.9862
1766901594084,-0.94677734,0.068359375,-0.44873047,40.34424,11.047363,5.79834,0.0,0.0,0.0,111.99463,81.156006,154.94568
1766901594172,-1.0219727,0.084472656,-0.12548828,-42.48047,168.51807,-53.833008,0.0,0.0,0.0,111.99463,81.156006,154.94568
1766901594183,-1.0219727,0.084472656,-0.12548828,-42.48047,168.51807,-53.833008,0.0,0.0,0.0,162.14722,75.74524,-150.01282
1766901594272,-1.0239258,0.24072266,-0.1953125,65.61279,-36.8042,43.33496,0.0,0.0,0.0,162.14722,75.74524,-150.01282
1766901594283,-1.0239258,0.24072266,-0.1953125,65.61279,-36.8042,43.33496,0.0,0.0,0.0,166.71204,72.66907,-140.82825
1766901594371,-1.0009766,0.25634766,-0.29882812,15.441895,-7.507324,21.1792,0.0,0.0,0.0,166.71204,72.66907,-140.82825
1766901594382,-1.0009766,0.25634766,-0.29882812,15.441895,-7.507324,21.1792,0.0,0.0,0.0,152.63855,74.68506,-155.58289
1766901594471,-1.1865234,0.25,0.041992188,-48.706055,11.962891,-10.620117,0.0,0.0,0.0,152.63855,74.68506,-155.58289
1766901594482,-1.1865234,0.25,0.041992188,-48.706055,11.962891,-10.620117,0.0,0.0,0.0,151.35315,73.361206,-152.70996
1766901594571,-0.8496094,0.114746094,-0.28759766,-12.451172,-66.28418,2.2583008,0.0,0.0,0.0,151.35315,73.361206,-152.70996
1766901594582,-0.8496094,0.114746094,-0.28759766,-12.451172,-66.28418,2.2583008,0.0,0.0,0.0,135.91187,77.645874,-163.0426
1766901594670,-0.84277344,-0.15771484,-0.34375,12.756348,-1.953125,-17.39502,0.0,0.0,0.0,135.91187,77.645874,-163.0426
1766901594682,-0.84277344,-0.15771484,-0.34375,12.756348,-1.953125,-17.39502,0.0,0.0,0.0,124.151,80.21118,-176.24268
1766901594770,-0.96435547,0.3466797,-0.28808594,6.225586,113.342285,25.390625,0.0,0.0,0.0,124.151,80.21118,-176.24268
1766901594781,-0.96435547,0.3466797,-0.28808594,6.225586,113.342285,25.390625,0.0,0.0,0.0,147.06848,75.6189,-155.85754
1766901594870,-1.1606445,0.20214844,0.2866211,-21.30127,29.60205,0.0,0.0,0.0,0.0,147.06848,75.6189,-155.85754
1766901594881,-1.1606445,0.20214844,0.2866211,-21.30127,29.60205,0.0,0.0,0.0,0.0,157.9834,65.17639,-141.15784
1766901594969,-0.9790039,0.119628906,-0.3178711,0.48828125,-92.77344,-11.657715,0.0,0.0,0.0,157.9834,65.17639,-141.15784
1766901594981,-0.9790039,0.119628906,-0.3178711,0.48828125,-92.77344,-11.657715,0.0,0.0,0.0,152.94617,70.252075,-144.09668
1766901595069,-1.0268555,0.122558594,-0.3696289,-14.709473,-9.94873,-10.131836,0.0,0.0,0.0,152.94617,70.252075,-144.09668
1766901595081,-1.0268555,0.122558594,-0.3696289,-14.709473,-9.94873,-10.131836,0.0,0.0,0.0,143.26172,75.305786,-153.73169
1766901595169,-1.2832031,0.049804688,0.265625,-8.728027,1.4648438,3.8452148,0.0,0.0,0.0,143.26172,75.305786,-153.73169
1766901595180,-1.2832031,0.049804688,0.265625,-8.728027,1.4648438,3.8452148,0.0,0.0,0.0,151.80908,72.99866,-143.71765
1766901595268,-0.6645508,0.22802734,-0.19140625,23.80371,-68.29834,43.823242,0.0,0.0,0.0,151.80908,72.99866,-143.71765
1766901595280,-0.6645508,0.22802734,-0.19140625,23.80371,-68.29834,43.823242,0.0,0.0,0.0,133.76953,75.83313,-167.59094
1766901595369,-1.0478516,0.19433594,-0.5678711,38.757324,-11.047363,20.935059,0.0,0.0,0.0,133.76953,75.83313,-167.59094
1766901595380,-1.0478516,0.19433594,-0.5678711,38.757324,-11.047363,20.935059,0.0,0.0,0.0,115.565186,78.079834,170.23865
1766901595469,-0.9790039,0.057128906,-0.19873047,-39.55078,158.75244,-59.265137,0.0,0.0,0.0,115.565186,78.079834,170.23865
1766901595479,-0.9790039,0.057128906,-0.19873047,-39.55078,158.75244,-59.265137,0.0,0.0,0.0,151.19385,71.9989,-155.05005
1766901595568,-1.0092773,0.3461914,-0.17480469,75.31738,-38.879395,30.639648,0.0,0.0,0.0,151.19385,71.9989,-155.05005
1766901595579,-1.0092773,0.3461914,-0.17480469,75.31738,-38.879395,30.639648,0.0,0.0,0.0,154.1217,71.78467,-151.92444
1766901595667,-1.0351562,0.2734375,-0.28955078,13.000488,-35.705566,17.456055,0.0,0.0,0.0,154.1217,71.78467,-151.92444
1766901595679,-1.0351562,0.2734375,-0.28955078,13.000488,-35.705566,17.456055,0.0,0.0,0.0,139.39453,74.399414,-170.22217
1766901595767,-1.1040039,0.4326172,-0.13964844,-51.879883,-23.254395,10.009766,0.0,0.0,0.0,139.39453,74.399414,-170.22217
1766901595779,-1.1040039,0.4326172,-0.13964844,-51.879883,-23.254395,10.009766,0.0,0.0,0.0,127.562256,73.83911,178.58826
1766901595867,-0.6586914,-0.119140625,-0.13427734,-8.911133,-28.442383,-28.930664,0.0,0.0,0.0,127.562256,73.83911,178.58826
1766901595878,-0.6586914,-0.119140625,-0.13427734,-8.911133,-28.442383,-28.930664,0.0,0.0,0.0,116.18591,76.12976,167.59644
1766901595967,-0.9716797,0.06347656,-0.37548828,5.065918,-5.3100586,5.1879883,0.0,0.0,0.0,116.18591,76.12976,167.59644
1766901595978,-0.9716797,0.06347656,-0.37548828,5.065918,-5.3100586,5.1879883,0.0,0.0,0.0,113.4613,77.92053,159.1864
1766901596066,-0.91308594,0.23339844,-0.20507812,-39.367676,122.25342,-18.859863,0.0,0.0,0.0,113.4613,77.92053,159.1864
1766901596077,-0.91308594,0.23339844,-0.20507812,-39.367676,122.25342,-18.859863,0.0,0.0,0.0,136.56006,72.86133,-179.55505
1766901596166,-1.0146484,0.17041016,0.15576172,-19.77539,20.141602,-13.671875,0.0,0.0,0.0,136.56006,72.86133,-179.55505
1766901596177,-1.0146484,0.17041016,0.15576172,-19.77539,20.141602,-13.671875,0.0,0.0,0.0,152.66052,66.47278,-159.71924
1766901596265,-1.0742188,0.12548828,-0.30566406,-17.944336,-58.166504,-13.122559,0.0,0.0,0.0,152.66052,66.47278,-159.71924
1766901596277,-1.0742188,0.12548828,-0.30566406,-17.944336,-58.166504,-13.122559,0.0,0.0,0.0,148.5022,72.01538,-163.03711
1766901596366,-1.1860352,0.099609375,-0.2475586,-2.6245117,13.427734,-4.638672,0.0,0.0,0.0,148.5022,72.01538,-163.03711
1766901596377,-1.1860352,0.099609375,-0.2475586,-2.6245117,13.427734,-4.638672,0.0,0.0,0.0,148.04626,73.83911,-164.8114
1766901596465,-0.87109375,0.15332031,-0.13476562,51.26953,-46.14258,29.907227,0.0,0.0,0.0,148.04626,73.83911,-164.8114
1766901596476,-0.87109375,0.15332031,-0.13476562,51.26953,-46.14258,29.907227,0.0,0.0,0.0,139.97131,74.96521,-179.60449
1766901596565,-0.83984375,0.34228516,-0.39697266,-8.300781,-74.21875,-10.009766,0.0,0.0,0.0,139.97131,74.96521,-179.60449
1766901596576,-0.83984375,0.34228516,-0.39697266,-8.300781,-74.21875,-10.009766,0.0,0.0,0.0,116.553955,77.211914,150.81482
1766901596665,-0.9316406,-0.03564453,-0.35351562,-3.7841797,85.02197,-30.395508,0.0,0.0,0.0,116.553955,77.211914,150.81482
1766901596676,-0.9316406,-0.03564453,-0.35351562,-3.7841797,85.02197,-30.395508,0.0,0.0,0.0,119.56421,76.61316,147.82654
1766901596764,-1.2543945,0.3100586,0.7246094,-42.419434,66.467285,-2.9296875,0.0,0.0,0.0,119.56421,76.61316,147.82654
1766901596775,-1.2543945,0.3100586,0.7246094,-42.419434,66.467285,-2.9296875,0.0,0.0,0.0,156.50024,68.186646,-172.69958
1766901596864,-0.97753906,0.14550781,-0.24072266,40.71045,-71.5332,35.339355,0.0,0.0,0.0,156.50024,68.186646,-172.69958
1766901596875,-0.97753906,0.14550781,-0.24072266,40.71045,-71.5332,35.339355,0.0,0.0,0.0,146.87622,71.80664,172.54028
1766901596963,-1.0063477,0.3935547,-0.3408203,-9.58252,-7.9345703,0.061035156,0.0,0.0,0.0,146.87622,71.80664,172.54028
1766901596975,-1.0063477,0.3935547,-0.3408203,-9.58252,-7.9345703,0.061035156,0.0,0.0,0.0,133.8794,74.32251,153.57239
1766901597063,-1.1513672,0.1743164,-0.057617188,-57.06787,6.8969727,-15.74707,0.0,0.0,0.0,133.8794,74.32251,153.57239
1766901597075,-1.1513672,0.1743164,-0.057617188,-57.06787,6.8969727,-15.74707,0.0,0.0,0.0,132.94556,73.19641,154.18762
1766901597163,-0.65185547,-0.14697266,-0.18847656,20.141602,-45.532227,-11.413574,0.0,0.0,0.0,132.94556,73.19641,154.18762
1766901597175,-0.65185547,-0.14697266,-0.18847656,20.141602,-45.532227,-11.413574,0.0,0.0,0.0,125.562744,76.27258,144.31091
1766901597262,-1.1279297,0.25927734,-0.47509766,33.935547,29.846191,19.77539,0.0,0.0,0.0,125.562744,76.27258,144.31091
1766901597275,-1.1279297,0.25927734,-0.47509766,33.935547,29.846191,19.77539,0.0,0.0,0.0,123.95325,77.48657,134.37927
1766901597362,-0.84765625,0.25,-0.14111328,-29.541016,117.43164,-1.5258789,0.0,0.0,0.0,123.95325,77.48657,134.37927
1766901597374,-0.84765625,0.25,-0.14111328,-29.541016,117.43164,-1.5258789,0.0,0.0,0.0,144.50867,70.076294,151.94641
1766901597462,-1.059082,0.06982422,-0.036621094,-5.79834,-26.062012,-18.798828,0.0,0.0,0.0,144.50867,70.076294,151.94641
1766901597473,-1.059082,0.06982422,-0.036621094,-5.79834,-26.062012,-18.798828,0.0,0.0,0.0,152.78137,65.961914,161.76819
1766901597562,-1.1152344,0.096191406,-0.33447266,-13.73291,-35.827637,-12.023926,0.0,0.0,0.0,152.78137,65.961914,161.76819
1766901597573,-1.1152344,0.096191406,-0.33447266,-13.73291,-35.827637,-12.023926,0.0,0.0,0.0,149.34814,71.50452,157.00012
1766901597661,-1.1821289,0.20458984,-0.16894531,0.9765625,-15.563965,11.59668,0.0,0.0,0.0,149.34814,71.50452,157.00012
1766901597673,-1.1821289,0.20458984,-0.16894531,0.9765625,-15.563965,11.59668,0.0,0.0,0.0,147.0575,72.943726,152.02332
1766901597762,-0.64404297,0.18017578,-0.13183594,37.65869,-82.458496,31.00586,0.0,0.0,0.0,147.0575,72.943726,152.02332
1766901597772,-0.64404297,0.18017578,-0.13183594,37.65869,-82.458496,31.00586,0.0,0.0,0.0,131.00647,75.26184,128.95203
1766901597862,-0.9580078,0.32128906,-0.53515625,26.733398,-35.217285,2.6245117,0.0,0.0,0.0,131.00647,75.26184,128.95203
1766901597872,-0.9580078,0.32128906,-0.53515625,26.733398,-35.217285,2.6245117,0.0,0.0,0.0,102.700195,77.37671,93.81775
1766901597961,-0.94091797,0.045410156,-0.2919922,-56.33545,159.24072,-51.51367,0.0,0.0,0.0,102.700195,77.37671,93.81775
1766901597972,-0.94091797,0.045410156,-0.2919922,-56.33545,159.24072,-51.51367,0.0,0.0,0.0,130.35278,75.201416,116.85608
1766901598060,-1.2285156,0.15576172,0.4736328,10.009766,-13.61084,10.7421875,0.0,0.0,0.0,130.35278,75.201416,116.85608
1766901598072,-1.2285156,0.15576172,0.4736328,10.009766,-13.61084,10.7421875,0.0,0.0,0.0,156.41785,66.4563,144.65149
1766901598160,-0.9941406,0.18017578,-0.30273438,41.870117,-88.37891,29.35791,0.0,0.0,0.0,156.41785,66.4563,144.65149
1766901598171,-0.9941406,0.18017578,-0.30273438,41.870117,-88.37891,29.35791,0.0,0.0,0.0,144.67346,72.06482,126.71631
1766901598260,-1.0991211,0.43164062,-0.36767578,-37.902832,-1.2817383,7.2021484,0.0,0.0,0.0,144.67346,72.06482,126.71631
1766901598271,-1.0991211,0.43164062,-0.36767578,-37.902832,-1.2817383,7.2021484,0.0,0.0,0.0,129.02344,75.009155,105.721436
1766901598360,-0.8442383,0.063964844,-0.1616211,-52.79541,27.70996,-34.484863,0.0,0.0,0.0,129.02344,75.009155,105.721436
1766901598371,-0.8442383,0.063964844,-0.1616211,-52.79541,27.70996,-34.484863,0.0,0.0,0.0,130.44617,74.729004,107.83081
1766901598460,-0.94189453,-0.1303711,-0.22314453,21.118164,-9.58252,-1.7700195,0.0,0.0,0.0,130.44617,74.729004,107.83081
1766901598471,-0.94189453,-0.1303711,-0.22314453,21.118164,-9.58252,-1.7700195,0.0,0.0,0.0,139.23523,75.22339,113.10974
1766901598559,-0.88427734,0.32617188,-0.2788086,8.728027,30.212402,40.58838,0.0,0.0,0.0,139.23523,75.22339,113.10974
1766901598571,-0.88427734,0.32617188,-0.2788086,8.728027,30.212402,40.58838,0.0,0.0,0.0,136.46118,73.63037,101.66199
1766901598659,-0.93847656,0.06201172,-0.19482422,-24.841309,60.424805,-20.935059,0.0,0.0,0.0,136.46118,73.63037,101.66199
1766901598670,-0.93847656,0.06201172,-0.19482422,-24.841309,60.424805,-20.935059,0.0,0.0,0.0,145.27771,69.55994,107.93518
1766901598758,-1.1210938,0.076171875,-0.140625,-13.977051,-8.972168,-13.122559,0.0,0.0,0.0,145.27771,69.55994,107.93518
1766901598770,-1.1210938,0.076171875,-0.140625,-13.977051,-8.972168,-13.122559,0.0,0.0,0.0,153.06152,67.85156,115.614624
1766901598858,-1.0698242,0.12939453,-0.23779297,-0.5493164,-26.489258,-6.164551,0.0,0.0,0.0,153.06152,67.85156,115.614624
1766901598869,-1.0698242,0.12939453,-0.23779297,-0.5493164,-26.489258,-6.164551,0.0,0.0,0.0,151.7981,71.14746,111.763916
1766901598958,-1.1401367,0.07080078,-0.21435547,35.27832,-57.739258,16.967773,0.0,0.0,0.0,151.7981,71.14746,111.763916
1766901598969,-1.1401367,0.07080078,-0.21435547,35.27832,-57.739258,16.967773,0.0,0.0,0.0,145.29419,74.23462,101.607056
1766901599057,-0.6489258,0.23632812,-0.22949219,9.643555,-69.64111,19.16504,0.0,0.0,0.0,145.29419,74.23462,101.607056
1766901599069,-0.6489258,0.23632812,-0.22949219,9.643555,-69.64111,19.16504,0.0,0.0,0.0,127.023926,77.43713,75.95947
1766901599157,-0.99853516,0.008300781,-0.48779297,33.63037,25.634766,7.385254,0.0,0.0,0.0,127.023926,77.43713,75.95947
1766901599170,-0.99853516,0.008300781,-0.48779297,33.63037,25.634766,7.385254,0.0,0.0,0.0,109.89075,78.12378,53.041992
1766901599257,-0.9482422,0.020996094,-0.18457031,-43.33496,177.49023,-63.90381,0.0,0.0,0.0,109.89075,78.12378,53.041992
1766901599268,-0.9482422,0.020996094,-0.18457031,-43.33496,177.49023,-63.90381,0.0,0.0,0.0,152.79785,72.405396,94.954834
1766901599356,-1.0458984,0.19335938,-0.021484375,62.25586,-49.865723,20.629883,0.0,0.0,0.0,152.79785,72.405396,94.954834
1766901599368,-1.0458984,0.19335938,-0.021484375,62.25586,-49.865723,20.629883,0.0,0.0,0.0,160.09277,68.90625,100.909424
1766901599456,-1.0683594,0.22851562,-0.34570312,25.756836,-58.59375,31.49414,0.0,0.0,0.0,160.09277,68.90625,100.909424
1766901599468,-1.0683594,0.22851562,-0.34570312,25.756836,-58.59375,31.49414,0.0,0.0,0.0,144.53613,74.14673,77.733765
1766901599556,-1.0883789,0.25390625,-0.20703125,-42.96875,18.920898,-3.540039,0.0,0.0,0.0,144.53613,74.14673,77.733765
1766901599568,-1.0883789,0.25390625,-0.20703125,-42.96875,18.920898,-3.540039,0.0,0.0,0.0,136.78528,74.053345,66.47278
1766901599655,-0.80810547,0.100097656,-0.1430664,-11.84082,-22.949219,-8.422852,0.0,0.0,0.0,136.78528,74.053345,66.47278
1766901599667,-0.80810547,0.100097656,-0.1430664,-11.84082,-22.949219,-8.422852,0.0,0.0,0.0,135.03845,75.23987,64.11621
1766901599755,-0.9067383,-0.16992188,-0.32714844,43.70117,-19.89746,-4.638672,0.0,0.0,0.0,135.03845,75.23987,64.11621
1766901599767,-0.9067383,-0.16992188,-0.32714844,43.70117,-19.89746,-4.638672,0.0,0.0,0.0,132.72034,77.35474,53.602295
1766901599855,-0.93896484,0.23242188,-0.359375,9.521484,81.4209,5.9814453,0.0,0.0,0.0,132.72034,77.35474,53.602295
1766901599866,-0.93896484,0.23242188,-0.359375,9.521484,81.4209,5.9814453,0.0,0.0,0.0,139.83948,73.03711,51.948853
1766901599955,-1.0708008,0.1328125,0.21777344,-67.81006,99.18213,-47.546387,0.0,0.0,0.0,139.83948,73.03711,51.948853
1766901599966,-1.0708008,0.1328125,0.21777344,-67.81006,99.18213,-47.546387,0.0,0.0,0.0,159.35669,64.69299,74.19617
1766901600055,-1.1000977,0.028808594,-0.31933594,-22.399902,-75.50049,-23.19336,0.0,0.0,0.0,159.35669,64.69299,74.19617
1766901600069,-1.1000977,0.028808594,-0.31933594,-22.399902,-75.50049,-23.19336,0.0,0.0,0.0,160.52124,70.460815,75.596924
1766901600156,-1.0883789,-0.072265625,-0.30273438,-29.785156,11.59668,-20.507812,0.0,0.0,0.0,160.52124,70.460815,75.596924
1766901600165,-1.0883789,-0.072265625,-0.30273438,-29.785156,11.59668,-20.507812,0.0,0.0,0.0,161.48804,74.20715,74.58618
1766901600254,-1.0639648,0.033203125,-0.15527344,85.876465,-75.43945,45.410156,0.0,0.0,0.0,161.48804,74.20715,74.58618
1766901600265,-1.0639648,0.033203125,-0.15527344,85.876465,-75.43945,45.410156,0.0,0.0,0.0,157.27478,76.48682,63.62732
1766901600353,-0.64404297,0.22314453,-0.3408203,31.61621,-76.59912,42.72461,0.0,0.0,0.0,157.27478,76.48682,63.62732
1766901600365,-0.64404297,0.22314453,-0.3408203,31.61621,-76.59912,42.72461,0.0,0.0,0.0,116.466064,79.678345,10.343628
1766901600453,-1.050293,-0.060546875,-0.4975586,29.296875,69.45801,-14.526367,0.0,0.0,0.0,116.466064,79.678345,10.343628
1766901600465,-1.050293,-0.060546875,-0.4975586,29.296875,69.45801,-14.526367,0.0,0.0,0.0,115.09827,79.052124,1.4776611
1766901600553,-1.1235352,0.2368164,0.26123047,-44.921875,156.55518,-26.245117,0.0,0.0,0.0,115.09827,79.052124,1.4776611
1766901600564,-1.1235352,0.2368164,0.26123047,-44.921875,156.55518,-26.245117,0.0,0.0,0.0,162.45483,68.219604,49.48242
1766901600653,-0.99902344,0.17480469,-0.25683594,46.203613,-79.28467,41.259766,0.0,0.0,0.0,162.45483,68.219604,49.48242
1766901600668,-0.99902344,0.17480469,-0.25683594,46.203613,-79.28467,41.259766,0.0,0.0,0.0,157.27478,71.4386,38.633423
1766901600752,-1.0351562,0.24853516,-0.36328125,8.911133,-10.986328,11.291504,0.0,0.0,0.0,157.27478,71.4386,38.633423
1766901600768,-1.0351562,0.24853516,-0.36328125,8.911133,-10.986328,11.291504,0.0,0.0,0.0,144.17358,74.888306,16.45752
1766901600852,-1.15625,0.23046875,-0.15283203,-52.124023,24.414062,-10.375977,0.0,0.0,0.0,144.17358,74.888306,16.45752
1766901600864,-1.15625,0.23046875,-0.15283203,-52.124023,24.414062,-10.375977,0.0,0.0,0.0,146.66199,73.02063,16.660767
1766901600952,-0.72558594,-0.001953125,-0.16259766,2.1362305,-58.22754,10.437012,0.0,0.0,0.0,146.66199,73.02063,16.660767
1766901600963,-0.72558594,-0.001953125,-0.16259766,2.1362305,-58.22754,10.437012,0.0,0.0,0.0,139.16931,75.38269,6.893921
1766901601052,-0.92626953,-0.064453125,-0.4091797,34.301758,-23.31543,-1.159668,0.0,0.0,0.0,139.16931,75.38269,6.893921
1766901601063,-0.92626953,-0.064453125,-0.4091797,34.301758,-23.31543,-1.159668,0.0,0.0,0.0,126.52954,78.4259,-15.183105
1766901601151,-0.9057617,0.27734375,-0.27539062,-20.935059,102.66113,-10.253906,0.0,0.0,0.0,126.52954,78.4259,-15.183105
1766901601163,-0.9057617,0.27734375,-0.27539062,-20.935059,102.66113,-10.253906,0.0,0.0,0.0,139.88892,73.22937,-8.8220215
1766901601251,-1.0463867,0.08496094,-0.009277344,-44.189453,75.8667,-27.954102,0.0,0.0,0.0,139.88892,73.22937,-8.8220215
1766901601262,-1.0463867,0.08496094,-0.009277344,-44.189453,75.8667,-27.954102,0.0,0.0,0.0,155.68176,65.57739,8.069458
1766901601351,-1.1235352,0.07373047,-0.28173828,-12.939453,-84.41162,-15.380859,0.0,0.0,0.0,155.68176,65.57739,8.069458
1766901601362,-1.1235352,0.07373047,-0.28173828,-12.939453,-84.41162,-15.380859,0.0,0.0,0.0,155.01709,70.25757,6.201782
1766901601450,-1.0620117,0.055664062,-0.23144531,-25.756836,1.5258789,-9.58252,0.0,0.0,0.0,155.01709,70.25757,6.201782
1766901601462,-1.0620117,0.055664062,-0.23144531,-25.756836,1.5258789,-9.58252,0.0,0.0,0.0,149.34814,74.85535,-2.7026367
1766901601550,-0.8696289,0.032226562,-0.20458984,69.33594,-62.316895,47.729492,0.0,0.0,0.0,149.34814,74.85535,-2.7026367
1766901601562,-0.8696289,0.032226562,-0.20458984,69.33594,-62.316895,47.729492,0.0,0.0,0.0,137.54883,77.02515,-21.972656
1766901601650,-0.8588867,0.3095703,-0.41601562,2.1972656,-43.70117,-16.967773,0.0,0.0,0.0,137.54883,77.02515,-21.972656
1766901601662,-0.8588867,0.3095703,-0.41601562,2.1972656,-43.70117,-16.967773,0.0,0.0,0.0,112.17041,77.23938,-58.743896
1766901601749,-0.9741211,-0.0087890625,-0.36914062,-2.9296875,98.81592,-28.747559,0.0,0.0,0.0,112.17041,77.23938,-58.743896
1766901601761,-0.9741211,-0.0087890625,-0.36914062,-2.9296875,98.81592,-28.747559,0.0,0.0,0.0,121.8988,76.0199,-55.92041
1766901601849,-1.230957,0.114746094,0.6640625,-40.405273,16.601562,-15.808105,0.0,0.0,0.0,121.8988,76.0199,-55.92041
1766901601861,-1.230957,0.114746094,0.6640625,-40.405273,16.601562,-15.808105,0.0,0.0,0.0,155.91248,68.03284,-21.066284
1766901601949,-0.9399414,0.16503906,-0.27539062,39.55078,-52.734375,35.40039,0.0,0.0,0.0,155.91248,68.03284,-21.066284
1766901601960,-0.9399414,0.16503906,-0.27539062,39.55078,-52.734375,35.40039,0.0,0.0,0.0,149.87,71.5155,-35.79895
1766901602048,-1.0893555,0.32226562,-0.28759766,-12.390137,4.8217773,5.065918,0.0,0.0,0.0,149.87,71.5155,-35.79895
1766901602060,-1.0893555,0.32226562,-0.28759766,-12.390137,4.8217773,5.065918,0.0,0.0,0.0,143.20679,72.47681,-49.99878
1766901602148,-1.109375,0.2368164,-0.09667969,-16.235352,-70.739746,0.0,0.0,0.0,0.0,143.20679,72.47681,-49.99878
1766901602159,-1.109375,0.2368164,-0.09667969,-16.235352,-70.739746,0.0,0.0,0.0,0.0,137.38953,73.19092,-57.348633
1766901602248,-0.68310547,-0.04736328,-0.3203125,7.446289,-46.020508,7.2631836,0.0,0.0,0.0,137.38953,73.19092,-57.348633
1766901602259,-0.68310547,-0.04736328,-0.3203125,7.446289,-46.020508,7.2631836,0.0,0.0,0.0,112.56592,76.91528,-86.91284
1766901602348,-0.9301758,-0.011230469,-0.40966797,14.099121,55.05371,-11.169434,0.0,0.0,0.0,112.56592,76.91528,-86.91284
1766901602359,-0.9301758,-0.011230469,-0.40966797,14.099121,55.05371,-11.169434,0.0,0.0,0.0,118.811646,76.882324,-89.434204
1766901602447,-0.93652344,0.375,-0.18945312,-30.273438,134.21631,-9.277344,0.0,0.0,0.0,118.811646,76.882324,-89.434204
1766901602461,-0.93652344,0.375,-0.18945312,-30.273438,134.21631,-9.277344,0.0,0.0,0.0,141.93787,68.73596,-72.94922
1766901602547,-0.99609375,0.049804688,-0.09082031,-13.061523,-20.080566,-30.761719,0.0,0.0,0.0,141.93787,68.73596,-72.94922
1766901602558,-0.99609375,0.049804688,-0.09082031,-13.061523,-20.080566,-30.761719,0.0,0.0,0.0,151.5564,63.48999,-63.566895
1766901602647,-1.0869141,0.06738281,-0.3720703,-17.333984,-33.447266,-12.451172,0.0,0.0,0.0,151.5564,63.48999,-63.566895
1766901602661,-1.0869141,0.06738281,-0.3720703,-17.333984,-33.447266,-12.451172,0.0,0.0,0.0,150.05676,69.81262,-68.24158
1766901602746,-1.1708984,0.076171875,-0.15820312,-7.1411133,20.080566,-4.1503906,0.0,0.0,0.0,150.05676,69.81262,-68.24158
1766901602761,-1.1708984,0.076171875,-0.15820312,-7.1411133,20.080566,-4.1503906,0.0,0.0,0.0,152.46826,70.493774,-70.114746
1766901602846,-0.9477539,0.092285156,-0.26611328,52.67334,-77.88086,41.992188,0.0,0.0,0.0,152.46826,70.493774,-70.114746
1766901602857,-0.9477539,0.092285156,-0.26611328,52.67334,-77.88086,41.992188,0.0,0.0,0.0,144.11865,73.45459,-88.28064
1766901602946,-0.71191406,0.3046875,-0.39648438,-4.8217773,-48.88916,-4.5166016,0.0,0.0,0.0,144.11865,73.45459,-88.28064
1766901602957,-0.71191406,0.3046875,-0.39648438,-4.8217773,-48.88916,-4.5166016,0.0,0.0,0.0,123.898315,75.99243,-118.43262
1766901603046,-1.0322266,-0.0068359375,-0.4921875,15.441895,87.21924,-19.77539,0.0,0.0,0.0,123.898315,75.99243,-118.43262
1766901603057,-1.0322266,-0.0068359375,-0.4921875,15.441895,87.21924,-19.77539,0.0,0.0,0.0,122.72827,75.38269,-127.83142
1766901603145,-1.2294922,0.2602539,0.4404297,-61.340332,143.00537,-41.625977,0.0,0.0,0.0,122.72827,75.38269,-127.83142
1766901603156,-1.2294922,0.2602539,0.4404297,-61.340332,143.00537,-41.625977,0.0,0.0,0.0,158.09875,65.74219,-93.532104
1766901603245,-1.0048828,0.13769531,-0.28027344,29.11377,-79.10156,36.071777,0.0,0.0,0.0,158.09875,65.74219,-93.532104
1766901603256,-1.0048828,0.13769531,-0.28027344,29.11377,-79.10156,36.071777,0.0,0.0,0.0,157.80212,67.857056,-99.277954
1766901603345,-1.1157227,0.32763672,-0.38085938,-2.0141602,-9.887695,9.643555,0.0,0.0,0.0,157.80212,67.857056,-99.277954
1766901603356,-1.1157227,0.32763672,-0.38085938,-2.0141602,-9.887695,9.643555,0.0,0.0,0.0,147.63977,72.10327,-118.619385
1766901603444,-1.1362305,0.33496094,-0.18359375,-49.072266,10.864258,-0.7324219,0.0,0.0,0.0,147.63977,72.10327,-118.619385
1766901603456,-1.1362305,0.33496094,-0.18359375,-49.072266,10.864258,-0.7324219,0.0,0.0,0.0,145.6073,71.13098,-123.57422
1766901603544,-0.72802734,0.029296875,-0.1928711,-5.3100586,-61.645508,1.7089844,0.0,0.0,0.0,145.6073,71.13098,-123.57422
1766901603555,-0.72802734,0.029296875,-0.1928711,-5.3100586,-61.645508,1.7089844,0.0,0.0,0.0,134.70886,74.64111,-137.63672
1766901603644,-0.88623047,-0.12597656,-0.38671875,25.32959,-31.61621,-8.483887,0.0,0.0,0.0,134.70886,74.64111,-137.63672
1766901603655,-0.88623047,-0.12597656,-0.38671875,25.32959,-31.61621,-8.483887,0.0,0.0,0.0,122.95349,77.492065,-158.7799
1766901603743,-0.9345703,0.38964844,-0.31396484,-13.61084,109.069824,-25.634766,0.0,0.0,0.0,122.95349,77.492065,-158.7799
1766901603755,-0.9345703,0.38964844,-0.31396484,-13.61084,109.069824,-25.634766,0.0,0.0,0.0,137.20276,72.31201,-151.78711
1766901603843,-1.0107422,0.11816406,-0.080566406,-41.259766,79.89502,-37.719727,0.0,0.0,0.0,137.20276,72.31201,-151.78711
1766901603854,-1.0107422,0.11816406,-0.080566406,-41.259766,79.89502,-37.719727,0.0,0.0,0.0,154.56116,64.42932,-133.41797
1766901603943,-1.0859375,0.07714844,-0.20800781,-7.8125,-69.39697,-16.052246,0.0,0.0,0.0,154.56116,64.42932,-133.41797
1766901603954,-1.0859375,0.07714844,-0.20800781,-7.8125,-69.39697,-16.052246,0.0,0.0,0.0,156.30249,67.81311,-134.13208
1766901604042,-1.0317383,0.028320312,-0.30371094,0.8544922,-26.428223,5.6152344,0.0,0.0,0.0,156.30249,67.81311,-134.13208
1766901604054,-1.0317383,0.028320312,-0.30371094,0.8544922,-26.428223,5.6152344,0.0,0.0,0.0,150.80933,73.01514,-145.35461
1766901604142,-1.0454102,0.0107421875,-0.20751953,34.240723,-7.2631836,22.094727,0.0,0.0,0.0,150.80933,73.01514,-145.35461
1766901604153,-1.0454102,0.0107421875,-0.20751953,34.240723,-7.2631836,22.094727,0.0,0.0,0.0,147.96936,73.08655,-156.32446
1766901604242,-0.6801758,0.21240234,-0.2084961,-9.338379,-37.231445,24.108887,0.0,0.0,0.0,147.96936,73.08655,-156.32446
1766901604253,-0.6801758,0.21240234,-0.2084961,-9.338379,-37.231445,24.108887,0.0,0.0,0.0,137.99927,73.394165,-174.42993
1766901604341,-1.0361328,-0.03515625,-0.47607422,16.296387,12.6953125,-18.798828,0.0,0.0,0.0,137.99927,73.394165,-174.42993
1766901604353,-1.0361328,-0.03515625,-0.47607422,16.296387,12.6953125,-18.798828,0.0,0.0,0.0,135.44495,75.88257,175.9845
1766901604443,-0.95166016,0.13964844,-0.17089844,-20.080566,101.379395,-24.291992,0.0,0.0,0.0,135.44495,75.88257,175.9845
1766901604453,-0.95166016,0.13964844,-0.17089844,-20.080566,101.379395,-24.291992,0.0,0.0,0.0,158.20312,69.384155,-163.47107
1766901604541,-1.0180664,0.22753906,-0.046875,49.865723,-34.118652,33.38623,0.0,0.0,0.0,158.20312,69.384155,-163.47107
1766901604552,-1.0180664,0.22753906,-0.046875,49.865723,-34.118652,33.38623,0.0,0.0,0.0,161.68579,66.14319,-165.62439
1766901604640,-1.0864258,0.328125,-0.31835938,32.104492,-68.725586,43.762207,0.0,0.0,0.0,161.68579,66.14319,-165.62439
1766901604652,-1.0864258,0.328125,-0.31835938,32.104492,-68.725586,43.762207,0.0,0.0,0.0,148.33191,71.01013,170.97473
1766901604740,-1.1044922,0.2602539,-0.30664062,-42.663574,-24.902344,-2.1972656,0.0,0.0,0.0,148.33191,71.01013,170.97473
1766901604752,-1.1044922,0.2602539,-0.30664062,-42.663574,-24.902344,-2.1972656,0.0,0.0,0.0,134.31885,73.07007,153.17688
1766901604840,-0.6166992,-0.14697266,-0.17138672,-9.765625,8.422852,-21.728516,0.0,0.0,0.0,134.31885,73.07007,153.17688
1766901604851,-0.6166992,-0.14697266,-0.17138672,-9.765625,8.422852,-21.728516,0.0,0.0,0.0,133.41248,74.10278,150.79834
1766901604939,-1.0639648,0.048339844,-0.42919922,23.31543,16.479492,7.6904297,0.0,0.0,0.0,133.41248,74.10278,150.79834
1766901604954,-1.0639648,0.048339844,-0.42919922,23.31543,16.479492,7.6904297,0.0,0.0,0.0,141.31165,74.52576,151.24329
1766901605039,-0.7998047,0.48339844,-0.25585938,-44.6167,96.55762,-19.958496,0.0,0.0,0.0,141.31165,74.52576,151.24329
1766901605051,-0.7998047,0.48339844,-0.25585938,-44.6167,96.55762,-19.958496,0.0,0.0,0.0,149.75464,68.291016,154.14917
1766901605139,-1.0766602,0.11425781,-0.064453125,-36.8042,28.259277,-36.987305,0.0,0.0,0.0,149.75464,68.291016,154.14917
1766901605151,-1.0766602,0.11425781,-0.064453125,-36.8042,28.259277,-36.987305,0.0,0.0,0.0,157.52197,63.099976,162.7185
1766901605240,-1.1259766,0.08300781,-0.2993164,2.9296875,-61.340332,-0.7324219,0.0,0.0,0.0,157.52197,63.099976,162.7185
1766901605250,-1.1259766,0.08300781,-0.2993164,2.9296875,-61.340332,-0.7324219,0.0,0.0,0.0,155.79163,68.55469,158.77441
1766901605338,-1.0712891,0.21142578,-0.20214844,4.272461,-23.376465,17.333984,0.0,0.0,0.0,155.79163,68.55469,158.77441
1766901605350,-1.0712891,0.21142578,-0.20214844,4.272461,-23.376465,17.333984,0.0,0.0,0.0,149.89746,71.691284,147.22778
1766901605438,-0.8491211,0.09863281,-0.19238281,26.733398,-50.29297,18.737793,0.0,0.0,0.0,149.89746,71.691284,147.22778
1766901605450,-0.8491211,0.09863281,-0.19238281,26.733398,-50.29297,18.737793,0.0,0.0,0.0,138.01575,73.7677,127.33154
1766901605538,-0.9008789,0.33007812,-0.4194336,-11.108398,-43.395996,-21.118164,0.0,0.0,0.0,138.01575,73.7677,127.33154
1766901605549,-0.9008789,0.33007812,-0.4194336,-11.108398,-43.395996,-21.118164,0.0,0.0,0.0,120.55298,75.805664,102.837524
1766901605638,-0.85498047,0.029296875,-0.29248047,-25.512695,93.322754,-34.606934,0.0,0.0,0.0,120.55298,75.805664,102.837524
1766901605649,-0.85498047,0.029296875,-0.29248047,-25.512695,93.322754,-34.606934,0.0,0.0,0.0,129.2102,75.06958,106.53992
1766901605737,-1.0673828,0.16357422,-0.06982422,7.2631836,73.36426,-10.864258,0.0,0.0,0.0,129.2102,75.06958,106.53992
1766901605749,-1.0673828,0.16357422,-0.06982422,7.2631836,73.36426,-10.864258,0.0,0.0,0.0,158.08777,67.80762,134.71436
1766901605837,-0.97021484,0.28027344,-0.13378906,40.71045,-44.37256,39.733887,0.0,0.0,0.0,158.08777,67.80762,134.71436
1766901605849,-0.97021484,0.28027344,-0.13378906,40.71045,-44.37256,39.733887,0.0,0.0,0.0,157.70325,67.18689,128.45215
1766901605936,-1.0356445,0.24804688,-0.3408203,16.784668,-55.17578,22.888184,0.0,0.0,0.0,157.70325,67.18689,128.45215
1766901605948,-1.0356445,0.24804688,-0.3408203,16.784668,-55.17578,22.888184,0.0,0.0,0.0,144.43726,71.883545,107.63855
1766901606037,-1.081543,0.27539062,-0.30029297,-35.52246,-7.385254,-1.5869141,0.0,0.0,0.0,144.43726,71.883545,107.63855
1766901606048,-1.081543,0.27539062,-0.30029297,-35.52246,-7.385254,-1.5869141,0.0,0.0,0.0,134.47266,73.0426,94.416504
1766901606136,-0.765625,-0.14648438,-0.23046875,-1.5869141,-15.380859,-10.437012,0.0,0.0,0.0,134.47266,73.0426,94.416504
1766901606148,-0.765625,-0.14648438,-0.23046875,-1.5869141,-15.380859,-10.437012,0.0,0.0,0.0,130.49011,73.602905,88.50037
1766901606236,-0.9921875,0.20947266,-0.3359375,4.5166016,44.25049,1.6479492,0.0,0.0,0.0,130.49011,73.602905,88.50037
1766901606247,-0.9921875,0.20947266,-0.3359375,4.5166016,44.25049,1.6479492,0.0,0.0,0.0,138.26294,74.03137,91.56006
1766901606335,-0.8066406,0.2006836,-0.118652344,-27.526855,85.26611,-18.432617,0.0,0.0,0.0,138.26294,74.03137,91.56006
1766901606347,-0.8066406,0.2006836,-0.118652344,-27.526855,85.26611,-18.432617,0.0,0.0,0.0,148.37036,67.48352,99.261475
1766901606435,-1.0791016,0.095703125,-0.20996094,-15.808105,-7.3242188,-25.268555,0.0,0.0,0.0,148.37036,67.48352,99.261475
1766901606446,-1.0791016,0.095703125,-0.20996094,-15.808105,-7.3242188,-25.268555,0.0,0.0,0.0,156.55518,65.39612,107.36389
1766901606535,-1.1328125,0.10058594,-0.3227539,-10.864258,-24.780273,-4.638672,0.0,0.0,0.0,156.55518,65.39612,107.36389
1766901606546,-1.1328125,0.10058594,-0.3227539,-10.864258,-24.780273,-4.638672,0.0,0.0,0.0,155.79163,68.85132,105.22705
1766901606635,-1.128418,0.14648438,-0.13867188,17.578125,-39.978027,22.033691,0.0,0.0,0.0,155.79163,68.85132,105.22705
1766901606646,-1.128418,0.14648438,-0.13867188,17.578125,-39.978027,22.033691,0.0,0.0,0.0,152.78137,70.62561,99.34387
1766901606734,-0.57373047,0.16845703,-0.16894531,35.88867,-62.01172,33.569336,0.0,0.0,0.0,152.78137,70.62561,99.34387
1766901606746,-0.57373047,0.16845703,-0.16894531,35.88867,-62.01172,33.569336,0.0,0.0,0.0,139.61975,73.56445,78.65112
1766901606834,-1.0410156,0.25683594,-0.60498047,31.61621,-37.65869,5.79834,0.0,0.0,0.0,139.61975,73.56445,78.65112
1766901606846,-1.0410156,0.25683594,-0.60498047,31.61621,-37.65869,5.79834,0.0,0.0,0.0,118.21289,76.99219,50.646973
1766901606934,-0.9423828,0.12060547,-0.28955078,-32.043457,153.8086,-42.541504,0.0,0.0,0.0,118.21289,76.99219,50.646973
1766901606945,-0.9423828,0.12060547,-0.28955078,-32.043457,153.8086,-42.541504,0.0,0.0,0.0,139.85046,73.50952,67.1814
1766901607033,-1.1352539,0.1977539,0.3334961,23.31543,-17.27295,6.713867,0.0,0.0,0.0,139.85046,73.50952,67.1814
1766901607045,-1.1352539,0.1977539,0.3334961,23.31543,-17.27295,6.713867,0.0,0.0,0.0,160.44434,63.97339,88.4729
1766901607133,-1.0761719,0.26464844,-0.3647461,30.029297,-90.20996,25.817871,0.0,0.0,0.0,160.44434,63.97339,88.4729
1766901607144,-1.0761719,0.26464844,-0.3647461,30.029297,-90.20996,25.817871,0.0,0.0,0.0,151.29272,69.59839,73.256836
1766901607233,-1.1328125,0.3203125,-0.32958984,-39.123535,5.3710938,5.3710938,0.0,0.0,0.0,151.29272,69.59839,73.256836
1766901607244,-1.1328125,0.3203125,-0.32958984,-39.123535,5.3710938,5.3710938,0.0,0.0,0.0,139.21326,72.48779,57.200317
1766901607333,-0.7963867,0.08251953,-0.1850586,-30.822754,-19.958496,-18.188477,0.0,0.0,0.0,139.21326,72.48779,57.200317
1766901607344,-0.7963867,0.08251953,-0.1850586,-30.822754,-19.958496,-18.188477,0.0,0.0,0.0,138.43323,72.65808,57.546387
1766901607433,-0.91552734,-0.092285156,-0.34765625,-5.3710938,-24.475098,-16.357422,0.0,0.0,0.0,138.43323,72.65808,57.546387
1766901607443,-0.91552734,-0.092285156,-0.34765625,-5.3710938,-24.475098,-16.357422,0.0,0.0,0.0,134.98352,75.83313,51.064453
1766901607532,-0.89941406,0.2758789,-0.3125,-6.225586,75.19531,17.76123,0.0,0.0,0.0,134.98352,75.83313,51.064453
1766901607543,-0.89941406,0.2758789,-0.3125,-6.225586,75.19531,17.76123,0.0,0.0,0.0,140.17456,73.70178,50.894165
1766901607632,-0.97998047,0.1328125,-0.13378906,-38.57422,117.1875,-36.743164,0.0,0.0,0.0,140.17456,73.70178,50.894165
1766901607643,-0.97998047,0.1328125,-0.13378906,-38.57422,117.1875,-36.743164,0.0,0.0,0.0,156.31348,65.527954,68.323975
1766901607731,-1.0488281,0.057128906,-0.19580078,-1.3427734,-60.546875,-19.042969,0.0,0.0,0.0,156.31348,65.527954,68.323975
1766901607743,-1.0488281,0.057128906,-0.19580078,-1.3427734,-60.546875,-19.042969,0.0,0.0,0.0,160.97168,66.18164,74.262085
1766901607831,-1.0385742,0.036132812,-0.3857422,3.2958984,-46.26465,8.422852,0.0,0.0,0.0,160.97168,66.18164,74.262085
1766901607842,-1.0385742,0.036132812,-0.3857422,3.2958984,-46.26465,8.422852,0.0,0.0,0.0,152.70996,73.66882,61.973877
1766901607931,-1.0400391,0.0390625,-0.16357422,33.87451,4.760742,23.620605,0.0,0.0,0.0,152.70996,73.66882,61.973877
1766901607943,-1.0400391,0.0390625,-0.16357422,33.87451,4.760742,23.620605,0.0,0.0,0.0,151.20483,72.9657,54.89868
1766901608030,-0.7944336,0.25146484,-0.23583984,14.892578,-78.00293,47.24121,0.0,0.0,0.0,151.20483,72.9657,54.89868
1766901608042,-0.7944336,0.25146484,-0.23583984,14.892578,-78.00293,47.24121,0.0,0.0,0.0,136.86218,74.2511,32.36023
1766901608130,-0.95703125,0.061523438,-0.48339844,32.958984,17.578125,16.052246,0.0,0.0,0.0,136.86218,74.2511,32.36023
1766901608141,-0.95703125,0.061523438,-0.48339844,32.958984,17.578125,16.052246,0.0,0.0,0.0,124.77173,75.426636,14.161377
1766901608230,-1.0517578,0.115722656,0.048828125,-47.851562,143.00537,-62.74414,0.0,0.0,0.0,124.77173,75.426636,14.161377
1766901608242,-1.0517578,0.115722656,0.048828125,-47.851562,143.00537,-62.74414,0.0,0.0,0.0,156.3794,68.71948,45.368042
1766901608329,-1.0400391,0.23535156,-0.25341797,42.175293,-37.53662,45.10498,0.0,0.0,0.0,156.3794,68.71948,45.368042
1766901608341,-1.0400391,0.23535156,-0.25341797,42.175293,-37.53662,45.10498,0.0,0.0,0.0,154.74792,70.3125,39.58374
1766901608429,-1.0302734,0.33984375,-0.31689453,-7.2631836,-13.916016,4.3945312,0.0,0.0,0.0,154.74792,70.3125,39.58374
1766901608441,-1.0302734,0.33984375,-0.31689453,-7.2631836,-13.916016,4.3945312,0.0,0.0,0.0,144.83826,72.74597,24.505005
1766901608529,-1.1708984,0.27539062,-0.15527344,-38.146973,-49.1333,-11.047363,0.0,0.0,0.0,144.83826,72.74597,24.505005
1766901608540,-1.1708984,0.27539062,-0.15527344,-38.146973,-49.1333,-11.047363,0.0,0.0,0.0,137.8894,74.13025,19.82483
1766901608629,-0.65283203,-0.2006836,-0.25634766,5.126953,-13.366699,-23.19336,0.0,0.0,0.0,137.8894,74.13025,19.82483
1766901608640,-0.65283203,-0.2006836,-0.25634766,5.126953,-13.366699,-23.19336,0.0,0.0,0.0,130.24292,77.44812,10.453491
1766901608728,-1.046875,-0.03857422,-0.45996094,-8.178711,28.137207,14.343262,0.0,0.0,0.0,130.24292,77.44812,10.453491
1766901608740,-1.046875,-0.03857422,-0.45996094,-8.178711,28.137207,14.343262,0.0,0.0,0.0,139.58679,77.24487,12.634277
1766901608828,-0.8461914,0.30371094,-0.14941406,-49.438477,120.60547,-18.127441,0.0,0.0,0.0,139.58679,77.24487,12.634277
1766901608839,-0.8461914,0.30371094,-0.14941406,-49.438477,120.60547,-18.127441,0.0,0.0,0.0,151.17737,67.840576,20.703735
1766901608928,-1.0087891,0.106933594,-0.22802734,0.18310547,-47.11914,-9.521484,0.0,0.0,0.0,151.17737,67.840576,20.703735
1766901608939,-1.0087891,0.106933594,-0.22802734,0.18310547,-47.11914,-9.521484,0.0,0.0,0.0,154.34143,67.27478,23.757935
1766901609027,-1.1289062,0.05078125,-0.37402344,-23.254395,-6.591797,-10.620117,0.0,0.0,0.0,154.34143,67.27478,23.757935
1766901609040,-1.1289062,0.05078125,-0.37402344,-23.254395,-6.591797,-10.620117,0.0,0.0,0.0,148.96912,71.16943,15.650024
1766901609127,-1.2817383,0.13964844,0.3647461,-17.27295,-46.813965,3.2958984,0.0,0.0,0.0,148.96912,71.16943,15.650024
1766901609138,-1.2817383,0.13964844,0.3647461,-17.27295,-46.813965,3.2958984,0.0,0.0,0.0,151.68823,71.048584,17.330933
1766901609227,-0.6875,0.06298828,-0.24658203,47.912598,-100.89111,44.73877,0.0,0.0,0.0,151.68823,71.048584,17.330933
1766901609238,-0.6875,0.06298828,-0.24658203,47.912598,-100.89111,44.73877,0.0,0.0,0.0,122.99194,76.536255,-22.659302
1766901609326,-0.8774414,0.3486328,-0.6347656,3.3569336,-11.779785,9.70459,0.0,0.0,0.0,122.99194,76.536255,-22.659302
1766901609341,-0.8774414,0.3486328,-0.6347656,3.3569336,-11.779785,9.70459,0.0,0.0,0.0,94.246216,77.11853,-58.61206
1766901609426,-1.0073242,-0.064941406,-0.28076172,-86.9751,202.0874,-75.56152,0.0,0.0,0.0,94.246216,77.11853,-58.61206
1766901609441,-1.0073242,-0.064941406,-0.28076172,-86.9751,202.0874,-75.56152,0.0,0.0,0.0,135.97229,73.99292,-20.077515
1766901609526,-1.0039062,0.10498047,-0.018066406,107.299805,-70.007324,34.973145,0.0,0.0,0.0,135.97229,73.99292,-20.077515
1766901609538,-1.0039062,0.10498047,-0.018066406,107.299805,-70.007324,34.973145,0.0,0.0,0.0,154.02283,68.74695,-4.0979004
1766901609625,-0.9663086,0.24414062,-0.3334961,58.10547,-63.964844,43.45703,0.0,0.0,0.0,154.02283,68.74695,-4.0979004
1766901609637,-0.9663086,0.24414062,-0.3334961,58.10547,-63.964844,43.45703,0.0,0.0,0.0,137.38953,72.65259,-34.678345
1766901609725,-0.98095703,0.39404297,-0.22265625,-30.944824,44.006348,4.8828125,0.0,0.0,0.0,137.38953,72.65259,-34.678345
1766901609737,-0.98095703,0.39404297,-0.22265625,-30.944824,44.006348,4.8828125,0.0,0.0,0.0,133.37952,71.987915,-45.78003
1766901609825,-1.0708008,0.2866211,-0.22802734,1.5869141,-76.78223,-15.930176,0.0,0.0,0.0,133.37952,71.987915,-45.78003
1766901609836,-1.0708008,0.2866211,-0.22802734,1.5869141,-76.78223,-15.930176,0.0,0.0,0.0,132.35779,73.38318,-47.67517
1766901609925,-0.6879883,-0.18798828,-0.28466797,28.259277,-15.930176,-18.554688,0.0,0.0,0.0,132.35779,73.38318,-47.67517
1766901609936,-0.6879883,-0.18798828,-0.28466797,28.259277,-15.930176,-18.554688,0.0,0.0,0.0,116.47705,77.058105,-70.35095
1766901610025,-1.0771484,0.24902344,-0.4165039,31.61621,71.59424,32.104492,0.0,0.0,0.0,116.47705,77.058105,-70.35095
1766901610036,-1.0771484,0.24902344,-0.4165039,31.61621,71.59424,32.104492,0.0,0.0,0.0,125.66162,75.03113,-69.67529
1766901610124,-1.0126953,0.32128906,0.24658203,-53.95508,126.46484,-15.686035,0.0,0.0,0.0,125.66162,75.03113,-69.67529
1766901610136,-1.0126953,0.32128906,0.24658203,-53.95508,126.46484,-15.686035,0.0,0.0,0.0,146.18408,65.31372,-51.729126
1766901610224,-1.0532227,0.15966797,-0.26660156,-5.3100586,-60.058594,-16.662598,0.0,0.0,0.0,146.18408,65.31372,-51.729126
1766901610236,-1.0532227,0.15966797,-0.26660156,-5.3100586,-60.058594,-16.662598,0.0,0.0,0.0,148.06274,66.89575,-53.07495
1766901610324,-0.98095703,0.13232422,-0.3413086,-9.58252,-13.671875,-10.070801,0.0,0.0,0.0,148.06274,66.89575,-53.07495
1766901610336,-0.98095703,0.13232422,-0.3413086,-9.58252,-13.671875,-10.070801,0.0,0.0,0.0,142.7893,71.2793,-64.62158
1766901610423,-1.1845703,0.12451172,-0.21777344,21.42334,-3.6010742,8.7890625,0.0,0.0,0.0,142.7893,71.2793,-64.62158
1766901610435,-1.1845703,0.12451172,-0.21777344,21.42334,-3.6010742,8.7890625,0.0,0.0,0.0,145.45898,71.18042,-67.77466
1766901610523,-0.546875,0.2602539,-0.1274414,27.09961,-36.132812,29.907227,0.0,0.0,0.0,145.45898,71.18042,-67.77466
1766901610534,-0.546875,0.2602539,-0.1274414,27.09961,-36.132812,29.907227,0.0,0.0,0.0,139.5813,72.14722,-82.58972
1766901610622,-1.0644531,0.22949219,-0.5214844,34.301758,-37.41455,-3.90625,0.0,0.0,0.0,139.5813,72.14722,-82.58972
1766901610634,-1.0644531,0.22949219,-0.5214844,34.301758,-37.41455,-3.90625,0.0,0.0,0.0,128.54553,75.47058,-100.51941
1766901610722,-0.8808594,0.10205078,-0.27001953,-37.17041,127.62451,-38.757324,0.0,0.0,0.0,128.54553,75.47058,-100.51941
1766901610734,-0.8808594,0.10205078,-0.27001953,-37.17041,127.62451,-38.757324,0.0,0.0,0.0,144.46472,72.960205,-90.840454
1766901610822,-1.0991211,0.16259766,0.14697266,26.733398,-14.770508,-2.746582,0.0,0.0,0.0,144.46472,72.960205,-90.840454
1766901610833,-1.0991211,0.16259766,0.14697266,26.733398,-14.770508,-2.746582,0.0,0.0,0.0,161.22986,65.319214,-75.772705
1766901610922,-1.0332031,0.16210938,-0.32714844,39.30664,-68.84766,24.902344,0.0,0.0,0.0,161.22986,65.319214,-75.772705
1766901610933,-1.0332031,0.16210938,-0.32714844,39.30664,-68.84766,24.902344,0.0,0.0,0.0,156.71997,69.94446,-89.697876
1766901611021,-1.0454102,0.4326172,-0.3466797,-39.855957,4.0283203,-4.638672,0.0,0.0,0.0,156.71997,69.94446,-89.697876
1766901611033,-1.0454102,0.4326172,-0.3466797,-39.855957,4.0283203,-4.638672,0.0,0.0,0.0,147.68372,73.07007,-105.89722
1766901611121,-1.0083008,0.10986328,-0.27148438,-55.96924,-6.1035156,-32.89795,0.0,0.0,0.0,147.68372,73.07007,-105.89722
1766901611132,-1.0083008,0.10986328,-0.27148438,-55.96924,-6.1035156,-32.89795,0.0,0.0,0.0,145.45898,73.932495,-107.924194
1766901611221,-0.7241211,-0.2705078,-0.21728516,32.65381,-23.132324,-8.239746,0.0,0.0,0.0,145.45898,73.932495,-107.924194
1766901611232,-0.7241211,-0.2705078,-0.21728516,32.65381,-23.132324,-8.239746,0.0,0.0,0.0,149.10095,75.80017,-108.64929
1766901611321,-1.0678711,0.3232422,-0.4501953,41.015625,35.095215,47.851562,0.0,0.0,0.0,149.10095,75.80017,-108.64929
1766901611332,-1.0678711,0.3232422,-0.4501953,41.015625,35.095215,47.851562,0.0,0.0,0.0,144.646,75.34973,-122.27234
1766901611420,-0.93066406,0.12890625,-0.1772461,-31.982422,104.79736,-11.779785,0.0,0.0,0.0,144.646,75.34973,-122.27234
1766901611432,-0.93066406,0.12890625,-0.1772461,-31.982422,104.79736,-11.779785,0.0,0.0,0.0,153.03406,67.543945,-118.14148
1766901611520,-1.0507812,0.068847656,-0.09423828,-12.329102,-8.666992,-18.676758,0.0,0.0,0.0,153.03406,67.543945,-118.14148
1766901611531,-1.0507812,0.068847656,-0.09423828,-12.329102,-8.666992,-18.676758,0.0,0.0,0.0,160.3949,63.220825,-111.26953
1766901611620,-1.1455078,0.041992188,-0.3515625,8.7890625,-69.45801,6.225586,0.0,0.0,0.0,160.3949,63.220825,-111.26953
1766901611634,-1.1455078,0.041992188,-0.3515625,8.7890625,-69.45801,6.225586,0.0,0.0,0.0,158.67004,68.58765,-117.52075
1766901611719,-1.0727539,0.03515625,-0.31933594,34.973145,-32.165527,28.747559,0.0,0.0,0.0,158.67004,68.58765,-117.52075
1766901611731,-1.0727539,0.03515625,-0.31933594,34.973145,-32.165527,28.747559,0.0,0.0,0.0,151.36414,72.36145,-131.92932
1766901611819,-0.52685547,0.32128906,-0.19335938,-10.681152,-24.536133,26.428223,0.0,0.0,0.0,151.36414,72.36145,-131.92932
1766901611830,-0.52685547,0.32128906,-0.19335938,-10.681152,-24.536133,26.428223,0.0,0.0,0.0,140.9491,73.064575,-149.08997
1766901611919,-1.0629883,0.049804688,-0.47851562,36.92627,-29.052734,0.5493164,0.0,0.0,0.0,140.9491,73.064575,-149.08997
1766901611930,-1.0629883,0.049804688,-0.47851562,36.92627,-29.052734,0.5493164,0.0,0.0,0.0,130.53406,75.39368,-165.12451
1766901612018,-0.8779297,0.034179688,-0.23242188,-18.554688,111.99951,-29.418945,0.0,0.0,0.0,130.53406,75.39368,-165.12451
1766901612030,-0.8779297,0.034179688,-0.23242188,-18.554688,111.99951,-29.418945,0.0,0.0,0.0,151.474,71.38367,-148.15613
1766901612118,-1.1542969,0.25048828,0.21044922,20.629883,-1.2817383,18.493652,0.0,0.0,0.0,151.474,71.38367,-148.15613
1766901612130,-1.1542969,0.25048828,0.21044922,20.629883,-1.2817383,18.493652,0.0,0.0,0.0,160.21362,66.26953,-143.17932
1766901612218,-1.0541992,0.2607422,-0.3173828,26.733398,-73.791504,46.14258,0.0,0.0,0.0,160.21362,66.26953,-143.17932
1766901612229,-1.0541992,0.2607422,-0.3173828,26.733398,-73.791504,46.14258,0.0,0.0,0.0,148.1836,70.32349,-162.82288
1766901612317,-1.0771484,0.24853516,-0.29785156,-42.175293,-16.418457,0.79345703,0.0,0.0,0.0,148.1836,70.32349,-162.82288
1766901612329,-1.0771484,0.24853516,-0.29785156,-42.175293,-16.418457,0.79345703,0.0,0.0,0.0,135.98877,72.29004,-178.38501
1766901612417,-0.69873047,0.11230469,-0.18017578,-34.66797,-0.61035156,-10.803223,0.0,0.0,0.0,135.98877,72.29004,-178.38501
1766901612429,-0.69873047,0.11230469,-0.18017578,-34.66797,-0.61035156,-10.803223,0.0,0.0,0.0,132.50061,73.40515,178.4729
1766901612517,-0.8696289,-0.04248047,-0.31396484,9.887695,6.1035156,-12.6953125,0.0,0.0,0.0,132.50061,73.40515,178.4729
1766901612529,-0.8696289,-0.04248047,-0.31396484,9.887695,6.1035156,-12.6953125,0.0,0.0,0.0,139.69116,74.53125,-178.38501
1766901612618,-0.94384766,0.27246094,-0.328125,6.7749023,61.76758,22.399902,0.0,0.0,0.0,139.69116,74.53125,-178.38501
1766901612629,-0.94384766,0.27246094,-0.328125,6.7749023,61.76758,22.399902,0.0,0.0,0.0,142.76184,70.27405,177.85217
1766901612717,-0.98779297,0.09082031,-0.16015625,-33.38623,62.927246,-31.00586,0.0,0.0,0.0,142.76184,70.27405,177.85217
1766901612728,-0.98779297,0.09082031,-0.16015625,-33.38623,62.927246,-31.00586,0.0,0.0,0.0,154.23157,65.31372,-170.87585
1766901612816,-1.050293,0.0703125,-0.1772461,-11.71875,-35.461426,-21.911621,0.0,0.0,0.0,154.23157,65.31372,-170.87585
1766901612828,-1.050293,0.0703125,-0.1772461,-11.71875,-35.461426,-21.911621,0.0,0.0,0.0,158.2196,66.676025,-165.95398
1766901612916,-1.105957,0.0,-0.30615234,12.268066,-26.916504,3.2348633,0.0,0.0,0.0,158.2196,66.676025,-165.95398
1766901612927,-1.105957,0.0,-0.30615234,12.268066,-26.916504,3.2348633,0.0,0.0,0.0,155.70374,71.0376,-172.40295
1766901613016,-1.0537109,0.08544922,-0.26904297,43.273926,-62.438965,32.714844,0.0,0.0,0.0,155.70374,71.0376,-172.40295
1766901613028,-1.0537109,0.08544922,-0.26904297,43.273926,-62.438965,32.714844,0.0,0.0,0.0,146.70044,74.06433,171.19446
1766901613115,-0.7216797,0.4501953,-0.39990234,-43.029785,-58.59375,-14.6484375,0.0,0.0,0.0,146.70044,74.06433,171.19446
1766901613127,-0.7216797,0.4501953,-0.39990234,-43.029785,-58.59375,-14.6484375,0.0,0.0,0.0,123.167725,77.107544,142.37732
1766901613215,-0.99121094,-0.1484375,-0.4169922,17.211914,65.00244,-34.179688,0.0,0.0,0.0,123.167725,77.107544,142.37732
1766901613226,-0.99121094,-0.1484375,-0.4169922,17.211914,65.00244,-34.179688,0.0,0.0,0.0,121.81091,76.54175,135.87341
1766901613315,-1.234375,0.36132812,0.67626953,-32.226562,110.53467,-6.4697266,0.0,0.0,0.0,121.81091,76.54175,135.87341
1766901613326,-1.234375,0.36132812,0.67626953,-32.226562,110.53467,-6.4697266,0.0,0.0,0.0,160.24109,66.61011,175.79224
1766901613414,-0.9921875,0.21240234,-0.26611328,41.137695,-59.387207,46.691895,0.0,0.0,0.0,160.24109,66.61011,175.79224
1766901613426,-0.9921875,0.21240234,-0.26611328,41.137695,-59.387207,46.691895,0.0,0.0,0.0,152.89124,69.35669,162.47131
1766901613514,-1.0195312,0.3955078,-0.3803711,2.4414062,-12.573242,14.831543,0.0,0.0,0.0,152.89124,69.35669,162.47131
1766901613525,-1.0195312,0.3955078,-0.3803711,2.4414062,-12.573242,14.831543,0.0,0.0,0.0,140.02625,71.82312,142.6355
1766901613614,-1.137207,0.30810547,-0.22070312,-65.12451,-0.18310547,-25.512695,0.0,0.0,0.0,140.02625,71.82312,142.6355
1766901613625,-1.137207,0.30810547,-0.22070312,-65.12451,-0.18310547,-25.512695,0.0,0.0,0.0,138.38928,71.51001,140.85022
1766901613713,-0.7163086,-0.1430664,-0.21972656,-3.2958984,-41.68701,-21.30127,0.0,0.0,0.0,138.38928,71.51001,140.85022
1766901613725,-0.7163086,-0.1430664,-0.21972656,-3.2958984,-41.68701,-21.30127,0.0,0.0,0.0,133.53882,74.30603,135.75256
1766901613813,-1.0527344,0.05029297,-0.48339844,9.216309,13.671875,15.808105,0.0,0.0,0.0,133.53882,74.30603,135.75256
1766901613828,-1.0527344,0.05029297,-0.48339844,9.216309,13.671875,15.808105,0.0,0.0,0.0,131.56128,76.99219,127.144775
1766901613914,-0.81591797,0.2866211,-0.1430664,-45.166016,121.520996,-30.029297,0.0,0.0,0.0,131.56128,76.99219,127.144775
1766901613924,-0.81591797,0.2866211,-0.1430664,-45.166016,121.520996,-30.029297,0.0,0.0,0.0,145.26123,68.90625,137.58179
1766901614013,-0.97998047,0.16552734,-0.20703125,7.6904297,-38.94043,-8.117676,0.0,0.0,0.0,145.26123,68.90625,137.58179
1766901614024,-0.97998047,0.16552734,-0.20703125,7.6904297,-38.94043,-8.117676,0.0,0.0,0.0,150.07324,68.291016,143.65173
1766901614113,-1.1088867,0.0390625,-0.38085938,-24.353027,-14.6484375,-14.404297,0.0,0.0,0.0,150.07324,68.291016,143.65173
1766901614124,-1.1088867,0.0390625,-0.38085938,-24.353027,-14.6484375,-14.404297,0.0,0.0,0.0,143.30566,72.108765,135.78552
1766901614213,-1.4091797,0.24365234,0.5756836,-32.836914,-27.038574,-12.207031,0.0,0.0,0.0,143.30566,72.108765,135.78552
1766901614224,-1.4091797,0.24365234,0.5756836,-32.836914,-27.038574,-12.207031,0.0,0.0,0.0,149.76013,72.03735,141.44897
1766901614312,-0.75146484,0.09082031,-0.2553711,38.146973,-89.72168,30.395508,0.0,0.0,0.0,149.76013,72.03735,141.44897
1766901614323,-0.75146484,0.09082031,-0.2553711,38.146973,-89.72168,30.395508,0.0,0.0,0.0,125.43091,77.55249,109.281006
1766901614412,-0.8540039,0.38671875,-0.5678711,-1.5869141,-43.45703,1.159668,0.0,0.0,0.0,125.43091,77.55249,109.281006
1766901614423,-0.8540039,0.38671875,-0.5678711,-1.5869141,-43.45703,1.159668,0.0,0.0,0.0,93.323364,77.95349,69.609375
1766901614511,-1.0151367,-0.075683594,-0.31640625,-74.95117,182.73926,-59.631348,0.0,0.0,0.0,93.323364,77.95349,69.609375
1766901614523,-1.0151367,-0.075683594,-0.31640625,-74.95117,182.73926,-59.631348,0.0,0.0,0.0,121.085815,76.2561,91.23047
1766901614611,-0.90722656,0.09375,0.013183594,101.31836,-69.33594,36.865234,0.0,0.0,0.0,121.085815,76.2561,91.23047
1766901614623,-0.90722656,0.09375,0.013183594,101.31836,-69.33594,36.865234,0.0,0.0,0.0,150.9082,70.33447,121.16272
1766901614711,-0.9667969,0.2631836,-0.30273438,57.006836,-33.691406,43.395996,0.0,0.0,0.0,150.9082,70.33447,121.16272
1766901614722,-0.9667969,0.2631836,-0.30273438,57.006836,-33.691406,43.395996,0.0,0.0,0.0,137.0874,72.0813,94.64722
1766901614810,-1.0429688,0.36572266,-0.18847656,-19.592285,29.23584,6.225586,0.0,0.0,0.0,137.0874,72.0813,94.64722
1766901614822,-1.0429688,0.36572266,-0.18847656,-19.592285,29.23584,6.225586,0.0,0.0,0.0,136.19202,70.62012,86.55029
1766901614911,-1.1508789,0.2734375,-0.2788086,-7.8125,-72.75391,-3.4179688,0.0,0.0,0.0,136.19202,70.62012,86.55029
1766901614922,-1.1508789,0.2734375,-0.2788086,-7.8125,-72.75391,-3.4179688,0.0,0.0,0.0,128.78174,72.41089,76.88782
1766901615010,-0.61035156,-0.15478516,-0.25,19.16504,-22.827148,-19.53125,0.0,0.0,0.0,128.78174,72.41089,76.88782
1766901615021,-0.61035156,-0.15478516,-0.25,19.16504,-22.827148,-19.53125,0.0,0.0,0.0,114.3457,75.36621,56.151123
1766901615110,-1.0415039,0.24023438,-0.3725586,10.986328,72.44873,15.563965,0.0,0.0,0.0,114.3457,75.36621,56.151123
1766901615122,-1.0415039,0.24023438,-0.3725586,10.986328,72.44873,15.563965,0.0,0.0,0.0,123.239136,75.08057,58.43628
1766901615209,-0.9970703,0.23291016,-0.091308594,-38.69629,111.26709,-23.925781,0.0,0.0,0.0,123.239136,75.08057,58.43628
1766901615221,-0.9970703,0.23291016,-0.091308594,-38.69629,111.26709,-23.925781,0.0,0.0,0.0,143.05847,67.40662,75.43213
1766901615309,-1.0097656,0.12451172,-0.20166016,-7.3242188,-46.99707,-8.544922,0.0,0.0,0.0,143.05847,67.40662,75.43213
1766901615321,-1.0097656,0.12451172,-0.20166016,-7.3242188,-46.99707,-8.544922,0.0,0.0,0.0,146.8927,66.84631,78.09631
1766901615409,-1.0419922,0.09863281,-0.31445312,-16.967773,-10.375977,-13.183594,0.0,0.0,0.0,146.8927,66.84631,78.09631
1766901615420,-1.0419922,0.09863281,-0.31445312,-16.967773,-10.375977,-13.183594,0.0,0.0,0.0,142.49268,71.1145,70.48279
1766901615508,-1.3691406,0.15136719,0.16113281,1.6479492,-66.65039,-0.36621094,0.0,0.0,0.0,142.49268,71.1145,70.48279
1766901615520,-1.3691406,0.15136719,0.16113281,1.6479492,-66.65039,-0.36621094,0.0,0.0,0.0,143.99231,71.987915,68.84033
1766901615608,-0.56103516,0.25683594,-0.22216797,33.14209,-104.30908,47.546387,0.0,0.0,0.0,143.99231,71.987915,68.84033
1766901615620,-0.56103516,0.25683594,-0.22216797,33.14209,-104.30908,47.546387,0.0,0.0,0.0,117.333984,76.0199,31.12976
1766901615708,-0.9658203,0.09814453,-0.52734375,29.60205,13.73291,9.155273,0.0,0.0,0.0,117.333984,76.0199,31.12976
1766901615720,-0.9658203,0.09814453,-0.52734375,29.60205,13.73291,9.155273,0.0,0.0,0.0,92.92236,76.223145,-0.049438477
1766901615808,-0.98779297,0.111328125,-0.14697266,-32.714844,207.03125,-55.480957,0.0,0.0,0.0,92.92236,76.223145,-0.049438477
1766901615819,-0.98779297,0.111328125,-0.14697266,-32.714844,207.03125,-55.480957,0.0,0.0,0.0,137.3346,73.76221,39.8584
1766901615907,-0.9902344,0.2919922,-0.111816406,81.848145,-56.152344,29.47998,0.0,0.0,0.0,137.3346,73.76221,39.8584
1766901615919,-0.9902344,0.2919922,-0.111816406,81.848145,-56.152344,29.47998,0.0,0.0,0.0,151.91895,68.49426,51.42151
1766901616007,-1.0341797,0.16748047,-0.36914062,24.902344,-51.51367,19.65332,0.0,0.0,0.0,151.91895,68.49426,51.42151
1766901616018,-1.0341797,0.16748047,-0.36914062,24.902344,-51.51367,19.65332,0.0,0.0,0.0,136.97754,72.83386,26.658325
1766901616108,-1.1147461,0.4140625,-0.23779297,-49.682617,58.654785,-11.047363,0.0,0.0,0.0,136.97754,72.83386,26.658325
1766901616118,-1.1147461,0.4140625,-0.23779297,-49.682617,58.654785,-11.047363,0.0,0.0,0.0,134.198,72.38342,17.72644
1766901616206,-1.1591797,0.2890625,-0.0625,-31.860352,-44.6167,-23.376465,0.0,0.0,0.0,134.198,72.38342,17.72644
1766901616218,-1.1591797,0.2890625,-0.0625,-31.860352,-44.6167,-23.376465,0.0,0.0,0.0,137.04346,72.25708,21.676025
1766901616306,-0.6533203,-0.17041016,-0.23876953,27.34375,-32.104492,-6.1035156,0.0,0.0,0.0,137.04346,72.25708,21.676025
1766901616317,-0.6533203,-0.17041016,-0.23876953,27.34375,-32.104492,-6.1035156,0.0,0.0,0.0,121.64612,76.34949,0.3076172
1766901616406,-1.0561523,0.12158203,-0.47509766,35.705566,11.230469,38.269043,0.0,0.0,0.0,121.64612,76.34949,0.3076172
1766901616417,-1.0561523,0.12158203,-0.47509766,35.705566,11.230469,38.269043,0.0,0.0,0.0,121.12427,74.93225,-11.821289
1766901616506,-0.8671875,0.41796875,-0.2553711,-27.34375,125.73242,-0.91552734,0.0,0.0,0.0,121.12427,74.93225,-11.821289
1766901616517,-0.8671875,0.41796875,-0.2553711,-27.34375,125.73242,-0.91552734,0.0,0.0,0.0,139.37256,67.79663,1.038208
1766901616605,-1.0458984,0.12792969,0.08984375,-0.9765625,-21.54541,-20.141602,0.0,0.0,0.0,139.37256,67.79663,1.038208
1766901616617,-1.0458984,0.12792969,0.08984375,-0.9765625,-21.54541,-20.141602,0.0,0.0,0.0,149.16687,63.237305,11.184082
1766901616705,-1.0800781,0.10888672,-0.35058594,-8.666992,-43.884277,-0.4272461,0.0,0.0,0.0,149.16687,63.237305,11.184082
1766901616716,-1.0800781,0.10888672,-0.35058594,-8.666992,-43.884277,-0.4272461,0.0,0.0,0.0,143.26172,68.85681,0.22521973
1766901616805,-1.1884766,0.21386719,-0.24023438,-29.23584,11.169434,-17.089844,0.0,0.0,0.0,143.26172,68.85681,0.22521973
1766901616816,-1.1884766,0.21386719,-0.24023438,-29.23584,11.169434,-17.089844,0.0,0.0,0.0,144.3988,69.9115,-2.0379639
1766901616904,-0.6557617,0.15185547,-0.14355469,23.742676,-64.453125,13.244629,0.0,0.0,0.0,144.3988,69.9115,-2.0379639
1766901616916,-0.6557617,0.15185547,-0.14355469,23.742676,-64.453125,13.244629,0.0,0.0,0.0,138.81226,72.438354,-15.03479
1766901617004,-1.0756836,0.30908203,-0.52441406,30.700684,-40.100098,10.498047,0.0,0.0,0.0,138.81226,72.438354,-15.03479
1766901617015,-1.0756836,0.30908203,-0.52441406,30.700684,-40.100098,10.498047,0.0,0.0,0.0,118.39966,75.64087,-42.528076
1766901617104,-0.83691406,-0.012207031,-0.24658203,-28.442383,133.48389,-45.776367,0.0,0.0,0.0,118.39966,75.64087,-42.528076
1766901617117,-0.83691406,-0.012207031,-0.24658203,-28.442383,133.48389,-45.776367,0.0,0.0,0.0,141.31714,72.4823,-25.186157
1766901617203,-1.0947266,0.22753906,0.1538086,41.931152,-15.808105,29.296875,0.0,0.0,0.0,141.31714,72.4823,-25.186157
1766901617215,-1.0947266,0.22753906,0.1538086,41.931152,-15.808105,29.296875,0.0,0.0,0.0,154.09973,66.36841,-16.924438
1766901617303,-1.0527344,0.21875,-0.3100586,41.625977,-96.25244,25.878906,0.0,0.0,0.0,154.09973,66.36841,-16.924438
1766901617315,-1.0527344,0.21875,-0.3100586,41.625977,-96.25244,25.878906,0.0,0.0,0.0,141.05347,70.13672,-39.122314
1766901617403,-1.0888672,0.40625,-0.3154297,-42.541504,2.5024414,8.117676,0.0,0.0,0.0,141.05347,70.13672,-39.122314
1766901617415,-1.0888672,0.40625,-0.3154297,-42.541504,2.5024414,8.117676,0.0,0.0,0.0,129.0564,72.614136,-55.914917
1766901617503,-0.77978516,0.115722656,-0.14404297,-41.19873,13.427734,-28.442383,0.0,0.0,0.0,129.0564,72.614136,-55.914917
1766901617514,-0.77978516,0.115722656,-0.14404297,-41.19873,13.427734,-28.442383,0.0,0.0,0.0,131.61072,73.201904,-51.800537
1766901617602,-0.90527344,-0.17382812,-0.25830078,20.507812,-7.873535,-18.432617,0.0,0.0,0.0,131.61072,73.201904,-51.800537
1766901617614,-0.90527344,-0.17382812,-0.25830078,20.507812,-7.873535,-18.432617,0.0,0.0,0.0,140.5426,75.2124,-48.64746
1766901617702,-0.9609375,0.35839844,-0.31298828,-5.126953,49.743652,50.1709,0.0,0.0,0.0,140.5426,75.2124,-48.64746
1766901617713,-0.9609375,0.35839844,-0.31298828,-5.126953,49.743652,50.1709,0.0,0.0,0.0,139.44397,71.65283,-58.04077
1766901617802,-0.91259766,0.09423828,-0.15185547,-22.155762,54.32129,-9.643555,0.0,0.0,0.0,139.44397,71.65283,-58.04077
1766901617813,-0.91259766,0.09423828,-0.15185547,-22.155762,54.32129,-9.643555,0.0,0.0,0.0,149.50195,66.780396,-50.01526
1766901617901,-1.1782227,0.07910156,-0.18359375,-19.53125,-27.160645,-16.357422,0.0,0.0,0.0,149.50195,66.780396,-50.01526
1766901617913,-1.1782227,0.07910156,-0.18359375,-19.53125,-27.160645,-16.357422,0.0,0.0,0.0,151.38062,67.335205,-48.94409
1766901618001,-1.0297852,0.107421875,-0.19482422,-10.192871,-28.9917,-11.352539,0.0,0.0,0.0,151.38062,67.335205,-48.94409
1766901618012,-1.0297852,0.107421875,-0.19482422,-10.192871,-28.9917,-11.352539,0.0,0.0,0.0,151.10596,70.83435,-51.61377
1766901618101,-0.97753906,0.07128906,-0.2763672,35.095215,-57.250977,22.460938,0.0,0.0,0.0,151.10596,70.83435,-51.61377
1766901618115,-0.97753906,0.07128906,-0.2763672,35.095215,-57.250977,22.460938,0.0,0.0,0.0,140.75134,74.96521,-67.88452
1766901618200,-0.7583008,0.38964844,-0.39941406,-17.76123,-55.05371,-9.82666,0.0,0.0,0.0,140.75134,74.96521,-67.88452
1766901618215,-0.7583008,0.38964844,-0.39941406,-17.76123,-55.05371,-9.82666,0.0,0.0,0.0,118.17444,77.18994,-96.7511
1766901618300,-1.0078125,-0.1171875,-0.3408203,-5.79834,91.24756,-40.100098,0.0,0.0,0.0,118.17444,77.18994,-96.7511
1766901618312,-1.0078125,-0.1171875,-0.3408203,-5.79834,91.24756,-40.100098,0.0,0.0,0.0,122.42615,75.95947,-99.124146
1766901618400,-1.1567383,0.1274414,0.5258789,12.817383,-19.958496,15.625,0.0,0.0,0.0,122.42615,75.95947,-99.124146
1766901618411,-1.1567383,0.1274414,0.5258789,12.817383,-19.958496,15.625,0.0,0.0,0.0,156.76392,68.724976,-63.89099
1766901618500,-0.9458008,0.22509766,-0.2758789,40.771484,-44.98291,55.541992,0.0,0.0,0.0,156.76392,68.724976,-63.89099
1766901618512,-0.9458008,0.22509766,-0.2758789,40.771484,-44.98291,55.541992,0.0,0.0,0.0,146.42578,70.86182,-83.80371
1766901618599,-1.0361328,0.32910156,-0.33935547,-16.235352,6.164551,0.48828125,0.0,0.0,0.0,146.42578,70.86182,-83.80371
1766901618611,-1.0361328,0.32910156,-0.33935547,-16.235352,6.164551,0.48828125,0.0,0.0,0.0,140.33386,71.520996,-94.57031
1766901618699,-1.1586914,0.1928711,0.119140625,-58.10547,-60.97412,-24.230957,0.0,0.0,0.0,140.33386,71.520996,-94.57031
1766901618712,-1.1586914,0.1928711,0.119140625,-58.10547,-60.97412,-24.230957,0.0,0.0,0.0,138.68591,71.691284,-93.51013
1766901618799,-0.65283203,-0.07910156,-0.28466797,2.5634766,-48.461914,-12.817383,0.0,0.0,0.0,138.68591,71.691284,-93.51013
1766901618810,-0.65283203,-0.07910156,-0.28466797,2.5634766,-48.461914,-12.817383,0.0,0.0,0.0,118.89404,77.60742,-114.94995
1766901618899,-1.0117188,-0.013183594,-0.43896484,-10.803223,42.48047,-1.8920898,0.0,0.0,0.0,118.89404,77.60742,-114.94995
1766901618910,-1.0117188,-0.013183594,-0.43896484,-10.803223,42.48047,-1.8920898,0.0,0.0,0.0,124.33777,79.35425,-116.74072
1766901618998,-0.95703125,0.24902344,-0.10595703,-62.98828,153.19824,-2.1362305,0.0,0.0,0.0,124.33777,79.35425,-116.74072
1766901619010,-0.95703125,0.24902344,-0.10595703,-62.98828,153.19824,-2.1362305,0.0,0.0,0.0,148.32642,69.592896,-95.34485
1766901619098,-0.96240234,0.0107421875,-0.10888672,8.911133,-51.086426,-29.724121,0.0,0.0,0.0,148.32642,69.592896,-95.34485
1766901619109,-0.96240234,0.0107421875,-0.10888672,8.911133,-51.086426,-29.724121,0.0,0.0,0.0,156.73096,66.43982,-85.92407
1766901619197,-1.1865234,0.0126953125,-0.4111328,-17.700195,-55.603027,-1.159668,0.0,0.0,0.0,156.73096,66.43982,-85.92407
1766901619209,-1.1865234,0.0126953125,-0.4111328,-17.700195,-55.603027,-1.159668,0.0,0.0,0.0,149.469,73.56445,-97.18506
1766901619297,-1.0703125,0.09277344,-0.21289062,-11.291504,1.7089844,-6.3476562,0.0,0.0,0.0,149.469,73.56445,-97.18506
1766901619309,-1.0703125,0.09277344,-0.21289062,-11.291504,1.7089844,-6.3476562,0.0,0.0,0.0,152.01782,75.6958,-97.99255
1766901619397,-0.7421875,0.14160156,-0.119628906,41.992188,-61.035156,23.55957,0.0,0.0,0.0,152.01782,75.6958,-97.99255
1766901619409,-0.7421875,0.14160156,-0.119628906,41.992188,-61.035156,23.55957,0.0,0.0,0.0,145.55786,76.67908,-111.80786
1766901619497,-0.93310547,0.2919922,-0.46435547,26.855469,-38.085938,2.0141602,0.0,0.0,0.0,145.55786,76.67908,-111.80786
1766901619508,-0.93310547,0.2919922,-0.46435547,26.855469,-38.085938,2.0141602,0.0,0.0,0.0,115.669556,77.81616,-151.50146
1766901619596,-0.9628906,0.06933594,-0.2841797,-16.723633,128.84521,-19.104004,0.0,0.0,0.0,115.669556,77.81616,-151.50146
1766901619608,-0.9628906,0.06933594,-0.2841797,-16.723633,128.84521,-19.104004,0.0,0.0,0.0,129.88037,75.39917,-144.78333
1766901619696,-1.090332,0.19873047,0.33935547,39.489746,-12.023926,34.301758,0.0,0.0,0.0,129.88037,75.39917,-144.78333
1766901619708,-1.090332,0.19873047,0.33935547,39.489746,-12.023926,34.301758,0.0,0.0,0.0,150.81482,67.06604,-126.51306
1766901619796,-0.99853516,0.2529297,-0.25390625,54.626465,-53.100586,41.56494,0.0,0.0,0.0,150.81482,67.06604,-126.51306
1766901619807,-0.99853516,0.2529297,-0.25390625,54.626465,-53.100586,41.56494,0.0,0.0,0.0,139.39453,69.12048,-146.75537
1766901619896,-1.0292969,0.42382812,-0.27441406,-5.126953,-11.84082,4.3945312,0.0,0.0,0.0,139.39453,69.12048,-146.75537
1766901619907,-1.0292969,0.42382812,-0.27441406,-5.126953,-11.84082,4.3945312,0.0,0.0,0.0,129.1388,70.12573,-164.77295
1766901619995,-0.86816406,0.33935547,-0.18896484,-33.02002,-37.841797,-14.892578,0.0,0.0,0.0,129.1388,70.12573,-164.77295
1766901620007,-0.86816406,0.33935547,-0.18896484,-33.02002,-37.841797,-14.892578,0.0,0.0,0.0,123.49182,71.60339,-170.29358
1766901620096,-0.9042969,-0.2602539,-0.3178711,-6.8359375,-11.413574,-40.771484,0.0,0.0,0.0,123.49182,71.60339,-170.29358
1766901620106,-0.9042969,-0.2602539,-0.3178711,-6.8359375,-11.413574,-40.771484,0.0,0.0,0.0,113.757935,74.0863,176.91284
1766901620195,-0.98535156,0.37841797,-0.2680664,6.591797,86.79199,33.63037,0.0,0.0,0.0,113.757935,74.0863,176.91284
1766901620206,-0.98535156,0.37841797,-0.2680664,6.591797,86.79199,33.63037,0.0,0.0,0.0,129.08386,73.24036,-172.69409
1766901620294,-1.0307617,0.2524414,0.32226562,-19.042969,39.67285,-11.962891,0.0,0.0,0.0,129.08386,73.24036,-172.69409
1766901620306,-1.0307617,0.2524414,0.32226562,-19.042969,39.67285,-11.962891,0.0,0.0,0.0,143.86597,64.97864,-157.97241
1766901620394,-0.99609375,0.22265625,-0.234375,-19.592285,-36.376953,-12.573242,0.0,0.0,0.0,143.86597,64.97864,-157.97241
1766901620409,-0.99609375,0.22265625,-0.234375,-19.592285,-36.376953,-12.573242,0.0,0.0,0.0,143.90991,67.59888,-159.04907
1766901620494,-1.1450195,0.07763672,-0.35498047,-14.831543,-18.554688,-27.70996,0.0,0.0,0.0,143.90991,67.59888,-159.04907
1766901620508,-1.1450195,0.07763672,-0.35498047,-14.831543,-18.554688,-27.70996,0.0,0.0,0.0,140.44373,71.378174,-163.4436
1766901620594,-1.2709961,0.11035156,0.07910156,10.192871,-31.799316,15.686035,0.0,0.0,0.0,140.44373,71.378174,-163.4436
1766901620605,-1.2709961,0.11035156,0.07910156,10.192871,-31.799316,15.686035,0.0,0.0,0.0,142.25098,72.72949,-164.2456
1766901620694,-0.5595703,0.25634766,-0.1538086,64.88037,-98.57178,52.18506,0.0,0.0,0.0,142.25098,72.72949,-164.2456
1766901620705,-0.5595703,0.25634766,-0.1538086,64.88037,-98.57178,52.18506,0.0,0.0,0.0,116.57593,75.459595,158.53271
1766901620793,-0.9033203,0.24121094,-0.52685547,42.72461,-13.916016,17.456055,0.0,0.0,0.0,116.57593,75.459595,158.53271
1766901620804,-0.9033203,0.24121094,-0.52685547,42.72461,-13.916016,17.456055,0.0,0.0,0.0,95.163574,74.679565,129.58374
1766901620893,-0.98828125,0.123046875,-0.29052734,-46.14258,181.64062,-64.208984,0.0,0.0,0.0,95.163574,74.679565,129.58374
1766901620904,-0.98828125,0.123046875,-0.29052734,-46.14258,181.64062,-64.208984,0.0,0.0,0.0,133.8739,72.630615,162.61414
1766901620993,-0.97802734,0.20703125,0.068847656,76.23291,-59.936523,13.73291,0.0,0.0,0.0,133.8739,72.630615,162.61414
1766901621004,-0.97802734,0.20703125,0.068847656,76.23291,-59.936523,13.73291,0.0,0.0,0.0,149.82605,68.17566,179.32434
1766901621092,-1.0185547,0.1616211,-0.3491211,31.00586,-71.59424,20.080566,0.0,0.0,0.0,149.82605,68.17566,179.32434
1766901621104,-1.0185547,0.1616211,-0.3491211,31.00586,-71.59424,20.080566,0.0,0.0,0.0,134.63745,72.58118,155.41809
1766901621192,-1.1269531,0.40283203,-0.22558594,-62.25586,30.090332,1.953125,0.0,0.0,0.0,134.63745,72.58118,155.41809
1766901621203,-1.1269531,0.40283203,-0.22558594,-62.25586,30.090332,1.953125,0.0,0.0,0.0,129.06189,72.65259,146.64551
1766901621291,-0.77197266,-0.0107421875,-0.10253906,-16.174316,-20.324707,-14.953613,0.0,0.0,0.0,129.06189,72.65259,146.64551
1766901621303,-0.77197266,-0.0107421875,-0.10253906,-16.174316,-20.324707,-14.953613,0.0,0.0,0.0,128.68835,73.50952,146.09619
1766901621391,-0.9711914,0.076171875,-0.34277344,6.7749023,-34.729004,9.521484,0.0,0.0,0.0,128.68835,73.50952,146.09619
1766901621404,-0.9711914,0.076171875,-0.34277344,6.7749023,-34.729004,9.521484,0.0,0.0,0.0,122.95349,75.877075,133.4784
1766901621491,-0.8364258,0.2602539,-0.27441406,-29.11377,88.50098,-3.479004,0.0,0.0,0.0,122.95349,75.877075,133.4784
1766901621502,-0.8364258,0.2602539,-0.27441406,-29.11377,88.50098,-3.479004,0.0,0.0,0.0,130.22644,72.68555,135.90088
1766901621591,-1.0854492,0.19238281,0.29345703,-34.91211,42.907715,-12.329102,0.0,0.0,0.0,130.22644,72.68555,135.90088
1766901621603,-1.0854492,0.19238281,0.29345703,-34.91211,42.907715,-12.329102,0.0,0.0,0.0,149.0625,66.61011,155.62683
1766901621690,-1.0981445,0.17285156,-0.35351562,-2.380371,-66.77246,-7.6904297,0.0,0.0,0.0,149.0625,66.61011,155.62683
1766901621703,-1.0981445,0.17285156,-0.35351562,-2.380371,-66.77246,-7.6904297,0.0,0.0,0.0,145.2887,71.207886,148.51868
1766901621790,-1.1098633,0.057617188,-0.26123047,-25.6958,34.362793,-24.902344,0.0,0.0,0.0,145.2887,71.207886,148.51868
1766901621801,-1.1098633,0.057617188,-0.26123047,-25.6958,34.362793,-24.902344,0.0,0.0,0.0,145.25574,72.95471,145.71716
1766901621890,-0.80126953,0.08691406,-0.1850586,54.138184,-63.415527,29.907227,0.0,0.0,0.0,145.25574,72.95471,145.71716
1766901621901,-0.80126953,0.08691406,-0.1850586,54.138184,-63.415527,29.907227,0.0,0.0,0.0,141.41602,75.201416,134.82422
1766901621989,-0.89404297,0.44677734,-0.5410156,12.268066,-67.74902,-4.211426,0.0,0.0,0.0,141.41602,75.201416,134.82422
1766901622001,-0.89404297,0.44677734,-0.5410156,12.268066,-67.74902,-4.211426,0.0,0.0,0.0,112.91748,77.55798,97.35535
1766901622089,-0.91552734,-0.0390625,-0.33935547,10.253906,98.02246,-29.846191,0.0,0.0,0.0,112.91748,77.55798,97.35535
1766901622100,-0.91552734,-0.0390625,-0.33935547,10.253906,98.02246,-29.846191,0.0,0.0,0.0,123.359985,75.025635,99.72839
1766901622189,-1.2792969,0.34521484,0.65771484,-24.169922,20.751953,-1.6479492,0.0,0.0,0.0,123.359985,75.025635,99.72839
1766901622200,-1.2792969,0.34521484,0.65771484,-24.169922,20.751953,-1.6479492,0.0,0.0,0.0,155.06653,67.70325,131.17676
1766901622289,-0.9526367,0.16796875,-0.27783203,35.095215,-44.98291,40.222168,0.0,0.0,0.0,155.06653,67.70325,131.17676
1766901622300,-0.9526367,0.16796875,-0.27783203,35.095215,-44.98291,40.222168,0.0,0.0,0.0,147.16736,70.54321,114.75769
1766901622388,-1.0419922,0.41845703,-0.28857422,-22.583008,24.169922,-6.591797,0.0,0.0,0.0,147.16736,70.54321,114.75769
1766901622400,-1.0419922,0.41845703,-0.28857422,-22.583008,24.169922,-6.591797,0.0,0.0,0.0,142.1466,71.16394,104.72717
1766901622488,-1.1791992,0.33789062,-0.25878906,-20.446777,-83.25195,-20.080566,0.0,0.0,0.0,142.1466,71.16394,104.72717
1766901622500,-1.1791992,0.33789062,-0.25878906,-20.446777,-83.25195,-20.080566,0.0,0.0,0.0,136.21399,73.828125,100.59082
1766901622588,-0.6660156,-0.22314453,-0.31054688,24.047852,-18.249512,-23.55957,0.0,0.0,0.0,136.21399,73.828125,100.59082
1766901622599,-0.6660156,-0.22314453,-0.31054688,24.047852,-18.249512,-23.55957,0.0,0.0,0.0,118.01514,78.24463,80.18921
1766901622687,-0.98779297,-0.027832031,-0.41552734,-13.366699,62.25586,21.850586,0.0,0.0,0.0,118.01514,78.24463,80.18921
1766901622702,-0.98779297,-0.027832031,-0.41552734,-13.366699,62.25586,21.850586,0.0,0.0,0.0,134.28589,78.08533,87.65991
1766901622787,-0.9291992,0.31445312,-0.037109375,-39.42871,137.02393,-14.465332,0.0,0.0,0.0,134.28589,78.08533,87.65991
1766901622798,-0.9291992,0.31445312,-0.037109375,-39.42871,137.02393,-14.465332,0.0,0.0,0.0,148.21106,66.297,96.45447
1766901622888,-0.98876953,0.18310547,-0.2788086,-5.554199,-51.879883,-0.24414062,0.0,0.0,0.0,148.21106,66.297,96.45447
1766901622899,-0.98876953,0.18310547,-0.2788086,-5.554199,-51.879883,-0.24414062,0.0,0.0,0.0,151.3092,67.263794,96.39404
1766901622987,-1.0703125,0.05126953,-0.39892578,-21.1792,-7.9956055,-1.6479492,0.0,0.0,0.0,151.3092,67.263794,96.39404
1766901622999,-1.0703125,0.05126953,-0.39892578,-21.1792,-7.9956055,-1.6479492,0.0,0.0,0.0,144.646,70.57068,85.825195
1766901623086,-1.1474609,0.15966797,-0.14257812,-37.109375,52.67334,-18.493652,0.0,0.0,0.0,144.646,70.57068,85.825195
1766901623098,-1.1474609,0.15966797,-0.14257812,-37.109375,52.67334,-18.493652,0.0,0.0,0.0,149.6997,69.06555,88.84094
1766901623186,-0.8808594,0.095703125,-0.2290039,65.18555,-115.29541,36.43799,0.0,0.0,0.0,149.6997,69.06555,88.84094
1766901623197,-0.8808594,0.095703125,-0.2290039,65.18555,-115.29541,36.43799,0.0,0.0,0.0,141.93787,73.40515,74.44336
1766901623286,-0.87060547,0.45410156,-0.6113281,-10.925293,-79.956055,-12.634277,0.0,0.0,0.0,141.93787,73.40515,74.44336
1766901623297,-0.87060547,0.45410156,-0.6113281,-10.925293,-79.956055,-12.634277,0.0,0.0,0.0,102.93091,77.04712,24.483032
1766901623385,-0.9003906,-0.04248047,-0.3701172,4.0893555,130.06592,-41.625977,0.0,0.0,0.0,102.93091,77.04712,24.483032
1766901623397,-0.9003906,-0.04248047,-0.3701172,4.0893555,130.06592,-41.625977,0.0,0.0,0.0,114.592896,75.19592,28.026123
1766901623485,-1.3535156,0.20263672,0.9272461,-58.776855,-5.3710938,8.666992,0.0,0.0,0.0,114.592896,75.19592,28.026123
1766901623496,-1.3535156,0.20263672,0.9272461,-58.776855,-5.3710938,8.666992,0.0,0.0,0.0,153.02856,65.753174,67.64282
1766901623585,-0.99609375,0.18359375,-0.32714844,46.020508,-89.538574,43.823242,0.0,0.0,0.0,153.02856,65.753174,67.64282
1766901623597,-0.99609375,0.18359375,-0.32714844,46.020508,-89.538574,43.823242,0.0,0.0,0.0,141.1908,71.674805,43.780518
1766901623684,-0.9291992,0.42529297,-0.3461914,-18.005371,6.286621,2.8076172,0.0,0.0,0.0,141.1908,71.674805,43.780518
1766901623696,-0.9291992,0.42529297,-0.3461914,-18.005371,6.286621,2.8076172,0.0,0.0,0.0,125.16724,73.34473,17.858276
1766901623784,-1.0766602,0.2421875,-0.080566406,-46.813965,10.253906,-27.70996,0.0,0.0,0.0,125.16724,73.34473,17.858276
1766901623795,-1.0766602,0.2421875,-0.080566406,-46.813965,10.253906,-27.70996,0.0,0.0,0.0,128.35327,72.74048,20.527954
1766901623884,-0.7441406,-0.2578125,-0.20800781,37.04834,-28.625488,-31.860352,0.0,0.0,0.0,128.35327,72.74048,20.527954
1766901623897,-0.7441406,-0.2578125,-0.20800781,37.04834,-28.625488,-31.860352,0.0,0.0,0.0,127.369995,76.014404,14.293213
1766901623983,-1.0673828,0.42529297,-0.4248047,42.419434,36.499023,72.99805,0.0,0.0,0.0,127.369995,76.014404,14.293213
1766901623995,-1.0673828,0.42529297,-0.4248047,42.419434,36.499023,72.99805,0.0,0.0,0.0,125.16174,75.1355,1.5325928
1766901624083,-0.8930664,0.08496094,-0.111816406,-42.96875,102.72217,-19.104004,0.0,0.0,0.0,125.16174,75.1355,1.5325928
1766901624095,-0.8930664,0.08496094,-0.111816406,-42.96875,102.72217,-19.104004,0.0,0.0,0.0,141.80054,68.40637,14.941406
1766901624183,-1.1098633,0.08642578,-0.1328125,-23.68164,-40.100098,-19.89746,0.0,0.0,0.0,141.80054,68.40637,14.941406
1766901624194,-1.1098633,0.08642578,-0.1328125,-23.68164,-40.100098,-19.89746,0.0,0.0,0.0,150.03479,66.78589,23.164673
1766901624283,-1.0991211,0.013183594,-0.29296875,-9.033203,-21.1792,-11.84082,0.0,0.0,0.0,150.03479,66.78589,23.164673
1766901624294,-1.0991211,0.013183594,-0.29296875,-9.033203,-21.1792,-11.84082,0.0,0.0,0.0,147.74963,71.762695,17.01233
1766901624382,-1.1875,0.13085938,-0.0068359375,29.846191,-50.78125,15.380859,0.0,0.0,0.0,147.74963,71.762695,17.01233
1766901624397,-1.1875,0.13085938,-0.0068359375,29.846191,-50.78125,15.380859,0.0,0.0,0.0,146.99707,73.05359,10.107422
1766901624482,-0.64404297,0.2241211,-0.22460938,43.884277,-81.48193,49.1333,0.0,0.0,0.0,146.99707,73.05359,10.107422
1766901624494,-0.64404297,0.2241211,-0.22460938,43.884277,-81.48193,49.1333,0.0,0.0,0.0,125.17822,76.24512,-23.670044
1766901624582,-0.9379883,0.24609375,-0.55371094,36.56006,-16.784668,13.183594,0.0,0.0,0.0,125.17822,76.24512,-23.670044
1766901624593,-0.9379883,0.24609375,-0.55371094,36.56006,-16.784668,13.183594,0.0,0.0,0.0,99.84375,76.47034,-56.92566
1766901624682,-0.9350586,0.008300781,-0.34423828,-37.53662,141.54053,-51.02539,0.0,0.0,0.0,99.84375,76.47034,-56.92566
1766901624693,-0.9350586,0.008300781,-0.34423828,-37.53662,141.54053,-51.02539,0.0,0.0,0.0,124.854126,74.36096,-39.484863
1766901624781,-1.3125,0.20019531,0.67626953,-30.822754,-5.1879883,-0.91552734,0.0,0.0,0.0,124.854126,74.36096,-39.484863
1766901624793,-1.3125,0.20019531,0.67626953,-30.822754,-5.1879883,-0.91552734,0.0,0.0,0.0,153.02856,66.450806,-10.744629
1766901624881,-0.9536133,0.10498047,-0.23242188,32.165527,-88.92822,31.25,0.0,0.0,0.0,153.02856,66.450806,-10.744629
1766901624892,-0.9536133,0.10498047,-0.23242188,32.165527,-88.92822,31.25,0.0,0.0,0.0,143.54187,71.06506,-29.360962
1766901624981,-1.1552734,0.45263672,-0.3857422,-38.57422,-11.84082,-5.432129,0.0,0.0,0.0,143.54187,71.06506,-29.360962
1766901624992,-1.1552734,0.45263672,-0.3857422,-38.57422,-11.84082,-5.432129,0.0,0.0,0.0,125.82092,74.13574,-54.56909
1766901625081,-0.8745117,0.075683594,-0.16210938,-47.973633,13.061523,-26.000977,0.0,0.0,0.0,125.82092,74.13574,-54.56909
1766901625092,-0.8745117,0.075683594,-0.16210938,-47.973633,13.061523,-26.000977,0.0,0.0,0.0,127.908325,74.40491,-52.646484
1766901625180,-0.8364258,-0.104003906,-0.21191406,5.126953,-5.065918,-14.465332,0.0,0.0,0.0,127.908325,74.40491,-52.646484
1766901625191,-0.8364258,-0.104003906,-0.21191406,5.126953,-5.065918,-14.465332,0.0,0.0,0.0,136.31836,76.311035,-49.647217
1766901625280,-1.027832,0.32470703,-0.29736328,-0.24414062,35.095215,36.43799,0.0,0.0,0.0,136.31836,76.311035,-49.647217
1766901625291,-1.027832,0.32470703,-0.29736328,-0.24414062,35.095215,36.43799,0.0,0.0,0.0,135.06042,73.21289,-58.826294
1766901625380,-0.9404297,0.11669922,-0.15478516,-23.80371,63.720703,-20.324707,0.0,0.0,0.0,135.06042,73.21289,-58.826294
1766901625391,-0.9404297,0.11669922,-0.15478516,-23.80371,63.720703,-20.324707,0.0,0.0,0.0,146.94214,68.845825,-50.421753
1766901625480,-1.0629883,0.13574219,-0.12207031,-10.559082,-25.08545,-6.286621,0.0,0.0,0.0,146.94214,68.845825,-50.421753
1766901625490,-1.0629883,0.13574219,-0.12207031,-10.559082,-25.08545,-6.286621,0.0,0.0,0.0,150.49072,67.91199,-49.537354
1766901625579,-1.0922852,0.096191406,-0.27246094,-2.9907227,-37.109375,0.79345703,0.0,0.0,0.0,150.49072,67.91199,-49.537354
1766901625590,-1.0922852,0.096191406,-0.27246094,-2.9907227,-37.109375,0.79345703,0.0,0.0,0.0,144.44824,72.41638,-60.54016
1766901625678,-1.1704102,0.06591797,-0.044921875,27.46582,-61.035156,14.892578,0.0,0.0,0.0,144.44824,72.41638,-60.54016
1766901625690,-1.1704102,0.06591797,-0.044921875,27.46582,-61.035156,14.892578,0.0,0.0,0.0,138.64197,74.245605,-72.62512
1766901625778,-0.60839844,0.3569336,-0.20654297,24.108887,-86.60889,41.931152,0.0,0.0,0.0,138.64197,74.245605,-72.62512
1766901625790,-0.60839844,0.3569336,-0.20654297,24.108887,-86.60889,41.931152,0.0,0.0,0.0,110.286255,76.278076,-112.41211
1766901625878,-0.85546875,0.033203125,-0.45654297,37.65869,8.300781,2.4414062,0.0,0.0,0.0,110.286255,76.278076,-112.41211
1766901625890,-0.85546875,0.033203125,-0.45654297,37.65869,8.300781,2.4414062,0.0,0.0,0.0,93.07068,75.83313,-135.76355
1766901625977,-1.0893555,0.05078125,-0.23828125,-49.25537,208.43506,-62.072754,0.0,0.0,0.0,93.07068,75.83313,-135.76355
1766901625989,-1.0893555,0.05078125,-0.23828125,-49.25537,208.43506,-62.072754,0.0,0.0,0.0,140.89966,73.58093,-91.42273
1766901626077,-0.9995117,0.24169922,0.017578125,92.77344,-49.926758,24.169922,0.0,0.0,0.0,140.89966,73.58093,-91.42273
1766901626089,-0.9995117,0.24169922,0.017578125,92.77344,-49.926758,24.169922,0.0,0.0,0.0,156.43433,68.07129,-78.6676
1766901626177,-1.0097656,0.14648438,-0.36376953,49.01123,-80.50537,34.118652,0.0,0.0,0.0,156.43433,68.07129,-78.6676
1766901626188,-1.0097656,0.14648438,-0.36376953,49.01123,-80.50537,34.118652,0.0,0.0,0.0,138.55957,73.55896,-109.22058
1766901626277,-1.0683594,0.3413086,-0.28466797,-39.611816,17.944336,3.540039,0.0,0.0,0.0,138.55957,73.55896,-109.22058
1766901626288,-1.0683594,0.3413086,-0.28466797,-39.611816,17.944336,3.540039,0.0,0.0,0.0,129.71558,73.690796,-124.420166
1766901626376,-0.8388672,0.034179688,-0.14746094,-49.25537,6.713867,-21.1792,0.0,0.0,0.0,129.71558,73.690796,-124.420166
1766901626388,-0.8388672,0.034179688,-0.14746094,-49.25537,6.713867,-21.1792,0.0,0.0,0.0,132.52258,73.76221,-122.59094
1766901626476,-0.99658203,-0.04345703,-0.24707031,32.226562,-7.6904297,14.6484375,0.0,0.0,0.0,132.52258,73.76221,-122.59094
1766901626487,-0.99658203,-0.04345703,-0.24707031,32.226562,-7.6904297,14.6484375,0.0,0.0,0.0,138.01025,74.66858,-123.17871
1766901626576,-0.828125,0.25683594,-0.2290039,-1.7089844,54.19922,23.498535,0.0,0.0,0.0,138.01025,74.66858,-123.17871
1766901626587,-0.828125,0.25683594,-0.2290039,-1.7089844,54.19922,23.498535,0.0,0.0,0.0,134.80774,70.40588,-136.95557
1766901626675,-0.9482422,0.14160156,-0.03466797,23.19336,-3.6621094,-24.230957,0.0,0.0,0.0,134.80774,70.40588,-136.95557
1766901626687,-0.9482422,0.14160156,-0.03466797,23.19336,-3.6621094,-24.230957,0.0,0.0,0.0,143.65723,68.8678,-131.00647
1766901626775,-1.0229492,0.20507812,-0.27734375,-33.87451,3.0517578,-8.300781,0.0,0.0,0.0,143.65723,68.8678,-131.00647
1766901626787,-1.0229492,0.20507812,-0.27734375,-33.87451,3.0517578,-8.300781,0.0,0.0,0.0,143.93738,70.53772,-133.67065
1766901626875,-1.1816406,0.04736328,-0.04345703,-9.94873,-6.7749023,-11.108398,0.0,0.0,0.0,143.93738,70.53772,-133.67065
1766901626886,-1.1816406,0.04736328,-0.04345703,-9.94873,-6.7749023,-11.108398,0.0,0.0,0.0,147.18933,70.78491,-132.56104
1766901626975,-1.1533203,0.12158203,-0.3251953,59.753418,-84.7168,40.46631,0.0,0.0,0.0,147.18933,70.78491,-132.56104
1766901626986,-1.1533203,0.12158203,-0.3251953,59.753418,-84.7168,40.46631,0.0,0.0,0.0,133.64319,74.55322,-155.28625
1766901627075,-0.5654297,0.5029297,-0.3232422,-38.269043,-41.56494,-21.42334,0.0,0.0,0.0,133.64319,74.55322,-155.28625
1766901627086,-0.5654297,0.5029297,-0.3232422,-38.269043,-41.56494,-21.42334,0.0,0.0,0.0,109.78088,75.10254,169.76624
1766901627174,-1.0078125,-0.020507812,-0.46191406,44.189453,56.640625,-10.559082,0.0,0.0,0.0,109.78088,75.10254,169.76624
1766901627189,-1.0078125,-0.020507812,-0.46191406,44.189453,56.640625,-10.559082,0.0,0.0,0.0,107.21008,74.19617,160.96619
1766901627274,-1.1826172,0.33496094,0.5390625,-54.870605,146.60645,-47.546387,0.0,0.0,0.0,107.21008,74.19617,160.96619
1766901627285,-1.1826172,0.33496094,0.5390625,-54.870605,146.60645,-47.546387,0.0,0.0,0.0,148.88672,68.71948,-159.84558
1766901627373,-1.0024414,0.2783203,-0.24804688,34.973145,-36.499023,48.15674,0.0,0.0,0.0,148.88672,68.71948,-159.84558
1766901627385,-1.0024414,0.2783203,-0.24804688,34.973145,-36.499023,48.15674,0.0,0.0,0.0,148.47473,69.9884,-167.10205
1766901627473,-1.0302734,0.2475586,-0.3071289,-1.7089844,-5.3710938,0.0,0.0,0.0,0.0,148.47473,69.9884,-167.10205
1766901627484,-1.0302734,0.2475586,-0.3071289,-1.7089844,-5.3710938,0.0,0.0,0.0,0.0,140.96558,71.46057,176.91833
1766901627573,-1.1499023,0.32714844,-0.1640625,-32.53174,-32.714844,-8.361816,0.0,0.0,0.0,140.96558,71.46057,176.91833
1766901627584,-1.1499023,0.32714844,-0.1640625,-32.53174,-32.714844,-8.361816,0.0,0.0,0.0,137.01599,71.987915,170.66711
1766901627673,-0.72314453,-0.14746094,-0.23046875,-18.188477,-13.549805,-25.20752,0.0,0.0,0.0,137.01599,71.987915,170.66711
1766901627684,-0.72314453,-0.14746094,-0.23046875,-18.188477,-13.549805,-25.20752,0.0,0.0,0.0,127.79297,74.83887,158.18115
1766901627772,-1.0048828,0.08691406,-0.39013672,10.131836,-5.065918,17.27295,0.0,0.0,0.0,127.79297,74.83887,158.18115
1766901627784,-1.0048828,0.08691406,-0.39013672,10.131836,-5.065918,17.27295,0.0,0.0,0.0,131.47888,76.26709,154.88525
1766901627872,-0.9980469,0.25732422,0.06591797,-66.52832,111.02295,-14.099121,0.0,0.0,0.0,131.47888,76.26709,154.88525
1766901627884,-0.9980469,0.25732422,0.06591797,-66.52832,111.02295,-14.099121,0.0,0.0,0.0,140.59753,71.13098,159.03809
1766901627972,-0.88183594,0.11035156,-0.17919922,1.7700195,5.065918,-4.5166016,0.0,0.0,0.0,140.59753,71.13098,159.03809
1766901627983,-0.88183594,0.11035156,-0.17919922,1.7700195,5.065918,-4.5166016,0.0,0.0,0.0,147.0575,71.12549,164.4104
1766901628071,-1.1865234,0.08203125,-0.23876953,-50.29297,20.080566,-18.432617,0.0,0.0,0.0,147.0575,71.12549,164.4104
1766901628084,-1.1865234,0.08203125,-0.23876953,-50.29297,20.080566,-18.432617,0.0,0.0,0.0,145.65674,71.328735,161.90552
1766901628172,-1.2128906,0.03515625,-0.080078125,19.28711,-68.54248,2.1362305,0.0,0.0,0.0,145.65674,71.328735,161.90552
1766901628182,-1.2128906,0.03515625,-0.080078125,19.28711,-68.54248,2.1362305,0.0,0.0,0.0,149.99634,74.43237,165.34424
1766901628271,-0.8203125,0.13427734,-0.25878906,55.786133,-69.885254,41.19873,0.0,0.0,0.0,149.99634,74.43237,165.34424
1766901628282,-0.8203125,0.13427734,-0.25878906,55.786133,-69.885254,41.19873,0.0,0.0,0.0,123.87085,77.84912,127.35901
1766901628371,-0.6826172,0.34033203,-0.390625,13.916016,-13.73291,14.282227,0.0,0.0,0.0,123.87085,77.84912,127.35901
1766901628382,-0.6826172,0.34033203,-0.390625,13.916016,-13.73291,14.282227,0.0,0.0,0.0,104.364624,76.82739,98.86047
1766901628470,-1.0883789,0.041992188,-0.3647461,-24.597168,118.16406,-40.039062,0.0,0.0,0.0,104.364624,76.82739,98.86047
1766901628482,-1.0883789,0.041992188,-0.3647461,-24.597168,118.16406,-40.039062,0.0,0.0,0.0,119.10828,74.91028,105.737915
1766901628570,-1.0126953,0.11279297,0.31298828,24.291992,-34.851074,-10.192871,0.0,0.0,0.0,119.10828,74.91028,105.737915
1766901628581,-1.0126953,0.11279297,0.31298828,24.291992,-34.851074,-10.192871,0.0,0.0,0.0,151.58936,68.40637,139.44397
1766901628670,-0.93115234,0.15039062,-0.2993164,38.33008,-26.611328,15.258789,0.0,0.0,0.0,151.58936,68.40637,139.44397
1766901628682,-0.93115234,0.15039062,-0.2993164,38.33008,-26.611328,15.258789,0.0,0.0,0.0,146.60156,71.60889,125.41443
1766901628771,-1.0766602,0.37646484,-0.24804688,-8.666992,32.592773,7.080078,0.0,0.0,0.0,146.60156,71.60889,125.41443
1766901628781,-1.0766602,0.37646484,-0.24804688,-8.666992,32.592773,7.080078,0.0,0.0,0.0,146.06873,70.806885,118.14148
1766901628869,-1.1665039,0.23046875,-0.05126953,-18.920898,-44.799805,-4.211426,0.0,0.0,0.0,146.06873,70.806885,118.14148
1766901628881,-1.1665039,0.23046875,-0.05126953,-18.920898,-44.799805,-4.211426,0.0,0.0,0.0,143.94836,70.83435,114.3512
1766901628969,-0.7480469,0.095703125,-0.2919922,-4.5166016,-88.68408,10.620117,0.0,0.0,0.0,143.94836,70.83435,114.3512
1766901628980,-0.7480469,0.095703125,-0.2919922,-4.5166016,-88.68408,10.620117,0.0,0.0,0.0,121.61316,75.7782,88.412476
1766901629068,-0.95410156,-0.04345703,-0.50341797,10.009766,-12.207031,-7.080078,0.0,0.0,0.0,121.61316,75.7782,88.412476
1766901629080,-0.95410156,-0.04345703,-0.50341797,10.009766,-12.207031,-7.080078,0.0,0.0,0.0,103.48572,76.78894,60.803833
1766901629168,-0.96728516,0.39404297,-0.24414062,-67.93213,175.65918,-31.555176,0.0,0.0,0.0,103.48572,76.78894,60.803833
1766901629179,-0.96728516,0.39404297,-0.24414062,-67.93213,175.65918,-31.555176,0.0,0.0,0.0,138.27942,70.36743,92.56531
1766901629268,-1.0620117,0.0234375,0.3100586,3.1738281,-31.311035,-24.169922,0.0,0.0,0.0,138.27942,70.36743,92.56531
1766901629282,-1.0620117,0.0234375,0.3100586,3.1738281,-31.311035,-24.169922,0.0,0.0,0.0,152.10022,63.24829,109.451294
1766901629367,-1.078125,0.14941406,-0.36865234,10.559082,-64.7583,13.122559,0.0,0.0,0.0,152.10022,63.24829,109.451294
1766901629379,-1.078125,0.14941406,-0.36865234,10.559082,-64.7583,13.122559,0.0,0.0,0.0,144.77234,71.24634,95.49866
1766901629467,-1.0283203,0.122558594,-0.25634766,-14.343262,36.132812,-10.437012,0.0,0.0,0.0,144.77234,71.24634,95.49866
1766901629479,-1.0283203,0.122558594,-0.25634766,-14.343262,36.132812,-10.437012,0.0,0.0,0.0,144.25049,71.61987,89.055176
1766901629567,-1.1616211,0.09863281,-0.13232422,50.231934,-57.678223,29.846191,0.0,0.0,0.0,144.25049,71.61987,89.055176
1766901629578,-1.1616211,0.09863281,-0.13232422,50.231934,-57.678223,29.846191,0.0,0.0,0.0,143.6792,71.47705,80.95276
1766901629667,-0.6269531,0.44628906,-0.31152344,-32.226562,-66.589355,-18.310547,0.0,0.0,0.0,143.6792,71.47705,80.95276
1766901629678,-0.6269531,0.44628906,-0.31152344,-32.226562,-66.589355,-18.310547,0.0,0.0,0.0,120.03113,75.40466,47.389526
1766901629766,-1.0786133,-0.087402344,-0.56347656,42.96875,18.127441,-0.79345703,0.0,0.0,0.0,120.03113,75.40466,47.389526
1766901629778,-1.0786133,-0.087402344,-0.56347656,42.96875,18.127441,-0.79345703,0.0,0.0,0.0,105.979614,75.25635,25.098267
1766901629866,-1.0390625,0.19921875,-0.16210938,-51.757812,203.3081,-54.748535,0.0,0.0,0.0,105.979614,75.25635,25.098267
1766901629877,-1.0390625,0.19921875,-0.16210938,-51.757812,203.3081,-54.748535,0.0,0.0,0.0,152.36389,68.45032,70.66406
1766901629966,-0.9819336,0.28222656,-0.16210938,116.08887,-56.640625,40.893555,0.0,0.0,0.0,152.36389,68.45032,70.66406
1766901629977,-0.9819336,0.28222656,-0.16210938,116.08887,-56.640625,40.893555,0.0,0.0,0.0,157.23083,67.197876,71.20239
1766901630065,-1.0429688,0.265625,-0.3935547,29.11377,-75.25635,24.475098,0.0,0.0,0.0,157.23083,67.197876,71.20239
1766901630077,-1.0429688,0.265625,-0.3935547,29.11377,-75.25635,24.475098,0.0,0.0,0.0,140.34485,73.377686,43.275146
1766901630165,-1.0556641,0.18457031,-0.30908203,-35.949707,5.432129,-7.507324,0.0,0.0,0.0,140.34485,73.377686,43.275146
1766901630177,-1.0556641,0.18457031,-0.30908203,-35.949707,5.432129,-7.507324,0.0,0.0,0.0,131.43494,74.262085,29.6521
1766901630265,-0.67041016,-0.09472656,-0.123046875,-10.070801,37.902832,-20.629883,0.0,0.0,0.0,131.43494,74.262085,29.6521
1766901630276,-0.67041016,-0.09472656,-0.123046875,-10.070801,37.902832,-20.629883,0.0,0.0,0.0,138.6145,73.43811,34.44214
1766901630365,-1.1293945,0.28271484,-0.31445312,24.414062,-4.5166016,32.287598,0.0,0.0,0.0,138.6145,73.43811,34.44214
1766901630376,-1.1293945,0.28271484,-0.31445312,24.414062,-4.5166016,32.287598,0.0,0.0,0.0,143.40454,72.34497,31.816406
1766901630464,-0.7910156,0.083496094,-0.22509766,10.986328,35.40039,-9.643555,0.0,0.0,0.0,143.40454,72.34497,31.816406
1766901630476,-0.7910156,0.083496094,-0.22509766,10.986328,35.40039,-9.643555,0.0,0.0,0.0,142.0752,69.32922,23.285522
1766901630564,-0.9589844,0.13085938,-0.20654297,-7.446289,35.827637,0.4272461,0.0,0.0,0.0,142.0752,69.32922,23.285522
1766901630575,-0.9589844,0.13085938,-0.20654297,-7.446289,35.827637,0.4272461,0.0,0.0,0.0,150.7544,66.75293,27.119751
1766901630664,-1.1245117,0.075683594,-0.26611328,-5.6762695,-16.845703,-9.82666,0.0,0.0,0.0,150.7544,66.75293,27.119751
1766901630675,-1.1245117,0.075683594,-0.26611328,-5.6762695,-16.845703,-9.82666,0.0,0.0,0.0,153.45703,66.796875,24.68628
1766901630763,-1.1523438,0.13378906,-0.22070312,-18.676758,-16.967773,-8.605957,0.0,0.0,0.0,153.45703,66.796875,24.68628
1766901630775,-1.1523438,0.13378906,-0.22070312,-18.676758,-16.967773,-8.605957,0.0,0.0,0.0,152.39136,69.20288,18.303223
1766901630864,-0.81347656,0.14501953,-0.16455078,30.212402,-75.68359,20.202637,0.0,0.0,0.0,152.39136,69.20288,18.303223
1766901630875,-0.81347656,0.14501953,-0.16455078,30.212402,-75.68359,20.202637,0.0,0.0,0.0,145.06897,72.95471,3.4002686
1766901630963,-0.8803711,0.41308594,-0.4975586,-2.8076172,-55.236816,-2.319336,0.0,0.0,0.0,145.06897,72.95471,3.4002686
1766901630974,-0.8803711,0.41308594,-0.4975586,-2.8076172,-55.236816,-2.319336,0.0,0.0,0.0,120.19043,76.640625,-28.773193
1766901631063,-0.875,0.005859375,-0.36083984,-34.118652,118.2251,-54.56543,0.0,0.0,0.0,120.19043,76.640625,-28.773193
1766901631074,-0.875,0.005859375,-0.36083984,-34.118652,118.2251,-54.56543,0.0,0.0,0.0,129.6222,75.72327,-27.213135
1766901631162,-1.1875,0.2475586,0.1328125,-8.300781,92.40723,-6.225586,0.0,0.0,0.0,129.6222,75.72327,-27.213135
1766901631176,-1.1875,0.2475586,0.1328125,-8.300781,92.40723,-6.225586,0.0,0.0,0.0,160.10925,65.286255,2.0489502
1766901631262,-0.9526367,0.09277344,-0.22753906,59.08203,-102.6001,48.461914,0.0,0.0,0.0,160.10925,65.286255,2.0489502
1766901631273,-0.9526367,0.09277344,-0.22753906,59.08203,-102.6001,48.461914,0.0,0.0,0.0,155.20935,68.57117,-10.645752
1766901631363,-1.0092773,0.5078125,-0.39501953,-4.211426,-16.113281,0.12207031,0.0,0.0,0.0,155.20935,68.57117,-10.645752
1766901631373,-1.0092773,0.5078125,-0.39501953,-4.211426,-16.113281,0.12207031,0.0,0.0,0.0,137.45544,73.306274,-39.666138
1766901631461,-0.9785156,0.24951172,-0.23828125,-42.053223,-1.0986328,-20.874023,0.0,0.0,0.0,137.45544,73.306274,-39.666138
1766901631476,-0.9785156,0.24951172,-0.23828125,-42.053223,-1.0986328,-20.874023,0.0,0.0,0.0,134.0387,72.718506,-44.989014
1766901631562,-0.7348633,-0.31640625,-0.22949219,22.033691,-13.549805,-31.61621,0.0,0.0,0.0,134.0387,72.718506,-44.989014
1766901631573,-0.7348633,-0.31640625,-0.22949219,22.033691,-13.549805,-31.61621,0.0,0.0,0.0,132.54456,74.89929,-51.514893
1766901631661,-1.1166992,0.38330078,-0.41455078,46.081543,34.362793,54.504395,0.0,0.0,0.0,132.54456,74.89929,-51.514893
1766901631673,-1.1166992,0.38330078,-0.41455078,46.081543,34.362793,54.504395,0.0,0.0,0.0,135.06592,73.932495,-58.375854
1766901631761,-0.8979492,0.13671875,-0.09667969,-32.470703,101.5625,-4.0283203,0.0,0.0,0.0,135.06592,73.932495,-58.375854
1766901631772,-0.8979492,0.13671875,-0.09667969,-32.470703,101.5625,-4.0283203,0.0,0.0,0.0,146.21704,66.659546,-50.405273
1766901631860,-0.9633789,0.18896484,-0.18164062,-3.0517578,-44.189453,-4.699707,0.0,0.0,0.0,146.21704,66.659546,-50.405273
1766901631872,-0.9633789,0.18896484,-0.18164062,-3.0517578,-44.189453,-4.699707,0.0,0.0,0.0,150.71594,65.83557,-47.36206
1766901631960,-1.1469727,0.0126953125,-0.3647461,-19.042969,-4.8217773,-26.367188,0.0,0.0,0.0,150.71594,65.83557,-47.36206
1766901631972,-1.1469727,0.0126953125,-0.3647461,-19.042969,-4.8217773,-26.367188,0.0,0.0,0.0,146.7334,69.697266,-54.93164
1766901632060,-1.2016602,0.15332031,-0.032226562,17.51709,-22.949219,19.77539,0.0,0.0,0.0,146.7334,69.697266,-54.93164
1766901632071,-1.2016602,0.15332031,-0.032226562,17.51709,-22.949219,19.77539,0.0,0.0,0.0,150.44128,69.49402,-56.002808
1766901632160,-0.6376953,0.20361328,-0.22363281,41.015625,-90.20996,52.55127,0.0,0.0,0.0,150.44128,69.49402,-56.002808
1766901632171,-0.6376953,0.20361328,-0.22363281,41.015625,-90.20996,52.55127,0.0,0.0,0.0,135.98877,72.784424,-81.97998
1766901632259,-0.9921875,0.27685547,-0.60058594,28.564453,-6.591797,16.845703,0.0,0.0,0.0,135.98877,72.784424,-81.97998
1766901632271,-0.9921875,0.27685547,-0.60058594,28.564453,-6.591797,16.845703,0.0,0.0,0.0,112.34619,74.93225,-113.43384
1766901632359,-0.90722656,0.09375,-0.23291016,-51.3916,173.03467,-57.373047,0.0,0.0,0.0,112.34619,74.93225,-113.43384
1766901632371,-0.90722656,0.09375,-0.23291016,-51.3916,173.03467,-57.373047,0.0,0.0,0.0,136.42822,71.14197,-95.026245
1766901632458,-1.0556641,0.2524414,0.119628906,55.114746,-36.071777,17.27295,0.0,0.0,0.0,136.42822,71.14197,-95.026245
