timestamp,accX,accY,accZ,gyroX,gyroY,gyroZ,magX,magY,magZ,roll,pitch,yaw
1766812124292,-0.60839844,0.30419922,-0.28759766,-16.235352,1.3427734,-18.737793,0.0,0.0,0.0,101.03577,58.205566,-177.89612
1766812124383,-0.9658203,0.58154297,0.018554688,-35.52246,20.568848,-14.221191,0.0,0.0,0.0,101.03577,58.205566,-177.89612
1766812124392,-0.9658203,0.58154297,0.018554688,-35.52246,20.568848,-14.221191,0.0,0.0,0.0,103.60657,59.452515,-173.99597
1766812124480,-0.79541016,0.48339844,-0.115722656,-18.188477,15.258789,-21.54541,0.0,0.0,0.0,103.60657,59.452515,-173.99597
1766812124491,-0.79541016,0.48339844,-0.115722656,-18.188477,15.258789,-21.54541,0.0,0.0,0.0,103.29346,60.86975,-172.31506
1766812124580,-0.8588867,0.4892578,-0.056640625,-15.563965,15.869141,-7.751465,0.0,0.0,0.0,103.29346,60.86975,-172.31506
1766812124591,-0.8588867,0.4892578,-0.056640625,-15.563965,15.869141,-7.751465,0.0,0.0,0.0,105.15564,61.463013,-168.61267
1766812124679,-0.99072266,0.44580078,-0.03857422,-0.91552734,1.6479492,-1.3427734,0.0,0.0,0.0,105.15564,61.463013,-168.61267
1766812124694,-0.99072266,0.44580078,-0.03857422,-0.91552734,1.6479492,-1.3427734,0.0,0.0,0.0,106.051025,61.402588,-166.19568
1766812124779,-0.8251953,0.5996094,-0.011230469,3.8452148,-21.972656,17.51709,0.0,0.0,0.0,106.051025,61.402588,-166.19568
1766812124790,-0.8251953,0.5996094,-0.011230469,3.8452148,-21.972656,17.51709,0.0,0.0,0.0,103.167114,61.001587,-169.3872
1766812124879,-0.8208008,0.34472656,-0.26220703,0.061035156,-10.009766,7.9956055,0.0,0.0,0.0,103.167114,61.001587,-169.3872
1766812124891,-0.8208008,0.34472656,-0.26220703,0.061035156,-10.009766,7.9956055,0.0,0.0,0.0,98.31665,60.325928,-174.46289
1766812124978,-0.9501953,0.41064453,-0.23144531,27.160645,-5.1879883,11.169434,0.0,0.0,0.0,98.31665,60.325928,-174.46289
1766812124990,-0.9501953,0.41064453,-0.23144531,27.160645,-5.1879883,11.169434,0.0,0.0,0.0,101.15662,58.87024,-172.99072
1766812125078,-0.7807617,0.58691406,-0.12011719,24.047852,-3.0517578,16.174316,0.0,0.0,0.0,101.15662,58.87024,-172.99072
1766812125089,-0.7807617,0.58691406,-0.12011719,24.047852,-3.0517578,16.174316,0.0,0.0,0.0,103.27698,57.826538,-173.83667
1766812125178,-0.8666992,0.45263672,-0.11376953,9.033203,22.583008,1.2817383,0.0,0.0,0.0,103.27698,57.826538,-173.83667
1766812125189,-0.8666992,0.45263672,-0.11376953,9.033203,22.583008,1.2817383,0.0,0.0,0.0,106.28174,56.881714,-172.60071
1766812125277,-0.8725586,0.52001953,-0.107910156,3.2958984,13.061523,-6.3476562,0.0,0.0,0.0,106.28174,56.881714,-172.60071
1766812125289,-0.8725586,0.52001953,-0.107910156,3.2958984,13.061523,-6.3476562,0.0,0.0,0.0,109.209595,56.78833,-169.89258
1766812125377,-0.9248047,0.61621094,-0.0029296875,-19.16504,9.338379,2.319336,0.0,0.0,0.0,109.209595,56.78833,-169.89258
1766812125389,-0.9248047,0.61621094,-0.0029296875,-19.16504,9.338379,2.319336,0.0,0.0,0.0,110.56091,56.914673,-166.75598
1766812125477,-1.0166016,0.6225586,-0.1743164,-5.7373047,-36.071777,6.286621,0.0,0.0,0.0,110.56091,56.914673,-166.75598
1766812125488,-1.0166016,0.6225586,-0.1743164,-5.7373047,-36.071777,6.286621,0.0,0.0,0.0,105.875244,56.991577,-169.44214
1766812125576,-0.54833984,0.27441406,-0.2006836,1.0986328,0.5493164,-9.460449,0.0,0.0,0.0,105.875244,56.991577,-169.44214
1766812125588,-0.54833984,0.27441406,-0.2006836,1.0986328,0.5493164,-9.460449,0.0,0.0,0.0,103.21655,56.953125,-174.20471
1766812125676,-0.87402344,0.5859375,-0.22314453,2.9296875,33.75244,-10.925293,0.0,0.0,0.0,103.21655,56.953125,-174.20471
1766812125688,-0.87402344,0.5859375,-0.22314453,2.9296875,33.75244,-10.925293,0.0,0.0,0.0,105.078735,58.167114,-172.40845
1766812125776,-0.80566406,0.4580078,-0.1430664,4.4555664,-2.5634766,-7.2631836,0.0,0.0,0.0,105.078735,58.167114,-172.40845
1766812125787,-0.80566406,0.4580078,-0.1430664,4.4555664,-2.5634766,-7.2631836,0.0,0.0,0.0,110.286255,59.067993,-165.96497
1766812125876,-0.82373047,0.5341797,-0.1352539,-10.192871,12.451172,-3.7231445,0.0,0.0,0.0,110.286255,59.067993,-165.96497
1766812125887,-0.82373047,0.5341797,-0.1352539,-10.192871,12.451172,-3.7231445,0.0,0.0,0.0,111.379395,59.40857,-164.18518
1766812125975,-0.9790039,0.50390625,-0.12109375,2.9296875,1.7089844,0.4272461,0.0,0.0,0.0,111.379395,59.40857,-164.18518
1766812125987,-0.9790039,0.50390625,-0.12109375,2.9296875,1.7089844,0.4272461,0.0,0.0,0.0,112.576904,58.914185,-161.46606
1766812126075,-0.88183594,0.6191406,-0.036132812,6.4086914,-29.052734,13.73291,0.0,0.0,0.0,112.576904,58.914185,-161.46606
1766812126087,-0.88183594,0.6191406,-0.036132812,6.4086914,-29.052734,13.73291,0.0,0.0,0.0,110.05554,58.826294,-164.77295
1766812126175,-0.6669922,0.27539062,-0.21777344,-6.8969727,-8.728027,4.1503906,0.0,0.0,0.0,110.05554,58.826294,-164.77295
1766812126186,-0.6669922,0.27539062,-0.21777344,-6.8969727,-8.728027,4.1503906,0.0,0.0,0.0,104.732666,58.8208,-171.38123
1766812126275,-0.9082031,0.4169922,-0.35986328,36.071777,-6.164551,14.221191,0.0,0.0,0.0,104.732666,58.8208,-171.38123
1766812126286,-0.9082031,0.4169922,-0.35986328,36.071777,-6.164551,14.221191,0.0,0.0,0.0,104.85901,58.408813,-172.51831
1766812126374,-0.8154297,0.61279297,-0.10107422,28.808594,-11.657715,16.418457,0.0,0.0,0.0,104.85901,58.408813,-172.51831
1766812126387,-0.8154297,0.61279297,-0.10107422,28.808594,-11.657715,16.418457,0.0,0.0,0.0,110.25879,56.8927,-169.57397
1766812126474,-0.8486328,0.3881836,-0.22265625,9.82666,21.118164,-3.90625,0.0,0.0,0.0,110.25879,56.8927,-169.57397
1766812126485,-0.8486328,0.3881836,-0.22265625,9.82666,21.118164,-3.90625,0.0,0.0,0.0,111.57715,56.26648,-170.49683
1766812126574,-0.84814453,0.5551758,-0.17333984,6.286621,2.2583008,-4.760742,0.0,0.0,0.0,111.57715,56.26648,-170.49683
1766812126585,-0.84814453,0.5551758,-0.17333984,6.286621,2.2583008,-4.760742,0.0,0.0,0.0,114.09851,56.44226,-168.5083
1766812126673,-0.9550781,0.6274414,-0.0068359375,-24.108887,11.779785,-1.8310547,0.0,0.0,0.0,114.09851,56.44226,-168.5083
1766812126685,-0.9550781,0.6274414,-0.0068359375,-24.108887,11.779785,-1.8310547,0.0,0.0,0.0,115.1532,56.376343,-165.51453
1766812126773,-0.98828125,0.57177734,-0.23632812,-15.869141,-48.034668,1.8920898,0.0,0.0,0.0,115.1532,56.376343,-165.51453
1766812126785,-0.98828125,0.57177734,-0.23632812,-15.869141,-48.034668,1.8920898,0.0,0.0,0.0,107.53967,57.200317,-170.78247
1766812126873,-0.58496094,0.25439453,-0.24902344,-5.3710938,-9.155273,-8.300781,0.0,0.0,0.0,107.53967,57.200317,-170.78247
1766812126884,-0.58496094,0.25439453,-0.24902344,-5.3710938,-9.155273,-8.300781,0.0,0.0,0.0,103.26599,57.35962,-177.07764
1766812126972,-0.87158203,0.57714844,-0.17529297,-6.0424805,36.621094,-11.169434,0.0,0.0,0.0,103.26599,57.35962,-177.07764
1766812126984,-0.87158203,0.57714844,-0.17529297,-6.0424805,36.621094,-11.169434,0.0,0.0,0.0,105.809326,58.49121,-174.0564
1766812127072,-0.796875,0.4584961,-0.18896484,-7.6904297,1.0375977,-8.7890625,0.0,0.0,0.0,105.809326,58.49121,-174.0564
1766812127084,-0.796875,0.4584961,-0.18896484,-7.6904297,1.0375977,-8.7890625,0.0,0.0,0.0,105.842285,59.79309,-172.86438
1766812127172,-0.8520508,0.52246094,-0.091308594,-8.605957,8.666992,-7.6904297,0.0,0.0,0.0,105.842285,59.79309,-172.86438
1766812127183,-0.8520508,0.52246094,-0.091308594,-8.605957,8.666992,-7.6904297,0.0,0.0,0.0,108.0011,60.20508,-169.74426
1766812127272,-0.9682617,0.5151367,-0.08251953,2.4414062,5.6762695,-5.3100586,0.0,0.0,0.0,108.0011,60.20508,-169.74426
1766812127283,-0.9682617,0.5151367,-0.08251953,2.4414062,5.6762695,-5.3100586,0.0,0.0,0.0,109.51721,60.369873,-167.33276
1766812127371,-0.8671875,0.58935547,-0.020019531,8.850098,-28.381348,12.573242,0.0,0.0,0.0,109.51721,60.369873,-167.33276
1766812127383,-0.8671875,0.58935547,-0.020019531,8.850098,-28.381348,12.573242,0.0,0.0,0.0,106.61133,60.287476,-170.8429
1766812127471,-0.90478516,0.37939453,-0.27490234,1.0986328,-20.874023,2.1972656,0.0,0.0,0.0,106.61133,60.287476,-170.8429
1766812127483,-0.90478516,0.37939453,-0.27490234,1.0986328,-20.874023,2.1972656,0.0,0.0,0.0,100.755615,60.029297,-177.45667
1766812127571,-0.8330078,0.37402344,-0.2524414,24.291992,-6.8969727,13.305664,0.0,0.0,0.0,100.755615,60.029297,-177.45667
1766812127583,-0.8330078,0.37402344,-0.2524414,24.291992,-6.8969727,13.305664,0.0,0.0,0.0,103.08472,59.353638,-175.64941
1766812127671,-0.8535156,0.6386719,-0.09716797,31.25,-9.94873,23.376465,0.0,0.0,0.0,103.08472,59.353638,-175.64941
1766812127682,-0.8535156,0.6386719,-0.09716797,31.25,-9.94873,23.376465,0.0,0.0,0.0,105.5896,58.19458,-176.56128
1766812127770,-0.86083984,0.42041016,-0.104003906,14.404297,10.803223,5.004883,0.0,0.0,0.0,105.5896,58.19458,-176.56128
1766812127782,-0.86083984,0.42041016,-0.104003906,14.404297,10.803223,5.004883,0.0,0.0,0.0,107.979126,56.94763,-176.74255
1766812127870,-0.8769531,0.5239258,-0.1430664,6.8969727,3.112793,-3.0517578,0.0,0.0,0.0,107.979126,56.94763,-176.74255
1766812127882,-0.8769531,0.5239258,-0.1430664,6.8969727,3.112793,-3.0517578,0.0,0.0,0.0,109.330444,56.87622,-176.58875
1766812127970,-0.90527344,0.6176758,-0.027832031,-24.108887,5.3100586,0.30517578,0.0,0.0,0.0,109.330444,56.87622,-176.58875
1766812127981,-0.90527344,0.6176758,-0.027832031,-24.108887,5.3100586,0.30517578,0.0,0.0,0.0,109.62158,56.92566,-174.58923
1766812128069,-1.0444336,0.6113281,-0.125,-13.793945,-45.043945,5.859375,0.0,0.0,0.0,109.62158,56.92566,-174.58923
1766812128081,-1.0444336,0.6113281,-0.125,-13.793945,-45.043945,5.859375,0.0,0.0,0.0,103.83179,57.095947,-178.00049
1766812128170,-0.5332031,0.29589844,-0.18652344,-2.2583008,3.6621094,-6.652832,0.0,0.0,0.0,103.83179,57.095947,-178.00049
1766812128183,-0.5332031,0.29589844,-0.18652344,-2.2583008,3.6621094,-6.652832,0.0,0.0,0.0,100.92041,57.002563,177.57751
1766812128269,-0.9082031,0.5605469,-0.119140625,-1.0986328,3.6010742,-9.033203,0.0,0.0,0.0,100.92041,57.002563,177.57751
1766812128280,-0.9082031,0.5605469,-0.119140625,-1.0986328,3.6010742,-9.033203,0.0,0.0,0.0,101.67297,58.21106,178.59924
1766812128369,-0.75097656,0.5854492,-0.055664062,-11.352539,13.48877,-18.310547,0.0,0.0,0.0,101.67297,58.21106,178.59924
1766812128380,-0.75097656,0.5854492,-0.055664062,-11.352539,13.48877,-18.310547,0.0,0.0,0.0,103.46924,59.699707,-179.02222
1766812128472,-0.8432617,0.48291016,-0.08642578,-12.023926,13.793945,-3.0517578,0.0,0.0,0.0,103.46924,59.699707,-179.02222
1766812128480,-0.8432617,0.48291016,-0.08642578,-12.023926,13.793945,-3.0517578,0.0,0.0,0.0,104.28223,59.941406,-176.58325
1766812128568,-0.93603516,0.51220703,-0.049316406,5.7373047,2.5634766,1.6479492,0.0,0.0,0.0,104.28223,59.941406,-176.58325
1766812128580,-0.93603516,0.51220703,-0.049316406,5.7373047,2.5634766,1.6479492,0.0,0.0,0.0,105.46326,59.63379,-174.4574
1766812128668,-0.80908203,0.6152344,0.04736328,2.5634766,-26.611328,11.474609,0.0,0.0,0.0,105.46326,59.63379,-174.4574
1766812128679,-0.80908203,0.6152344,0.04736328,2.5634766,-26.611328,11.474609,0.0,0.0,0.0,102.87048,59.276733,-177.41272
1766812128773,-0.8261719,0.40234375,-0.26904297,-10.559082,-3.1738281,-0.5493164,0.0,0.0,0.0,102.87048,59.276733,-177.41272
1766812128780,-0.8261719,0.40234375,-0.26904297,-10.559082,-3.1738281,-0.5493164,0.0,0.0,0.0,97.20154,59.084473,176.68762
1766812128867,-0.92578125,0.36328125,-0.25585938,26.306152,1.7089844,13.000488,0.0,0.0,0.0,97.20154,59.084473,176.68762
1766812128879,-0.92578125,0.36328125,-0.25585938,26.306152,1.7089844,13.000488,0.0,0.0,0.0,100.43701,58.21106,179.00574
1766812128967,-0.7475586,0.6948242,-0.11279297,24.475098,-19.16504,18.859863,0.0,0.0,0.0,100.43701,58.21106,179.00574
1766812128979,-0.7475586,0.6948242,-0.11279297,24.475098,-19.16504,18.859863,0.0,0.0,0.0,102.63977,57.244263,178.80798
1766812129067,-0.9111328,0.35791016,-0.056152344,-2.5634766,28.015137,-2.319336,0.0,0.0,0.0,102.63977,57.244263,178.80798
1766812129078,-0.9111328,0.35791016,-0.056152344,-2.5634766,28.015137,-2.319336,0.0,0.0,0.0,105.1062,56.085205,-179.3628
1766812129166,-0.83935547,0.58984375,-0.10839844,0.24414062,10.925293,-8.911133,0.0,0.0,0.0,105.1062,56.085205,-179.3628
1766812129178,-0.83935547,0.58984375,-0.10839844,0.24414062,10.925293,-8.911133,0.0,0.0,0.0,106.589355,56.167603,-178.18176
1766812129266,-0.94921875,0.61376953,0.029785156,-17.27295,4.638672,-0.7324219,0.0,0.0,0.0,106.589355,56.167603,-178.18176
1766812129278,-0.94921875,0.61376953,0.029785156,-17.27295,4.638672,-0.7324219,0.0,0.0,0.0,107.545166,56.28296,-175.70435
1766812129366,-0.9975586,0.60058594,-0.13378906,-10.620117,-39.79492,4.333496,0.0,0.0,0.0,107.545166,56.28296,-175.70435
1766812129377,-0.9975586,0.60058594,-0.13378906,-10.620117,-39.79492,4.333496,0.0,0.0,0.0,102.63977,56.585083,-178.41248
1766812129466,-0.6074219,0.29638672,-0.17578125,-0.061035156,0.8544922,-9.521484,0.0,0.0,0.0,102.63977,56.585083,-178.41248
1766812129477,-0.6074219,0.29638672,-0.17578125,-0.061035156,0.8544922,-9.521484,0.0,0.0,0.0,99.503174,56.326904,176.76453
1766812129565,-0.90966797,0.64990234,-0.118652344,-8.544922,10.620117,-8.300781,0.0,0.0,0.0,99.503174,56.326904,176.76453
1766812129577,-0.90966797,0.64990234,-0.118652344,-8.544922,10.620117,-8.300781,0.0,0.0,0.0,99.83826,57.837524,177.30835
1766812129665,-0.7602539,0.52734375,-0.11816406,-6.5307617,2.4414062,-17.211914,0.0,0.0,0.0,99.83826,57.837524,177.30835
1766812129676,-0.7602539,0.52734375,-0.11816406,-6.5307617,2.4414062,-17.211914,0.0,0.0,0.0,100.145874,59.19983,177.9071
1766812129765,-0.7626953,0.5419922,-0.048828125,-2.0141602,12.329102,-2.5634766,0.0,0.0,0.0,100.145874,59.19983,177.9071
1766812129776,-0.7626953,0.5419922,-0.048828125,-2.0141602,12.329102,-2.5634766,0.0,0.0,0.0,101.651,59.68872,-179.79675
1766812129864,-0.8725586,0.5673828,-0.052246094,5.493164,-0.61035156,-4.0283203,0.0,0.0,0.0,101.651,59.68872,-179.79675
1766812129876,-0.8725586,0.5673828,-0.052246094,5.493164,-0.61035156,-4.0283203,0.0,0.0,0.0,103.62305,59.474487,-177.29187
1766812129964,-0.87939453,0.64160156,0.017089844,-2.5634766,-10.253906,1.0986328,0.0,0.0,0.0,103.62305,59.474487,-177.29187
1766812129975,-0.87939453,0.64160156,0.017089844,-2.5634766,-10.253906,1.0986328,0.0,0.0,0.0,103.17261,59.606323,-177.62146
1766812130064,-1.0776367,0.4741211,-0.20751953,-8.850098,-25.817871,1.5258789,0.0,0.0,0.0,103.17261,59.606323,-177.62146
1766812130075,-1.0776367,0.4741211,-0.20751953,-8.850098,-25.817871,1.5258789,0.0,0.0,0.0,98.585815,59.298706,178.37402
1766812130163,-0.69189453,0.3720703,-0.2368164,2.319336,19.28711,5.9814453,0.0,0.0,0.0,98.585815,59.298706,178.37402
1766812130175,-0.69189453,0.3720703,-0.2368164,2.319336,19.28711,5.9814453,0.0,0.0,0.0,98.77258,58.76587,179.37927
1766812130263,-0.96240234,0.5551758,-0.03125,1.7700195,7.6904297,21.850586,0.0,0.0,0.0,98.77258,58.76587,179.37927
1766812130275,-0.96240234,0.5551758,-0.03125,1.7700195,7.6904297,21.850586,0.0,0.0,0.0,102.370605,57.81006,-178.73108
1766812130363,-0.81689453,0.4404297,-0.13330078,7.507324,18.554688,3.6010742,0.0,0.0,0.0,102.370605,57.81006,-178.73108
1766812130374,-0.81689453,0.4404297,-0.13330078,7.507324,18.554688,3.6010742,0.0,0.0,0.0,103.07922,56.66748,-179.62097
1766812130463,-0.8881836,0.51904297,-0.08300781,4.4555664,6.591797,-2.4414062,0.0,0.0,0.0,103.07922,56.66748,-179.62097
1766812130474,-0.8881836,0.51904297,-0.08300781,4.4555664,6.591797,-2.4414062,0.0,0.0,0.0,105.56763,56.54663,-177.3523
1766812130562,-0.8564453,0.5864258,-0.041503906,-16.967773,19.592285,-4.699707,0.0,0.0,0.0,105.56763,56.54663,-177.3523
1766812130574,-0.8564453,0.5864258,-0.041503906,-16.967773,19.592285,-4.699707,0.0,0.0,0.0,107.01233,56.85974,-174.62769
1766812130662,-1.0898438,0.5703125,-0.056152344,-21.1792,-31.00586,-0.5493164,0.0,0.0,0.0,107.01233,56.85974,-174.62769
1766812130673,-1.0898438,0.5703125,-0.056152344,-21.1792,-31.00586,-0.5493164,0.0,0.0,0.0,104.35913,56.94214,-174.1388
1766812130762,-0.7089844,0.5161133,-0.26611328,16.540527,-24.597168,9.765625,0.0,0.0,0.0,104.35913,56.94214,-174.1388
1766812130774,-0.7089844,0.5161133,-0.26611328,16.540527,-24.597168,9.765625,0.0,0.0,0.0,98.55286,57.112427,179.06616
1766812130861,-0.7944336,0.55126953,-0.30029297,-7.6904297,10.803223,-17.39502,0.0,0.0,0.0,98.55286,57.112427,179.06616
1766812130874,-0.7944336,0.55126953,-0.30029297,-7.6904297,10.803223,-17.39502,0.0,0.0,0.0,98.97583,58.342896,179.98901
1766812130961,-0.9375,0.39746094,-0.13867188,0.30517578,-2.5634766,-20.385742,0.0,0.0,0.0,98.97583,58.342896,179.98901
1766812130973,-0.9375,0.39746094,-0.13867188,0.30517578,-2.5634766,-20.385742,0.0,0.0,0.0,102.79907,59.7052,-174.6167
1766812131061,-0.7685547,0.61572266,-0.06591797,-7.5683594,14.953613,-9.155273,0.0,0.0,0.0,102.79907,59.7052,-174.6167
1766812131072,-0.7685547,0.61572266,-0.06591797,-7.5683594,14.953613,-9.155273,0.0,0.0,0.0,104.97986,60.41382,-171.87012
1766812131161,-0.8754883,0.4326172,-0.103027344,1.7089844,18.920898,-1.953125,0.0,0.0,0.0,104.97986,60.41382,-171.87012
1766812131173,-0.8754883,0.4326172,-0.103027344,1.7089844,18.920898,-1.953125,0.0,0.0,0.0,107.473755,59.908447,-168.39844
1766812131262,-0.9560547,0.5961914,0.041503906,5.79834,-24.597168,6.225586,0.0,0.0,0.0,107.473755,59.908447,-168.39844
1766812131272,-0.9560547,0.5961914,0.041503906,5.79834,-24.597168,6.225586,0.0,0.0,0.0,106.73767,59.787598,-169.59595
1766812131360,-1.137207,0.4658203,-0.20214844,5.554199,-29.296875,1.4038086,0.0,0.0,0.0,106.73767,59.787598,-169.59595
1766812131372,-1.137207,0.4658203,-0.20214844,5.554199,-29.296875,1.4038086,0.0,0.0,0.0,100.71167,59.61731,-176.07788
1766812131460,-0.59472656,0.42041016,-0.25927734,17.578125,-6.0424805,7.6293945,0.0,0.0,0.0,100.71167,59.61731,-176.07788
1766812131471,-0.59472656,0.42041016,-0.25927734,17.578125,-6.0424805,7.6293945,0.0,0.0,0.0,99.95361,59.205322,-178.12134
1766812131559,-0.96240234,0.59814453,-0.020996094,-10.131836,33.38623,6.4697266,0.0,0.0,0.0,99.95361,59.205322,-178.12134
1766812131571,-0.96240234,0.59814453,-0.020996094,-10.131836,33.38623,6.4697266,0.0,0.0,0.0,105.13367,58.222046,-175.31433
1766812131659,-0.80371094,0.42089844,-0.18798828,9.887695,23.986816,-3.9672852,0.0,0.0,0.0,105.13367,58.222046,-175.31433
1766812131671,-0.80371094,0.42089844,-0.18798828,9.887695,23.986816,-3.9672852,0.0,0.0,0.0,106.11694,57.474976,-176.50085
1766812131759,-0.9067383,0.48583984,-0.12792969,11.84082,-1.0375977,-1.0375977,0.0,0.0,0.0,106.11694,57.474976,-176.50085
1766812131770,-0.9067383,0.48583984,-0.12792969,11.84082,-1.0375977,-1.0375977,0.0,0.0,0.0,109.42932,57.579346,-173.27087
1766812131859,-0.8769531,0.6411133,0.0073242188,-23.07129,19.958496,-2.6855469,0.0,0.0,0.0,109.42932,57.579346,-173.27087
1766812131870,-0.8769531,0.6411133,0.0073242188,-23.07129,19.958496,-2.6855469,0.0,0.0,0.0,111.291504,57.63977,-169.76074
1766812131958,-1.0678711,0.57373047,-0.15283203,-19.28711,-39.978027,3.7231445,0.0,0.0,0.0,111.291504,57.63977,-169.76074
1766812131970,-1.0678711,0.57373047,-0.15283203,-19.28711,-39.978027,3.7231445,0.0,0.0,0.0,106.243286,57.83203,-171.85364
1766812132058,-0.55029297,0.28125,-0.19873047,0.61035156,-7.8125,-1.0375977,0.0,0.0,0.0,106.243286,57.83203,-171.85364
1766812132069,-0.55029297,0.28125,-0.19873047,0.61035156,-7.8125,-1.0375977,0.0,0.0,0.0,101.05774,57.409058,-179.08813
1766812132158,-0.8642578,0.6425781,-0.28515625,13.916016,19.714355,-8.422852,0.0,0.0,0.0,101.05774,57.409058,-179.08813
1766812132170,-0.8642578,0.6425781,-0.28515625,13.916016,19.714355,-8.422852,0.0,0.0,0.0,102.315674,58.831787,-178.19275
1766812132258,-0.78808594,0.43359375,-0.14550781,-11.84082,-7.9956055,-15.74707,0.0,0.0,0.0,102.315674,58.831787,-178.19275
1766812132269,-0.78808594,0.43359375,-0.14550781,-11.84082,-7.9956055,-15.74707,0.0,0.0,0.0,104.573364,60.03479,-174.33105
1766812132357,-0.85009766,0.54052734,-0.059570312,-12.573242,17.150879,-5.6762695,0.0,0.0,0.0,104.573364,60.03479,-174.33105
1766812132369,-0.85009766,0.54052734,-0.059570312,-12.573242,17.150879,-5.6762695,0.0,0.0,0.0,107.06726,60.567627,-169.66187
1766812132459,-0.92285156,0.46679688,-0.055664062,2.8076172,11.535645,-0.4272461,0.0,0.0,0.0,107.06726,60.567627,-169.66187
1766812132469,-0.92285156,0.46679688,-0.055664062,2.8076172,11.535645,-0.4272461,0.0,0.0,0.0,109.00635,60.216064,-166.30005
1766812132557,-0.93603516,0.578125,0.0,10.925293,-26.184082,10.192871,0.0,0.0,0.0,109.00635,60.216064,-166.30005
1766812132568,-0.93603516,0.578125,0.0,10.925293,-26.184082,10.192871,0.0,0.0,0.0,107.46277,60.24353,-168.68408
1766812132656,-0.92089844,0.3564453,-0.29345703,12.329102,-31.25,2.746582,0.0,0.0,0.0,107.46277,60.24353,-168.68408
1766812132668,-0.92089844,0.3564453,-0.29345703,12.329102,-31.25,2.746582,0.0,0.0,0.0,100.843506,60.117188,-176.96228
1766812132756,-0.83691406,0.4375,-0.22509766,32.287598,-14.6484375,14.892578,0.0,0.0,0.0,100.843506,60.117188,-176.96228
1766812132768,-0.83691406,0.4375,-0.22509766,32.287598,-14.6484375,14.892578,0.0,0.0,0.0,102.78259,59.3042,-176.781
1766812132856,-0.82714844,0.609375,-0.083496094,25.146484,-13.916016,25.634766,0.0,0.0,0.0,102.78259,59.3042,-176.781
1766812132868,-0.82714844,0.609375,-0.083496094,25.146484,-13.916016,25.634766,0.0,0.0,0.0,104.02954,58.172607,-179.15405
1766812132955,-0.8520508,0.4165039,-0.092285156,11.962891,11.291504,4.0893555,0.0,0.0,0.0,104.02954,58.172607,-179.15405
1766812132967,-0.8520508,0.4165039,-0.092285156,11.962891,11.291504,4.0893555,0.0,0.0,0.0,105.28198,56.760864,179.56055
1766812133055,-0.87402344,0.52246094,-0.09326172,4.333496,7.6904297,-5.3100586,0.0,0.0,0.0,105.28198,56.760864,179.56055
1766812133067,-0.87402344,0.52246094,-0.09326172,4.333496,7.6904297,-5.3100586,0.0,0.0,0.0,107.08923,56.799316,-179.47266
1766812133155,-0.88720703,0.6611328,-0.0073242188,-20.324707,17.944336,-0.12207031,0.0,0.0,0.0,107.08923,56.799316,-179.47266
1766812133167,-0.88720703,0.6611328,-0.0073242188,-20.324707,17.944336,-0.12207031,0.0,0.0,0.0,108.34717,56.94214,-176.69312
1766812133255,-0.9746094,0.5942383,-0.07470703,-17.578125,-39.733887,-0.4272461,0.0,0.0,0.0,108.34717,56.94214,-176.69312
1766812133266,-0.9746094,0.5942383,-0.07470703,-17.578125,-39.733887,-0.4272461,0.0,0.0,0.0,104.27124,57.139893,-178.0664
1766812133354,-0.59375,0.33984375,-0.26464844,7.385254,-2.380371,-3.0517578,0.0,0.0,0.0,104.27124,57.139893,-178.0664
1766812133366,-0.59375,0.33984375,-0.26464844,7.385254,-2.380371,-3.0517578,0.0,0.0,0.0,99.678955,57.27173,176.00098
1766812133454,-0.9145508,0.59228516,-0.088378906,-14.465332,27.770996,-13.183594,0.0,0.0,0.0,99.678955,57.27173,176.00098
1766812133466,-0.9145508,0.59228516,-0.088378906,-14.465332,27.770996,-13.183594,0.0,0.0,0.0,102.41455,58.233032,179.24744
1766812133555,-0.83251953,0.45117188,-0.12988281,-11.535645,17.028809,-17.8833,0.0,0.0,0.0,102.41455,58.233032,179.24744
1766812133566,-0.83251953,0.45117188,-0.12988281,-11.535645,17.028809,-17.8833,0.0,0.0,0.0,104.7052,59.628296,-177.70386
1766812133653,-0.80810547,0.5175781,-0.10058594,-2.1362305,13.305664,-2.9907227,0.0,0.0,0.0,104.7052,59.628296,-177.70386
1766812133665,-0.80810547,0.5175781,-0.10058594,-2.1362305,13.305664,-2.9907227,0.0,0.0,0.0,107.04529,60.007324,-174.5398
1766812133753,-0.9243164,0.4921875,-0.083496094,6.3476562,-0.79345703,1.2207031,0.0,0.0,0.0,107.04529,60.007324,-174.5398
1766812133765,-0.9243164,0.4921875,-0.083496094,6.3476562,-0.79345703,1.2207031,0.0,0.0,0.0,108.99536,59.743652,-171.63391
1766812133853,-0.89501953,0.64160156,0.0087890625,3.7231445,-25.878906,11.71875,0.0,0.0,0.0,108.99536,59.743652,-171.63391
1766812133864,-0.89501953,0.64160156,0.0087890625,3.7231445,-25.878906,11.71875,0.0,0.0,0.0,106.589355,59.63379,-174.67712
1766812133953,-0.8886719,0.33740234,-0.26708984,5.6152344,-21.118164,6.4697266,0.0,0.0,0.0,106.589355,59.63379,-174.67712
1766812133964,-0.8886719,0.33740234,-0.26708984,5.6152344,-21.118164,6.4697266,0.0,0.0,0.0,101.04675,59.403076,179.14856
1766812134052,-0.8261719,0.41259766,-0.27685547,21.78955,6.5307617,9.765625,0.0,0.0,0.0,101.04675,59.403076,179.14856
1766812134064,-0.8261719,0.41259766,-0.27685547,21.78955,6.5307617,9.765625,0.0,0.0,0.0,102.87048,58.606567,179.599
1766812134152,-0.7919922,0.61621094,-0.15234375,19.28711,-3.90625,22.888184,0.0,0.0,0.0,102.87048,58.606567,179.599
1766812134164,-0.7919922,0.61621094,-0.15234375,19.28711,-3.90625,22.888184,0.0,0.0,0.0,106.100464,57.43103,-179.70337
1766812134252,-0.8852539,0.39941406,-0.11767578,10.070801,14.6484375,-0.4272461,0.0,0.0,0.0,106.100464,57.43103,-179.70337
1766812134264,-0.8852539,0.39941406,-0.11767578,10.070801,14.6484375,-0.4272461,0.0,0.0,0.0,108.341675,56.107178,-179.39026
1766812134351,-0.8574219,0.5620117,-0.14257812,4.5166016,10.803223,-4.0893555,0.0,0.0,0.0,108.341675,56.107178,-179.39026
1766812134363,-0.8574219,0.5620117,-0.14257812,4.5166016,10.803223,-4.0893555,0.0,0.0,0.0,110.374146,55.98633,-178.08289
1766812134451,-0.9033203,0.59521484,-0.036132812,-19.042969,-0.24414062,-1.8920898,0.0,0.0,0.0,110.374146,55.98633,-178.08289
1766812134463,-0.9033203,0.59521484,-0.036132812,-19.042969,-0.24414062,-1.8920898,0.0,0.0,0.0,111.09375,56.134644,-176.15479
1766812134551,-0.94140625,0.62890625,-0.1953125,-15.441895,-32.348633,2.2583008,0.0,0.0,0.0,111.09375,56.134644,-176.15479
1766812134562,-0.94140625,0.62890625,-0.1953125,-15.441895,-32.348633,2.2583008,0.0,0.0,0.0,106.309204,56.601562,-178.29163
1766812134650,-0.61328125,0.25390625,-0.20898438,-4.8828125,3.8452148,-7.6904297,0.0,0.0,0.0,106.309204,56.601562,-178.29163
1766812134662,-0.61328125,0.25390625,-0.20898438,-4.8828125,3.8452148,-7.6904297,0.0,0.0,0.0,102.996826,56.4093,177.65991
1766812134750,-0.86083984,0.60253906,-0.13427734,-8.605957,7.385254,-9.82666,0.0,0.0,0.0,102.996826,56.4093,177.65991
1766812134762,-0.86083984,0.60253906,-0.13427734,-8.605957,7.385254,-9.82666,0.0,0.0,0.0,104.0625,57.81555,179.64294
1766812134850,-0.80810547,0.48632812,-0.10644531,-9.216309,15.869141,-19.348145,0.0,0.0,0.0,104.0625,57.81555,179.64294
1766812134861,-0.80810547,0.48632812,-0.10644531,-9.216309,15.869141,-19.348145,0.0,0.0,0.0,105.55664,59.144897,-178.396
1766812134950,-0.8120117,0.55566406,-0.11035156,-1.8920898,8.911133,-3.6010742,0.0,0.0,0.0,105.55664,59.144897,-178.396
1766812134961,-0.8120117,0.55566406,-0.11035156,-1.8920898,8.911133,-3.6010742,0.0,0.0,0.0,107.52319,59.63379,-175.97351
1766812135049,-0.90478516,0.48779297,-0.091796875,5.859375,3.6010742,-2.0751953,0.0,0.0,0.0,107.52319,59.63379,-175.97351
1766812135061,-0.90478516,0.48779297,-0.091796875,5.859375,3.6010742,-2.0751953,0.0,0.0,0.0,109.09973,59.42505,-173.84216
1766812135149,-0.8955078,0.61083984,-0.033203125,9.58252,-16.662598,8.850098,0.0,0.0,0.0,109.09973,59.42505,-173.84216
1766812135160,-0.8955078,0.61083984,-0.033203125,9.58252,-16.662598,8.850098,0.0,0.0,0.0,108.1604,59.243774,-175.53406
1766812135249,-0.97216797,0.4819336,-0.3256836,-4.3945312,-15.563965,-4.8828125,0.0,0.0,0.0,108.1604,59.243774,-175.53406
1766812135260,-0.97216797,0.4819336,-0.3256836,-4.3945312,-15.563965,-4.8828125,0.0,0.0,0.0,103.7384,59.44153,179.70886
1766812135348,-0.85498047,0.3408203,-0.15917969,6.8969727,-16.418457,15.258789,0.0,0.0,0.0,103.7384,59.44153,179.70886
1766812135361,-0.85498047,0.3408203,-0.15917969,6.8969727,-16.418457,15.258789,0.0,0.0,0.0,105.9137,58.31543,-177.69836
1766812135448,-0.82177734,0.64941406,-0.1303711,9.94873,0.91552734,21.240234,0.0,0.0,0.0,105.9137,58.31543,-177.69836
1766812135460,-0.82177734,0.64941406,-0.1303711,9.94873,0.91552734,21.240234,0.0,0.0,0.0,105.28198,57.55188,179.54407
1766812135548,-0.8671875,0.39697266,-0.14990234,6.286621,11.657715,2.9907227,0.0,0.0,0.0,105.28198,57.55188,179.54407
1766812135560,-0.8671875,0.39697266,-0.14990234,6.286621,11.657715,2.9907227,0.0,0.0,0.0,106.61682,56.601562,179.4397
1766812135647,-0.84472656,0.5493164,-0.10839844,1.4038086,12.939453,-5.1879883,0.0,0.0,0.0,106.61682,56.601562,179.4397
1766812135660,-0.84472656,0.5493164,-0.10839844,1.4038086,12.939453,-5.1879883,0.0,0.0,0.0,108.621826,56.623535,-178.92883
1766812135747,-0.8989258,0.5566406,-0.055664062,-17.089844,10.314941,-3.9672852,0.0,0.0,0.0,108.621826,56.623535,-178.92883
1766812135759,-0.8989258,0.5566406,-0.055664062,-17.089844,10.314941,-3.9672852,0.0,0.0,0.0,110.061035,56.574097,-175.85815
1766812135847,-1.050293,0.6010742,-0.092285156,-26.794434,-26.855469,-0.61035156,0.0,0.0,0.0,110.061035,56.574097,-175.85815
1766812135859,-1.050293,0.6010742,-0.092285156,-26.794434,-26.855469,-0.61035156,0.0,0.0,0.0,106.25427,56.810303,-176.96777
1766812135947,-0.65527344,0.31933594,-0.234375,11.230469,2.9296875,-1.5258789,0.0,0.0,0.0,106.25427,56.810303,-176.96777
1766812135958,-0.65527344,0.31933594,-0.234375,11.230469,2.9296875,-1.5258789,0.0,0.0,0.0,103.96362,56.986084,179.91211
1766812136046,-0.81640625,0.58984375,-0.20458984,-11.71875,15.808105,-13.85498,0.0,0.0,0.0,103.96362,56.986084,179.91211
1766812136058,-0.81640625,0.58984375,-0.20458984,-11.71875,15.808105,-13.85498,0.0,0.0,0.0,104.837036,58.233032,-178.3136
1766812136146,-0.88378906,0.4321289,-0.12109375,-5.7373047,18.371582,-16.906738,0.0,0.0,0.0,104.837036,58.233032,-178.3136
1766812136158,-0.88378906,0.4321289,-0.12109375,-5.7373047,18.371582,-16.906738,0.0,0.0,0.0,108.45703,59.227295,-174.65515
1766812136246,-0.79833984,0.5253906,-0.17236328,2.9296875,15.869141,-3.90625,0.0,0.0,0.0,108.45703,59.227295,-174.65515
1766812136258,-0.79833984,0.5253906,-0.17236328,2.9296875,15.869141,-3.90625,0.0,0.0,0.0,110.4895,59.47998,-172.62817
1766812136345,-0.9057617,0.48486328,-0.15429688,9.70459,4.333496,3.3569336,0.0,0.0,0.0,110.4895,59.47998,-172.62817
1766812136357,-0.9057617,0.48486328,-0.15429688,9.70459,4.333496,3.3569336,0.0,0.0,0.0,113.186646,58.78235,-169.81567
1766812136445,-0.8720703,0.6411133,-0.07470703,5.554199,-25.32959,11.962891,0.0,0.0,0.0,113.186646,58.78235,-169.81567
1766812136457,-0.8720703,0.6411133,-0.07470703,5.554199,-25.32959,11.962891,0.0,0.0,0.0,111.154175,58.5791,-172.73254
1766812136545,-1.0668945,0.4033203,-0.32128906,10.620117,-28.320312,3.7231445,0.0,0.0,0.0,111.154175,58.5791,-172.73254
1766812136556,-1.0668945,0.4033203,-0.32128906,10.620117,-28.320312,3.7231445,0.0,0.0,0.0,105.14465,58.33191,-179.40125
1766812136645,-0.69677734,0.4741211,-0.23632812,1.0375977,8.300781,12.756348,0.0,0.0,0.0,105.14465,58.33191,-179.40125
1766812136656,-0.69677734,0.4741211,-0.23632812,1.0375977,8.300781,12.756348,0.0,0.0,0.0,106.91345,57.683716,-177.69287
1766812136744,-0.7944336,0.55859375,-0.21826172,4.699707,1.8920898,26.000977,0.0,0.0,0.0,106.91345,57.683716,-177.69287
1766812136756,-0.7944336,0.55859375,-0.21826172,4.699707,1.8920898,26.000977,0.0,0.0,0.0,107.25403,56.83777,-179.37378
1766812136844,-0.8564453,0.40820312,-0.13574219,7.2631836,10.009766,0.4272461,0.0,0.0,0.0,107.25403,56.83777,-179.37378
1766812136855,-0.8564453,0.40820312,-0.13574219,7.2631836,10.009766,0.4272461,0.0,0.0,0.0,109.03381,55.74463,-178.86841
1766812136944,-0.86328125,0.56152344,-0.1381836,4.0283203,5.004883,-5.6152344,0.0,0.0,0.0,109.03381,55.74463,-178.86841
1766812136955,-0.86328125,0.56152344,-0.1381836,4.0283203,5.004883,-5.6152344,0.0,0.0,0.0,110.57739,55.854492,-177.71484
1766812137043,-0.89941406,0.5805664,-0.03125,-16.174316,8.972168,-2.319336,0.0,0.0,0.0,110.57739,55.854492,-177.71484
1766812137055,-0.89941406,0.5805664,-0.03125,-16.174316,8.972168,-2.319336,0.0,0.0,0.0,111.329956,56.02478,-175.578
1766812137143,-1.0375977,0.6074219,-0.14746094,-18.005371,-33.87451,-2.4414062,0.0,0.0,0.0,111.329956,56.02478,-175.578
1766812137156,-1.0375977,0.6074219,-0.14746094,-18.005371,-33.87451,-2.4414062,0.0,0.0,0.0,107.40234,56.453247,-177.3523
1766812137243,-0.61035156,0.3125,-0.21826172,13.85498,-12.329102,2.0751953,0.0,0.0,0.0,107.40234,56.453247,-177.3523
1766812137255,-0.61035156,0.3125,-0.21826172,13.85498,-12.329102,2.0751953,0.0,0.0,0.0,103.551636,56.78833,177.68738
1766812137342,-0.82421875,0.67041016,-0.20751953,-0.6713867,8.605957,-7.6904297,0.0,0.0,0.0,103.551636,56.78833,177.68738
1766812137354,-0.82421875,0.67041016,-0.20751953,-0.6713867,8.605957,-7.6904297,0.0,0.0,0.0,104.09546,57.782593,178.24219
1766812137442,-0.8330078,0.42919922,-0.15039062,-2.1972656,8.911133,-13.549805,0.0,0.0,0.0,104.09546,57.782593,178.24219
1766812137455,-0.8330078,0.42919922,-0.15039062,-2.1972656,8.911133,-13.549805,0.0,0.0,0.0,105.91919,58.68347,179.7528
1766812137542,-0.8017578,0.53808594,-0.12402344,-0.48828125,11.474609,-2.8076172,0.0,0.0,0.0,105.91919,58.68347,179.7528
1766812137553,-0.8017578,0.53808594,-0.12402344,-0.48828125,11.474609,-2.8076172,0.0,0.0,0.0,108.15491,58.99109,-177.84119
1766812137642,-0.87841797,0.5136719,-0.1015625,3.540039,-1.3427734,-0.061035156,0.0,0.0,0.0,108.15491,58.99109,-177.84119
1766812137653,-0.87841797,0.5136719,-0.1015625,3.540039,-1.3427734,-0.061035156,0.0,0.0,0.0,109.59412,58.760376,-175.88562
1766812137741,-0.89990234,0.625,0.0073242188,-0.7324219,-18.432617,7.2631836,0.0,0.0,0.0,109.59412,58.760376,-175.88562
1766812137753,-0.89990234,0.625,0.0073242188,-0.7324219,-18.432617,7.2631836,0.0,0.0,0.0,107.96814,58.78784,-177.71484
1766812137841,-0.9375,0.45410156,-0.32226562,-6.5307617,-19.65332,1.8920898,0.0,0.0,0.0,107.96814,58.78784,-177.71484
1766812137852,-0.9375,0.45410156,-0.32226562,-6.5307617,-19.65332,1.8920898,0.0,0.0,0.0,101.92566,58.6615,176.36902
1766812137941,-0.8378906,0.35742188,-0.14794922,5.432129,-0.6713867,11.413574,0.0,0.0,0.0,101.92566,58.6615,176.36902
1766812137952,-0.8378906,0.35742188,-0.14794922,5.432129,-0.6713867,11.413574,0.0,0.0,0.0,104.40857,57.74414,179.2749
1766812138040,-0.80908203,0.65771484,-0.13183594,12.573242,-0.36621094,18.066406,0.0,0.0,0.0,104.40857,57.74414,179.2749
1766812138052,-0.80908203,0.65771484,-0.13183594,12.573242,-0.36621094,18.066406,0.0,0.0,0.0,105.03479,57.27722,177.69287
1766812138140,-0.87402344,0.38720703,-0.11328125,3.7841797,17.333984,0.30517578,0.0,0.0,0.0,105.03479,57.27722,177.69287
1766812138151,-0.87402344,0.38720703,-0.11328125,3.7841797,17.333984,0.30517578,0.0,0.0,0.0,106.44653,56.019287,177.48962
1766812138240,-0.8330078,0.57714844,-0.12402344,-1.5869141,5.1879883,-5.859375,0.0,0.0,0.0,106.44653,56.019287,177.48962
1766812138251,-0.8330078,0.57714844,-0.12402344,-1.5869141,5.1879883,-5.859375,0.0,0.0,0.0,107.95715,56.11267,178.85193
1766812138339,-0.91503906,0.5703125,-0.01171875,-14.770508,8.178711,-1.5869141,0.0,0.0,0.0,107.95715,56.11267,178.85193
1766812138351,-0.91503906,0.5703125,-0.01171875,-14.770508,8.178711,-1.5869141,0.0,0.0,0.0,108.7262,56.206055,-179.00024
1766812138439,-1.0244141,0.62939453,-0.11035156,-20.812988,-33.63037,0.79345703,0.0,0.0,0.0,108.7262,56.206055,-179.00024
1766812138451,-1.0244141,0.62939453,-0.11035156,-20.812988,-33.63037,0.79345703,0.0,0.0,0.0,104.95239,56.47522,179.45068
1766812138539,-0.59228516,0.2919922,-0.18701172,10.131836,5.859375,-9.521484,0.0,0.0,0.0,104.95239,56.47522,179.45068
1766812138551,-0.59228516,0.2919922,-0.18701172,10.131836,5.859375,-9.521484,0.0,0.0,0.0,101.20056,56.887207,174.38599
1766812138639,-0.8408203,0.5654297,-0.21240234,-8.117676,17.63916,-9.338379,0.0,0.0,0.0,101.20056,56.887207,174.38599
1766812138651,-0.8408203,0.5654297,-0.21240234,-8.117676,17.63916,-9.338379,0.0,0.0,0.0,102.32117,58.22754,175.77026
1766812138738,-0.84716797,0.4663086,-0.083984375,-8.911133,14.770508,-18.249512,0.0,0.0,0.0,102.32117,58.22754,175.77026
1766812138750,-0.84716797,0.4663086,-0.083984375,-8.911133,14.770508,-18.249512,0.0,0.0,0.0,106.073,59.298706,-179.89014
1766812138838,-0.8203125,0.48779297,-0.11816406,-5.3710938,19.16504,-3.9672852,0.0,0.0,0.0,106.073,59.298706,-179.89014
1766812138849,-0.8203125,0.48779297,-0.11816406,-5.3710938,19.16504,-3.9672852,0.0,0.0,0.0,108.08899,59.72168,-177.09961
1766812138938,-0.92822266,0.5053711,-0.091308594,6.591797,1.953125,-1.159668,0.0,0.0,0.0,108.08899,59.72168,-177.09961
1766812138949,-0.92822266,0.5053711,-0.091308594,6.591797,1.953125,-1.159668,0.0,0.0,0.0,110.45654,59.452515,-173.75427
1766812139037,-0.8935547,0.60791016,-0.040527344,6.8359375,-17.822266,12.390137,0.0,0.0,0.0,110.45654,59.452515,-173.75427
1766812139049,-0.8935547,0.60791016,-0.040527344,6.8359375,-17.822266,12.390137,0.0,0.0,0.0,109.08325,59.419556,-175.47363
1766812139137,-1.1176758,0.46191406,-0.25683594,6.4086914,-28.442383,-2.0141602,0.0,0.0,0.0,109.08325,59.419556,-175.47363
1766812139148,-1.1176758,0.46191406,-0.25683594,6.4086914,-28.442383,-2.0141602,0.0,0.0,0.0,104.39758,59.32068,179.08813
1766812139237,-0.65478516,0.46728516,-0.1821289,4.8217773,9.399414,13.427734,0.0,0.0,0.0,104.39758,59.32068,179.08813
1766812139249,-0.65478516,0.46728516,-0.1821289,4.8217773,9.399414,13.427734,0.0,0.0,0.0,105.69397,58.6615,-179.65942
1766812139336,-0.89208984,0.43945312,-0.22851562,3.112793,2.1362305,20.141602,0.0,0.0,0.0,105.69397,58.6615,-179.65942
1766812139348,-0.89208984,0.43945312,-0.22851562,3.112793,2.1362305,20.141602,0.0,0.0,0.0,106.589355,58.14514,178.89038
1766812139436,-0.8354492,0.43164062,-0.16552734,16.418457,4.211426,6.591797,0.0,0.0,0.0,106.589355,58.14514,178.89038
1766812139448,-0.8354492,0.43164062,-0.16552734,16.418457,4.211426,6.591797,0.0,0.0,0.0,108.20984,56.711426,178.46191
1766812139536,-0.88134766,0.49804688,-0.12060547,15.991211,-0.36621094,1.5258789,0.0,0.0,0.0,108.20984,56.711426,178.46191
1766812139547,-0.88134766,0.49804688,-0.12060547,15.991211,-0.36621094,1.5258789,0.0,0.0,0.0,110.44556,56.601562,179.74182
1766812139636,-0.8652344,0.61328125,-0.100097656,-7.2021484,15.014648,-1.7089844,0.0,0.0,0.0,110.44556,56.601562,179.74182
1766812139647,-0.8652344,0.61328125,-0.100097656,-7.2021484,15.014648,-1.7089844,0.0,0.0,0.0,112.21985,56.73889,-178.19275
1766812139736,-1.0415039,0.6196289,-0.106933594,-27.160645,-27.282715,5.065918,0.0,0.0,0.0,112.21985,56.73889,-178.19275
1766812139747,-1.0415039,0.6196289,-0.106933594,-27.160645,-27.282715,5.065918,0.0,0.0,0.0,108.34717,56.63452,-179.67041
1766812139835,-0.6464844,0.3071289,-0.22998047,14.892578,-8.911133,3.2958984,0.0,0.0,0.0,108.34717,56.63452,-179.67041
1766812139846,-0.6464844,0.3071289,-0.22998047,14.892578,-8.911133,3.2958984,0.0,0.0,0.0,104.44702,56.52466,175.53406
1766812139935,-0.8198242,0.6723633,-0.23046875,0.30517578,-5.432129,-6.225586,0.0,0.0,0.0,104.44702,56.52466,175.53406
1766812139947,-0.8198242,0.6723633,-0.23046875,0.30517578,-5.432129,-6.225586,0.0,0.0,0.0,104.61182,57.683716,176.27014
1766812140035,-0.91064453,0.35302734,-0.12402344,1.159668,10.131836,-17.76123,0.0,0.0,0.0,104.61182,57.683716,176.27014
1766812140046,-0.91064453,0.35302734,-0.12402344,1.159668,10.131836,-17.76123,0.0,0.0,0.0,107.01782,58.59558,178.396
1766812140134,-0.73779297,0.65478516,-0.18017578,0.91552734,9.460449,-4.699707,0.0,0.0,0.0,107.01782,58.59558,178.396
1766812140146,-0.73779297,0.65478516,-0.18017578,0.91552734,9.460449,-4.699707,0.0,0.0,0.0,108.28125,58.985596,179.08813
1766812140234,-0.8964844,0.43847656,-0.08300781,8.911133,3.90625,-0.91552734,0.0,0.0,0.0,108.28125,58.985596,179.08813
1766812140245,-0.8964844,0.43847656,-0.08300781,8.911133,3.90625,-0.91552734,0.0,0.0,0.0,110.6543,58.326416,-177.89062
1766812140334,-0.875,0.63671875,-0.01171875,2.6855469,-16.418457,7.019043,0.0,0.0,0.0,110.6543,58.326416,-177.89062
1766812140345,-0.875,0.63671875,-0.01171875,2.6855469,-16.418457,7.019043,0.0,0.0,0.0,109.522705,58.35388,-179.58252
1766812140433,-1.105957,0.4921875,-0.29589844,-7.507324,-21.240234,-2.0751953,0.0,0.0,0.0,109.522705,58.35388,-179.58252
1766812140445,-1.105957,0.4921875,-0.29589844,-7.507324,-21.240234,-2.0751953,0.0,0.0,0.0,104.26575,58.359375,175.22095
1766812140533,-0.6479492,0.39941406,-0.17578125,0.5493164,4.8217773,11.657715,0.0,0.0,0.0,104.26575,58.359375,175.22095
1766812140544,-0.6479492,0.39941406,-0.17578125,0.5493164,4.8217773,11.657715,0.0,0.0,0.0,105.979614,57.81006,177.85767
1766812140633,-0.89746094,0.5527344,-0.18896484,0.24414062,13.366699,17.456055,0.0,0.0,0.0,105.979614,57.81006,177.85767
1766812140644,-0.89746094,0.5527344,-0.18896484,0.24414062,13.366699,17.456055,0.0,0.0,0.0,106.80359,57.194824,176.74255
1766812140732,-0.83984375,0.39746094,-0.14208984,9.521484,11.413574,4.638672,0.0,0.0,0.0,106.80359,57.194824,176.74255
1766812140744,-0.83984375,0.39746094,-0.14208984,9.521484,11.413574,4.638672,0.0,0.0,0.0,108.54492,55.98633,176.79749
1766812140832,-0.8701172,0.52490234,-0.13720703,4.8217773,5.2490234,-5.7373047,0.0,0.0,0.0,108.54492,55.98633,176.79749
1766812140844,-0.8701172,0.52490234,-0.13720703,4.8217773,5.2490234,-5.7373047,0.0,0.0,0.0,110.253296,56.0083,177.67639
1766812140932,-0.8847656,0.59814453,-0.084472656,-15.991211,15.014648,-2.9296875,0.0,0.0,0.0,110.253296,56.0083,177.67639
1766812140943,-0.8847656,0.59814453,-0.084472656,-15.991211,15.014648,-2.9296875,0.0,0.0,0.0,111.049805,56.260986,179.64294
1766812141031,-0.9350586,0.53271484,-0.017578125,-21.606445,-15.563965,1.5869141,0.0,0.0,0.0,111.049805,56.260986,179.64294
1766812141043,-0.9350586,0.53271484,-0.017578125,-21.606445,-15.563965,1.5869141,0.0,0.0,0.0,108.22632,56.288452,179.1925
1766812141131,-0.71191406,0.45458984,-0.3178711,16.906738,-14.160156,3.7841797,0.0,0.0,0.0,108.22632,56.288452,179.1925
1766812141143,-0.71191406,0.45458984,-0.3178711,16.906738,-14.160156,3.7841797,0.0,0.0,0.0,102.74414,56.881714,173.38623
1766812141231,-0.7866211,0.5878906,-0.23925781,-6.958008,1.0986328,-10.559082,0.0,0.0,0.0,102.74414,56.881714,173.38623
1766812141242,-0.7866211,0.5878906,-0.23925781,-6.958008,1.0986328,-10.559082,0.0,0.0,0.0,103.40881,57.88147,174.25964
1766812141331,-0.91015625,0.40039062,-0.15576172,-6.4086914,14.465332,-18.310547,0.0,0.0,0.0,103.40881,57.88147,174.25964
1766812141342,-0.91015625,0.40039062,-0.15576172,-6.4086914,14.465332,-18.310547,0.0,0.0,0.0,105.67749,58.85376,176.97876
1766812141430,-0.75878906,0.5854492,-0.14550781,-0.61035156,9.643555,-7.6293945,0.0,0.0,0.0,105.67749,58.85376,176.97876
1766812141442,-0.75878906,0.5854492,-0.14550781,-0.61035156,9.643555,-7.6293945,0.0,0.0,0.0,107.93518,59.84253,179.7583
1766812141530,-0.87597656,0.4892578,-0.099609375,2.6245117,15.50293,-0.91552734,0.0,0.0,0.0,107.93518,59.84253,179.7583
1766812141542,-0.87597656,0.4892578,-0.099609375,2.6245117,15.50293,-0.91552734,0.0,0.0,0.0,110.79712,59.403076,-176.5393
1766812141630,-0.9238281,0.5957031,-0.04736328,4.8828125,-12.6953125,5.6152344,0.0,0.0,0.0,110.79712,59.403076,-176.5393
1766812141641,-0.9238281,0.5957031,-0.04736328,4.8828125,-12.6953125,5.6152344,0.0,0.0,0.0,111.08826,59.19983,-176.41296
1766812141729,-1.1650391,0.49658203,-0.1586914,3.8452148,-45.410156,10.803223,0.0,0.0,0.0,111.08826,59.19983,-176.41296
1766812141741,-1.1650391,0.49658203,-0.1586914,3.8452148,-45.410156,10.803223,0.0,0.0,0.0,106.188354,58.83728,178.56628
1766812141829,-0.4873047,0.48242188,-0.2631836,12.207031,19.28711,2.4414062,0.0,0.0,0.0,106.188354,58.83728,178.56628
1766812141841,-0.4873047,0.48242188,-0.2631836,12.207031,19.28711,2.4414062,0.0,0.0,0.0,104.39758,58.68347,176.19873
1766812141929,-0.9472656,0.42773438,-0.16503906,10.498047,2.8076172,10.864258,0.0,0.0,0.0,104.39758,58.68347,176.19873
1766812141940,-0.9472656,0.42773438,-0.16503906,10.498047,2.8076172,10.864258,0.0,0.0,0.0,107.86377,57.650757,177.68738
1766812142029,-0.8383789,0.45507812,-0.15527344,12.207031,12.390137,8.117676,0.0,0.0,0.0,107.86377,57.650757,177.68738
1766812142040,-0.8383789,0.45507812,-0.15527344,12.207031,12.390137,8.117676,0.0,0.0,0.0,109.451294,56.118164,177.64893
1766812142128,-0.86083984,0.5131836,-0.14941406,6.8969727,7.1411133,-2.5634766,0.0,0.0,0.0,109.451294,56.118164,177.64893
1766812142140,-0.86083984,0.5131836,-0.14941406,6.8969727,7.1411133,-2.5634766,0.0,0.0,0.0,111.82434,56.02478,179.599
1766812142229,-0.90478516,0.61865234,-0.12792969,-11.352539,17.76123,-3.6010742,0.0,0.0,0.0,111.82434,56.02478,179.599
1766812142240,-0.90478516,0.61865234,-0.12792969,-11.352539,17.76123,-3.6010742,0.0,0.0,0.0,113.64258,56.33789,-177.75879
1766812142328,-0.93359375,0.51904297,-0.016601562,-17.578125,-16.052246,6.164551,0.0,0.0,0.0,113.64258,56.33789,-177.75879
1766812142339,-0.93359375,0.51904297,-0.016601562,-17.578125,-16.052246,6.164551,0.0,0.0,0.0,111.588135,56.05774,-177.39075
1766812142428,-0.7524414,0.48632812,-0.3251953,13.183594,-29.296875,10.498047,0.0,0.0,0.0,111.588135,56.05774,-177.39075
1766812142439,-0.7524414,0.48632812,-0.3251953,13.183594,-29.296875,10.498047,0.0,0.0,0.0,105.754395,56.469727,177.20947
1766812142527,-0.7661133,0.57373047,-0.33251953,-4.0893555,8.117676,-12.023926,0.0,0.0,0.0,105.754395,56.469727,177.20947
1766812142539,-0.7661133,0.57373047,-0.33251953,-4.0893555,8.117676,-12.023926,0.0,0.0,0.0,104.72717,57.112427,174.97925
1766812142627,-0.89501953,0.37109375,-0.14697266,6.225586,-3.4179688,-12.817383,0.0,0.0,0.0,104.72717,57.112427,174.97925
1766812142638,-0.89501953,0.37109375,-0.14697266,6.225586,-3.4179688,-12.817383,0.0,0.0,0.0,107.73193,57.60132,177.81372
1766812142727,-0.7319336,0.64501953,-0.16308594,4.4555664,8.850098,-3.4179688,0.0,0.0,0.0,107.73193,57.60132,177.81372
1766812142738,-0.7319336,0.64501953,-0.16308594,4.4555664,8.850098,-3.4179688,0.0,0.0,0.0,108.742676,58.36487,177.9895
1766812142826,-0.8408203,0.49902344,-0.13427734,10.437012,7.9956055,-6.0424805,0.0,0.0,0.0,108.742676,58.36487,177.9895
1766812142838,-0.8408203,0.49902344,-0.13427734,10.437012,7.9956055,-6.0424805,0.0,0.0,0.0,110.86853,58.222046,-179.86267
1766812142926,-0.89746094,0.6591797,-0.08496094,6.8969727,-14.6484375,1.3427734,0.0,0.0,0.0,110.86853,58.222046,-179.86267
1766812142938,-0.89746094,0.6591797,-0.08496094,6.8969727,-14.6484375,1.3427734,0.0,0.0,0.0,111.35193,58.513184,179.7583
1766812143026,-1.199707,0.5498047,-0.19726562,-3.7841797,-36.010742,5.92041,0.0,0.0,0.0,111.35193,58.513184,179.7583
1766812143037,-1.199707,0.5498047,-0.19726562,-3.7841797,-36.010742,5.92041,0.0,0.0,0.0,107.34741,58.43628,175.55603
1766812143125,-0.4897461,0.44384766,-0.2265625,-1.6479492,25.20752,2.2583008,0.0,0.0,0.0,107.34741,58.43628,175.55603
1766812143137,-0.4897461,0.44384766,-0.2265625,-1.6479492,25.20752,2.2583008,0.0,0.0,0.0,105.97412,58.50769,175.03967
1766812143225,-0.95166016,0.43310547,-0.20605469,-8.178711,8.972168,5.126953,0.0,0.0,0.0,105.97412,58.50769,175.03967
1766812143236,-0.95166016,0.43310547,-0.20605469,-8.178711,8.972168,5.126953,0.0,0.0,0.0,107.46277,58.09021,175.4187
1766812143325,-0.8105469,0.5361328,-0.19335938,8.300781,4.211426,14.038086,0.0,0.0,0.0,107.46277,58.09021,175.4187
1766812143336,-0.8105469,0.5361328,-0.19335938,8.300781,4.211426,14.038086,0.0,0.0,0.0,108.06152,56.722412,175.29236
1766812143424,-0.8847656,0.45898438,-0.11035156,1.8920898,2.319336,0.9765625,0.0,0.0,0.0,108.06152,56.722412,175.29236
1766812143436,-0.8847656,0.45898438,-0.11035156,1.8920898,2.319336,0.9765625,0.0,0.0,0.0,109.58313,56.601562,176.40198
1766812143524,-0.88183594,0.5678711,-0.13476562,-11.108398,16.479492,-4.638672,0.0,0.0,0.0,109.58313,56.601562,176.40198
1766812143536,-0.88183594,0.5678711,-0.13476562,-11.108398,16.479492,-4.638672,0.0,0.0,0.0,110.23682,56.832275,177.9126
1766812143624,-0.9243164,0.5258789,-0.017089844,-25.634766,-4.333496,1.4648438,0.0,0.0,0.0,110.23682,56.832275,177.9126
1766812143636,-0.9243164,0.5258789,-0.017089844,-25.634766,-4.333496,1.4648438,0.0,0.0,0.0,108.81958,56.73889,179.44519
1766812143724,-0.9086914,0.56933594,-0.30371094,-5.493164,-41.809082,4.8828125,0.0,0.0,0.0,108.81958,56.73889,179.44519
1766812143735,-0.9086914,0.56933594,-0.30371094,-5.493164,-41.809082,4.8828125,0.0,0.0,0.0,101.94763,57.25525,174.1278
1766812143823,-0.7050781,0.43701172,-0.25146484,-18.615723,-1.8920898,-15.380859,0.0,0.0,0.0,101.94763,57.25525,174.1278
1766812143835,-0.7050781,0.43701172,-0.25146484,-18.615723,-1.8920898,-15.380859,0.0,0.0,0.0,101.22803,57.996826,172.67761
1766812143924,-0.94677734,0.39501953,-0.091308594,-7.6293945,5.92041,-14.953613,0.0,0.0,0.0,101.22803,57.996826,172.67761
1766812143935,-0.94677734,0.39501953,-0.091308594,-7.6293945,5.92041,-14.953613,0.0,0.0,0.0,102.33765,58.815308,174.60022
1766812144023,-0.7338867,0.5756836,-0.075683594,5.92041,1.159668,-11.352539,0.0,0.0,0.0,102.33765,58.815308,174.60022
1766812144034,-0.7338867,0.5756836,-0.075683594,5.92041,1.159668,-11.352539,0.0,0.0,0.0,103.34839,60.17212,175.55054
1766812144122,-0.85546875,0.5024414,-0.06347656,-0.24414062,18.920898,-8.239746,0.0,0.0,0.0,103.34839,60.17212,175.55054
1766812144134,-0.85546875,0.5024414,-0.06347656,-0.24414062,18.920898,-8.239746,0.0,0.0,0.0,105.86975,60.46875,178.58276
1766812144222,-0.9614258,0.5209961,-0.07519531,6.591797,5.2490234,-5.3710938,0.0,0.0,0.0,105.86975,60.46875,178.58276
1766812144233,-0.9614258,0.5209961,-0.07519531,6.591797,5.2490234,-5.3710938,0.0,0.0,0.0,108.21533,60.496216,-179.14307
1766812144322,-0.87890625,0.61279297,-0.00390625,2.5634766,-13.61084,8.300781,0.0,0.0,0.0,108.21533,60.496216,-179.14307
1766812144333,-0.87890625,0.61279297,-0.00390625,2.5634766,-13.61084,8.300781,0.0,0.0,0.0,106.29822,60.48523,178.85742
1766812144422,-0.62841797,0.34228516,-0.26660156,-16.601562,8.728027,4.5166016,0.0,0.0,0.0,106.29822,60.48523,178.85742
1766812144433,-0.62841797,0.34228516,-0.26660156,-16.601562,8.728027,4.5166016,0.0,0.0,0.0,102.024536,60.754395,174.06738
1766812144521,-1.0385742,0.29589844,-0.23486328,19.89746,2.746582,4.211426,0.0,0.0,0.0,102.024536,60.754395,174.06738
1766812144533,-1.0385742,0.29589844,-0.23486328,19.89746,2.746582,4.211426,0.0,0.0,0.0,105.754395,59.414062,177.13257
1766812144621,-0.73339844,0.63183594,-0.14550781,21.484375,-0.061035156,12.268066,0.0,0.0,0.0,105.754395,59.414062,177.13257
1766812144632,-0.73339844,0.63183594,-0.14550781,21.484375,-0.061035156,12.268066,0.0,0.0,0.0,107.23755,58.14514,176.72058
1766812144721,-0.93408203,0.39160156,-0.11669922,5.92041,15.563965,-2.1362305,0.0,0.0,0.0,107.23755,58.14514,176.72058
1766812144732,-0.93408203,0.39160156,-0.11669922,5.92041,15.563965,-2.1362305,0.0,0.0,0.0,110.34119,57.31018,179.01123
1766812144820,-0.8618164,0.5932617,-0.16357422,-2.0751953,12.6953125,-3.8452148,0.0,0.0,0.0,110.34119,57.31018,179.01123
1766812144832,-0.8618164,0.5932617,-0.16357422,-2.0751953,12.6953125,-3.8452148,0.0,0.0,0.0,112.17041,57.337646,-179.41223
1766812144920,-0.94628906,0.5185547,-0.008300781,-23.864746,-0.9765625,-0.4272461,0.0,0.0,0.0,112.17041,57.337646,-179.41223
1766812144932,-0.94628906,0.5185547,-0.008300781,-23.864746,-0.9765625,-0.4272461,0.0,0.0,0.0,112.038574,56.986084,-177.36328
1766812145020,-0.9511719,0.61816406,-0.29541016,-6.4697266,-32.77588,10.986328,0.0,0.0,0.0,112.038574,56.986084,-177.36328
1766812145031,-0.9511719,0.61816406,-0.29541016,-6.4697266,-32.77588,10.986328,0.0,0.0,0.0,105.95764,57.34314,178.70361
1766812145119,-0.6489258,0.2993164,-0.22265625,-19.836426,11.901855,-22.216797,0.0,0.0,0.0,105.95764,57.34314,178.70361
1766812145131,-0.6489258,0.2993164,-0.22265625,-19.836426,11.901855,-22.216797,0.0,0.0,0.0,105.32593,57.749634,176.9403
1766812145219,-0.8979492,0.4951172,-0.16699219,1.8310547,15.50293,-6.0424805,0.0,0.0,0.0,105.32593,57.749634,176.9403
1766812145231,-0.8979492,0.4951172,-0.16699219,1.8310547,15.50293,-6.0424805,0.0,0.0,0.0,106.89697,58.57361,178.5553
1766812145319,-0.7832031,0.5332031,-0.14013672,10.192871,-3.1738281,-4.8828125,0.0,0.0,0.0,106.89697,58.57361,178.5553
1766812145330,-0.7832031,0.5332031,-0.14013672,10.192871,-3.1738281,-4.8828125,0.0,0.0,0.0,109.39636,59.5459,-179.3518
1766812145419,-0.82714844,0.5175781,-0.1508789,-1.6479492,16.357422,-1.2817383,0.0,0.0,0.0,109.39636,59.5459,-179.3518
1766812145430,-0.82714844,0.5175781,-0.1508789,-1.6479492,16.357422,-1.2817383,0.0,0.0,0.0,111.31348,59.430542,-177.40723
1766812145519,-0.91259766,0.51171875,-0.12548828,13.366699,-4.699707,-1.7700195,0.0,0.0,0.0,111.31348,59.430542,-177.40723
1766812145530,-0.91259766,0.51171875,-0.12548828,13.366699,-4.699707,-1.7700195,0.0,0.0,0.0,113.0603,59.21631,-175.44617
1766812145618,-0.84375,0.62353516,-0.05859375,-4.211426,-20.507812,8.056641,0.0,0.0,0.0,113.0603,59.21631,-175.44617
1766812145630,-0.84375,0.62353516,-0.05859375,-4.211426,-20.507812,8.056641,0.0,0.0,0.0,110.9729,59.315186,-177.74231
1766812145718,-0.75390625,0.3515625,-0.3071289,-23.132324,1.4038086,-3.479004,0.0,0.0,0.0,110.9729,59.315186,-177.74231
1766812145729,-0.75390625,0.3515625,-0.3071289,-23.132324,1.4038086,-3.479004,0.0,0.0,0.0,105.721436,59.60083,177.41272
1766812145817,-1.0107422,0.35107422,-0.26660156,14.099121,0.7324219,8.056641,0.0,0.0,0.0,105.721436,59.60083,177.41272
1766812145829,-1.0107422,0.35107422,-0.26660156,14.099121,0.7324219,8.056641,0.0,0.0,0.0,107.37488,58.64502,179.31885
1766812145917,-0.75439453,0.6196289,-0.17285156,15.74707,-10.437012,15.136719,0.0,0.0,0.0,107.37488,58.64502,179.31885
1766812145929,-0.75439453,0.6196289,-0.17285156,15.74707,-10.437012,15.136719,0.0,0.0,0.0,107.29797,57.41455,177.8302
1766812146017,-0.9111328,0.38085938,-0.088378906,3.9672852,6.4086914,0.6713867,0.0,0.0,0.0,107.29797,57.41455,177.8302
1766812146028,-0.9111328,0.38085938,-0.088378906,3.9672852,6.4086914,0.6713867,0.0,0.0,0.0,108.61633,56.782837,178.2367
1766812146117,-0.8701172,0.5810547,-0.14648438,-2.4414062,-0.30517578,-3.6621094,0.0,0.0,0.0,108.61633,56.782837,178.2367
1766812146128,-0.8701172,0.5810547,-0.14648438,-2.4414062,-0.30517578,-3.6621094,0.0,0.0,0.0,108.76465,57.10144,177.89062
1766812146216,-0.97753906,0.5756836,0.022460938,-21.1792,-8.300781,3.6621094,0.0,0.0,0.0,108.76465,57.10144,177.89062
1766812146228,-0.97753906,0.5756836,0.022460938,-21.1792,-8.300781,3.6621094,0.0,0.0,0.0,107.281494,57.090454,177.95654
1766812146316,-0.9355469,0.5673828,-0.18310547,-3.2958984,-45.47119,8.728027,0.0,0.0,0.0,107.281494,57.090454,177.95654
1766812146327,-0.9355469,0.5673828,-0.18310547,-3.2958984,-45.47119,8.728027,0.0,0.0,0.0,100.46448,57.227783,172.53479
1766812146416,-0.58984375,0.3696289,-0.18701172,-5.6152344,-16.296387,-9.338379,0.0,0.0,0.0,100.46448,57.227783,172.53479
1766812146428,-0.58984375,0.3696289,-0.18701172,-5.6152344,-16.296387,-9.338379,0.0,0.0,0.0,97.0697,57.387085,167.48108
1766812146515,-0.95947266,0.5336914,-0.005859375,-19.89746,19.40918,-13.48877,0.0,0.0,0.0,97.0697,57.387085,167.48108
1766812146527,-0.95947266,0.5336914,-0.005859375,-19.89746,19.40918,-13.48877,0.0,0.0,0.0,97.46521,58.375854,168.17871
1766812146615,-0.76416016,0.51904297,-0.045410156,-7.2021484,5.065918,-13.122559,0.0,0.0,0.0,97.46521,58.375854,168.17871
1766812146626,-0.76416016,0.51904297,-0.045410156,-7.2021484,5.065918,-13.122559,0.0,0.0,0.0,97.59155,60.117188,169.151
1766812146715,-0.83251953,0.5390625,-0.022949219,-1.5258789,9.216309,-3.6010742,0.0,0.0,0.0,97.59155,60.117188,169.151
1766812146727,-0.83251953,0.5390625,-0.022949219,-1.5258789,9.216309,-3.6010742,0.0,0.0,0.0,98.690186,60.688477,170.65063
1766812146815,-0.9321289,0.49316406,-0.028320312,11.779785,0.61035156,-4.3945312,0.0,0.0,0.0,98.690186,60.688477,170.65063
1766812146826,-0.9321289,0.49316406,-0.028320312,11.779785,0.61035156,-4.3945312,0.0,0.0,0.0,100.849,60.567627,172.62817
1766812146914,-0.8496094,0.62109375,0.026367188,4.1503906,-13.977051,4.3945312,0.0,0.0,0.0,100.849,60.567627,172.62817
1766812146926,-0.8496094,0.62109375,0.026367188,4.1503906,-13.977051,4.3945312,0.0,0.0,0.0,100.06348,60.529175,170.88135
1766812147014,-0.8598633,0.4580078,-0.20800781,-8.117676,-8.239746,2.1362305,0.0,0.0,0.0,100.06348,60.529175,170.88135
1766812147025,-0.8598633,0.4580078,-0.20800781,-8.117676,-8.239746,2.1362305,0.0,0.0,0.0,95.82825,60.27649,166.52527
1766812147114,-0.89746094,0.3491211,-0.2109375,17.456055,-0.5493164,12.817383,0.0,0.0,0.0,95.82825,60.27649,166.52527
1766812147125,-0.89746094,0.3491211,-0.2109375,17.456055,-0.5493164,12.817383,0.0,0.0,0.0,97.333374,58.99109,168.07983
1766812147213,-0.8334961,0.69677734,-0.04736328,23.742676,-8.544922,26.855469,0.0,0.0,0.0,97.333374,58.99109,168.07983
1766812147225,-0.8334961,0.69677734,-0.04736328,23.742676,-8.544922,26.855469,0.0,0.0,0.0,99.89868,57.733154,168.37097
1766812147313,-0.8779297,0.39160156,-0.044433594,7.385254,22.644043,1.5258789,0.0,0.0,0.0,99.89868,57.733154,168.37097
1766812147324,-0.8779297,0.39160156,-0.044433594,7.385254,22.644043,1.5258789,0.0,0.0,0.0,102.38159,56.222534,168.75
1766812147413,-0.8408203,0.5708008,-0.07910156,7.5683594,6.1035156,-5.3100586,0.0,0.0,0.0,102.38159,56.222534,168.75
1766812147425,-0.8408203,0.5708008,-0.07910156,7.5683594,6.1035156,-5.3100586,0.0,0.0,0.0,104.48547,56.052246,170.12878
1766812147512,-0.8925781,0.60498047,0.020996094,-18.554688,13.85498,0.8544922,0.0,0.0,0.0,104.48547,56.052246,170.12878
1766812147524,-0.8925781,0.60498047,0.020996094,-18.554688,13.85498,0.8544922,0.0,0.0,0.0,105.69946,56.189575,172.42493
1766812147612,-1.034668,0.59375,-0.045410156,-29.785156,-15.014648,-1.4648438,0.0,0.0,0.0,105.69946,56.189575,172.42493
1766812147624,-1.034668,0.59375,-0.045410156,-29.785156,-15.014648,-1.4648438,0.0,0.0,0.0,102.43652,56.134644,172.15576
1766812147712,-0.6352539,0.3671875,-0.14208984,12.817383,-8.972168,-0.12207031,0.0,0.0,0.0,102.43652,56.134644,172.15576
1766812147723,-0.6352539,0.3671875,-0.14208984,12.817383,-8.972168,-0.12207031,0.0,0.0,0.0,99.13513,56.260986,168.05786
1766812147812,-0.83935547,0.62060547,-0.27392578,4.3945312,-3.7841797,-10.681152,0.0,0.0,0.0,99.13513,56.260986,168.05786
1766812147823,-0.83935547,0.62060547,-0.27392578,4.3945312,-3.7841797,-10.681152,0.0,0.0,0.0,98.77258,58.13965,167.6239
1766812147911,-0.9003906,0.39746094,-0.09716797,-1.5258789,5.004883,-17.028809,0.0,0.0,0.0,98.77258,58.13965,167.6239
1766812147923,-0.9003906,0.39746094,-0.09716797,-1.5258789,5.004883,-17.028809,0.0,0.0,0.0,101.865234,59.60083,171.51855
1766812148011,-0.7597656,0.59375,-0.08886719,-7.3242188,7.507324,-7.2021484,0.0,0.0,0.0,101.865234,59.60083,171.51855
1766812148023,-0.7597656,0.59375,-0.08886719,-7.3242188,7.507324,-7.2021484,0.0,0.0,0.0,103.150635,60.41931,173.58948
1766812148111,-0.8745117,0.4819336,-0.03857422,3.6621094,7.080078,-0.7324219,0.0,0.0,0.0,103.150635,60.41931,173.58948
1766812148122,-0.8745117,0.4819336,-0.03857422,3.6621094,7.080078,-0.7324219,0.0,0.0,0.0,104.94141,60.199585,176.50635
1766812148210,-0.9213867,0.66796875,0.036132812,4.4555664,-20.446777,11.657715,0.0,0.0,0.0,104.94141,60.199585,176.50635
1766812148222,-0.9213867,0.66796875,0.036132812,4.4555664,-20.446777,11.657715,0.0,0.0,0.0,103.29895,59.831543,174.11682
1766812148310,-1.0708008,0.43798828,-0.2680664,-3.479004,-11.352539,3.540039,0.0,0.0,0.0,103.29895,59.831543,174.11682
1766812148321,-1.0708008,0.43798828,-0.2680664,-3.479004,-11.352539,3.540039,0.0,0.0,0.0,98.464966,58.793335,169.03564
1766812148410,-0.74121094,0.41259766,-0.17773438,4.699707,3.9672852,18.493652,0.0,0.0,0.0,98.464966,58.793335,169.03564
1766812148422,-0.74121094,0.41259766,-0.17773438,4.699707,3.9672852,18.493652,0.0,0.0,0.0,100.48096,57.50244,171.35376
1766812148510,-0.8388672,0.5864258,-0.10058594,4.8217773,2.0141602,27.648926,0.0,0.0,0.0,100.48096,57.50244,171.35376
1766812148521,-0.8388672,0.5864258,-0.10058594,4.8217773,2.0141602,27.648926,0.0,0.0,0.0,102.03552,56.502686,171.39221
1766812148609,-0.8613281,0.4116211,-0.06347656,7.8125,10.925293,5.859375,0.0,0.0,0.0,102.03552,56.502686,171.39221
1766812148621,-0.8613281,0.4116211,-0.06347656,7.8125,10.925293,5.859375,0.0,0.0,0.0,103.40881,55.178833,171.27136
1766812148709,-0.83691406,0.5708008,-0.06982422,7.385254,-2.8076172,0.6713867,0.0,0.0,0.0,103.40881,55.178833,171.27136
1766812148720,-0.83691406,0.5708008,-0.06982422,7.385254,-2.8076172,0.6713867,0.0,0.0,0.0,104.18335,55.08545,171.41968
1766812148809,-0.9121094,0.63378906,-4.8828125E-4,-6.5307617,4.9438477,1.3427734,0.0,0.0,0.0,104.18335,55.08545,171.41968
1766812148820,-0.9121094,0.63378906,-4.8828125E-4,-6.5307617,4.9438477,1.3427734,0.0,0.0,0.0,104.2218,55.03601,171.65588
1766812148908,-0.95654297,0.60302734,-0.041503906,-5.493164,-28.320312,6.652832,0.0,0.0,0.0,104.2218,55.03601,171.65588
1766812148920,-0.95654297,0.60302734,-0.041503906,-5.493164,-28.320312,6.652832,0.0,0.0,0.0,101.17859,54.7229,169.6399
1766812149008,-0.66503906,0.4399414,-0.19970703,19.53125,-14.221191,-0.061035156,0.0,0.0,0.0,101.17859,54.7229,169.6399
1766812149020,-0.66503906,0.4399414,-0.19970703,19.53125,-14.221191,-0.061035156,0.0,0.0,0.0,98.32214,54.536133,164.61365
1766812149108,-0.7685547,0.64208984,-0.21875,-7.1411133,8.544922,-15.441895,0.0,0.0,0.0,98.32214,54.536133,164.61365
1766812149119,-0.7685547,0.64208984,-0.21875,-7.1411133,8.544922,-15.441895,0.0,0.0,0.0,98.151855,55.876465,163.91052
1766812149208,-0.8588867,0.4609375,-0.10107422,-14.587402,-1.8920898,-21.54541,0.0,0.0,0.0,98.151855,55.876465,163.91052
1766812149219,-0.8588867,0.4609375,-0.10107422,-14.587402,-1.8920898,-21.54541,0.0,0.0,0.0,98.22327,57.409058,165.20691
1766812149307,-0.7519531,0.6455078,-0.045898438,-18.493652,11.169434,-16.357422,0.0,0.0,0.0,98.22327,57.409058,165.20691
1766812149319,-0.7519531,0.6455078,-0.045898438,-18.493652,11.169434,-16.357422,0.0,0.0,0.0,98.7616,59.32617,167.32727
1766812149407,-0.8491211,0.5136719,0.008300781,-7.507324,9.155273,-8.300781,0.0,0.0,0.0,98.7616,59.32617,167.32727
1766812149418,-0.8491211,0.5136719,0.008300781,-7.507324,9.155273,-8.300781,0.0,0.0,0.0,99.382324,59.941406,170.12878
1766812149507,-0.95166016,0.5864258,0.03955078,5.493164,-11.108398,-4.760742,0.0,0.0,0.0,99.382324,59.941406,170.12878
1766812149518,-0.95166016,0.5864258,0.03955078,5.493164,-11.108398,-4.760742,0.0,0.0,0.0,99.11865,60.386353,170.08484
1766812149606,-1.1489258,0.5761719,-0.04345703,7.9345703,-33.996582,6.958008,0.0,0.0,0.0,99.11865,60.386353,170.08484
1766812149618,-1.1489258,0.5761719,-0.04345703,7.9345703,-33.996582,6.958008,0.0,0.0,0.0,94.99878,60.05127,165.2893
1766812149706,-0.5078125,0.39697266,-0.20751953,6.164551,21.240234,10.131836,0.0,0.0,0.0,94.99878,60.05127,165.2893
1766812149718,-0.5078125,0.39697266,-0.20751953,6.164551,21.240234,10.131836,0.0,0.0,0.0,94.23523,59.76013,163.94897
1766812149806,-0.9897461,0.4736328,-0.087402344,9.033203,5.004883,16.540527,0.0,0.0,0.0,94.23523,59.76013,163.94897
1766812149817,-0.9897461,0.4736328,-0.087402344,9.033203,5.004883,16.540527,0.0,0.0,0.0,98.54736,58.397827,166.31653
1766812149905,-0.8354492,0.42626953,-0.046875,13.122559,16.967773,8.972168,0.0,0.0,0.0,98.54736,58.397827,166.31653
1766812149917,-0.8354492,0.42626953,-0.046875,13.122559,16.967773,8.972168,0.0,0.0,0.0,101.03577,56.54663,167.48108
1766812150005,-0.8417969,0.50634766,-0.08203125,12.756348,10.7421875,4.8828125,0.0,0.0,0.0,101.03577,56.54663,167.48108
1766812150017,-0.8417969,0.50634766,-0.08203125,12.756348,10.7421875,4.8828125,0.0,0.0,0.0,103.89221,56.184082,169.6289
1766812150105,-0.8901367,0.6088867,-0.08984375,-9.58252,19.53125,-2.2583008,0.0,0.0,0.0,103.89221,56.184082,169.6289
1766812150116,-0.8901367,0.6088867,-0.08984375,-9.58252,19.53125,-2.2583008,0.0,0.0,0.0,106.34216,56.052246,172.56226
1766812150205,-0.9501953,0.5097656,0.05859375,-22.094727,-7.2631836,-2.380371,0.0,0.0,0.0,106.34216,56.052246,172.56226
1766812150216,-0.9501953,0.5097656,0.05859375,-22.094727,-7.2631836,-2.380371,0.0,0.0,0.0,105.545654,55.997314,174.55627
1766812150304,-0.8017578,0.6191406,-0.32080078,-1.4648438,-32.53174,-1.8920898,0.0,0.0,0.0,105.545654,55.997314,174.55627
1766812150316,-0.8017578,0.6191406,-0.32080078,-1.4648438,-32.53174,-1.8920898,0.0,0.0,0.0,98.87695,57.22229,169.18945
1766812150404,-0.7963867,0.4897461,-0.2788086,-21.240234,20.141602,-26.306152,0.0,0.0,0.0,98.87695,57.22229,169.18945
1766812150416,-0.7963867,0.4897461,-0.2788086,-21.240234,20.141602,-26.306152,0.0,0.0,0.0,99.00879,58.183594,169.14551
1766812150504,-0.91552734,0.35888672,-0.13867188,-2.8076172,4.638672,-19.958496,0.0,0.0,0.0,99.00879,58.183594,169.14551
1766812150515,-0.91552734,0.35888672,-0.13867188,-2.8076172,4.638672,-19.958496,0.0,0.0,0.0,101.66199,59.518433,173.16101
1766812150603,-0.7607422,0.65527344,-0.052734375,-5.493164,4.760742,-9.155273,0.0,0.0,0.0,101.66199,59.518433,173.16101
1766812150615,-0.7607422,0.65527344,-0.052734375,-5.493164,4.760742,-9.155273,0.0,0.0,0.0,103.48572,60.721436,176.0614
1766812150703,-0.86621094,0.45214844,-0.029785156,-6.0424805,20.568848,-4.8217773,0.0,0.0,0.0,103.48572,60.721436,176.0614
1766812150714,-0.86621094,0.45214844,-0.029785156,-6.0424805,20.568848,-4.8217773,0.0,0.0,0.0,105.303955,60.529175,179.47266
1766812150803,-0.95947266,0.58203125,-0.022460938,6.652832,-13.916016,3.7841797,0.0,0.0,0.0,105.303955,60.529175,179.47266
1766812150815,-0.95947266,0.58203125,-0.022460938,6.652832,-13.916016,3.7841797,0.0,0.0,0.0,105.29297,60.496216,179.53857
1766812150903,-1.0913086,0.5888672,-0.047851562,-3.6621094,-32.104492,12.145996,0.0,0.0,0.0,105.29297,60.496216,179.53857
1766812150914,-1.0913086,0.5888672,-0.047851562,-3.6621094,-32.104492,12.145996,0.0,0.0,0.0,101.37634,59.87549,175.29236
1766812151002,-0.51416016,0.3647461,-0.19335938,-9.033203,14.343262,8.361816,0.0,0.0,0.0,101.37634,59.87549,175.29236
1766812151014,-0.51416016,0.3647461,-0.19335938,-9.033203,14.343262,8.361816,0.0,0.0,0.0,97.51465,59.65576,171.21643
1766812151102,-1.0537109,0.4091797,-0.16357422,14.160156,11.84082,7.507324,0.0,0.0,0.0,97.51465,59.65576,171.21643
1766812151113,-1.0537109,0.4091797,-0.16357422,14.160156,11.84082,7.507324,0.0,0.0,0.0,99.99756,58.49121,172.35901
1766812151202,-0.7548828,0.5107422,-0.15527344,10.375977,5.004883,15.686035,0.0,0.0,0.0,99.99756,58.49121,172.35901
1766812151213,-0.7548828,0.5107422,-0.15527344,10.375977,5.004883,15.686035,0.0,0.0,0.0,101.277466,56.96411,172.63367
1766812151301,-0.890625,0.46728516,-0.044921875,10.986328,9.033203,2.5024414,0.0,0.0,0.0,101.277466,56.96411,172.63367
1766812151313,-0.890625,0.46728516,-0.044921875,10.986328,9.033203,2.5024414,0.0,0.0,0.0,104.43054,55.980835,175.11658
1766812151401,-0.87158203,0.5932617,-0.114746094,-4.4555664,22.583008,-7.2021484,0.0,0.0,0.0,104.43054,55.980835,175.11658
1766812151412,-0.87158203,0.5932617,-0.114746094,-4.4555664,22.583008,-7.2021484,0.0,0.0,0.0,106.67175,56.255493,177.69287
1766812151501,-0.9453125,0.5546875,0.068359375,-24.230957,-5.3100586,2.5634766,0.0,0.0,0.0,106.67175,56.255493,177.69287
1766812151512,-0.9453125,0.5546875,0.068359375,-24.230957,-5.3100586,2.5634766,0.0,0.0,0.0,107.21008,56.11267,-179.18152
1766812151600,-0.8779297,0.5708008,-0.31396484,19.714355,-30.761719,7.9956055,0.0,0.0,0.0,107.21008,56.11267,-179.18152
1766812151612,-0.8779297,0.5708008,-0.31396484,19.714355,-30.761719,7.9956055,0.0,0.0,0.0,101.21704,56.727905,176.09436
1766812151700,-0.7192383,0.42089844,-0.31396484,-8.056641,-16.845703,-19.348145,0.0,0.0,0.0,101.21704,56.727905,176.09436
1766812151712,-0.7192383,0.42089844,-0.31396484,-8.056641,-16.845703,-19.348145,0.0,0.0,0.0,100.42053,57.70569,173.34778
1766812151800,-0.9433594,0.5395508,-0.033203125,-17.76123,18.493652,-18.920898,0.0,0.0,0.0,100.42053,57.70569,173.34778
1766812151812,-0.9433594,0.5395508,-0.033203125,-17.76123,18.493652,-18.920898,0.0,0.0,0.0,102.13989,58.85376,175.06714
1766812151899,-0.7680664,0.51123047,-0.060546875,-12.145996,16.845703,-19.77539,0.0,0.0,0.0,102.13989,58.85376,175.06714
1766812151911,-0.7680664,0.51123047,-0.060546875,-12.145996,16.845703,-19.77539,0.0,0.0,0.0,102.82654,60.545654,176.64917
1766812151999,-0.828125,0.50146484,-0.079589844,-6.652832,14.465332,-2.9907227,0.0,0.0,0.0,102.82654,60.545654,176.64917
1766812152011,-0.828125,0.50146484,-0.079589844,-6.652832,14.465332,-2.9907227,0.0,0.0,0.0,104.04602,60.787354,179.1211
1766812152099,-0.9633789,0.4975586,-0.03857422,8.666992,2.6855469,-2.9907227,0.0,0.0,0.0,104.04602,60.787354,179.1211
1766812152110,-0.9633789,0.4975586,-0.03857422,8.666992,2.6855469,-2.9907227,0.0,0.0,0.0,106.33118,60.699463,-178.09387
1766812152199,-0.8833008,0.6044922,0.060546875,3.1738281,-16.662598,8.056641,0.0,0.0,0.0,106.33118,60.699463,-178.09387
1766812152211,-0.8833008,0.6044922,0.060546875,3.1738281,-16.662598,8.056641,0.0,0.0,0.0,104.45801,60.64453,179.71985
1766812152299,-0.8364258,0.37060547,-0.2890625,-7.507324,-18.432617,3.2348633,0.0,0.0,0.0,104.45801,60.64453,179.71985
1766812152310,-0.8364258,0.37060547,-0.2890625,-7.507324,-18.432617,3.2348633,0.0,0.0,0.0,98.0365,60.803833,172.58423
1766812152398,-0.87890625,0.39697266,-0.27294922,23.010254,13.793945,13.61084,0.0,0.0,0.0,98.0365,60.803833,172.58423
1766812152409,-0.87890625,0.39697266,-0.27294922,23.010254,13.793945,13.61084,0.0,0.0,0.0,100.64026,59.501953,174.34204
1766812152498,-0.78564453,0.5961914,-0.14697266,22.216797,-10.070801,20.141602,0.0,0.0,0.0,100.64026,59.501953,174.34204
1766812152509,-0.78564453,0.5961914,-0.14697266,22.216797,-10.070801,20.141602,0.0,0.0,0.0,102.908936,58.134155,174.74854
1766812152597,-0.8828125,0.40039062,-0.052246094,7.507324,17.39502,1.8920898,0.0,0.0,0.0,102.908936,58.134155,174.74854
1766812152609,-0.8828125,0.40039062,-0.052246094,7.507324,17.39502,1.8920898,0.0,0.0,0.0,106.47949,57.128906,177.23694
1766812152697,-0.88183594,0.5878906,-0.14111328,6.0424805,15.563965,-1.5258789,0.0,0.0,0.0,106.47949,57.128906,177.23694
1766812152709,-0.88183594,0.5878906,-0.14111328,6.0424805,15.563965,-1.5258789,0.0,0.0,0.0,108.86902,56.854248,178.8739
1766812152797,-0.91748047,0.60058594,0.029785156,-30.761719,8.483887,0.061035156,0.0,0.0,0.0,108.86902,56.854248,178.8739
1766812152808,-0.91748047,0.60058594,0.029785156,-30.761719,8.483887,0.061035156,0.0,0.0,0.0,109.56665,56.535645,-178.13232
1766812152897,-1.0283203,0.6196289,-0.265625,3.4179688,-44.311523,5.7373047,0.0,0.0,0.0,109.56665,56.535645,-178.13232
1766812152908,-1.0283203,0.6196289,-0.265625,3.4179688,-44.311523,5.7373047,0.0,0.0,0.0,103.35388,57.22229,178.17078
1766812152996,-0.55810547,0.29589844,-0.23144531,-16.052246,-4.5166016,-14.6484375,0.0,0.0,0.0,103.35388,57.22229,178.17078
1766812153008,-0.55810547,0.29589844,-0.23144531,-16.052246,-4.5166016,-14.6484375,0.0,0.0,0.0,100.772095,57.44751,174.49585
1766812153096,-0.9199219,0.57177734,-0.13085938,-6.591797,61.462402,-14.038086,0.0,0.0,0.0,100.772095,57.44751,174.49585
1766812153107,-0.9199219,0.57177734,-0.13085938,-6.591797,61.462402,-14.038086,0.0,0.0,0.0,104.56787,58.590088,178.48938
1766812153196,-0.765625,0.41992188,-0.14208984,7.9956055,-13.977051,-4.760742,0.0,0.0,0.0,104.56787,58.590088,178.48938
1766812153207,-0.765625,0.41992188,-0.14208984,7.9956055,-13.977051,-4.760742,0.0,0.0,0.0,106.52344,60.08423,-178.797
1766812153295,-0.8432617,0.5493164,-0.091308594,-5.004883,11.535645,-4.211426,0.0,0.0,0.0,106.52344,60.08423,-178.797
1766812153307,-0.8432617,0.5493164,-0.091308594,-5.004883,11.535645,-4.211426,0.0,0.0,0.0,109.03931,60.402832,-175.39673
1766812153395,-0.9926758,0.4819336,-0.072265625,6.225586,0.7324219,0.061035156,0.0,0.0,0.0,109.03931,60.402832,-175.39673
1766812153407,-0.9926758,0.4819336,-0.072265625,6.225586,0.7324219,0.061035156,0.0,0.0,0.0,109.87427,60.078735,-173.79822
1766812153495,-0.8989258,0.6245117,0.0068359375,9.216309,-35.095215,17.944336,0.0,0.0,0.0,109.87427,60.078735,-173.79822
1766812153506,-0.8989258,0.6245117,0.0068359375,9.216309,-35.095215,17.944336,0.0,0.0,0.0,106.138916,59.820557,-178.44543
1766812153595,-0.66308594,0.32958984,-0.21972656,-11.352539,-0.48828125,7.873535,0.0,0.0,0.0,106.138916,59.820557,-178.44543
1766812153606,-0.66308594,0.32958984,-0.21972656,-11.352539,-0.48828125,7.873535,0.0,0.0,0.0,101.26099,59.666748,175.4242
1766812153694,-0.9223633,0.39501953,-0.3256836,20.629883,3.112793,18.615723,0.0,0.0,0.0,101.26099,59.666748,175.4242
1766812153706,-0.9223633,0.39501953,-0.3256836,20.629883,3.112793,18.615723,0.0,0.0,0.0,102.788086,58.233032,175.77576
1766812153794,-0.8222656,0.58691406,-0.076660156,26.489258,-21.118164,23.07129,0.0,0.0,0.0,102.788086,58.233032,175.77576
1766812153805,-0.8222656,0.58691406,-0.076660156,26.489258,-21.118164,23.07129,0.0,0.0,0.0,105.67749,56.656494,177.14905
1766812153894,-0.8857422,0.39794922,-0.09472656,7.2631836,18.432617,1.5869141,0.0,0.0,0.0,105.67749,56.656494,177.14905
1766812153905,-0.8857422,0.39794922,-0.09472656,7.2631836,18.432617,1.5869141,0.0,0.0,0.0,107.30347,55.645752,177.39624
1766812153993,-0.86083984,0.5620117,-0.14453125,1.7089844,6.5307617,-7.507324,0.0,0.0,0.0,107.30347,55.645752,177.39624
1766812154005,-0.86083984,0.5620117,-0.14453125,1.7089844,6.5307617,-7.507324,0.0,0.0,0.0,108.92944,55.93689,178.43994
1766812154093,-0.91503906,0.60058594,0.032226562,-21.1792,1.2207031,0.91552734,0.0,0.0,0.0,108.92944,55.93689,178.43994
1766812154104,-0.91503906,0.60058594,0.032226562,-21.1792,1.2207031,0.91552734,0.0,0.0,0.0,109.32495,56.11267,-179.50562
1766812154193,-1.0029297,0.62402344,-0.20263672,-4.638672,-50.53711,5.3710938,0.0,0.0,0.0,109.32495,56.11267,-179.50562
1766812154204,-1.0029297,0.62402344,-0.20263672,-4.638672,-50.53711,5.3710938,0.0,0.0,0.0,103.00232,56.77185,175.9845
1766812154292,-0.55615234,0.32373047,-0.2241211,1.2817383,-5.92041,-11.84082,0.0,0.0,0.0,103.00232,56.77185,175.9845
1766812154304,-0.55615234,0.32373047,-0.2241211,1.2817383,-5.92041,-11.84082,0.0,0.0,0.0,100.42053,56.953125,170.9967
1766812154392,-0.9121094,0.56884766,-0.04345703,-15.869141,16.418457,-14.770508,0.0,0.0,0.0,100.42053,56.953125,170.9967
1766812154404,-0.9121094,0.56884766,-0.04345703,-15.869141,16.418457,-14.770508,0.0,0.0,0.0,101.760864,58.19458,172.1228
1766812154492,-0.76220703,0.49560547,-0.091308594,-14.6484375,12.573242,-22.338867,0.0,0.0,0.0,101.760864,58.19458,172.1228
1766812154503,-0.76220703,0.49560547,-0.091308594,-14.6484375,12.573242,-22.338867,0.0,0.0,0.0,102.13989,59.694214,173.56201
1766812154592,-0.8364258,0.53466797,-0.056152344,-5.859375,13.916016,-4.638672,0.0,0.0,0.0,102.13989,59.694214,173.56201
1766812154603,-0.8364258,0.53466797,-0.056152344,-5.859375,13.916016,-4.638672,0.0,0.0,0.0,103.85376,60.33142,176.59973
1766812154691,-0.9584961,0.5024414,-0.07421875,11.413574,0.30517578,-0.4272461,0.0,0.0,0.0,103.85376,60.33142,176.59973
1766812154703,-0.9584961,0.5024414,-0.07421875,11.413574,0.30517578,-0.4272461,0.0,0.0,0.0,105.72693,60.128174,178.66516
1766812154791,-0.8510742,0.6098633,0.0146484375,4.8217773,-18.615723,8.666992,0.0,0.0,0.0,105.72693,60.128174,178.66516
1766812154803,-0.8510742,0.6098633,0.0146484375,4.8217773,-18.615723,8.666992,0.0,0.0,0.0,104.50195,60.00183,176.74805
1766812154891,-0.77783203,0.34960938,-0.2709961,-3.6621094,-10.803223,4.9438477,0.0,0.0,0.0,104.50195,60.00183,176.74805
1766812154902,-0.77783203,0.34960938,-0.2709961,-3.6621094,-10.803223,4.9438477,0.0,0.0,0.0,99.53613,59.787598,171.06812
1766812154990,-0.9355469,0.39990234,-0.23291016,25.32959,5.1879883,14.6484375,0.0,0.0,0.0,99.53613,59.787598,171.06812
1766812155002,-0.9355469,0.39990234,-0.23291016,25.32959,5.1879883,14.6484375,0.0,0.0,0.0,101.1676,58.50769,171.9635
1766812155090,-0.7675781,0.61279297,-0.13720703,16.540527,-6.164551,15.930176,0.0,0.0,0.0,101.1676,58.50769,171.9635
1766812155102,-0.7675781,0.61279297,-0.13720703,16.540527,-6.164551,15.930176,0.0,0.0,0.0,102.7771,57.216797,171.66687
1766812155190,-0.85302734,0.43701172,-0.095214844,7.873535,17.150879,2.0751953,0.0,0.0,0.0,102.7771,57.216797,171.66687
1766812155201,-0.85302734,0.43701172,-0.095214844,7.873535,17.150879,2.0751953,0.0,0.0,0.0,105.23804,56.134644,172.85889
1766812155289,-0.8779297,0.5629883,-0.12939453,6.5307617,16.052246,-2.746582,0.0,0.0,0.0,105.23804,56.134644,172.85889
1766812155301,-0.8779297,0.5629883,-0.12939453,6.5307617,16.052246,-2.746582,0.0,0.0,0.0,108.012085,55.843506,175.19897
1766812155389,-0.94628906,0.59277344,0.0053710938,-17.456055,5.2490234,-1.4038086,0.0,0.0,0.0,108.012085,55.843506,175.19897
1766812155401,-0.94628906,0.59277344,0.0053710938,-17.456055,5.2490234,-1.4038086,0.0,0.0,0.0,109.885254,55.700684,178.35205
1766812155489,-0.9399414,0.6176758,-0.21240234,7.3242188,-48.217773,6.652832,0.0,0.0,0.0,109.885254,55.700684,178.35205
1766812155500,-0.9399414,0.6176758,-0.21240234,7.3242188,-48.217773,6.652832,0.0,0.0,0.0,104.82056,56.32141,175.1001
1766812155589,-0.5307617,0.30615234,-0.2211914,-4.638672,-9.94873,-10.803223,0.0,0.0,0.0,104.82056,56.32141,175.1001
1766812155600,-0.5307617,0.30615234,-0.2211914,-4.638672,-9.94873,-10.803223,0.0,0.0,0.0,101.36536,56.585083,169.70032
1766812155688,-0.8725586,0.609375,-0.2265625,-7.019043,59.2041,-13.183594,0.0,0.0,0.0,101.36536,56.585083,169.70032
1766812155700,-0.8725586,0.609375,-0.2265625,-7.019043,59.2041,-13.183594,0.0,0.0,0.0,103.1781,57.81555,171.557
1766812155788,-0.78808594,0.44677734,-0.14550781,-5.79834,-8.544922,-6.164551,0.0,0.0,0.0,103.1781,57.81555,171.557
1766812155799,-0.78808594,0.44677734,-0.14550781,-5.79834,-8.544922,-6.164551,0.0,0.0,0.0,107.1167,58.90869,177.8357
1766812155888,-0.83740234,0.5288086,-0.091308594,-13.48877,18.798828,-6.591797,0.0,0.0,0.0,107.1167,58.90869,177.8357
1766812155899,-0.83740234,0.5288086,-0.091308594,-13.48877,18.798828,-6.591797,0.0,0.0,0.0,108.38013,59.386597,-179.40674
1766812155987,-0.9003906,0.47021484,-0.07763672,3.0517578,1.2207031,-2.746582,0.0,0.0,0.0,108.38013,59.386597,-179.40674
1766812155999,-0.9003906,0.47021484,-0.07763672,3.0517578,1.2207031,-2.746582,0.0,0.0,0.0,109.489746,59.348145,-177.00073
1766812156087,-0.9213867,0.60839844,-0.019042969,5.7373047,-18.981934,7.873535,0.0,0.0,0.0,109.489746,59.348145,-177.00073
1766812156099,-0.9213867,0.60839844,-0.019042969,5.7373047,-18.981934,7.873535,0.0,0.0,0.0,107.57263,59.414062,-179.64294
1766812156187,-1.0600586,0.4326172,-0.26171875,6.4086914,-33.325195,5.6152344,0.0,0.0,0.0,107.57263,59.414062,-179.64294
1766812156198,-1.0600586,0.4326172,-0.26171875,6.4086914,-33.325195,5.6152344,0.0,0.0,0.0,101.8927,59.128418,173.7323
1766812156287,-0.6816406,0.4736328,-0.27978516,12.512207,2.4414062,9.155273,0.0,0.0,0.0,101.8927,59.128418,173.7323
1766812156298,-0.6816406,0.4736328,-0.27978516,12.512207,2.4414062,9.155273,0.0,0.0,0.0,102.43652,58.551636,173.74329
1766812156386,-0.90625,0.6040039,-0.07373047,-4.8828125,17.822266,14.038086,0.0,0.0,0.0,102.43652,58.551636,173.74329
1766812156398,-0.90625,0.6040039,-0.07373047,-4.8828125,17.822266,14.038086,0.0,0.0,0.0,105.81482,57.200317,175.0232
1766812156486,-0.8178711,0.43017578,-0.14208984,5.6152344,19.226074,5.6762695,0.0,0.0,0.0,105.81482,57.200317,175.0232
1766812156498,-0.8178711,0.43017578,-0.14208984,5.6152344,19.226074,5.6762695,0.0,0.0,0.0,106.96838,56.030273,174.6222
1766812156586,-0.87109375,0.54345703,-0.12695312,5.6152344,4.638672,-1.7089844,0.0,0.0,0.0,106.96838,56.030273,174.6222
1766812156597,-0.87109375,0.54345703,-0.12695312,5.6152344,4.638672,-1.7089844,0.0,0.0,0.0,108.70972,55.859985,176.02844
1766812156686,-0.9248047,0.6113281,-0.07128906,-14.709473,16.784668,-5.859375,0.0,0.0,0.0,108.70972,55.859985,176.02844
1766812156697,-0.9248047,0.6113281,-0.07128906,-14.709473,16.784668,-5.859375,0.0,0.0,0.0,109.94568,55.99182,178.45093
1766812156785,-1.0292969,0.546875,-0.063964844,-20.202637,-35.095215,2.1972656,0.0,0.0,0.0,109.94568,55.99182,178.45093
1766812156797,-1.0292969,0.546875,-0.063964844,-20.202637,-35.095215,2.1972656,0.0,0.0,0.0,105.69397,56.239014,176.66016
1766812156885,-0.62841797,0.3564453,-0.22314453,19.714355,-22.827148,0.9765625,0.0,0.0,0.0,105.69397,56.239014,176.66016
1766812156896,-0.62841797,0.3564453,-0.22314453,19.714355,-22.827148,0.9765625,0.0,0.0,0.0,101.326904,56.61255,170.09583
1766812156984,-0.80029297,0.63720703,-0.26660156,-2.319336,23.132324,-14.404297,0.0,0.0,0.0,101.326904,56.61255,170.09583
1766812156996,-0.80029297,0.63720703,-0.26660156,-2.319336,23.132324,-14.404297,0.0,0.0,0.0,101.99707,57.870483,169.45862
1766812157084,-0.84716797,0.41992188,-0.13330078,-9.094238,2.1972656,-17.089844,0.0,0.0,0.0,101.99707,57.870483,169.45862
1766812157096,-0.84716797,0.41992188,-0.13330078,-9.094238,2.1972656,-17.089844,0.0,0.0,0.0,104.13391,58.99109,172.65564
1766812157184,-0.76953125,0.5732422,-0.09716797,-6.4086914,12.939453,-8.239746,0.0,0.0,0.0,104.13391,58.99109,172.65564
1766812157195,-0.76953125,0.5732422,-0.09716797,-6.4086914,12.939453,-8.239746,0.0,0.0,0.0,105.98511,59.96338,175.61646
1766812157284,-0.8979492,0.49609375,-0.07373047,6.0424805,18.676758,-1.7700195,0.0,0.0,0.0,105.98511,59.96338,175.61646
1766812157296,-0.8979492,0.49609375,-0.07373047,6.0424805,18.676758,-1.7700195,0.0,0.0,0.0,109.02283,59.67224,179.89014
1766812157383,-0.9267578,0.609375,-0.01171875,5.2490234,-14.465332,7.8125,0.0,0.0,0.0,109.02283,59.67224,179.89014
1766812157395,-0.9267578,0.609375,-0.01171875,5.2490234,-14.465332,7.8125,0.0,0.0,0.0,109.1272,59.27124,179.46716
1766812157484,-1.0083008,0.4038086,-0.27294922,-2.0751953,-38.391113,2.9296875,0.0,0.0,0.0,109.1272,59.27124,179.46716
1766812157495,-1.0083008,0.4038086,-0.27294922,-2.0751953,-38.391113,2.9296875,0.0,0.0,0.0,102.88696,59.194336,172.94678
1766812157583,-0.66552734,0.49658203,-0.29785156,5.6762695,16.784668,9.521484,0.0,0.0,0.0,102.88696,59.194336,172.94678
1766812157594,-0.66552734,0.49658203,-0.29785156,5.6762695,16.784668,9.521484,0.0,0.0,0.0,102.75513,58.754883,173.23242
1766812157682,-0.8881836,0.5571289,-0.17333984,5.2490234,-3.540039,13.916016,0.0,0.0,0.0,102.75513,58.754883,173.23242
1766812157694,-0.8881836,0.5571289,-0.17333984,5.2490234,-3.540039,13.916016,0.0,0.0,0.0,105.07324,57.60681,174.15527
1766812157782,-0.8364258,0.43554688,-0.095214844,3.4179688,24.291992,2.746582,0.0,0.0,0.0,105.07324,57.60681,174.15527
1766812157794,-0.8364258,0.43554688,-0.095214844,3.4179688,24.291992,2.746582,0.0,0.0,0.0,107.78137,56.44226,175.80322
1766812157882,-0.8989258,0.5136719,-0.12695312,4.8217773,12.084961,-5.004883,0.0,0.0,0.0,107.78137,56.44226,175.80322
1766812157893,-0.8989258,0.5136719,-0.12695312,4.8217773,12.084961,-5.004883,0.0,0.0,0.0,110.181885,56.32141,178.00049
1766812157982,-0.91748047,0.5908203,-0.049316406,-17.700195,12.512207,-3.1738281,0.0,0.0,0.0,110.181885,56.32141,178.00049
1766812157993,-0.91748047,0.5908203,-0.049316406,-17.700195,12.512207,-3.1738281,0.0,0.0,0.0,111.362915,56.453247,-179.50562
1766812158081,-1.046875,0.5913086,-0.20263672,3.2348633,-46.38672,2.5024414,0.0,0.0,0.0,111.362915,56.453247,-179.50562
1766812158093,-1.046875,0.5913086,-0.20263672,3.2348633,-46.38672,2.5024414,0.0,0.0,0.0,106.76514,57.178345,177.92908
1766812158181,-0.51464844,0.26220703,-0.18945312,1.2207031,-6.1035156,-6.8359375,0.0,0.0,0.0,106.76514,57.178345,177.92908
1766812158192,-0.51464844,0.26220703,-0.18945312,1.2207031,-6.1035156,-6.8359375,0.0,0.0,0.0,104.002075,57.458496,172.771
1766812158281,-0.859375,0.61865234,-0.29492188,8.544922,31.37207,-3.479004,0.0,0.0,0.0,104.002075,57.458496,172.771
1766812158292,-0.859375,0.61865234,-0.29492188,8.544922,31.37207,-3.479004,0.0,0.0,0.0,104.77661,58.447266,173.07861
1766812158380,-0.82177734,0.46142578,-0.12109375,6.0424805,-6.8359375,-9.765625,0.0,0.0,0.0,104.77661,58.447266,173.07861
1766812158392,-0.82177734,0.46142578,-0.12109375,6.0424805,-6.8359375,-9.765625,0.0,0.0,0.0,110.37964,59.21631,179.65942
1766812158480,-0.8017578,0.56103516,-0.15625,-9.887695,18.493652,-3.90625,0.0,0.0,0.0,110.37964,59.21631,179.65942
1766812158492,-0.8017578,0.56103516,-0.15625,-9.887695,18.493652,-3.90625,0.0,0.0,0.0,111.604614,59.556885,-178.90137
1766812158580,-0.9628906,0.5029297,-0.11669922,1.0375977,6.5307617,1.159668,0.0,0.0,0.0,111.604614,59.556885,-178.90137
1766812158591,-0.9628906,0.5029297,-0.11669922,1.0375977,6.5307617,1.159668,0.0,0.0,0.0,113.065796,58.83728,-176.11084
1766812158679,-0.89453125,0.59277344,-0.0390625,3.2958984,-30.944824,14.221191,0.0,0.0,0.0,113.065796,58.83728,-176.11084
1766812158691,-0.89453125,0.59277344,-0.0390625,3.2958984,-30.944824,14.221191,0.0,0.0,0.0,110.37964,58.601074,-179.33533
1766812158779,-0.86035156,0.34228516,-0.29101562,-5.859375,-32.89795,4.0893555,0.0,0.0,0.0,110.37964,58.601074,-179.33533
1766812158791,-0.86035156,0.34228516,-0.29101562,-5.859375,-32.89795,4.0893555,0.0,0.0,0.0,103.326416,58.688965,172.78748
1766812158879,-0.8208008,0.45458984,-0.359375,22.705078,7.1411133,14.709473,0.0,0.0,0.0,103.326416,58.688965,172.78748
1766812158891,-0.8208008,0.45458984,-0.359375,22.705078,7.1411133,14.709473,0.0,0.0,0.0,102.33215,58.03528,170.9967
1766812158979,-0.8100586,0.5991211,-0.08105469,23.376465,-26.428223,18.432617,0.0,0.0,0.0,102.33215,58.03528,170.9967
1766812158990,-0.8100586,0.5991211,-0.08105469,23.376465,-26.428223,18.432617,0.0,0.0,0.0,106.18286,56.519165,173.16101
1766812159078,-0.83447266,0.44384766,-0.0859375,2.746582,24.047852,2.1972656,0.0,0.0,0.0,106.18286,56.519165,173.16101
1766812159090,-0.83447266,0.44384766,-0.0859375,2.746582,24.047852,2.1972656,0.0,0.0,0.0,106.96289,55.684204,172.62817
1766812159178,-0.8574219,0.57177734,-0.13183594,-2.380371,11.779785,-0.9765625,0.0,0.0,0.0,106.96289,55.684204,172.62817
1766812159190,-0.8574219,0.57177734,-0.13183594,-2.380371,11.779785,-0.9765625,0.0,0.0,0.0,108.74817,55.376587,174.41345
1766812159278,-0.9277344,0.6152344,-0.04296875,-18.615723,6.591797,-6.225586,0.0,0.0,0.0,108.74817,55.376587,174.41345
1766812159289,-0.9277344,0.6152344,-0.04296875,-18.615723,6.591797,-6.225586,0.0,0.0,0.0,109.3689,55.497437,176.51733
1766812159377,-0.99609375,0.5629883,-0.13134766,-5.065918,-44.49463,-0.6713867,0.0,0.0,0.0,109.3689,55.497437,176.51733
1766812159389,-0.99609375,0.5629883,-0.13134766,-5.065918,-44.49463,-0.6713867,0.0,0.0,0.0,104.9469,56.02478,174.0564
1766812159477,-0.56347656,0.31835938,-0.23486328,8.666992,-12.634277,-8.850098,0.0,0.0,0.0,104.9469,56.02478,174.0564
1766812159489,-0.56347656,0.31835938,-0.23486328,8.666992,-12.634277,-8.850098,0.0,0.0,0.0,100.93689,56.68396,167.71729
1766812159577,-0.9013672,0.6123047,-0.11230469,-9.460449,33.5083,-15.625,0.0,0.0,0.0,100.93689,56.68396,167.71729
1766812159588,-0.9013672,0.6123047,-0.11230469,-9.460449,33.5083,-15.625,0.0,0.0,0.0,102.74414,57.91992,168.71155
1766812159677,-0.796875,0.46289062,-0.103027344,-12.878418,11.71875,-22.583008,0.0,0.0,0.0,102.74414,57.91992,168.71155
1766812159688,-0.796875,0.46289062,-0.103027344,-12.878418,11.71875,-22.583008,0.0,0.0,0.0,104.66675,59.37561,171.67236
1766812159776,-0.8051758,0.5390625,-0.0859375,-10.070801,14.160156,-5.859375,0.0,0.0,0.0,104.66675,59.37561,171.67236
1766812159788,-0.8051758,0.5390625,-0.0859375,-10.070801,14.160156,-5.859375,0.0,0.0,0.0,106.073,60.26001,174.22668
1766812159876,-0.93652344,0.48486328,-0.07714844,1.7089844,0.18310547,2.5634766,0.0,0.0,0.0,106.073,60.26001,174.22668
1766812159888,-0.93652344,0.48486328,-0.07714844,1.7089844,0.18310547,2.5634766,0.0,0.0,0.0,107.08923,59.96338,176.4679
1766812159976,-0.8808594,0.63916016,-0.023925781,5.6152344,-24.291992,9.155273,0.0,0.0,0.0,107.08923,59.96338,176.4679
1766812159987,-0.8808594,0.63916016,-0.023925781,5.6152344,-24.291992,9.155273,0.0,0.0,0.0,104.82056,59.848022,173.61694
1766812160076,-0.8261719,0.4116211,-0.24023438,-3.8452148,-20.202637,4.0283203,0.0,0.0,0.0,104.82056,59.848022,173.61694
1766812160087,-0.8261719,0.4116211,-0.24023438,-3.8452148,-20.202637,4.0283203,0.0,0.0,0.0,99.00879,59.534912,167.21191
1766812160175,-0.65283203,0.41992188,-0.21142578,4.272461,11.047363,14.892578,0.0,0.0,0.0,99.00879,59.534912,167.21191
1766812160186,-0.65283203,0.41992188,-0.21142578,4.272461,11.047363,14.892578,0.0,0.0,0.0,99.84924,58.37036,167.8711
1766812160275,-0.9189453,0.5366211,-0.10107422,11.352539,4.0283203,18.249512,0.0,0.0,0.0,99.84924,58.37036,167.8711
1766812160286,-0.9189453,0.5366211,-0.10107422,11.352539,4.0283203,18.249512,0.0,0.0,0.0,102.10693,57.332153,168.06885
1766812160375,-0.7910156,0.46484375,-0.11621094,15.136719,23.132324,9.94873,0.0,0.0,0.0,102.10693,57.332153,168.06885
1766812160386,-0.7910156,0.46484375,-0.11621094,15.136719,23.132324,9.94873,0.0,0.0,0.0,104.73816,55.980835,168.87085
1766812160474,-0.8666992,0.5136719,-0.10595703,13.61084,10.864258,-1.7700195,0.0,0.0,0.0,104.73816,55.980835,168.87085
1766812160486,-0.8666992,0.5136719,-0.10595703,13.61084,10.864258,-1.7700195,0.0,0.0,0.0,108.15491,55.546875,171.61194
1766812160574,-0.9550781,0.6166992,-0.12792969,-9.643555,22.583008,-6.0424805,0.0,0.0,0.0,108.15491,55.546875,171.61194
1766812160585,-0.9550781,0.6166992,-0.12792969,-9.643555,22.583008,-6.0424805,0.0,0.0,0.0,111.03882,55.59082,175.5011
1766812160674,-1.0400391,0.57470703,-0.12988281,-16.967773,-28.869629,-1.0375977,0.0,0.0,0.0,111.03882,55.59082,175.5011
1766812160685,-1.0400391,0.57470703,-0.12988281,-16.967773,-28.869629,-1.0375977,0.0,0.0,0.0,108.429565,56.07422,175.72083
1766812160773,-0.5776367,0.30859375,-0.19091797,7.9345703,-21.057129,-0.6713867,0.0,0.0,0.0,108.429565,56.07422,175.72083
1766812160785,-0.5776367,0.30859375,-0.19091797,7.9345703,-21.057129,-0.6713867,0.0,0.0,0.0,104.7052,56.293945,169.62341
1766812160873,-0.8520508,0.67089844,-0.33984375,17.76123,-4.9438477,-4.333496,0.0,0.0,0.0,104.7052,56.293945,169.62341
1766812160884,-0.8520508,0.67089844,-0.33984375,17.76123,-4.9438477,-4.333496,0.0,0.0,0.0,103.568115,57.788086,167.44812
1766812160973,-0.9111328,0.4423828,-0.022949219,-11.84082,16.479492,-25.08545,0.0,0.0,0.0,103.568115,57.788086,167.44812
1766812160984,-0.9111328,0.4423828,-0.022949219,-11.84082,16.479492,-25.08545,0.0,0.0,0.0,110.47302,58.381348,175.06165
1766812161072,-0.70947266,0.5932617,-0.19628906,-9.094238,13.183594,-6.4086914,0.0,0.0,0.0,110.47302,58.381348,175.06165
1766812161084,-0.70947266,0.5932617,-0.19628906,-9.094238,13.183594,-6.4086914,0.0,0.0,0.0,109.42932,59.21631,173.5675
1766812161172,-0.9375,0.46044922,-0.07128906,6.225586,3.8452148,-3.6621094,0.0,0.0,0.0,109.42932,59.21631,173.5675
1766812161183,-0.9375,0.46044922,-0.07128906,6.225586,3.8452148,-3.6621094,0.0,0.0,0.0,112.24182,58.743896,177.56104
1766812161272,-0.8959961,0.67626953,-0.009277344,2.1362305,-14.099121,5.6152344,0.0,0.0,0.0,112.24182,58.743896,177.56104
1766812161283,-0.8959961,0.67626953,-0.009277344,2.1362305,-14.099121,5.6152344,0.0,0.0,0.0,110.286255,58.95813,174.27063
1766812161371,-1.0249023,0.42333984,-0.29296875,3.1738281,-45.288086,8.117676,0.0,0.0,0.0,110.286255,58.95813,174.27063
1766812161383,-1.0249023,0.42333984,-0.29296875,3.1738281,-45.288086,8.117676,0.0,0.0,0.0,103.39783,59.051514,166.92078
1766812161471,-0.6645508,0.44873047,-0.296875,0.0,12.634277,11.962891,0.0,0.0,0.0,103.39783,59.051514,166.92078
1766812161483,-0.6645508,0.44873047,-0.296875,0.0,12.634277,11.962891,0.0,0.0,0.0,101.80481,58.31543,165.6134
1766812161571,-0.94433594,0.57421875,-0.013183594,-21.66748,36.68213,16.418457,0.0,0.0,0.0,101.80481,58.31543,165.6134
1766812161582,-0.94433594,0.57421875,-0.013183594,-21.66748,36.68213,16.418457,0.0,0.0,0.0,107.490234,56.749878,171.13403
1766812161671,-0.7792969,0.44189453,-0.26513672,-3.4179688,20.751953,0.7324219,0.0,0.0,0.0,107.490234,56.749878,171.13403
1766812161682,-0.7792969,0.44189453,-0.26513672,-3.4179688,20.751953,0.7324219,0.0,0.0,0.0,106.23779,55.579834,168.28857
1766812161770,-0.9501953,0.50097656,-0.053710938,12.573242,0.12207031,-1.6479492,0.0,0.0,0.0,106.23779,55.579834,168.28857
1766812161782,-0.9501953,0.50097656,-0.053710938,12.573242,0.12207031,-1.6479492,0.0,0.0,0.0,110.857544,55.217285,173.51257
1766812161870,-0.8808594,0.6269531,-0.08496094,-15.50293,22.949219,-11.108398,0.0,0.0,0.0,110.857544,55.217285,173.51257
1766812161882,-0.8808594,0.6269531,-0.08496094,-15.50293,22.949219,-11.108398,0.0,0.0,0.0,111.692505,55.925903,174.89136
1766812161970,-1.0698242,0.6015625,-0.1850586,-21.240234,-39.245605,-6.8969727,0.0,0.0,0.0,111.692505,55.925903,174.89136
1766812161982,-1.0698242,0.6015625,-0.1850586,-21.240234,-39.245605,-6.8969727,0.0,0.0,0.0,107.25403,56.80481,172.98523
1766812162069,-0.5678711,0.2446289,-0.19677734,3.112793,-11.901855,-10.253906,0.0,0.0,0.0,107.25403,56.80481,172.98523
1766812162081,-0.5678711,0.2446289,-0.19677734,3.112793,-11.901855,-10.253906,0.0,0.0,0.0,103.1781,57.491455,167.39868
1766812162169,-0.90185547,0.62646484,-0.3178711,24.291992,1.2207031,-9.094238,0.0,0.0,0.0,103.1781,57.491455,167.39868
1766812162181,-0.90185547,0.62646484,-0.3178711,24.291992,1.2207031,-9.094238,0.0,0.0,0.0,103.52417,59.661255,167.07458
1766812162269,-0.84228516,0.41308594,-0.10498047,19.714355,-23.498535,-11.657715,0.0,0.0,0.0,103.52417,59.661255,167.07458
1766812162280,-0.84228516,0.41308594,-0.10498047,19.714355,-23.498535,-11.657715,0.0,0.0,0.0,107.92969,61.16638,171.26038
1766812162369,-0.82373047,0.55615234,-0.10253906,-3.6621094,14.526367,-2.6245117,0.0,0.0,0.0,107.92969,61.16638,171.26038
1766812162380,-0.82373047,0.55615234,-0.10253906,-3.6621094,14.526367,-2.6245117,0.0,0.0,0.0,108.4021,61.506958,170.74402
1766812162468,-0.91015625,0.5107422,-0.12451172,1.0986328,10.192871,2.2583008,0.0,0.0,0.0,108.4021,61.506958,170.74402
1766812162480,-0.91015625,0.5107422,-0.12451172,1.0986328,10.192871,2.2583008,0.0,0.0,0.0,109.84131,60.71045,172.71057
1766812162568,-0.9213867,0.5786133,-0.0126953125,3.9672852,-17.944336,8.911133,0.0,0.0,0.0,109.84131,60.71045,172.71057
1766812162579,-0.9213867,0.5786133,-0.0126953125,3.9672852,-17.944336,8.911133,0.0,0.0,0.0,109.2041,60.281982,172.24915
1766812162668,-1.0761719,0.5253906,-0.22265625,-7.1411133,-41.625977,12.756348,0.0,0.0,0.0,109.2041,60.281982,172.24915
1766812162679,-1.0761719,0.5253906,-0.22265625,-7.1411133,-41.625977,12.756348,0.0,0.0,0.0,102.74963,59.73816,165.98145
1766812162767,-0.63134766,0.3876953,-0.24902344,-4.0283203,37.53662,10.314941,0.0,0.0,0.0,102.74963,59.73816,165.98145
1766812162779,-0.63134766,0.3876953,-0.24902344,-4.0283203,37.53662,10.314941,0.0,0.0,0.0,103.08472,58.87024,167.51953
1766812162867,-0.9165039,0.47998047,-0.12402344,6.4086914,-10.070801,23.925781,0.0,0.0,0.0,103.08472,58.87024,167.51953
1766812162878,-0.9165039,0.47998047,-0.12402344,6.4086914,-10.070801,23.925781,0.0,0.0,0.0,104.21631,57.738647,167.32727
1766812162967,-0.80615234,0.5053711,-0.2241211,6.958008,15.563965,9.277344,0.0,0.0,0.0,104.21631,57.738647,167.32727
1766812162979,-0.80615234,0.5053711,-0.2241211,6.958008,15.563965,9.277344,0.0,0.0,0.0,103.76587,56.70044,165.19043
1766812163067,-0.9121094,0.46142578,-0.04248047,5.79834,3.9672852,-1.953125,0.0,0.0,0.0,103.76587,56.70044,165.19043
1766812163078,-0.9121094,0.46142578,-0.04248047,5.79834,3.9672852,-1.953125,0.0,0.0,0.0,106.743164,56.11267,168.12378
1766812163166,-0.8691406,0.6152344,-0.09033203,-13.73291,10.7421875,-12.023926,0.0,0.0,0.0,106.743164,56.11267,168.12378
1766812163178,-0.8691406,0.6152344,-0.09033203,-13.73291,10.7421875,-12.023926,0.0,0.0,0.0,107.56714,57.019043,169.70032
1766812163266,-1.0712891,0.57714844,-0.038085938,-23.010254,-26.794434,0.7324219,0.0,0.0,0.0,107.56714,57.019043,169.70032
1766812163277,-1.0712891,0.57714844,-0.038085938,-23.010254,-26.794434,0.7324219,0.0,0.0,0.0,104.89197,57.436523,169.6344
1766812163366,-0.65625,0.3256836,-0.16601562,13.73291,-10.803223,-3.8452148,0.0,0.0,0.0,104.89197,57.436523,169.6344
1766812163377,-0.65625,0.3256836,-0.16601562,13.73291,-10.803223,-3.8452148,0.0,0.0,0.0,100.618286,57.908936,164.61914
1766812163466,-0.8334961,0.6152344,-0.30322266,3.4179688,8.7890625,-13.549805,0.0,0.0,0.0,100.618286,57.908936,164.61914
1766812163477,-0.8334961,0.6152344,-0.30322266,3.4179688,8.7890625,-13.549805,0.0,0.0,0.0,100.25574,59.403076,163.51501
1766812163565,-0.87890625,0.42382812,-0.092285156,-6.0424805,8.483887,-16.235352,0.0,0.0,0.0,100.25574,59.403076,163.51501
1766812163577,-0.87890625,0.42382812,-0.092285156,-6.0424805,8.483887,-16.235352,0.0,0.0,0.0,104.18884,60.238037,167.8601
1766812163666,-0.79345703,0.5600586,-0.064453125,-5.2490234,10.437012,-7.873535,0.0,0.0,0.0,104.18884,60.238037,167.8601
1766812163677,-0.79345703,0.5600586,-0.064453125,-5.2490234,10.437012,-7.873535,0.0,0.0,0.0,106.28723,61.342163,170.89783
1766812163765,-0.8984375,0.4711914,-0.052246094,2.0751953,10.681152,0.061035156,0.0,0.0,0.0,106.28723,61.342163,170.89783
1766812163776,-0.8984375,0.4711914,-0.052246094,2.0751953,10.681152,0.061035156,0.0,0.0,0.0,107.924194,61.07849,173.29285
1766812163864,-0.9394531,0.57910156,-0.0068359375,6.713867,-19.348145,8.483887,0.0,0.0,0.0,107.924194,61.07849,173.29285
1766812163876,-0.9394531,0.57910156,-0.0068359375,6.713867,-19.348145,8.483887,0.0,0.0,0.0,107.00134,60.8313,172.13928
1766812163964,-1.0996094,0.4794922,-0.15332031,4.1503906,-34.973145,13.73291,0.0,0.0,0.0,107.00134,60.8313,172.13928
1766812163975,-1.0996094,0.4794922,-0.15332031,4.1503906,-34.973145,13.73291,0.0,0.0,0.0,101.3324,60.045776,166.07483
1766812164064,-0.54541016,0.4326172,-0.23876953,0.7324219,21.66748,10.925293,0.0,0.0,0.0,101.3324,60.045776,166.07483
1766812164075,-0.54541016,0.4326172,-0.23876953,0.7324219,21.66748,10.925293,0.0,0.0,0.0,100.11841,59.128418,164.93225
1766812164163,-0.9555664,0.49609375,-0.10107422,5.9814453,3.540039,13.244629,0.0,0.0,0.0,100.11841,59.128418,164.93225
1766812164175,-0.9555664,0.49609375,-0.10107422,5.9814453,3.540039,13.244629,0.0,0.0,0.0,103.20557,57.65625,166.35498
1766812164263,-0.78808594,0.48486328,-0.100097656,18.066406,13.85498,13.366699,0.0,0.0,0.0,103.20557,57.65625,166.35498
1766812164275,-0.78808594,0.48486328,-0.100097656,18.066406,13.85498,13.366699,0.0,0.0,0.0,104.58435,56.376343,165.68481
1766812164363,-0.88623047,0.4741211,-0.10839844,15.258789,3.9672852,-0.36621094,0.0,0.0,0.0,104.58435,56.376343,165.68481
1766812164374,-0.88623047,0.4741211,-0.10839844,15.258789,3.9672852,-0.36621094,0.0,0.0,0.0,107.34192,55.876465,167.25037
1766812164462,-0.93652344,0.5854492,-0.12109375,-0.36621094,14.282227,-3.0517578,0.0,0.0,0.0,107.34192,55.876465,167.25037
1766812164474,-0.93652344,0.5854492,-0.12109375,-0.36621094,14.282227,-3.0517578,0.0,0.0,0.0,109.35791,55.964355,169.26086
1766812164562,-0.9321289,0.54345703,0.03466797,-14.404297,-17.578125,2.319336,0.0,0.0,0.0,109.35791,55.964355,169.26086
1766812164574,-0.9321289,0.54345703,0.03466797,-14.404297,-17.578125,2.319336,0.0,0.0,0.0,107.682495,56.140137,169.43665
1766812164662,-0.74560547,0.5102539,-0.2421875,18.066406,-26.611328,10.314941,0.0,0.0,0.0,107.682495,56.140137,169.43665
1766812164673,-0.74560547,0.5102539,-0.2421875,18.066406,-26.611328,10.314941,0.0,0.0,0.0,102.06848,56.453247,162.7185
1766812164762,-0.7714844,0.48388672,-0.35595703,-3.540039,-18.127441,-17.578125,0.0,0.0,0.0,102.06848,56.453247,162.7185
1766812164773,-0.7714844,0.48388672,-0.35595703,-3.540039,-18.127441,-17.578125,0.0,0.0,0.0,100.7666,57.821045,160.52673
1766812164861,-0.9741211,0.4580078,0.041015625,-31.311035,18.676758,-17.8833,0.0,0.0,0.0,100.7666,57.821045,160.52673
1766812164873,-0.9741211,0.4580078,0.041015625,-31.311035,18.676758,-17.8833,0.0,0.0,0.0,105.15564,58.49121,166.0144
1766812164961,-0.7338867,0.60839844,-0.1015625,-5.7373047,10.009766,-10.131836,0.0,0.0,0.0,105.15564,58.49121,166.0144
1766812164972,-0.7338867,0.60839844,-0.1015625,-5.7373047,10.009766,-10.131836,0.0,0.0,0.0,105.128174,59.96338,166.75049
1766812165061,-0.86279297,0.4897461,-0.068847656,-1.159668,11.413574,-4.8217773,0.0,0.0,0.0,105.128174,59.96338,166.75049
1766812165072,-0.86279297,0.4897461,-0.068847656,-1.159668,11.413574,-4.8217773,0.0,0.0,0.0,106.83655,59.97986,169.81018
1766812165160,-0.9589844,0.5913086,-0.020996094,11.59668,-19.53125,3.540039,0.0,0.0,0.0,106.83655,59.97986,169.81018
1766812165172,-0.9589844,0.5913086,-0.020996094,11.59668,-19.53125,3.540039,0.0,0.0,0.0,106.08948,60.01831,168.25012
1766812165260,-1.1757812,0.5395508,-0.104003906,6.652832,-42.175293,15.869141,0.0,0.0,0.0,106.08948,60.01831,168.25012
1766812165272,-1.1757812,0.5395508,-0.104003906,6.652832,-42.175293,15.869141,0.0,0.0,0.0,100.43701,59.34265,161.45508
1766812165360,-0.4477539,0.44091797,-0.17529297,2.746582,26.123047,5.432129,0.0,0.0,0.0,100.43701,59.34265,161.45508
1766812165372,-0.4477539,0.44091797,-0.17529297,2.746582,26.123047,5.432129,0.0,0.0,0.0,101.222534,58.892212,162.14722
1766812165459,-0.9975586,0.43701172,-0.14697266,0.0,11.535645,7.873535,0.0,0.0,0.0,101.222534,58.892212,162.14722
1766812165471,-0.9975586,0.43701172,-0.14697266,0.0,11.535645,7.873535,0.0,0.0,0.0,102.18933,57.63977,161.1914
1766812165559,-0.7709961,0.51171875,-0.17333984,5.9814453,13.000488,6.958008,0.0,0.0,0.0,102.18933,57.63977,161.1914
1766812165571,-0.7709961,0.51171875,-0.17333984,5.9814453,13.000488,6.958008,0.0,0.0,0.0,103.00781,56.4917,160.80688
1766812165659,-0.8979492,0.48876953,-0.091308594,0.91552734,16.601562,-2.6245117,0.0,0.0,0.0,103.00781,56.4917,160.80688
1766812165671,-0.8979492,0.48876953,-0.091308594,0.91552734,16.601562,-2.6245117,0.0,0.0,0.0,105.86975,55.99182,163.75122
1766812165759,-0.890625,0.6064453,-0.076171875,-11.779785,22.277832,-8.239746,0.0,0.0,0.0,105.86975,55.99182,163.75122
1766812165770,-0.890625,0.6064453,-0.076171875,-11.779785,22.277832,-8.239746,0.0,0.0,0.0,108.083496,56.447754,167.26685
1766812165858,-0.94628906,0.49853516,0.038085938,-19.836426,-19.16504,1.0986328,0.0,0.0,0.0,108.083496,56.447754,167.26685
1766812165870,-0.94628906,0.49853516,0.038085938,-19.836426,-19.16504,1.0986328,0.0,0.0,0.0,106.051025,56.447754,167.7887
1766812165958,-0.7114258,0.5073242,-0.30859375,23.19336,-25.634766,10.620117,0.0,0.0,0.0,106.051025,56.447754,167.7887
1766812165970,-0.7114258,0.5073242,-0.30859375,23.19336,-25.634766,10.620117,0.0,0.0,0.0,100.16235,56.953125,161.12
1766812166058,-0.7495117,0.5917969,-0.2919922,-6.5307617,18.371582,-21.42334,0.0,0.0,0.0,100.16235,56.953125,161.12
1766812166069,-0.7495117,0.5917969,-0.2919922,-6.5307617,18.371582,-21.42334,0.0,0.0,0.0,101.04675,57.9364,161.15845
1766812166157,-0.89746094,0.3876953,-0.118652344,2.380371,3.2348633,-15.014648,0.0,0.0,0.0,101.04675,57.9364,161.15845
1766812166169,-0.89746094,0.3876953,-0.118652344,2.380371,3.2348633,-15.014648,0.0,0.0,0.0,105.46326,58.705444,166.4978
1766812166258,-0.77197266,0.60546875,-0.06542969,-0.061035156,8.117676,-5.92041,0.0,0.0,0.0,105.46326,58.705444,166.4978
1766812166269,-0.77197266,0.60546875,-0.06542969,-0.061035156,8.117676,-5.92041,0.0,0.0,0.0,107.072754,59.63379,168.57422
1766812166357,-0.8618164,0.50634766,-0.08251953,-1.5258789,13.366699,-4.760742,0.0,0.0,0.0,107.072754,59.63379,168.57422
1766812166368,-0.8618164,0.50634766,-0.08251953,-1.5258789,13.366699,-4.760742,0.0,0.0,0.0,108.45703,59.42505,170.4419
1766812166457,-0.9560547,0.5761719,-0.020507812,4.0283203,-15.625,4.760742,0.0,0.0,0.0,108.45703,59.42505,170.4419
1766812166468,-0.9560547,0.5761719,-0.020507812,4.0283203,-15.625,4.760742,0.0,0.0,0.0,107.248535,59.458008,169.12354
1766812166556,-1.1259766,0.53515625,-0.14941406,7.446289,-53.588867,9.033203,0.0,0.0,0.0,107.248535,59.458008,169.12354
1766812166568,-1.1259766,0.53515625,-0.14941406,7.446289,-53.588867,9.033203,0.0,0.0,0.0,101.57959,59.348145,163.17993
1766812166656,-0.50878906,0.42919922,-0.24853516,3.2958984,10.986328,2.319336,0.0,0.0,0.0,101.57959,59.348145,163.17993
1766812166668,-0.50878906,0.42919922,-0.24853516,3.2958984,10.986328,2.319336,0.0,0.0,0.0,98.66821,59.11743,159.59839
1766812166756,-1.0253906,0.5024414,0.0146484375,-16.906738,32.65381,4.1503906,0.0,0.0,0.0,98.66821,59.11743,159.59839
1766812166767,-1.0253906,0.5024414,0.0146484375,-16.906738,32.65381,4.1503906,0.0,0.0,0.0,103.75488,57.88147,163.1305
1766812166855,-0.78027344,0.4633789,-0.20898438,10.070801,17.578125,4.0893555,0.0,0.0,0.0,103.75488,57.88147,163.1305
1766812166867,-0.78027344,0.4633789,-0.20898438,10.070801,17.578125,4.0893555,0.0,0.0,0.0,104.018555,56.799316,161.97144
1766812166955,-0.87109375,0.49804688,-0.087402344,15.686035,-0.36621094,3.7231445,0.0,0.0,0.0,104.018555,56.799316,161.97144
1766812166967,-0.87109375,0.49804688,-0.087402344,15.686035,-0.36621094,3.7231445,0.0,0.0,0.0,107.232056,56.26648,164.8114
1766812167055,-0.90185547,0.61035156,-0.07421875,-7.5683594,13.366699,-3.7841797,0.0,0.0,0.0,107.232056,56.26648,164.8114
1766812167066,-0.90185547,0.61035156,-0.07421875,-7.5683594,13.366699,-3.7841797,0.0,0.0,0.0,109.16565,56.469727,167.16797
1766812167155,-0.99316406,0.5625,0.0068359375,-23.55957,-23.864746,4.211426,0.0,0.0,0.0,109.16565,56.469727,167.16797
1766812167166,-0.99316406,0.5625,0.0068359375,-23.55957,-23.864746,4.211426,0.0,0.0,0.0,106.41907,56.4093,166.69006
1766812167254,-0.69433594,0.38427734,-0.2705078,19.77539,-24.475098,4.211426,0.0,0.0,0.0,106.41907,56.4093,166.69006
1766812167266,-0.69433594,0.38427734,-0.2705078,19.77539,-24.475098,4.211426,0.0,0.0,0.0,100.32715,56.574097,159.4336
1766812167354,-0.76660156,0.6689453,-0.3076172,3.2348633,11.474609,-16.235352,0.0,0.0,0.0,100.32715,56.574097,159.4336
1766812167366,-0.76660156,0.6689453,-0.3076172,3.2348633,11.474609,-16.235352,0.0,0.0,0.0,100.48096,57.980347,158.53821
1766812167454,-0.8847656,0.38427734,-0.09082031,0.48828125,-7.5683594,-16.235352,0.0,0.0,0.0,100.48096,57.980347,158.53821
1766812167465,-0.8847656,0.38427734,-0.09082031,0.48828125,-7.5683594,-16.235352,0.0,0.0,0.0,103.430786,58.864746,162.11426
1766812167553,-0.7553711,0.6191406,-0.0859375,-3.7841797,10.131836,-7.2021484,0.0,0.0,0.0,103.430786,58.864746,162.11426
1766812167565,-0.7553711,0.6191406,-0.0859375,-3.7841797,10.131836,-7.2021484,0.0,0.0,0.0,104.27673,59.98535,163.22388
1766812167653,-0.8876953,0.47851562,-0.06542969,4.3945312,9.094238,-2.380371,0.0,0.0,0.0,104.27673,59.98535,163.22388
1766812167665,-0.8876953,0.47851562,-0.06542969,4.3945312,9.094238,-2.380371,0.0,0.0,0.0,106.2323,59.869995,166.12976
1766812167753,-0.91845703,0.61621094,-0.019042969,8.911133,-18.371582,1.4038086,0.0,0.0,0.0,106.2323,59.869995,166.12976
1766812167765,-0.91845703,0.61621094,-0.019042969,8.911133,-18.371582,1.4038086,0.0,0.0,0.0,106.33118,60.238037,165.9375
1766812167853,-1.1303711,0.50439453,-0.18408203,0.48828125,-43.762207,1.0986328,0.0,0.0,0.0,106.33118,60.238037,165.9375
1766812167864,-1.1303711,0.50439453,-0.18408203,0.48828125,-43.762207,1.0986328,0.0,0.0,0.0,101.02478,60.479736,160.18616
1766812167952,-0.60009766,0.4091797,-0.16064453,-1.0375977,26.123047,11.962891,0.0,0.0,0.0,101.02478,60.479736,160.18616
1766812167964,-0.60009766,0.4091797,-0.16064453,-1.0375977,26.123047,11.962891,0.0,0.0,0.0,100.67322,59.996338,159.92249
1766812168052,-0.94384766,0.4584961,-0.13867188,1.0986328,11.84082,14.282227,0.0,0.0,0.0,100.67322,59.996338,159.92249
1766812168063,-0.94384766,0.4584961,-0.13867188,1.0986328,11.84082,14.282227,0.0,0.0,0.0,102.6178,59.100952,160.69153
1766812168152,-0.79541016,0.4633789,-0.17578125,12.634277,14.953613,5.859375,0.0,0.0,0.0,102.6178,59.100952,160.69153
1766812168163,-0.79541016,0.4633789,-0.17578125,12.634277,14.953613,5.859375,0.0,0.0,0.0,104.04053,57.749634,160.58167
1766812168251,-0.9033203,0.49951172,-0.10253906,9.033203,8.666992,-0.18310547,0.0,0.0,0.0,104.04053,57.749634,160.58167
1766812168263,-0.9033203,0.49951172,-0.10253906,9.033203,8.666992,-0.18310547,0.0,0.0,0.0,107.51221,57.266235,163.54797
1766812168352,-0.88671875,0.57910156,-0.08300781,-8.850098,24.536133,-4.333496,0.0,0.0,0.0,107.51221,57.266235,163.54797
1766812168363,-0.88671875,0.57910156,-0.08300781,-8.850098,24.536133,-4.333496,0.0,0.0,0.0,110.198364,57.22229,166.62964
1766812168451,-1.0200195,0.5395508,-0.020507812,-19.40918,-21.66748,2.5634766,0.0,0.0,0.0,110.198364,57.22229,166.62964
1766812168462,-1.0200195,0.5395508,-0.020507812,-19.40918,-21.66748,2.5634766,0.0,0.0,0.0,109.017334,57.145386,167.73926
1766812168551,-0.65185547,0.36914062,-0.2758789,24.047852,-17.211914,8.422852,0.0,0.0,0.0,109.017334,57.145386,167.73926
1766812168563,-0.65185547,0.36914062,-0.2758789,24.047852,-17.211914,8.422852,0.0,0.0,0.0,103.23303,57.49695,161.14746
1766812168650,-0.75097656,0.52001953,-0.30126953,-10.925293,6.7749023,-20.141602,0.0,0.0,0.0,103.23303,57.49695,161.14746
1766812168662,-0.75097656,0.52001953,-0.30126953,-10.925293,6.7749023,-20.141602,0.0,0.0,0.0,104.2218,58.47473,161.60889
1766812168750,-0.9296875,0.37158203,-0.1381836,4.760742,4.3945312,-13.73291,0.0,0.0,0.0,104.2218,58.47473,161.60889
1766812168761,-0.9296875,0.37158203,-0.1381836,4.760742,4.3945312,-13.73291,0.0,0.0,0.0,107.023315,58.952637,164.2456
1766812168850,-0.7348633,0.64941406,-0.11669922,1.4648438,6.713867,-5.3710938,0.0,0.0,0.0,107.023315,58.952637,164.2456
1766812168862,-0.7348633,0.64941406,-0.11669922,1.4648438,6.713867,-5.3710938,0.0,0.0,0.0,108.89099,59.80957,166.31104
1766812168949,-0.8676758,0.4921875,-0.12109375,-1.0986328,20.690918,-2.0751953,0.0,0.0,0.0,108.89099,59.80957,166.31104
1766812168961,-0.8676758,0.4921875,-0.12109375,-1.0986328,20.690918,-2.0751953,0.0,0.0,0.0,110.93994,59.210815,169.28833
1766812169049,-0.9589844,0.5732422,-0.05126953,8.911133,-12.207031,3.8452148,0.0,0.0,0.0,110.93994,59.210815,169.28833
1766812169061,-0.9589844,0.5732422,-0.05126953,8.911133,-12.207031,3.8452148,0.0,0.0,0.0,111.22009,58.95813,168.89832
1766812169149,-1.1396484,0.56689453,-0.13867188,-0.9765625,-42.541504,10.131836,0.0,0.0,0.0,111.22009,58.95813,168.89832
1766812169160,-1.1396484,0.56689453,-0.13867188,-0.9765625,-42.541504,10.131836,0.0,0.0,0.0,105.963135,58.892212,163.56445
1766812169249,-0.47314453,0.4116211,-0.26367188,-13.000488,10.7421875,0.36621094,0.0,0.0,0.0,105.963135,58.892212,163.56445
1766812169260,-0.47314453,0.4116211,-0.26367188,-13.000488,10.7421875,0.36621094,0.0,0.0,0.0,103.21106,58.848267,161.50452
1766812169349,-1.0117188,0.41357422,-0.12988281,-5.9814453,48.828125,2.5024414,0.0,0.0,0.0,103.21106,58.848267,161.50452
1766812169360,-1.0117188,0.41357422,-0.12988281,-5.9814453,48.828125,2.5024414,0.0,0.0,0.0,107.61658,57.200317,164.43237
1766812169448,-0.78466797,0.46728516,-0.25927734,2.9296875,12.084961,4.638672,0.0,0.0,0.0,107.61658,57.200317,164.43237
1766812169460,-0.78466797,0.46728516,-0.25927734,2.9296875,12.084961,4.638672,0.0,0.0,0.0,108.20984,55.859985,164.05334
1766812169548,-0.89501953,0.4765625,-0.10888672,13.793945,7.2631836,0.0,0.0,0.0,0.0,108.20984,55.859985,164.05334
1766812169559,-0.89501953,0.4765625,-0.10888672,13.793945,7.2631836,0.0,0.0,0.0,0.0,112.42859,55.15686,167.68982
1766812169647,-0.8696289,0.6455078,-0.12402344,-10.131836,22.216797,-5.859375,0.0,0.0,0.0,112.42859,55.15686,167.68982
1766812169659,-0.8696289,0.6455078,-0.12402344,-10.131836,22.216797,-5.859375,0.0,0.0,0.0,114.45557,55.338135,170.12878
1766812169747,-0.9970703,0.5488281,-0.06347656,-28.076172,-22.583008,0.48828125,0.0,0.0,0.0,114.45557,55.338135,170.12878
1766812169759,-0.9970703,0.5488281,-0.06347656,-28.076172,-22.583008,0.48828125,0.0,0.0,0.0,110.86853,55.579834,169.42017
1766812169847,-0.7026367,0.43701172,-0.28173828,19.592285,-25.024414,8.850098,0.0,0.0,0.0,110.86853,55.579834,169.42017
1766812169858,-0.7026367,0.43701172,-0.28173828,19.592285,-25.024414,8.850098,0.0,0.0,0.0,104.974365,56.44226,162.8778
1766812169946,-0.79052734,0.59814453,-0.3564453,0.7324219,-9.521484,-12.817383,0.0,0.0,0.0,104.974365,56.44226,162.8778
1766812169958,-0.79052734,0.59814453,-0.3564453,0.7324219,-9.521484,-12.817383,0.0,0.0,0.0,103.90869,57.661743,160.97168
1766812170046,-0.9194336,0.37109375,-0.040527344,-7.2631836,0.061035156,-21.1792,0.0,0.0,0.0,103.90869,57.661743,160.97168
1766812170058,-0.9194336,0.37109375,-0.040527344,-7.2631836,0.061035156,-21.1792,0.0,0.0,0.0,107.611084,58.117676,165.17944
1766812170146,-0.73535156,0.6489258,-0.10253906,-7.080078,11.59668,-5.3100586,0.0,0.0,0.0,107.611084,58.117676,165.17944
1766812170157,-0.73535156,0.6489258,-0.10253906,-7.080078,11.59668,-5.3100586,0.0,0.0,0.0,107.79785,59.34265,165.75073
1766812170246,-0.875,0.49072266,-0.08935547,-8.239746,14.709473,-3.9672852,0.0,0.0,0.0,107.79785,59.34265,165.75073
1766812170257,-0.875,0.49072266,-0.08935547,-8.239746,14.709473,-3.9672852,0.0,0.0,0.0,108.66028,59.073486,168.1018
1766812170345,-0.95410156,0.58691406,-0.024414062,0.9765625,-12.451172,3.2348633,0.0,0.0,0.0,108.66028,59.073486,168.1018
1766812170357,-0.95410156,0.58691406,-0.024414062,0.9765625,-12.451172,3.2348633,0.0,0.0,0.0,107.979126,59.13391,167.93701
1766812170445,-1.1235352,0.5410156,-0.08544922,-1.7089844,-52.79541,8.300781,0.0,0.0,0.0,107.979126,59.13391,167.93701
1766812170456,-1.1235352,0.5410156,-0.08544922,-1.7089844,-52.79541,8.300781,0.0,0.0,0.0,102.13989,59.100952,162.27905
1766812170545,-0.5,0.42382812,-0.27490234,3.6010742,15.625,4.5166016,0.0,0.0,0.0,102.13989,59.100952,162.27905
1766812170557,-0.5,0.42382812,-0.27490234,3.6010742,15.625,4.5166016,0.0,0.0,0.0,99.02527,58.71643,158.76343
1766812170644,-1.0385742,0.46875,-0.05810547,1.7089844,10.559082,8.7890625,0.0,0.0,0.0,99.02527,58.71643,158.76343
1766812170656,-1.0385742,0.46875,-0.05810547,1.7089844,10.559082,8.7890625,0.0,0.0,0.0,103.29895,57.348633,161.18042
1766812170744,-0.7763672,0.51220703,-0.1665039,15.319824,9.643555,7.6904297,0.0,0.0,0.0,103.29895,57.348633,161.18042
1766812170756,-0.7763672,0.51220703,-0.1665039,15.319824,9.643555,7.6904297,0.0,0.0,0.0,103.85925,56.26648,159.64233
1766812170844,-0.8569336,0.5151367,-0.096191406,7.3242188,13.000488,-0.61035156,0.0,0.0,0.0,103.85925,56.26648,159.64233
1766812170855,-0.8569336,0.5151367,-0.096191406,7.3242188,13.000488,-0.61035156,0.0,0.0,0.0,106.78162,55.739136,161.81213
1766812170944,-0.9194336,0.5991211,-0.11669922,-5.79834,14.282227,-5.432129,0.0,0.0,0.0,106.78162,55.739136,161.81213
1766812170955,-0.9194336,0.5991211,-0.11669922,-5.79834,14.282227,-5.432129,0.0,0.0,0.0,108.73169,55.83252,164.11377
1766812171043,-0.92333984,0.55908203,0.037109375,-21.54541,-11.535645,2.4414062,0.0,0.0,0.0,108.73169,55.83252,164.11377
1766812171055,-0.92333984,0.55908203,0.037109375,-21.54541,-11.535645,2.4414062,0.0,0.0,0.0,107.215576,55.92041,164.71252
1766812171143,-0.7792969,0.48779297,-0.27246094,18.005371,-32.89795,9.82666,0.0,0.0,0.0,107.215576,55.92041,164.71252
1766812171154,-0.7792969,0.48779297,-0.27246094,18.005371,-32.89795,9.82666,0.0,0.0,0.0,100.546875,56.365356,158.19214
1766812171243,-0.70458984,0.56347656,-0.30908203,-4.8217773,-2.9907227,-18.920898,0.0,0.0,0.0,100.546875,56.365356,158.19214
1766812171255,-0.70458984,0.56347656,-0.30908203,-4.8217773,-2.9907227,-18.920898,0.0,0.0,0.0,99.63501,57.304688,156.02234
1766812171342,-0.96875,0.38916016,-0.028320312,-10.009766,14.831543,-19.53125,0.0,0.0,0.0,99.63501,57.304688,156.02234
1766812171354,-0.96875,0.38916016,-0.028320312,-10.009766,14.831543,-19.53125,0.0,0.0,0.0,103.68347,57.9364,161.33423
1766812171442,-0.7265625,0.65771484,-0.064453125,-2.9296875,11.779785,-14.099121,0.0,0.0,0.0,103.68347,57.9364,161.33423
1766812171454,-0.7265625,0.65771484,-0.064453125,-2.9296875,11.779785,-14.099121,0.0,0.0,0.0,104.765625,59.298706,163.08105
1766812171542,-0.84228516,0.4892578,-0.064941406,-2.380371,18.066406,-4.1503906,0.0,0.0,0.0,104.765625,59.298706,163.08105
1766812171553,-0.84228516,0.4892578,-0.064941406,-2.380371,18.066406,-4.1503906,0.0,0.0,0.0,106.77612,59.315186,166.24512
1766812171642,-0.95458984,0.5830078,-0.023925781,6.8969727,-10.925293,1.2207031,0.0,0.0,0.0,106.77612,59.315186,166.24512
1766812171653,-0.95458984,0.5830078,-0.023925781,6.8969727,-10.925293,1.2207031,0.0,0.0,0.0,107.42432,59.386597,166.8219
1766812171741,-1.1206055,0.5649414,-0.068359375,-2.9296875,-26.794434,3.4179688,0.0,0.0,0.0,107.42432,59.386597,166.8219
1766812171753,-1.1206055,0.5649414,-0.068359375,-2.9296875,-26.794434,3.4179688,0.0,0.0,0.0,103.55713,59.249268,162.45483
1766812171841,-0.51416016,0.3984375,-0.21386719,-0.9765625,15.197754,4.0283203,0.0,0.0,0.0,103.55713,59.249268,162.45483
1766812171852,-0.51416016,0.3984375,-0.21386719,-0.9765625,15.197754,4.0283203,0.0,0.0,0.0,100.55237,59.28772,158.7854
1766812171941,-1.0327148,0.39501953,-0.22558594,26.245117,9.338379,14.6484375,0.0,0.0,0.0,100.55237,59.28772,158.7854
1766812171953,-1.0327148,0.39501953,-0.22558594,26.245117,9.338379,14.6484375,0.0,0.0,0.0,103.78235,58.007812,160.01587
1766812172040,-0.76220703,0.54248047,-0.171875,13.793945,4.3945312,12.756348,0.0,0.0,0.0,103.78235,58.007812,160.01587
1766812172052,-0.76220703,0.54248047,-0.171875,13.793945,4.3945312,12.756348,0.0,0.0,0.0,106.622314,56.52466,160.97717
1766812172140,-0.8959961,0.46533203,-0.12890625,12.634277,7.9956055,2.2583008,0.0,0.0,0.0,106.622314,56.52466,160.97717
1766812172152,-0.8959961,0.46533203,-0.12890625,12.634277,7.9956055,2.2583008,0.0,0.0,0.0,109.83032,55.722656,163.22388
1766812172240,-0.89208984,0.5810547,-0.13964844,0.18310547,17.76123,-4.5166016,0.0,0.0,0.0,109.83032,55.722656,163.22388
1766812172251,-0.89208984,0.5810547,-0.13964844,0.18310547,17.76123,-4.5166016,0.0,0.0,0.0,112.06055,55.706177,164.92126
1766812172340,-0.9082031,0.5317383,-0.017578125,-21.78955,-14.404297,4.272461,0.0,0.0,0.0,112.06055,55.706177,164.92126
1766812172351,-0.9082031,0.5317383,-0.017578125,-21.78955,-14.404297,4.272461,0.0,0.0,0.0,111.19263,55.67871,166.09131
1766812172439,-0.90234375,0.6044922,-0.29492188,14.221191,-37.04834,12.023926,0.0,0.0,0.0,111.19263,55.67871,166.09131
1766812172451,-0.90234375,0.6044922,-0.29492188,14.221191,-37.04834,12.023926,0.0,0.0,0.0,104.71069,56.23352,160.36194
1766812172539,-0.6982422,0.42138672,-0.3227539,-14.709473,-12.145996,-22.460938,0.0,0.0,0.0,104.71069,56.23352,160.36194
1766812172551,-0.6982422,0.42138672,-0.3227539,-14.709473,-12.145996,-22.460938,0.0,0.0,0.0,103.392334,56.854248,156.9397
1766812172639,-0.95703125,0.43310547,-0.08251953,-7.6904297,11.230469,-14.282227,0.0,0.0,0.0,103.392334,56.854248,156.9397
1766812172650,-0.95703125,0.43310547,-0.08251953,-7.6904297,11.230469,-14.282227,0.0,0.0,0.0,105.930176,57.870483,159.70825
1766812172738,-0.7426758,0.62939453,-0.09716797,-0.18310547,10.620117,-10.498047,0.0,0.0,0.0,105.930176,57.870483,159.70825
1766812172750,-0.7426758,0.62939453,-0.09716797,-0.18310547,10.620117,-10.498047,0.0,0.0,0.0,107.473755,59.09546,161.64185
1766812172838,-0.85791016,0.51171875,-0.11328125,-4.8828125,18.249512,-4.333496,0.0,0.0,0.0,107.473755,59.09546,161.64185
1766812172850,-0.85791016,0.51171875,-0.11328125,-4.8828125,18.249512,-4.333496,0.0,0.0,0.0,109.09424,59.057007,164.18518
1766812172938,-0.9682617,0.5239258,-0.11669922,7.019043,-2.8076172,0.48828125,0.0,0.0,0.0,109.09424,59.057007,164.18518
1766812172949,-0.9682617,0.5239258,-0.11669922,7.019043,-2.8076172,0.48828125,0.0,0.0,0.0,110.34119,58.859253,165.92651
1766812173038,-0.89697266,0.6298828,-0.036621094,-2.6245117,-31.066895,11.59668,0.0,0.0,0.0,110.34119,58.859253,165.92651
1766812173050,-0.89697266,0.6298828,-0.036621094,-2.6245117,-31.066895,11.59668,0.0,0.0,0.0,106.501465,58.71643,161.71326
1766812173137,-0.6035156,0.34814453,-0.27441406,-16.113281,11.474609,2.319336,0.0,0.0,0.0,106.501465,58.71643,161.71326
1766812173149,-0.6035156,0.34814453,-0.27441406,-16.113281,11.474609,2.319336,0.0,0.0,0.0,101.68945,58.771362,156.94519
1766812173237,-1.0141602,0.39892578,-0.23583984,21.54541,-15.136719,8.7890625,0.0,0.0,0.0,101.68945,58.771362,156.94519
1766812173249,-1.0141602,0.39892578,-0.23583984,21.54541,-15.136719,8.7890625,0.0,0.0,0.0,104.315186,57.612305,158.71399
1766812173337,-0.76220703,0.5932617,-0.12060547,14.099121,6.1035156,10.864258,0.0,0.0,0.0,104.315186,57.612305,158.71399
1766812173348,-0.76220703,0.5932617,-0.12060547,14.099121,6.1035156,10.864258,0.0,0.0,0.0,106.43005,56.348877,159.19739
1766812173436,-0.8876953,0.42285156,-0.14501953,9.765625,13.366699,0.6713867,0.0,0.0,0.0,106.43005,56.348877,159.19739
1766812173448,-0.8876953,0.42285156,-0.14501953,9.765625,13.366699,0.6713867,0.0,0.0,0.0,109.017334,55.50293,160.74097
1766812173536,-0.8520508,0.5957031,-0.1459961,-0.48828125,19.348145,-4.638672,0.0,0.0,0.0,109.017334,55.50293,160.74097
1766812173548,-0.8520508,0.5957031,-0.1459961,-0.48828125,19.348145,-4.638672,0.0,0.0,0.0,111.82434,55.524902,163.61389
1766812173636,-0.91259766,0.57666016,0.012207031,-25.32959,-1.5258789,0.24414062,0.0,0.0,0.0,111.82434,55.524902,163.61389
1766812173647,-0.91259766,0.57666016,0.012207031,-25.32959,-1.5258789,0.24414062,0.0,0.0,0.0,111.71448,55.338135,165.943
1766812173736,-0.9589844,0.6713867,-0.296875,-1.4648438,-46.081543,6.7749023,0.0,0.0,0.0,111.71448,55.338135,165.943
1766812173747,-0.9589844,0.6713867,-0.296875,-1.4648438,-46.081543,6.7749023,0.0,0.0,0.0,104.65027,56.04126,160.318
1766812173835,-0.6166992,0.29589844,-0.24511719,-11.59668,0.061035156,-16.540527,0.0,0.0,0.0,104.65027,56.04126,160.318
1766812173847,-0.6166992,0.29589844,-0.24511719,-11.59668,0.061035156,-16.540527,0.0,0.0,0.0,103.38684,56.28296,157.10999
1766812173935,-0.9350586,0.5307617,-0.12011719,-9.460449,25.08545,-9.399414,0.0,0.0,0.0,103.38684,56.28296,157.10999
1766812173946,-0.9350586,0.5307617,-0.12011719,-9.460449,25.08545,-9.399414,0.0,0.0,0.0,105.979614,57.22229,160.24658
1766812174035,-0.765625,0.56640625,-0.119140625,0.6713867,10.803223,-13.977051,0.0,0.0,0.0,105.979614,57.22229,160.24658
