timestamp,accX,accY,accZ,gyroX,gyroY,gyroZ,magX,magY,magZ,roll,pitch,yaw
1766814425315,-1.1274414,-0.2368164,0.13867188,7.019043,6.4086914,-8.422852,0.0,0.0,0.0,-38.139038,75.0531,-38.90808
1766814425327,-1.1274414,-0.2368164,0.13867188,7.019043,6.4086914,-8.422852,0.0,0.0,0.0,-34.431152,75.02014,-35.480347
1766814425414,-1.2075195,-0.16259766,9.765625E-4,-0.061035156,8.361816,-3.112793,0.0,0.0,0.0,-34.431152,75.02014,-35.480347
1766814425428,-1.2075195,-0.16259766,9.765625E-4,-0.061035156,8.361816,-3.112793,0.0,0.0,0.0,-38.875122,75.130005,-40.50659
1766814425513,-0.93310547,-0.095214844,0.23632812,12.939453,25.756836,-4.4555664,0.0,0.0,0.0,-38.875122,75.130005,-40.50659
1766814425525,-0.93310547,-0.095214844,0.23632812,12.939453,25.756836,-4.4555664,0.0,0.0,0.0,-46.741333,76.536255,-49.02649
1766814425614,-0.8071289,-0.3305664,0.4975586,-9.216309,17.63916,6.4086914,0.0,0.0,0.0,-46.741333,76.536255,-49.02649
1766814425625,-0.8071289,-0.3305664,0.4975586,-9.216309,17.63916,6.4086914,0.0,0.0,0.0,-54.294434,77.84363,-57.16736
1766814425713,-0.97216797,0.0024414062,0.23242188,8.361816,-71.59424,25.08545,0.0,0.0,0.0,-54.294434,77.84363,-57.16736
1766814425725,-0.97216797,0.0024414062,0.23242188,8.361816,-71.59424,25.08545,0.0,0.0,0.0,-41.643677,76.07483,-45.17578
1766814425813,-0.95751953,-0.19238281,0.10107422,20.568848,26.428223,-3.0517578,0.0,0.0,0.0,-41.643677,76.07483,-45.17578
1766814425824,-0.95751953,-0.19238281,0.10107422,20.568848,26.428223,-3.0517578,0.0,0.0,0.0,-33.67859,76.28906,-36.897583
1766814425912,-0.93603516,-0.17773438,0.17822266,13.48877,-12.390137,-3.479004,0.0,0.0,0.0,-33.67859,76.28906,-36.897583
1766814425923,-0.93603516,-0.17773438,0.17822266,13.48877,-12.390137,-3.479004,0.0,0.0,0.0,-33.392944,76.05286,-37.71057
1766814426012,-1.1337891,-0.19482422,-0.005859375,11.962891,10.559082,-6.4697266,0.0,0.0,0.0,-33.392944,76.05286,-37.71057
1766814426023,-1.1337891,-0.19482422,-0.005859375,11.962891,10.559082,-6.4697266,0.0,0.0,0.0,-33.689575,75.55847,-38.726807
1766814426111,-1.1567383,-0.22167969,0.083496094,-3.6621094,30.944824,-1.5869141,0.0,0.0,0.0,-33.689575,75.55847,-38.726807
1766814426123,-1.1567383,-0.22167969,0.083496094,-3.6621094,30.944824,-1.5869141,0.0,0.0,0.0,-42.615967,77.28882,-48.120117
1766814426211,-0.8540039,-0.10205078,0.22851562,-33.996582,9.155273,-10.131836,0.0,0.0,0.0,-42.615967,77.28882,-48.120117
1766814426223,-0.8540039,-0.10205078,0.22851562,-33.996582,9.155273,-10.131836,0.0,0.0,0.0,-58.43628,78.12927,-61.776123
1766814426311,-0.890625,0.110839844,0.35839844,31.738281,0.48828125,-15.625,0.0,0.0,0.0,-58.43628,78.12927,-61.776123
1766814426322,-0.890625,0.110839844,0.35839844,31.738281,0.48828125,-15.625,0.0,0.0,0.0,-60.507202,77.08008,-65.10498
1766814426411,-1.0146484,-0.3803711,-0.115722656,-4.8217773,-56.09131,14.099121,0.0,0.0,0.0,-60.507202,77.08008,-65.10498
1766814426422,-1.0146484,-0.3803711,-0.115722656,-4.8217773,-56.09131,14.099121,0.0,0.0,0.0,-36.677856,74.58618,-41.209717
1766814426510,-0.8618164,-0.0043945312,0.2763672,-1.2207031,4.333496,-11.169434,0.0,0.0,0.0,-36.677856,74.58618,-41.209717
1766814426522,-0.8618164,-0.0043945312,0.2763672,-1.2207031,4.333496,-11.169434,0.0,0.0,0.0,-42.96753,74.23462,-48.010254
1766814426610,-1.0117188,-0.20898438,0.07421875,-1.8920898,-6.713867,16.235352,0.0,0.0,0.0,-42.96753,74.23462,-48.010254
1766814426621,-1.0117188,-0.20898438,0.07421875,-1.8920898,-6.713867,16.235352,0.0,0.0,0.0,-35.54077,74.11377,-39.715576
1766814426710,-1.2001953,-0.24707031,0.111816406,-8.972168,13.305664,-2.380371,0.0,0.0,0.0,-35.54077,74.11377,-39.715576
1766814426721,-1.2001953,-0.24707031,0.111816406,-8.972168,13.305664,-2.380371,0.0,0.0,0.0,-37.0459,75.250854,-41.05591
1766814426809,-1.1962891,-0.09277344,0.11767578,-12.023926,30.151367,-12.023926,0.0,0.0,0.0,-37.0459,75.250854,-41.05591
1766814426821,-1.1962891,-0.09277344,0.11767578,-12.023926,30.151367,-12.023926,0.0,0.0,0.0,-48.43872,76.657104,-51.229248
1766814426909,-0.59765625,-0.1616211,0.33203125,4.211426,24.108887,-4.0893555,0.0,0.0,0.0,-48.43872,76.657104,-51.229248
1766814426921,-0.59765625,-0.1616211,0.33203125,4.211426,24.108887,-4.0893555,0.0,0.0,0.0,-59.331665,77.65137,-62.46277
1766814427009,-0.9375,-0.14941406,0.46191406,0.24414062,-71.22803,12.512207,0.0,0.0,0.0,-59.331665,77.65137,-62.46277
1766814427020,-0.9375,-0.14941406,0.46191406,0.24414062,-71.22803,12.512207,0.0,0.0,0.0,-52.16858,76.865845,-55.1239
1766814427108,-0.99072266,-0.15917969,0.0073242188,7.2631836,18.615723,-2.1362305,0.0,0.0,0.0,-52.16858,76.865845,-55.1239
1766814427120,-0.99072266,-0.15917969,0.0073242188,7.2631836,18.615723,-2.1362305,0.0,0.0,0.0,-37.282104,75.4541,-38.693848
1766814427208,-0.9223633,-0.2163086,0.14160156,12.756348,-9.643555,-2.1362305,0.0,0.0,0.0,-37.282104,75.4541,-38.693848
1766814427220,-0.9223633,-0.2163086,0.14160156,12.756348,-9.643555,-2.1362305,0.0,0.0,0.0,-37.6886,75.635376,-40.094604
1766814427308,-1.0927734,-0.21240234,0.023925781,1.7089844,10.803223,-6.4086914,0.0,0.0,0.0,-37.6886,75.635376,-40.094604
1766814427319,-1.0927734,-0.21240234,0.023925781,1.7089844,10.803223,-6.4086914,0.0,0.0,0.0,-39.42993,75.43213,-42.615967
1766814427408,-1.144043,-0.19824219,0.030761719,-0.12207031,35.705566,-4.5166016,0.0,0.0,0.0,-39.42993,75.43213,-42.615967
1766814427419,-1.144043,-0.19824219,0.030761719,-0.12207031,35.705566,-4.5166016,0.0,0.0,0.0,-50.81726,77.145996,-54.492188
1766814427507,-0.9897461,-0.14257812,0.23925781,-24.658203,11.108398,-5.9814453,0.0,0.0,0.0,-50.81726,77.145996,-54.492188
1766814427519,-0.9897461,-0.14257812,0.23925781,-24.658203,11.108398,-5.9814453,0.0,0.0,0.0,-69.16992,78.44238,-71.56494
1766814427607,-0.85498047,0.123046875,0.18017578,41.992188,12.268066,-8.056641,0.0,0.0,0.0,-69.16992,78.44238,-71.56494
1766814427618,-0.85498047,0.123046875,0.18017578,41.992188,12.268066,-8.056641,0.0,0.0,0.0,-70.03784,78.26111,-73.64136
1766814427707,-0.99560547,-0.36328125,-0.049316406,-0.61035156,-61.645508,13.122559,0.0,0.0,0.0,-70.03784,78.26111,-73.64136
1766814427718,-0.99560547,-0.36328125,-0.049316406,-0.61035156,-61.645508,13.122559,0.0,0.0,0.0,-49.592285,77.48657,-55.096436
1766814427806,-0.87353516,-0.076660156,0.16259766,-8.056641,3.9672852,-10.498047,0.0,0.0,0.0,-49.592285,77.48657,-55.096436
1766814427818,-0.87353516,-0.076660156,0.16259766,-8.056641,3.9672852,-10.498047,0.0,0.0,0.0,-48.883667,76.44287,-54.014282
1766814427906,-1.0058594,-0.19824219,0.084472656,-15.625,-28.9917,8.666992,0.0,0.0,0.0,-48.883667,76.44287,-54.014282
1766814427918,-1.0058594,-0.19824219,0.084472656,-15.625,-28.9917,8.666992,0.0,0.0,0.0,-44.110107,75.31677,-47.526855
1766814428006,-1.1342773,-0.1796875,0.06933594,-16.662598,10.864258,0.6713867,0.0,0.0,0.0,-44.110107,75.31677,-47.526855
1766814428018,-1.1342773,-0.1796875,0.06933594,-16.662598,10.864258,0.6713867,0.0,0.0,0.0,-43.21472,75.34973,-44.956055
1766814428105,-1.2280273,-0.15966797,0.036132812,-3.2348633,29.60205,-5.9814453,0.0,0.0,0.0,-43.21472,75.34973,-44.956055
1766814428117,-1.2280273,-0.15966797,0.036132812,-3.2348633,29.60205,-5.9814453,0.0,0.0,0.0,-50.635986,76.75049,-51.157837
1766814428205,-0.65478516,-0.20019531,0.36376953,-7.6293945,23.986816,1.159668,0.0,0.0,0.0,-50.635986,76.75049,-51.157837
1766814428217,-0.65478516,-0.20019531,0.36376953,-7.6293945,23.986816,1.159668,0.0,0.0,0.0,-63.154907,78.12927,-63.99536
1766814428305,-0.95751953,-0.118652344,0.4169922,11.535645,-68.66455,12.756348,0.0,0.0,0.0,-63.154907,78.12927,-63.99536
1766814428317,-0.95751953,-0.118652344,0.4169922,11.535645,-68.66455,12.756348,0.0,0.0,0.0,-56.95862,77.67334,-57.947388
1766814428404,-0.93310547,-0.09814453,-0.0625,10.681152,25.817871,-3.8452148,0.0,0.0,0.0,-56.95862,77.67334,-57.947388
1766814428416,-0.93310547,-0.09814453,-0.0625,10.681152,25.817871,-3.8452148,0.0,0.0,0.0,-41.000977,76.59119,-40.665894
1766814428504,-0.9042969,-0.20654297,0.17285156,21.057129,-12.023926,0.79345703,0.0,0.0,0.0,-41.000977,76.59119,-40.665894
1766814428516,-0.9042969,-0.20654297,0.17285156,21.057129,-12.023926,0.79345703,0.0,0.0,0.0,-43.64868,77.40967,-45.20874
1766814428604,-1.1342773,-0.27392578,-0.011230469,16.601562,11.291504,-7.8125,0.0,0.0,0.0,-43.64868,77.40967,-45.20874
1766814428616,-1.1342773,-0.27392578,-0.011230469,16.601562,11.291504,-7.8125,0.0,0.0,0.0,-42.06665,76.9812,-45.52185
1766814428704,-1.1391602,-0.16992188,0.06298828,-2.380371,26.123047,-6.286621,0.0,0.0,0.0,-42.06665,76.9812,-45.52185
1766814428715,-1.1391602,-0.16992188,0.06298828,-2.380371,26.123047,-6.286621,0.0,0.0,0.0,-53.78357,77.66785,-58.013306
1766814428803,-0.9345703,-0.18017578,0.17333984,-39.79492,7.9956055,-2.6855469,0.0,0.0,0.0,-53.78357,77.66785,-58.013306
1766814428815,-0.9345703,-0.18017578,0.17333984,-39.79492,7.9956055,-2.6855469,0.0,0.0,0.0,-69.20288,78.45337,-71.56494
1766814428903,-0.85058594,0.09375,0.26171875,30.029297,16.906738,-20.874023,0.0,0.0,0.0,-69.20288,78.45337,-71.56494
1766814428915,-0.85058594,0.09375,0.26171875,30.029297,16.906738,-20.874023,0.0,0.0,0.0,-74.73999,77.65137,-76.36047
1766814429003,-1.0131836,-0.3125,-0.099121094,-9.887695,-77.45361,33.26416,0.0,0.0,0.0,-74.73999,77.65137,-76.36047
1766814429014,-1.0131836,-0.3125,-0.099121094,-9.887695,-77.45361,33.26416,0.0,0.0,0.0,-54.206543,76.93176,-57.233276
1766814429102,-0.88671875,-0.08984375,0.27001953,-0.79345703,18.188477,-14.465332,0.0,0.0,0.0,-54.206543,76.93176,-57.233276
1766814429114,-0.88671875,-0.08984375,0.27001953,-0.79345703,18.188477,-14.465332,0.0,0.0,0.0,-51.740112,76.34949,-54.937134
1766814429202,-1.0258789,-0.1586914,-0.08300781,-13.549805,-18.676758,20.996094,0.0,0.0,0.0,-51.740112,76.34949,-54.937134
1766814429214,-1.0258789,-0.1586914,-0.08300781,-13.549805,-18.676758,20.996094,0.0,0.0,0.0,-45.214233,76.069336,-46.757812
1766814429302,-1.1113281,-0.22753906,0.059570312,-0.6713867,13.244629,-2.1362305,0.0,0.0,0.0,-45.214233,76.069336,-46.757812
1766814429313,-1.1113281,-0.22753906,0.059570312,-0.6713867,13.244629,-2.1362305,0.0,0.0,0.0,-45.807495,77.316284,-46.94458
1766814429404,-1.2236328,-0.1459961,0.0048828125,-3.90625,26.184082,-7.3242188,0.0,0.0,0.0,-45.807495,77.316284,-46.94458
1766814429413,-1.2236328,-0.1459961,0.0048828125,-3.90625,26.184082,-7.3242188,0.0,0.0,0.0,-53.981323,78.11279,-54.750366
1766814429501,-0.7158203,-0.16357422,0.21923828,-0.61035156,13.977051,0.5493164,0.0,0.0,0.0,-53.981323,78.11279,-54.750366
1766814429516,-0.7158203,-0.16357422,0.21923828,-0.61035156,13.977051,0.5493164,0.0,0.0,0.0,-66.68701,79.04114,-67.214355
1766814429601,-0.93066406,-0.31347656,0.46533203,-2.2583008,-22.460938,3.0517578,0.0,0.0,0.0,-66.68701,79.04114,-67.214355
1766814429613,-0.93066406,-0.31347656,0.46533203,-2.2583008,-22.460938,3.0517578,0.0,0.0,0.0,-67.26929,79.436646,-67.19238
1766814429701,-0.98046875,-0.044921875,-0.13330078,-3.6621094,-13.427734,13.977051,0.0,0.0,0.0,-67.26929,79.436646,-67.19238
1766814429712,-0.98046875,-0.044921875,-0.13330078,-3.6621094,-13.427734,13.977051,0.0,0.0,0.0,-44.94507,77.50305,-44.489136
1766814429800,-0.8935547,-0.1928711,0.16015625,9.643555,-5.9814453,7.6904297,0.0,0.0,0.0,-44.94507,77.50305,-44.489136
1766814429812,-0.8935547,-0.1928711,0.16015625,9.643555,-5.9814453,7.6904297,0.0,0.0,0.0,-41.82495,78.349,-41.863403
1766814429900,-1.0283203,-0.2265625,0.07080078,9.338379,-10.864258,0.61035156,0.0,0.0,0.0,-41.82495,78.349,-41.863403
1766814429911,-1.0283203,-0.2265625,0.07080078,9.338379,-10.864258,0.61035156,0.0,0.0,0.0,-35.76599,77.48657,-37.194214
1766814430000,-1.1088867,-0.18603516,0.05908203,9.094238,11.657715,-5.004883,0.0,0.0,0.0,-35.76599,77.48657,-37.194214
1766814430011,-1.1088867,-0.18603516,0.05908203,9.094238,11.657715,-5.004883,0.0,0.0,0.0,-39.35852,77.65686,-41.467896
1766814430099,-1.2070312,-0.31445312,0.1484375,-8.7890625,40.95459,-7.080078,0.0,0.0,0.0,-39.35852,77.65686,-41.467896
1766814430111,-1.2070312,-0.31445312,0.1484375,-8.7890625,40.95459,-7.080078,0.0,0.0,0.0,-51.1084,79.156494,-53.360596
1766814430199,-0.7158203,0.023925781,0.12207031,-6.8359375,0.24414062,-14.465332,0.0,0.0,0.0,-51.1084,79.156494,-53.360596
1766814430211,-0.7158203,0.023925781,0.12207031,-6.8359375,0.24414062,-14.465332,0.0,0.0,0.0,-61.627808,78.6676,-61.501465
1766814430299,-0.96777344,-0.009765625,0.58154297,20.629883,-30.090332,12.145996,0.0,0.0,0.0,-61.627808,78.6676,-61.501465
1766814430310,-0.96777344,-0.009765625,0.58154297,20.629883,-30.090332,12.145996,0.0,0.0,0.0,-57.837524,77.79419,-60.144653
1766814430399,-1.0014648,-0.3671875,-0.23095703,7.080078,1.4038086,-14.404297,0.0,0.0,0.0,-57.837524,77.79419,-60.144653
1766814430410,-1.0014648,-0.3671875,-0.23095703,7.080078,1.4038086,-14.404297,0.0,0.0,0.0,-33.95874,74.9762,-35.161743
1766814430498,-0.83984375,0.087890625,0.24414062,-7.019043,-11.71875,-0.4272461,0.0,0.0,0.0,-33.95874,74.9762,-35.161743
1766814430510,-0.83984375,0.087890625,0.24414062,-7.019043,-11.71875,-0.4272461,0.0,0.0,0.0,-44.329834,75.3772,-46.071167
1766814430598,-1.1230469,-0.22363281,0.04296875,2.6855469,2.2583008,11.169434,0.0,0.0,0.0,-44.329834,75.3772,-46.071167
1766814430609,-1.1230469,-0.22363281,0.04296875,2.6855469,2.2583008,11.169434,0.0,0.0,0.0,-36.92505,75.635376,-38.28186
1766814430698,-1.1157227,-0.22753906,0.025878906,-5.1879883,15.625,-10.314941,0.0,0.0,0.0,-36.92505,75.635376,-38.28186
1766814430709,-1.1157227,-0.22753906,0.025878906,-5.1879883,15.625,-10.314941,0.0,0.0,0.0,-42.802734,76.61316,-44.51111
1766814430797,-1.1098633,-0.06640625,0.10839844,4.8828125,32.226562,-14.953613,0.0,0.0,0.0,-42.802734,76.61316,-44.51111
1766814430809,-1.1098633,-0.06640625,0.10839844,4.8828125,32.226562,-14.953613,0.0,0.0,0.0,-57.244263,77.35474,-58.842773
1766814430897,-0.6689453,-0.22753906,0.42919922,-6.652832,17.211914,-1.3427734,0.0,0.0,0.0,-57.244263,77.35474,-58.842773
1766814430908,-0.6689453,-0.22753906,0.42919922,-6.652832,17.211914,-1.3427734,0.0,0.0,0.0,-69.19739,77.79419,-71.82861
1766814430997,-0.99902344,-0.07373047,0.17236328,-7.385254,-79.711914,28.381348,0.0,0.0,0.0,-69.19739,77.79419,-71.82861
1766814431008,-0.99902344,-0.07373047,0.17236328,-7.385254,-79.711914,28.381348,0.0,0.0,0.0,-52.772827,76.5802,-54.70642
1766814431096,-0.9472656,-0.119628906,0.047851562,10.7421875,24.353027,1.5258789,0.0,0.0,0.0,-52.772827,76.5802,-54.70642
1766814431108,-0.9472656,-0.119628906,0.047851562,10.7421875,24.353027,1.5258789,0.0,0.0,0.0,-42.56653,76.67908,-43.450928
1766814431196,-0.9345703,-0.2397461,0.15917969,18.127441,-9.643555,-3.540039,0.0,0.0,0.0,-42.56653,76.67908,-43.450928
1766814431208,-0.9345703,-0.2397461,0.15917969,18.127441,-9.643555,-3.540039,0.0,0.0,0.0,-41.90735,76.90979,-43.85742
1766814431296,-1.09375,-0.20654297,0.020996094,1.2817383,3.540039,-5.92041,0.0,0.0,0.0,-41.90735,76.90979,-43.85742
1766814431307,-1.09375,-0.20654297,0.020996094,1.2817383,3.540039,-5.92041,0.0,0.0,0.0,-41.522827,76.09131,-44.09912
1766814431396,-1.1538086,-0.22460938,0.025390625,-8.728027,17.39502,0.9765625,0.0,0.0,0.0,-41.522827,76.09131,-44.09912
1766814431407,-1.1538086,-0.22460938,0.025390625,-8.728027,17.39502,0.9765625,0.0,0.0,0.0,-47.807007,76.96472,-50.092163
1766814431495,-0.8730469,-0.16992188,0.25830078,-37.719727,18.798828,-9.460449,0.0,0.0,0.0,-47.807007,76.96472,-50.092163
1766814431507,-0.8730469,-0.16992188,0.25830078,-37.719727,18.798828,-9.460449,0.0,0.0,0.0,-65.494995,78.36548,-65.8136
1766814431595,-0.8510742,0.14990234,0.25341797,21.972656,-9.216309,-8.422852,0.0,0.0,0.0,-65.494995,78.36548,-65.8136
1766814431606,-0.8510742,0.14990234,0.25341797,21.972656,-9.216309,-8.422852,0.0,0.0,0.0,-64.451294,77.58545,-64.14917
1766814431695,-1.0400391,-0.37597656,0.043945312,-11.352539,-85.44922,36.499023,0.0,0.0,0.0,-64.451294,77.58545,-64.14917
1766814431706,-1.0400391,-0.37597656,0.043945312,-11.352539,-85.44922,36.499023,0.0,0.0,0.0,-37.26013,75.756226,-37.88086
1766814431795,-0.875,-0.07128906,0.25732422,8.239746,16.174316,-21.1792,0.0,0.0,0.0,-37.26013,75.756226,-37.88086
1766814431806,-0.875,-0.07128906,0.25732422,8.239746,16.174316,-21.1792,0.0,0.0,0.0,-38.00171,74.61914,-39.666138
1766814431894,-0.9926758,-0.12646484,0.053710938,0.61035156,-23.80371,16.967773,0.0,0.0,0.0,-38.00171,74.61914,-39.666138
1766814431906,-0.9926758,-0.12646484,0.053710938,0.61035156,-23.80371,16.967773,0.0,0.0,0.0,-33.21167,73.50952,-34.865112
1766814431994,-1.1162109,-0.21875,0.19628906,7.2021484,13.061523,-6.591797,0.0,0.0,0.0,-33.21167,73.50952,-34.865112
1766814432007,-1.1162109,-0.21875,0.19628906,7.2021484,13.061523,-6.591797,0.0,0.0,0.0,-31.78894,73.99841,-34.491577
1766814432093,-1.2890625,-0.18896484,0.009765625,-3.2958984,24.780273,-6.591797,0.0,0.0,0.0,-31.78894,73.99841,-34.491577
1766814432105,-1.2890625,-0.18896484,0.009765625,-3.2958984,24.780273,-6.591797,0.0,0.0,0.0,-37.304077,74.93225,-40.023193
1766814432193,-0.71533203,-0.103027344,0.2763672,10.314941,27.648926,-7.6293945,0.0,0.0,0.0,-37.304077,74.93225,-40.023193
1766814432205,-0.71533203,-0.103027344,0.2763672,10.314941,27.648926,-7.6293945,0.0,0.0,0.0,-48.724365,76.69556,-52.196045
1766814432293,-0.9038086,-0.38427734,0.6010742,3.112793,3.6010742,-0.4272461,0.0,0.0,0.0,-48.724365,76.69556,-52.196045
1766814432304,-0.9038086,-0.38427734,0.6010742,3.112793,3.6010742,-0.4272461,0.0,0.0,0.0,-55.008545,77.86011,-58.502197
1766814432392,-1.0224609,0.02734375,-0.21435547,-23.31543,-57.678223,35.461426,0.0,0.0,0.0,-55.008545,77.86011,-58.502197
1766814432404,-1.0224609,0.02734375,-0.21435547,-23.31543,-57.678223,35.461426,0.0,0.0,0.0,-33.05786,73.932495,-36.309814
1766814432492,-0.93066406,-0.21191406,0.26513672,11.779785,11.59668,2.380371,0.0,0.0,0.0,-33.05786,73.932495,-36.309814
1766814432504,-0.93066406,-0.21191406,0.26513672,11.779785,11.59668,2.380371,0.0,0.0,0.0,-31.865845,75.217896,-36.07361
1766814432592,-1.0322266,-0.23339844,0.14648438,0.12207031,1.7089844,-4.0283203,0.0,0.0,0.0,-31.865845,75.217896,-36.07361
1766814432603,-1.0322266,-0.23339844,0.14648438,0.12207031,1.7089844,-4.0283203,0.0,0.0,0.0,-32.10205,75.51453,-36.782227
1766814432692,-1.0605469,-0.1303711,0.1796875,0.7324219,13.977051,-2.8686523,0.0,0.0,0.0,-32.10205,75.51453,-36.782227
1766814432703,-1.0605469,-0.1303711,0.1796875,0.7324219,13.977051,-2.8686523,0.0,0.0,0.0,-37.6886,76.09131,-42.401733
1766814432792,-1.1640625,-0.29492188,0.1875,-7.873535,54.748535,-3.2348633,0.0,0.0,0.0,-37.6886,76.09131,-42.401733
1766814432803,-1.1640625,-0.29492188,0.1875,-7.873535,54.748535,-3.2348633,0.0,0.0,0.0,-45.03296,78.26111,-48.949585
1766814432891,-0.71240234,0.109375,0.1538086,-0.12207031,0.48828125,-9.70459,0.0,0.0,0.0,-45.03296,78.26111,-48.949585
1766814432903,-0.71240234,0.109375,0.1538086,-0.12207031,0.48828125,-9.70459,0.0,0.0,0.0,-59.40857,79.23889,-60.93567
1766814432991,-0.97558594,-0.104003906,0.5732422,5.3710938,-60.424805,23.864746,0.0,0.0,0.0,-59.40857,79.23889,-60.93567
1766814433003,-0.97558594,-0.104003906,0.5732422,5.3710938,-60.424805,23.864746,0.0,0.0,0.0,-52.82776,78.118286,-56.068726
1766814433090,-0.9916992,-0.24267578,-0.10107422,13.122559,31.799316,-27.954102,0.0,0.0,0.0,-52.82776,78.118286,-56.068726
1766814433102,-0.9916992,-0.24267578,-0.10107422,13.122559,31.799316,-27.954102,0.0,0.0,0.0,-30.492554,74.9762,-32.486572
1766814433190,-0.9213867,0.018554688,0.16992188,-14.099121,-26.428223,15.50293,0.0,0.0,0.0,-30.492554,74.9762,-32.486572
1766814433201,-0.9213867,0.018554688,0.16992188,-14.099121,-26.428223,15.50293,0.0,0.0,0.0,-40.58899,75.49255,-43.170776
1766814433290,-1.1259766,-0.2006836,0.10058594,2.5634766,35.339355,-7.6904297,0.0,0.0,0.0,-40.58899,75.49255,-43.170776
1766814433301,-1.1259766,-0.2006836,0.10058594,2.5634766,35.339355,-7.6904297,0.0,0.0,0.0,-38.572998,76.48132,-40.616455
1766814433389,-1.2543945,-0.17529297,0.025878906,-5.6152344,34.973145,-7.9345703,0.0,0.0,0.0,-38.572998,76.48132,-40.616455
1766814433401,-1.2543945,-0.17529297,0.025878906,-5.6152344,34.973145,-7.9345703,0.0,0.0,0.0,-53.12439,78.12378,-55.046997
1766814433489,-0.7114258,-0.14990234,0.2241211,1.4648438,24.902344,-11.413574,0.0,0.0,0.0,-53.12439,78.12378,-55.046997
1766814433501,-0.7114258,-0.14990234,0.2241211,1.4648438,24.902344,-11.413574,0.0,0.0,0.0,-71.954956,78.76099,-73.515015
1766814433589,-0.9663086,-0.3696289,0.46777344,-10.070801,-25.939941,9.094238,0.0,0.0,0.0,-71.954956,78.76099,-73.515015
1766814433600,-0.9663086,-0.3696289,0.46777344,-10.070801,-25.939941,9.094238,0.0,0.0,0.0,-78.046875,78.881836,-78.349
1766814433689,-0.9736328,-0.13964844,-0.1899414,7.385254,4.8217773,0.6713867,0.0,0.0,0.0,-78.046875,78.881836,-78.349
1766814433700,-0.9736328,-0.13964844,-0.1899414,7.385254,4.8217773,0.6713867,0.0,0.0,0.0,-54.728394,77.87109,-53.97583
1766814433788,-0.8847656,-0.21240234,0.016601562,21.972656,-11.59668,1.3427734,0.0,0.0,0.0,-54.728394,77.87109,-53.97583
1766814433800,-0.8847656,-0.21240234,0.016601562,21.972656,-11.59668,1.3427734,0.0,0.0,0.0,-58.562622,78.55774,-58.71643
1766814433888,-1.0292969,-0.2109375,0.0034179688,29.663086,-3.9672852,5.493164,0.0,0.0,0.0,-58.562622,78.55774,-58.71643
1766814433899,-1.0292969,-0.2109375,0.0034179688,29.663086,-3.9672852,5.493164,0.0,0.0,0.0,-53.833008,78.36548,-56.535645
1766814433988,-1.0986328,-0.31640625,9.765625E-4,27.58789,22.277832,-6.8359375,0.0,0.0,0.0,-53.833008,78.36548,-56.535645
1766814433999,-1.0986328,-0.31640625,9.765625E-4,27.58789,22.277832,-6.8359375,0.0,0.0,0.0,-56.969604,78.79944,-62.391357
1766814434087,-1.1557617,-0.32617188,0.31445312,-14.892578,44.006348,-12.878418,0.0,0.0,0.0,-56.969604,78.79944,-62.391357
1766814434099,-1.1557617,-0.32617188,0.31445312,-14.892578,44.006348,-12.878418,0.0,0.0,0.0,-81.61743,79.28284,-87.09412
1766814434187,-0.78808594,0.22509766,0.068847656,17.63916,-9.82666,-11.108398,0.0,0.0,0.0,-81.61743,79.28284,-87.09412
1766814434199,-0.78808594,0.22509766,0.068847656,17.63916,-9.82666,-11.108398,0.0,0.0,0.0,-80.95825,78.063354,-84.435425
1766814434287,-1.0258789,-0.5048828,0.17236328,-18.615723,-43.33496,29.968262,0.0,0.0,0.0,-80.95825,78.063354,-84.435425
1766814434298,-1.0258789,-0.5048828,0.17236328,-18.615723,-43.33496,29.968262,0.0,0.0,0.0,-63.14392,78.57971,-67.37366
1766814434387,-0.8696289,-0.10107422,0.1928711,-10.559082,9.643555,-15.075684,0.0,0.0,0.0,-63.14392,78.57971,-67.37366
1766814434398,-0.8696289,-0.10107422,0.1928711,-10.559082,9.643555,-15.075684,0.0,0.0,0.0,-64.78638,77.48657,-68.43933
1766814434486,-1.0429688,-0.19628906,-0.03515625,-26.306152,-18.249512,14.6484375,0.0,0.0,0.0,-64.78638,77.48657,-68.43933
1766814434498,-1.0429688,-0.19628906,-0.03515625,-26.306152,-18.249512,14.6484375,0.0,0.0,0.0,-57.3761,77.541504,-57.749634
1766814434586,-1.0727539,-0.1694336,0.0087890625,-24.291992,3.8452148,-5.79834,0.0,0.0,0.0,-57.3761,77.541504,-57.749634
1766814434597,-1.0727539,-0.1694336,0.0087890625,-24.291992,3.8452148,-5.79834,0.0,0.0,0.0,-61.012573,77.58545,-59.144897
1766814434686,-1.1455078,-0.1171875,0.03173828,-11.169434,25.268555,-6.652832,0.0,0.0,0.0,-61.012573,77.58545,-59.144897
1766814434697,-1.1455078,-0.1171875,0.03173828,-11.169434,25.268555,-6.652832,0.0,0.0,0.0,-72.02637,77.83264,-68.532715
1766814434785,-0.71435547,-0.24951172,0.19677734,-12.512207,17.51709,-1.159668,0.0,0.0,0.0,-72.02637,77.83264,-68.532715
1766814434797,-0.71435547,-0.24951172,0.19677734,-12.512207,17.51709,-1.159668,0.0,0.0,0.0,-81.535034,78.167725,-77.17346
1766814434885,-0.9711914,-0.17382812,0.25683594,-11.352539,-49.560547,5.126953,0.0,0.0,0.0,-81.535034,78.167725,-77.17346
1766814434896,-0.9711914,-0.17382812,0.25683594,-11.352539,-49.560547,5.126953,0.0,0.0,0.0,-76.07483,77.88208,-69.971924
1766814434985,-0.9663086,-0.21386719,-0.15234375,-0.7324219,8.911133,6.8359375,0.0,0.0,0.0,-76.07483,77.88208,-69.971924
1766814434996,-0.9663086,-0.21386719,-0.15234375,-0.7324219,8.911133,6.8359375,0.0,0.0,0.0,-61.26526,78.21716,-53.657227
1766814435084,-0.88378906,-0.18408203,0.11230469,32.104492,-24.780273,-0.061035156,0.0,0.0,0.0,-61.26526,78.21716,-53.657227
1766814435096,-0.88378906,-0.18408203,0.11230469,32.104492,-24.780273,-0.061035156,0.0,0.0,0.0,-61.57837,77.91504,-56.20056
1766814435184,-1.1289062,-0.31591797,-0.08203125,28.076172,-2.6245117,-0.4272461,0.0,0.0,0.0,-61.57837,77.91504,-56.20056
1766814435196,-1.1289062,-0.31591797,-0.08203125,28.076172,-2.6245117,-0.4272461,0.0,0.0,0.0,-50.427246,77.18994,-47.625732
1766814435284,-1.0600586,-0.27441406,0.087890625,-7.2021484,18.432617,-0.30517578,0.0,0.0,0.0,-50.427246,77.18994,-47.625732
1766814435295,-1.0600586,-0.27441406,0.087890625,-7.2021484,18.432617,-0.30517578,0.0,0.0,0.0,-58.54065,77.750244,-56.749878
1766814435383,-0.9394531,-0.15039062,0.16992188,-37.17041,6.164551,-6.7749023,0.0,0.0,0.0,-58.54065,77.750244,-56.749878
1766814435398,-0.9394531,-0.15039062,0.16992188,-37.17041,6.164551,-6.7749023,0.0,0.0,0.0,-73.17993,78.30505,-69.48303
1766814435483,-0.85791016,0.16455078,0.24121094,40.405273,0.7324219,-13.183594,0.0,0.0,0.0,-73.17993,78.30505,-69.48303
1766814435495,-0.85791016,0.16455078,0.24121094,40.405273,0.7324219,-13.183594,0.0,0.0,0.0,-74.46533,77.15698,-71.47705
1766814435583,-1.0317383,-0.38916016,-0.13867188,2.4414062,-49.49951,7.9956055,0.0,0.0,0.0,-74.46533,77.15698,-71.47705
1766814435594,-1.0317383,-0.38916016,-0.13867188,2.4414062,-49.49951,7.9956055,0.0,0.0,0.0,-50.526123,76.61316,-48.218994
1766814435682,-0.85009766,9.765625E-4,0.2626953,-1.8310547,6.652832,-7.385254,0.0,0.0,0.0,-50.526123,76.61316,-48.218994
1766814435694,-0.85009766,9.765625E-4,0.2626953,-1.8310547,6.652832,-7.385254,0.0,0.0,0.0,-56.585083,76.07483,-55.772095
1766814435782,-1.0151367,-0.23828125,-0.0068359375,-6.4086914,-8.239746,10.7421875,0.0,0.0,0.0,-56.585083,76.07483,-55.772095
1766814435794,-1.0151367,-0.23828125,-0.0068359375,-6.4086914,-8.239746,10.7421875,0.0,0.0,0.0,-48.22998,76.23413,-46.307373
1766814435882,-1.137207,-0.19140625,0.017578125,-5.6762695,-0.18310547,-2.8076172,0.0,0.0,0.0,-48.22998,76.23413,-46.307373
1766814435893,-1.137207,-0.19140625,0.017578125,-5.6762695,-0.18310547,-2.8076172,0.0,0.0,0.0,-50.202026,76.48682,-48.081665
1766814435982,-1.2270508,-0.14550781,0.013183594,-1.4648438,33.203125,-9.094238,0.0,0.0,0.0,-50.202026,76.48682,-48.081665
1766814435993,-1.2270508,-0.14550781,0.013183594,-1.4648438,33.203125,-9.094238,0.0,0.0,0.0,-59.353638,77.3053,-56.694946
1766814436081,-0.6582031,-0.1899414,0.25585938,5.2490234,22.094727,-4.333496,0.0,0.0,0.0,-59.353638,77.3053,-56.694946
1766814436093,-0.6582031,-0.1899414,0.25585938,5.2490234,22.094727,-4.333496,0.0,0.0,0.0,-72.91626,78.0249,-70.7959
1766814436181,-0.97216797,-0.27246094,0.5136719,5.2490234,-34.301758,5.79834,0.0,0.0,0.0,-72.91626,78.0249,-70.7959
1766814436192,-0.97216797,-0.27246094,0.5136719,5.2490234,-34.301758,5.79834,0.0,0.0,0.0,-72.388916,78.12378,-70.164185
1766814436281,-1.0175781,-0.16210938,-0.17919922,-9.277344,9.521484,11.230469,0.0,0.0,0.0,-72.388916,78.12378,-70.164185
1766814436292,-1.0175781,-0.16210938,-0.17919922,-9.277344,9.521484,11.230469,0.0,0.0,0.0,-49.663696,77.2229,-46.30188
1766814436380,-0.8574219,-0.17626953,0.12695312,19.958496,-12.145996,-1.0986328,0.0,0.0,0.0,-49.663696,77.2229,-46.30188
1766814436392,-0.8574219,-0.17626953,0.12695312,19.958496,-12.145996,-1.0986328,0.0,0.0,0.0,-52.525635,78.06885,-49.817505
1766814436480,-1.034668,-0.24023438,0.0043945312,8.361816,-8.666992,4.1503906,0.0,0.0,0.0,-52.525635,78.06885,-49.817505
1766814436492,-1.034668,-0.24023438,0.0043945312,8.361816,-8.666992,4.1503906,0.0,0.0,0.0,-46.625977,77.43713,-45.499878
1766814436580,-1.0737305,-0.22705078,0.05126953,4.4555664,14.343262,-4.699707,0.0,0.0,0.0,-46.625977,77.43713,-45.499878
1766814436592,-1.0737305,-0.22705078,0.05126953,4.4555664,14.343262,-4.699707,0.0,0.0,0.0,-49.72412,77.684326,-49.367065
1766814436680,-1.2299805,-0.32666016,0.099609375,-17.456055,47.912598,-5.79834,0.0,0.0,0.0,-49.72412,77.684326,-49.367065
1766814436691,-1.2299805,-0.32666016,0.099609375,-17.456055,47.912598,-5.79834,0.0,0.0,0.0,-62.90222,79.0741,-61.990356
1766814436779,-0.7182617,0.087890625,0.091796875,-7.507324,-11.352539,-3.479004,0.0,0.0,0.0,-62.90222,79.0741,-61.990356
1766814436791,-0.7182617,0.087890625,0.091796875,-7.507324,-11.352539,-3.479004,0.0,0.0,0.0,-75.547485,79.019165,-71.73523
1766814436879,-0.93066406,-0.13574219,0.41503906,18.432617,-33.569336,14.831543,0.0,0.0,0.0,-75.547485,79.019165,-71.73523
1766814436890,-0.93066406,-0.13574219,0.41503906,18.432617,-33.569336,14.831543,0.0,0.0,0.0,-65.945435,78.82141,-64.22058
1766814436979,-0.9760742,-0.29101562,-0.0625,7.2631836,-1.3427734,-16.174316,0.0,0.0,0.0,-65.945435,78.82141,-64.22058
1766814436990,-0.9760742,-0.29101562,-0.0625,7.2631836,-1.3427734,-16.174316,0.0,0.0,0.0,-43.148804,77.18445,-41.05591
1766814437078,-0.8623047,0.06591797,0.07519531,-1.3427734,-23.80371,10.7421875,0.0,0.0,0.0,-43.148804,77.18445,-41.05591
1766814437090,-0.8623047,0.06591797,0.07519531,-1.3427734,-23.80371,10.7421875,0.0,0.0,0.0,-46.80725,76.28906,-45.43396
1766814437178,-1.0380859,-0.2084961,0.048828125,20.874023,9.094238,2.319336,0.0,0.0,0.0,-46.80725,76.28906,-45.43396
1766814437189,-1.0380859,-0.2084961,0.048828125,20.874023,9.094238,2.319336,0.0,0.0,0.0,-39.506836,76.69006,-39.11133
1766814437278,-1.2167969,-0.20800781,0.045898438,7.446289,9.338379,-2.5634766,0.0,0.0,0.0,-39.506836,76.69006,-39.11133
1766814437289,-1.2167969,-0.20800781,0.045898438,7.446289,9.338379,-2.5634766,0.0,0.0,0.0,-42.539062,77.629395,-44.01123
1766814437377,-1.0639648,-0.13232422,0.23095703,24.108887,21.1792,-8.361816,0.0,0.0,0.0,-42.539062,77.629395,-44.01123
1766814437389,-1.0639648,-0.13232422,0.23095703,24.108887,21.1792,-8.361816,0.0,0.0,0.0,-51.135864,78.83789,-53.794556
1766814437477,-0.66503906,-0.23486328,0.38134766,-21.78955,-6.958008,11.047363,0.0,0.0,0.0,-51.135864,78.83789,-53.794556
1766814437489,-0.66503906,-0.23486328,0.38134766,-21.78955,-6.958008,11.047363,0.0,0.0,0.0,-52.651978,78.84338,-56.222534
1766814437577,-0.97753906,-0.00390625,0.26171875,15.197754,-58.22754,4.333496,0.0,0.0,0.0,-52.651978,78.84338,-56.222534
1766814437588,-0.97753906,-0.00390625,0.26171875,15.197754,-58.22754,4.333496,0.0,0.0,0.0,-42.583008,77.34375,-45.236206
1766814437677,-0.98779297,-0.22509766,0.0859375,-8.666992,-1.5869141,9.399414,0.0,0.0,0.0,-42.583008,77.34375,-45.236206
1766814437688,-0.98779297,-0.22509766,0.0859375,-8.666992,-1.5869141,9.399414,0.0,0.0,0.0,-27.938232,75.41016,-30.003662
1766814437776,-0.9716797,-0.15673828,0.20507812,7.9956055,1.8310547,-10.253906,0.0,0.0,0.0,-27.938232,75.41016,-30.003662
1766814437788,-0.9716797,-0.15673828,0.20507812,7.9956055,1.8310547,-10.253906,0.0,0.0,0.0,-28.762207,75.36072,-30.910034
1766814437876,-1.1005859,-0.15966797,0.044921875,-0.48828125,10.681152,-6.1035156,0.0,0.0,0.0,-28.762207,75.36072,-30.910034
1766814437887,-1.1005859,-0.15966797,0.044921875,-0.48828125,10.681152,-6.1035156,0.0,0.0,0.0,-31.712036,75.16846,-34.44763
1766814437976,-1.059082,-0.22216797,0.07470703,-11.901855,24.169922,-2.1972656,0.0,0.0,0.0,-31.712036,75.16846,-34.44763
1766814437987,-1.059082,-0.22216797,0.07470703,-11.901855,24.169922,-2.1972656,0.0,0.0,0.0,-39.776,76.865845,-42.357788
1766814438075,-0.9277344,-0.1821289,0.36865234,-49.194336,11.413574,-7.5683594,0.0,0.0,0.0,-39.776,76.865845,-42.357788
1766814438087,-0.9277344,-0.1821289,0.36865234,-49.194336,11.413574,-7.5683594,0.0,0.0,0.0,-56.480713,78.64014,-56.68396
1766814438175,-0.8671875,0.1352539,0.20361328,13.916016,1.953125,-14.6484375,0.0,0.0,0.0,-56.480713,78.64014,-56.68396
1766814438186,-0.8671875,0.1352539,0.20361328,13.916016,1.953125,-14.6484375,0.0,0.0,0.0,-55.805054,77.66235,-54.66797
1766814438275,-1.0239258,-0.3125,0.08496094,-3.540039,-80.444336,29.174805,0.0,0.0,0.0,-55.805054,77.66235,-54.66797
1766814438286,-1.0239258,-0.3125,0.08496094,-3.540039,-80.444336,29.174805,0.0,0.0,0.0,-37.65564,75.39368,-38.776245
1766814438374,-0.89160156,-0.08105469,0.2524414,10.009766,20.446777,-21.54541,0.0,0.0,0.0,-37.65564,75.39368,-38.776245
1766814438386,-0.89160156,-0.08105469,0.2524414,10.009766,20.446777,-21.54541,0.0,0.0,0.0,-39.918823,74.70154,-42.110596
1766814438474,-0.98291016,-0.15673828,0.13964844,-9.094238,-20.812988,15.74707,0.0,0.0,0.0,-39.918823,74.70154,-42.110596
1766814438486,-0.98291016,-0.15673828,0.13964844,-9.094238,-20.812988,15.74707,0.0,0.0,0.0,-35.255127,73.932495,-36.9635
1766814438574,-1.0742188,-0.18896484,0.104003906,-7.3242188,4.638672,-0.36621094,0.0,0.0,0.0,-35.255127,73.932495,-36.9635
1766814438586,-1.0742188,-0.18896484,0.104003906,-7.3242188,4.638672,-0.36621094,0.0,0.0,0.0,-34.161987,74.069824,-35.408936
1766814438674,-1.246582,-0.1171875,0.064453125,-3.90625,23.742676,-5.2490234,0.0,0.0,0.0,-34.161987,74.069824,-35.408936
1766814438685,-1.246582,-0.1171875,0.064453125,-3.90625,23.742676,-5.2490234,0.0,0.0,0.0,-39.418945,75.371704,-40.06714
1766814438773,-0.66796875,-0.16015625,0.28466797,-3.540039,16.174316,-3.3569336,0.0,0.0,0.0,-39.418945,75.371704,-40.06714
1766814438785,-0.66796875,-0.16015625,0.28466797,-3.540039,16.174316,-3.3569336,0.0,0.0,0.0,-46.988525,76.9043,-47.98828
1766814438873,-0.91748047,-0.2241211,0.54541016,9.460449,-8.666992,-3.2958984,0.0,0.0,0.0,-46.988525,76.9043,-47.98828
1766814438885,-0.91748047,-0.2241211,0.54541016,9.460449,-8.666992,-3.2958984,0.0,0.0,0.0,-49.334106,77.371216,-50.372314
1766814438973,-1.0595703,-0.111816406,-0.1616211,-8.850098,-26.000977,30.639648,0.0,0.0,0.0,-49.334106,77.371216,-50.372314
1766814438984,-1.0595703,-0.111816406,-0.1616211,-8.850098,-26.000977,30.639648,0.0,0.0,0.0,-27.322998,74.03137,-28.064575
1766814439072,-0.88427734,-0.26513672,0.3173828,9.643555,11.901855,-6.1035156,0.0,0.0,0.0,-27.322998,74.03137,-28.064575
1766814439084,-0.88427734,-0.26513672,0.3173828,9.643555,11.901855,-6.1035156,0.0,0.0,0.0,-30.014648,76.069336,-32.695312
1766814439172,-1.0473633,-0.16748047,0.09033203,-1.0375977,-11.230469,-1.8920898,0.0,0.0,0.0,-30.014648,76.069336,-32.695312
1766814439184,-1.0473633,-0.16748047,0.09033203,-1.0375977,-11.230469,-1.8920898,0.0,0.0,0.0,-30.140991,75.08057,-33.497314
1766814439272,-1.1655273,-0.2397461,0.06542969,3.3569336,22.094727,-2.6855469,0.0,0.0,0.0,-30.140991,75.08057,-33.497314
1766814439283,-1.1655273,-0.2397461,0.06542969,3.3569336,22.094727,-2.6855469,0.0,0.0,0.0,-34.00818,75.756226,-38.24341
1766814439371,-1.0439453,-0.27197266,0.4091797,-32.348633,30.212402,-7.873535,0.0,0.0,0.0,-34.00818,75.756226,-38.24341
1766814439383,-1.0439453,-0.27197266,0.4091797,-32.348633,30.212402,-7.873535,0.0,0.0,0.0,-50.74585,78.45886,-53.772583
1766814439471,-0.7651367,0.19042969,0.17089844,13.977051,8.117676,-7.019043,0.0,0.0,0.0,-50.74585,78.45886,-53.772583
1766814439483,-0.7651367,0.19042969,0.17089844,13.977051,8.117676,-7.019043,0.0,0.0,0.0,-54.13513,77.93152,-55.717163
1766814439571,-0.9873047,-0.33642578,0.5097656,-12.878418,-81.78711,39.489746,0.0,0.0,0.0,-54.13513,77.93152,-55.717163
1766814439582,-0.9873047,-0.33642578,0.5097656,-12.878418,-81.78711,39.489746,0.0,0.0,0.0,-40.248413,76.78894,-44.06067
1766814439671,-0.98291016,-0.11621094,0.13574219,23.376465,34.42383,-26.367188,0.0,0.0,0.0,-40.248413,76.78894,-44.06067
1766814439683,-0.98291016,-0.11621094,0.13574219,23.376465,34.42383,-26.367188,0.0,0.0,0.0,-31.437378,74.79492,-35.337524
1766814439771,-0.96533203,-0.0546875,0.13623047,-0.30517578,-23.55957,13.73291,0.0,0.0,0.0,-31.437378,74.79492,-35.337524
1766814439782,-0.96533203,-0.0546875,0.13623047,-0.30517578,-23.55957,13.73291,0.0,0.0,0.0,-31.184692,74.399414,-35.513306
1766814439870,-1.0615234,-0.13232422,0.15478516,5.554199,18.798828,-7.5683594,0.0,0.0,0.0,-31.184692,74.399414,-35.513306
1766814439882,-1.0615234,-0.13232422,0.15478516,5.554199,18.798828,-7.5683594,0.0,0.0,0.0,-30.410156,74.85535,-35.5188
1766814439970,-1.2358398,-0.1850586,0.0107421875,-5.7373047,26.306152,-7.6293945,0.0,0.0,0.0,-30.410156,74.85535,-35.5188
1766814439982,-1.2358398,-0.1850586,0.0107421875,-5.7373047,26.306152,-7.6293945,0.0,0.0,0.0,-36.870117,76.33301,-41.764526
1766814440069,-0.81884766,-0.13671875,0.27197266,1.2207031,29.663086,-5.432129,0.0,0.0,0.0,-36.870117,76.33301,-41.764526
1766814440081,-0.81884766,-0.13671875,0.27197266,1.2207031,29.663086,-5.432129,0.0,0.0,0.0,-51.256714,78.19519,-56.497192
1766814440170,-0.89941406,-0.2397461,0.49658203,-2.0141602,-3.9672852,15.014648,0.0,0.0,0.0,-51.256714,78.19519,-56.497192
1766814440181,-0.89941406,-0.2397461,0.49658203,-2.0141602,-3.9672852,15.014648,0.0,0.0,0.0,-55.54138,79.0741,-60.529175
1766814440269,-1.03125,-0.09765625,-0.11621094,-9.82666,-30.517578,25.146484,0.0,0.0,0.0,-55.54138,79.0741,-60.529175
1766814440280,-1.03125,-0.09765625,-0.11621094,-9.82666,-30.517578,25.146484,0.0,0.0,0.0,-32.89856,76.81091,-37.545776
1766814440369,-0.91503906,-0.2163086,0.16503906,-4.333496,4.8828125,-12.878418,0.0,0.0,0.0,-32.89856,76.81091,-37.545776
1766814440380,-0.91503906,-0.2163086,0.16503906,-4.333496,4.8828125,-12.878418,0.0,0.0,0.0,-36.584473,77.371216,-40.08911
1766814440468,-0.99365234,-0.15527344,-0.04345703,6.225586,-8.7890625,-2.746582,0.0,0.0,0.0,-36.584473,77.371216,-40.08911
1766814440480,-0.99365234,-0.15527344,-0.04345703,6.225586,-8.7890625,-2.746582,0.0,0.0,0.0,-37.523804,76.3385,-41.517334
1766814440568,-1.0136719,-0.2709961,-0.03955078,8.666992,30.639648,-8.972168,0.0,0.0,0.0,-37.523804,76.3385,-41.517334
1766814440580,-1.0136719,-0.2709961,-0.03955078,8.666992,30.639648,-8.972168,0.0,0.0,0.0,-43.016968,77.3053,-47.93335
1766814440668,-1.1020508,-0.23486328,0.27148438,-6.3476562,39.367676,-8.666992,0.0,0.0,0.0,-43.016968,77.3053,-47.93335
1766814440679,-1.1020508,-0.23486328,0.27148438,-6.3476562,39.367676,-8.666992,0.0,0.0,0.0,-64.660034,79.260864,-69.66431
1766814440767,-0.7709961,0.059570312,0.021484375,7.5683594,-22.827148,-4.0283203,0.0,0.0,0.0,-64.660034,79.260864,-69.66431
1766814440779,-0.7709961,0.059570312,0.021484375,7.5683594,-22.827148,-4.0283203,0.0,0.0,0.0,-61.474,79.08508,-63.858032
1766814440867,-0.9199219,-0.22509766,0.49414062,-0.12207031,-39.42871,17.028809,0.0,0.0,0.0,-61.474,79.08508,-63.858032
1766814440879,-0.9199219,-0.22509766,0.49414062,-0.12207031,-39.42871,17.028809,0.0,0.0,0.0,-54.854736,78.45886,-60.38086
1766814440967,-0.96240234,-0.16796875,0.067871094,12.512207,17.27295,-17.76123,0.0,0.0,0.0,-54.854736,78.45886,-60.38086
1766814440978,-0.96240234,-0.16796875,0.067871094,12.512207,17.27295,-17.76123,0.0,0.0,0.0,-42.55005,76.6626,-48.07068
1766814441066,-0.9428711,-0.09423828,0.091796875,-10.009766,-14.953613,15.014648,0.0,0.0,0.0,-42.55005,76.6626,-48.07068
1766814441078,-0.9428711,-0.09423828,0.091796875,-10.009766,-14.953613,15.014648,0.0,0.0,0.0,-44.346313,76.69556,-49.361572
1766814441166,-1.168457,-0.1875,-0.001953125,9.033203,10.620117,-7.9345703,0.0,0.0,0.0,-44.346313,76.69556,-49.361572
1766814441178,-1.168457,-0.1875,-0.001953125,9.033203,10.620117,-7.9345703,0.0,0.0,0.0,-40.841675,76.937256,-45.741577
1766814441266,-1.2280273,-0.111328125,0.09423828,9.887695,32.89795,-14.343262,0.0,0.0,0.0,-40.841675,76.937256,-45.741577
1766814441277,-1.2280273,-0.111328125,0.09423828,9.887695,32.89795,-14.343262,0.0,0.0,0.0,-52.097168,78.21167,-57.420044
1766814441366,-0.67578125,-0.21679688,0.27441406,2.0751953,3.2348633,4.0283203,0.0,0.0,0.0,-52.097168,78.21167,-57.420044
1766814441377,-0.67578125,-0.21679688,0.27441406,2.0751953,3.2348633,4.0283203,0.0,0.0,0.0,-58.513184,78.689575,-65.165405
1766814441465,-0.98339844,-0.18066406,0.4790039,4.4555664,-27.70996,-2.2583008,0.0,0.0,0.0,-58.513184,78.689575,-65.165405
1766814441477,-0.98339844,-0.18066406,0.4790039,4.4555664,-27.70996,-2.2583008,0.0,0.0,0.0,-58.78784,78.777466,-64.55017
1766814441565,-0.97509766,-0.1743164,-0.100097656,-8.422852,-0.79345703,14.526367,0.0,0.0,0.0,-58.78784,78.777466,-64.55017
1766814441577,-0.97509766,-0.1743164,-0.100097656,-8.422852,-0.79345703,14.526367,0.0,0.0,0.0,-39.47937,77.02515,-44.016724
1766814441665,-0.9086914,-0.18115234,0.17382812,18.737793,-7.019043,-3.7841797,0.0,0.0,0.0,-39.47937,77.02515,-44.016724
1766814441676,-0.9086914,-0.18115234,0.17382812,18.737793,-7.019043,-3.7841797,0.0,0.0,0.0,-40.50659,77.72278,-45.12085
1766814441764,-1.1083984,-0.21484375,-0.0234375,7.9956055,2.9296875,-7.8125,0.0,0.0,0.0,-40.50659,77.72278,-45.12085
1766814441776,-1.1083984,-0.21484375,-0.0234375,7.9956055,2.9296875,-7.8125,0.0,0.0,0.0,-39.35852,76.94275,-45.13733
1766814441865,-1.081543,-0.24072266,0.095214844,1.6479492,16.540527,-3.7841797,0.0,0.0,0.0,-39.35852,76.94275,-45.13733
1766814441876,-1.081543,-0.24072266,0.095214844,1.6479492,16.540527,-3.7841797,0.0,0.0,0.0,-49.136353,77.629395,-56.107178
1766814441964,-0.9428711,-0.20800781,0.23388672,-40.58838,15.014648,-11.779785,0.0,0.0,0.0,-49.136353,77.629395,-56.107178
1766814441975,-0.9428711,-0.20800781,0.23388672,-40.58838,15.014648,-11.779785,0.0,0.0,0.0,-64.58862,78.45337,-69.91699
1766814442064,-0.81689453,0.18945312,0.2421875,18.554688,3.0517578,-18.920898,0.0,0.0,0.0,-64.58862,78.45337,-69.91699
1766814442075,-0.81689453,0.18945312,0.2421875,18.554688,3.0517578,-18.920898,0.0,0.0,0.0,-70.72449,77.2229,-74.124756
1766814442163,-1.0170898,-0.2861328,0.33789062,-22.644043,-89.538574,51.940918,0.0,0.0,0.0,-70.72449,77.2229,-74.124756
1766814442175,-1.0170898,-0.2861328,0.33789062,-22.644043,-89.538574,51.940918,0.0,0.0,0.0,-49.905396,76.57471,-53.71765
1766814442263,-0.91552734,-0.19580078,0.11279297,-0.7324219,30.761719,-13.793945,0.0,0.0,0.0,-49.905396,76.57471,-53.71765
1766814442274,-0.91552734,-0.19580078,0.11279297,-0.7324219,30.761719,-13.793945,0.0,0.0,0.0,-42.819214,76.04736,-45.324097
1766814442363,-0.9423828,-0.053222656,0.06933594,-14.831543,-30.334473,22.338867,0.0,0.0,0.0,-42.819214,76.04736,-45.324097
1766814442374,-0.9423828,-0.053222656,0.06933594,-14.831543,-30.334473,22.338867,0.0,0.0,0.0,-39.314575,75.7782,-40.413208
1766814442462,-1.1425781,-0.21142578,0.13134766,-4.760742,8.056641,3.90625,0.0,0.0,0.0,-39.314575,75.7782,-40.413208
1766814442474,-1.1425781,-0.21142578,0.13134766,-4.760742,8.056641,3.90625,0.0,0.0,0.0,-35.84839,76.54724,-36.348267
1766814442562,-1.237793,-0.15722656,-0.0068359375,-4.760742,18.676758,-4.211426,0.0,0.0,0.0,-35.84839,76.54724,-36.348267
1766814442573,-1.237793,-0.15722656,-0.0068359375,-4.760742,18.676758,-4.211426,0.0,0.0,0.0,-41.660156,77.43164,-41.44043
1766814442662,-0.8154297,-0.095214844,0.18652344,13.122559,30.517578,-7.2021484,0.0,0.0,0.0,-41.660156,77.43164,-41.44043
1766814442673,-0.8154297,-0.095214844,0.18652344,13.122559,30.517578,-7.2021484,0.0,0.0,0.0,-54.68994,78.94226,-55.151367
1766814442762,-0.8769531,-0.33544922,0.5341797,-8.117676,5.3100586,2.8686523,0.0,0.0,0.0,-54.68994,78.94226,-55.151367
1766814442773,-0.8769531,-0.33544922,0.5341797,-8.117676,5.3100586,2.8686523,0.0,0.0,0.0,-61.92444,79.65637,-62.523193
1766814442861,-1.0351562,0.0107421875,-0.15039062,-23.254395,-50.598145,33.02002,0.0,0.0,0.0,-61.92444,79.65637,-62.523193
1766814442873,-1.0351562,0.0107421875,-0.15039062,-23.254395,-50.598145,33.02002,0.0,0.0,0.0,-35.62317,77.003174,-35.29358
1766814442962,-0.9243164,-0.171875,0.1616211,4.0283203,-2.2583008,7.019043,0.0,0.0,0.0,-35.62317,77.003174,-35.29358
1766814442973,-0.9243164,-0.171875,0.1616211,4.0283203,-2.2583008,7.019043,0.0,0.0,0.0,-33.00293,77.98096,-32.43164
1766814443061,-1.0024414,-0.1899414,0.14160156,7.3242188,-4.4555664,-2.6855469,0.0,0.0,0.0,-33.00293,77.98096,-32.43164
1766814443072,-1.0024414,-0.1899414,0.14160156,7.3242188,-4.4555664,-2.6855469,0.0,0.0,0.0,-30.871582,77.43713,-31.453857
1766814443160,-1.0756836,-0.1796875,0.04638672,5.9814453,14.099121,-6.713867,0.0,0.0,0.0,-30.871582,77.43713,-31.453857
1766814443172,-1.0756836,-0.1796875,0.04638672,5.9814453,14.099121,-6.713867,0.0,0.0,0.0,-34.348755,77.508545,-35.5188
1766814443260,-1.1816406,-0.27246094,0.09423828,-8.7890625,41.259766,-8.7890625,0.0,0.0,0.0,-34.348755,77.508545,-35.5188
1766814443271,-1.1816406,-0.27246094,0.09423828,-8.7890625,41.259766,-8.7890625,0.0,0.0,0.0,-45.109863,79.18945,-45.90088
1766814443360,-0.7260742,0.013183594,0.17236328,-13.549805,-13.427734,-6.591797,0.0,0.0,0.0,-45.109863,79.18945,-45.90088
1766814443371,-0.7260742,0.013183594,0.17236328,-13.549805,-13.427734,-6.591797,0.0,0.0,0.0,-55.72815,79.34326,-54.041748
1766814443459,-0.93652344,0.014160156,0.43066406,28.320312,-8.422852,-6.713867,0.0,0.0,0.0,-55.72815,79.34326,-54.041748
1766814443471,-0.93652344,0.014160156,0.43066406,28.320312,-8.422852,-6.713867,0.0,0.0,0.0,-51.17981,78.32703,-50.90515
1766814443559,-1.0253906,-0.30859375,-0.13623047,-1.7089844,-34.606934,3.479004,0.0,0.0,0.0,-51.17981,78.32703,-50.90515
1766814443571,-1.0253906,-0.30859375,-0.13623047,-1.7089844,-34.606934,3.479004,0.0,0.0,0.0,-29.992676,75.22888,-29.685059
1766814443659,-0.8540039,0.055664062,0.27539062,-3.90625,-9.277344,1.2207031,0.0,0.0,0.0,-29.992676,75.22888,-29.685059
1766814443670,-0.8540039,0.055664062,0.27539062,-3.90625,-9.277344,1.2207031,0.0,0.0,0.0,-34.81018,75.162964,-35.18921
1766814443758,-1.074707,-0.18847656,0.07324219,6.4697266,6.0424805,5.7373047,0.0,0.0,0.0,-34.81018,75.162964,-35.18921
1766814443770,-1.074707,-0.18847656,0.07324219,6.4697266,6.0424805,5.7373047,0.0,0.0,0.0,-27.998657,74.98718,-27.965698
1766814443859,-1.1835938,-0.12011719,0.08300781,-3.4179688,7.2631836,-0.12207031,0.0,0.0,0.0,-27.998657,74.98718,-27.965698
1766814443870,-1.1835938,-0.12011719,0.08300781,-3.4179688,7.2631836,-0.12207031,0.0,0.0,0.0,-30.679321,76.03088,-31.289062
1766814443958,-1.1245117,-0.079589844,0.1171875,10.070801,37.841797,-14.465332,0.0,0.0,0.0,-30.679321,76.03088,-31.289062
1766814443970,-1.1245117,-0.079589844,0.1171875,10.070801,37.841797,-14.465332,0.0,0.0,0.0,-40.023193,77.948,-40.858154
1766814444058,-0.6411133,-0.17529297,0.39160156,-4.4555664,22.827148,-2.380371,0.0,0.0,0.0,-40.023193,77.948,-40.858154
1766814444070,-0.6411133,-0.17529297,0.39160156,-4.4555664,22.827148,-2.380371,0.0,0.0,0.0,-53.75061,79.11804,-55.821533
1766814444158,-0.9560547,-0.04345703,0.453125,19.348145,-78.73535,11.352539,0.0,0.0,0.0,-53.75061,79.11804,-55.821533
1766814444169,-0.9560547,-0.04345703,0.453125,19.348145,-78.73535,11.352539,0.0,0.0,0.0,-44.351807,77.579956,-47.46643
1766814444257,-1.0004883,-0.15478516,-0.0234375,18.432617,30.395508,-5.9814453,0.0,0.0,0.0,-44.351807,77.579956,-47.46643
1766814444270,-1.0004883,-0.15478516,-0.0234375,18.432617,30.395508,-5.9814453,0.0,0.0,0.0,-27.108765,75.70679,-29.295044
1766814444357,-0.9145508,-0.21582031,0.18701172,13.977051,-15.441895,-1.8310547,0.0,0.0,0.0,-27.108765,75.70679,-29.295044
1766814444369,-0.9145508,-0.21582031,0.18701172,13.977051,-15.441895,-1.8310547,0.0,0.0,0.0,-29.119263,76.448364,-33.030396
1766814444457,-1.1098633,-0.18115234,0.038085938,6.3476562,3.6621094,-7.9956055,0.0,0.0,0.0,-29.119263,76.448364,-33.030396
1766814444468,-1.1098633,-0.18115234,0.038085938,6.3476562,3.6621094,-7.9956055,0.0,0.0,0.0,-29.685059,75.62988,-34.53003
1766814444556,-1.0722656,-0.21923828,0.047851562,4.8828125,18.310547,-4.272461,0.0,0.0,0.0,-29.685059,75.62988,-34.53003
1766814444568,-1.0722656,-0.21923828,0.047851562,4.8828125,18.310547,-4.272461,0.0,0.0,0.0,-35.74951,76.62964,-41.51184
1766814444656,-0.92285156,-0.2265625,0.34033203,-28.564453,23.010254,-15.808105,0.0,0.0,0.0,-35.74951,76.62964,-41.51184
1766814444667,-0.92285156,-0.2265625,0.34033203,-28.564453,23.010254,-15.808105,0.0,0.0,0.0,-50.723877,78.601685,-55.57434
1766814444756,-0.84033203,0.18310547,0.2841797,26.97754,-2.9907227,-15.380859,0.0,0.0,0.0,-50.723877,78.601685,-55.57434
1766814444767,-0.84033203,0.18310547,0.2841797,26.97754,-2.9907227,-15.380859,0.0,0.0,0.0,-57.128906,77.59094,-60.86975
1766814444855,-1.0102539,-0.39746094,-0.03466797,-19.592285,-74.21875,28.625488,0.0,0.0,0.0,-57.128906,77.59094,-60.86975
1766814444867,-1.0102539,-0.39746094,-0.03466797,-19.592285,-74.21875,28.625488,0.0,0.0,0.0,-33.9093,75.2124,-38.276367
1766814444955,-0.8798828,-0.049316406,0.29003906,-8.056641,13.000488,-11.962891,0.0,0.0,0.0,-33.9093,75.2124,-38.276367
1766814444966,-0.8798828,-0.049316406,0.29003906,-8.056641,13.000488,-11.962891,0.0,0.0,0.0,-35.15625,74.454346,-39.396973
1766814445055,-1.0332031,-0.14208984,0.10498047,-10.681152,-17.51709,18.676758,0.0,0.0,0.0,-35.15625,74.454346,-39.396973
1766814445066,-1.0332031,-0.14208984,0.10498047,-10.681152,-17.51709,18.676758,0.0,0.0,0.0,-30.283813,73.64136,-33.046875
1766814445155,-1.144043,-0.19091797,0.140625,-9.277344,10.131836,-6.286621,0.0,0.0,0.0,-30.283813,73.64136,-33.046875
1766814445166,-1.144043,-0.19091797,0.140625,-9.277344,10.131836,-6.286621,0.0,0.0,0.0,-30.146484,74.27307,-32.332764
1766814445254,-1.190918,-0.17871094,-0.043945312,-9.94873,34.729004,-9.82666,0.0,0.0,0.0,-30.146484,74.27307,-32.332764
1766814445266,-1.190918,-0.17871094,-0.043945312,-9.94873,34.729004,-9.82666,0.0,0.0,0.0,-37.023926,75.322266,-38.28186
1766814445354,-0.7973633,-0.08496094,0.28320312,14.587402,34.362793,-10.314941,0.0,0.0,0.0,-37.023926,75.322266,-38.28186
1766814445365,-0.7973633,-0.08496094,0.28320312,14.587402,34.362793,-10.314941,0.0,0.0,0.0,-54.11316,77.60193,-55.90393
1766814445453,-0.8535156,-0.32861328,0.5878906,-8.850098,-4.638672,8.666992,0.0,0.0,0.0,-54.11316,77.60193,-55.90393
1766814445465,-0.8535156,-0.32861328,0.5878906,-8.850098,-4.638672,8.666992,0.0,0.0,0.0,-61.693726,78.53027,-64.055786
1766814445553,-1.0371094,-0.040527344,-0.24609375,-16.723633,-36.621094,26.306152,0.0,0.0,0.0,-61.693726,78.53027,-64.055786
1766814445565,-1.0371094,-0.040527344,-0.24609375,-16.723633,-36.621094,26.306152,0.0,0.0,0.0,-36.166992,75.860596,-37.30957
1766814445653,-0.91796875,-0.16015625,0.23535156,12.756348,-0.18310547,4.638672,0.0,0.0,0.0,-36.166992,75.860596,-37.30957
1766814445664,-0.91796875,-0.16015625,0.23535156,12.756348,-0.18310547,4.638672,0.0,0.0,0.0,-35.69458,77.01416,-37.83142
1766814445753,-1.0283203,-0.22851562,0.12792969,15.869141,-3.7841797,-3.2958984,0.0,0.0,0.0,-35.69458,77.01416,-37.83142
1766814445764,-1.0283203,-0.22851562,0.12792969,15.869141,-3.7841797,-3.2958984,0.0,0.0,0.0,-32.162476,76.38794,-36.101074
1766814445852,-1.0751953,-0.1850586,0.022460938,3.7231445,20.874023,-6.958008,0.0,0.0,0.0,-32.162476,76.38794,-36.101074
1766814445864,-1.0751953,-0.1850586,0.022460938,3.7231445,20.874023,-6.958008,0.0,0.0,0.0,-36.205444,76.4978,-40.979004
1766814445952,-1.2216797,-0.3046875,0.055664062,-21.30127,42.3584,4.9438477,0.0,0.0,0.0,-36.205444,76.4978,-40.979004
1766814445963,-1.2216797,-0.3046875,0.055664062,-21.30127,42.3584,4.9438477,0.0,0.0,0.0,-45.895386,78.45886,-50.180054
1766814446052,-0.73046875,0.014160156,0.25341797,-25.817871,6.958008,-11.047363,0.0,0.0,0.0,-45.895386,78.45886,-50.180054
1766814446063,-0.73046875,0.014160156,0.25341797,-25.817871,6.958008,-11.047363,0.0,0.0,0.0,-67.37915,79.58496,-67.977905
1766814446151,-0.9628906,0.06591797,0.33935547,35.27832,-30.639648,0.0,0.0,0.0,0.0,-67.37915,79.58496,-67.977905
1766814446163,-0.9628906,0.06591797,0.33935547,35.27832,-30.639648,0.0,0.0,0.0,0.0,-60.24353,78.76648,-61.583862
1766814446251,-0.9921875,-0.40039062,-0.1459961,9.643555,-14.953613,-11.84082,0.0,0.0,0.0,-60.24353,78.76648,-61.583862
1766814446263,-0.9921875,-0.40039062,-0.1459961,9.643555,-14.953613,-11.84082,0.0,0.0,0.0,-32.590942,76.21216,-34.13452
1766814446351,-0.86279297,0.016113281,0.31835938,-7.3242188,-1.159668,-15.197754,0.0,0.0,0.0,-32.590942,76.21216,-34.13452
1766814446363,-0.86279297,0.016113281,0.31835938,-7.3242188,-1.159668,-15.197754,0.0,0.0,0.0,-42.753296,75.55298,-45.098877
1766814446451,-1.0585938,-0.17626953,-0.0546875,-3.90625,-10.7421875,11.779785,0.0,0.0,0.0,-42.753296,75.55298,-45.098877
1766814446462,-1.0585938,-0.17626953,-0.0546875,-3.90625,-10.7421875,11.779785,0.0,0.0,0.0,-33.43689,74.46533,-34.00818
1766814446550,-1.1484375,-0.21435547,0.1484375,8.728027,2.746582,-7.9956055,0.0,0.0,0.0,-33.43689,74.46533,-34.00818
1766814446562,-1.1484375,-0.21435547,0.1484375,8.728027,2.746582,-7.9956055,0.0,0.0,0.0,-36.73828,75.32776,-38.583984
1766814446650,-1.1835938,-0.104003906,0.0063476562,5.1879883,30.151367,-14.831543,0.0,0.0,0.0,-36.73828,75.32776,-38.583984
1766814446661,-1.1835938,-0.104003906,0.0063476562,5.1879883,30.151367,-14.831543,0.0,0.0,0.0,-43.571777,75.93201,-45.81299
1766814446750,-0.67089844,-0.12158203,0.30419922,10.681152,25.756836,-8.483887,0.0,0.0,0.0,-43.571777,75.93201,-45.81299
1766814446761,-0.67089844,-0.12158203,0.30419922,10.681152,25.756836,-8.483887,0.0,0.0,0.0,-55.618286,77.3822,-59.260254
1766814446849,-0.92626953,-0.33496094,0.6147461,6.8969727,-31.799316,-1.6479492,0.0,0.0,0.0,-55.618286,77.3822,-59.260254
1766814446861,-0.92626953,-0.33496094,0.6147461,6.8969727,-31.799316,-1.6479492,0.0,0.0,0.0,-55.00305,77.074585,-58.78235
1766814446949,-0.98291016,-0.110839844,-0.15527344,-20.996094,-20.385742,27.648926,0.0,0.0,0.0,-55.00305,77.074585,-58.78235
1766814446961,-0.98291016,-0.110839844,-0.15527344,-20.996094,-20.385742,27.648926,0.0,0.0,0.0,-31.069336,73.76221,-33.497314
1766814447049,-0.91552734,-0.21582031,0.2763672,13.122559,-5.6762695,0.91552734,0.0,0.0,0.0,-31.069336,73.76221,-33.497314
1766814447060,-0.91552734,-0.21582031,0.2763672,13.122559,-5.6762695,0.91552734,0.0,0.0,0.0,-32.95349,74.87732,-36.82068
1766814447148,-1.0341797,-0.23779297,0.125,6.0424805,-4.8217773,-1.4648438,0.0,0.0,0.0,-32.95349,74.87732,-36.82068
1766814447160,-1.0341797,-0.23779297,0.125,6.0424805,-4.8217773,-1.4648438,0.0,0.0,0.0,-30.421143,74.13574,-35.656128
1766814447248,-1.0957031,-0.20751953,0.12646484,1.8310547,19.28711,-4.8828125,0.0,0.0,0.0,-30.421143,74.13574,-35.656128
1766814447260,-1.0957031,-0.20751953,0.12646484,1.8310547,19.28711,-4.8828125,0.0,0.0,0.0,-34.96399,74.95972,-40.57251
1766814447348,-1.1489258,-0.32958984,0.21484375,-20.141602,44.921875,-6.591797,0.0,0.0,0.0,-34.96399,74.95972,-40.57251
1766814447360,-1.1489258,-0.32958984,0.21484375,-20.141602,44.921875,-6.591797,0.0,0.0,0.0,-45.829468,77.178955,-50.668945
1766814447448,-0.7060547,0.038085938,0.14355469,-9.338379,0.30517578,-8.300781,0.0,0.0,0.0,-45.829468,77.178955,-50.668945
1766814447460,-0.7060547,0.038085938,0.14355469,-9.338379,0.30517578,-8.300781,0.0,0.0,0.0,-56.87622,77.508545,-58.650513
1766814447547,-0.93066406,-0.046875,0.50097656,36.743164,-18.066406,-2.2583008,0.0,0.0,0.0,-56.87622,77.508545,-58.650513
1766814447559,-0.93066406,-0.046875,0.50097656,36.743164,-18.066406,-2.2583008,0.0,0.0,0.0,-53.69568,76.640625,-58.007812
1766814447647,-1.0317383,-0.38085938,-0.14404297,1.7700195,-23.376465,2.380371,0.0,0.0,0.0,-53.69568,76.640625,-58.007812
1766814447658,-1.0317383,-0.38085938,-0.14404297,1.7700195,-23.376465,2.380371,0.0,0.0,0.0,-32.426147,73.67981,-36.798706
1766814447747,-0.8564453,0.032714844,0.2685547,-11.352539,-14.892578,1.953125,0.0,0.0,0.0,-32.426147,73.67981,-36.798706
1766814447758,-0.8564453,0.032714844,0.2685547,-11.352539,-14.892578,1.953125,0.0,0.0,0.0,-38.14453,73.707275,-42.29187
1766814447846,-1.0742188,-0.21044922,0.064453125,5.004883,-0.18310547,7.2631836,0.0,0.0,0.0,-38.14453,73.707275,-42.29187
1766814447858,-1.0742188,-0.21044922,0.064453125,5.004883,-0.18310547,7.2631836,0.0,0.0,0.0,-31.365967,73.19641,-34.936523
1766814447946,-1.1137695,-0.19482422,0.17822266,-6.3476562,3.9672852,-3.9672852,0.0,0.0,0.0,-31.365967,73.19641,-34.936523
1766814447958,-1.1137695,-0.19482422,0.17822266,-6.3476562,3.9672852,-3.9672852,0.0,0.0,0.0,-34.101562,74.0863,-37.858887
1766814448046,-1.1640625,-0.071777344,0.08251953,-8.911133,29.47998,-7.2021484,0.0,0.0,0.0,-34.101562,74.0863,-37.858887
1766814448057,-1.1640625,-0.071777344,0.08251953,-8.911133,29.47998,-7.2021484,0.0,0.0,0.0,-39.210205,75.10254,-41.989746
1766814448145,-0.6503906,-0.16357422,0.39453125,2.6245117,30.517578,-1.8920898,0.0,0.0,0.0,-39.210205,75.10254,-41.989746
1766814448157,-0.6503906,-0.16357422,0.39453125,2.6245117,30.517578,-1.8920898,0.0,0.0,0.0,-50.548096,77.058105,-53.937378
1766814448245,-0.86279297,-0.100097656,0.51416016,19.104004,-60.668945,9.155273,0.0,0.0,0.0,-50.548096,77.058105,-53.937378
1766814448257,-0.86279297,-0.100097656,0.51416016,19.104004,-60.668945,9.155273,0.0,0.0,0.0,-46.1261,76.40442,-50.668945
1766814448345,-0.9995117,-0.14550781,-0.020019531,7.507324,16.418457,6.286621,0.0,0.0,0.0,-46.1261,76.40442,-50.668945
1766814448356,-0.9995117,-0.14550781,-0.020019531,7.507324,16.418457,6.286621,0.0,0.0,0.0,-26.466064,74.11377,-29.833374
1766814448445,-0.92529297,-0.2446289,0.22705078,10.314941,-19.348145,1.4648438,0.0,0.0,0.0,-26.466064,74.11377,-29.833374
1766814448456,-0.92529297,-0.2446289,0.22705078,10.314941,-19.348145,1.4648438,0.0,0.0,0.0,-26.471558,74.92676,-31.217651
1766814448544,-1.0610352,-0.1694336,0.114746094,2.1972656,4.699707,-8.972168,0.0,0.0,0.0,-26.471558,74.92676,-31.217651
1766814448557,-1.0610352,-0.1694336,0.114746094,2.1972656,4.699707,-8.972168,0.0,0.0,0.0,-27.114258,74.11926,-32.783203
1766814448645,-1.0864258,-0.18261719,0.111816406,5.493164,14.038086,-5.126953,0.0,0.0,0.0,-27.114258,74.11926,-32.783203
1766814448656,-1.0864258,-0.18261719,0.111816406,5.493164,14.038086,-5.126953,0.0,0.0,0.0,-32.514038,75.00366,-38.622437
1766814448744,-1.0957031,-0.27441406,0.3779297,-24.719238,20.202637,-6.958008,0.0,0.0,0.0,-32.514038,75.00366,-38.622437
1766814448755,-1.0957031,-0.27441406,0.3779297,-24.719238,20.202637,-6.958008,0.0,0.0,0.0,-41.132812,76.78345,-46.85669
1766814448843,-0.7241211,0.071777344,0.18115234,11.230469,8.972168,-16.967773,0.0,0.0,0.0,-41.132812,76.78345,-46.85669
1766814448855,-0.7241211,0.071777344,0.18115234,11.230469,8.972168,-16.967773,0.0,0.0,0.0,-48.114624,76.5802,-52.267456
1766814448943,-0.9194336,-0.15673828,0.6171875,7.9956055,-42.96875,16.601562,0.0,0.0,0.0,-48.114624,76.5802,-52.267456
1766814448954,-0.9194336,-0.15673828,0.6171875,7.9956055,-42.96875,16.601562,0.0,0.0,0.0,-47.026978,75.94299,-53.113403
1766814449043,-1.0019531,-0.30078125,-0.21923828,-11.84082,-8.911133,-5.79834,0.0,0.0,0.0,-47.026978,75.94299,-53.113403
1766814449054,-1.0019531,-0.30078125,-0.21923828,-11.84082,-8.911133,-5.79834,0.0,0.0,0.0,-26.295776,71.08154,-30.39917
1766814449143,-0.86083984,0.078125,0.3251953,-7.5683594,-15.441895,4.8217773,0.0,0.0,0.0,-26.295776,71.08154,-30.39917
1766814449154,-0.86083984,0.078125,0.3251953,-7.5683594,-15.441895,4.8217773,0.0,0.0,0.0,-32.486572,71.84509,-37.441406
1766814449242,-1.0742188,-0.2626953,0.10205078,1.8920898,-3.540039,2.4414062,0.0,0.0,0.0,-32.486572,71.84509,-37.441406
1766814449254,-1.0742188,-0.2626953,0.10205078,1.8920898,-3.540039,2.4414062,0.0,0.0,0.0,-25.647583,70.8728,-29.96521
1766814449342,-1.125,-0.18896484,0.15966797,-16.418457,0.7324219,-1.8920898,0.0,0.0,0.0,-25.647583,70.8728,-29.96521
1766814449353,-1.125,-0.18896484,0.15966797,-16.418457,0.7324219,-1.8920898,0.0,0.0,0.0,-28.718262,71.50452,-32.887573
1766814449442,-1.1958008,-0.05859375,0.23144531,9.82666,34.729004,-19.226074,0.0,0.0,0.0,-28.718262,71.50452,-32.887573
1766814449454,-1.1958008,-0.05859375,0.23144531,9.82666,34.729004,-19.226074,0.0,0.0,0.0,-35.00244,72.784424,-38.479614
1766814449541,-0.63916016,-0.19238281,0.39990234,-4.211426,38.391113,-0.9765625,0.0,0.0,0.0,-35.00244,72.784424,-38.479614
1766814449553,-0.63916016,-0.19238281,0.39990234,-4.211426,38.391113,-0.9765625,0.0,0.0,0.0,-45.395508,74.696045,-50.39978
1766814449641,-0.86621094,-0.056640625,0.54345703,19.65332,-51.086426,9.460449,0.0,0.0,0.0,-45.395508,74.696045,-50.39978
1766814449652,-0.86621094,-0.056640625,0.54345703,19.65332,-51.086426,9.460449,0.0,0.0,0.0,-47.598267,75.322266,-53.21228
1766814449741,-1.0249023,-0.296875,-0.14941406,-2.9907227,2.5634766,15.319824,0.0,0.0,0.0,-47.598267,75.322266,-53.21228
1766814449752,-1.0249023,-0.296875,-0.14941406,-2.9907227,2.5634766,15.319824,0.0,0.0,0.0,-24.576416,71.71875,-28.883057
1766814449840,-0.8964844,-0.20507812,0.2993164,12.207031,5.2490234,-10.620117,0.0,0.0,0.0,-24.576416,71.71875,-28.883057
1766814449852,-0.8964844,-0.20507812,0.2993164,12.207031,5.2490234,-10.620117,0.0,0.0,0.0,-28.932495,73.53699,-35.15625
1766814449941,-1.0996094,-0.17138672,0.10644531,2.4414062,-7.1411133,-0.79345703,0.0,0.0,0.0,-28.932495,73.53699,-35.15625
1766814449952,-1.0996094,-0.17138672,0.10644531,2.4414062,-7.1411133,-0.79345703,0.0,0.0,0.0,-29.77295,72.79541,-37.018433
1766814450040,-1.0859375,-0.23242188,0.08496094,1.2817383,26.733398,-4.0893555,0.0,0.0,0.0,-29.77295,72.79541,-37.018433
1766814450051,-1.0859375,-0.23242188,0.08496094,1.2817383,26.733398,-4.0893555,0.0,0.0,0.0,-32.876587,73.97644,-40.495605
1766814450139,-0.9711914,-0.20898438,0.42041016,-36.499023,31.799316,-9.643555,0.0,0.0,0.0,-32.876587,73.97644,-40.495605
1766814450151,-0.9711914,-0.20898438,0.42041016,-36.499023,31.799316,-9.643555,0.0,0.0,0.0,-47.18628,76.71753,-53.90442
1766814450239,-0.8076172,0.1328125,0.203125,16.906738,-5.7373047,-7.385254,0.0,0.0,0.0,-47.18628,76.71753,-53.90442
1766814450251,-0.8076172,0.1328125,0.203125,16.906738,-5.7373047,-7.385254,0.0,0.0,0.0,-52.338867,76.311035,-57.38159
1766814450339,-0.9477539,-0.33203125,0.31640625,1.0375977,-76.78223,24.780273,0.0,0.0,0.0,-52.338867,76.311035,-57.38159
1766814450351,-0.9477539,-0.33203125,0.31640625,1.0375977,-76.78223,24.780273,0.0,0.0,0.0,-39.050903,74.70154,-45.856934
1766814450438,-0.9248047,-0.21289062,0.11816406,11.169434,11.291504,-25.20752,0.0,0.0,0.0,-39.050903,74.70154,-45.856934
1766814450450,-0.9248047,-0.21289062,0.11816406,11.169434,11.291504,-25.20752,0.0,0.0,0.0,-31.89331,71.71875,-38.68286
1766814450538,-0.8779297,0.04248047,0.24707031,-10.070801,-33.813477,16.784668,0.0,0.0,0.0,-31.89331,71.71875,-38.68286
1766814450550,-0.8779297,0.04248047,0.24707031,-10.070801,-33.813477,16.784668,0.0,0.0,0.0,-31.536255,70.85632,-38.496094
1766814450638,-1.0786133,-0.2241211,0.19677734,1.2817383,15.625,0.6713867,0.0,0.0,0.0,-31.536255,70.85632,-38.496094
1766814450650,-1.0786133,-0.2241211,0.19677734,1.2817383,15.625,0.6713867,0.0,0.0,0.0,-27.322998,71.28479,-33.85437
1766814450738,-1.199707,-0.1977539,0.067871094,-6.958008,0.24414062,0.6713867,0.0,0.0,0.0,-27.322998,71.28479,-33.85437
1766814450749,-1.199707,-0.1977539,0.067871094,-6.958008,0.24414062,0.6713867,0.0,0.0,0.0,-28.773193,71.900024,-34.903564
1766814450837,-1.046875,-0.072753906,0.22705078,11.901855,46.691895,-11.535645,0.0,0.0,0.0,-28.773193,71.900024,-34.903564
1766814450849,-1.046875,-0.072753906,0.22705078,11.901855,46.691895,-11.535645,0.0,0.0,0.0,-38.051147,74.62463,-44.631958
1766814450937,-0.67285156,-0.2734375,0.4658203,-12.512207,31.433105,0.6713867,0.0,0.0,0.0,-38.051147,74.62463,-44.631958
1766814450949,-0.67285156,-0.2734375,0.4658203,-12.512207,31.433105,0.6713867,0.0,0.0,0.0,-48.50464,76.64612,-55.673218
1766814451037,-0.94091797,-0.028320312,0.5175781,13.366699,-79.3457,12.023926,0.0,0.0,0.0,-48.50464,76.64612,-55.673218
1766814451048,-0.94091797,-0.028320312,0.5175781,13.366699,-79.3457,12.023926,0.0,0.0,0.0,-40.160522,74.48181,-47.625732
1766814451136,-1.0097656,-0.20947266,-0.09667969,18.310547,20.446777,-1.0375977,0.0,0.0,0.0,-40.160522,74.48181,-47.625732
1766814451148,-1.0097656,-0.20947266,-0.09667969,18.310547,20.446777,-1.0375977,0.0,0.0,0.0,-24.334717,72.06482,-29.943237
1766814451236,-0.9003906,-0.17578125,0.32470703,10.192871,-1.7089844,2.0141602,0.0,0.0,0.0,-24.334717,72.06482,-29.943237
1766814451248,-0.9003906,-0.17578125,0.32470703,10.192871,-1.7089844,2.0141602,0.0,0.0,0.0,-27.004395,73.70178,-34.683838
1766814451336,-1.1362305,-0.234375,0.040527344,-0.4272461,-3.90625,2.0141602,0.0,0.0,0.0,-27.004395,73.70178,-34.683838
1766814451347,-1.1362305,-0.234375,0.040527344,-0.4272461,-3.90625,2.0141602,0.0,0.0,0.0,-24.873047,73.14697,-32.645874
1766814451436,-1.0668945,-0.1821289,0.125,-11.535645,25.6958,-1.2207031,0.0,0.0,0.0,-24.873047,73.14697,-32.645874
1766814451447,-1.0668945,-0.1821289,0.125,-11.535645,25.6958,-1.2207031,0.0,0.0,0.0,-31.289062,74.98169,-38.798218
1766814451535,-0.97265625,-0.2290039,0.3388672,-38.146973,30.395508,-8.178711,0.0,0.0,0.0,-31.289062,74.98169,-38.798218
1766814451547,-0.97265625,-0.2290039,0.3388672,-38.146973,30.395508,-8.178711,0.0,0.0,0.0,-44.72534,77.88757,-49.87793
1766814451635,-0.8154297,0.18603516,0.2685547,25.45166,5.3710938,-18.859863,0.0,0.0,0.0,-44.72534,77.88757,-49.87793
1766814451646,-0.8154297,0.18603516,0.2685547,25.45166,5.3710938,-18.859863,0.0,0.0,0.0,-53.256226,77.60742,-57.211304
1766814451734,-0.93847656,-0.37841797,0.32470703,-7.385254,-97.473145,41.19873,0.0,0.0,0.0,-53.256226,77.60742,-57.211304
1766814451746,-0.93847656,-0.37841797,0.32470703,-7.385254,-97.473145,41.19873,0.0,0.0,0.0,-33.771973,75.17395,-39.484863
1766814451834,-0.92626953,-0.091308594,0.20605469,14.221191,30.944824,-26.062012,0.0,0.0,0.0,-33.771973,75.17395,-39.484863
1766814451846,-0.92626953,-0.091308594,0.20605469,14.221191,30.944824,-26.062012,0.0,0.0,0.0,-31.052856,73.52051,-37.13379
1766814451934,-0.95214844,-0.06982422,0.14697266,0.7324219,-23.498535,17.456055,0.0,0.0,0.0,-31.052856,73.52051,-37.13379
1766814451945,-0.95214844,-0.06982422,0.14697266,0.7324219,-23.498535,17.456055,0.0,0.0,0.0,-30.289307,73.03162,-36.573486
1766814452034,-1.1464844,-0.24951172,0.15917969,-0.5493164,15.808105,-8.178711,0.0,0.0,0.0,-30.289307,73.03162,-36.573486
1766814452045,-1.1464844,-0.24951172,0.15917969,-0.5493164,15.808105,-8.178711,0.0,0.0,0.0,-29.492798,73.67432,-35.88684
1766814452133,-1.2719727,-0.17236328,-0.05126953,-15.991211,28.076172,-10.314941,0.0,0.0,0.0,-29.492798,73.67432,-35.88684
1766814452145,-1.2719727,-0.17236328,-0.05126953,-15.991211,28.076172,-10.314941,0.0,0.0,0.0,-37.858887,74.75647,-42.989502
1766814452233,-0.74658203,-0.08496094,0.29638672,14.953613,46.26465,-11.962891,0.0,0.0,0.0,-37.858887,74.75647,-42.989502
1766814452245,-0.74658203,-0.08496094,0.29638672,14.953613,46.26465,-11.962891,0.0,0.0,0.0,-55.371094,77.107544,-61.12793
1766814452333,-0.84814453,-0.40478516,0.63427734,-4.0893555,-8.300781,7.2631836,0.0,0.0,0.0,-55.371094,77.107544,-61.12793
1766814452344,-0.84814453,-0.40478516,0.63427734,-4.0893555,-8.300781,7.2631836,0.0,0.0,0.0,-62.70996,78.118286,-68.52173
1766814452432,-1.0175781,-0.0063476562,-0.265625,-30.334473,-40.83252,35.88867,0.0,0.0,0.0,-62.70996,78.118286,-68.52173
1766814452444,-1.0175781,-0.0063476562,-0.265625,-30.334473,-40.83252,35.88867,0.0,0.0,0.0,-33.04138,74.65759,-36.89209
1766814452532,-0.89941406,-0.18164062,0.2319336,10.314941,9.58252,3.7231445,0.0,0.0,0.0,-33.04138,74.65759,-36.89209
1766814452544,-0.89941406,-0.18164062,0.2319336,10.314941,9.58252,3.7231445,0.0,0.0,0.0,-33.618164,76.38245,-37.765503
1766814452632,-1.0610352,-0.25439453,0.12695312,9.58252,0.061035156,-2.5024414,0.0,0.0,0.0,-33.618164,76.38245,-37.765503
1766814452643,-1.0610352,-0.25439453,0.12695312,9.58252,0.061035156,-2.5024414,0.0,0.0,0.0,-32.563477,76.45386,-38.078613
1766814452731,-1.0766602,-0.16796875,-0.00390625,7.019043,28.442383,-10.070801,0.0,0.0,0.0,-32.563477,76.45386,-38.078613
1766814452743,-1.0766602,-0.16796875,-0.00390625,7.019043,28.442383,-10.070801,0.0,0.0,0.0,-39.336548,77.058105,-45.29663
1766814452831,-1.1757812,-0.36572266,0.171875,-18.066406,48.76709,-6.1035156,0.0,0.0,0.0,-39.336548,77.058105,-45.29663
1766814452843,-1.1757812,-0.36572266,0.171875,-18.066406,48.76709,-6.1035156,0.0,0.0,0.0,-55.777588,79.27734,-61.298218
1766814452931,-0.7451172,0.07519531,0.15576172,-4.760742,3.2348633,-13.244629,0.0,0.0,0.0,-55.777588,79.27734,-61.298218
1766814452942,-0.7451172,0.07519531,0.15576172,-4.760742,3.2348633,-13.244629,0.0,0.0,0.0,-70.78491,79.01367,-72.87781
1766814453030,-0.9560547,-0.104003906,0.5,15.808105,-53.710938,27.038574,0.0,0.0,0.0,-70.78491,79.01367,-72.87781
1766814453042,-0.9560547,-0.104003906,0.5,15.808105,-53.710938,27.038574,0.0,0.0,0.0,-61.16089,78.118286,-65.62134
1766814453130,-0.9604492,-0.3076172,-0.096191406,20.324707,23.742676,-32.89795,0.0,0.0,0.0,-61.16089,78.118286,-65.62134
1766814453142,-0.9604492,-0.3076172,-0.096191406,20.324707,23.742676,-32.89795,0.0,0.0,0.0,-39.60022,76.02539,-43.53882
1766814453230,-0.85839844,0.06640625,0.16894531,-24.414062,-30.212402,9.643555,0.0,0.0,0.0,-39.60022,76.02539,-43.53882
1766814453241,-0.85839844,0.06640625,0.16894531,-24.414062,-30.212402,9.643555,0.0,0.0,0.0,-49.25171,75.371704,-53.311157
1766814453329,-1.1611328,-0.25146484,-0.03857422,6.0424805,12.939453,-7.080078,0.0,0.0,0.0,-49.25171,75.371704,-53.311157
1766814453341,-1.1611328,-0.25146484,-0.03857422,6.0424805,12.939453,-7.080078,0.0,0.0,0.0,-43.80249,75.34973,-46.16455
1766814453429,-1.2539062,-0.28125,0.0029296875,-12.634277,12.084961,-2.1362305,0.0,0.0,0.0,-43.80249,75.34973,-46.16455
1766814453441,-1.2539062,-0.28125,0.0029296875,-12.634277,12.084961,-2.1362305,0.0,0.0,0.0,-51.33362,76.118774,-53.113403
1766814453529,-0.88916016,-0.11621094,0.21679688,12.6953125,18.310547,-12.390137,0.0,0.0,0.0,-51.33362,76.118774,-53.113403
1766814453540,-0.88916016,-0.11621094,0.21679688,12.6953125,18.310547,-12.390137,0.0,0.0,0.0,-60.100708,76.431885,-61.831055
1766814453629,-0.80908203,-0.33935547,0.4873047,-1.2207031,3.2958984,5.79834,0.0,0.0,0.0,-60.100708,76.431885,-61.831055
1766814453641,-0.80908203,-0.33935547,0.4873047,-1.2207031,3.2958984,5.79834,0.0,0.0,0.0,-65.615845,76.640625,-68.21411
1766814453728,-1.0449219,0.005859375,-0.1171875,-17.578125,-55.358887,24.291992,0.0,0.0,0.0,-65.615845,76.640625,-68.21411
1766814453740,-1.0449219,0.005859375,-0.1171875,-17.578125,-55.358887,24.291992,0.0,0.0,0.0,-46.713867,74.85535,-49.01001
1766814453828,-0.9003906,-0.18408203,0.19873047,19.104004,12.817383,-2.5024414,0.0,0.0,0.0,-46.713867,74.85535,-49.01001
1766814453840,-0.9003906,-0.18408203,0.19873047,19.104004,12.817383,-2.5024414,0.0,0.0,0.0,-43.033447,75.19043,-45.307617
1766814453928,-0.93847656,-0.22851562,0.11376953,9.460449,-4.699707,1.2817383,0.0,0.0,0.0,-43.033447,75.19043,-45.307617
1766814453939,-0.93847656,-0.22851562,0.11376953,9.460449,-4.699707,1.2817383,0.0,0.0,0.0,-41.42395,75.19592,-45.351562
1766814454027,-1.0800781,-0.21777344,0.099121094,3.7841797,16.113281,-3.2958984,0.0,0.0,0.0,-41.42395,75.19592,-45.351562
1766814454039,-1.0800781,-0.21777344,0.099121094,3.7841797,16.113281,-3.2958984,0.0,0.0,0.0,-44.022217,75.44861,-48.548584
1766814454128,-1.1796875,-0.234375,-0.03125,-3.1738281,25.6958,2.1362305,0.0,0.0,0.0,-44.022217,75.44861,-48.548584
1766814454139,-1.1796875,-0.234375,-0.03125,-3.1738281,25.6958,2.1362305,0.0,0.0,0.0,-49.762573,76.65161,-54.365845
1766814454227,-0.9301758,-0.20361328,0.25195312,-42.60254,10.192871,-5.1879883,0.0,0.0,0.0,-49.762573,76.65161,-54.365845
1766814454238,-0.9301758,-0.20361328,0.25195312,-42.60254,10.192871,-5.1879883,0.0,0.0,0.0,-67.13196,78.151245,-69.7522
1766814454326,-0.8388672,0.09375,0.234375,26.611328,11.779785,-11.962891,0.0,0.0,0.0,-67.13196,78.151245,-69.7522
1766814454338,-0.8388672,0.09375,0.234375,26.611328,11.779785,-11.962891,0.0,0.0,0.0,-72.31201,77.508545,-73.97095
1766814454426,-0.96484375,-0.25341797,0.27294922,4.1503906,-73.66943,30.334473,0.0,0.0,0.0,-72.31201,77.508545,-73.97095
1766814454437,-0.96484375,-0.25341797,0.27294922,4.1503906,-73.66943,30.334473,0.0,0.0,0.0,-53.497925,77.10205,-56.288452
1766814454526,-0.93847656,-0.18115234,0.08203125,7.1411133,22.094727,-16.296387,0.0,0.0,0.0,-53.497925,77.10205,-56.288452
1766814454537,-0.93847656,-0.18115234,0.08203125,7.1411133,22.094727,-16.296387,0.0,0.0,0.0,-46.625977,76.14624,-49.7406
1766814454625,-0.89990234,-0.10205078,0.06689453,-9.643555,-29.23584,16.052246,0.0,0.0,0.0,-46.625977,76.14624,-49.7406
1766814454637,-0.89990234,-0.10205078,0.06689453,-9.643555,-29.23584,16.052246,0.0,0.0,0.0,-43.720093,75.72876,-45.999756
1766814454725,-1.0932617,-0.19042969,0.080566406,4.3945312,10.7421875,-2.0141602,0.0,0.0,0.0,-43.720093,75.72876,-45.999756
1766814454737,-1.0932617,-0.19042969,0.080566406,4.3945312,10.7421875,-2.0141602,0.0,0.0,0.0,-41.868896,76.118774,-44.055176
1766814454825,-1.2270508,-0.21923828,-0.032226562,-8.666992,7.6293945,-0.6713867,0.0,0.0,0.0,-41.868896,76.118774,-44.055176
1766814454837,-1.2270508,-0.21923828,-0.032226562,-8.666992,7.6293945,-0.6713867,0.0,0.0,0.0,-45.31311,76.82739,-46.80725
1766814454925,-1.081543,-0.09863281,0.15478516,8.972168,31.311035,-9.82666,0.0,0.0,0.0,-45.31311,76.82739,-46.80725
1766814454936,-1.081543,-0.09863281,0.15478516,8.972168,31.311035,-9.82666,0.0,0.0,0.0,-59.35913,78.079834,-60.792847
1766814455024,-0.6796875,-0.296875,0.43164062,-10.253906,20.385742,0.0,0.0,0.0,0.0,-59.35913,78.079834,-60.792847
1766814455036,-0.6796875,-0.296875,0.43164062,-10.253906,20.385742,0.0,0.0,0.0,0.0,-71.18591,78.61267,-73.16345
1766814455124,-1.0004883,-0.03857422,0.096191406,-22.644043,-81.17676,31.61621,0.0,0.0,0.0,-71.18591,78.61267,-73.16345
1766814455135,-1.0004883,-0.03857422,0.096191406,-22.644043,-81.17676,31.61621,0.0,0.0,0.0,-51.503906,76.87134,-52.16858
1766814455224,-0.9580078,-0.1352539,0.052734375,8.422852,20.629883,1.5869141,0.0,0.0,0.0,-51.503906,76.87134,-52.16858
1766814455235,-0.9580078,-0.1352539,0.052734375,8.422852,20.629883,1.5869141,0.0,0.0,0.0,-44.37378,77.211914,-43.450928
1766814455323,-0.9448242,-0.2265625,0.110839844,15.50293,-6.286621,-1.8310547,0.0,0.0,0.0,-44.37378,77.211914,-43.450928
1766814455335,-0.9448242,-0.2265625,0.110839844,15.50293,-6.286621,-1.8310547,0.0,0.0,0.0,-42.264404,77.23938,-42.418213
1766814455423,-1.1108398,-0.22216797,0.00390625,3.2348633,7.6293945,-1.6479492,0.0,0.0,0.0,-42.264404,77.23938,-42.418213
1766814455434,-1.1108398,-0.22216797,0.00390625,3.2348633,7.6293945,-1.6479492,0.0,0.0,0.0,-43.00598,77.15698,-43.840942
1766814455523,-1.175293,-0.18847656,0.0034179688,-10.070801,25.512695,0.6713867,0.0,0.0,0.0,-43.00598,77.15698,-43.840942
1766814455534,-1.175293,-0.18847656,0.0034179688,-10.070801,25.512695,0.6713867,0.0,0.0,0.0,-52.41028,78.5083,-52.816772
1766814455622,-0.90625,-0.10253906,0.19042969,-40.95459,6.286621,-5.6762695,0.0,0.0,0.0,-52.41028,78.5083,-52.816772
1766814455634,-0.90625,-0.10253906,0.19042969,-40.95459,6.286621,-5.6762695,0.0,0.0,0.0,-70.17517,79.48059,-68.04932
1766814455722,-0.9008789,0.16699219,0.23779297,37.963867,-2.6855469,-13.427734,0.0,0.0,0.0,-70.17517,79.48059,-68.04932
1766814455734,-0.9008789,0.16699219,0.23779297,37.963867,-2.6855469,-13.427734,0.0,0.0,0.0,-69.96643,78.54675,-68.323975
1766814455822,-1.034668,-0.36035156,-0.16308594,9.58252,-49.804688,6.286621,0.0,0.0,0.0,-69.96643,78.54675,-68.323975
1766814455833,-1.034668,-0.36035156,-0.16308594,9.58252,-49.804688,6.286621,0.0,0.0,0.0,-43.829956,77.16797,-43.85742
1766814455921,-0.8383789,-0.022949219,0.21679688,0.0,-1.0375977,-12.084961,0.0,0.0,0.0,-43.829956,77.16797,-43.85742
1766814455933,-0.8383789,-0.022949219,0.21679688,0.0,-1.0375977,-12.084961,0.0,0.0,0.0,-50.213013,76.40991,-51.487427
1766814456021,-1.0244141,-0.19921875,0.028320312,-0.6713867,-9.765625,4.638672,0.0,0.0,0.0,-50.213013,76.40991,-51.487427
1766814456033,-1.0244141,-0.19921875,0.028320312,-0.6713867,-9.765625,4.638672,0.0,0.0,0.0,-44.296875,75.71777,-44.8407
1766814456121,-1.1264648,-0.21533203,0.060546875,-7.873535,7.9956055,-6.4697266,0.0,0.0,0.0,-44.296875,75.71777,-44.8407
1766814456132,-1.1264648,-0.21533203,0.060546875,-7.873535,7.9956055,-6.4697266,0.0,0.0,0.0,-47.30713,76.08032,-47.631226
1766814456221,-1.1967773,-0.11035156,0.04296875,2.5634766,29.35791,-10.253906,0.0,0.0,0.0,-47.30713,76.08032,-47.631226
1766814456232,-1.1967773,-0.11035156,0.04296875,2.5634766,29.35791,-10.253906,0.0,0.0,0.0,-57.321167,76.87134,-57.332153
1766814456320,-0.68603516,-0.17773438,0.25976562,18.432617,17.456055,-1.4038086,0.0,0.0,0.0,-57.321167,76.87134,-57.332153
1766814456332,-0.68603516,-0.17773438,0.25976562,18.432617,17.456055,-1.4038086,0.0,0.0,0.0,-67.13745,77.66785,-68.52722
1766814456420,-0.96972656,-0.31396484,0.54345703,10.070801,-24.597168,3.8452148,0.0,0.0,0.0,-67.13745,77.66785,-68.52722
1766814456431,-0.96972656,-0.31396484,0.54345703,10.070801,-24.597168,3.8452148,0.0,0.0,0.0,-65.8905,77.942505,-68.28003
1766814456519,-0.98339844,-0.11279297,-0.1015625,-7.6904297,10.070801,9.338379,0.0,0.0,0.0,-65.8905,77.942505,-68.28003
1766814456531,-0.98339844,-0.11279297,-0.1015625,-7.6904297,10.070801,9.338379,0.0,0.0,0.0,-48.900146,76.777954,-50.27893
1766814456619,-0.8779297,-0.22363281,0.16357422,17.39502,-3.8452148,-1.0986328,0.0,0.0,0.0,-48.900146,76.777954,-50.27893
1766814456631,-0.8779297,-0.22363281,0.16357422,17.39502,-3.8452148,-1.0986328,0.0,0.0,0.0,-51.377563,77.77771,-53.069458
1766814456719,-1.0214844,-0.26513672,-0.01953125,0.24414062,-6.4086914,-1.8310547,0.0,0.0,0.0,-51.377563,77.77771,-53.069458
1766814456731,-1.0214844,-0.26513672,-0.01953125,0.24414062,-6.4086914,-1.8310547,0.0,0.0,0.0,-48.971558,77.12402,-51.350098
1766814456819,-1.0708008,-0.22167969,0.03955078,-4.638672,15.869141,-3.4179688,0.0,0.0,0.0,-48.971558,77.12402,-51.350098
1766814456830,-1.0708008,-0.22167969,0.03955078,-4.638672,15.869141,-3.4179688,0.0,0.0,0.0,-56.02478,77.24487,-58.024292
1766814456918,-1.175293,-0.35253906,0.18603516,-20.019531,45.715332,-12.084961,0.0,0.0,0.0,-56.02478,77.24487,-58.024292
1766814456930,-1.175293,-0.35253906,0.18603516,-20.019531,45.715332,-12.084961,0.0,0.0,0.0,-70.285034,78.26111,-71.015625
1766814457018,-0.734375,0.125,0.07373047,7.6293945,5.432129,-7.6293945,0.0,0.0,0.0,-70.285034,78.26111,-71.015625
1766814457030,-0.734375,0.125,0.07373047,7.6293945,5.432129,-7.6293945,0.0,0.0,0.0,-79.782715,77.81067,-77.750244
1766814457118,-0.9951172,-0.34570312,0.31445312,0.4272461,-69.2749,36.865234,0.0,0.0,0.0,-79.782715,77.81067,-77.750244
1766814457130,-0.9951172,-0.34570312,0.31445312,0.4272461,-69.2749,36.865234,0.0,0.0,0.0,-67.8186,77.958984,-68.21411
1766814457217,-0.9042969,-0.20117188,0.09472656,9.94873,31.188965,-26.062012,0.0,0.0,0.0,-67.8186,77.958984,-68.21411
1766814457229,-0.9042969,-0.20117188,0.09472656,9.94873,31.188965,-26.062012,0.0,0.0,0.0,-57.27173,77.11853,-57.683716
1766814457317,-0.90185547,-0.08691406,-0.03955078,-24.475098,-34.179688,21.30127,0.0,0.0,0.0,-57.27173,77.11853,-57.683716
1766814457329,-0.90185547,-0.08691406,-0.03955078,-24.475098,-34.179688,21.30127,0.0,0.0,0.0,-55.859985,76.61316,-55.090942
1766814457417,-1.0732422,-0.24023438,0.05517578,-3.6010742,11.657715,0.8544922,0.0,0.0,0.0,-55.859985,76.61316,-55.090942
1766814457428,-1.0732422,-0.24023438,0.05517578,-3.6010742,11.657715,0.8544922,0.0,0.0,0.0,-52.789307,77.43713,-50.635986
1766814457517,-1.2299805,-0.26123047,-0.07910156,-15.625,8.422852,-6.958008,0.0,0.0,0.0,-52.789307,77.43713,-50.635986
1766814457528,-1.2299805,-0.26123047,-0.07910156,-15.625,8.422852,-6.958008,0.0,0.0,0.0,-58.35388,77.6239,-55.18982
1766814457616,-1.0688477,-0.072753906,0.17626953,10.986328,19.836426,-5.79834,0.0,0.0,0.0,-58.35388,77.6239,-55.18982
1766814457628,-1.0688477,-0.072753906,0.17626953,10.986328,19.836426,-5.79834,0.0,0.0,0.0,-69.86206,77.67334,-66.242065
1766814457716,-0.74072266,-0.30419922,0.40185547,-15.930176,7.446289,8.7890625,0.0,0.0,0.0,-69.86206,77.67334,-66.242065
1766814457727,-0.74072266,-0.30419922,0.40185547,-15.930176,7.446289,8.7890625,0.0,0.0,0.0,-75.69031,78.46985,-72.41089
1766814457815,-1.0219727,-0.01953125,-0.05029297,-0.91552734,-35.339355,5.3710938,0.0,0.0,0.0,-75.69031,78.46985,-72.41089
1766814457827,-1.0219727,-0.01953125,-0.05029297,-0.91552734,-35.339355,5.3710938,0.0,0.0,0.0,-63.012085,77.86011,-59.04602
1766814457915,-0.93359375,-0.1538086,0.017578125,4.1503906,9.460449,12.878418,0.0,0.0,0.0,-63.012085,77.86011,-59.04602
1766814457927,-0.93359375,-0.1538086,0.017578125,4.1503906,9.460449,12.878418,0.0,0.0,0.0,-58.271484,78.6676,-53.87146
1766814458015,-0.95654297,-0.23339844,0.09326172,16.296387,-2.1972656,-1.0986328,0.0,0.0,0.0,-58.271484,78.6676,-53.87146
1766814458026,-0.95654297,-0.23339844,0.09326172,16.296387,-2.1972656,-1.0986328,0.0,0.0,0.0,-57.178345,79.51904,-54.173584
1766814458115,-1.0625,-0.20898438,-0.08203125,-4.8828125,2.8076172,-5.2490234,0.0,0.0,0.0,-57.178345,79.51904,-54.173584
1766814458126,-1.0625,-0.20898438,-0.08203125,-4.8828125,2.8076172,-5.2490234,0.0,0.0,0.0,-57.079468,78.85986,-54.58557
1766814458215,-1.2211914,-0.17333984,-0.05126953,-8.728027,21.78955,-2.8686523,0.0,0.0,0.0,-57.079468,78.85986,-54.58557
1766814458226,-1.2211914,-0.17333984,-0.05126953,-8.728027,21.78955,-2.8686523,0.0,0.0,0.0,-65.687256,79.23889,-62.13318
1766814458314,-0.91015625,-0.09814453,0.16503906,-33.996582,3.9672852,-3.112793,0.0,0.0,0.0,-65.687256,79.23889,-62.13318
1766814458325,-0.91015625,-0.09814453,0.16503906,-33.996582,3.9672852,-3.112793,0.0,0.0,0.0,-83.66638,79.16748,-78.60718
1766814458414,-0.78222656,0.091308594,0.09667969,27.160645,3.3569336,-11.901855,0.0,0.0,0.0,-83.66638,79.16748,-78.60718
1766814458425,-0.78222656,0.091308594,0.09667969,27.160645,3.3569336,-11.901855,0.0,0.0,0.0,-82.94678,78.65662,-77.750244
1766814458513,-1.0307617,-0.35791016,0.16308594,2.8686523,-76.59912,26.489258,0.0,0.0,0.0,-82.94678,78.65662,-77.750244
1766814458525,-1.0307617,-0.35791016,0.16308594,2.8686523,-76.59912,26.489258,0.0,0.0,0.0,-57.62329,78.33801,-54.986572
1766814458613,-0.8833008,-0.119628906,0.118652344,6.591797,27.160645,-25.390625,0.0,0.0,0.0,-57.62329,78.33801,-54.986572
1766814458625,-0.8833008,-0.119628906,0.118652344,6.591797,27.160645,-25.390625,0.0,0.0,0.0,-57.892456,76.99219,-55.838013
1766814458713,-0.94189453,-0.12207031,-0.037109375,-14.038086,-24.230957,18.920898,0.0,0.0,0.0,-57.892456,76.99219,-55.838013
1766814458724,-0.94189453,-0.12207031,-0.037109375,-14.038086,-24.230957,18.920898,0.0,0.0,0.0,-52.46521,76.75049,-49.367065
1766814458812,-1.1357422,-0.22021484,0.02734375,3.540039,18.493652,-1.5258789,0.0,0.0,0.0,-52.46521,76.75049,-49.367065
1766814458824,-1.1357422,-0.22021484,0.02734375,3.540039,18.493652,-1.5258789,0.0,0.0,0.0,-55.739136,77.92053,-52.52014
1766814458912,-1.2978516,-0.20507812,-0.123535156,9.70459,26.916504,-10.070801,0.0,0.0,0.0,-55.739136,77.92053,-52.52014
1766814458924,-1.2978516,-0.20507812,-0.123535156,9.70459,26.916504,-10.070801,0.0,0.0,0.0,-65.1709,78.56323,-62.556152
1766814459012,-0.7680664,-0.17041016,0.2446289,21.972656,31.066895,-12.084961,0.0,0.0,0.0,-65.1709,78.56323,-62.556152
1766814459023,-0.7680664,-0.17041016,0.2446289,21.972656,31.066895,-12.084961,0.0,0.0,0.0,-82.282104,78.409424,-81.67786
1766814459111,-0.8535156,-0.39160156,0.515625,-1.3427734,-23.19336,4.638672,0.0,0.0,0.0,-82.282104,78.409424,-81.67786
1766814459123,-0.8535156,-0.39160156,0.515625,-1.3427734,-23.19336,4.638672,0.0,0.0,0.0,-83.166504,77.95349,-82.2876
1766814459211,-0.98583984,-0.06542969,-0.2548828,-16.906738,-19.958496,20.751953,0.0,0.0,0.0,-83.166504,77.95349,-82.2876
1766814459223,-0.98583984,-0.06542969,-0.2548828,-16.906738,-19.958496,20.751953,0.0,0.0,0.0,-53.085938,77.107544,-50.773315
1766814459311,-0.91845703,-0.22998047,0.14550781,8.605957,-8.239746,12.145996,0.0,0.0,0.0,-53.085938,77.107544,-50.773315
1766814459322,-0.91845703,-0.22998047,0.14550781,8.605957,-8.239746,12.145996,0.0,0.0,0.0,-54.645996,78.64014,-53.069458
1766814459411,-1.019043,-0.25,0.024414062,6.7749023,-1.5258789,-6.8969727,0.0,0.0,0.0,-54.645996,78.64014,-53.069458
1766814459422,-1.019043,-0.25,0.024414062,6.7749023,-1.5258789,-6.8969727,0.0,0.0,0.0,-50.701904,78.00842,-50.47119
1766814459510,-1.0688477,-0.16894531,0.0234375,-2.6855469,18.981934,-2.2583008,0.0,0.0,0.0,-50.701904,78.00842,-50.47119
1766814459522,-1.0688477,-0.16894531,0.0234375,-2.6855469,18.981934,-2.2583008,0.0,0.0,0.0,-58.634033,78.14575,-58.381348
1766814459610,-1.1723633,-0.3828125,0.14501953,-16.845703,25.32959,0.36621094,0.0,0.0,0.0,-58.634033,78.14575,-58.381348
1766814459621,-1.1723633,-0.3828125,0.14501953,-16.845703,25.32959,0.36621094,0.0,0.0,0.0,-70.85632,79.348755,-69.80713
1766814459709,-0.7290039,-0.029785156,-0.041015625,-3.112793,20.935059,-21.972656,0.0,0.0,0.0,-70.85632,79.348755,-69.80713
1766814459721,-0.7290039,-0.029785156,-0.041015625,-3.112793,20.935059,-21.972656,0.0,0.0,0.0,-82.83142,78.54675,-79.2334
1766814459809,-0.90966797,-0.064941406,0.4970703,-0.8544922,-33.63037,16.662598,0.0,0.0,0.0,-82.83142,78.54675,-79.2334
1766814459821,-0.90966797,-0.064941406,0.4970703,-0.8544922,-33.63037,16.662598,0.0,0.0,0.0,-83.93555,77.909546,-81.068115
1766814459909,-1.0166016,-0.3173828,-0.3095703,-1.3427734,-10.681152,-11.291504,0.0,0.0,0.0,-83.93555,77.909546,-81.068115
1766814459921,-1.0166016,-0.3173828,-0.3095703,-1.3427734,-10.681152,-11.291504,0.0,0.0,0.0,-51.23474,77.05261,-46.9281
1766814460009,-0.8173828,0.05908203,0.18164062,-11.535645,-28.259277,9.521484,0.0,0.0,0.0,-51.23474,77.05261,-46.9281
1766814460020,-0.8173828,0.05908203,0.18164062,-11.535645,-28.259277,9.521484,0.0,0.0,0.0,-57.161865,76.61865,-52.888184
1766814460108,-1.0957031,-0.27539062,-0.037597656,1.953125,-0.91552734,4.699707,0.0,0.0,0.0,-57.161865,76.61865,-52.888184
1766814460120,-1.0957031,-0.27539062,-0.037597656,1.953125,-0.91552734,4.699707,0.0,0.0,0.0,-45.10437,76.62964,-40.100098
1766814460208,-1.1567383,-0.18554688,0.0,-6.164551,12.145996,-10.498047,0.0,0.0,0.0,-45.10437,76.62964,-40.100098
1766814460219,-1.1567383,-0.18554688,0.0,-6.164551,12.145996,-10.498047,0.0,0.0,0.0,-51.723633,77.01965,-46.79077
1766814460308,-1.1992188,-0.076660156,0.16064453,3.4179688,26.245117,-6.7749023,0.0,0.0,0.0,-51.723633,77.01965,-46.79077
1766814460319,-1.1992188,-0.076660156,0.16064453,3.4179688,26.245117,-6.7749023,0.0,0.0,0.0,-64.61609,77.7063,-59.869995
1766814460407,-0.62158203,-0.24658203,0.3388672,-8.422852,24.169922,-6.591797,0.0,0.0,0.0,-64.61609,77.7063,-59.869995
1766814460419,-0.62158203,-0.24658203,0.3388672,-8.422852,24.169922,-6.591797,0.0,0.0,0.0,-76.14075,78.2666,-71.94397
1766814460507,-0.9609375,-0.091796875,0.23583984,-13.061523,-78.063965,21.118164,0.0,0.0,0.0,-76.14075,78.2666,-71.94397
1766814460519,-0.9609375,-0.091796875,0.23583984,-13.061523,-78.063965,21.118164,0.0,0.0,0.0,-65.527954,77.65686,-60.29297
1766814460607,-0.9790039,-0.15283203,-0.057617188,13.793945,24.108887,0.18310547,0.0,0.0,0.0,-65.527954,77.65686,-60.29297
1766814460618,-0.9790039,-0.15283203,-0.057617188,13.793945,24.108887,0.18310547,0.0,0.0,0.0,-50.163574,77.47009,-43.286133
1766814460707,-0.90966797,-0.20117188,0.10839844,19.042969,-9.033203,2.4414062,0.0,0.0,0.0,-50.163574,77.47009,-43.286133
1766814460718,-0.90966797,-0.20117188,0.10839844,19.042969,-9.033203,2.4414062,0.0,0.0,0.0,-51.70166,78.21716,-46.697388
1766814460806,-1.0878906,-0.22363281,-0.03857422,4.0893555,8.178711,-2.6855469,0.0,0.0,0.0,-51.70166,78.21716,-46.697388
1766814460818,-1.0878906,-0.22363281,-0.03857422,4.0893555,8.178711,-2.6855469,0.0,0.0,0.0,-50.267944,77.942505,-46.274414
1766814460906,-1.1875,-0.19189453,0.0014648438,-7.5683594,22.521973,1.6479492,0.0,0.0,0.0,-50.267944,77.942505,-46.274414
1766814460918,-1.1875,-0.19189453,0.0014648438,-7.5683594,22.521973,1.6479492,0.0,0.0,0.0,-59.87549,78.931274,-56.052246
1766814461005,-1.0224609,-0.19042969,0.14257812,-50.04883,4.9438477,-3.90625,0.0,0.0,0.0,-59.87549,78.931274,-56.052246
1766814461017,-1.0224609,-0.19042969,0.14257812,-50.04883,4.9438477,-3.90625,0.0,0.0,0.0,-74.77844,79.60693,-68.25256
1766814461105,-0.79541016,0.1430664,0.19238281,19.958496,2.5024414,-19.470215,0.0,0.0,0.0,-74.77844,79.60693,-68.25256
1766814461117,-0.79541016,0.1430664,0.19238281,19.958496,2.5024414,-19.470215,0.0,0.0,0.0,-78.53027,78.288574,-70.62561
1766814461205,-1.0581055,-0.36328125,0.14501953,-3.479004,-93.566895,32.65381,0.0,0.0,0.0,-78.53027,78.288574,-70.62561
1766814461217,-1.0581055,-0.36328125,0.14501953,-3.479004,-93.566895,32.65381,0.0,0.0,0.0,-55.14038,77.60742,-49.136353
1766814461305,-0.87060547,-0.11425781,0.12402344,13.48877,28.930664,-33.325195,0.0,0.0,0.0,-55.14038,77.60742,-49.136353
1766814461316,-0.87060547,-0.11425781,0.12402344,13.48877,28.930664,-33.325195,0.0,0.0,0.0,-49.174805,75.563965,-43.813477
1766814461404,-0.9160156,-0.095703125,0.071777344,-0.9765625,-33.02002,22.033691,0.0,0.0,0.0,-49.174805,75.563965,-43.813477
1766814461416,-0.9160156,-0.095703125,0.071777344,-0.9765625,-33.02002,22.033691,0.0,0.0,0.0,-47.477417,74.888306,-42.84668
1766814461504,-1.1582031,-0.26416016,0.12060547,16.601562,14.221191,0.0,0.0,0.0,0.0,-47.477417,74.888306,-42.84668
1766814461515,-1.1582031,-0.26416016,0.12060547,16.601562,14.221191,0.0,0.0,0.0,0.0,-40.946045,75.55847,-37.386475
1766814461604,-1.2558594,-0.22802734,-0.03515625,-6.225586,19.958496,-5.065918,0.0,0.0,0.0,-40.946045,75.55847,-37.386475
1766814461615,-1.2558594,-0.22802734,-0.03515625,-6.225586,19.958496,-5.065918,0.0,0.0,0.0,-45.510864,76.26709,-42.802734
1766814461703,-0.80615234,-0.09814453,0.23291016,-0.061035156,32.165527,-9.216309,0.0,0.0,0.0,-45.510864,76.26709,-42.802734
1766814461715,-0.80615234,-0.09814453,0.23291016,-0.061035156,32.165527,-9.216309,0.0,0.0,0.0,-60.551147,77.72278,-57.650757
1766814461803,-0.80371094,-0.41015625,0.5786133,-0.36621094,2.9296875,-0.6713867,0.0,0.0,0.0,-60.551147,77.72278,-57.650757
1766814461814,-0.80371094,-0.41015625,0.5786133,-0.36621094,2.9296875,-0.6713867,0.0,0.0,0.0,-71.17493,78.04138,-68.45032
1766814461903,-1.0380859,0.0107421875,-0.25830078,-33.14209,-40.95459,25.878906,0.0,0.0,0.0,-71.17493,78.04138,-68.45032
1766814461914,-1.0380859,0.0107421875,-0.25830078,-33.14209,-40.95459,25.878906,0.0,0.0,0.0,-46.46118,75.55298,-42.852173
1766814462002,-0.8959961,-0.21240234,0.24169922,5.6152344,5.79834,0.48828125,0.0,0.0,0.0,-46.46118,75.55298,-42.852173
1766814462014,-0.8959961,-0.21240234,0.24169922,5.6152344,5.79834,0.48828125,0.0,0.0,0.0,-48.883667,76.607666,-45.17578
1766814462102,-0.9765625,-0.21386719,0.03857422,14.892578,6.0424805,-5.92041,0.0,0.0,0.0,-48.883667,76.607666,-45.17578
1766814462114,-0.9765625,-0.21386719,0.03857422,14.892578,6.0424805,-5.92041,0.0,0.0,0.0,-46.900635,76.19568,-44.604492
1766814462202,-1.1030273,-0.25976562,0.040527344,2.0751953,15.50293,-0.4272461,0.0,0.0,0.0,-46.900635,76.19568,-44.604492
1766814462213,-1.1030273,-0.25976562,0.040527344,2.0751953,15.50293,-0.4272461,0.0,0.0,0.0,-51.921387,76.75598,-50.734863
1766814462301,-1.1943359,-0.24609375,-0.0703125,-22.033691,31.37207,6.4697266,0.0,0.0,0.0,-51.921387,76.75598,-50.734863
1766814462313,-1.1943359,-0.24609375,-0.0703125,-22.033691,31.37207,6.4697266,0.0,0.0,0.0,-59.88098,77.96997,-57.843018
1766814462401,-0.8095703,-0.115722656,0.1616211,-29.724121,3.8452148,-5.004883,0.0,0.0,0.0,-59.88098,77.96997,-57.843018
1766814462413,-0.8095703,-0.115722656,0.1616211,-29.724121,3.8452148,-5.004883,0.0,0.0,0.0,-76.30005,78.898315,-71.16943
1766814462501,-0.8701172,0.08886719,0.25585938,32.104492,-2.9296875,-16.723633,0.0,0.0,0.0,-76.30005,78.898315,-71.16943
1766814462512,-0.8701172,0.08886719,0.25585938,32.104492,-2.9296875,-16.723633,0.0,0.0,0.0,-74.37195,77.645874,-69.76318
1766814462600,-1.03125,-0.37353516,-0.071777344,-6.652832,-81.970215,23.07129,0.0,0.0,0.0,-74.37195,77.645874,-69.76318
1766814462612,-1.03125,-0.37353516,-0.071777344,-6.652832,-81.970215,23.07129,0.0,0.0,0.0,-44.225464,75.92102,-40.457153
1766814462700,-0.8691406,-0.037109375,0.26611328,-1.4648438,13.61084,-15.991211,0.0,0.0,0.0,-44.225464,75.92102,-40.457153
1766814462712,-0.8691406,-0.037109375,0.26611328,-1.4648438,13.61084,-15.991211,0.0,0.0,0.0,-48.68042,75.009155,-45.79651
1766814462800,-1.0004883,-0.20117188,0.0,-3.6010742,-20.202637,15.869141,0.0,0.0,0.0,-48.68042,75.009155,-45.79651
1766814462812,-1.0004883,-0.20117188,0.0,-3.6010742,-20.202637,15.869141,0.0,0.0,0.0,-40.336304,74.349976,-36.677856
1766814462900,-1.1748047,-0.21191406,0.16259766,2.5634766,13.61084,-4.0283203,0.0,0.0,0.0,-40.336304,74.349976,-36.677856
1766814462911,-1.1748047,-0.21191406,0.16259766,2.5634766,13.61084,-4.0283203,0.0,0.0,0.0,-43.269653,75.40466,-40.512085
1766814462999,-1.2109375,-0.18603516,-0.015625,-8.239746,25.32959,-8.7890625,0.0,0.0,0.0,-43.269653,75.40466,-40.512085
1766814463011,-1.2109375,-0.18603516,-0.015625,-8.239746,25.32959,-8.7890625,0.0,0.0,0.0,-50.20752,76.20117,-46.972046
1766814463099,-0.6694336,-0.14648438,0.2524414,4.5776367,30.578613,-6.958008,0.0,0.0,0.0,-50.20752,76.20117,-46.972046
1766814463111,-0.6694336,-0.14648438,0.2524414,4.5776367,30.578613,-6.958008,0.0,0.0,0.0,-64.26453,77.4646,-61.68274
1766814463199,-0.90185547,-0.36865234,0.5708008,9.094238,-29.35791,-4.272461,0.0,0.0,0.0,-64.26453,77.4646,-61.68274
1766814463211,-0.90185547,-0.36865234,0.5708008,9.094238,-29.35791,-4.272461,0.0,0.0,0.0,-65.423584,76.94824,-63.110962
1766814463299,-1.0288086,-0.07421875,-0.18066406,-14.343262,-17.333984,18.493652,0.0,0.0,0.0,-65.423584,76.94824,-63.110962
1766814463310,-1.0288086,-0.07421875,-0.18066406,-14.343262,-17.333984,18.493652,0.0,0.0,0.0,-42.286377,74.663086,-38.935547
1766814463398,-0.87939453,-0.23486328,0.25,13.793945,-3.112793,5.859375,0.0,0.0,0.0,-42.286377,74.663086,-38.935547
1766814463409,-0.87939453,-0.23486328,0.25,13.793945,-3.112793,5.859375,0.0,0.0,0.0,-44.121094,76.12427,-42.65442
1766814463498,-1.0649414,-0.27539062,0.03857422,2.0141602,-0.7324219,-3.9672852,0.0,0.0,0.0,-44.121094,76.12427,-42.65442
1766814463509,-1.0649414,-0.27539062,0.03857422,2.0141602,-0.7324219,-3.9672852,0.0,0.0,0.0,-40.38025,75.62988,-39.748535
1766814463597,-1.081543,-0.20166016,0.07519531,-5.3710938,15.869141,-2.380371,0.0,0.0,0.0,-40.38025,75.62988,-39.748535
1766814463609,-1.081543,-0.20166016,0.07519531,-5.3710938,15.869141,-2.380371,0.0,0.0,0.0,-47.702637,76.311035,-47.054443
1766814463697,-1.1259766,-0.3305664,0.2133789,-29.296875,32.714844,-1.0986328,0.0,0.0,0.0,-47.702637,76.311035,-47.054443
1766814463709,-1.1259766,-0.3305664,0.2133789,-29.296875,32.714844,-1.0986328,0.0,0.0,0.0,-59.155884,77.958984,-57.019043
1766814463797,-0.7651367,0.05419922,0.06347656,-6.591797,8.056641,-8.728027,0.0,0.0,0.0,-59.155884,77.958984,-57.019043
1766814463808,-0.7651367,0.05419922,0.06347656,-6.591797,8.056641,-8.728027,0.0,0.0,0.0,-67.54944,78.21167,-61.73767
1766814463896,-0.9291992,-0.12548828,0.55615234,28.625488,-40.161133,14.709473,0.0,0.0,0.0,-67.54944,78.21167,-61.73767
1766814463908,-0.9291992,-0.12548828,0.55615234,28.625488,-40.161133,14.709473,0.0,0.0,0.0,-63.693237,77.547,-60.682983
1766814463996,-0.9824219,-0.37451172,-0.1459961,12.145996,4.4555664,-17.456055,0.0,0.0,0.0,-63.693237,77.547,-60.682983
1766814464008,-0.9824219,-0.37451172,-0.1459961,12.145996,4.4555664,-17.456055,0.0,0.0,0.0,-38.842163,75.06409,-36.09558
1766814464096,-0.8569336,0.06738281,0.24804688,-7.080078,-28.076172,6.8359375,0.0,0.0,0.0,-38.842163,75.06409,-36.09558
1766814464107,-0.8569336,0.06738281,0.24804688,-7.080078,-28.076172,6.8359375,0.0,0.0,0.0,-44.989014,74.575195,-43.0719
1766814464196,-1.0576172,-0.2397461,0.061523438,8.728027,12.207031,2.1362305,0.0,0.0,0.0,-44.989014,74.575195,-43.0719
1766814464207,-1.0576172,-0.2397461,0.061523438,8.728027,12.207031,2.1362305,0.0,0.0,0.0,-37.018433,74.51477,-34.821167
1766814464295,-1.1494141,-0.22363281,0.10986328,-6.1035156,0.6713867,-5.065918,0.0,0.0,0.0,-37.018433,74.51477,-34.821167
1766814464307,-1.1494141,-0.22363281,0.10986328,-6.1035156,0.6713867,-5.065918,0.0,0.0,0.0,-41.380005,75.355225,-39.627686
1766814464395,-1.2211914,-0.091796875,0.09863281,-2.0141602,36.254883,-12.084961,0.0,0.0,0.0,-41.380005,75.355225,-39.627686
1766814464406,-1.2211914,-0.091796875,0.09863281,-2.0141602,36.254883,-12.084961,0.0,0.0,0.0,-50.251465,76.30005,-48.03772
1766814464495,-0.6245117,-0.16357422,0.35253906,12.451172,23.010254,-6.3476562,0.0,0.0,0.0,-50.251465,76.30005,-48.03772
1766814464506,-0.6245117,-0.16357422,0.35253906,12.451172,23.010254,-6.3476562,0.0,0.0,0.0,-62.962646,77.20642,-62.440796
1766814464594,-0.9116211,-0.23925781,0.37597656,11.474609,-64.208984,8.850098,0.0,0.0,0.0,-62.962646,77.20642,-62.440796
1766814464606,-0.9116211,-0.23925781,0.37597656,11.474609,-64.208984,8.850098,0.0,0.0,0.0,-57.06299,76.81091,-57.491455
1766814464694,-0.97753906,-0.08154297,-0.0024414062,14.892578,25.756836,1.3427734,0.0,0.0,0.0,-57.06299,76.81091,-57.491455
1766814464705,-0.97753906,-0.08154297,-0.0024414062,14.892578,25.756836,1.3427734,0.0,0.0,0.0,-43.654175,75.981445,-43.687134
1766814464794,-0.95166016,-0.2788086,0.08203125,18.127441,-13.61084,9.94873,0.0,0.0,0.0,-43.654175,75.981445,-43.687134
1766814464805,-0.95166016,-0.2788086,0.08203125,18.127441,-13.61084,9.94873,0.0,0.0,0.0,-40.792236,77.211914,-42.335815
1766814464893,-1.0595703,-0.20166016,0.067871094,7.385254,10.253906,-9.155273,0.0,0.0,0.0,-40.792236,77.211914,-42.335815
1766814464905,-1.0595703,-0.20166016,0.067871094,7.385254,10.253906,-9.155273,0.0,0.0,0.0,-42.648926,77.178955,-45.74707
1766814464993,-1.0561523,-0.21533203,-0.0078125,-0.061035156,16.601562,0.9765625,0.0,0.0,0.0,-42.648926,77.178955,-45.74707
1766814465005,-1.0561523,-0.21533203,-0.0078125,-0.061035156,16.601562,0.9765625,0.0,0.0,0.0,-48.603516,77.77771,-51.817017
1766814465093,-1.1367188,-0.34472656,0.2265625,-13.366699,54.138184,-11.413574,0.0,0.0,0.0,-48.603516,77.77771,-51.817017
1766814465104,-1.1367188,-0.34472656,0.2265625,-13.366699,54.138184,-11.413574,0.0,0.0,0.0,-66.50574,79.57947,-69.0271
1766814465193,-0.76904297,0.1665039,0.23339844,11.047363,-2.1972656,-14.953613,0.0,0.0,0.0,-66.50574,79.57947,-69.0271
1766814465204,-0.76904297,0.1665039,0.23339844,11.047363,-2.1972656,-14.953613,0.0,0.0,0.0,-79.260864,78.53577,-79.61243
1766814465292,-1.0449219,-0.45947266,0.11621094,-14.953613,-71.3501,32.409668,0.0,0.0,0.0,-79.260864,78.53577,-79.61243
1766814465304,-1.0449219,-0.45947266,0.11621094,-14.953613,-71.3501,32.409668,0.0,0.0,0.0,-53.48694,77.72278,-55.55237
1766814465392,-0.9140625,-0.15576172,0.18896484,-3.7231445,11.779785,-21.484375,0.0,0.0,0.0,-53.48694,77.72278,-55.55237
1766814465404,-0.9140625,-0.15576172,0.18896484,-3.7231445,11.779785,-21.484375,0.0,0.0,0.0,-49.51538,76.04187,-51.185303
1766814465492,-0.9291992,-0.07373047,-0.040527344,-8.972168,-26.489258,12.634277,0.0,0.0,0.0,-49.51538,76.04187,-51.185303
1766814465503,-0.9291992,-0.07373047,-0.040527344,-8.972168,-26.489258,12.634277,0.0,0.0,0.0,-46.329346,74.888306,-46.400757
1766814465591,-1.0610352,-0.18554688,0.03466797,19.77539,7.2631836,6.225586,0.0,0.0,0.0,-46.329346,74.888306,-46.400757
1766814465603,-1.0610352,-0.18554688,0.03466797,19.77539,7.2631836,6.225586,0.0,0.0,0.0,-41.73706,75.52002,-42.407227
1766814465691,-1.2368164,-0.31591797,0.033203125,-5.2490234,14.099121,-4.5166016,0.0,0.0,0.0,-41.73706,75.52002,-42.407227
1766814465703,-1.2368164,-0.31591797,0.033203125,-5.2490234,14.099121,-4.5166016,0.0,0.0,0.0,-42.08313,76.45386,-43.912354
1766814465791,-0.94433594,-0.044921875,0.2265625,16.052246,21.606445,-8.239746,0.0,0.0,0.0,-42.08313,76.45386,-43.912354
1766814465802,-0.94433594,-0.044921875,0.2265625,16.052246,21.606445,-8.239746,0.0,0.0,0.0,-56.260986,77.316284,-58.13965
1766814465890,-0.83935547,-0.34277344,0.54052734,-8.178711,-1.0986328,9.216309,0.0,0.0,0.0,-56.260986,77.316284,-58.13965
1766814465902,-0.83935547,-0.34277344,0.54052734,-8.178711,-1.0986328,9.216309,0.0,0.0,0.0,-60.809326,77.89307,-63.588867
1766814465990,-1.0390625,-0.047851562,-0.14257812,-9.033203,-45.10498,15.075684,0.0,0.0,0.0,-60.809326,77.89307,-63.588867
1766814466002,-1.0390625,-0.047851562,-0.14257812,-9.033203,-45.10498,15.075684,0.0,0.0,0.0,-41.759033,75.39368,-44.417725
1766814466090,-0.91503906,-0.17333984,0.18310547,7.2631836,7.080078,2.6855469,0.0,0.0,0.0,-41.759033,75.39368,-44.417725
1766814466101,-0.91503906,-0.17333984,0.18310547,7.2631836,7.080078,2.6855469,0.0,0.0,0.0,-39.451904,75.81665,-41.56128
1766814466190,-0.98046875,-0.23828125,0.15771484,11.535645,-4.4555664,-7.1411133,0.0,0.0,0.0,-39.451904,75.81665,-41.56128
1766814466201,-0.98046875,-0.23828125,0.15771484,11.535645,-4.4555664,-7.1411133,0.0,0.0,0.0,-39.265137,75.50354,-42.74231
1766814466289,-1.0800781,-0.2241211,0.032226562,-1.5258789,18.066406,-6.5307617,0.0,0.0,0.0,-39.265137,75.50354,-42.74231
1766814466301,-1.0800781,-0.2241211,0.032226562,-1.5258789,18.066406,-6.5307617,0.0,0.0,0.0,-41.89087,75.113525,-45.856934
1766814466389,-1.171875,-0.33154297,0.11376953,-28.503418,48.76709,4.1503906,0.0,0.0,0.0,-41.89087,75.113525,-45.856934
1766814466400,-1.171875,-0.33154297,0.11376953,-28.503418,48.76709,4.1503906,0.0,0.0,0.0,-52.64099,77.0636,-55.442505
1766814466489,-0.7548828,0.05126953,0.091796875,-30.212402,-6.5307617,-0.4272461,0.0,0.0,0.0,-52.64099,77.0636,-55.442505
1766814466500,-0.7548828,0.05126953,0.091796875,-30.212402,-6.5307617,-0.4272461,0.0,0.0,0.0,-67.26929,78.09082,-65.1709
1766814466588,-0.9213867,0.09082031,0.26220703,40.46631,-5.6762695,-12.634277,0.0,0.0,0.0,-67.26929,78.09082,-65.1709
1766814466600,-0.9213867,0.09082031,0.26220703,40.46631,-5.6762695,-12.634277,0.0,0.0,0.0,-63.253784,77.612915,-61.984863
1766814466688,-1.012207,-0.36669922,-0.13183594,10.192871,-43.151855,4.0893555,0.0,0.0,0.0,-63.253784,77.612915,-61.984863
1766814466699,-1.012207,-0.36669922,-0.13183594,10.192871,-43.151855,4.0893555,0.0,0.0,0.0,-39.490356,75.42114,-39.874878
1766814466788,-0.8149414,-0.0068359375,0.33544922,-6.1035156,0.6713867,-9.82666,0.0,0.0,0.0,-39.490356,75.42114,-39.874878
1766814466799,-0.8149414,-0.0068359375,0.33544922,-6.1035156,0.6713867,-9.82666,0.0,0.0,0.0,-48.554077,75.19043,-50.064697
1766814466887,-1.0869141,-0.23925781,-0.034179688,-10.498047,-22.216797,13.61084,0.0,0.0,0.0,-48.554077,75.19043,-50.064697
1766814466899,-1.0869141,-0.23925781,-0.034179688,-10.498047,-22.216797,13.61084,0.0,0.0,0.0,-36.68335,73.927,-36.485596
1766814466987,-1.1362305,-0.19921875,0.07373047,-15.441895,9.094238,-5.3100586,0.0,0.0,0.0,-36.68335,73.927,-36.485596
1766814466999,-1.1362305,-0.19921875,0.07373047,-15.441895,9.094238,-5.3100586,0.0,0.0,0.0,-40.9021,74.59717,-39.8584
1766814467087,-1.128418,-0.061523438,0.17578125,2.6855469,28.564453,-5.859375,0.0,0.0,0.0,-40.9021,74.59717,-39.8584
1766814467099,-1.128418,-0.061523438,0.17578125,2.6855469,28.564453,-5.859375,0.0,0.0,0.0,-51.14685,76.12427,-49.66919
1766814467187,-0.6665039,-0.25585938,0.37060547,-0.79345703,21.972656,0.5493164,0.0,0.0,0.0,-51.14685,76.12427,-49.66919
1766814467199,-0.6665039,-0.25585938,0.37060547,-0.79345703,21.972656,0.5493164,0.0,0.0,0.0,-58.64502,77.48657,-57.941895
1766814467286,-0.9536133,-0.11230469,0.27001953,-1.6479492,-64.208984,15.991211,0.0,0.0,0.0,-58.64502,77.48657,-57.941895
1766814467298,-0.9536133,-0.11230469,0.27001953,-1.6479492,-64.208984,15.991211,0.0,0.0,0.0,-48.88916,76.35498,-48.120117
1766814467386,-0.97265625,-0.14111328,0.017089844,19.592285,19.226074,0.79345703,0.0,0.0,0.0,-48.88916,76.35498,-48.120117
1766814467398,-0.97265625,-0.14111328,0.017089844,19.592285,19.226074,0.79345703,0.0,0.0,0.0,-39.79248,76.06384,-39.01245
1766814467486,-0.89746094,-0.22998047,0.14550781,17.456055,-10.498047,-1.6479492,0.0,0.0,0.0,-39.79248,76.06384,-39.01245
1766814467497,-0.89746094,-0.22998047,0.14550781,17.456055,-10.498047,-1.6479492,0.0,0.0,0.0,-37.474365,76.014404,-38.45215
1766814467586,-1.0996094,-0.21044922,0.067871094,9.460449,4.0283203,-7.751465,0.0,0.0,0.0,-37.474365,76.014404,-38.45215
1766814467597,-1.0996094,-0.21044922,0.067871094,9.460449,4.0283203,-7.751465,0.0,0.0,0.0,-38.325806,75.5365,-40.578003
1766814467686,-1.0976562,-0.24023438,0.03466797,-1.5869141,22.644043,-1.4648438,0.0,0.0,0.0,-38.325806,75.5365,-40.578003
1766814467697,-1.0976562,-0.24023438,0.03466797,-1.5869141,22.644043,-1.4648438,0.0,0.0,0.0,-44.835205,76.624146,-47.400513
1766814467785,-1.0175781,-0.20751953,0.30029297,-46.14258,14.587402,-3.6010742,0.0,0.0,0.0,-44.835205,76.624146,-47.400513
1766814467796,-1.0175781,-0.20751953,0.30029297,-46.14258,14.587402,-3.6010742,0.0,0.0,0.0,-59.67224,78.29956,-60.29297
1766814467884,-0.7915039,0.118652344,0.14892578,23.31543,10.7421875,-13.48877,0.0,0.0,0.0,-59.67224,78.29956,-60.29297
1766814467896,-0.7915039,0.118652344,0.14892578,23.31543,10.7421875,-13.48877,0.0,0.0,0.0,-64.105225,77.854614,-63.380127
1766814467984,-0.96728516,-0.3227539,0.32617188,4.3945312,-80.93262,29.418945,0.0,0.0,0.0,-64.105225,77.854614,-63.380127
1766814467995,-0.96728516,-0.3227539,0.32617188,4.3945312,-80.93262,29.418945,0.0,0.0,0.0,-48.779297,76.865845,-50.685425
1766814468084,-0.92333984,-0.1381836,0.110839844,10.986328,20.202637,-24.475098,0.0,0.0,0.0,-48.779297,76.865845,-50.685425
1766814468095,-0.92333984,-0.1381836,0.110839844,10.986328,20.202637,-24.475098,0.0,0.0,0.0,-41.797485,74.816895,-44.18152
1766814468183,-0.94628906,-0.09033203,0.096191406,-0.18310547,-27.648926,15.991211,0.0,0.0,0.0,-41.797485,74.816895,-44.18152
1766814468195,-0.94628906,-0.09033203,0.096191406,-0.18310547,-27.648926,15.991211,0.0,0.0,0.0,-39.402466,73.965454,-41.87439
1766814468283,-1.0996094,-0.20166016,0.13183594,7.5683594,17.63916,-5.92041,0.0,0.0,0.0,-39.402466,73.965454,-41.87439
1766814468295,-1.0996094,-0.20166016,0.13183594,7.5683594,17.63916,-5.92041,0.0,0.0,0.0,-37.798462,74.4928,-40.968018
1766814468383,-1.206543,-0.2109375,-0.0390625,-4.9438477,25.08545,-4.638672,0.0,0.0,0.0,-37.798462,74.4928,-40.968018
1766814468394,-1.206543,-0.2109375,-0.0390625,-4.9438477,25.08545,-4.638672,0.0,0.0,0.0,-44.40674,75.60791,-47.60376
1766814468483,-0.85546875,-0.10888672,0.25048828,14.038086,37.109375,-8.605957,0.0,0.0,0.0,-44.40674,75.60791,-47.60376
1766814468494,-0.85546875,-0.10888672,0.25048828,14.038086,37.109375,-8.605957,0.0,0.0,0.0,-60.166626,77.37671,-64.05029
1766814468582,-0.84228516,-0.39453125,0.55859375,-13.671875,6.713867,6.0424805,0.0,0.0,0.0,-60.166626,77.37671,-64.05029
1766814468594,-0.84228516,-0.39453125,0.55859375,-13.671875,6.713867,6.0424805,0.0,0.0,0.0,-68.703,78.134766,-72.41089
1766814468682,-1.0146484,0.03955078,-0.27246094,-6.8359375,-47.790527,22.827148,0.0,0.0,0.0,-68.703,78.134766,-72.41089
1766814468694,-1.0146484,0.03955078,-0.27246094,-6.8359375,-47.790527,22.827148,0.0,0.0,0.0,-44.42871,75.69031,-47.614746
1766814468782,-0.88183594,-0.20507812,0.22265625,7.2021484,4.5776367,5.92041,0.0,0.0,0.0,-44.42871,75.69031,-47.614746
1766814468793,-0.88183594,-0.20507812,0.22265625,7.2021484,4.5776367,5.92041,0.0,0.0,0.0,-44.1156,76.80542,-47.894897
1766814468881,-0.97998047,-0.23925781,0.06933594,16.601562,-0.5493164,-4.5776367,0.0,0.0,0.0,-44.1156,76.80542,-47.894897
1766814468893,-0.97998047,-0.23925781,0.06933594,16.601562,-0.5493164,-4.5776367,0.0,0.0,0.0,-40.358276,76.40991,-45.406494
1766814468981,-1.1064453,-0.24365234,0.036132812,2.4414062,17.27295,-0.18310547,0.0,0.0,0.0,-40.358276,76.40991,-45.406494
1766814468992,-1.1064453,-0.24365234,0.036132812,2.4414062,17.27295,-0.18310547,0.0,0.0,0.0,-43.43445,76.80542,-48.971558
1766814469081,-1.2041016,-0.28173828,0.020019531,-8.728027,33.813477,2.5634766,0.0,0.0,0.0,-43.43445,76.80542,-48.971558
1766814469092,-1.2041016,-0.28173828,0.020019531,-8.728027,33.813477,2.5634766,0.0,0.0,0.0,-52.08069,78.392944,-57.01355
1766814469181,-0.7915039,-0.08154297,0.10107422,-20.629883,2.8686523,-8.850098,0.0,0.0,0.0,-52.08069,78.392944,-57.01355
1766814469192,-0.7915039,-0.08154297,0.10107422,-20.629883,2.8686523,-8.850098,0.0,0.0,0.0,-63.53943,79.06311,-65.90698
1766814469280,-0.90283203,0.04248047,0.44726562,19.16504,-12.268066,0.61035156,0.0,0.0,0.0,-63.53943,79.06311,-65.90698
1766814469292,-0.90283203,0.04248047,0.44726562,19.16504,-12.268066,0.61035156,0.0,0.0,0.0,-63.814087,78.046875,-67.24182
1766814469380,-1.0332031,-0.34814453,-0.18554688,-1.3427734,-45.043945,0.0,0.0,0.0,0.0,-63.814087,78.046875,-67.24182
1766814469391,-1.0332031,-0.34814453,-0.18554688,-1.3427734,-45.043945,0.0,0.0,0.0,0.0,-37.353516,75.43762,-40.39673
1766814469480,-0.81640625,0.040039062,0.2915039,-2.1362305,2.0751953,-11.230469,0.0,0.0,0.0,-37.353516,75.43762,-40.39673
1766814469491,-0.81640625,0.040039062,0.2915039,-2.1362305,2.0751953,-11.230469,0.0,0.0,0.0,-44.505615,74.78943,-48.202515
1766814469579,-1.0908203,-0.26757812,0.06201172,-3.8452148,-21.1792,13.671875,0.0,0.0,0.0,-44.505615,74.78943,-48.202515
1766814469591,-1.0908203,-0.26757812,0.06201172,-3.8452148,-21.1792,13.671875,0.0,0.0,0.0,-35.85388,74.0094,-38.7323
1766814469681,-1.1401367,-0.18310547,0.08691406,-6.225586,8.911133,-9.82666,0.0,0.0,0.0,-35.85388,74.0094,-38.7323
1766814469691,-1.1401367,-0.18310547,0.08691406,-6.225586,8.911133,-9.82666,0.0,0.0,0.0,-37.210693,74.11926,-39.836426
1766814469779,-1.1450195,-0.119628906,0.13964844,4.699707,32.592773,-10.437012,0.0,0.0,0.0,-37.210693,74.11926,-39.836426
1766814469791,-1.1450195,-0.119628906,0.13964844,4.699707,32.592773,-10.437012,0.0,0.0,0.0,-45.05493,75.10254,-47.477417
1766814469878,-0.66845703,-0.24658203,0.41748047,-3.540039,28.808594,0.30517578,0.0,0.0,0.0,-45.05493,75.10254,-47.477417
1766814469891,-0.66845703,-0.24658203,0.41748047,-3.540039,28.808594,0.30517578,0.0,0.0,0.0,-56.969604,76.50879,-60.463257
1766814469978,-0.9169922,-0.053222656,0.421875,-4.211426,-71.28906,18.493652,0.0,0.0,0.0,-56.969604,76.50879,-60.463257
1766814469990,-0.9169922,-0.053222656,0.421875,-4.211426,-71.28906,18.493652,0.0,0.0,0.0,-54.206543,76.07483,-57.81006
1766814470078,-0.95996094,-0.16357422,-0.048339844,14.038086,27.038574,0.24414062,0.0,0.0,0.0,-54.206543,76.07483,-57.81006
1766814470089,-0.95996094,-0.16357422,-0.048339844,14.038086,27.038574,0.24414062,0.0,0.0,0.0,-37.08435,75.097046,-38.57849
1766814470177,-0.9057617,-0.22705078,0.19970703,8.056641,-9.094238,1.4038086,0.0,0.0,0.0,-37.08435,75.097046,-38.57849
1766814470189,-0.9057617,-0.22705078,0.19970703,8.056641,-9.094238,1.4038086,0.0,0.0,0.0,-38.897095,76.26709,-41.676636
1766814470277,-1.1352539,-0.2055664,0.025390625,-4.0283203,5.6762695,-2.8686523,0.0,0.0,0.0,-38.897095,76.26709,-41.676636
1766814470289,-1.1352539,-0.2055664,0.025390625,-4.0283203,5.6762695,-2.8686523,0.0,0.0,0.0,-39.413452,75.87158,-42.4292
1766814470377,-1.1928711,-0.1694336,0.026367188,-7.9956055,36.92627,-0.91552734,0.0,0.0,0.0,-39.413452,75.87158,-42.4292
1766814470388,-1.1928711,-0.1694336,0.026367188,-7.9956055,36.92627,-0.91552734,0.0,0.0,0.0,-47.58728,77.11853,-50.213013
1766814470477,-0.84277344,-0.12646484,0.23144531,-46.447754,3.2958984,-5.2490234,0.0,0.0,0.0,-47.58728,77.11853,-50.213013
1766814470488,-0.84277344,-0.12646484,0.23144531,-46.447754,3.2958984,-5.2490234,0.0,0.0,0.0,-66.066284,78.62915,-66.19263
1766814470576,-0.875,0.12011719,0.24853516,34.5459,9.460449,-13.73291,0.0,0.0,0.0,-66.066284,78.62915,-66.19263
1766814470588,-0.875,0.12011719,0.24853516,34.5459,9.460449,-13.73291,0.0,0.0,0.0,-67.62634,78.03589,-66.95618
1766814470676,-1.0083008,-0.37695312,0.24023438,-8.300781,-80.87158,36.315918,0.0,0.0,0.0,-67.62634,78.03589,-66.95618
1766814470687,-1.0083008,-0.37695312,0.24023438,-8.300781,-80.87158,36.315918,0.0,0.0,0.0,-46.604004,77.12402,-47.88391
1766814470776,-0.8984375,-0.09716797,0.15332031,16.174316,26.550293,-27.038574,0.0,0.0,0.0,-46.604004,77.12402,-47.88391
1766814470787,-0.8984375,-0.09716797,0.15332031,16.174316,26.550293,-27.038574,0.0,0.0,0.0,-46.257935,75.76172,-48.2135
1766814470875,-0.9604492,-0.09814453,0.055664062,-8.483887,-29.23584,23.254395,0.0,0.0,0.0,-46.257935,75.76172,-48.2135
1766814470887,-0.9604492,-0.09814453,0.055664062,-8.483887,-29.23584,23.254395,0.0,0.0,0.0,-40.231934,75.17944,-41.621704
1766814470975,-1.1430664,-0.23828125,0.13427734,2.0751953,13.73291,-1.7700195,0.0,0.0,0.0,-40.231934,75.17944,-41.621704
1766814470986,-1.1430664,-0.23828125,0.13427734,2.0751953,13.73291,-1.7700195,0.0,0.0,0.0,-37.875366,76.014404,-39.677124
1766814471075,-1.2163086,-0.19238281,-0.03564453,-13.48877,25.6958,-4.9438477,0.0,0.0,0.0,-37.875366,76.014404,-39.677124
1766814471086,-1.2163086,-0.19238281,-0.03564453,-13.48877,25.6958,-4.9438477,0.0,0.0,0.0,-46.2854,77.06909,-46.99951
1766814471174,-0.7651367,-0.048339844,0.19873047,17.150879,28.808594,-6.8359375,0.0,0.0,0.0,-46.2854,77.06909,-46.99951
1766814471186,-0.7651367,-0.048339844,0.19873047,17.150879,28.808594,-6.8359375,0.0,0.0,0.0,-61.210327,78.4314,-62.407837
1766814471274,-0.90966797,-0.39160156,0.5888672,1.5869141,-7.019043,13.977051,0.0,0.0,0.0,-61.210327,78.4314,-62.407837
1766814471286,-0.90966797,-0.39160156,0.5888672,1.5869141,-7.019043,13.977051,0.0,0.0,0.0,-64.93469,79.573975,-66.71997
1766814471374,-1.0439453,-0.04638672,-0.23291016,-3.540039,-21.54541,14.831543,0.0,0.0,0.0,-64.93469,79.573975,-66.71997
1766814471385,-1.0439453,-0.04638672,-0.23291016,-3.540039,-21.54541,14.831543,0.0,0.0,0.0,-36.63391,76.728516,-37.71057
1766814471473,-0.8745117,-0.15771484,0.2109375,10.986328,-14.160156,8.117676,0.0,0.0,0.0,-36.63391,76.728516,-37.71057
1766814471485,-0.8745117,-0.15771484,0.2109375,10.986328,-14.160156,8.117676,0.0,0.0,0.0,-38.259888,77.72827,-40.649414
1766814471573,-1.0131836,-0.18945312,0.057617188,24.841309,-4.699707,-6.3476562,0.0,0.0,0.0,-38.259888,77.72827,-40.649414
1766814471585,-1.0131836,-0.18945312,0.057617188,24.841309,-4.699707,-6.3476562,0.0,0.0,0.0,-32.887573,76.61316,-37.08435
1766814471673,-1.0820312,-0.20996094,0.08300781,10.925293,12.756348,-6.8359375,0.0,0.0,0.0,-32.887573,76.61316,-37.08435
1766814471684,-1.0820312,-0.20996094,0.08300781,10.925293,12.756348,-6.8359375,0.0,0.0,0.0,-37.243652,77.08557,-42.626953
1766814471773,-1.2124023,-0.2626953,0.075683594,-0.24414062,39.67285,-2.1362305,0.0,0.0,0.0,-37.243652,77.08557,-42.626953
1766814471785,-1.2124023,-0.2626953,0.075683594,-0.24414062,39.67285,-2.1362305,0.0,0.0,0.0,-45.983276,78.40393,-52.01477
1766814471872,-0.73876953,-0.078125,0.1508789,-26.97754,-8.239746,-9.033203,0.0,0.0,0.0,-45.983276,78.40393,-52.01477
1766814471884,-0.73876953,-0.078125,0.1508789,-26.97754,-8.239746,-9.033203,0.0,0.0,0.0,-56.167603,78.75,-59.639282
1766814471972,-0.9067383,-0.0126953125,0.4296875,25.390625,-12.756348,-3.2958984,0.0,0.0,0.0,-56.167603,78.75,-59.639282
1766814471984,-0.9067383,-0.0126953125,0.4296875,25.390625,-12.756348,-3.2958984,0.0,0.0,0.0,-54.11316,77.43713,-58.969116
1766814472072,-1.0205078,-0.3100586,-0.072753906,3.8452148,-31.49414,-0.5493164,0.0,0.0,0.0,-54.11316,77.43713,-58.969116
1766814472084,-1.0205078,-0.3100586,-0.072753906,3.8452148,-31.49414,-0.5493164,0.0,0.0,0.0,-34.590454,74.58069,-39.16626
1766814472171,-0.8569336,0.0063476562,0.18701172,-5.6762695,-5.3100586,-1.4648438,0.0,0.0,0.0,-34.590454,74.58069,-39.16626
1766814472183,-0.8569336,0.0063476562,0.18701172,-5.6762695,-5.3100586,-1.4648438,0.0,0.0,0.0,-38.24341,74.229126,-42.60498
1766814472271,-1.0668945,-0.24609375,0.13232422,3.479004,-0.36621094,4.272461,0.0,0.0,0.0,-38.24341,74.229126,-42.60498
1766814472283,-1.0668945,-0.24609375,0.13232422,3.479004,-0.36621094,4.272461,0.0,0.0,0.0,-33.953247,74.28406,-38.24341
1766814472371,-1.1206055,-0.15625,0.057617188,-12.145996,11.535645,-7.080078,0.0,0.0,0.0,-33.953247,74.28406,-38.24341
1766814472382,-1.1206055,-0.15625,0.057617188,-12.145996,11.535645,-7.080078,0.0,0.0,0.0,-38.50708,74.79492,-42.626953
1766814472470,-1.1787109,-0.076660156,0.23291016,-4.333496,33.14209,-12.817383,0.0,0.0,0.0,-38.50708,74.79492,-42.626953
1766814472482,-1.1787109,-0.076660156,0.23291016,-4.333496,33.14209,-12.817383,0.0,0.0,0.0,-50.976562,76.38245,-54.30542
1766814472570,-0.62060547,-0.23339844,0.37158203,-5.554199,21.057129,-0.18310547,0.0,0.0,0.0,-50.976562,76.38245,-54.30542
1766814472582,-0.62060547,-0.23339844,0.37158203,-5.554199,21.057129,-0.18310547,0.0,0.0,0.0,-58.43628,77.162476,-61.92993
1766814472670,-0.9404297,-0.048828125,0.40283203,-1.7089844,-74.645996,18.249512,0.0,0.0,0.0,-58.43628,77.162476,-61.92993
1766814472681,-0.9404297,-0.048828125,0.40283203,-1.7089844,-74.645996,18.249512,0.0,0.0,0.0,-51.558838,76.173706,-54.35486
1766814472770,-0.9609375,-0.14990234,-4.8828125E-4,13.366699,28.869629,-0.9765625,0.0,0.0,0.0,-51.558838,76.173706,-54.35486
1766814472781,-0.9609375,-0.14990234,-4.8828125E-4,13.366699,28.869629,-0.9765625,0.0,0.0,0.0,-36.11206,75.15198,-37.490845
1766814472869,-0.90478516,-0.23046875,0.171875,12.756348,-8.483887,-3.540039,0.0,0.0,0.0,-36.11206,75.15198,-37.490845
1766814472881,-0.90478516,-0.23046875,0.171875,12.756348,-8.483887,-3.540039,0.0,0.0,0.0,-37.683105,75.910034,-39.935303
1766814472969,-1.1459961,-0.20898438,-0.009277344,3.6010742,2.5024414,-4.272461,0.0,0.0,0.0,-37.683105,75.910034,-39.935303
1766814472982,-1.1459961,-0.20898438,-0.009277344,3.6010742,2.5024414,-4.272461,0.0,0.0,0.0,-37.886353,75.26184,-41.02295
1766814473069,-1.1445312,-0.203125,0.061035156,-11.291504,28.808594,0.91552734,0.0,0.0,0.0,-37.886353,75.26184,-41.02295
1766814473080,-1.1445312,-0.203125,0.061035156,-11.291504,28.808594,0.91552734,0.0,0.0,0.0,-46.153564,76.76697,-49.27368
1766814473168,-0.8364258,-0.13574219,0.22607422,-44.555664,15.319824,-9.82666,0.0,0.0,0.0,-46.153564,76.76697,-49.27368
1766814473180,-0.8364258,-0.13574219,0.22607422,-44.555664,15.319824,-9.82666,0.0,0.0,0.0,-64.385376,78.43689,-64.91272
1766814473268,-0.8901367,0.14257812,0.28222656,38.879395,-1.4648438,-15.136719,0.0,0.0,0.0,-64.385376,78.43689,-64.91272
1766814473280,-0.8901367,0.14257812,0.28222656,38.879395,-1.4648438,-15.136719,0.0,0.0,0.0,-67.7417,77.51953,-68.2251
1766814473368,-1.0458984,-0.3803711,-0.1772461,-10.070801,-58.532715,16.601562,0.0,0.0,0.0,-67.7417,77.51953,-68.2251
1766814473379,-1.0458984,-0.3803711,-0.1772461,-10.070801,-58.532715,16.601562,0.0,0.0,0.0,-41.462402,75.88806,-42.841187
1766814473468,-0.8198242,-0.017089844,0.30517578,0.6713867,10.009766,-16.540527,0.0,0.0,0.0,-41.462402,75.88806,-42.841187
1766814473479,-0.8198242,-0.017089844,0.30517578,0.6713867,10.009766,-16.540527,0.0,0.0,0.0,-47.8125,75.36072,-49.96582
1766814473567,-1.0898438,-0.23095703,-0.0014648438,-8.850098,-25.512695,22.888184,0.0,0.0,0.0,-47.8125,75.36072,-49.96582
1766814473579,-1.0898438,-0.23095703,-0.0014648438,-8.850098,-25.512695,22.888184,0.0,0.0,0.0,-37.666626,74.54224,-38.61145
1766814473667,-1.0893555,-0.15429688,0.123535156,-10.986328,13.549805,-4.5776367,0.0,0.0,0.0,-37.666626,74.54224,-38.61145
1766814473679,-1.0893555,-0.15429688,0.123535156,-10.986328,13.549805,-4.5776367,0.0,0.0,0.0,-39.171753,75.322266,-39.75403
1766814473767,-1.1918945,-0.106933594,0.051757812,-8.972168,27.09961,-5.004883,0.0,0.0,0.0,-39.171753,75.322266,-39.75403
1766814473778,-1.1918945,-0.106933594,0.051757812,-8.972168,27.09961,-5.004883,0.0,0.0,0.0,-46.0437,76.61865,-45.461426
1766814473866,-0.6660156,-0.15136719,0.29638672,8.422852,26.428223,-1.0375977,0.0,0.0,0.0,-46.0437,76.61865,-45.461426
1766814473878,-0.6660156,-0.15136719,0.29638672,8.422852,26.428223,-1.0375977,0.0,0.0,0.0,-56.44226,78.12378,-56.651
1766814473966,-0.9506836,-0.18896484,0.46240234,4.699707,-56.152344,7.446289,0.0,0.0,0.0,-56.44226,78.12378,-56.651
1766814473977,-0.9506836,-0.18896484,0.46240234,4.699707,-56.152344,7.446289,0.0,0.0,0.0,-55.66223,78.40393,-56.315918
1766814474066,-0.98535156,-0.12451172,-0.026855469,22.338867,12.084961,-2.4414062,0.0,0.0,0.0,-55.66223,78.40393,-56.315918
1766814474077,-0.98535156,-0.12451172,-0.026855469,22.338867,12.084961,-2.4414062,0.0,0.0,0.0,-35.31006,76.09131,-35.859375
1766814474165,-0.91552734,-0.22753906,0.20361328,21.78955,-20.568848,1.8920898,0.0,0.0,0.0,-35.31006,76.09131,-35.859375
1766814474177,-0.91552734,-0.22753906,0.20361328,21.78955,-20.568848,1.8920898,0.0,0.0,0.0,-33.986206,76.32202,-36.66687
1766814474265,-1.0668945,-0.234375,0.08691406,8.544922,-5.3710938,-7.9345703,0.0,0.0,0.0,-33.986206,76.32202,-36.66687
1766814474277,-1.0668945,-0.234375,0.08691406,8.544922,-5.3710938,-7.9345703,0.0,0.0,0.0,-31.206665,74.8938,-35.529785
1766814474365,-1.0786133,-0.1850586,0.095703125,3.540039,11.779785,-7.5683594,0.0,0.0,0.0,-31.206665,74.8938,-35.529785
1766814474377,-1.0786133,-0.1850586,0.095703125,3.540039,11.779785,-7.5683594,0.0,0.0,0.0,-36.21643,74.992676,-41.347046
1766814474467,-1.1430664,-0.34179688,0.18798828,-11.291504,43.5791,-7.507324,0.0,0.0,0.0,-36.21643,74.992676,-41.347046
1766814474478,-1.1430664,-0.34179688,0.18798828,-11.291504,43.5791,-7.507324,0.0,0.0,0.0,-44.088135,76.519775,-49.015503
1766814474564,-0.70410156,0.053710938,0.20263672,-8.361816,-6.164551,-11.108398,0.0,0.0,0.0,-44.088135,76.519775,-49.015503
1766814474576,-0.70410156,0.053710938,0.20263672,-8.361816,-6.164551,-11.108398,0.0,0.0,0.0,-56.70044,76.82739,-58.71643
1766814474664,-0.9658203,-0.16748047,0.49267578,16.845703,-43.70117,11.962891,0.0,0.0,0.0,-56.70044,76.82739,-58.71643
