timestamp,accX,accY,accZ,gyroX,gyroY,gyroZ,magX,magY,magZ,roll,pitch,yaw
1765378449022,-0.6333008,-0.49365234,0.16503906,33.75244,-1.2817383,-23.925781,0.0,0.0,0.0,-73.62488,54.18457,127.71057
1765378449033,-0.6333008,-0.49365234,0.16503906,33.75244,-1.2817383,-23.925781,0.0,0.0,0.0,-72.14172,52.74536,129.99023
1765378449122,-0.8774414,-0.4897461,-0.03125,-16.540527,-13.000488,12.329102,0.0,0.0,0.0,-72.14172,52.74536,129.99023
1765378449133,-0.8774414,-0.4897461,-0.03125,-16.540527,-13.000488,12.329102,0.0,0.0,0.0,-72.767944,51.498413,127.0459
1765378449222,-0.9589844,-0.54345703,0.037109375,-92.041016,-23.07129,54.44336,0.0,0.0,0.0,-72.767944,51.498413,127.0459
1765378449233,-0.9589844,-0.54345703,0.037109375,-92.041016,-23.07129,54.44336,0.0,0.0,0.0,-73.201904,54.239502,133.0719
1765378449321,-1.2617188,-0.6640625,0.24804688,-10.986328,4.0283203,3.112793,0.0,0.0,0.0,-73.201904,54.239502,133.0719
1765378449333,-1.2617188,-0.6640625,0.24804688,-10.986328,4.0283203,3.112793,0.0,0.0,0.0,-76.05286,57.38159,134.62097
1765378449421,-0.45507812,-0.31591797,0.1303711,56.152344,25.6958,-0.7324219,0.0,0.0,0.0,-76.05286,57.38159,134.62097
1765378449432,-0.45507812,-0.31591797,0.1303711,56.152344,25.6958,-0.7324219,0.0,0.0,0.0,-74.84985,57.733154,132.55554
1765378449520,-1.0395508,-0.8432617,0.15820312,19.226074,34.42383,-9.887695,0.0,0.0,0.0,-74.84985,57.733154,132.55554
1765378449532,-1.0395508,-0.8432617,0.15820312,19.226074,34.42383,-9.887695,0.0,0.0,0.0,-77.36572,57.540894,124.40369
1765378449621,-0.77734375,-0.43115234,-0.04638672,8.422852,-32.53174,11.230469,0.0,0.0,0.0,-77.36572,57.540894,124.40369
1765378449632,-0.77734375,-0.43115234,-0.04638672,8.422852,-32.53174,11.230469,0.0,0.0,0.0,-72.734985,57.01355,126.62842
1765378449720,-0.7285156,-0.6010742,0.14501953,45.532227,22.888184,-16.418457,0.0,0.0,0.0,-72.734985,57.01355,126.62842
1765378449731,-0.7285156,-0.6010742,0.14501953,45.532227,22.888184,-16.418457,0.0,0.0,0.0,-70.06531,56.903687,126.93054
1765378449820,-0.8515625,-0.6699219,0.036132812,21.911621,53.40576,-21.30127,0.0,0.0,0.0,-70.06531,56.903687,126.93054
1765378449831,-0.8515625,-0.6699219,0.036132812,21.911621,53.40576,-21.30127,0.0,0.0,0.0,-75.17395,55.464478,117.020874
1765378449919,-0.96728516,-0.6455078,0.34960938,-49.926758,-33.081055,12.878418,0.0,0.0,0.0,-75.17395,55.464478,117.020874
1765378449931,-0.96728516,-0.6455078,0.34960938,-49.926758,-33.081055,12.878418,0.0,0.0,0.0,-79.39819,55.69519,117.108765
1765378450019,-0.80078125,-0.3125,0.16748047,-29.541016,-27.038574,-13.549805,0.0,0.0,0.0,-79.39819,55.69519,117.108765
1765378450031,-0.80078125,-0.3125,0.16748047,-29.541016,-27.038574,-13.549805,0.0,0.0,0.0,-74.278564,54.261475,125.546265
1765378450119,-0.6533203,-0.6591797,0.234375,27.526855,-7.2021484,-37.53662,0.0,0.0,0.0,-74.278564,54.261475,125.546265
1765378450130,-0.6533203,-0.6591797,0.234375,27.526855,-7.2021484,-37.53662,0.0,0.0,0.0,-73.064575,51.811523,126.05713
1765378450219,-0.8457031,-0.42138672,-0.045898438,-16.418457,-33.935547,4.0283203,0.0,0.0,0.0,-73.064575,51.811523,126.05713
1765378450230,-0.8457031,-0.42138672,-0.045898438,-16.418457,-33.935547,4.0283203,0.0,0.0,0.0,-73.52051,49.87793,125.29907
1765378450318,-0.95751953,-0.58740234,0.103027344,-32.53174,-18.920898,27.770996,0.0,0.0,0.0,-73.52051,49.87793,125.29907
1765378450330,-0.95751953,-0.58740234,0.103027344,-32.53174,-18.920898,27.770996,0.0,0.0,0.0,-72.60315,52.88269,134.17603
1765378450418,-1.0371094,-0.6689453,0.2685547,-9.643555,19.77539,7.8125,0.0,0.0,0.0,-72.60315,52.88269,134.17603
1765378450429,-1.0371094,-0.6689453,0.2685547,-9.643555,19.77539,7.8125,0.0,0.0,0.0,-74.295044,53.723145,133.45093
1765378450518,-0.46875,-0.41308594,0.18017578,34.301758,1.3427734,4.333496,0.0,0.0,0.0,-74.295044,53.723145,133.45093
1765378450530,-0.46875,-0.41308594,0.18017578,34.301758,1.3427734,4.333496,0.0,0.0,0.0,-73.515015,55.074463,131.52283
1765378450617,-1.0385742,-0.6113281,0.25927734,-11.047363,-14.038086,18.737793,0.0,0.0,0.0,-73.515015,55.074463,131.52283
1765378450629,-1.0385742,-0.6113281,0.25927734,-11.047363,-14.038086,18.737793,0.0,0.0,0.0,-73.289795,55.00305,130.63293
1765378450717,-0.7211914,-0.45361328,0.10546875,36.56006,2.5634766,-6.286621,0.0,0.0,0.0,-73.289795,55.00305,130.63293
1765378450729,-0.7211914,-0.45361328,0.10546875,36.56006,2.5634766,-6.286621,0.0,0.0,0.0,-68.653564,55.914917,135.1593
1765378450817,-0.73291016,-0.6298828,0.140625,43.33496,45.166016,-23.55957,0.0,0.0,0.0,-68.653564,55.914917,135.1593
1765378450828,-0.73291016,-0.6298828,0.140625,43.33496,45.166016,-23.55957,0.0,0.0,0.0,-68.80188,55.513916,129.88037
1765378450917,-0.9433594,-0.7910156,0.16845703,-18.676758,10.925293,-11.962891,0.0,0.0,0.0,-68.80188,55.513916,129.88037
1765378450928,-0.9433594,-0.7910156,0.16845703,-18.676758,10.925293,-11.962891,0.0,0.0,0.0,-72.34497,53.739624,122.55798
1765378451016,-0.8183594,-0.46435547,0.29541016,-22.888184,-24.353027,12.634277,0.0,0.0,0.0,-72.34497,53.739624,122.55798
1765378451028,-0.8183594,-0.46435547,0.29541016,-22.888184,-24.353027,12.634277,0.0,0.0,0.0,-75.476074,54.596558,124.60144
1765378451116,-1.0244141,-0.59521484,0.29052734,-29.541016,-4.333496,-23.254395,0.0,0.0,0.0,-75.476074,54.596558,124.60144
1765378451127,-1.0244141,-0.59521484,0.29052734,-29.541016,-4.333496,-23.254395,0.0,0.0,0.0,-73.66333,53.986816,129.89685
1765378451216,-0.5214844,-0.4248047,0.29492188,15.563965,18.432617,-38.146973,0.0,0.0,0.0,-73.66333,53.986816,129.89685
1765378451227,-0.5214844,-0.4248047,0.29492188,15.563965,18.432617,-38.146973,0.0,0.0,0.0,-72.72949,50.603027,127.683105
1765378451316,-0.7949219,-0.51708984,-0.076660156,-28.686523,-35.461426,31.188965,0.0,0.0,0.0,-72.72949,50.603027,127.683105
1765378451327,-0.7949219,-0.51708984,-0.076660156,-28.686523,-35.461426,31.188965,0.0,0.0,0.0,-73.40515,50.652466,126.41968
1765378451415,-0.8808594,-0.54345703,0.1977539,-27.160645,-15.686035,12.573242,0.0,0.0,0.0,-73.40515,50.652466,126.41968
1765378451427,-0.8808594,-0.54345703,0.1977539,-27.160645,-15.686035,12.573242,0.0,0.0,0.0,-73.795166,52.73987,133.86292
1765378451515,-1.0908203,-0.7109375,0.3623047,15.563965,13.793945,-7.751465,0.0,0.0,0.0,-73.795166,52.73987,133.86292
1765378451526,-1.0908203,-0.7109375,0.3623047,15.563965,13.793945,-7.751465,0.0,0.0,0.0,-74.65759,53.047485,133.15979
1765378451615,-0.31445312,-0.34326172,0.19628906,16.174316,7.385254,10.7421875,0.0,0.0,0.0,-74.65759,53.047485,133.15979
1765378451626,-0.31445312,-0.34326172,0.19628906,16.174316,7.385254,10.7421875,0.0,0.0,0.0,-73.0426,53.607788,131.56677
1765378451714,-1.1074219,-0.69433594,0.21679688,14.526367,-53.527832,-14.038086,0.0,0.0,0.0,-73.0426,53.607788,131.56677
1765378451726,-1.1074219,-0.69433594,0.21679688,14.526367,-53.527832,-14.038086,0.0,0.0,0.0,-70.389404,52.72888,133.53882
1765378451814,-0.5185547,-0.5385742,0.21289062,19.53125,16.967773,3.479004,0.0,0.0,0.0,-70.389404,52.72888,133.53882
1765378451826,-0.5185547,-0.5385742,0.21289062,19.53125,16.967773,3.479004,0.0,0.0,0.0,-65.599365,52.075195,136.604
1765378451915,-0.76904297,-0.67822266,0.05517578,50.53711,29.846191,-40.34424,0.0,0.0,0.0,-65.599365,52.075195,136.604
1765378451926,-0.76904297,-0.67822266,0.05517578,50.53711,29.846191,-40.34424,0.0,0.0,0.0,-66.75842,51.849976,131.00647
1765378452014,-0.8408203,-0.6381836,0.1928711,-34.057617,-11.047363,22.399902,0.0,0.0,0.0,-66.75842,51.849976,131.00647
1765378452025,-0.8408203,-0.6381836,0.1928711,-34.057617,-11.047363,22.399902,0.0,0.0,0.0,-68.4613,50.92163,128.88611
1765378452113,-0.88964844,-0.6870117,0.4423828,11.047363,-11.962891,-7.2021484,0.0,0.0,0.0,-68.4613,50.92163,128.88611
1765378452125,-0.88964844,-0.6870117,0.4423828,11.047363,-11.962891,-7.2021484,0.0,0.0,0.0,-69.505005,51.49292,128.9685
1765378452213,-0.6899414,-0.34179688,0.33251953,-38.146973,-18.066406,-36.743164,0.0,0.0,0.0,-69.505005,51.49292,128.9685
1765378452225,-0.6899414,-0.34179688,0.33251953,-38.146973,-18.066406,-36.743164,0.0,0.0,0.0,-67.56592,48.47168,130.0946
1765378452313,-0.71875,-0.5488281,0.21972656,32.53174,-3.8452148,-36.254883,0.0,0.0,0.0,-67.56592,48.47168,130.0946
1765378452325,-0.71875,-0.5488281,0.21972656,32.53174,-3.8452148,-36.254883,0.0,0.0,0.0,-65.40161,45.873413,132.57202
1765378452413,-0.6791992,-0.49853516,0.20898438,28.930664,15.075684,9.460449,0.0,0.0,0.0,-65.40161,45.873413,132.57202
1765378452424,-0.6791992,-0.49853516,0.20898438,28.930664,15.075684,9.460449,0.0,0.0,0.0,-63.5614,43.917847,130.11658
1765378452512,-0.8544922,-0.88916016,0.22167969,-50.842285,31.49414,33.691406,0.0,0.0,0.0,-63.5614,43.917847,130.11658
1765378452524,-0.8544922,-0.88916016,0.22167969,-50.842285,31.49414,33.691406,0.0,0.0,0.0,-66.62109,47.91687,127.76001
1765378452612,-0.9506836,-0.70947266,0.26757812,-83.618164,-30.090332,13.000488,0.0,0.0,0.0,-66.62109,47.91687,127.76001
1765378452624,-0.9506836,-0.70947266,0.26757812,-83.618164,-30.090332,13.000488,0.0,0.0,0.0,-71.032104,48.96057,128.07312
1765378452712,-0.44335938,-0.31298828,0.31689453,-59.692383,-52.978516,32.104492,0.0,0.0,0.0,-71.032104,48.96057,128.07312
1765378452723,-0.44335938,-0.31298828,0.31689453,-59.692383,-52.978516,32.104492,0.0,0.0,0.0,-68.670044,50.88318,137.49939
1765378452811,-1.0390625,-0.59375,0.27197266,31.066895,-20.385742,-10.070801,0.0,0.0,0.0,-68.670044,50.88318,137.49939
1765378452823,-1.0390625,-0.59375,0.27197266,31.066895,-20.385742,-10.070801,0.0,0.0,0.0,-65.494995,50.482178,143.32214
1765378452912,-0.50927734,-0.58203125,0.1171875,64.39209,75.07324,-22.216797,0.0,0.0,0.0,-65.494995,50.482178,143.32214
1765378452923,-0.50927734,-0.58203125,0.1171875,64.39209,75.07324,-22.216797,0.0,0.0,0.0,-65.84656,50.229492,136.2085
1765378453011,-0.81591797,-0.7607422,-0.036132812,29.60205,57.06787,-6.164551,0.0,0.0,0.0,-65.84656,50.229492,136.2085
1765378453022,-0.81591797,-0.7607422,-0.036132812,29.60205,57.06787,-6.164551,0.0,0.0,0.0,-70.60364,50.822754,121.89331
1765378453112,-0.9482422,-0.70751953,0.12646484,-42.053223,-18.249512,19.714355,0.0,0.0,0.0,-70.60364,50.822754,121.89331
1765378453123,-0.9482422,-0.70751953,0.12646484,-42.053223,-18.249512,19.714355,0.0,0.0,0.0,-72.647095,51.833496,121.56372
1765378453211,-0.7871094,-0.38476562,0.26513672,16.113281,21.362305,4.638672,0.0,0.0,0.0,-72.647095,51.833496,121.56372
1765378453223,-0.7871094,-0.38476562,0.26513672,16.113281,21.362305,4.638672,0.0,0.0,0.0,-74.21265,53.16284,119.73999
1765378453310,-0.88183594,-0.6743164,0.22265625,46.325684,14.526367,-36.865234,0.0,0.0,0.0,-74.21265,53.16284,119.73999
1765378453323,-0.88183594,-0.6743164,0.22265625,46.325684,14.526367,-36.865234,0.0,0.0,0.0,-72.13074,52.871704,119.17969
1765378453412,-0.59521484,-0.5966797,0.15673828,39.978027,81.29883,-63.415527,0.0,0.0,0.0,-72.13074,52.871704,119.17969
1765378453422,-0.59521484,-0.5966797,0.15673828,39.978027,81.29883,-63.415527,0.0,0.0,0.0,-70.911255,48.147583,112.40112
1765378453510,-0.7373047,-0.59375,0.07861328,-67.68799,-45.043945,46.99707,0.0,0.0,0.0,-70.911255,48.147583,112.40112
1765378453522,-0.7373047,-0.59375,0.07861328,-67.68799,-45.043945,46.99707,0.0,0.0,0.0,-74.141235,47.944336,107.31995
1765378453609,-0.9580078,-0.68310547,0.18945312,-34.118652,-26.611328,19.836426,0.0,0.0,0.0,-74.141235,47.944336,107.31995
1765378453621,-0.9580078,-0.68310547,0.18945312,-34.118652,-26.611328,19.836426,0.0,0.0,0.0,-73.49304,50.317383,119.53125
1765378453709,-0.9140625,-0.6435547,0.3154297,-18.249512,5.2490234,11.901855,0.0,0.0,0.0,-73.49304,50.317383,119.53125
1765378453721,-0.9140625,-0.6435547,0.3154297,-18.249512,5.2490234,11.901855,0.0,0.0,0.0,-76.14624,51.56433,121.173706
1765378453809,-0.5,-0.52734375,0.24365234,-7.9345703,-14.892578,12.390137,0.0,0.0,0.0,-76.14624,51.56433,121.173706
1765378453820,-0.5,-0.52734375,0.24365234,-7.9345703,-14.892578,12.390137,0.0,0.0,0.0,-74.0094,52.58606,123.78845
1765378453909,-0.9838867,-0.5371094,0.09863281,-3.2958984,-31.982422,16.174316,0.0,0.0,0.0,-74.0094,52.58606,123.78845
1765378453920,-0.9838867,-0.5371094,0.09863281,-3.2958984,-31.982422,16.174316,0.0,0.0,0.0,-71.56494,53.16284,127.38098
1765378454008,-0.6484375,-0.47460938,0.1381836,33.996582,8.300781,-3.1738281,0.0,0.0,0.0,-71.56494,53.16284,127.38098
1765378454020,-0.6484375,-0.47460938,0.1381836,33.996582,8.300781,-3.1738281,0.0,0.0,0.0,-68.395386,53.61328,129.56177
1765378454108,-0.7011719,-0.69970703,0.12597656,28.381348,39.79492,-21.240234,0.0,0.0,0.0,-68.395386,53.61328,129.56177
1765378454119,-0.7011719,-0.69970703,0.12597656,28.381348,39.79492,-21.240234,0.0,0.0,0.0,-69.697266,53.432007,124.04114
1765378454208,-0.92626953,-0.7319336,0.07421875,-48.095703,-5.3100586,12.512207,0.0,0.0,0.0,-69.697266,53.432007,124.04114
1765378454219,-0.92626953,-0.7319336,0.07421875,-48.095703,-5.3100586,12.512207,0.0,0.0,0.0,-72.614136,52.893677,121.37695
1765378454307,-0.70751953,-0.4555664,0.3017578,1.7089844,-33.203125,6.1035156,0.0,0.0,0.0,-72.614136,52.893677,121.37695
1765378454319,-0.70751953,-0.4555664,0.3017578,1.7089844,-33.203125,6.1035156,0.0,0.0,0.0,-74.42139,53.970337,124.227905
1765378454407,-0.8989258,-0.55908203,0.39013672,-29.663086,-13.122559,-19.836426,0.0,0.0,0.0,-74.42139,53.970337,124.227905
1765378454419,-0.8989258,-0.55908203,0.39013672,-29.663086,-13.122559,-19.836426,0.0,0.0,0.0,-71.66931,51.970825,128.90808
1765378454507,-0.5991211,-0.46972656,0.26171875,11.474609,31.433105,-35.705566,0.0,0.0,0.0,-71.66931,51.970825,128.90808
1765378454518,-0.5991211,-0.46972656,0.26171875,11.474609,31.433105,-35.705566,0.0,0.0,0.0,-71.312256,49.44397,125.930786
1765378454607,-0.8183594,-0.51220703,-0.029785156,-19.958496,-9.155273,25.817871,0.0,0.0,0.0,-71.312256,49.44397,125.930786
1765378454618,-0.8183594,-0.51220703,-0.029785156,-19.958496,-9.155273,25.817871,0.0,0.0,0.0,-74.00391,50.229492,123.45337
1765378454706,-0.9428711,-0.62060547,0.11816406,-40.95459,1.5258789,16.174316,0.0,0.0,0.0,-74.00391,50.229492,123.45337
1765378454718,-0.9428711,-0.62060547,0.11816406,-40.95459,1.5258789,16.174316,0.0,0.0,0.0,-77.84363,52.9541,125.77698
1765378454806,-0.82910156,-0.54296875,0.21972656,15.991211,17.028809,14.953613,0.0,0.0,0.0,-77.84363,52.9541,125.77698
1765378454818,-0.82910156,-0.54296875,0.21972656,15.991211,17.028809,14.953613,0.0,0.0,0.0,-80.34302,54.970093,123.87634
1765378454906,-0.6542969,-0.7290039,0.21484375,19.40918,12.207031,-13.793945,0.0,0.0,0.0,-80.34302,54.970093,123.87634
1765378454918,-0.6542969,-0.7290039,0.21484375,19.40918,12.207031,-13.793945,0.0,0.0,0.0,-77.23389,55.338135,123.32703
1765378455006,-0.8510742,-0.46191406,-0.012207031,12.878418,-35.27832,22.399902,0.0,0.0,0.0,-77.23389,55.338135,123.32703
1765378455017,-0.8510742,-0.46191406,-0.012207031,12.878418,-35.27832,22.399902,0.0,0.0,0.0,-74.48181,55.074463,124.552
1765378455105,-0.70410156,-0.50146484,0.12792969,50.90332,7.873535,-9.887695,0.0,0.0,0.0,-74.48181,55.074463,124.552
1765378455117,-0.70410156,-0.50146484,0.12792969,50.90332,7.873535,-9.887695,0.0,0.0,0.0,-69.77417,55.22278,127.490845
1765378455205,-0.71484375,-0.72802734,0.111816406,42.3584,44.433594,-39.245605,0.0,0.0,0.0,-69.77417,55.22278,127.490845
1765378455217,-0.71484375,-0.72802734,0.111816406,42.3584,44.433594,-39.245605,0.0,0.0,0.0,-71.20239,53.640747,120.739746
1765378455305,-1.137207,-0.82128906,0.2939453,-90.63721,-18.493652,21.30127,0.0,0.0,0.0,-71.20239,53.640747,120.739746
1765378455316,-1.137207,-0.82128906,0.2939453,-90.63721,-18.493652,21.30127,0.0,0.0,0.0,-76.93176,53.113403,118.65784
1765378455405,-0.57666016,-0.32080078,0.20898438,-34.42383,-31.555176,-19.89746,0.0,0.0,0.0,-76.93176,53.113403,118.65784
1765378455416,-0.57666016,-0.32080078,0.20898438,-34.42383,-31.555176,-19.89746,0.0,0.0,0.0,-73.756714,52.487183,127.55676
1765378455504,-0.86279297,-0.6894531,0.19238281,48.339844,27.770996,-10.986328,0.0,0.0,0.0,-73.756714,52.487183,127.55676
1765378455517,-0.86279297,-0.6894531,0.19238281,48.339844,27.770996,-10.986328,0.0,0.0,0.0,-74.95422,51.394043,127.46338
1765378455604,-0.6972656,-0.41748047,-0.060058594,45.10498,27.648926,-30.700684,0.0,0.0,0.0,-74.95422,51.394043,127.46338
1765378455615,-0.6972656,-0.41748047,-0.060058594,45.10498,27.648926,-30.700684,0.0,0.0,0.0,-76.07483,49.37805,121.15723
1765378455704,-0.9008789,-0.66308594,0.072265625,-55.908203,-26.000977,40.95459,0.0,0.0,0.0,-76.07483,49.37805,121.15723
1765378455715,-0.9008789,-0.66308594,0.072265625,-55.908203,-26.000977,40.95459,0.0,0.0,0.0,-74.96521,50.17456,122.88757
1765378455804,-0.9379883,-0.6401367,0.21044922,-25.08545,2.8076172,12.390137,0.0,0.0,0.0,-74.96521,50.17456,122.88757
1765378455816,-0.9379883,-0.6401367,0.21044922,-25.08545,2.8076172,12.390137,0.0,0.0,0.0,-77.10205,52.651978,125.392456
1765378455904,-0.5234375,-0.5004883,0.20019531,21.057129,6.8969727,14.831543,0.0,0.0,0.0,-77.10205,52.651978,125.392456
1765378455915,-0.5234375,-0.5004883,0.20019531,21.057129,6.8969727,14.831543,0.0,0.0,0.0,-76.9812,54.179077,125.112305
1765378456005,-1.0493164,-0.6401367,0.15332031,1.4648438,-26.855469,9.155273,0.0,0.0,0.0,-76.9812,54.179077,125.112305
1765378456015,-1.0493164,-0.6401367,0.15332031,1.4648438,-26.855469,9.155273,0.0,0.0,0.0,-75.48157,53.75061,124.92554
1765378456103,-0.69433594,-0.42236328,0.08203125,16.662598,-6.4697266,23.68164,0.0,0.0,0.0,-75.48157,53.75061,124.92554
1765378456114,-0.69433594,-0.42236328,0.08203125,16.662598,-6.4697266,23.68164,0.0,0.0,0.0,-69.76318,55.480957,131.3855
1765378456202,-0.6777344,-0.6933594,0.106933594,35.217285,23.4375,-26.428223,0.0,0.0,0.0,-69.76318,55.480957,131.3855
1765378456214,-0.6777344,-0.6933594,0.106933594,35.217285,23.4375,-26.428223,0.0,0.0,0.0,-68.68652,55.6073,129.5398
1765378456302,-1.015625,-0.66552734,0.11669922,-60.791016,-6.3476562,15.319824,0.0,0.0,0.0,-68.68652,55.6073,129.5398
1765378456313,-1.015625,-0.66552734,0.11669922,-60.791016,-6.3476562,15.319824,0.0,0.0,0.0,-73.66882,54.37683,124.33777
1765378456402,-0.5595703,-0.29492188,0.34423828,7.3242188,-48.706055,8.544922,0.0,0.0,0.0,-73.66882,54.37683,124.33777
1765378456413,-0.5595703,-0.29492188,0.34423828,7.3242188,-48.706055,8.544922,0.0,0.0,0.0,-73.19092,55.849,130.79224
1765378456502,-1.0112305,-0.49951172,0.27978516,-7.6904297,0.79345703,-30.456543,0.0,0.0,0.0,-73.19092,55.849,130.79224
1765378456513,-1.0112305,-0.49951172,0.27978516,-7.6904297,0.79345703,-30.456543,0.0,0.0,0.0,-71.07056,53.38806,133.64319
1765378456601,-0.61376953,-0.50341797,0.32763672,22.705078,4.638672,-43.5791,0.0,0.0,0.0,-71.07056,53.38806,133.64319
1765378456613,-0.61376953,-0.50341797,0.32763672,22.705078,4.638672,-43.5791,0.0,0.0,0.0,-68.92822,50.229492,130.59448
1765378456701,-0.8129883,-0.48095703,0.009277344,-7.3242188,-4.0893555,9.460449,0.0,0.0,0.0,-68.92822,50.229492,130.59448
1765378456713,-0.8129883,-0.48095703,0.009277344,-7.3242188,-4.0893555,9.460449,0.0,0.0,0.0,-70.96619,49.224243,125.963745
1765378456801,-0.93652344,-0.7167969,0.24365234,-16.967773,-0.4272461,15.808105,0.0,0.0,0.0,-70.96619,49.224243,125.963745
1765378456812,-0.93652344,-0.7167969,0.24365234,-16.967773,-0.4272461,15.808105,0.0,0.0,0.0,-72.72949,51.33911,129.0564
1765378456900,-0.78759766,-0.55029297,0.2680664,-16.296387,18.310547,28.320312,0.0,0.0,0.0,-72.72949,51.33911,129.0564
1765378456912,-0.78759766,-0.55029297,0.2680664,-16.296387,18.310547,28.320312,0.0,0.0,0.0,-76.04736,53.580322,127.78198
1765378457000,-0.7397461,-0.82470703,0.25048828,11.779785,10.620117,-19.77539,0.0,0.0,0.0,-76.04736,53.580322,127.78198
1765378457012,-0.7397461,-0.82470703,0.25048828,11.779785,10.620117,-19.77539,0.0,0.0,0.0,-75.76721,54.98108,126.727295
1765378457100,-0.8261719,-0.37939453,-0.0234375,17.456055,-12.145996,28.869629,0.0,0.0,0.0,-75.76721,54.98108,126.727295
1765378457111,-0.8261719,-0.37939453,-0.0234375,17.456055,-12.145996,28.869629,0.0,0.0,0.0,-72.61963,54.73938,128.82019
1765378457200,-0.63671875,-0.5957031,0.09863281,52.246094,24.658203,-21.1792,0.0,0.0,0.0,-72.61963,54.73938,128.82019
1765378457211,-0.63671875,-0.5957031,0.09863281,52.246094,24.658203,-21.1792,0.0,0.0,0.0,-70.894775,55.546875,126.56799
1765378457299,-0.8642578,-0.7519531,0.08300781,-12.512207,10.375977,-14.892578,0.0,0.0,0.0,-70.894775,55.546875,126.56799
1765378457311,-0.8642578,-0.7519531,0.08300781,-12.512207,10.375977,-14.892578,0.0,0.0,0.0,-72.21863,53.069458,120.78369
1765378457399,-1.0810547,-0.68359375,0.3564453,-45.47119,-31.188965,16.784668,0.0,0.0,0.0,-72.21863,53.069458,120.78369
1765378457411,-1.0810547,-0.68359375,0.3564453,-45.47119,-31.188965,16.784668,0.0,0.0,0.0,-75.93201,53.657227,123.98071
1765378457499,-0.63623047,-0.38183594,0.26123047,-12.817383,-19.836426,-21.42334,0.0,0.0,0.0,-75.93201,53.657227,123.98071
1765378457510,-0.63623047,-0.38183594,0.26123047,-12.817383,-19.836426,-21.42334,0.0,0.0,0.0,-72.41638,52.29492,129.4519
1765378457599,-0.8588867,-0.75,0.2607422,60.85205,21.057129,-27.09961,0.0,0.0,0.0,-72.41638,52.29492,129.4519
1765378457610,-0.8588867,-0.75,0.2607422,60.85205,21.057129,-27.09961,0.0,0.0,0.0,-71.971436,50.405273,128.80371
1765378457698,-0.6928711,-0.5102539,-0.024414062,35.095215,18.859863,-15.014648,0.0,0.0,0.0,-71.971436,50.405273,128.80371
1765378457710,-0.6928711,-0.5102539,-0.024414062,35.095215,18.859863,-15.014648,0.0,0.0,0.0,-71.47156,48.60901,123.29956
1765378457798,-0.8305664,-0.58935547,0.032714844,-99.243164,-40.161133,65.42969,0.0,0.0,0.0,-71.47156,48.60901,123.29956
1765378457809,-0.8305664,-0.58935547,0.032714844,-99.243164,-40.161133,65.42969,0.0,0.0,0.0,-71.4386,50.597534,127.457886
1765378457898,-1.1630859,-0.6591797,0.20654297,-46.569824,3.7841797,13.977051,0.0,0.0,0.0,-71.4386,50.597534,127.457886
1765378457909,-1.1630859,-0.6591797,0.20654297,-46.569824,3.7841797,13.977051,0.0,0.0,0.0,-73.90503,54.036255,133.09387
1765378457997,-0.51123047,-0.35595703,0.21972656,42.297363,23.010254,5.859375,0.0,0.0,0.0,-73.90503,54.036255,133.09387
1765378458009,-0.51123047,-0.35595703,0.21972656,42.297363,23.010254,5.859375,0.0,0.0,0.0,-74.89929,55.447998,131.64917
1765378458097,-0.88964844,-0.80371094,0.19384766,14.099121,47.790527,-5.7373047,0.0,0.0,0.0,-74.89929,55.447998,131.64917
1765378458109,-0.88964844,-0.80371094,0.19384766,14.099121,47.790527,-5.7373047,0.0,0.0,0.0,-76.62964,56.07422,124.50806
1765378458197,-0.7832031,-0.43164062,-0.052734375,25.08545,-2.5634766,7.3242188,0.0,0.0,0.0,-76.62964,56.07422,124.50806
1765378458209,-0.7832031,-0.43164062,-0.052734375,25.08545,-2.5634766,7.3242188,0.0,0.0,0.0,-75.531006,56.826782,122.48108
1765378458297,-0.6567383,-0.55859375,0.06738281,56.33545,14.465332,-16.601562,0.0,0.0,0.0,-75.531006,56.826782,122.48108
1765378458308,-0.6567383,-0.55859375,0.06738281,56.33545,14.465332,-16.601562,0.0,0.0,0.0,-72.614136,56.744385,122.145996
1765378458396,-0.84033203,-0.84375,0.08203125,22.705078,18.493652,-34.301758,0.0,0.0,0.0,-72.614136,56.744385,122.145996
1765378458408,-0.84033203,-0.84375,0.08203125,22.705078,18.493652,-34.301758,0.0,0.0,0.0,-73.05359,52.877197,116.14197
1765378458496,-1.1264648,-0.76904297,0.28710938,-92.77344,-44.921875,33.14209,0.0,0.0,0.0,-73.05359,52.877197,116.14197
1765378458508,-1.1264648,-0.76904297,0.28710938,-92.77344,-44.921875,33.14209,0.0,0.0,0.0,-76.53076,53.618774,120.52002
1765378458596,-0.51416016,-0.30273438,0.18261719,-31.677246,-26.062012,-12.634277,0.0,0.0,0.0,-76.53076,53.618774,120.52002
1765378458607,-0.51416016,-0.30273438,0.18261719,-31.677246,-26.062012,-12.634277,0.0,0.0,0.0,-72.614136,52.662964,128.974
1765378458696,-1.0102539,-0.76708984,0.18896484,48.88916,5.6762695,-19.28711,0.0,0.0,0.0,-72.614136,52.662964,128.974
1765378458707,-1.0102539,-0.76708984,0.18896484,48.88916,5.6762695,-19.28711,0.0,0.0,0.0,-73.11951,51.42151,129.70459
1765378458795,-0.71240234,-0.38720703,-0.10058594,10.375977,30.273438,-15.014648,0.0,0.0,0.0,-73.11951,51.42151,129.70459
1765378458807,-0.71240234,-0.38720703,-0.10058594,10.375977,30.273438,-15.014648,0.0,0.0,0.0,-74.26758,49.784546,124.694824
1765378458895,-0.85791016,-0.5966797,0.05908203,-69.45801,-31.61621,42.419434,0.0,0.0,0.0,-74.26758,49.784546,124.694824
1765378458907,-0.85791016,-0.5966797,0.05908203,-69.45801,-31.61621,42.419434,0.0,0.0,0.0,-74.558716,51.520386,126.85913
1765378458995,-1.184082,-0.82666016,0.2626953,-38.269043,8.056641,9.094238,0.0,0.0,0.0,-74.558716,51.520386,126.85913
1765378459006,-1.184082,-0.82666016,0.2626953,-38.269043,8.056641,9.094238,0.0,0.0,0.0,-77.96448,53.95935,129.14978
1765378459095,-0.48779297,-0.328125,0.083984375,26.000977,0.79345703,1.6479492,0.0,0.0,0.0,-77.96448,53.95935,129.14978
1765378459106,-0.48779297,-0.328125,0.083984375,26.000977,0.79345703,1.6479492,0.0,0.0,0.0,-76.62964,54.508667,129.08386
1765378459194,-1.0942383,-0.73535156,0.27783203,30.151367,7.873535,-0.061035156,0.0,0.0,0.0,-76.62964,54.508667,129.08386
1765378459206,-1.0942383,-0.73535156,0.27783203,30.151367,7.873535,-0.061035156,0.0,0.0,0.0,-77.09656,54.244995,125.755005
1765378459294,-0.6166992,-0.47607422,0.099609375,74.89014,21.78955,-6.5307617,0.0,0.0,0.0,-77.09656,54.244995,125.755005
1765378459305,-0.6166992,-0.47607422,0.099609375,74.89014,21.78955,-6.5307617,0.0,0.0,0.0,-71.81213,54.4812,125.128784
1765378459394,-0.6230469,-0.7470703,0.056152344,43.029785,14.953613,-36.499023,0.0,0.0,0.0,-71.81213,54.4812,125.128784
1765378459406,-0.6230469,-0.7470703,0.056152344,43.029785,14.953613,-36.499023,0.0,0.0,0.0,-70.45532,53.250732,120.30029
1765378459493,-0.85839844,-0.64990234,0.20654297,-44.555664,-33.87451,6.591797,0.0,0.0,0.0,-70.45532,53.250732,120.30029
1765378459506,-0.85839844,-0.64990234,0.20654297,-44.555664,-33.87451,6.591797,0.0,0.0,0.0,-70.57617,50.020752,120.910034
1765378459593,-1.1484375,-0.78808594,0.3876953,-42.053223,-6.958008,11.352539,0.0,0.0,0.0,-70.57617,50.020752,120.910034
1765378459605,-1.1484375,-0.78808594,0.3876953,-42.053223,-6.958008,11.352539,0.0,0.0,0.0,-74.17969,51.21277,125.04639
1765378459693,-0.39111328,-0.26367188,0.20898438,-5.79834,-11.84082,-16.174316,0.0,0.0,0.0,-74.17969,51.21277,125.04639
1765378459704,-0.39111328,-0.26367188,0.20898438,-5.79834,-11.84082,-16.174316,0.0,0.0,0.0,-71.87805,51.053467,128.93555
1765378459793,-1.027832,-0.9248047,0.3017578,62.927246,-21.118164,-41.870117,0.0,0.0,0.0,-71.87805,51.053467,128.93555
1765378459804,-1.027832,-0.9248047,0.3017578,62.927246,-21.118164,-41.870117,0.0,0.0,0.0,-70.911255,48.015747,128.58948
1765378459892,-0.6821289,-0.4399414,0.033691406,-8.911133,18.188477,4.8828125,0.0,0.0,0.0,-70.911255,48.015747,128.58948
1765378459904,-0.6821289,-0.4399414,0.033691406,-8.911133,18.188477,4.8828125,0.0,0.0,0.0,-70.285034,46.5271,125.77698
1765378459992,-0.86328125,-0.59228516,0.10205078,-57.128906,-43.640137,37.17041,0.0,0.0,0.0,-70.285034,46.5271,125.77698
1765378460004,-0.86328125,-0.59228516,0.10205078,-57.128906,-43.640137,37.17041,0.0,0.0,0.0,-70.55969,48.724365,130.72632
1765378460092,-0.8857422,-0.60498047,0.24951172,-23.254395,9.521484,10.070801,0.0,0.0,0.0,-70.55969,48.724365,130.72632
1765378460103,-0.8857422,-0.60498047,0.24951172,-23.254395,9.521484,10.070801,0.0,0.0,0.0,-71.85608,50.322876,132.1106
1765378460192,-0.5571289,-0.44677734,0.26367188,28.259277,9.094238,20.751953,0.0,0.0,0.0,-71.85608,50.322876,132.1106
1765378460203,-0.5571289,-0.44677734,0.26367188,28.259277,9.094238,20.751953,0.0,0.0,0.0,-74.020386,52.717896,129.28711
1765378460291,-0.88183594,-0.7705078,0.31201172,8.972168,15.74707,-4.1503906,0.0,0.0,0.0,-74.020386,52.717896,129.28711
1765378460303,-0.88183594,-0.7705078,0.31201172,8.972168,15.74707,-4.1503906,0.0,0.0,0.0,-73.56445,52.542114,126.67236
1765378460391,-0.72998047,-0.44335938,0.05908203,24.169922,-10.192871,11.291504,0.0,0.0,0.0,-73.56445,52.542114,126.67236
1765378460403,-0.72998047,-0.44335938,0.05908203,24.169922,-10.192871,11.291504,0.0,0.0,0.0,-69.625854,53.739624,129.56177
1765378460491,-0.6826172,-0.6713867,0.17773438,42.96875,31.433105,-24.780273,0.0,0.0,0.0,-69.625854,53.739624,129.56177
1765378460503,-0.6826172,-0.6713867,0.17773438,42.96875,31.433105,-24.780273,0.0,0.0,0.0,-67.97241,53.22876,127.1228
1765378460591,-0.9458008,-0.7949219,0.1640625,-8.239746,17.63916,-13.305664,0.0,0.0,0.0,-67.97241,53.22876,127.1228
1765378460602,-0.9458008,-0.7949219,0.1640625,-8.239746,17.63916,-13.305664,0.0,0.0,0.0,-70.90027,51.190796,120.09155
1765378460690,-0.78271484,-0.4975586,0.2685547,-21.057129,-18.554688,5.859375,0.0,0.0,0.0,-70.90027,51.190796,120.09155
1765378460702,-0.78271484,-0.4975586,0.2685547,-21.057129,-18.554688,5.859375,0.0,0.0,0.0,-74.37744,51.745605,121.448364
1765378460790,-0.8388672,-0.48095703,0.45458984,-35.27832,-32.714844,-13.122559,0.0,0.0,0.0,-74.37744,51.745605,121.448364
1765378460802,-0.8388672,-0.48095703,0.45458984,-35.27832,-32.714844,-13.122559,0.0,0.0,0.0,-70.40039,50.36682,126.9635
1765378460890,-0.5522461,-0.52783203,0.31396484,26.184082,21.911621,-39.18457,0.0,0.0,0.0,-70.40039,50.36682,126.9635
1765378460901,-0.5522461,-0.52783203,0.31396484,26.184082,21.911621,-39.18457,0.0,0.0,0.0,-69.08203,46.35132,125.70557
1765378460989,-0.7705078,-0.53466797,0.016601562,-17.944336,6.7749023,24.353027,0.0,0.0,0.0,-69.08203,46.35132,125.70557
1765378461001,-0.7705078,-0.53466797,0.016601562,-17.944336,6.7749023,24.353027,0.0,0.0,0.0,-73.899536,47.109375,119.454346
1765378461089,-1.0151367,-0.72558594,0.15283203,-53.649902,-38.45215,20.629883,0.0,0.0,0.0,-73.899536,47.109375,119.454346
1765378461101,-1.0151367,-0.72558594,0.15283203,-53.649902,-38.45215,20.629883,0.0,0.0,0.0,-74.0918,48.724365,126.44165
1765378461189,-0.8647461,-0.5854492,0.3154297,-0.6713867,8.056641,24.536133,0.0,0.0,0.0,-74.0918,48.724365,126.44165
1765378461200,-0.8647461,-0.5854492,0.3154297,-0.6713867,8.056641,24.536133,0.0,0.0,0.0,-76.34949,51.860962,127.69409
1765378461289,-0.50683594,-0.62158203,0.28515625,19.16504,15.075684,-7.3242188,0.0,0.0,0.0,-76.34949,51.860962,127.69409
1765378461300,-0.50683594,-0.62158203,0.28515625,19.16504,15.075684,-7.3242188,0.0,0.0,0.0,-73.55347,52.860718,128.02917
1765378461388,-0.9628906,-0.49414062,0.057128906,15.930176,-18.066406,16.906738,0.0,0.0,0.0,-73.55347,52.860718,128.02917
1765378461400,-0.9628906,-0.49414062,0.057128906,15.930176,-18.066406,16.906738,0.0,0.0,0.0,-73.965454,52.800293,125.02991
1765378461488,-0.69140625,-0.5229492,0.122558594,31.25,12.939453,0.7324219,0.0,0.0,0.0,-73.965454,52.800293,125.02991
1765378461500,-0.69140625,-0.5229492,0.122558594,31.25,12.939453,0.7324219,0.0,0.0,0.0,-70.90027,53.21228,126.11206
1765378461588,-0.7001953,-0.765625,0.088378906,44.49463,30.334473,-37.17041,0.0,0.0,0.0,-70.90027,53.21228,126.11206
1765378461599,-0.7001953,-0.765625,0.088378906,44.49463,30.334473,-37.17041,0.0,0.0,0.0,-70.55969,52.701416,121.81641
1765378461688,-0.91845703,-0.74072266,0.3017578,-81.90918,-12.573242,12.6953125,0.0,0.0,0.0,-70.55969,52.701416,121.81641
1765378461699,-0.91845703,-0.74072266,0.3017578,-81.90918,-12.573242,12.6953125,0.0,0.0,0.0,-74.399414,50.92163,118.83911
1765378461787,-0.47558594,-0.31884766,0.22021484,-12.512207,-49.01123,5.859375,0.0,0.0,0.0,-74.399414,50.92163,118.83911
1765378461799,-0.47558594,-0.31884766,0.22021484,-12.512207,-49.01123,5.859375,0.0,0.0,0.0,-73.03162,50.910645,126.12854
1765378461887,-1.0703125,-0.7338867,0.3461914,7.2631836,31.311035,-19.104004,0.0,0.0,0.0,-73.03162,50.910645,126.12854
1765378461899,-1.0703125,-0.7338867,0.3461914,7.2631836,31.311035,-19.104004,0.0,0.0,0.0,-75.64087,49.817505,125.48035
1765378461987,-0.7133789,-0.4482422,-0.125,23.55957,19.89746,-20.507812,0.0,0.0,0.0,-75.64087,49.817505,125.48035
1765378461998,-0.7133789,-0.4482422,-0.125,23.55957,19.89746,-20.507812,0.0,0.0,0.0,-74.816895,48.345337,121.44287
1765378462087,-0.8178711,-0.5942383,0.020019531,-59.08203,-23.4375,45.59326,0.0,0.0,0.0,-74.816895,48.345337,121.44287
1765378462098,-0.8178711,-0.5942383,0.020019531,-59.08203,-23.4375,45.59326,0.0,0.0,0.0,-74.8114,49.449463,121.87134
1765378462186,-0.8613281,-0.54296875,0.11425781,1.0375977,7.019043,-1.8310547,0.0,0.0,0.0,-74.8114,49.449463,121.87134
1765378462198,-0.8613281,-0.54296875,0.11425781,1.0375977,7.019043,-1.8310547,0.0,0.0,0.0,-77.25586,52.10266,124.73877
1765378462286,-0.72265625,-0.52246094,0.2734375,44.49463,19.226074,15.075684,0.0,0.0,0.0,-77.25586,52.10266,124.73877
1765378462297,-0.72265625,-0.52246094,0.2734375,44.49463,19.226074,15.075684,0.0,0.0,0.0,-78.618164,52.72888,121.71753
1765378462386,-0.8178711,-0.85839844,0.20263672,23.010254,49.25537,-20.568848,0.0,0.0,0.0,-78.618164,52.72888,121.71753
1765378462397,-0.8178711,-0.85839844,0.20263672,23.010254,49.25537,-20.568848,0.0,0.0,0.0,-77.72278,52.981567,117.41089
1765378462486,-0.67333984,-0.49267578,-0.034179688,26.97754,-12.878418,14.709473,0.0,0.0,0.0,-77.72278,52.981567,117.41089
1765378462497,-0.67333984,-0.49267578,-0.034179688,26.97754,-12.878418,14.709473,0.0,0.0,0.0,-76.48682,53.096924,115.22461
1765378462585,-0.62890625,-0.6791992,0.10546875,41.3208,14.709473,-16.540527,0.0,0.0,0.0,-76.48682,53.096924,115.22461
1765378462597,-0.62890625,-0.6791992,0.10546875,41.3208,14.709473,-16.540527,0.0,0.0,0.0,-73.89404,53.272705,115.96619
1765378462685,-0.76953125,-0.7783203,0.107910156,8.728027,15.075684,-27.832031,0.0,0.0,0.0,-73.89404,53.272705,115.96619
1765378462697,-0.76953125,-0.7783203,0.107910156,8.728027,15.075684,-27.832031,0.0,0.0,0.0,-74.42688,50.586548,112.543945
1765378462785,-1.109375,-0.859375,0.30615234,-79.1626,-25.146484,15.930176,0.0,0.0,0.0,-74.42688,50.586548,112.543945
1765378462796,-1.109375,-0.859375,0.30615234,-79.1626,-25.146484,15.930176,0.0,0.0,0.0,-79.09607,50.526123,114.72473
1765378462884,-0.54345703,-0.2993164,0.17919922,-25.45166,-36.193848,-3.0517578,0.0,0.0,0.0,-79.09607,50.526123,114.72473
1765378462896,-0.54345703,-0.2993164,0.17919922,-25.45166,-36.193848,-3.0517578,0.0,0.0,0.0,-75.25635,49.943848,123.15674
1765378462984,-0.8046875,-0.7558594,0.2084961,45.776367,0.36621094,-29.60205,0.0,0.0,0.0,-75.25635,49.943848,123.15674
1765378462996,-0.8046875,-0.7558594,0.2084961,45.776367,0.36621094,-29.60205,0.0,0.0,0.0,-75.92651,48.372803,123.29407
1765378463084,-0.7817383,-0.43408203,-0.05810547,14.770508,-3.112793,-3.9672852,0.0,0.0,0.0,-75.92651,48.372803,123.29407
1765378463095,-0.7817383,-0.43408203,-0.05810547,14.770508,-3.112793,-3.9672852,0.0,0.0,0.0,-75.531006,46.851196,121.882324
1765378463184,-0.8647461,-0.66503906,0.09423828,-47.973633,-15.991211,38.391113,0.0,0.0,0.0,-75.531006,46.851196,121.882324
1765378463195,-0.8647461,-0.66503906,0.09423828,-47.973633,-15.991211,38.391113,0.0,0.0,0.0,-76.47583,49.92737,125.99121
1765378463283,-0.97021484,-0.59228516,0.08203125,-35.64453,20.446777,24.353027,0.0,0.0,0.0,-76.47583,49.92737,125.99121
1765378463295,-0.97021484,-0.59228516,0.08203125,-35.64453,20.446777,24.353027,0.0,0.0,0.0,-80.425415,52.575073,125.89783
1765378463383,-0.54785156,-0.41552734,0.20263672,27.526855,-8.911133,22.827148,0.0,0.0,0.0,-80.425415,52.575073,125.89783
1765378463395,-0.54785156,-0.41552734,0.20263672,27.526855,-8.911133,22.827148,0.0,0.0,0.0,-81.19995,55.69519,125.24414
1765378463483,-1.0288086,-0.7861328,0.17285156,-4.211426,-9.094238,-3.6010742,0.0,0.0,0.0,-81.19995,55.69519,125.24414
1765378463494,-1.0288086,-0.7861328,0.17285156,-4.211426,-9.094238,-3.6010742,0.0,0.0,0.0,-77.77222,54.805298,126.727295
1765378463583,-0.7036133,-0.3618164,0.04345703,12.207031,-16.174316,20.080566,0.0,0.0,0.0,-77.77222,54.805298,126.727295
1765378463594,-0.7036133,-0.3618164,0.04345703,12.207031,-16.174316,20.080566,0.0,0.0,0.0,-72.509766,56.68396,132.25342
1765378463682,-0.734375,-0.66845703,0.16845703,43.70117,11.108398,-30.700684,0.0,0.0,0.0,-72.509766,56.68396,132.25342
1765378463694,-0.734375,-0.66845703,0.16845703,43.70117,11.108398,-30.700684,0.0,0.0,0.0,-69.04907,55.288696,131.64368
1765378463782,-0.96484375,-0.67626953,0.05419922,-12.207031,23.19336,-17.51709,0.0,0.0,0.0,-69.04907,55.288696,131.64368
1765378463794,-0.96484375,-0.67626953,0.05419922,-12.207031,23.19336,-17.51709,0.0,0.0,0.0,-73.55896,53.17383,123.947754
1765378463882,-0.9638672,-0.5498047,0.34960938,-7.1411133,-18.127441,18.310547,0.0,0.0,0.0,-73.55896,53.17383,123.947754
1765378463893,-0.9638672,-0.5498047,0.34960938,-7.1411133,-18.127441,18.310547,0.0,0.0,0.0,-77.162476,53.909912,125.43091
1765378463982,-0.6904297,-0.38183594,0.27197266,-10.803223,-1.6479492,-30.334473,0.0,0.0,0.0,-77.162476,53.909912,125.43091
1765378463993,-0.6904297,-0.38183594,0.27197266,-10.803223,-1.6479492,-30.334473,0.0,0.0,0.0,-74.036865,53.206787,128.4906
1765378464081,-0.6870117,-0.65185547,0.21533203,52.55127,7.6293945,-50.41504,0.0,0.0,0.0,-74.036865,53.206787,128.4906
1765378464093,-0.6870117,-0.65185547,0.21533203,52.55127,7.6293945,-50.41504,0.0,0.0,0.0,-72.388916,49.63623,125.70557
1765378464182,-0.83251953,-0.46142578,-0.041503906,-3.540039,2.9907227,7.1411133,0.0,0.0,0.0,-72.388916,49.63623,125.70557
1765378464193,-0.83251953,-0.46142578,-0.041503906,-3.540039,2.9907227,7.1411133,0.0,0.0,0.0,-75.009155,48.120117,120.02014
1765378464281,-0.8544922,-0.6748047,0.12939453,-46.14258,-26.733398,18.798828,0.0,0.0,0.0,-75.009155,48.120117,120.02014
1765378464293,-0.8544922,-0.6748047,0.12939453,-46.14258,-26.733398,18.798828,0.0,0.0,0.0,-75.48157,50.603027,126.82617
1765378464381,-1.0424805,-0.703125,0.2685547,-28.808594,0.36621094,15.808105,0.0,0.0,0.0,-75.48157,50.603027,126.82617
1765378464392,-1.0424805,-0.703125,0.2685547,-28.808594,0.36621094,15.808105,0.0,0.0,0.0,-77.32178,51.344604,128.62793
1765378464480,-0.4477539,-0.6010742,0.2211914,10.681152,-2.6855469,-0.61035156,0.0,0.0,0.0,-77.32178,51.344604,128.62793
1765378464492,-0.4477539,-0.6010742,0.2211914,10.681152,-2.6855469,-0.61035156,0.0,0.0,0.0,-75.371704,52.943115,129.67712
1765378464580,-0.9555664,-0.45947266,0.1352539,10.986328,-40.893555,23.80371,0.0,0.0,0.0,-75.371704,52.943115,129.67712
1765378464591,-0.9555664,-0.45947266,0.1352539,10.986328,-40.893555,23.80371,0.0,0.0,0.0,-73.25134,52.575073,130.81421
1765378464680,-0.69628906,-0.57128906,0.17822266,38.879395,17.211914,-13.366699,0.0,0.0,0.0,-73.25134,52.575073,130.81421
1765378464691,-0.69628906,-0.57128906,0.17822266,38.879395,17.211914,-13.366699,0.0,0.0,0.0,-68.499756,52.608032,132.85217
1765378464779,-0.6855469,-0.7270508,0.11279297,42.114258,42.114258,-27.038574,0.0,0.0,0.0,-68.499756,52.608032,132.85217
1765378464791,-0.6855469,-0.7270508,0.11279297,42.114258,42.114258,-27.038574,0.0,0.0,0.0,-70.12573,52.371826,125.95276
1765378464879,-0.97265625,-0.73291016,0.140625,-60.11963,-26.123047,17.333984,0.0,0.0,0.0,-70.12573,52.371826,125.95276
1765378464891,-0.97265625,-0.73291016,0.140625,-60.11963,-26.123047,17.333984,0.0,0.0,0.0,-72.50427,51.28418,124.0741
1765378464979,-0.45117188,-0.26953125,0.24609375,21.362305,-53.03955,-1.0375977,0.0,0.0,0.0,-72.50427,51.28418,124.0741
1765378464990,-0.45117188,-0.26953125,0.24609375,21.362305,-53.03955,-1.0375977,0.0,0.0,0.0,-70.01587,51.42151,130.78674
1765378465079,-1.1147461,-0.6845703,0.46191406,-9.155273,-7.873535,-19.89746,0.0,0.0,0.0,-70.01587,51.42151,130.78674
1765378465090,-1.1147461,-0.6845703,0.46191406,-9.155273,-7.873535,-19.89746,0.0,0.0,0.0,-67.81311,49.075928,133.70361
1765378465178,-0.5527344,-0.43798828,0.34179688,13.549805,35.583496,-33.813477,0.0,0.0,0.0,-67.81311,49.075928,133.70361
1765378465190,-0.5527344,-0.43798828,0.34179688,13.549805,35.583496,-33.813477,0.0,0.0,0.0,-66.049805,46.625977,129.7815
1765378465278,-0.7885742,-0.53515625,0.03173828,-4.760742,2.380371,15.136719,0.0,0.0,0.0,-66.049805,46.625977,129.7815
1765378465290,-0.7885742,-0.53515625,0.03173828,-4.760742,2.380371,15.136719,0.0,0.0,0.0,-68.99414,47.801514,124.2334
1765378465378,-0.8725586,-0.67529297,0.2421875,-44.128418,-11.047363,21.118164,0.0,0.0,0.0,-68.99414,47.801514,124.2334
1765378465389,-0.8725586,-0.67529297,0.2421875,-44.128418,-11.047363,21.118164,0.0,0.0,0.0,-71.65283,49.559326,127.22168
1765378465478,-0.7089844,-0.50927734,0.34423828,9.460449,-21.240234,20.141602,0.0,0.0,0.0,-71.65283,49.559326,127.22168
1765378465489,-0.7089844,-0.50927734,0.34423828,9.460449,-21.240234,20.141602,0.0,0.0,0.0,-72.663574,51.278687,128.91907
1765378465577,-0.6098633,-0.7050781,0.40820312,-11.047363,11.962891,-1.159668,0.0,0.0,0.0,-72.663574,51.278687,128.91907
1765378465589,-0.6098633,-0.7050781,0.40820312,-11.047363,11.962891,-1.159668,0.0,0.0,0.0,-69.263306,51.778564,131.3031
1765378465677,-0.8154297,-0.47216797,0.06201172,26.428223,-0.061035156,0.8544922,0.0,0.0,0.0,-69.263306,51.778564,131.3031
1765378465689,-0.8154297,-0.47216797,0.06201172,26.428223,-0.061035156,0.8544922,0.0,0.0,0.0,-67.77466,51.78955,130.92407
1765378465777,-0.67626953,-0.60253906,0.16552734,33.02002,33.87451,-2.6245117,0.0,0.0,0.0,-67.77466,51.78955,130.92407
1765378465788,-0.67626953,-0.60253906,0.16552734,33.02002,33.87451,-2.6245117,0.0,0.0,0.0,-67.5824,52.201538,126.97449
1765378465877,-0.74365234,-0.75097656,0.095703125,-0.4272461,20.568848,-15.808105,0.0,0.0,0.0,-67.5824,52.201538,126.97449
1765378465888,-0.74365234,-0.75097656,0.095703125,-0.4272461,20.568848,-15.808105,0.0,0.0,0.0,-69.76868,51.707153,120.83313
1765378465976,-1.1806641,-0.7705078,0.35595703,-70.739746,-25.57373,20.324707,0.0,0.0,0.0,-69.76868,51.707153,120.83313
1765378465988,-1.1806641,-0.7705078,0.35595703,-70.739746,-25.57373,20.324707,0.0,0.0,0.0,-74.591675,52.201538,121.832886
1765378466076,-0.5805664,-0.41015625,0.24316406,-26.733398,-4.211426,-18.127441,0.0,0.0,0.0,-74.591675,52.201538,121.832886
1765378466088,-0.5805664,-0.41015625,0.24316406,-26.733398,-4.211426,-18.127441,0.0,0.0,0.0,-71.01013,51.92688,129.02893
1765378466176,-0.7519531,-0.60498047,0.15625,67.44385,10.498047,-32.287598,0.0,0.0,0.0,-71.01013,51.92688,129.02893
1765378466187,-0.7519531,-0.60498047,0.15625,67.44385,10.498047,-32.287598,0.0,0.0,0.0,-73.02612,49.80652,126.01318
1765378466276,-0.81689453,-0.4399414,0.022949219,28.076172,24.047852,-4.638672,0.0,0.0,0.0,-73.02612,49.80652,126.01318
1765378466287,-0.81689453,-0.4399414,0.022949219,28.076172,24.047852,-4.638672,0.0,0.0,0.0,-72.55371,47.982788,122.1405
1765378466375,-0.8618164,-0.6748047,0.07763672,-53.710938,3.3569336,29.968262,0.0,0.0,0.0,-72.55371,47.982788,122.1405
1765378466387,-0.8618164,-0.6748047,0.07763672,-53.710938,3.3569336,29.968262,0.0,0.0,0.0,-74.82239,50.767822,121.728516
1765378466475,-1.1132812,-0.7685547,0.20507812,-9.521484,14.099121,6.5307617,0.0,0.0,0.0,-74.82239,50.767822,121.728516
1765378466486,-1.1132812,-0.7685547,0.20507812,-9.521484,14.099121,6.5307617,0.0,0.0,0.0,-78.898315,52.684937,121.45935
1765378466575,-0.47705078,-0.359375,0.1274414,43.945312,-5.3710938,7.873535,0.0,0.0,0.0,-78.898315,52.684937,121.45935
1765378466587,-0.47705078,-0.359375,0.1274414,43.945312,-5.3710938,7.873535,0.0,0.0,0.0,-76.536255,54.58008,122.15149
1765378466674,-0.99853516,-0.75390625,0.2685547,20.751953,-3.6621094,-3.540039,0.0,0.0,0.0,-76.536255,54.58008,122.15149
1765378466686,-0.99853516,-0.75390625,0.2685547,20.751953,-3.6621094,-3.540039,0.0,0.0,0.0,-74.88281,53.739624,120.54199
1765378466774,-0.66845703,-0.4555664,0.026367188,26.733398,6.591797,3.90625,0.0,0.0,0.0,-74.88281,53.739624,120.54199
1765378466786,-0.66845703,-0.4555664,0.026367188,26.733398,6.591797,3.90625,0.0,0.0,0.0,-71.7572,54.18457,122.43164
1765378466874,-0.6928711,-0.74609375,0.19091797,15.258789,17.51709,-31.12793,0.0,0.0,0.0,-71.7572,54.18457,122.43164
1765378466886,-0.6928711,-0.74609375,0.19091797,15.258789,17.51709,-31.12793,0.0,0.0,0.0,-71.312256,53.49243,120.371704
1765378466974,-0.90771484,-0.68066406,0.09033203,-55.725098,6.958008,6.713867,0.0,0.0,0.0,-71.312256,53.49243,120.371704
1765378466985,-0.90771484,-0.68066406,0.09033203,-55.725098,6.958008,6.713867,0.0,0.0,0.0,-75.60791,51.844482,117.34497
1765378467073,-0.6464844,-0.38085938,0.2709961,-12.145996,-32.043457,5.004883,0.0,0.0,0.0,-75.60791,51.844482,117.34497
1765378467085,-0.6464844,-0.38085938,0.2709961,-12.145996,-32.043457,5.004883,0.0,0.0,0.0,-79.019165,52.48169,119.52026
1765378467173,-1.1342773,-0.734375,0.15673828,-20.629883,-11.230469,-25.20752,0.0,0.0,0.0,-79.019165,52.48169,119.52026
1765378467185,-1.1342773,-0.734375,0.15673828,-20.629883,-11.230469,-25.20752,0.0,0.0,0.0,-76.38794,50.663452,124.60693
1765378467273,-0.55078125,-0.43115234,-0.022460938,23.80371,40.771484,-26.97754,0.0,0.0,0.0,-76.38794,50.663452,124.60693
1765378467284,-0.55078125,-0.43115234,-0.022460938,23.80371,40.771484,-26.97754,0.0,0.0,0.0,-75.997925,48.773804,120.36072
1765378467373,-0.7548828,-0.62890625,0.02734375,-41.381836,-38.269043,31.25,0.0,0.0,0.0,-75.997925,48.773804,120.36072
1765378467384,-0.7548828,-0.62890625,0.02734375,-41.381836,-38.269043,31.25,0.0,0.0,0.0,-75.52551,49.02649,121.431885
1765378467472,-0.9741211,-0.6020508,0.13232422,-63.659668,-9.338379,31.25,0.0,0.0,0.0,-75.52551,49.02649,121.431885
1765378467484,-0.9741211,-0.6020508,0.13232422,-63.659668,-9.338379,31.25,0.0,0.0,0.0,-79.49158,51.83899,126.09558
1765378467572,-0.76171875,-0.49023438,0.23730469,17.456055,8.728027,21.118164,0.0,0.0,0.0,-79.49158,51.83899,126.09558
1765378467584,-0.76171875,-0.49023438,0.23730469,17.456055,8.728027,21.118164,0.0,0.0,0.0,-82.10632,54.821777,125.200195
1765378467672,-0.7553711,-0.9038086,0.23779297,24.353027,37.841797,-30.700684,0.0,0.0,0.0,-82.10632,54.821777,125.200195
1765378467684,-0.7553711,-0.9038086,0.23779297,24.353027,37.841797,-30.700684,0.0,0.0,0.0,-80.441895,54.02527,122.7063
1765378467772,-0.7368164,-0.3725586,-0.060058594,22.460938,-21.728516,27.893066,0.0,0.0,0.0,-80.441895,54.02527,122.7063
1765378467784,-0.7368164,-0.3725586,-0.060058594,22.460938,-21.728516,27.893066,0.0,0.0,0.0,-78.85986,55.08545,122.06909
1765378467871,-0.71435547,-0.60546875,0.09814453,38.391113,20.874023,-8.666992,0.0,0.0,0.0,-78.85986,55.08545,122.06909
1765378467883,-0.71435547,-0.60546875,0.09814453,38.391113,20.874023,-8.666992,0.0,0.0,0.0,-75.877075,55.81604,123.118286
1765378467971,-0.8496094,-0.7783203,0.015625,11.352539,31.188965,-26.184082,0.0,0.0,0.0,-75.877075,55.81604,123.118286
1765378467982,-0.8496094,-0.7783203,0.015625,11.352539,31.188965,-26.184082,0.0,0.0,0.0,-78.36548,53.399048,115.510254
1765378468071,-1.0449219,-0.7626953,0.16699219,-75.37842,-37.29248,16.540527,0.0,0.0,0.0,-78.36548,53.399048,115.510254
1765378468082,-1.0449219,-0.7626953,0.16699219,-75.37842,-37.29248,16.540527,0.0,0.0,0.0,-81.1615,53.827515,119.70703
1765378468171,-0.55371094,-0.3334961,0.25341797,-20.080566,-46.813965,-14.404297,0.0,0.0,0.0,-81.1615,53.827515,119.70703
1765378468182,-0.55371094,-0.3334961,0.25341797,-20.080566,-46.813965,-14.404297,0.0,0.0,0.0,-76.27258,52.41028,127.21069
1765378468270,-0.88671875,-0.6982422,0.2529297,54.626465,-2.1972656,-25.268555,0.0,0.0,0.0,-76.27258,52.41028,127.21069
1765378468282,-0.88671875,-0.6982422,0.2529297,54.626465,-2.1972656,-25.268555,0.0,0.0,0.0,-75.03662,49.350586,128.90259
1765378468370,-0.76416016,-0.3779297,0.02734375,16.174316,4.0283203,-7.507324,0.0,0.0,0.0,-75.03662,49.350586,128.90259
1765378468382,-0.76416016,-0.3779297,0.02734375,16.174316,4.0283203,-7.507324,0.0,0.0,0.0,-74.37744,48.14209,126.63391
1765378468470,-0.8774414,-0.64746094,0.08154297,-48.76709,-10.498047,35.15625,0.0,0.0,0.0,-74.37744,48.14209,126.63391
1765378468481,-0.8774414,-0.64746094,0.08154297,-48.76709,-10.498047,35.15625,0.0,0.0,0.0,-74.454346,50.410767,129.34753
1765378468569,-1.059082,-0.73535156,0.15136719,-19.470215,27.282715,4.638672,0.0,0.0,0.0,-74.454346,50.410767,129.34753
1765378468581,-1.059082,-0.73535156,0.15136719,-19.470215,27.282715,4.638672,0.0,0.0,0.0,-78.96423,52.7948,128.20496
1765378468669,-0.59765625,-0.4243164,0.1508789,42.96875,14.526367,9.094238,0.0,0.0,0.0,-78.96423,52.7948,128.20496
1765378468681,-0.59765625,-0.4243164,0.1508789,42.96875,14.526367,9.094238,0.0,0.0,0.0,-79.16199,54.085693,125.16724
1765378468769,-0.84716797,-0.86621094,0.20410156,15.869141,39.79492,-14.282227,0.0,0.0,0.0,-79.16199,54.085693,125.16724
1765378468780,-0.84716797,-0.86621094,0.20410156,15.869141,39.79492,-14.282227,0.0,0.0,0.0,-80.05737,53.95935,120.20691
1765378468869,-0.74365234,-0.4633789,-0.041503906,16.235352,-17.211914,15.808105,0.0,0.0,0.0,-80.05737,53.95935,120.20691
1765378468880,-0.74365234,-0.4633789,-0.041503906,16.235352,-17.211914,15.808105,0.0,0.0,0.0,-76.75049,53.843994,120.72876
1765378468968,-0.640625,-0.62597656,0.1328125,43.823242,13.122559,-19.77539,0.0,0.0,0.0,-76.75049,53.843994,120.72876
1765378468980,-0.640625,-0.62597656,0.1328125,43.823242,13.122559,-19.77539,0.0,0.0,0.0,-73.98743,54.102173,121.343994
1765378469068,-0.8510742,-0.8588867,0.13964844,7.6904297,35.03418,-25.512695,0.0,0.0,0.0,-73.98743,54.102173,121.343994
1765378469080,-0.8510742,-0.8588867,0.13964844,7.6904297,35.03418,-25.512695,0.0,0.0,0.0,-75.79468,51.174316,115.21362
1765378469168,-0.9326172,-0.6010742,0.3334961,-67.38281,-50.65918,20.996094,0.0,0.0,0.0,-75.79468,51.174316,115.21362
1765378469180,-0.9326172,-0.6010742,0.3334961,-67.38281,-50.65918,20.996094,0.0,0.0,0.0,-80.53528,51.40503,116.883545
1765378469268,-0.8955078,-0.60839844,0.1850586,-54.93164,-15.136719,-18.554688,0.0,0.0,0.0,-80.53528,51.40503,116.883545
1765378469279,-0.8955078,-0.60839844,0.1850586,-54.93164,-15.136719,-18.554688,0.0,0.0,0.0,-75.94849,50.668945,125.99121
1765378469367,-0.5800781,-0.46777344,0.18896484,19.104004,23.864746,-14.282227,0.0,0.0,0.0,-75.94849,50.668945,125.99121
1765378469379,-0.5800781,-0.46777344,0.18896484,19.104004,23.864746,-14.282227,0.0,0.0,0.0,-76.27258,49.11438,125.233154
1765378469467,-0.8676758,-0.5698242,-0.13378906,2.1972656,-23.925781,18.798828,0.0,0.0,0.0,-76.27258,49.11438,125.233154
1765378469478,-0.8676758,-0.5698242,-0.13378906,2.1972656,-23.925781,18.798828,0.0,0.0,0.0,-75.72876,49.174805,124.28284
1765378469567,-0.77783203,-0.60302734,0.1694336,-37.53662,-5.6762695,26.611328,0.0,0.0,0.0,-75.72876,49.174805,124.28284
1765378469578,-0.77783203,-0.60302734,0.1694336,-37.53662,-5.6762695,26.611328,0.0,0.0,0.0,-77.838135,52.421265,127.96875
1765378469667,-1.2338867,-0.68359375,0.19628906,7.1411133,13.48877,0.6713867,0.0,0.0,0.0,-77.838135,52.421265,127.96875
1765378469678,-1.2338867,-0.68359375,0.19628906,7.1411133,13.48877,0.6713867,0.0,0.0,0.0,-79.77722,53.426514,128.10059
1765378469766,-0.5786133,-0.66748047,0.22607422,30.395508,27.46582,-10.375977,0.0,0.0,0.0,-79.77722,53.426514,128.10059
1765378469778,-0.5786133,-0.66748047,0.22607422,30.395508,27.46582,-10.375977,0.0,0.0,0.0,-78.10181,54.332886,126.37024
1765378469866,-0.8701172,-0.43652344,-0.05859375,0.30517578,25.45166,35.27832,0.0,0.0,0.0,-78.10181,54.332886,126.37024
1765378469877,-0.8701172,-0.43652344,-0.05859375,0.30517578,25.45166,35.27832,0.0,0.0,0.0,-81.14502,55.06897,120.162964
1765378469966,-0.6455078,-0.53466797,0.0048828125,56.152344,17.028809,-12.756348,0.0,0.0,0.0,-81.14502,55.06897,120.162964
1765378469977,-0.6455078,-0.53466797,0.0048828125,56.152344,17.028809,-12.756348,0.0,0.0,0.0,-80.81543,55.997314,115.96619
1765378470065,-0.7158203,-0.75390625,0.047851562,36.499023,17.150879,-31.921387,0.0,0.0,0.0,-80.81543,55.997314,115.96619
1765378470077,-0.7158203,-0.75390625,0.047851562,36.499023,17.150879,-31.921387,0.0,0.0,0.0,-78.986206,53.657227,113.274536
1765378470165,-1.0048828,-0.84228516,0.17675781,-63.171387,-3.6010742,13.671875,0.0,0.0,0.0,-78.986206,53.657227,113.274536
1765378470177,-1.0048828,-0.84228516,0.17675781,-63.171387,-3.6010742,13.671875,0.0,0.0,0.0,-81.59546,52.531128,112.5
1765378470265,-0.49414062,-0.24951172,0.13330078,-5.2490234,-61.706543,-13.061523,0.0,0.0,0.0,-81.59546,52.531128,112.5
1765378470276,-0.49414062,-0.24951172,0.13330078,-5.2490234,-61.706543,-13.061523,0.0,0.0,0.0,-79.50256,51.828003,119.93225
1765378470365,-1.0869141,-0.81347656,0.23046875,22.460938,3.4179688,-10.986328,0.0,0.0,0.0,-79.50256,51.828003,119.93225
1765378470376,-1.0869141,-0.81347656,0.23046875,22.460938,3.4179688,-10.986328,0.0,0.0,0.0,-78.00293,49.94934,124.70032
1765378470464,-0.6166992,-0.48486328,0.0107421875,17.028809,0.24414062,-16.540527,0.0,0.0,0.0,-78.00293,49.94934,124.70032
1765378470476,-0.6166992,-0.48486328,0.0107421875,17.028809,0.24414062,-16.540527,0.0,0.0,0.0,-77.2229,49.18579,122.82715
1765378470564,-0.8618164,-0.5917969,0.040527344,-61.401367,-42.3584,36.315918,0.0,0.0,0.0,-77.2229,49.18579,122.82715
1765378470576,-0.8618164,-0.5917969,0.040527344,-61.401367,-42.3584,36.315918,0.0,0.0,0.0,-75.162964,48.9386,127.161255
1765378470664,-0.9663086,-0.72558594,0.15625,-30.395508,14.465332,10.192871,0.0,0.0,0.0,-75.162964,48.9386,127.161255
1765378470675,-0.9663086,-0.72558594,0.15625,-30.395508,14.465332,10.192871,0.0,0.0,0.0,-78.19519,52.042236,130.22644
1765378470764,-0.6010742,-0.3491211,0.13769531,18.371582,-12.512207,31.61621,0.0,0.0,0.0,-78.19519,52.042236,130.22644
1765378470775,-0.6010742,-0.3491211,0.13769531,18.371582,-12.512207,31.61621,0.0,0.0,0.0,-80.89783,53.651733,128.10059
1765378470863,-0.87841797,-0.84472656,0.21972656,14.160156,11.169434,-0.8544922,0.0,0.0,0.0,-80.89783,53.651733,128.10059
1765378470875,-0.87841797,-0.84472656,0.21972656,14.160156,11.169434,-0.8544922,0.0,0.0,0.0,-76.45386,55.063477,130.64392
1765378470963,-0.77001953,-0.44970703,0.0068359375,15.930176,-15.075684,10.192871,0.0,0.0,0.0,-76.45386,55.063477,130.64392
1765378470975,-0.77001953,-0.44970703,0.0068359375,15.930176,-15.075684,10.192871,0.0,0.0,0.0,-73.081055,55.29419,131.73706
1765378471063,-0.6723633,-0.5390625,0.1796875,25.6958,7.6904297,-15.075684,0.0,0.0,0.0,-73.081055,55.29419,131.73706
1765378471075,-0.6723633,-0.5390625,0.1796875,25.6958,7.6904297,-15.075684,0.0,0.0,0.0,-71.13098,55.34912,132.52808
1765378471163,-0.9667969,-0.7783203,0.068359375,3.7231445,56.518555,-35.40039,0.0,0.0,0.0,-71.13098,55.34912,132.52808
1765378471174,-0.9667969,-0.7783203,0.068359375,3.7231445,56.518555,-35.40039,0.0,0.0,0.0,-74.36096,52.822266,125.425415
1765378471262,-0.8149414,-0.5522461,0.3227539,-40.83252,-18.066406,2.9907227,0.0,0.0,0.0,-74.36096,52.822266,125.425415
1765378471274,-0.8149414,-0.5522461,0.3227539,-40.83252,-18.066406,2.9907227,0.0,0.0,0.0,-82.41394,52.28943,118.33923
1765378471362,-0.92578125,-0.6279297,0.11621094,-25.512695,-39.79492,-31.188965,0.0,0.0,0.0,-82.41394,52.28943,118.33923
1765378471373,-0.92578125,-0.6279297,0.11621094,-25.512695,-39.79492,-31.188965,0.0,0.0,0.0,-76.206665,50.4657,127.11731
1765378471462,-0.66503906,-0.65771484,0.22753906,24.780273,22.766113,-11.230469,0.0,0.0,0.0,-76.206665,50.4657,127.11731
1765378471474,-0.66503906,-0.65771484,0.22753906,24.780273,22.766113,-11.230469,0.0,0.0,0.0,-75.48706,48.153076,126.66687
1765378471562,-0.7944336,-0.46484375,-0.08105469,-2.6245117,-28.808594,14.892578,0.0,0.0,0.0,-75.48706,48.153076,126.66687
1765378471573,-0.7944336,-0.46484375,-0.08105469,-2.6245117,-28.808594,14.892578,0.0,0.0,0.0,-76.46484,48.988037,126.37024
1765378471661,-0.89746094,-0.5966797,0.10595703,-48.034668,-15.50293,35.03418,0.0,0.0,0.0,-76.46484,48.988037,126.37024
1765378471673,-0.89746094,-0.5966797,0.10595703,-48.034668,-15.50293,35.03418,0.0,0.0,0.0,-76.46484,51.77307,132.72034
1765378471761,-1.0400391,-0.6010742,0.08642578,-13.61084,24.902344,11.474609,0.0,0.0,0.0,-76.46484,51.77307,132.72034
1765378471772,-1.0400391,-0.6010742,0.08642578,-13.61084,24.902344,11.474609,0.0,0.0,0.0,-80.40344,53.668213,130.70435
1765378471861,-0.61279297,-0.38476562,0.13574219,35.217285,-16.906738,12.329102,0.0,0.0,0.0,-80.40344,53.668213,130.70435
1765378471872,-0.61279297,-0.38476562,0.13574219,35.217285,-16.906738,12.329102,0.0,0.0,0.0,-79.10156,55.722656,130.52307
1765378471960,-0.8208008,-0.9135742,0.2841797,20.629883,5.554199,-16.296387,0.0,0.0,0.0,-79.10156,55.722656,130.52307
1765378471972,-0.8208008,-0.9135742,0.2841797,20.629883,5.554199,-16.296387,0.0,0.0,0.0,-75.43762,54.926147,131.28662
1765378472060,-0.8413086,-0.33935547,0.0146484375,-10.192871,-47.180176,26.428223,0.0,0.0,0.0,-75.43762,54.926147,131.28662
1765378472072,-0.8413086,-0.33935547,0.0146484375,-10.192871,-47.180176,26.428223,0.0,0.0,0.0,-70.29053,54.437256,137.07642
1765378472160,-0.64990234,-0.6225586,0.25048828,45.532227,11.230469,-21.057129,0.0,0.0,0.0,-70.29053,54.437256,137.07642
1765378472171,-0.64990234,-0.6225586,0.25048828,45.532227,11.230469,-21.057129,0.0,0.0,0.0,-66.483765,54.124146,136.8457
1765378472260,-0.9536133,-0.8955078,0.09375,14.099121,71.16699,-45.166016,0.0,0.0,0.0,-66.483765,54.124146,136.8457
1765378472271,-0.9536133,-0.8955078,0.09375,14.099121,71.16699,-45.166016,0.0,0.0,0.0,-70.70801,51.383057,126.52405
1765378472359,-0.9511719,-0.6904297,0.3227539,-66.52832,-19.226074,19.65332,0.0,0.0,0.0,-70.70801,51.383057,126.52405
1765378472371,-0.9511719,-0.6904297,0.3227539,-66.52832,-19.226074,19.65332,0.0,0.0,0.0,-78.21167,52.097168,120.91553
1765378472459,-0.6542969,-0.32128906,0.35107422,-22.094727,-39.978027,-18.615723,0.0,0.0,0.0,-78.21167,52.097168,120.91553
1765378472471,-0.6542969,-0.32128906,0.35107422,-22.094727,-39.978027,-18.615723,0.0,0.0,0.0,-72.69104,51.33362,130.72632
1765378472559,-0.6923828,-0.67626953,0.23144531,55.41992,12.6953125,-33.38623,0.0,0.0,0.0,-72.69104,51.33362,130.72632
1765378472570,-0.6923828,-0.67626953,0.23144531,55.41992,12.6953125,-33.38623,0.0,0.0,0.0,-70.98816,49.25171,130.94055
1765378472659,-0.78564453,-0.52001953,-0.068847656,17.211914,34.729004,-15.380859,0.0,0.0,0.0,-70.98816,49.25171,130.94055
1765378472670,-0.78564453,-0.52001953,-0.068847656,17.211914,34.729004,-15.380859,0.0,0.0,0.0,-71.96594,46.878662,124.82117
1765378472758,-0.8876953,-0.67626953,0.107421875,-73.30322,-32.165527,33.75244,0.0,0.0,0.0,-71.96594,46.878662,124.82117
1765378472770,-0.8876953,-0.67626953,0.107421875,-73.30322,-32.165527,33.75244,0.0,0.0,0.0,-73.37219,48.147583,125.947266
1765378472858,-0.90625,-0.7290039,0.265625,-26.794434,-5.3710938,4.3945312,0.0,0.0,0.0,-73.37219,48.147583,125.947266
1765378472870,-0.90625,-0.7290039,0.265625,-26.794434,-5.3710938,4.3945312,0.0,0.0,0.0,-74.44885,49.383545,129.60571
1765378472958,-0.42822266,-0.46191406,0.25878906,5.126953,-5.7373047,24.047852,0.0,0.0,0.0,-74.44885,49.383545,129.60571
1765378472969,-0.42822266,-0.46191406,0.25878906,5.126953,-5.7373047,24.047852,0.0,0.0,0.0,-73.33923,51.174316,130.77576
1765378473057,-1.0107422,-0.5366211,0.20654297,0.36621094,-16.540527,23.864746,0.0,0.0,0.0,-73.33923,51.174316,130.77576
1765378473069,-1.0107422,-0.5366211,0.20654297,0.36621094,-16.540527,23.864746,0.0,0.0,0.0,-72.284546,51.87195,130.99548
1765378473157,-0.65478516,-0.5751953,0.14257812,33.935547,24.719238,-10.620117,0.0,0.0,0.0,-72.284546,51.87195,130.99548
1765378473169,-0.65478516,-0.5751953,0.14257812,33.935547,24.719238,-10.620117,0.0,0.0,0.0,-70.50476,53.327637,130.95154
1765378473257,-0.7446289,-0.6567383,0.0053710938,37.841797,28.076172,-20.080566,0.0,0.0,0.0,-70.50476,53.327637,130.95154
1765378473268,-0.7446289,-0.6567383,0.0053710938,37.841797,28.076172,-20.080566,0.0,0.0,0.0,-71.49902,52.300415,125.38147
1765378473357,-0.86572266,-0.7260742,0.11376953,-39.0625,5.004883,13.48877,0.0,0.0,0.0,-71.49902,52.300415,125.38147
1765378473368,-0.86572266,-0.7260742,0.11376953,-39.0625,5.004883,13.48877,0.0,0.0,0.0,-74.020386,52.630005,123.77197
1765378473456,-0.6152344,-0.35888672,0.29052734,23.132324,-39.611816,-3.9672852,0.0,0.0,0.0,-74.020386,52.630005,123.77197
1765378473468,-0.6152344,-0.35888672,0.29052734,23.132324,-39.611816,-3.9672852,0.0,0.0,0.0,-74.904785,52.772827,125.05737
1765378473556,-1.0795898,-0.66552734,0.26904297,-20.324707,-5.7373047,-19.470215,0.0,0.0,0.0,-74.904785,52.772827,125.05737
1765378473568,-1.0795898,-0.66552734,0.26904297,-20.324707,-5.7373047,-19.470215,0.0,0.0,0.0,-71.87256,50.789795,128.59497
1765378473656,-0.6123047,-0.49609375,0.0625,0.7324219,26.489258,-27.526855,0.0,0.0,0.0,-71.87256,50.789795,128.59497
1765378473667,-0.6123047,-0.49609375,0.0625,0.7324219,26.489258,-27.526855,0.0,0.0,0.0,-72.21863,48.75183,124.82117
1765378473756,-0.78515625,-0.48876953,0.013671875,-44.86084,-35.64453,30.944824,0.0,0.0,0.0,-72.21863,48.75183,124.82117
1765378473767,-0.78515625,-0.48876953,0.013671875,-44.86084,-35.64453,30.944824,0.0,0.0,0.0,-72.46582,48.878174,126.04614
1765378473855,-0.8847656,-0.66796875,0.22216797,-7.9345703,6.4697266,6.3476562,0.0,0.0,0.0,-72.46582,48.878174,126.04614
1765378473867,-0.8847656,-0.66796875,0.22216797,-7.9345703,6.4697266,6.3476562,0.0,0.0,0.0,-74.23462,51.047974,129.80347
1765378473955,-0.7753906,-0.5859375,0.32763672,1.4648438,7.873535,17.089844,0.0,0.0,0.0,-74.23462,51.047974,129.80347
1765378473966,-0.7753906,-0.5859375,0.32763672,1.4648438,7.873535,17.089844,0.0,0.0,0.0,-77.074585,51.817017,127.5293
1765378474055,-0.7626953,-0.7631836,0.24902344,-0.61035156,16.479492,-3.540039,0.0,0.0,0.0,-77.074585,51.817017,127.5293
1765378474066,-0.7626953,-0.7631836,0.24902344,-0.61035156,16.479492,-3.540039,0.0,0.0,0.0,-75.93201,52.921143,127.056885
1765378474154,-0.7416992,-0.43017578,0.026367188,17.089844,-3.540039,25.024414,0.0,0.0,0.0,-75.93201,52.921143,127.056885
1765378474166,-0.7416992,-0.43017578,0.026367188,17.089844,-3.540039,25.024414,0.0,0.0,0.0,-73.87756,54.387817,129.09485
1765378474254,-0.65625,-0.58496094,0.05517578,57.556152,35.52246,-23.742676,0.0,0.0,0.0,-73.87756,54.387817,129.09485
1765378474266,-0.65625,-0.58496094,0.05517578,57.556152,35.52246,-23.742676,0.0,0.0,0.0,-72.89978,54.744873,125.58472
1765378474354,-0.7529297,-0.77734375,0.13085938,-1.8310547,26.672363,-13.305664,0.0,0.0,0.0,-72.89978,54.744873,125.58472
1765378474366,-0.7529297,-0.77734375,0.13085938,-1.8310547,26.672363,-13.305664,0.0,0.0,0.0,-75.426636,52.37732,117.70203
1765378474454,-1.140625,-0.68603516,0.36279297,-68.90869,-72.44873,22.888184,0.0,0.0,0.0,-75.426636,52.37732,117.70203
1765378474465,-1.140625,-0.68603516,0.36279297,-68.90869,-72.44873,22.888184,0.0,0.0,0.0,-78.810425,52.998047,121.48682
1765378474553,-0.8154297,-0.41357422,0.1694336,-43.21289,14.099121,-7.8125,0.0,0.0,0.0,-78.810425,52.998047,121.48682
1765378474565,-0.8154297,-0.41357422,0.1694336,-43.21289,14.099121,-7.8125,0.0,0.0,0.0,-76.04736,52.509155,128.2489
1765378474653,-0.6401367,-0.6020508,0.09716797,51.452637,3.4179688,-53.894043,0.0,0.0,0.0,-76.04736,52.509155,128.2489
1765378474665,-0.6401367,-0.6020508,0.09716797,51.452637,3.4179688,-53.894043,0.0,0.0,0.0,-77.86011,50.811768,125.08484
1765378474753,-0.8540039,-0.5029297,-0.24267578,26.306152,24.780273,-8.483887,0.0,0.0,0.0,-77.86011,50.811768,125.08484
1765378474764,-0.8540039,-0.5029297,-0.24267578,26.306152,24.780273,-8.483887,0.0,0.0,0.0,-78.392944,47.1698,120.30029
1765378474853,-0.86865234,-0.63720703,9.765625E-4,-48.76709,-31.677246,40.283203,0.0,0.0,0.0,-78.392944,47.1698,120.30029
1765378474864,-0.86865234,-0.63720703,9.765625E-4,-48.76709,-31.677246,40.283203,0.0,0.0,0.0,-80.05188,50.668945,124.27734
1765378474952,-0.98828125,-0.69677734,0.16357422,-2.1972656,30.029297,-5.065918,0.0,0.0,0.0,-80.05188,50.668945,124.27734
1765378474964,-0.98828125,-0.69677734,0.16357422,-2.1972656,30.029297,-5.065918,0.0,0.0,0.0,-80.842896,51.569824,124.43115
1765378475052,-0.49121094,-0.42822266,0.15234375,36.8042,-8.361816,16.113281,0.0,0.0,0.0,-80.842896,51.569824,124.43115
1765378475064,-0.49121094,-0.42822266,0.15234375,36.8042,-8.361816,16.113281,0.0,0.0,0.0,-80.80994,52.965088,122.15149
1765378475152,-1.0517578,-0.69384766,0.22314453,6.1035156,-13.793945,13.122559,0.0,0.0,0.0,-80.80994,52.965088,122.15149
1765378475163,-1.0517578,-0.69384766,0.22314453,6.1035156,-13.793945,13.122559,0.0,0.0,0.0,-79.19495,53.025513,122.27783
1765378475252,-0.66845703,-0.45947266,0.04248047,40.34424,-0.36621094,-2.8686523,0.0,0.0,0.0,-79.19495,53.025513,122.27783
1765378475264,-0.66845703,-0.45947266,0.04248047,40.34424,-0.36621094,-2.8686523,0.0,0.0,0.0,-74.02588,54.140625,127.30408
1765378475351,-0.67529297,-0.7661133,0.06591797,63.354492,33.081055,-43.029785,0.0,0.0,0.0,-74.02588,54.140625,127.30408
1765378475363,-0.67529297,-0.7661133,0.06591797,63.354492,33.081055,-43.029785,0.0,0.0,0.0,-72.323,52.542114,123.71704
1765378475451,-0.8457031,-0.7709961,0.21142578,-61.645508,-12.573242,14.953613,0.0,0.0,0.0,-72.323,52.542114,123.71704
1765378475463,-0.8457031,-0.7709961,0.21142578,-61.645508,-12.573242,14.953613,0.0,0.0,0.0,-74.833374,50.877686,119.663086
1765378475551,-0.6430664,-0.4008789,0.22753906,-6.591797,-33.203125,8.239746,0.0,0.0,0.0,-74.833374,50.877686,119.663086
1765378475563,-0.6430664,-0.4008789,0.22753906,-6.591797,-33.203125,8.239746,0.0,0.0,0.0,-78.00293,51.762085,123.14575
1765378475650,-0.9873047,-0.39208984,0.32373047,-25.6958,-12.756348,-9.460449,0.0,0.0,0.0,-78.00293,51.762085,123.14575
1765378475662,-0.9873047,-0.39208984,0.32373047,-25.6958,-12.756348,-9.460449,0.0,0.0,0.0,-74.937744,50.965576,128.00171
1765378475750,-0.6489258,-0.7426758,0.1694336,54.56543,9.338379,-35.339355,0.0,0.0,0.0,-74.937744,50.965576,128.00171
1765378475762,-0.6489258,-0.7426758,0.1694336,54.56543,9.338379,-35.339355,0.0,0.0,0.0,-73.152466,49.367065,127.353516
1765378475850,-0.8149414,-0.4716797,-0.100097656,6.4086914,-4.8828125,-9.887695,0.0,0.0,0.0,-73.152466,49.367065,127.353516
1765378475862,-0.8149414,-0.4716797,-0.100097656,6.4086914,-4.8828125,-9.887695,0.0,0.0,0.0,-74.63013,47.86743,122.79968
1765378475950,-0.94921875,-0.61376953,0.06933594,-73.913574,-38.085938,47.973633,0.0,0.0,0.0,-74.63013,47.86743,122.79968
1765378475961,-0.94921875,-0.61376953,0.06933594,-73.913574,-38.085938,47.973633,0.0,0.0,0.0,-74.37744,50.48767,132.182
1765378476049,-1.0732422,-0.72314453,0.38476562,2.2583008,10.681152,4.1503906,0.0,0.0,0.0,-74.37744,50.48767,132.182
1765378476061,-1.0732422,-0.72314453,0.38476562,2.2583008,10.681152,4.1503906,0.0,0.0,0.0,-76.00891,52.18506,131.4679
1765378476149,-0.38964844,-0.39404297,0.15283203,43.884277,19.16504,-7.507324,0.0,0.0,0.0,-76.00891,52.18506,131.4679
1765378476161,-0.38964844,-0.39404297,0.15283203,43.884277,19.16504,-7.507324,0.0,0.0,0.0,-73.47107,52.41577,128.86414
1765378476249,-1.0810547,-0.72802734,0.25976562,6.7749023,-8.850098,13.793945,0.0,0.0,0.0,-73.47107,52.41577,128.86414
1765378476260,-1.0810547,-0.72802734,0.25976562,6.7749023,-8.850098,13.793945,0.0,0.0,0.0,-75.71228,52.822266,124.958496
1765378476349,-0.6933594,-0.4897461,0.07128906,5.3710938,-15.991211,3.479004,0.0,0.0,0.0,-75.71228,52.822266,124.958496
1765378476360,-0.6933594,-0.4897461,0.07128906,5.3710938,-15.991211,3.479004,0.0,0.0,0.0,-70.76294,52.833252,130.91309
1765378476448,-0.66259766,-0.7241211,0.11376953,41.809082,27.954102,-22.766113,0.0,0.0,0.0,-70.76294,52.833252,130.91309
1765378476460,-0.66259766,-0.7241211,0.11376953,41.809082,27.954102,-22.766113,0.0,0.0,0.0,-70.026855,52.492676,128.05115
1765378476548,-0.90625,-0.69433594,0.19384766,-70.495605,-28.930664,15.258789,0.0,0.0,0.0,-70.026855,52.492676,128.05115
1765378476559,-0.90625,-0.69433594,0.19384766,-70.495605,-28.930664,15.258789,0.0,0.0,0.0,-73.064575,51.015015,126.55701
1765378476648,-0.58154297,-0.3540039,0.3154297,-19.592285,-51.574707,10.864258,0.0,0.0,0.0,-73.064575,51.015015,126.55701
1765378476659,-0.58154297,-0.3540039,0.3154297,-19.592285,-51.574707,10.864258,0.0,0.0,0.0,-70.614624,52.04773,134.86816
1765378476747,-1.0371094,-0.61328125,0.39453125,-33.081055,1.0986328,-18.920898,0.0,0.0,0.0,-70.614624,52.04773,134.86816
1765378476759,-1.0371094,-0.61328125,0.39453125,-33.081055,1.0986328,-18.920898,0.0,0.0,0.0,-70.76294,50.17456,136.68091
1765378476847,-0.6166992,-0.37597656,0.2890625,5.3100586,7.8125,-23.742676,0.0,0.0,0.0,-70.76294,50.17456,136.68091
1765378476859,-0.6166992,-0.37597656,0.2890625,5.3100586,7.8125,-23.742676,0.0,0.0,0.0,-69.142456,48.33435,133.58826
1765378476947,-0.84521484,-0.4970703,-0.02734375,11.108398,18.493652,12.145996,0.0,0.0,0.0,-69.142456,48.33435,133.58826
1765378476958,-0.84521484,-0.4970703,-0.02734375,11.108398,18.493652,12.145996,0.0,0.0,0.0,-71.52649,49.196777,129.14429
1765378477047,-0.91748047,-0.7138672,0.15039062,-26.794434,-0.48828125,13.183594,0.0,0.0,0.0,-71.52649,49.196777,129.14429
1765378477058,-0.91748047,-0.7138672,0.15039062,-26.794434,-0.48828125,13.183594,0.0,0.0,0.0,-74.053345,51.800537,129.06189
1765378477147,-1.0776367,-0.6723633,0.29638672,-25.939941,1.953125,25.817871,0.0,0.0,0.0,-74.053345,51.800537,129.06189
1765378477158,-1.0776367,-0.6723633,0.29638672,-25.939941,1.953125,25.817871,0.0,0.0,0.0,-77.51404,53.17932,128.50159
1765378477246,-0.45703125,-0.4716797,0.20605469,23.19336,-0.5493164,0.24414062,0.0,0.0,0.0,-77.51404,53.17932,128.50159
1765378477258,-0.45703125,-0.4716797,0.20605469,23.19336,-0.5493164,0.24414062,0.0,0.0,0.0,-73.95447,54.60205,130.3363
1765378477346,-1.0043945,-0.60302734,0.14794922,42.72461,-2.9296875,-0.7324219,0.0,0.0,0.0,-73.95447,54.60205,130.3363
1765378477357,-1.0043945,-0.60302734,0.14794922,42.72461,-2.9296875,-0.7324219,0.0,0.0,0.0,-72.26807,54.02527,129.0509
1765378477446,-0.6923828,-0.5175781,0.13085938,55.603027,37.41455,-15.686035,0.0,0.0,0.0,-72.26807,54.02527,129.0509
1765378477457,-0.6923828,-0.5175781,0.13085938,55.603027,37.41455,-15.686035,0.0,0.0,0.0,-70.3125,53.94287,124.50256
1765378477545,-0.63671875,-0.6875,0.083496094,48.40088,32.77588,-36.376953,0.0,0.0,0.0,-70.3125,53.94287,124.50256
1765378477557,-0.63671875,-0.6875,0.083496094,48.40088,32.77588,-36.376953,0.0,0.0,0.0,-70.6366,52.30591,117.78992
1765378477645,-0.8984375,-0.7402344,0.14404297,-54.44336,-6.225586,16.845703,0.0,0.0,0.0,-70.6366,52.30591,117.78992
1765378477657,-0.8984375,-0.7402344,0.14404297,-54.44336,-6.225586,16.845703,0.0,0.0,0.0,-73.740234,51.87195,115.88928
1765378477745,-0.73046875,-0.4970703,0.30615234,-8.544922,-34.5459,13.977051,0.0,0.0,0.0,-73.740234,51.87195,115.88928
1765378477756,-0.73046875,-0.4970703,0.30615234,-8.544922,-34.5459,13.977051,0.0,0.0,0.0,-75.99243,53.118896,119.27307
1765378477844,-1.0483398,-0.58251953,0.2763672,-35.949707,-12.512207,-30.761719,0.0,0.0,0.0,-75.99243,53.118896,119.27307
1765378477856,-1.0483398,-0.58251953,0.2763672,-35.949707,-12.512207,-30.761719,0.0,0.0,0.0,-74.55322,51.168823,123.05237
1765378477944,-0.5830078,-0.49169922,0.032714844,14.404297,33.325195,-20.263672,0.0,0.0,0.0,-74.55322,51.168823,123.05237
1765378477956,-0.5830078,-0.49169922,0.032714844,14.404297,33.325195,-20.263672,0.0,0.0,0.0,-72.66907,48.449707,121.986694
1765378478044,-0.8300781,-0.5307617,-0.026367188,-12.390137,-28.564453,16.296387,0.0,0.0,0.0,-72.66907,48.449707,121.986694
1765378478055,-0.8300781,-0.5307617,-0.026367188,-12.390137,-28.564453,16.296387,0.0,0.0,0.0,-73.75122,48.87268,121.19568
1765378478144,-0.87402344,-0.69628906,0.19238281,-23.19336,12.634277,8.972168,0.0,0.0,0.0,-73.75122,48.87268,121.19568
1765378478155,-0.87402344,-0.69628906,0.19238281,-23.19336,12.634277,8.972168,0.0,0.0,0.0,-75.6134,50.71289,123.55774
1765378478243,-0.9658203,-0.64501953,0.27978516,-13.977051,27.09961,37.719727,0.0,0.0,0.0,-75.6134,50.71289,123.55774
1765378478255,-0.9658203,-0.64501953,0.27978516,-13.977051,27.09961,37.719727,0.0,0.0,0.0,-79.56299,53.05298,121.40991
1765378478343,-0.59033203,-0.81396484,0.27978516,7.080078,7.6293945,-4.8828125,0.0,0.0,0.0,-79.56299,53.05298,121.40991
1765378478355,-0.59033203,-0.81396484,0.27978516,7.080078,7.6293945,-4.8828125,0.0,0.0,0.0,-78.76099,55.651245,120.41565
1765378478443,-0.84033203,-0.3540039,-0.024414062,11.047363,-3.479004,37.353516,0.0,0.0,0.0,-78.76099,55.651245,120.41565
1765378478454,-0.84033203,-0.3540039,-0.024414062,11.047363,-3.479004,37.353516,0.0,0.0,0.0,-77.58545,56.310425,122.35474
1765378478543,-0.7397461,-0.54541016,0.028808594,47.424316,17.333984,-24.414062,0.0,0.0,0.0,-77.58545,56.310425,122.35474
1765378478554,-0.7397461,-0.54541016,0.028808594,47.424316,17.333984,-24.414062,0.0,0.0,0.0,-76.69006,57.073975,120.39368
1765378478642,-0.76171875,-0.6484375,-0.03857422,18.249512,28.076172,-15.808105,0.0,0.0,0.0,-76.69006,57.073975,120.39368
1765378478654,-0.76171875,-0.6484375,-0.03857422,18.249512,28.076172,-15.808105,0.0,0.0,0.0,-78.167725,55.24475,114.65881
1765378478742,-1.0942383,-0.78759766,0.22460938,-44.006348,-41.503906,4.3945312,0.0,0.0,0.0,-78.167725,55.24475,114.65881
1765378478753,-1.0942383,-0.78759766,0.22460938,-44.006348,-41.503906,4.3945312,0.0,0.0,0.0,-81.57898,54.78882,115.08728
1765378478842,-0.73535156,-0.3852539,0.22558594,-13.305664,-44.799805,-15.075684,0.0,0.0,0.0,-81.57898,54.78882,115.08728
1765378478853,-0.73535156,-0.3852539,0.22558594,-13.305664,-44.799805,-15.075684,0.0,0.0,0.0,-75.162964,53.64624,126.05713
1765378478942,-0.7890625,-0.6352539,0.14794922,40.893555,16.540527,-20.141602,0.0,0.0,0.0,-75.162964,53.64624,126.05713
1765378478953,-0.7890625,-0.6352539,0.14794922,40.893555,16.540527,-20.141602,0.0,0.0,0.0,-73.72925,52.16858,129.5398
1765378479041,-0.74316406,-0.5283203,-0.03564453,16.357422,17.27295,-23.498535,0.0,0.0,0.0,-73.72925,52.16858,129.5398
1765378479053,-0.74316406,-0.5283203,-0.03564453,16.357422,17.27295,-23.498535,0.0,0.0,0.0,-73.168945,50.048218,125.06287
1765378479141,-0.8261719,-0.6191406,0.05029297,-69.70215,-20.080566,32.287598,0.0,0.0,0.0,-73.168945,50.048218,125.06287
1765378479152,-0.8261719,-0.6191406,0.05029297,-69.70215,-20.080566,32.287598,0.0,0.0,0.0,-73.22937,50.020752,126.24939
1765378479241,-1.0825195,-0.6425781,0.23339844,-13.183594,2.9296875,16.296387,0.0,0.0,0.0,-73.22937,50.020752,126.24939
1765378479252,-1.0825195,-0.6425781,0.23339844,-13.183594,2.9296875,16.296387,0.0,0.0,0.0,-76.82739,53.085938,129.83093
1765378479340,-0.4169922,-0.34960938,0.20507812,37.78076,2.9296875,18.066406,0.0,0.0,0.0,-76.82739,53.085938,129.83093
1765378479352,-0.4169922,-0.34960938,0.20507812,37.78076,2.9296875,18.066406,0.0,0.0,0.0,-75.15198,54.93164,129.77051
1765378479440,-1.1054688,-0.80371094,0.27294922,19.104004,16.540527,-11.779785,0.0,0.0,0.0,-75.15198,54.93164,129.77051
1765378479452,-1.1054688,-0.80371094,0.27294922,19.104004,16.540527,-11.779785,0.0,0.0,0.0,-74.16321,54.25049,126.760254
1765378479540,-0.71972656,-0.39257812,-0.020996094,11.901855,6.713867,12.207031,0.0,0.0,0.0,-74.16321,54.25049,126.760254
1765378479551,-0.71972656,-0.39257812,-0.020996094,11.901855,6.713867,12.207031,0.0,0.0,0.0,-72.1582,55.26123,125.99121
1765378479640,-0.66796875,-0.72021484,0.15234375,28.808594,3.4179688,-24.291992,0.0,0.0,0.0,-72.1582,55.26123,125.99121
1765378479651,-0.66796875,-0.72021484,0.15234375,28.808594,3.4179688,-24.291992,0.0,0.0,0.0,-69.922485,55.01953,126.85913
1765378479739,-0.99121094,-0.69873047,0.2084961,-55.17578,8.178711,0.5493164,0.0,0.0,0.0,-69.922485,55.01953,126.85913
1765378479751,-0.99121094,-0.69873047,0.2084961,-55.17578,8.178711,0.5493164,0.0,0.0,0.0,-74.020386,53.206787,122.387695
1765378479839,-0.4658203,-0.25439453,0.1821289,6.5307617,-47.668457,5.79834,0.0,0.0,0.0,-74.020386,53.206787,122.387695
1765378479851,-0.4658203,-0.25439453,0.1821289,6.5307617,-47.668457,5.79834,0.0,0.0,0.0,-74.07532,53.607788,128.0127
1765378479939,-1.265625,-0.6845703,0.2265625,0.0,6.164551,-19.104004,0.0,0.0,0.0,-74.07532,53.607788,128.0127
1765378479952,-1.265625,-0.6845703,0.2265625,0.0,6.164551,-19.104004,0.0,0.0,0.0,-75.17944,52.229004,129.23218
1765378480038,-0.5332031,-0.4555664,0.23095703,17.089844,39.611816,-37.17041,0.0,0.0,0.0,-75.17944,52.229004,129.23218
1765378480050,-0.5332031,-0.4555664,0.23095703,17.089844,39.611816,-37.17041,0.0,0.0,0.0,-74.8938,50.339355,124.436646
1765378480138,-0.8173828,-0.5332031,-0.0126953125,-12.878418,-20.935059,13.73291,0.0,0.0,0.0,-74.8938,50.339355,124.436646
1765378480150,-0.8173828,-0.5332031,-0.0126953125,-12.878418,-20.935059,13.73291,0.0,0.0,0.0,-75.34424,49.822998,121.70654
1765378480238,-0.95214844,-0.68847656,0.15771484,-39.855957,5.92041,25.57373,0.0,0.0,0.0,-75.34424,49.822998,121.70654
1765378480250,-0.95214844,-0.68847656,0.15771484,-39.855957,5.92041,25.57373,0.0,0.0,0.0,-78.1073,52.695923,125.53528
1765378480338,-0.76123047,-0.5307617,0.22265625,19.348145,-4.0893555,23.376465,0.0,0.0,0.0,-78.1073,52.695923,125.53528
1765378480349,-0.76123047,-0.5307617,0.22265625,19.348145,-4.0893555,23.376465,0.0,0.0,0.0,-80.05188,54.89868,124.25537
1765378480437,-0.6870117,-0.7084961,0.18017578,4.699707,9.033203,-17.578125,0.0,0.0,0.0,-80.05188,54.89868,124.25537
1765378480449,-0.6870117,-0.7084961,0.18017578,4.699707,9.033203,-17.578125,0.0,0.0,0.0,-76.36597,54.992065,125.16174
1765378480537,-0.8515625,-0.45263672,0.009765625,-4.3945312,-32.65381,25.390625,0.0,0.0,0.0,-76.36597,54.992065,125.16174
1765378480549,-0.8515625,-0.45263672,0.009765625,-4.3945312,-32.65381,25.390625,0.0,0.0,0.0,-71.78467,54.865723,130.11108
1765378480637,-0.65527344,-0.51953125,0.12841797,34.851074,20.690918,-17.456055,0.0,0.0,0.0,-71.78467,54.865723,130.11108
1765378480649,-0.65527344,-0.51953125,0.12841797,34.851074,20.690918,-17.456055,0.0,0.0,0.0,-71.60339,55.014038,128.21594
1765378480737,-0.8618164,-0.7871094,0.13671875,9.460449,34.5459,-28.625488,0.0,0.0,0.0,-71.60339,55.014038,128.21594
1765378480748,-0.8618164,-0.7871094,0.13671875,9.460449,34.5459,-28.625488,0.0,0.0,0.0,-74.70154,52.756348,121.03638
1765378480836,-0.88427734,-0.54541016,0.34326172,-44.128418,-50.598145,18.859863,0.0,0.0,0.0,-74.70154,52.756348,121.03638
1765378480848,-0.88427734,-0.54541016,0.34326172,-44.128418,-50.598145,18.859863,0.0,0.0,0.0,-77.87659,52.838745,123.29407
1765378480936,-0.95654297,-0.46240234,0.2993164,-36.193848,-25.268555,-11.047363,0.0,0.0,0.0,-77.87659,52.838745,123.29407
1765378480948,-0.95654297,-0.46240234,0.2993164,-36.193848,-25.268555,-11.047363,0.0,0.0,0.0,-73.45459,51.394043,130.55054
1765378481036,-0.5722656,-0.5209961,0.1821289,37.29248,-1.2817383,-33.813477,0.0,0.0,0.0,-73.45459,51.394043,130.55054
1765378481047,-0.5722656,-0.5209961,0.1821289,37.29248,-1.2817383,-33.813477,0.0,0.0,0.0,-71.795654,48.90564,129.06189
1765378481136,-0.8588867,-0.49316406,-0.171875,19.348145,0.48828125,1.8920898,0.0,0.0,0.0,-71.795654,48.90564,129.06189
1765378481147,-0.8588867,-0.49316406,-0.171875,19.348145,0.48828125,1.8920898,0.0,0.0,0.0,-72.68005,48.09265,126.414185
1765378481235,-0.80371094,-0.59765625,0.14501953,-48.40088,-4.211426,38.085938,0.0,0.0,0.0,-72.68005,48.09265,126.414185
1765378481247,-0.80371094,-0.59765625,0.14501953,-48.40088,-4.211426,38.085938,0.0,0.0,0.0,-75.90454,51.344604,128.76526
1765378481335,-1.1464844,-0.8076172,0.33740234,4.638672,14.343262,-4.5166016,0.0,0.0,0.0,-75.90454,51.344604,128.76526
1765378481346,-1.1464844,-0.8076172,0.33740234,4.638672,14.343262,-4.5166016,0.0,0.0,0.0,-78.47534,52.981567,128.07312
1765378481435,-0.39257812,-0.34521484,0.15478516,25.32959,6.8359375,19.470215,0.0,0.0,0.0,-78.47534,52.981567,128.07312
1765378481446,-0.39257812,-0.34521484,0.15478516,25.32959,6.8359375,19.470215,0.0,0.0,0.0,-77.39868,54.89868,126.69983
1765378481534,-1.0991211,-0.6855469,0.2109375,20.324707,-28.442383,9.521484,0.0,0.0,0.0,-77.39868,54.89868,126.69983
1765378481546,-1.0991211,-0.6855469,0.2109375,20.324707,-28.442383,9.521484,0.0,0.0,0.0,-75.57495,55.24475,126.98547
1765378481634,-0.70214844,-0.39746094,0.044921875,11.779785,-6.1035156,6.5307617,0.0,0.0,0.0,-75.57495,55.24475,126.98547
1765378481646,-0.70214844,-0.39746094,0.044921875,11.779785,-6.1035156,6.5307617,0.0,0.0,0.0,-72.06482,56.156616,130.94604
1765378481734,-0.76904297,-0.6977539,0.100097656,40.649414,33.569336,-37.475586,0.0,0.0,0.0,-72.06482,56.156616,130.94604
1765378481745,-0.76904297,-0.6977539,0.100097656,40.649414,33.569336,-37.475586,0.0,0.0,0.0,-71.4386,54.9646,128.15002
1765378481834,-1.0219727,-0.7729492,0.203125,-66.52832,11.352539,8.178711,0.0,0.0,0.0,-71.4386,54.9646,128.15002
1765378481845,-1.0219727,-0.7729492,0.203125,-66.52832,11.352539,8.178711,0.0,0.0,0.0,-77.59094,54.124146,122.195435
1765378481933,-0.44873047,-0.18945312,0.14550781,15.563965,-54.260254,-6.225586,0.0,0.0,0.0,-77.59094,54.124146,122.195435
1765378481945,-0.44873047,-0.18945312,0.14550781,15.563965,-54.260254,-6.225586,0.0,0.0,0.0,-74.5697,54.15161,130.13855
1765378482033,-1.0942383,-0.66748047,0.30371094,2.1972656,3.7231445,-17.51709,0.0,0.0,0.0,-74.5697,54.15161,130.13855
1765378482045,-1.0942383,-0.66748047,0.30371094,2.1972656,3.7231445,-17.51709,0.0,0.0,0.0,-74.77844,52.01477,130.2649
1765378482133,-0.68115234,-0.4868164,0.05810547,3.3569336,46.936035,-31.677246,0.0,0.0,0.0,-74.77844,52.01477,130.2649
1765378482144,-0.68115234,-0.4868164,0.05810547,3.3569336,46.936035,-31.677246,0.0,0.0,0.0,-73.83362,49.658203,126.02966
1765378482233,-0.7885742,-0.5175781,0.0014648438,-36.987305,-11.657715,26.062012,0.0,0.0,0.0,-73.83362,49.658203,126.02966
1765378482244,-0.7885742,-0.5175781,0.0014648438,-36.987305,-11.657715,26.062012,0.0,0.0,0.0,-75.772705,50.108643,122.12402
1765378482332,-0.90234375,-0.6611328,0.17871094,-12.268066,6.0424805,8.056641,0.0,0.0,0.0,-75.772705,50.108643,122.12402
1765378482344,-0.90234375,-0.6611328,0.17871094,-12.268066,6.0424805,8.056641,0.0,0.0,0.0,-77.612915,52.421265,125.337524
1765378482432,-0.53466797,-0.4873047,0.23388672,20.202637,10.559082,21.484375,0.0,0.0,0.0,-77.612915,52.421265,125.337524
1765378482444,-0.53466797,-0.4873047,0.23388672,20.202637,10.559082,21.484375,0.0,0.0,0.0,-79.974976,53.81653,122.948
1765378482532,-1.0883789,-0.703125,0.12890625,-8.483887,2.5024414,1.4038086,0.0,0.0,0.0,-79.974976,53.81653,122.948
1765378482543,-1.0883789,-0.703125,0.12890625,-8.483887,2.5024414,1.4038086,0.0,0.0,0.0,-80.13428,54.25598,121.14624
1765378482632,-0.6401367,-0.47802734,0.05029297,41.503906,12.145996,4.333496,0.0,0.0,0.0,-80.13428,54.25598,121.14624
1765378482643,-0.6401367,-0.47802734,0.05029297,41.503906,12.145996,4.333496,0.0,0.0,0.0,-76.76697,55.321655,123.70056
1765378482731,-0.6640625,-0.6875,0.0053710938,67.13867,31.188965,-32.53174,0.0,0.0,0.0,-76.76697,55.321655,123.70056
1765378482743,-0.6640625,-0.6875,0.0053710938,67.13867,31.188965,-32.53174,0.0,0.0,0.0,-75.46509,54.23401,118.97095
1765378482831,-0.93603516,-0.8466797,0.21582031,-33.75244,-11.71875,0.061035156,0.0,0.0,0.0,-75.46509,54.23401,118.97095
1765378482843,-0.93603516,-0.8466797,0.21582031,-33.75244,-11.71875,0.061035156,0.0,0.0,0.0,-76.2561,51.87744,115.6366
1765378482931,-0.75634766,-0.50341797,0.21826172,-41.625977,-18.676758,13.85498,0.0,0.0,0.0,-76.2561,51.87744,115.6366
1765378482942,-0.75634766,-0.50341797,0.21826172,-41.625977,-18.676758,13.85498,0.0,0.0,0.0,-81.34827,52.910156,119.278564
1765378483030,-0.73876953,-0.3515625,0.28222656,-22.827148,-21.54541,-17.39502,0.0,0.0,0.0,-81.34827,52.910156,119.278564
1765378483042,-0.73876953,-0.3515625,0.28222656,-22.827148,-21.54541,-17.39502,0.0,0.0,0.0,-78.986206,52.51465,124.090576
1765378483130,-0.6376953,-0.6347656,0.14013672,62.561035,12.512207,-40.95459,0.0,0.0,0.0,-78.986206,52.51465,124.090576
1765378483142,-0.6376953,-0.6347656,0.14013672,62.561035,12.512207,-40.95459,0.0,0.0,0.0,-75.651855,48.707886,126.502075
1765378483230,-0.7363281,-0.48291016,-0.008300781,-4.0283203,3.2958984,14.282227,0.0,0.0,0.0,-75.651855,48.707886,126.502075
1765378483242,-0.7363281,-0.48291016,-0.008300781,-4.0283203,3.2958984,14.282227,0.0,0.0,0.0,-78.05786,48.81775,122.266846
1765378483330,-0.9892578,-0.80908203,0.103515625,-48.64502,-20.629883,10.864258,0.0,0.0,0.0,-78.05786,48.81775,122.266846
1765378483341,-0.9892578,-0.80908203,0.103515625,-48.64502,-20.629883,10.864258,0.0,0.0,0.0,-78.17322,50.438232,128.0127
1765378483429,-1.0151367,-0.6142578,0.14160156,-26.733398,6.1035156,24.108887,0.0,0.0,0.0,-78.17322,50.438232,128.0127
1765378483441,-1.0151367,-0.6142578,0.14160156,-26.733398,6.1035156,24.108887,0.0,0.0,0.0,-81.95801,52.13562,129.11133
1765378483529,-0.44921875,-0.5932617,0.20605469,22.949219,0.6713867,2.5634766,0.0,0.0,0.0,-81.95801,52.13562,129.11133
1765378483541,-0.44921875,-0.5932617,0.20605469,22.949219,0.6713867,2.5634766,0.0,0.0,0.0,-79.799194,53.997803,129.74854
1765378483629,-0.9614258,-0.48828125,0.10546875,18.554688,-8.239746,18.310547,0.0,0.0,0.0,-79.799194,53.997803,129.74854
1765378483640,-0.9614258,-0.48828125,0.10546875,18.554688,-8.239746,18.310547,0.0,0.0,0.0,-80.617676,53.61328,126.430664
1765378483729,-0.6694336,-0.54785156,0.015136719,28.9917,4.333496,-1.8310547,0.0,0.0,0.0,-80.617676,53.61328,126.430664
1765378483740,-0.6694336,-0.54785156,0.015136719,28.9917,4.333496,-1.8310547,0.0,0.0,0.0,-77.4646,54.733887,128.25989
1765378483828,-0.70703125,-0.5859375,4.8828125E-4,23.254395,2.5634766,-21.484375,0.0,0.0,0.0,-77.4646,54.733887,128.25989
1765378483840,-0.70703125,-0.5859375,4.8828125E-4,23.254395,2.5634766,-21.484375,0.0,0.0,0.0,-76.18469,53.739624,126.39221
1765378483928,-0.99316406,-0.8330078,0.22363281,-19.348145,21.606445,-1.159668,0.0,0.0,0.0,-76.18469,53.739624,126.39221
1765378483939,-0.99316406,-0.8330078,0.22363281,-19.348145,21.606445,-1.159668,0.0,0.0,0.0,-77.612915,52.146606,124.7168
1765378484028,-0.6538086,-0.3046875,0.21826172,-6.8969727,-33.813477,0.12207031,0.0,0.0,0.0,-77.612915,52.146606,124.7168
1765378484040,-0.6538086,-0.3046875,0.21826172,-6.8969727,-33.813477,0.12207031,0.0,0.0,0.0,-77.68982,53.113403,126.67786
1765378484127,-0.7158203,-0.70458984,0.29492188,52.91748,5.126953,-36.010742,0.0,0.0,0.0,-77.68982,53.113403,126.67786
1765378484139,-0.7158203,-0.70458984,0.29492188,52.91748,5.126953,-36.010742,0.0,0.0,0.0,-74.9707,50.47119,129.33655
1765378484227,-0.73779297,-0.4873047,-0.0063476562,-4.8217773,-3.2958984,-14.526367,0.0,0.0,0.0,-74.9707,50.47119,129.33655
1765378484239,-0.73779297,-0.4873047,-0.0063476562,-4.8217773,-3.2958984,-14.526367,0.0,0.0,0.0,-74.069824,47.55432,125.95276
1765378484327,-0.83691406,-0.5214844,0.076660156,-47.790527,-20.629883,33.813477,0.0,0.0,0.0,-74.069824,47.55432,125.95276
1765378484338,-0.83691406,-0.5214844,0.076660156,-47.790527,-20.629883,33.813477,0.0,0.0,0.0,-73.74573,48.03772,128.79272
1765378484427,-0.9189453,-0.78759766,0.2055664,-1.2817383,16.723633,-0.91552734,0.0,0.0,0.0,-73.74573,48.03772,128.79272
1765378484438,-0.9189453,-0.78759766,0.2055664,-1.2817383,16.723633,-0.91552734,0.0,0.0,0.0,-75.97046,50.097656,129.03992
1765378484526,-0.7036133,-0.55859375,0.23046875,8.7890625,12.268066,20.324707,0.0,0.0,0.0,-75.97046,50.097656,129.03992
1765378484538,-0.7036133,-0.55859375,0.23046875,8.7890625,12.268066,20.324707,0.0,0.0,0.0,-78.00842,50.894165,125.529785
1765378484626,-0.61572266,-0.6411133,0.23339844,-5.9814453,-3.9672852,13.061523,0.0,0.0,0.0,-78.00842,50.894165,125.529785
1765378484638,-0.61572266,-0.6411133,0.23339844,-5.9814453,-3.9672852,13.061523,0.0,0.0,0.0,-75.025635,52.69043,127.43042
1765378484726,-0.8305664,-0.5361328,0.13330078,11.047363,-24.841309,19.042969,0.0,0.0,0.0,-75.025635,52.69043,127.43042
1765378484737,-0.8305664,-0.5361328,0.13330078,11.047363,-24.841309,19.042969,0.0,0.0,0.0,-71.61987,53.289185,130.83069
1765378484826,-0.6308594,-0.6308594,0.122558594,56.9458,20.141602,-13.61084,0.0,0.0,0.0,-71.61987,53.289185,130.83069
1765378484837,-0.6308594,-0.6308594,0.122558594,56.9458,20.141602,-13.61084,0.0,0.0,0.0,-69.4281,53.778076,128.79822
1765378484925,-0.7993164,-0.7089844,0.1352539,-20.324707,-7.9956055,-15.869141,0.0,0.0,0.0,-69.4281,53.778076,128.79822
1765378484937,-0.7993164,-0.7089844,0.1352539,-20.324707,-7.9956055,-15.869141,0.0,0.0,0.0,-69.906006,51.086426,126.80969
1765378485025,-1.012207,-0.67578125,0.30664062,-31.12793,17.51709,8.911133,0.0,0.0,0.0,-69.906006,51.086426,126.80969
1765378485037,-1.012207,-0.67578125,0.30664062,-31.12793,17.51709,8.911133,0.0,0.0,0.0,-73.31177,51.899414,128.50708
1765378485125,-0.41064453,-0.32226562,0.23535156,27.038574,-10.437012,-7.8125,0.0,0.0,0.0,-73.31177,51.899414,128.50708
1765378485136,-0.41064453,-0.32226562,0.23535156,27.038574,-10.437012,-7.8125,0.0,0.0,0.0,-72.647095,52.212524,128.47412
1765378485225,-1.0361328,-0.875,0.26416016,21.972656,1.6479492,-35.339355,0.0,0.0,0.0,-72.647095,52.212524,128.47412
1765378485236,-1.0361328,-0.875,0.26416016,21.972656,1.6479492,-35.339355,0.0,0.0,0.0,-74.16321,48.762817,125.99121
1765378485324,-0.7558594,-0.41357422,-0.046875,-13.549805,-15.991211,5.79834,0.0,0.0,0.0,-74.16321,48.762817,125.99121
1765378485336,-0.7558594,-0.41357422,-0.046875,-13.549805,-15.991211,5.79834,0.0,0.0,0.0,-73.27881,48.180542,126.3208
1765378485424,-0.86035156,-0.58447266,0.03857422,-26.733398,3.6010742,19.226074,0.0,0.0,0.0,-73.27881,48.180542,126.3208
1765378485436,-0.86035156,-0.58447266,0.03857422,-26.733398,3.6010742,19.226074,0.0,0.0,0.0,-73.67432,50.531616,130.38574
1765378485524,-0.9741211,-0.6323242,0.12011719,-14.953613,38.57422,4.211426,0.0,0.0,0.0,-73.67432,50.531616,130.38574
1765378485535,-0.9741211,-0.6323242,0.12011719,-14.953613,38.57422,4.211426,0.0,0.0,0.0,-79.035645,51.80603,125.70007
1765378485624,-0.5185547,-0.4482422,0.16601562,38.57422,0.9765625,24.230957,0.0,0.0,0.0,-79.035645,51.80603,125.70007
1765378485635,-0.5185547,-0.4482422,0.16601562,38.57422,0.9765625,24.230957,0.0,0.0,0.0,-80.62866,53.849487,121.937256
1765378485723,-0.9946289,-0.7890625,0.18408203,-3.8452148,6.0424805,13.549805,0.0,0.0,0.0,-80.62866,53.849487,121.937256
1765378485735,-0.9946289,-0.7890625,0.18408203,-3.8452148,6.0424805,13.549805,0.0,0.0,0.0,-79.98047,54.717407,121.02539
1765378485823,-0.7128906,-0.4584961,0.025390625,15.869141,-12.451172,-0.5493164,0.0,0.0,0.0,-79.98047,54.717407,121.02539
1765378485835,-0.7128906,-0.4584961,0.025390625,15.869141,-12.451172,-0.5493164,0.0,0.0,0.0,-74.833374,55.008545,125.95825
1765378485923,-0.68359375,-0.6425781,0.0107421875,43.33496,15.441895,-15.380859,0.0,0.0,0.0,-74.833374,55.008545,125.95825
1765378485934,-0.68359375,-0.6425781,0.0107421875,43.33496,15.441895,-15.380859,0.0,0.0,0.0,-73.19092,54.58008,124.0741
1765378486022,-0.88916016,-0.6933594,0.1508789,-44.433594,-11.047363,-9.765625,0.0,0.0,0.0,-73.19092,54.58008,124.0741
1765378486034,-0.88916016,-0.6933594,0.1508789,-44.433594,-11.047363,-9.765625,0.0,0.0,0.0,-75.14099,52.388306,122.22839
1765378486122,-0.99658203,-0.59814453,0.3930664,-21.118164,-19.226074,15.50293,0.0,0.0,0.0,-75.14099,52.388306,122.22839
1765378486134,-0.99658203,-0.59814453,0.3930664,-21.118164,-19.226074,15.50293,0.0,0.0,0.0,-78.87085,53.168335,124.766235
1765378486222,-0.7685547,-0.43066406,0.22802734,-30.334473,-13.85498,-20.263672,0.0,0.0,0.0,-78.87085,53.168335,124.766235
1765378486233,-0.7685547,-0.43066406,0.22802734,-30.334473,-13.85498,-20.263672,0.0,0.0,0.0,-76.51428,52.58606,129.07288
1765378486322,-0.6669922,-0.51904297,0.15625,32.53174,17.63916,-26.306152,0.0,0.0,0.0,-76.51428,52.58606,129.07288
1765378486333,-0.6669922,-0.51904297,0.15625,32.53174,17.63916,-26.306152,0.0,0.0,0.0,-75.51453,49.993286,128.05115
1765378486421,-0.8183594,-0.45263672,-0.025878906,-13.916016,-31.677246,17.700195,0.0,0.0,0.0,-75.51453,49.993286,128.05115
1765378486433,-0.8183594,-0.45263672,-0.025878906,-13.916016,-31.677246,17.700195,0.0,0.0,0.0,-75.41016,49.91638,128.79822
1765378486521,-0.9243164,-0.62890625,0.16064453,-1.0375977,9.70459,11.474609,0.0,0.0,0.0,-75.41016,49.91638,128.79822
1765378486533,-0.9243164,-0.62890625,0.16064453,-1.0375977,9.70459,11.474609,0.0,0.0,0.0,-75.48706,52.163086,132.06665
1765378486621,-1.0478516,-0.66259766,0.22851562,7.5683594,53.771973,4.8217773,0.0,0.0,0.0,-75.48706,52.163086,132.06665
1765378486632,-1.0478516,-0.66259766,0.22851562,7.5683594,53.771973,4.8217773,0.0,0.0,0.0,-80.3595,53.355103,126.13953
1765378486721,-0.47509766,-0.44433594,0.22460938,43.45703,11.352539,0.6713867,0.0,0.0,0.0,-80.3595,53.355103,126.13953
1765378486732,-0.47509766,-0.44433594,0.22460938,43.45703,11.352539,0.6713867,0.0,0.0,0.0,-80.112305,54.805298,121.71753
1765378486820,-0.9892578,-0.73828125,0.12646484,28.9917,-0.79345703,-1.4648438,0.0,0.0,0.0,-80.112305,54.805298,121.71753
1765378486832,-0.9892578,-0.73828125,0.12646484,28.9917,-0.79345703,-1.4648438,0.0,0.0,0.0,-80.45288,54.212036,118.45459
1765378486920,-0.70410156,-0.40185547,0.048339844,8.972168,-29.541016,19.40918,0.0,0.0,0.0,-80.45288,54.212036,118.45459
1765378486932,-0.70410156,-0.40185547,0.048339844,8.972168,-29.541016,19.40918,0.0,0.0,0.0,-74.58069,55.096436,125.859375
1765378487020,-0.68847656,-0.68896484,0.111816406,48.76709,43.09082,-39.55078,0.0,0.0,0.0,-74.58069,55.096436,125.859375
1765378487031,-0.68847656,-0.68896484,0.111816406,48.76709,43.09082,-39.55078,0.0,0.0,0.0,-72.47131,54.678955,124.557495
1765378487120,-1.0166016,-0.7270508,0.17871094,-29.968262,17.089844,13.73291,0.0,0.0,0.0,-72.47131,54.678955,124.557495
1765378487131,-1.0166016,-0.7270508,0.17871094,-29.968262,17.089844,13.73291,0.0,0.0,0.0,-77.25037,52.959595,115.91675
1765378487219,-0.48388672,-0.36279297,0.123535156,-9.70459,-14.892578,14.770508,0.0,0.0,0.0,-77.25037,52.959595,115.91675
1765378487231,-0.48388672,-0.36279297,0.123535156,-9.70459,-14.892578,14.770508,0.0,0.0,0.0,-80.2771,55.26123,118.097534
1765378487319,-1.0712891,-0.3779297,0.24560547,-25.45166,-46.447754,-20.324707,0.0,0.0,0.0,-80.2771,55.26123,118.097534
1765378487331,-1.0712891,-0.3779297,0.24560547,-25.45166,-46.447754,-20.324707,0.0,0.0,0.0,-78.96423,54.0802,121.728516
1765378487419,-0.5961914,-0.59472656,0.076171875,-12.512207,22.277832,-22.460938,0.0,0.0,0.0,-78.96423,54.0802,121.728516
1765378487430,-0.5961914,-0.59472656,0.076171875,-12.512207,22.277832,-22.460938,0.0,0.0,0.0,-76.00342,50.76233,123.552246
1765378487518,-0.7890625,-0.43554688,-0.025878906,-42.907715,-65.67383,23.55957,0.0,0.0,0.0,-76.00342,50.76233,123.552246
1765378487530,-0.7890625,-0.43554688,-0.025878906,-42.907715,-65.67383,23.55957,0.0,0.0,0.0,-76.761475,50.718384,125.71106
1765378487618,-0.9609375,-0.63916016,0.16308594,-21.54541,-10.681152,11.413574,0.0,0.0,0.0,-76.761475,50.718384,125.71106
1765378487630,-0.9609375,-0.63916016,0.16308594,-21.54541,-10.681152,11.413574,0.0,0.0,0.0,-75.7782,52.49817,134.52759
1765378487718,-1.1269531,-0.7138672,0.30664062,-0.5493164,28.442383,8.972168,0.0,0.0,0.0,-75.7782,52.49817,134.52759
1765378487730,-1.1269531,-0.7138672,0.30664062,-0.5493164,28.442383,8.972168,0.0,0.0,0.0,-79.6344,54.11316,132.29736
1765378487818,-0.4477539,-0.55029297,0.19726562,31.860352,12.573242,-7.9956055,0.0,0.0,0.0,-79.6344,54.11316,132.29736
1765378487829,-0.4477539,-0.55029297,0.19726562,31.860352,12.573242,-7.9956055,0.0,0.0,0.0,-76.657104,54.799805,131.3031
1765378487917,-0.95751953,-0.52783203,0.15966797,24.841309,-13.366699,22.094727,0.0,0.0,0.0,-76.657104,54.799805,131.3031
1765378487929,-0.95751953,-0.52783203,0.15966797,24.841309,-13.366699,22.094727,0.0,0.0,0.0,-77.508545,55.360107,127.96875
1765378488018,-0.71240234,-0.5566406,0.13916016,41.381836,1.8310547,-20.874023,0.0,0.0,0.0,-77.508545,55.360107,127.96875
1765378488029,-0.71240234,-0.5566406,0.13916016,41.381836,1.8310547,-20.874023,0.0,0.0,0.0,-71.91101,54.87671,130.6604
1765378488117,-0.6948242,-0.69384766,0.029296875,41.015625,42.907715,-30.334473,0.0,0.0,0.0,-71.91101,54.87671,130.6604
1765378488128,-0.6948242,-0.69384766,0.029296875,41.015625,42.907715,-30.334473,0.0,0.0,0.0,-72.26257,52.805786,124.72229
1765378488217,-0.79052734,-0.76171875,0.18798828,-69.33594,-14.831543,7.5683594,0.0,0.0,0.0,-72.26257,52.805786,124.72229
1765378488228,-0.79052734,-0.76171875,0.18798828,-69.33594,-14.831543,7.5683594,0.0,0.0,0.0,-76.49231,52.141113,121.75049
1765378488316,-0.65625,-0.33007812,0.2680664,-32.226562,-81.66504,-0.36621094,0.0,0.0,0.0,-76.49231,52.141113,121.75049
1765378488328,-0.65625,-0.33007812,0.2680664,-32.226562,-81.66504,-0.36621094,0.0,0.0,0.0,-77.23389,51.1084,128.60596
1765378488416,-1.0234375,-0.63671875,0.2705078,15.136719,3.7841797,-7.3242188,0.0,0.0,0.0,-77.23389,51.1084,128.60596
1765378488428,-1.0234375,-0.63671875,0.2705078,15.136719,3.7841797,-7.3242188,0.0,0.0,0.0,-74.77295,49.509888,136.00525
1765378488516,-0.55566406,-0.44384766,0.26171875,44.067383,16.601562,-27.282715,0.0,0.0,0.0,-74.77295,49.509888,136.00525
1765378488527,-0.55566406,-0.44384766,0.26171875,44.067383,16.601562,-27.282715,0.0,0.0,0.0,-71.87805,49.086914,132.85217
1765378488616,-0.85839844,-0.6411133,-0.17871094,5.1879883,41.19873,11.779785,0.0,0.0,0.0,-71.87805,49.086914,132.85217
1765378488627,-0.85839844,-0.6411133,-0.17871094,5.1879883,41.19873,11.779785,0.0,0.0,0.0,-72.98218,48.433228,127.85339
1765378488715,-0.99365234,-0.7348633,0.17236328,-74.401855,-11.779785,46.50879,0.0,0.0,0.0,-72.98218,48.433228,127.85339
1765378488727,-0.99365234,-0.7348633,0.17236328,-74.401855,-11.779785,46.50879,0.0,0.0,0.0,-80.84839,53.025513,126.51306
1765378488815,-0.6118164,-0.28955078,0.21240234,66.40625,-54.870605,5.432129,0.0,0.0,0.0,-80.84839,53.025513,126.51306
1765378488827,-0.6118164,-0.28955078,0.21240234,66.40625,-54.870605,5.432129,0.0,0.0,0.0,-74.37195,54.420776,132.61047
1765378488915,-1.1279297,-0.9243164,0.25683594,37.41455,64.27002,-8.728027,0.0,0.0,0.0,-74.37195,54.420776,132.61047
1765378488926,-1.1279297,-0.9243164,0.25683594,37.41455,64.27002,-8.728027,0.0,0.0,0.0,-75.19592,54.832764,127.44141
1765378489015,-0.48828125,-0.4267578,-0.078125,81.78711,66.589355,-20.446777,0.0,0.0,0.0,-75.19592,54.832764,127.44141
1765378489026,-0.48828125,-0.4267578,-0.078125,81.78711,66.589355,-20.446777,0.0,0.0,0.0,-78.43689,54.54712,114.971924
1765378489114,-0.6777344,-0.8076172,0.037597656,-11.474609,-36.376953,-12.023926,0.0,0.0,0.0,-78.43689,54.54712,114.971924
1765378489126,-0.6777344,-0.8076172,0.037597656,-11.474609,-36.376953,-12.023926,0.0,0.0,0.0,-77.1405,52.789307,114.30725
1765378489214,-0.94677734,-0.78222656,0.1977539,-37.78076,-3.3569336,-2.1362305,0.0,0.0,0.0,-77.1405,52.789307,114.30725
1765378489225,-0.94677734,-0.78222656,0.1977539,-37.78076,-3.3569336,-2.1362305,0.0,0.0,0.0,-79.29932,50.806274,116.69678
1765378489314,-0.59375,-0.38134766,0.2763672,7.446289,-49.926758,14.587402,0.0,0.0,0.0,-79.29932,50.806274,116.69678
1765378489325,-0.59375,-0.38134766,0.2763672,7.446289,-49.926758,14.587402,0.0,0.0,0.0,-80.1947,51.44348,120.17944
1765378489413,-1.0595703,-0.56103516,0.17285156,-47.668457,-13.000488,-15.258789,0.0,0.0,0.0,-80.1947,51.44348,120.17944
1765378489425,-1.0595703,-0.56103516,0.17285156,-47.668457,-13.000488,-15.258789,0.0,0.0,0.0,-77.66785,50.20752,125.86487
1765378489513,-0.6513672,-0.5053711,0.059570312,-4.272461,2.746582,-10.070801,0.0,0.0,0.0,-77.66785,50.20752,125.86487
1765378489525,-0.6513672,-0.5053711,0.059570312,-4.272461,2.746582,-10.070801,0.0,0.0,0.0,-76.398926,49.207764,125.59021
1765378489613,-0.7792969,-0.53808594,0.018554688,-13.244629,-25.390625,12.817383,0.0,0.0,0.0,-76.398926,49.207764,125.59021
1765378489625,-0.7792969,-0.53808594,0.018554688,-13.244629,-25.390625,12.817383,0.0,0.0,0.0,-74.9762,49.46045,128.39172
1765378489713,-0.8911133,-0.6821289,0.12060547,-49.072266,-7.2631836,30.700684,0.0,0.0,0.0,-74.9762,49.46045,128.39172
1765378489724,-0.8911133,-0.6821289,0.12060547,-49.072266,-7.2631836,30.700684,0.0,0.0,0.0,-76.94275,52.020264,131.33057
1765378489812,-1.0683594,-0.6381836,0.2705078,-24.108887,-19.16504,27.038574,0.0,0.0,0.0,-76.94275,52.020264,131.33057
1765378489824,-1.0683594,-0.6381836,0.2705078,-24.108887,-19.16504,27.038574,0.0,0.0,0.0,-79.469604,54.11316,133.67065
1765378489912,-0.45507812,-0.5332031,0.2265625,24.414062,-18.188477,-6.1035156,0.0,0.0,0.0,-79.469604,54.11316,133.67065
1765378489924,-0.45507812,-0.5332031,0.2265625,24.414062,-18.188477,-6.1035156,0.0,0.0,0.0,-71.13098,54.371338,139.02649
1765378490012,-0.9580078,-0.5493164,0.18359375,17.028809,-10.009766,14.282227,0.0,0.0,0.0,-71.13098,54.371338,139.02649
1765378490023,-0.9580078,-0.5493164,0.18359375,17.028809,-10.009766,14.282227,0.0,0.0,0.0,-69.713745,53.723145,137.83997
1765378490112,-0.70214844,-0.50341797,0.125,50.1709,15.991211,-18.310547,0.0,0.0,0.0,-69.713745,53.723145,137.83997
1765378490123,-0.70214844,-0.50341797,0.125,50.1709,15.991211,-18.310547,0.0,0.0,0.0,-67.44507,53.827515,135.63171
1765378490211,-0.73046875,-0.7084961,0.067871094,38.391113,43.823242,-20.751953,0.0,0.0,0.0,-67.44507,53.827515,135.63171
1765378490224,-0.73046875,-0.7084961,0.067871094,38.391113,43.823242,-20.751953,0.0,0.0,0.0,-68.50525,52.981567,129.35852
1765378490311,-1.0605469,-0.73291016,0.19482422,-61.584473,-7.1411133,9.399414,0.0,0.0,0.0,-68.50525,52.981567,129.35852
1765378490323,-1.0605469,-0.73291016,0.19482422,-61.584473,-7.1411133,9.399414,0.0,0.0,0.0,-72.70203,53.02002,127.11182
1765378490411,-0.41015625,-0.3491211,0.23730469,0.12207031,-46.325684,1.7089844,0.0,0.0,0.0,-72.70203,53.02002,127.11182
1765378490423,-0.41015625,-0.3491211,0.23730469,0.12207031,-46.325684,1.7089844,0.0,0.0,0.0,-70.598145,52.22351,131.59424
1765378490510,-0.99609375,-0.49902344,0.35742188,-13.916016,4.760742,-17.27295,0.0,0.0,0.0,-70.598145,52.22351,131.59424
1765378490522,-0.99609375,-0.49902344,0.35742188,-13.916016,4.760742,-17.27295,0.0,0.0,0.0,-70.60913,50.39978,132.19849
1765378490610,-0.58203125,-0.5102539,0.17089844,24.108887,34.42383,-41.68701,0.0,0.0,0.0,-70.60913,50.39978,132.19849
1765378490622,-0.58203125,-0.5102539,0.17089844,24.108887,34.42383,-41.68701,0.0,0.0,0.0,-69.76868,47.84546,128.55652
1765378490710,-0.77978516,-0.5214844,0.059570312,-25.45166,-26.794434,25.268555,0.0,0.0,0.0,-69.76868,47.84546,128.55652
1765378490721,-0.77978516,-0.5214844,0.059570312,-25.45166,-26.794434,25.268555,0.0,0.0,0.0,-70.12024,47.373047,127.5293
1765378490810,-0.90478516,-0.7270508,0.26708984,-14.221191,-0.7324219,11.413574,0.0,0.0,0.0,-70.12024,47.373047,127.5293
1765378490821,-0.90478516,-0.7270508,0.26708984,-14.221191,-0.7324219,11.413574,0.0,0.0,0.0,-72.004395,50.064697,130.85815
1765378490909,-0.9658203,-0.7236328,0.33740234,-21.240234,17.211914,27.58789,0.0,0.0,0.0,-72.004395,50.064697,130.85815
1765378490921,-0.9658203,-0.7236328,0.33740234,-21.240234,17.211914,27.58789,0.0,0.0,0.0,-75.25635,51.602783,129.72107
1765378491009,-0.45361328,-0.58447266,0.26220703,4.0893555,-4.699707,1.3427734,0.0,0.0,0.0,-75.25635,51.602783,129.72107
1765378491021,-0.45361328,-0.58447266,0.26220703,4.0893555,-4.699707,1.3427734,0.0,0.0,0.0,-72.39441,53.997803,131.76453
1765378491109,-0.9345703,-0.45117188,0.1171875,0.0,-27.58789,24.658203,0.0,0.0,0.0,-72.39441,53.997803,131.76453
1765378491120,-0.9345703,-0.45117188,0.1171875,0.0,-27.58789,24.658203,0.0,0.0,0.0,-71.46057,53.585815,132.41272
1765378491209,-0.69628906,-0.48828125,0.14355469,57.434082,19.89746,-10.437012,0.0,0.0,0.0,-71.46057,53.585815,132.41272
1765378491220,-0.69628906,-0.48828125,0.14355469,57.434082,19.89746,-10.437012,0.0,0.0,0.0,-69.02161,54.536133,131.9403
1765378491308,-0.70996094,-0.7866211,0.053222656,69.58008,53.527832,-40.222168,0.0,0.0,0.0,-69.02161,54.536133,131.9403
1765378491320,-0.70996094,-0.7866211,0.053222656,69.58008,53.527832,-40.222168,0.0,0.0,0.0,-69.00513,53.371582,123.92578
1765378491408,-0.9345703,-0.7607422,0.2783203,-89.29443,-32.714844,25.817871,0.0,0.0,0.0,-69.00513,53.371582,123.92578
1765378491420,-0.9345703,-0.7607422,0.2783203,-89.29443,-32.714844,25.817871,0.0,0.0,0.0,-73.83911,52.767334,120.668335
1765378491508,-0.5126953,-0.26660156,0.17285156,-10.803223,-36.8042,5.432129,0.0,0.0,0.0,-73.83911,52.767334,120.668335
1765378491519,-0.5126953,-0.26660156,0.17285156,-10.803223,-36.8042,5.432129,0.0,0.0,0.0,-72.976685,53.377075,128.96301
1765378491608,-1.1269531,-0.68359375,0.2709961,6.286621,-2.2583008,-18.676758,0.0,0.0,0.0,-72.976685,53.377075,128.96301
1765378491619,-1.1269531,-0.68359375,0.2709961,6.286621,-2.2583008,-18.676758,0.0,0.0,0.0,-74.74548,52.404785,130.35278
1765378491707,-0.62158203,-0.45214844,0.076171875,13.122559,41.503906,-38.757324,0.0,0.0,0.0,-74.74548,52.404785,130.35278
1765378491719,-0.62158203,-0.45214844,0.076171875,13.122559,41.503906,-38.757324,0.0,0.0,0.0,-72.647095,49.048462,127.32056
1765378491807,-0.80126953,-0.56152344,-0.020019531,-36.499023,-16.052246,36.010742,0.0,0.0,0.0,-72.647095,49.048462,127.32056
1765378491818,-0.80126953,-0.56152344,-0.020019531,-36.499023,-16.052246,36.010742,0.0,0.0,0.0,-73.61389,49.592285,124.782715
1765378491907,-0.92529297,-0.640625,0.20263672,-16.418457,-12.451172,2.6855469,0.0,0.0,0.0,-73.61389,49.592285,124.782715
1765378491918,-0.92529297,-0.640625,0.20263672,-16.418457,-12.451172,2.6855469,0.0,0.0,0.0,-74.98718,51.795044,128.9685
1765378492007,-0.87158203,-0.66503906,0.3095703,4.5166016,17.8833,15.563965,0.0,0.0,0.0,-74.98718,51.795044,128.9685
1765378492018,-0.87158203,-0.66503906,0.3095703,4.5166016,17.8833,15.563965,0.0,0.0,0.0,-77.71179,52.981567,127.562256
1765378492106,-0.58203125,-0.6713867,0.23779297,18.859863,6.164551,-10.070801,0.0,0.0,0.0,-77.71179,52.981567,127.562256
1765378492118,-0.58203125,-0.6713867,0.23779297,18.859863,6.164551,-10.070801,0.0,0.0,0.0,-74.470825,53.706665,127.628174
1765378492206,-0.8510742,-0.44726562,0.080078125,20.263672,-25.08545,18.493652,0.0,0.0,0.0,-74.470825,53.706665,127.628174
1765378492218,-0.8510742,-0.44726562,0.080078125,20.263672,-25.08545,18.493652,0.0,0.0,0.0,-71.2738,53.514404,129.25964
1765378492306,-0.6567383,-0.59716797,0.15185547,54.56543,29.60205,-19.226074,0.0,0.0,0.0,-71.2738,53.514404,129.25964
1765378492317,-0.6567383,-0.59716797,0.15185547,54.56543,29.60205,-19.226074,0.0,0.0,0.0,-67.961426,53.168335,128.58398
1765378492405,-0.75927734,-0.68652344,0.096191406,31.555176,53.95508,-24.353027,0.0,0.0,0.0,-67.961426,53.168335,128.58398
1765378492417,-0.75927734,-0.68652344,0.096191406,31.555176,53.95508,-24.353027,0.0,0.0,0.0,-70.90027,52.421265,119.49829
1765378492505,-1.2041016,-0.9433594,0.37939453,-88.74512,-20.812988,14.709473,0.0,0.0,0.0,-70.90027,52.421265,119.49829
1765378492517,-1.2041016,-0.9433594,0.37939453,-88.74512,-20.812988,14.709473,0.0,0.0,0.0,-77.404175,52.443237,116.71875
1765378492605,-0.58740234,-0.2680664,0.119140625,-17.089844,-38.757324,-8.728027,0.0,0.0,0.0,-77.404175,52.443237,116.71875
1765378492616,-0.58740234,-0.2680664,0.119140625,-17.089844,-38.757324,-8.728027,0.0,0.0,0.0,-75.16846,52.9541,125.83191
1765378492705,-0.8989258,-0.72314453,0.30810547,40.893555,-8.178711,-20.080566,0.0,0.0,0.0,-75.16846,52.9541,125.83191
1765378492716,-0.8989258,-0.72314453,0.30810547,40.893555,-8.178711,-20.080566,0.0,0.0,0.0,-74.31702,51.25122,128.52356
1765378492804,-0.703125,-0.49121094,-0.13671875,13.000488,6.5307617,-13.977051,0.0,0.0,0.0,-74.31702,51.25122,128.52356
1765378492816,-0.703125,-0.49121094,-0.13671875,13.000488,6.5307617,-13.977051,0.0,0.0,0.0,-71.33972,48.52112,126.71631
1765378492904,-0.85302734,-0.54541016,-0.0146484375,-80.26123,-18.493652,56.518555,0.0,0.0,0.0,-71.33972,48.52112,126.71631
1765378492916,-0.85302734,-0.54541016,-0.0146484375,-80.26123,-18.493652,56.518555,0.0,0.0,0.0,-71.971436,50.405273,128.22144
1765378493004,-1.203125,-0.9033203,0.3383789,11.901855,17.63916,-18.127441,0.0,0.0,0.0,-71.971436,50.405273,128.22144
1765378493015,-1.203125,-0.9033203,0.3383789,11.901855,17.63916,-18.127441,0.0,0.0,0.0,-74.92676,53.267212,130.43518
1765378493104,-0.4326172,-0.3149414,0.08154297,19.226074,27.038574,10.437012,0.0,0.0,0.0,-74.92676,53.267212,130.43518
1765378493115,-0.4326172,-0.3149414,0.08154297,19.226074,27.038574,10.437012,0.0,0.0,0.0,-73.377686,52.300415,128.69385
1765378493203,-0.6582031,-0.43310547,0.13476562,12.207031,59.2041,22.399902,0.0,0.0,0.0,-73.377686,52.300415,128.69385
1765378493215,-0.6582031,-0.43310547,0.13476562,12.207031,59.2041,22.399902,0.0,0.0,0.0,-77.63489,55.29419,120.88257
1765378493303,-0.72314453,-0.6772461,0.0126953125,36.254883,0.5493164,-29.541016,0.0,0.0,0.0,-77.63489,55.29419,120.88257
1765378493315,-0.72314453,-0.6772461,0.0126953125,36.254883,0.5493164,-29.541016,0.0,0.0,0.0,-75.371704,54.66797,119.28955
1765378493403,-0.62646484,-0.5854492,0.080078125,-1.5869141,-21.66748,4.4555664,0.0,0.0,0.0,-75.371704,54.66797,119.28955
1765378493415,-0.62646484,-0.5854492,0.080078125,-1.5869141,-21.66748,4.4555664,0.0,0.0,0.0,-73.66333,53.651733,120.6189
1765378493503,-1.0,-0.7792969,0.16210938,-22.399902,7.3242188,-5.3100586,0.0,0.0,0.0,-73.66333,53.651733,120.6189
1765378493514,-1.0,-0.7792969,0.16210938,-22.399902,7.3242188,-5.3100586,0.0,0.0,0.0,-74.99817,52.542114,121.48132
1765378493602,-0.8618164,-0.52197266,0.27246094,-38.81836,-24.658203,18.005371,0.0,0.0,0.0,-74.99817,52.542114,121.48132
1765378493614,-0.8618164,-0.52197266,0.27246094,-38.81836,-24.658203,18.005371,0.0,0.0,0.0,-79.17297,53.530884,122.18994
1765378493702,-0.8901367,-0.4658203,0.28271484,-23.254395,-13.061523,-23.4375,0.0,0.0,0.0,-79.17297,53.530884,122.18994
1765378493714,-0.8901367,-0.4658203,0.28271484,-23.254395,-13.061523,-23.4375,0.0,0.0,0.0,-74.9762,52.51465,127.683105
1765378493802,-0.5629883,-0.59033203,0.27978516,50.1709,15.380859,-29.724121,0.0,0.0,0.0,-74.9762,52.51465,127.683105
1765378493813,-0.5629883,-0.59033203,0.27978516,50.1709,15.380859,-29.724121,0.0,0.0,0.0,-72.76245,50.438232,126.73279
1765378493901,-0.8613281,-0.44921875,-0.06689453,10.620117,-13.977051,-3.479004,0.0,0.0,0.0,-72.76245,50.438232,126.73279
1765378493913,-0.8613281,-0.44921875,-0.06689453,10.620117,-13.977051,-3.479004,0.0,0.0,0.0,-73.70178,49.383545,123.99719
1765378494001,-0.93652344,-0.63134766,0.11328125,-57.31201,-25.45166,32.592773,0.0,0.0,0.0,-73.70178,49.383545,123.99719
1765378494013,-0.93652344,-0.63134766,0.11328125,-57.31201,-25.45166,32.592773,0.0,0.0,0.0,-73.10852,51.679688,132.09412
1765378494101,-0.9453125,-0.6464844,0.27392578,-19.470215,11.901855,18.615723,0.0,0.0,0.0,-73.10852,51.679688,132.09412
1765378494113,-0.9453125,-0.6464844,0.27392578,-19.470215,11.901855,18.615723,0.0,0.0,0.0,-75.6134,53.294678,131.74805
1765378494201,-0.43652344,-0.4086914,0.18359375,13.48877,1.7089844,13.916016,0.0,0.0,0.0,-75.6134,53.294678,131.74805
1765378494212,-0.43652344,-0.4086914,0.18359375,13.48877,1.7089844,13.916016,0.0,0.0,0.0,-75.6134,55.51941,130.9845
1765378494300,-1.1425781,-0.6274414,0.20996094,-4.699707,-33.14209,12.145996,0.0,0.0,0.0,-75.6134,55.51941,130.9845
1765378494312,-1.1425781,-0.6274414,0.20996094,-4.699707,-33.14209,12.145996,0.0,0.0,0.0,-74.13574,55.090942,132.40173
1765378494400,-0.7163086,-0.4580078,0.08154297,31.433105,14.282227,-0.6713867,0.0,0.0,0.0,-74.13574,55.090942,132.40173
1765378494412,-0.7163086,-0.4580078,0.08154297,31.433105,14.282227,-0.6713867,0.0,0.0,0.0,-70.93872,55.92041,134.45068
1765378494500,-0.73095703,-0.6201172,0.125,51.757812,41.07666,-21.240234,0.0,0.0,0.0,-70.93872,55.92041,134.45068
1765378494511,-0.73095703,-0.6201172,0.125,51.757812,41.07666,-21.240234,0.0,0.0,0.0,-71.04309,55.568848,128.84766
1765378494600,-0.92578125,-0.6972656,0.1586914,-53.95508,18.188477,2.0751953,0.0,0.0,0.0,-71.04309,55.568848,128.84766
1765378494611,-0.92578125,-0.6972656,0.1586914,-53.95508,18.188477,2.0751953,0.0,0.0,0.0,-76.777954,55.06897,122.12952
1765378494699,-0.5546875,-0.30908203,0.21386719,-8.911133,-45.898438,6.8359375,0.0,0.0,0.0,-76.777954,55.06897,122.12952
1765378494711,-0.5546875,-0.30908203,0.21386719,-8.911133,-45.898438,6.8359375,0.0,0.0,0.0,-78.53577,55.513916,126.2439
1765378494799,-1.230957,-0.6347656,0.22802734,-12.145996,-13.305664,-25.512695,0.0,0.0,0.0,-78.53577,55.513916,126.2439
1765378494811,-1.230957,-0.6347656,0.22802734,-12.145996,-13.305664,-25.512695,0.0,0.0,0.0,-78.40393,53.025513,128.16101
1765378494899,-0.5961914,-0.42285156,-0.08984375,22.521973,41.259766,-31.799316,0.0,0.0,0.0,-78.40393,53.025513,128.16101
1765378494911,-0.5961914,-0.42285156,-0.08984375,22.521973,41.259766,-31.799316,0.0,0.0,0.0,-76.83838,50.67993,124.43115
1765378494999,-0.84033203,-0.55566406,-0.08300781,-16.845703,-19.714355,23.55957,0.0,0.0,0.0,-76.83838,50.67993,124.43115
1765378495011,-0.84033203,-0.55566406,-0.08300781,-16.845703,-19.714355,23.55957,0.0,0.0,0.0,-75.17395,50.11963,123.931274
1765378495098,-0.7573242,-0.6640625,0.19335938,-6.4086914,20.324707,10.925293,0.0,0.0,0.0,-75.17395,50.11963,123.931274
1765378495110,-0.7573242,-0.6640625,0.19335938,-6.4086914,20.324707,10.925293,0.0,0.0,0.0,-78.93677,52.976074,123.84888
1765378495198,-0.8652344,-0.5703125,0.21728516,7.6904297,-6.958008,13.427734,0.0,0.0,0.0,-78.93677,52.976074,123.84888
1765378495210,-0.8652344,-0.5703125,0.21728516,7.6904297,-6.958008,13.427734,0.0,0.0,0.0,-80.91431,53.113403,121.86035
1765378495298,-0.6040039,-0.6401367,0.19921875,5.3100586,0.36621094,2.6855469,0.0,0.0,0.0,-80.91431,53.113403,121.86035
1765378495309,-0.6040039,-0.6401367,0.19921875,5.3100586,0.36621094,2.6855469,0.0,0.0,0.0,-76.62964,54.27246,124.99695
1765378495398,-0.8535156,-0.52441406,0.05078125,14.282227,-35.27832,8.850098,0.0,0.0,0.0,-76.62964,54.27246,124.99695
1765378495409,-0.8535156,-0.52441406,0.05078125,14.282227,-35.27832,8.850098,0.0,0.0,0.0,-72.301025,53.82202,128.5675
1765378495497,-0.66259766,-0.5410156,0.13574219,48.950195,10.070801,-9.765625,0.0,0.0,0.0,-72.301025,53.82202,128.5675
1765378495509,-0.66259766,-0.5410156,0.13574219,48.950195,10.070801,-9.765625,0.0,0.0,0.0,-69.09851,53.607788,129.76501
1765378495597,-0.74902344,-0.81103516,0.2290039,6.3476562,29.11377,-35.40039,0.0,0.0,0.0,-69.09851,53.607788,129.76501
1765378495608,-0.74902344,-0.81103516,0.2290039,6.3476562,29.11377,-35.40039,0.0,0.0,0.0,-69.851074,51.16333,124.32129
1765378495697,-1.0712891,-0.6977539,0.37402344,-80.93262,-51.51367,27.282715,0.0,0.0,0.0,-69.851074,51.16333,124.32129
1765378495708,-1.0712891,-0.6977539,0.37402344,-80.93262,-51.51367,27.282715,0.0,0.0,0.0,-74.679565,51.124878,125.70007
1765378495796,-0.53759766,-0.32080078,0.25341797,-18.493652,-18.310547,-13.85498,0.0,0.0,0.0,-74.679565,51.124878,125.70007
1765378495808,-0.53759766,-0.32080078,0.25341797,-18.493652,-18.310547,-13.85498,0.0,0.0,0.0,-69.97742,50.004272,133.41248
1765378495896,-0.8256836,-0.75927734,0.27001953,62.927246,8.300781,-32.89795,0.0,0.0,0.0,-69.97742,50.004272,133.41248
1765378495908,-0.8256836,-0.75927734,0.27001953,62.927246,8.300781,-32.89795,0.0,0.0,0.0,-69.44458,48.15857,132.69287
1765378495996,-0.7402344,-0.45996094,-0.037597656,3.540039,50.842285,-9.521484,0.0,0.0,0.0,-69.44458,48.15857,132.69287
1765378496007,-0.7402344,-0.45996094,-0.037597656,3.540039,50.842285,-9.521484,0.0,0.0,0.0,-70.42786,46.323853,126.73279
1765378496096,-0.8066406,-0.6875,0.08300781,-50.29297,-32.043457,31.860352,0.0,0.0,0.0,-70.42786,46.323853,126.73279
1765378496107,-0.8066406,-0.6875,0.08300781,-50.29297,-32.043457,31.860352,0.0,0.0,0.0,-72.10327,47.94983,124.40918
1765378496195,-1.0478516,-0.76953125,0.27441406,-40.283203,1.8920898,27.893066,0.0,0.0,0.0,-72.10327,47.94983,124.40918
1765378496208,-1.0478516,-0.76953125,0.27441406,-40.283203,1.8920898,27.893066,0.0,0.0,0.0,-73.21289,50.07019,130.06714
1765378496295,-0.4711914,-0.38232422,0.17626953,27.893066,-2.1362305,20.996094,0.0,0.0,0.0,-73.21289,50.07019,130.06714
1765378496307,-0.4711914,-0.38232422,0.17626953,27.893066,-2.1362305,20.996094,0.0,0.0,0.0,-73.77869,53.096924,130.20447
1765378496395,-0.96191406,-0.8330078,0.31640625,-2.1362305,-8.117676,-3.540039,0.0,0.0,0.0,-73.77869,53.096924,130.20447
1765378496406,-0.96191406,-0.8330078,0.31640625,-2.1362305,-8.117676,-3.540039,0.0,0.0,0.0,-71.38916,53.118896,130.62744
1765378496495,-0.7597656,-0.37158203,0.020996094,19.714355,11.169434,12.268066,0.0,0.0,0.0,-71.38916,53.118896,130.62744
1765378496506,-0.7597656,-0.37158203,0.020996094,19.714355,11.169434,12.268066,0.0,0.0,0.0,-69.15344,54.019775,132.56104
1765378496594,-0.70751953,-0.7314453,0.10839844,56.274414,18.737793,-28.259277,0.0,0.0,0.0,-69.15344,54.019775,132.56104
1765378496606,-0.70751953,-0.7314453,0.10839844,56.274414,18.737793,-28.259277,0.0,0.0,0.0,-67.318726,53.66272,129.9408
1765378496694,-0.7446289,-0.6269531,0.20507812,-40.46631,8.972168,-3.9672852,0.0,0.0,0.0,-67.318726,53.66272,129.9408
1765378496706,-0.7446289,-0.6269531,0.20507812,-40.46631,8.972168,-3.9672852,0.0,0.0,0.0,-70.1532,52.245483,123.55774
1765378496794,-0.9746094,-0.57373047,0.3413086,-39.67285,-64.88037,12.939453,0.0,0.0,0.0,-70.1532,52.245483,123.55774
1765378496805,-0.9746094,-0.57373047,0.3413086,-39.67285,-64.88037,12.939453,0.0,0.0,0.0,-72.180176,52.333374,129.92981
1765378496894,-0.87890625,-0.43310547,0.34179688,-48.583984,-2.5024414,-7.751465,0.0,0.0,0.0,-72.180176,52.333374,129.92981
1765378496905,-0.87890625,-0.43310547,0.34179688,-48.583984,-2.5024414,-7.751465,0.0,0.0,0.0,-70.10925,51.866455,135.43396
1765378496993,-0.625,-0.48828125,0.06591797,44.6167,7.385254,-30.639648,0.0,0.0,0.0,-70.10925,51.866455,135.43396
1765378497005,-0.625,-0.48828125,0.06591797,44.6167,7.385254,-30.639648,0.0,0.0,0.0,-70.82886,50.828247,132.62695
1765378497093,-0.8413086,-0.4790039,-0.061035156,47.546387,38.391113,-1.8920898,0.0,0.0,0.0,-70.82886,50.828247,132.62695
1765378497104,-0.8413086,-0.4790039,-0.061035156,47.546387,38.391113,-1.8920898,0.0,0.0,0.0,-71.922,49.91089,127.73804
1765378497193,-0.9970703,-0.6611328,0.16552734,-54.504395,-20.751953,30.090332,0.0,0.0,0.0,-71.922,49.91089,127.73804
1765378497204,-0.9970703,-0.6611328,0.16552734,-54.504395,-20.751953,30.090332,0.0,0.0,0.0,-73.7677,52.69043,128.2544
1765378497292,-0.9267578,-0.6503906,0.41992188,6.5307617,2.4414062,21.362305,0.0,0.0,0.0,-73.7677,52.69043,128.2544
1765378497304,-0.9267578,-0.6503906,0.41992188,6.5307617,2.4414062,21.362305,0.0,0.0,0.0,-74.888306,54.838257,129.90234
1765378497393,-0.5229492,-0.6142578,0.20996094,16.845703,7.6904297,-26.855469,0.0,0.0,0.0,-74.888306,54.838257,129.90234
1765378497405,-0.5229492,-0.6142578,0.20996094,16.845703,7.6904297,-26.855469,0.0,0.0,0.0,-71.73523,54.986572,129.41895
1765378497492,-0.8901367,-0.4814453,0.07763672,7.019043,-8.178711,20.324707,0.0,0.0,0.0,-71.73523,54.986572,129.41895
1765378497503,-0.8901367,-0.4814453,0.07763672,7.019043,-8.178711,20.324707,0.0,0.0,0.0,-72.14172,53.849487,126.8042
1765378497592,-0.70654297,-0.4736328,0.08496094,47.24121,17.76123,-7.2631836,0.0,0.0,0.0,-72.14172,53.849487,126.8042
1765378497603,-0.70654297,-0.4736328,0.08496094,47.24121,17.76123,-7.2631836,0.0,0.0,0.0,-70.3125,54.777832,125.89783
1765378497691,-0.6689453,-0.70947266,0.1538086,37.719727,31.433105,-25.878906,0.0,0.0,0.0,-70.3125,54.777832,125.89783
1765378497703,-0.6689453,-0.70947266,0.1538086,37.719727,31.433105,-25.878906,0.0,0.0,0.0,-70.3949,53.97583,120.7782
1765378497791,-0.9794922,-0.796875,0.19335938,-56.9458,3.112793,6.958008,0.0,0.0,0.0,-70.3949,53.97583,120.7782
1765378497803,-0.9794922,-0.796875,0.19335938,-56.9458,3.112793,6.958008,0.0,0.0,0.0,-74.16321,53.267212,118.377686
1765378497891,-0.5366211,-0.22460938,0.19140625,-17.63916,-39.123535,9.643555,0.0,0.0,0.0,-74.16321,53.267212,118.377686
1765378497902,-0.5366211,-0.22460938,0.19140625,-17.63916,-39.123535,9.643555,0.0,0.0,0.0,-75.12451,53.70117,122.76123
1765378497991,-1.0893555,-0.7685547,0.12011719,6.164551,9.338379,-31.37207,0.0,0.0,0.0,-75.12451,53.70117,122.76123
1765378498002,-1.0893555,-0.7685547,0.12011719,6.164551,9.338379,-31.37207,0.0,0.0,0.0,-75.81665,52.437744,124.65637
1765378498090,-0.6328125,-0.49365234,-0.037109375,14.343262,46.569824,-24.963379,0.0,0.0,0.0,-75.81665,52.437744,124.65637
1765378498102,-0.6328125,-0.49365234,-0.037109375,14.343262,46.569824,-24.963379,0.0,0.0,0.0,-76.27258,50.218506,120.05859
1765378498190,-0.8076172,-0.54833984,-0.056640625,-46.99707,-38.757324,22.644043,0.0,0.0,0.0,-76.27258,50.218506,120.05859
1765378498201,-0.8076172,-0.54833984,-0.056640625,-46.99707,-38.757324,22.644043,0.0,0.0,0.0,-75.2948,50.273438,121.38794
1765378498290,-0.9301758,-0.66064453,0.21484375,-16.174316,8.239746,19.958496,0.0,0.0,0.0,-75.2948,50.273438,121.38794
1765378498301,-0.9301758,-0.66064453,0.21484375,-16.174316,8.239746,19.958496,0.0,0.0,0.0,-78.376465,52.965088,125.20569
1765378498389,-0.7089844,-0.4711914,0.20263672,39.978027,17.150879,10.192871,0.0,0.0,0.0,-78.376465,52.965088,125.20569
1765378498401,-0.7089844,-0.4711914,0.20263672,39.978027,17.150879,10.192871,0.0,0.0,0.0,-80.755005,54.11316,121.53076
1765378498489,-0.7734375,-0.84814453,0.19091797,7.080078,27.954102,-10.314941,0.0,0.0,0.0,-80.755005,54.11316,121.53076
1765378498501,-0.7734375,-0.84814453,0.19091797,7.080078,27.954102,-10.314941,0.0,0.0,0.0,-78.601685,54.195557,119.591675
1765378498589,-0.7167969,-0.41796875,-0.0390625,2.6855469,-21.1792,19.89746,0.0,0.0,0.0,-78.601685,54.195557,119.591675
1765378498600,-0.7167969,-0.41796875,-0.0390625,2.6855469,-21.1792,19.89746,0.0,0.0,0.0,-77.13501,54.645996,119.871826
1765378498689,-0.6948242,-0.61572266,0.08203125,24.475098,-4.760742,-3.7231445,0.0,0.0,0.0,-77.13501,54.645996,119.871826
1765378498700,-0.6948242,-0.61572266,0.08203125,24.475098,-4.760742,-3.7231445,0.0,0.0,0.0,-74.15222,55.151367,123.65112
