timestamp,accX,accY,accZ,gyroX,gyroY,gyroZ,magX,magY,magZ,roll,pitch,yaw
1770517841045,-0.93652344,-0.3466797,-0.06347656,-33.081055,-10.375977,-5.1879883,13683.0,5848.0,-287.0,-100.75012,69.54895,-110.97839
1770517841056,-0.93652344,-0.3466797,-0.06347656,-33.081055,-10.375977,-5.1879883,13683.0,5848.0,-287.0,-100.83801,69.19739,-107.62207
1770517841068,-0.93652344,-0.3466797,-0.06347656,-33.081055,-10.375977,-5.1879883,0.0,0.0,0.0,-100.83801,69.19739,-107.62207
1770517841145,-0.9404297,-0.33691406,-0.072265625,-26.000977,-8.544922,-4.4555664,13579.0,5937.0,-126.0,-100.83801,69.19739,-107.62207
1770517841156,-0.9404297,-0.33691406,-0.072265625,-26.000977,-8.544922,-4.4555664,13579.0,5937.0,-126.0,-100.980835,68.93921,-104.71619
1770517841168,-0.9404297,-0.33691406,-0.072265625,-26.000977,-8.544922,-4.4555664,0.0,0.0,0.0,-100.980835,68.93921,-104.71619
1770517841244,-0.9375,-0.3334961,-0.084472656,-10.986328,-4.8828125,-1.7700195,13306.0,6101.0,344.0,-100.980835,68.93921,-104.71619
1770517841257,-0.9375,-0.3334961,-0.084472656,-10.986328,-4.8828125,-1.7700195,13306.0,6101.0,344.0,-100.7666,68.829346,-102.6178
1770517841268,-0.9375,-0.3334961,-0.084472656,-10.986328,-4.8828125,-1.7700195,0.0,0.0,0.0,-100.7666,68.829346,-102.6178
1770517841344,-0.9399414,-0.33398438,-0.083496094,5.2490234,1.7700195,0.91552734,13313.0,6114.0,429.0,-100.7666,68.829346,-102.6178
1770517841360,-0.9399414,-0.33398438,-0.083496094,5.2490234,1.7700195,0.91552734,13313.0,6114.0,429.0,-100.67871,68.862305,-102.18384
1770517841367,-0.9399414,-0.33398438,-0.083496094,5.2490234,1.7700195,0.91552734,0.0,0.0,0.0,-100.67871,68.862305,-102.18384
1770517841444,-0.9375,-0.34179688,-0.076660156,19.226074,9.82666,2.5634766,13275.0,6127.0,460.0,-100.67871,68.862305,-102.18384
1770517841456,-0.9375,-0.34179688,-0.076660156,19.226074,9.82666,2.5634766,13275.0,6127.0,460.0,-101.189575,68.9447,-104.02954
1770517841467,-0.9375,-0.34179688,-0.076660156,19.226074,9.82666,2.5634766,0.0,0.0,0.0,-101.189575,68.9447,-104.02954
1770517841544,-0.9375,-0.3461914,-0.07470703,27.893066,14.709473,4.0283203,13301.0,6107.0,426.0,-101.189575,68.9447,-104.02954
1770517841556,-0.9375,-0.3461914,-0.07470703,27.893066,14.709473,4.0283203,13301.0,6107.0,426.0,-102.27173,69.04907,-107.72644
1770517841567,-0.9375,-0.3461914,-0.07470703,27.893066,14.709473,4.0283203,0.0,0.0,0.0,-102.27173,69.04907,-107.72644
1770517841643,-0.9379883,-0.3413086,-0.071777344,33.75244,18.981934,4.333496,13391.0,6059.0,268.0,-102.27173,69.04907,-107.72644
1770517841655,-0.9379883,-0.3413086,-0.071777344,33.75244,18.981934,4.333496,13391.0,6059.0,268.0,-103.75488,69.06006,-112.72522
1770517841671,-0.9379883,-0.3413086,-0.071777344,33.75244,18.981934,4.333496,0.0,0.0,0.0,-103.75488,69.06006,-112.72522
1770517841743,-0.9375,-0.34570312,-0.076660156,35.88867,19.042969,5.554199,13492.0,5982.0,50.0,-103.75488,69.06006,-112.72522
1770517841755,-0.9375,-0.34570312,-0.076660156,35.88867,19.042969,5.554199,13492.0,5982.0,50.0,-105.1062,69.087524,-118.15796
1770517841766,-0.9375,-0.34570312,-0.076660156,35.88867,19.042969,5.554199,0.0,0.0,0.0,-105.1062,69.087524,-118.15796
1770517841843,-0.93896484,-0.3486328,-0.09082031,34.362793,20.568848,4.638672,13635.0,5879.0,-155.0,-105.1062,69.087524,-118.15796
1770517841854,-0.93896484,-0.3486328,-0.09082031,34.362793,20.568848,4.638672,13635.0,5879.0,-155.0,-106.86401,68.99963,-124.08508
1770517841866,-0.93896484,-0.3486328,-0.09082031,34.362793,20.568848,4.638672,0.0,0.0,0.0,-106.86401,68.99963,-124.08508
1770517841943,-0.9355469,-0.3388672,-0.09423828,33.691406,20.751953,4.5166016,13799.0,5746.0,-367.0,-106.86401,68.99963,-124.08508
1770517841954,-0.9355469,-0.3388672,-0.09423828,33.691406,20.751953,4.5166016,13799.0,5746.0,-367.0,-108.71521,68.79089,-129.99573
1770517841965,-0.9355469,-0.3388672,-0.09423828,33.691406,20.751953,4.5166016,0.0,0.0,0.0,-108.71521,68.79089,-129.99573
1770517842042,-0.92822266,-0.35058594,-0.10498047,30.761719,16.235352,5.1879883,13601.0,5795.0,-76.0,-108.71521,68.79089,-129.99573
1770517842054,-0.92822266,-0.35058594,-0.10498047,30.761719,16.235352,5.1879883,13601.0,5795.0,-76.0,-110.028076,68.65906,-135.25269
1770517842067,-0.92822266,-0.35058594,-0.10498047,30.761719,16.235352,5.1879883,0.0,0.0,0.0,-110.028076,68.65906,-135.25269
1770517842142,-0.93310547,-0.33496094,-0.110839844,30.822754,13.305664,5.493164,13909.0,5595.0,-452.0,-110.028076,68.65906,-135.25269
1770517842153,-0.93310547,-0.33496094,-0.110839844,30.822754,13.305664,5.493164,13909.0,5595.0,-452.0,-110.79712,68.63159,-139.6637
1770517842167,-0.93310547,-0.33496094,-0.110839844,30.822754,13.305664,5.493164,0.0,0.0,0.0,-110.79712,68.63159,-139.6637
1770517842242,-0.9399414,-0.33984375,-0.12597656,29.418945,14.526367,4.333496,13929.0,5595.0,-393.0,-110.79712,68.63159,-139.6637
1770517842254,-0.9399414,-0.33984375,-0.12597656,29.418945,14.526367,4.333496,13929.0,5595.0,-393.0,-111.450806,68.57117,-143.93738
1770517842265,-0.9399414,-0.33984375,-0.12597656,29.418945,14.526367,4.333496,0.0,0.0,0.0,-111.450806,68.57117,-143.93738
1770517842341,-0.921875,-0.36816406,-0.10888672,19.836426,7.385254,3.2348633,14187.0,5407.0,-733.0,-111.450806,68.57117,-143.93738
1770517842353,-0.921875,-0.36816406,-0.10888672,19.836426,7.385254,3.2348633,14187.0,5407.0,-733.0,-111.87378,68.45581,-147.46399
1770517842364,-0.921875,-0.36816406,-0.10888672,19.836426,7.385254,3.2348633,0.0,0.0,0.0,-111.87378,68.45581,-147.46399
1770517842441,-0.92578125,-0.35888672,-0.08300781,6.7749023,-3.112793,3.6621094,14388.0,5245.0,-1003.0,-111.87378,68.45581,-147.46399
1770517842452,-0.92578125,-0.35888672,-0.08300781,6.7749023,-3.112793,3.6621094,14388.0,5245.0,-1003.0,-111.467285,68.58765,-148.78784
1770517842464,-0.92578125,-0.35888672,-0.08300781,6.7749023,-3.112793,3.6621094,0.0,0.0,0.0,-111.467285,68.58765,-148.78784
1770517842541,-0.9370117,-0.35058594,-0.12060547,-5.6152344,-13.305664,3.540039,14467.0,5151.0,-1101.0,-111.467285,68.58765,-148.78784
1770517842552,-0.9370117,-0.35058594,-0.12060547,-5.6152344,-13.305664,3.540039,14467.0,5151.0,-1101.0,-108.40759,69.367676,-146.03577
1770517842564,-0.9370117,-0.35058594,-0.12060547,-5.6152344,-13.305664,3.540039,0.0,0.0,0.0,-108.40759,69.367676,-146.03577
1770517842640,-0.9375,-0.33642578,-0.084472656,-11.71875,-8.422852,-0.24414062,14444.0,5165.0,-1120.0,-108.40759,69.367676,-146.03577
1770517842652,-0.9375,-0.33642578,-0.084472656,-11.71875,-8.422852,-0.24414062,14444.0,5165.0,-1120.0,-106.99036,69.68628,-143.7561
1770517842663,-0.9375,-0.33642578,-0.084472656,-11.71875,-8.422852,-0.24414062,0.0,0.0,0.0,-106.99036,69.68628,-143.7561
1770517842740,-0.9375,-0.33447266,-0.080566406,-13.977051,-8.728027,-2.9907227,14380.0,5198.0,-1132.0,-106.99036,69.68628,-143.7561
1770517842752,-0.9375,-0.33447266,-0.080566406,-13.977051,-8.728027,-2.9907227,14380.0,5198.0,-1132.0,-105.72693,69.76318,-141.15784
1770517842763,-0.9375,-0.33447266,-0.080566406,-13.977051,-8.728027,-2.9907227,0.0,0.0,0.0,-105.72693,69.76318,-141.15784
1770517842840,-0.94384766,-0.3334961,-0.080078125,-14.404297,-7.9345703,-3.4179688,14154.0,5318.0,-807.0,-105.72693,69.76318,-141.15784
1770517842851,-0.94384766,-0.3334961,-0.080078125,-14.404297,-7.9345703,-3.4179688,14154.0,5318.0,-807.0,-104.452515,69.680786,-138.41125
1770517842863,-0.94384766,-0.3334961,-0.080078125,-14.404297,-7.9345703,-3.4179688,0.0,0.0,0.0,-104.452515,69.680786,-138.41125
1770517842940,-0.9448242,-0.33642578,-0.071777344,-14.282227,-7.8125,-2.6855469,13935.0,5421.0,-570.0,-104.452515,69.680786,-138.41125
1770517842951,-0.9448242,-0.33642578,-0.071777344,-14.282227,-7.8125,-2.6855469,13935.0,5421.0,-570.0,-103.67798,69.537964,-136.13708
1770517842962,-0.9448242,-0.33642578,-0.071777344,-14.282227,-7.8125,-2.6855469,0.0,0.0,0.0,-103.67798,69.537964,-136.13708
1770517843039,-0.93310547,-0.33740234,-0.068847656,-13.061523,-7.8125,-1.159668,13928.0,5453.0,-691.0,-103.67798,69.537964,-136.13708
1770517843051,-0.93310547,-0.33740234,-0.068847656,-13.061523,-7.8125,-1.159668,13928.0,5453.0,-691.0,-102.700195,69.54346,-133.70361
1770517843062,-0.93310547,-0.33740234,-0.068847656,-13.061523,-7.8125,-1.159668,0.0,0.0,0.0,-102.700195,69.54346,-133.70361
1770517843139,-0.94189453,-0.33740234,-0.067871094,-11.962891,-5.554199,-0.4272461,13989.0,5466.0,-826.0,-102.700195,69.54346,-133.70361
1770517843151,-0.94189453,-0.33740234,-0.067871094,-11.962891,-5.554199,-0.4272461,13989.0,5466.0,-826.0,-102.12891,69.60388,-131.83594
1770517843162,-0.94189453,-0.33740234,-0.067871094,-11.962891,-5.554199,-0.4272461,0.0,0.0,0.0,-102.12891,69.60388,-131.83594
1770517843239,-0.9375,-0.34277344,-0.06591797,-10.803223,-0.91552734,-1.7089844,14022.0,5476.0,-948.0,-102.12891,69.60388,-131.83594
1770517843250,-0.9375,-0.34277344,-0.06591797,-10.803223,-0.91552734,-1.7089844,14022.0,5476.0,-948.0,-101.986084,69.65332,-130.54504
1770517843262,-0.9375,-0.34277344,-0.06591797,-10.803223,-0.91552734,-1.7089844,0.0,0.0,0.0,-101.986084,69.65332,-130.54504
1770517843339,-0.93652344,-0.34179688,-0.07373047,-8.361816,1.4038086,-2.1362305,13973.0,5540.0,-903.0,-101.986084,69.65332,-130.54504
1770517843350,-0.93652344,-0.34179688,-0.07373047,-8.361816,1.4038086,-2.1362305,13973.0,5540.0,-903.0,-102.88696,69.4281,-130.56152
1770517843362,-0.93652344,-0.34179688,-0.07373047,-8.361816,1.4038086,-2.1362305,0.0,0.0,0.0,-102.88696,69.4281,-130.56152
1770517843438,-0.9379883,-0.33642578,-0.07470703,-6.7749023,2.6855469,-1.8310547,13984.0,5560.0,-923.0,-102.88696,69.4281,-130.56152
1770517843450,-0.9379883,-0.33642578,-0.07470703,-6.7749023,2.6855469,-1.8310547,13984.0,5560.0,-923.0,-103.85376,69.23584,-130.87463
1770517843463,-0.9379883,-0.33642578,-0.07470703,-6.7749023,2.6855469,-1.8310547,0.0,0.0,0.0,-103.85376,69.23584,-130.87463
1770517843538,-0.93847656,-0.3408203,-0.08691406,-3.6621094,3.2348633,-0.5493164,13954.0,5620.0,-830.0,-103.85376,69.23584,-130.87463
1770517843549,-0.93847656,-0.3408203,-0.08691406,-3.6621094,3.2348633,-0.5493164,13954.0,5620.0,-830.0,-104.96338,69.08203,-131.69312
1770517843561,-0.93847656,-0.3408203,-0.08691406,-3.6621094,3.2348633,-0.5493164,0.0,0.0,0.0,-104.96338,69.08203,-131.69312
1770517843638,-0.93603516,-0.34423828,-0.091796875,-0.36621094,3.0517578,0.30517578,13924.0,5653.0,-730.0,-104.96338,69.08203,-131.69312
1770517843649,-0.93603516,-0.34423828,-0.091796875,-0.36621094,3.0517578,0.30517578,13924.0,5653.0,-730.0,-105.82031,69.01062,-132.55554
1770517843661,-0.93603516,-0.34423828,-0.091796875,-0.36621094,3.0517578,0.30517578,0.0,0.0,0.0,-105.82031,69.01062,-132.55554
1770517843737,-0.9477539,-0.3491211,-0.09716797,6.652832,1.0986328,0.36621094,13941.0,5665.0,-718.0,-105.82031,69.01062,-132.55554
1770517843749,-0.9477539,-0.3491211,-0.09716797,6.652832,1.0986328,0.36621094,13941.0,5665.0,-718.0,-105.89172,68.97766,-133.19275
1770517843760,-0.9477539,-0.3491211,-0.09716797,6.652832,1.0986328,0.36621094,0.0,0.0,0.0,-105.89172,68.97766,-133.19275
1770517843837,-0.9223633,-0.3466797,-0.095214844,4.8217773,4.4555664,0.36621094,13949.0,5619.0,-727.0,-105.89172,68.97766,-133.19275
1770517843849,-0.9223633,-0.3466797,-0.095214844,4.8217773,4.4555664,0.36621094,13949.0,5619.0,-727.0,-106.073,68.98865,-133.92334
1770517843862,-0.9223633,-0.3466797,-0.095214844,4.8217773,4.4555664,0.36621094,0.0,0.0,0.0,-106.073,68.98865,-133.92334
1770517843937,-0.9482422,-0.3486328,-0.1015625,4.333496,7.9345703,0.18310547,13979.0,5613.0,-750.0,-106.073,68.98865,-133.92334
1770517843948,-0.9482422,-0.3486328,-0.1015625,4.333496,7.9345703,0.18310547,13979.0,5613.0,-750.0,-107.215576,68.76892,-135.77454
1770517843960,-0.9482422,-0.3486328,-0.1015625,4.333496,7.9345703,0.18310547,0.0,0.0,0.0,-107.215576,68.76892,-135.77454
1770517844037,-0.92871094,-0.34472656,-0.109375,6.4086914,9.094238,1.0986328,13949.0,5635.0,-695.0,-107.215576,68.76892,-135.77454
1770517844048,-0.92871094,-0.34472656,-0.109375,6.4086914,9.094238,1.0986328,13949.0,5635.0,-695.0,-108.6438,68.63159,-138.04321
1770517844059,-0.92871094,-0.34472656,-0.109375,6.4086914,9.094238,1.0986328,0.0,0.0,0.0,-108.6438,68.63159,-138.04321
1770517844136,-0.9301758,-0.34326172,-0.10205078,7.446289,7.2631836,1.6479492,13832.0,5684.0,-418.0,-108.6438,68.63159,-138.04321
1770517844148,-0.9301758,-0.34326172,-0.10205078,7.446289,7.2631836,1.6479492,13832.0,5684.0,-418.0,-109.97864,68.47229,-140.40527
1770517844159,-0.9301758,-0.34326172,-0.10205078,7.446289,7.2631836,1.6479492,0.0,0.0,0.0,-109.97864,68.47229,-140.40527
1770517844236,-0.92285156,-0.34228516,-0.09326172,9.033203,-0.91552734,3.6010742,14024.0,5560.0,-620.0,-109.97864,68.47229,-140.40527
1770517844247,-0.92285156,-0.34228516,-0.09326172,9.033203,-0.91552734,3.6010742,14024.0,5560.0,-620.0,-109.7699,68.60962,-141.427
1770517844259,-0.92285156,-0.34228516,-0.09326172,9.033203,-0.91552734,3.6010742,0.0,0.0,0.0,-109.7699,68.60962,-141.427
1770517844336,-0.9501953,-0.34277344,-0.096191406,3.8452148,4.4555664,3.4179688,14123.0,5491.0,-795.0,-109.7699,68.60962,-141.427
1770517844347,-0.9501953,-0.34277344,-0.096191406,3.8452148,4.4555664,3.4179688,14123.0,5491.0,-795.0,-108.90747,69.208374,-141.15234
1770517844364,-0.9501953,-0.34277344,-0.096191406,3.8452148,4.4555664,3.4179688,0.0,0.0,0.0,-108.90747,69.208374,-141.15234
1770517844435,-0.93408203,-0.3305664,-0.107421875,1.8920898,5.065918,0.8544922,14140.0,5506.0,-786.0,-108.90747,69.208374,-141.15234
1770517844447,-0.93408203,-0.3305664,-0.107421875,1.8920898,5.065918,0.8544922,14140.0,5506.0,-786.0,-110.06653,69.16992,-142.80579
1770517844471,-0.93408203,-0.3305664,-0.107421875,1.8920898,5.065918,0.8544922,0.0,0.0,0.0,-110.06653,69.16992,-142.80579
1770517844535,-0.93652344,-0.33154297,-0.111328125,1.159668,3.4179688,-0.12207031,14190.0,5479.0,-750.0,-110.06653,69.16992,-142.80579
1770517844547,-0.93652344,-0.33154297,-0.111328125,1.159668,3.4179688,-0.12207031,14190.0,5479.0,-750.0,-110.92346,69.00513,-144.0802
1770517844558,-0.93652344,-0.33154297,-0.111328125,1.159668,3.4179688,-0.12207031,0.0,0.0,0.0,-110.92346,69.00513,-144.0802
1770517844635,-0.9399414,-0.33007812,-0.119628906,0.6713867,3.7231445,-0.61035156,14314.0,5446.0,-828.0,-110.92346,69.00513,-144.0802
1770517844646,-0.9399414,-0.33007812,-0.119628906,0.6713867,3.7231445,-0.61035156,14314.0,5446.0,-828.0,-111.450806,68.845825,-144.9646
1770517844658,-0.9399414,-0.33007812,-0.119628906,0.6713867,3.7231445,-0.61035156,0.0,0.0,0.0,-111.450806,68.845825,-144.9646
1770517844735,-0.9326172,-0.3334961,-0.12109375,1.0375977,2.5024414,0.36621094,14295.0,5471.0,-773.0,-111.450806,68.845825,-144.9646
1770517844746,-0.9326172,-0.3334961,-0.12109375,1.0375977,2.5024414,0.36621094,14295.0,5471.0,-773.0,-111.98364,68.73047,-145.83252
1770517844757,-0.9326172,-0.3334961,-0.12109375,1.0375977,2.5024414,0.36621094,0.0,0.0,0.0,-111.98364,68.73047,-145.83252
1770517844835,-0.9423828,-0.3359375,-0.1303711,1.0375977,3.0517578,0.061035156,14315.0,5459.0,-789.0,-111.98364,68.73047,-145.83252
1770517844846,-0.9423828,-0.3359375,-0.1303711,1.0375977,3.0517578,0.061035156,14315.0,5459.0,-789.0,-112.302246,68.708496,-146.46423
1770517844858,-0.9423828,-0.3359375,-0.1303711,1.0375977,3.0517578,0.061035156,0.0,0.0,0.0,-112.302246,68.708496,-146.46423
1770517844934,-0.93603516,-0.33251953,-0.14355469,0.18310547,5.004883,-0.12207031,14359.0,5437.0,-809.0,-112.302246,68.708496,-146.46423
1770517844946,-0.93603516,-0.33251953,-0.14355469,0.18310547,5.004883,-0.12207031,14359.0,5437.0,-809.0,-113.170166,68.5437,-147.60132
1770517844957,-0.93603516,-0.33251953,-0.14355469,0.18310547,5.004883,-0.12207031,0.0,0.0,0.0,-113.170166,68.5437,-147.60132
1770517845034,-0.9301758,-0.3359375,-0.13623047,0.48828125,2.6855469,-0.9765625,14374.0,5439.0,-803.0,-113.170166,68.5437,-147.60132
1770517845045,-0.9301758,-0.3359375,-0.13623047,0.48828125,2.6855469,-0.9765625,14374.0,5439.0,-803.0,-113.774414,68.36792,-148.48572
1770517845057,-0.9301758,-0.3359375,-0.13623047,0.48828125,2.6855469,-0.9765625,0.0,0.0,0.0,-113.774414,68.36792,-148.48572
1770517845135,-0.9267578,-0.3383789,-0.13574219,-3.6010742,-0.24414062,-0.7324219,14220.0,5532.0,-542.0,-113.774414,68.36792,-148.48572
1770517845145,-0.9267578,-0.3383789,-0.13574219,-3.6010742,-0.24414062,-0.7324219,14220.0,5532.0,-542.0,-113.90625,68.31299,-148.61206
1770517845156,-0.9267578,-0.3383789,-0.13574219,-3.6010742,-0.24414062,-0.7324219,0.0,0.0,0.0,-113.90625,68.31299,-148.61206
1770517845233,-0.9458008,-0.33447266,-0.16503906,-4.272461,-2.5634766,1.2817383,14172.0,5541.0,-487.0,-113.90625,68.31299,-148.61206
1770517845244,-0.9458008,-0.33447266,-0.16503906,-4.272461,-2.5634766,1.2817383,14172.0,5541.0,-487.0,-113.8678,68.42285,-148.22205
1770517845256,-0.9458008,-0.33447266,-0.16503906,-4.272461,-2.5634766,1.2817383,0.0,0.0,0.0,-113.8678,68.42285,-148.22205
1770517845333,-0.92529297,-0.32128906,-0.14013672,-0.91552734,-1.8310547,-1.2207031,14069.0,5599.0,-340.0,-113.8678,68.42285,-148.22205
1770517845344,-0.92529297,-0.32128906,-0.14013672,-0.91552734,-1.8310547,-1.2207031,14069.0,5599.0,-340.0,-113.32947,68.52173,-147.50244
1770517845356,-0.92529297,-0.32128906,-0.14013672,-0.91552734,-1.8310547,-1.2207031,0.0,0.0,0.0,-113.32947,68.52173,-147.50244
1770517845433,-0.92822266,-0.3359375,-0.13378906,-1.5258789,3.540039,-2.4414062,14154.0,5571.0,-484.0,-113.32947,68.52173,-147.50244
1770517845444,-0.92822266,-0.3359375,-0.13378906,-1.5258789,3.540039,-2.4414062,14154.0,5571.0,-484.0,-113.45032,68.32947,-147.52441
1770517845455,-0.92822266,-0.3359375,-0.13378906,-1.5258789,3.540039,-2.4414062,0.0,0.0,0.0,-113.45032,68.32947,-147.52441
1770517845532,-0.9433594,-0.34472656,-0.17480469,-1.0375977,2.1972656,0.0,14188.0,5577.0,-606.0,-113.45032,68.32947,-147.52441
1770517845544,-0.9433594,-0.34472656,-0.17480469,-1.0375977,2.1972656,0.0,14188.0,5577.0,-606.0,-114.37317,68.04382,-148.43628
1770517845555,-0.9433594,-0.34472656,-0.17480469,-1.0375977,2.1972656,0.0,0.0,0.0,0.0,-114.37317,68.04382,-148.43628
1770517845632,-0.92529297,-0.32617188,-0.15917969,4.638672,1.8920898,-0.5493164,14130.0,5598.0,-478.0,-114.37317,68.04382,-148.43628
1770517845644,-0.92529297,-0.32617188,-0.15917969,4.638672,1.8920898,-0.5493164,14130.0,5598.0,-478.0,-114.417114,67.994385,-148.67798
1770517845655,-0.92529297,-0.32617188,-0.15917969,4.638672,1.8920898,-0.5493164,0.0,0.0,0.0,-114.417114,67.994385,-148.67798
1770517845732,-0.92626953,-0.3491211,-0.14355469,7.2021484,4.760742,-1.159668,14240.0,5539.0,-614.0,-114.417114,67.994385,-148.67798
1770517845743,-0.92626953,-0.3491211,-0.14355469,7.2021484,4.760742,-1.159668,14240.0,5539.0,-614.0,-114.35669,67.78015,-149.34814
1770517845764,-0.92626953,-0.3491211,-0.14355469,7.2021484,4.760742,-1.159668,0.0,0.0,0.0,-114.35669,67.78015,-149.34814
1770517845831,-0.92578125,-0.3461914,-0.14648438,5.1879883,2.1972656,1.7089844,14348.0,5489.0,-762.0,-114.35669,67.78015,-149.34814
1770517845843,-0.92578125,-0.3461914,-0.14648438,5.1879883,2.1972656,1.7089844,14348.0,5489.0,-762.0,-114.66431,67.631836,-150.4248
1770517845854,-0.92578125,-0.3461914,-0.14648438,5.1879883,2.1972656,1.7089844,0.0,0.0,0.0,-114.66431,67.631836,-150.4248
1770517845931,-0.9291992,-0.34423828,-0.14550781,3.2958984,-1.7089844,1.8920898,14366.0,5491.0,-771.0,-114.66431,67.631836,-150.4248
1770517845943,-0.9291992,-0.34423828,-0.14550781,3.2958984,-1.7089844,1.8920898,14366.0,5491.0,-771.0,-114.45007,67.752686,-150.77637
1770517845954,-0.9291992,-0.34423828,-0.14550781,3.2958984,-1.7089844,1.8920898,0.0,0.0,0.0,-114.45007,67.752686,-150.77637
1770517846031,-0.92578125,-0.34375,-0.13720703,2.1972656,-2.0141602,0.8544922,14361.0,5477.0,-797.0,-114.45007,67.752686,-150.77637
1770517846042,-0.92578125,-0.34375,-0.13720703,2.1972656,-2.0141602,0.8544922,14361.0,5477.0,-797.0,-113.774414,67.9834,-150.44128
1770517846054,-0.92578125,-0.34375,-0.13720703,2.1972656,-2.0141602,0.8544922,0.0,0.0,0.0,-113.774414,67.9834,-150.44128
1770517846131,-0.9355469,-0.34179688,-0.13916016,2.0751953,-0.48828125,-0.5493164,14430.0,5422.0,-972.0,-113.774414,67.9834,-150.44128
1770517846142,-0.9355469,-0.34179688,-0.13916016,2.0751953,-0.48828125,-0.5493164,14430.0,5422.0,-972.0,-113.18115,68.03833,-150.16113
1770517846153,-0.9355469,-0.34179688,-0.13916016,2.0751953,-0.48828125,-0.5493164,0.0,0.0,0.0,-113.18115,68.03833,-150.16113
1770517846230,-0.93408203,-0.3461914,-0.13720703,1.159668,0.0,-1.0986328,14436.0,5398.0,-997.0,-113.18115,68.03833,-150.16113
1770517846242,-0.93408203,-0.3461914,-0.13720703,1.159668,0.0,-1.0986328,14436.0,5398.0,-997.0,-112.857056,67.93396,-150.12268
1770517846254,-0.93408203,-0.3461914,-0.13720703,1.159668,0.0,-1.0986328,0.0,0.0,0.0,-112.857056,67.93396,-150.12268
1770517846330,-0.9355469,-0.34765625,-0.14111328,-0.061035156,-2.1972656,0.061035156,14438.0,5386.0,-1068.0,-112.857056,67.93396,-150.12268
1770517846341,-0.9355469,-0.34765625,-0.14111328,-0.061035156,-2.1972656,0.061035156,14438.0,5386.0,-1068.0,-112.25281,67.994385,-149.60632
1770517846353,-0.9355469,-0.34765625,-0.14111328,-0.061035156,-2.1972656,0.061035156,0.0,0.0,0.0,-112.25281,67.994385,-149.60632
1770517846430,-0.92626953,-0.34228516,-0.1328125,0.7324219,1.2817383,-0.061035156,14438.0,5388.0,-1041.0,-112.25281,67.994385,-149.60632
1770517846441,-0.92626953,-0.34228516,-0.1328125,0.7324219,1.2817383,-0.061035156,14438.0,5388.0,-1041.0,-111.95618,68.07129,-149.32068
1770517846453,-0.92626953,-0.34228516,-0.1328125,0.7324219,1.2817383,-0.061035156,0.0,0.0,0.0,-111.95618,68.07129,-149.32068
1770517846529,-0.9267578,-0.3388672,-0.13671875,4.699707,6.591797,-1.0986328,14399.0,5404.0,-1076.0,-111.95618,68.07129,-149.32068
1770517846541,-0.9267578,-0.3388672,-0.13671875,4.699707,6.591797,-1.0986328,14399.0,5404.0,-1076.0,-112.42859,67.91199,-150.16113
1770517846553,-0.9267578,-0.3388672,-0.13671875,4.699707,6.591797,-1.0986328,0.0,0.0,0.0,-112.42859,67.91199,-150.16113
1770517846629,-0.9291992,-0.34570312,-0.1508789,6.0424805,6.7749023,0.24414062,14383.0,5429.0,-1030.0,-112.42859,67.91199,-150.16113
1770517846641,-0.9291992,-0.34570312,-0.1508789,6.0424805,6.7749023,0.24414062,14383.0,5429.0,-1030.0,-113.274536,67.576904,-151.81458
1770517846652,-0.9291992,-0.34570312,-0.1508789,6.0424805,6.7749023,0.24414062,0.0,0.0,0.0,-113.274536,67.576904,-151.81458
1770517846729,-0.9199219,-0.34570312,-0.1430664,6.4697266,6.164551,1.0986328,14440.0,5409.0,-1046.0,-113.274536,67.576904,-151.81458
1770517846740,-0.9199219,-0.34570312,-0.1430664,6.4697266,6.164551,1.0986328,14440.0,5409.0,-1046.0,-114.038086,67.423096,-153.3966
1770517846752,-0.9199219,-0.34570312,-0.1430664,6.4697266,6.164551,1.0986328,0.0,0.0,0.0,-114.038086,67.423096,-153.3966
1770517846829,-0.9248047,-0.34765625,-0.15039062,7.385254,5.554199,1.4038086,14471.0,5434.0,-948.0,-114.038086,67.423096,-153.3966
1770517846840,-0.9248047,-0.34765625,-0.15039062,7.385254,5.554199,1.4038086,14471.0,5434.0,-948.0,-114.60388,67.35718,-154.87976
1770517846852,-0.9248047,-0.34765625,-0.15039062,7.385254,5.554199,1.4038086,0.0,0.0,0.0,-114.60388,67.35718,-154.87976
1770517846928,-0.91845703,-0.3486328,-0.15234375,5.7373047,3.7231445,1.5869141,14521.0,5441.0,-930.0,-114.60388,67.35718,-154.87976
1770517846940,-0.91845703,-0.3486328,-0.15234375,5.7373047,3.7231445,1.5869141,14521.0,5441.0,-930.0,-114.9884,67.29675,-156.19263
1770517846951,-0.91845703,-0.3486328,-0.15234375,5.7373047,3.7231445,1.5869141,0.0,0.0,0.0,-114.9884,67.29675,-156.19263
1770517847028,-0.90527344,-0.3486328,-0.13623047,3.7841797,1.2207031,1.0375977,14583.0,5385.0,-997.0,-114.9884,67.29675,-156.19263
1770517847040,-0.90527344,-0.3486328,-0.13623047,3.7841797,1.2207031,1.0375977,14583.0,5385.0,-997.0,-115.17517,67.27478,-157.099
1770517847051,-0.90527344,-0.3486328,-0.13623047,3.7841797,1.2207031,1.0375977,0.0,0.0,0.0,-115.17517,67.27478,-157.099
1770517847128,-0.97021484,-0.38232422,-0.13378906,0.5493164,-4.3945312,2.2583008,14624.0,5379.0,-1024.0,-115.17517,67.27478,-157.099
1770517847139,-0.97021484,-0.38232422,-0.13378906,0.5493164,-4.3945312,2.2583008,14624.0,5379.0,-1024.0,-114.21936,67.5824,-156.60461
1770517847155,-0.97021484,-0.38232422,-0.13378906,0.5493164,-4.3945312,2.2583008,0.0,0.0,0.0,-114.21936,67.5824,-156.60461
1770517847227,-0.9091797,-0.30810547,-0.122558594,-5.9814453,-5.1879883,2.5024414,14664.0,5356.0,-1096.0,-114.21936,67.5824,-156.60461
1770517847239,-0.9091797,-0.30810547,-0.122558594,-5.9814453,-5.1879883,2.5024414,14664.0,5356.0,-1096.0,-113.516235,67.994385,-155.74219
1770517847252,-0.9091797,-0.30810547,-0.122558594,-5.9814453,-5.1879883,2.5024414,0.0,0.0,0.0,-113.516235,67.994385,-155.74219
1770517847327,-0.9428711,-0.37060547,-0.13183594,-3.112793,1.5258789,-3.9672852,14622.0,5411.0,-945.0,-113.516235,67.994385,-155.74219
1770517847339,-0.9428711,-0.37060547,-0.13183594,-3.112793,1.5258789,-3.9672852,14622.0,5411.0,-945.0,-113.25256,68.065796,-155.15991
1770517847350,-0.9428711,-0.37060547,-0.13183594,-3.112793,1.5258789,-3.9672852,0.0,0.0,0.0,-113.25256,68.065796,-155.15991
1770517847427,-0.9326172,-0.35742188,-0.16455078,-0.7324219,4.5166016,-3.8452148,14635.0,5431.0,-964.0,-113.25256,68.065796,-155.15991
1770517847438,-0.9326172,-0.35742188,-0.16455078,-0.7324219,4.5166016,-3.8452148,14635.0,5431.0,-964.0,-113.516235,67.51648,-155.4126
1770517847450,-0.9326172,-0.35742188,-0.16455078,-0.7324219,4.5166016,-3.8452148,0.0,0.0,0.0,-113.516235,67.51648,-155.4126
1770517847527,-0.921875,-0.3642578,-0.17138672,5.3100586,9.033203,-4.9438477,14638.0,5454.0,-998.0,-113.516235,67.51648,-155.4126
1770517847538,-0.921875,-0.3642578,-0.17138672,5.3100586,9.033203,-4.9438477,14638.0,5454.0,-998.0,-114.400635,66.85181,-156.6156
1770517847549,-0.921875,-0.3642578,-0.17138672,5.3100586,9.033203,-4.9438477,0.0,0.0,0.0,-114.400635,66.85181,-156.6156
1770517847626,-0.9091797,-0.39013672,-0.16455078,13.244629,9.460449,-6.4086914,14649.0,5495.0,-986.0,-114.400635,66.85181,-156.6156
1770517847638,-0.9091797,-0.39013672,-0.16455078,13.244629,9.460449,-6.4086914,14649.0,5495.0,-986.0,-114.82361,65.945435,-158.18115
1770517847649,-0.9091797,-0.39013672,-0.16455078,13.244629,9.460449,-6.4086914,0.0,0.0,0.0,-114.82361,65.945435,-158.18115
1770517847726,-0.8979492,-0.4091797,-0.16210938,15.563965,8.422852,-7.5683594,14636.0,5500.0,-919.0,-114.82361,65.945435,-158.18115
1770517847737,-0.8979492,-0.4091797,-0.16210938,15.563965,8.422852,-7.5683594,14636.0,5500.0,-919.0,-114.33472,64.885254,-159.4226
1770517847749,-0.8979492,-0.4091797,-0.16210938,15.563965,8.422852,-7.5683594,0.0,0.0,0.0,-114.33472,64.885254,-159.4226
1770517847826,-0.8984375,-0.40966797,-0.1459961,12.451172,1.4038086,-3.540039,14601.0,5530.0,-840.0,-114.33472,64.885254,-159.4226
1770517847837,-0.8984375,-0.40966797,-0.1459961,12.451172,1.4038086,-3.540039,14601.0,5530.0,-840.0,-113.19763,64.16565,-159.93347
1770517847849,-0.8984375,-0.40966797,-0.1459961,12.451172,1.4038086,-3.540039,0.0,0.0,0.0,-113.19763,64.16565,-159.93347
1770517847926,-0.89990234,-0.41992188,-0.14257812,4.211426,-4.9438477,1.5869141,14577.0,5489.0,-959.0,-113.19763,64.16565,-159.93347
1770517847937,-0.89990234,-0.41992188,-0.14257812,4.211426,-4.9438477,1.5869141,14577.0,5489.0,-959.0,-111.54419,64.31946,-159.14795
1770517847949,-0.89990234,-0.41992188,-0.14257812,4.211426,-4.9438477,1.5869141,0.0,0.0,0.0,-111.54419,64.31946,-159.14795
1770517848025,-0.90283203,-0.41064453,-0.14746094,0.36621094,-3.479004,2.1972656,14613.0,5420.0,-1144.0,-111.54419,64.31946,-159.14795
1770517848036,-0.90283203,-0.41064453,-0.14746094,0.36621094,-3.479004,2.1972656,14613.0,5420.0,-1144.0,-110.390625,64.70947,-158.15918
1770517848049,-0.90283203,-0.41064453,-0.14746094,0.36621094,-3.479004,2.1972656,0.0,0.0,0.0,-110.390625,64.70947,-158.15918
1770517848125,-0.90234375,-0.39941406,-0.13134766,0.9765625,-2.8686523,2.746582,14548.0,5450.0,-1087.0,-110.390625,64.70947,-158.15918
1770517848136,-0.90234375,-0.39941406,-0.13134766,0.9765625,-2.8686523,2.746582,14548.0,5450.0,-1087.0,-109.764404,64.99512,-157.7362
1770517848150,-0.90234375,-0.39941406,-0.13134766,0.9765625,-2.8686523,2.746582,0.0,0.0,0.0,-109.764404,64.99512,-157.7362
1770517848224,-0.9057617,-0.39501953,-0.11669922,0.4272461,-0.5493164,2.319336,14552.0,5381.0,-1211.0,-109.764404,64.99512,-157.7362
1770517848236,-0.9057617,-0.39501953,-0.11669922,0.4272461,-0.5493164,2.319336,14552.0,5381.0,-1211.0,-109.39636,65.31372,-157.5055
1770517848251,-0.9057617,-0.39501953,-0.11669922,0.4272461,-0.5493164,2.319336,0.0,0.0,0.0,-109.39636,65.31372,-157.5055
1770517848324,-0.90771484,-0.40527344,-0.115722656,-0.30517578,-0.8544922,1.3427734,14575.0,5361.0,-1277.0,-109.39636,65.31372,-157.5055
1770517848336,-0.90771484,-0.40527344,-0.115722656,-0.30517578,-0.8544922,1.3427734,14575.0,5361.0,-1277.0,-109.26453,65.462036,-157.54395
1770517848347,-0.90771484,-0.40527344,-0.115722656,-0.30517578,-0.8544922,1.3427734,0.0,0.0,0.0,-109.26453,65.462036,-157.54395
1770517848424,-0.90722656,-0.40478516,-0.122558594,-2.380371,-0.7324219,0.61035156,14582.0,5353.0,-1274.0,-109.26453,65.462036,-157.54395
1770517848435,-0.90722656,-0.40478516,-0.122558594,-2.380371,-0.7324219,0.61035156,14582.0,5353.0,-1274.0,-109.14917,65.53894,-157.45056
1770517848447,-0.90722656,-0.40478516,-0.122558594,-2.380371,-0.7324219,0.61035156,0.0,0.0,0.0,-109.14917,65.53894,-157.45056
1770517848524,-0.9038086,-0.40673828,-0.13378906,-2.4414062,1.5258789,0.30517578,14597.0,5331.0,-1348.0,-109.14917,65.53894,-157.45056
1770517848535,-0.9038086,-0.40673828,-0.13378906,-2.4414062,1.5258789,0.30517578,14597.0,5331.0,-1348.0,-109.2865,65.50598,-157.53845
1770517848546,-0.9038086,-0.40673828,-0.13378906,-2.4414062,1.5258789,0.30517578,0.0,0.0,0.0,-109.2865,65.50598,-157.53845
1770517848623,-0.8989258,-0.4350586,-0.11621094,-0.91552734,1.2817383,0.48828125,14608.0,5311.0,-1391.0,-109.2865,65.50598,-157.53845
1770517848635,-0.8989258,-0.4350586,-0.11621094,-0.91552734,1.2817383,0.48828125,14608.0,5311.0,-1391.0,-109.539185,65.4126,-157.9779
1770517848646,-0.8989258,-0.4350586,-0.11621094,-0.91552734,1.2817383,0.48828125,0.0,0.0,0.0,-109.539185,65.4126,-157.9779
1770517848723,-0.8979492,-0.42285156,-0.104003906,-8.361816,-2.0751953,1.2817383,14591.0,5291.0,-1370.0,-109.539185,65.4126,-157.9779
1770517848735,-0.8979492,-0.42285156,-0.104003906,-8.361816,-2.0751953,1.2817383,14591.0,5291.0,-1370.0,-109.852295,65.34668,-158.0603
1770517848746,-0.8979492,-0.42285156,-0.104003906,-8.361816,-2.0751953,1.2817383,0.0,0.0,0.0,-109.852295,65.34668,-158.0603
1770517848823,-0.9296875,-0.38476562,-0.111816406,-17.028809,-14.221191,6.1035156,14523.0,5320.0,-1275.0,-109.852295,65.34668,-158.0603
1770517848834,-0.9296875,-0.38476562,-0.111816406,-17.028809,-14.221191,6.1035156,14523.0,5320.0,-1275.0,-109.65454,65.80261,-156.71997
1770517848848,-0.9296875,-0.38476562,-0.111816406,-17.028809,-14.221191,6.1035156,0.0,0.0,0.0,-109.65454,65.80261,-156.71997
1770517848922,-0.9038086,-0.33691406,-0.095703125,-9.155273,-4.211426,4.5166016,14500.0,5307.0,-1274.0,-109.65454,65.80261,-156.71997
1770517848934,-0.9038086,-0.33691406,-0.095703125,-9.155273,-4.211426,4.5166016,14500.0,5307.0,-1274.0,-109.30298,66.74744,-154.85779
1770517848947,-0.9038086,-0.33691406,-0.095703125,-9.155273,-4.211426,4.5166016,0.0,0.0,0.0,-109.30298,66.74744,-154.85779
1770517849023,-0.93359375,-0.3774414,-0.095703125,-11.474609,-2.6245117,1.0986328,14500.0,5301.0,-1260.0,-109.30298,66.74744,-154.85779
1770517849034,-0.93359375,-0.3774414,-0.095703125,-11.474609,-2.6245117,1.0986328,14500.0,5301.0,-1260.0,-109.47327,67.093506,-154.26453
1770517849045,-0.93359375,-0.3774414,-0.095703125,-11.474609,-2.6245117,1.0986328,0.0,0.0,0.0,-109.47327,67.093506,-154.26453
1770517849122,-0.9536133,-0.35058594,-0.119628906,-16.662598,-3.3569336,2.0751953,14519.0,5262.0,-1325.0,-109.47327,67.093506,-154.26453
1770517849135,-0.9536133,-0.35058594,-0.119628906,-16.662598,-3.3569336,2.0751953,14519.0,5262.0,-1325.0,-109.93469,67.32971,-153.46252
1770517849145,-0.9536133,-0.35058594,-0.119628906,-16.662598,-3.3569336,2.0751953,0.0,0.0,0.0,-109.93469,67.32971,-153.46252
1770517849222,-0.91259766,-0.3251953,-0.10888672,-14.038086,-9.94873,4.5166016,14486.0,5305.0,-1294.0,-109.93469,67.32971,-153.46252
1770517849233,-0.91259766,-0.3251953,-0.10888672,-14.038086,-9.94873,4.5166016,14486.0,5305.0,-1294.0,-109.87976,68.01636,-151.91345
1770517849245,-0.91259766,-0.3251953,-0.10888672,-14.038086,-9.94873,4.5166016,0.0,0.0,0.0,-109.87976,68.01636,-151.91345
1770517849321,-0.9550781,-0.3359375,-0.119140625,-12.634277,-4.0893555,2.0751953,14470.0,5307.0,-1220.0,-109.87976,68.01636,-151.91345
1770517849333,-0.9550781,-0.3359375,-0.119140625,-12.634277,-4.0893555,2.0751953,14470.0,5307.0,-1220.0,-109.7699,68.53821,-150.48523
1770517849344,-0.9550781,-0.3359375,-0.119140625,-12.634277,-4.0893555,2.0751953,0.0,0.0,0.0,-109.7699,68.53821,-150.48523
1770517849421,-0.9301758,-0.30615234,-0.10986328,-9.155273,-5.3710938,4.5166016,14460.0,5329.0,-1180.0,-109.7699,68.53821,-150.48523
1770517849433,-0.9301758,-0.30615234,-0.10986328,-9.155273,-5.3710938,4.5166016,14460.0,5329.0,-1180.0,-110.20935,69.01611,-149.81506
1770517849444,-0.9301758,-0.30615234,-0.10986328,-9.155273,-5.3710938,4.5166016,0.0,0.0,0.0,-110.20935,69.01611,-149.81506
1770517849521,-0.94384766,-0.30517578,-0.091308594,-4.272461,-5.126953,2.1362305,14443.0,5343.0,-1142.0,-110.20935,69.01611,-149.81506
1770517849532,-0.94384766,-0.30517578,-0.091308594,-4.272461,-5.126953,2.1362305,14443.0,5343.0,-1142.0,-109.70947,69.5874,-148.61755
1770517849544,-0.94384766,-0.30517578,-0.091308594,-4.272461,-5.126953,2.1362305,0.0,0.0,0.0,-109.70947,69.5874,-148.61755
1770517849620,-0.95751953,-0.32470703,-0.16015625,-3.3569336,12.512207,-3.112793,14440.0,5364.0,-1097.0,-109.70947,69.5874,-148.61755
1770517849632,-0.95751953,-0.32470703,-0.16015625,-3.3569336,12.512207,-3.112793,14440.0,5364.0,-1097.0,-110.253296,69.56543,-148.94714
1770517849643,-0.95751953,-0.32470703,-0.16015625,-3.3569336,12.512207,-3.112793,0.0,0.0,0.0,-110.253296,69.56543,-148.94714
1770517849720,-0.95166016,-0.3178711,-0.13232422,-3.540039,6.713867,-1.7089844,14488.0,5354.0,-1096.0,-110.253296,69.56543,-148.94714
1770517849732,-0.95166016,-0.3178711,-0.13232422,-3.540039,6.713867,-1.7089844,14488.0,5354.0,-1096.0,-112.60986,69.16443,-150.94666
1770517849743,-0.95166016,-0.3178711,-0.13232422,-3.540039,6.713867,-1.7089844,0.0,0.0,0.0,-112.60986,69.16443,-150.94666
1770517849820,-0.9243164,-0.30322266,-0.11425781,3.540039,-6.652832,1.7700195,14507.0,5397.0,-1002.0,-112.60986,69.16443,-150.94666
1770517849831,-0.9243164,-0.30322266,-0.11425781,3.540039,-6.652832,1.7700195,14507.0,5397.0,-1002.0,-112.19238,69.37317,-150.5951
1770517849843,-0.9243164,-0.30322266,-0.11425781,3.540039,-6.652832,1.7700195,0.0,0.0,0.0,-112.19238,69.37317,-150.5951
1770517849920,-0.9433594,-0.3330078,-0.12548828,-1.5258789,-10.314941,4.699707,14576.0,5368.0,-1071.0,-112.19238,69.37317,-150.5951
1770517849931,-0.9433594,-0.3330078,-0.12548828,-1.5258789,-10.314941,4.699707,14576.0,5368.0,-1071.0,-110.077515,69.92798,-148.68896
1770517849944,-0.9433594,-0.3330078,-0.12548828,-1.5258789,-10.314941,4.699707,0.0,0.0,0.0,-110.077515,69.92798,-148.68896
1770517850019,-0.9428711,-0.3022461,-0.10498047,-0.24414062,-0.12207031,2.0751953,14567.0,5337.0,-1150.0,-110.077515,69.92798,-148.68896
1770517850031,-0.9428711,-0.3022461,-0.10498047,-0.24414062,-0.12207031,2.0751953,14567.0,5337.0,-1150.0,-109.7699,70.2301,-148.30444
1770517850042,-0.9428711,-0.3022461,-0.10498047,-0.24414062,-0.12207031,2.0751953,0.0,0.0,0.0,-109.7699,70.2301,-148.30444
1770517850119,-0.9633789,-0.3046875,-0.103027344,-6.164551,0.91552734,3.8452148,14542.0,5324.0,-1192.0,-109.7699,70.2301,-148.30444
1770517850131,-0.9633789,-0.3046875,-0.103027344,-6.164551,0.91552734,3.8452148,14542.0,5324.0,-1192.0,-110.56641,70.53772,-148.74939
1770517850142,-0.9633789,-0.3046875,-0.103027344,-6.164551,0.91552734,3.8452148,0.0,0.0,0.0,-110.56641,70.53772,-148.74939
1770517850219,-0.9448242,-0.30322266,-0.11230469,-11.047363,6.652832,0.5493164,14580.0,5306.0,-1200.0,-110.56641,70.53772,-148.74939
1770517850230,-0.9448242,-0.30322266,-0.11230469,-11.047363,6.652832,0.5493164,14580.0,5306.0,-1200.0,-112.51099,70.64209,-150.01831
1770517850242,-0.9448242,-0.30322266,-0.11230469,-11.047363,6.652832,0.5493164,0.0,0.0,0.0,-112.51099,70.64209,-150.01831
1770517850319,-0.9477539,-0.2763672,-0.14257812,-15.319824,5.554199,2.2583008,14627.0,5332.0,-1117.0,-112.51099,70.64209,-150.01831
1770517850330,-0.9477539,-0.2763672,-0.14257812,-15.319824,5.554199,2.2583008,14627.0,5332.0,-1117.0,-115.460815,70.52673,-151.84204
1770517850346,-0.9477539,-0.2763672,-0.14257812,-15.319824,5.554199,2.2583008,0.0,0.0,0.0,-115.460815,70.52673,-151.84204
1770517850418,-0.94189453,-0.2890625,-0.14648438,-11.84082,1.6479492,0.36621094,14698.0,5377.0,-1014.0,-115.460815,70.52673,-151.84204
1770517850430,-0.94189453,-0.2890625,-0.14648438,-11.84082,1.6479492,0.36621094,14698.0,5377.0,-1014.0,-117.888794,70.55969,-153.078
1770517850442,-0.94189453,-0.2890625,-0.14648438,-11.84082,1.6479492,0.36621094,0.0,0.0,0.0,-117.888794,70.55969,-153.078
1770517850518,-0.9355469,-0.29003906,-0.14697266,-6.713867,1.5258789,-4.1503906,14738.0,5435.0,-851.0,-117.888794,70.55969,-153.078
1770517850530,-0.9355469,-0.29003906,-0.14697266,-6.713867,1.5258789,-4.1503906,14738.0,5435.0,-851.0,-118.526,70.41138,-152.93518
1770517850541,-0.9355469,-0.29003906,-0.14697266,-6.713867,1.5258789,-4.1503906,0.0,0.0,0.0,-118.526,70.41138,-152.93518
1770517850618,-0.94433594,-0.28125,-0.16699219,-1.8310547,0.91552734,-3.4179688,14754.0,5480.0,-828.0,-118.526,70.41138,-152.93518
1770517850629,-0.94433594,-0.28125,-0.16699219,-1.8310547,0.91552734,-3.4179688,14754.0,5480.0,-828.0,-118.6853,70.00488,-152.74292
1770517850641,-0.94433594,-0.28125,-0.16699219,-1.8310547,0.91552734,-3.4179688,0.0,0.0,0.0,-118.6853,70.00488,-152.74292
1770517850717,-0.9428711,-0.2998047,-0.17871094,9.643555,2.319336,-3.1738281,14716.0,5527.0,-758.0,-118.6853,70.00488,-152.74292
1770517850729,-0.9428711,-0.2998047,-0.17871094,9.643555,2.319336,-3.1738281,14716.0,5527.0,-758.0,-118.19641,69.70276,-152.63306
1770517850740,-0.9428711,-0.2998047,-0.17871094,9.643555,2.319336,-3.1738281,0.0,0.0,0.0,-118.19641,69.70276,-152.63306
1770517850817,-0.9433594,-0.30371094,-0.18408203,9.82666,0.6713867,1.2207031,14663.0,5545.0,-752.0,-118.19641,69.70276,-152.63306
1770517850829,-0.9433594,-0.30371094,-0.18408203,9.82666,0.6713867,1.2207031,14663.0,5545.0,-752.0,-117.53174,69.58191,-152.83081
1770517850841,-0.9433594,-0.30371094,-0.18408203,9.82666,0.6713867,1.2207031,0.0,0.0,0.0,-117.53174,69.58191,-152.83081
1770517850917,-0.93896484,-0.3178711,-0.1694336,7.751465,3.2958984,2.2583008,14638.0,5537.0,-767.0,-117.53174,69.58191,-152.83081
1770517850928,-0.93896484,-0.3178711,-0.1694336,7.751465,3.2958984,2.2583008,14638.0,5537.0,-767.0,-117.767944,69.642334,-153.74268
1770517850940,-0.93896484,-0.3178711,-0.1694336,7.751465,3.2958984,2.2583008,0.0,0.0,0.0,-117.767944,69.642334,-153.74268
1770517851016,-0.9350586,-0.3095703,-0.1772461,1.7089844,7.6904297,-1.8310547,14672.0,5497.0,-837.0,-117.767944,69.642334,-153.74268
1770517851028,-0.9350586,-0.3095703,-0.1772461,1.7089844,7.6904297,-1.8310547,14672.0,5497.0,-837.0,-118.41614,69.37866,-154.9292
1770517851043,-0.9350586,-0.3095703,-0.1772461,1.7089844,7.6904297,-1.8310547,0.0,0.0,0.0,-118.41614,69.37866,-154.9292
1770517851116,-0.9379883,-0.28076172,-0.19921875,-0.48828125,4.9438477,-1.2207031,14706.0,5473.0,-895.0,-118.41614,69.37866,-154.9292
1770517851128,-0.9379883,-0.28076172,-0.19921875,-0.48828125,4.9438477,-1.2207031,14706.0,5473.0,-895.0,-119.72351,68.933716,-156.31897
1770517851139,-0.9379883,-0.28076172,-0.19921875,-0.48828125,4.9438477,-1.2207031,0.0,0.0,0.0,-119.72351,68.933716,-156.31897
1770517851216,-0.94091797,-0.3071289,-0.16748047,10.986328,0.5493164,-0.36621094,14721.0,5486.0,-877.0,-119.72351,68.933716,-156.31897
1770517851227,-0.94091797,-0.3071289,-0.16748047,10.986328,0.5493164,-0.36621094,14721.0,5486.0,-877.0,-120.33325,68.61511,-157.2638
1770517851245,-0.94091797,-0.3071289,-0.16748047,10.986328,0.5493164,-0.36621094,0.0,0.0,0.0,-120.33325,68.61511,-157.2638
1770517851316,-0.9501953,-0.30273438,-0.1538086,15.014648,0.48828125,1.0986328,14721.0,5505.0,-824.0,-120.33325,68.61511,-157.2638
1770517851327,-0.9501953,-0.30273438,-0.1538086,15.014648,0.48828125,1.0986328,14721.0,5505.0,-824.0,-119.14673,68.68652,-157.4176
1770517851338,-0.9501953,-0.30273438,-0.1538086,15.014648,0.48828125,1.0986328,0.0,0.0,0.0,-119.14673,68.68652,-157.4176
1770517851415,-0.9038086,-0.30810547,-0.13671875,12.939453,-2.2583008,1.0986328,14721.0,5487.0,-883.0,-119.14673,68.68652,-157.4176
1770517851427,-0.9038086,-0.30810547,-0.13671875,12.939453,-2.2583008,1.0986328,14721.0,5487.0,-883.0,-116.71326,69.18091,-156.47278
1770517851438,-0.9038086,-0.30810547,-0.13671875,12.939453,-2.2583008,1.0986328,0.0,0.0,0.0,-116.71326,69.18091,-156.47278
1770517851515,-0.9482422,-0.33154297,-0.12207031,12.023926,-2.380371,-0.5493164,14711.0,5428.0,-1022.0,-116.71326,69.18091,-156.47278
1770517851526,-0.9482422,-0.33154297,-0.12207031,12.023926,-2.380371,-0.5493164,14711.0,5428.0,-1022.0,-114.58191,69.384155,-155.67627
1770517851538,-0.9482422,-0.33154297,-0.12207031,12.023926,-2.380371,-0.5493164,0.0,0.0,0.0,-114.58191,69.384155,-155.67627
1770517851615,-0.9321289,-0.3334961,-0.12109375,11.352539,-0.6713867,-0.61035156,14703.0,5390.0,-1157.0,-114.58191,69.384155,-155.67627
1770517851627,-0.9321289,-0.3334961,-0.12109375,11.352539,-0.6713867,-0.61035156,14703.0,5390.0,-1157.0,-112.53845,69.384155,-154.98962
1770517851638,-0.9321289,-0.3334961,-0.12109375,11.352539,-0.6713867,-0.61035156,0.0,0.0,0.0,-112.53845,69.384155,-154.98962
1770517851714,-0.9379883,-0.3515625,-0.11230469,4.9438477,-0.4272461,-1.2207031,14672.0,5345.0,-1251.0,-112.53845,69.384155,-154.98962
1770517851726,-0.9379883,-0.3515625,-0.11230469,4.9438477,-0.4272461,-1.2207031,14672.0,5345.0,-1251.0,-111.5387,69.2688,-154.9292
1770517851738,-0.9379883,-0.3515625,-0.11230469,4.9438477,-0.4272461,-1.2207031,0.0,0.0,0.0,-111.5387,69.2688,-154.9292
1770517851814,-0.9189453,-0.33740234,-0.09033203,1.2817383,-2.9296875,-1.5869141,14630.0,5387.0,-1194.0,-111.5387,69.2688,-154.9292
1770517851826,-0.9189453,-0.33740234,-0.09033203,1.2817383,-2.9296875,-1.5869141,14630.0,5387.0,-1194.0,-110.50049,69.16992,-154.3634
1770517851839,-0.9189453,-0.33740234,-0.09033203,1.2817383,-2.9296875,-1.5869141,0.0,0.0,0.0,-110.50049,69.16992,-154.3634
1770517851914,-0.91796875,-0.3623047,-0.076660156,2.0141602,-1.2817383,-2.9296875,14655.0,5365.0,-1332.0,-110.50049,69.16992,-154.3634
1770517851925,-0.91796875,-0.3623047,-0.076660156,2.0141602,-1.2817383,-2.9296875,14655.0,5365.0,-1332.0,-109.281006,69.0271,-153.50098
1770517851939,-0.91796875,-0.3623047,-0.076660156,2.0141602,-1.2817383,-2.9296875,0.0,0.0,0.0,-109.281006,69.0271,-153.50098
1770517852014,-0.97021484,-0.38183594,-0.09375,-2.0751953,4.760742,-4.211426,14636.0,5372.0,-1365.0,-109.281006,69.0271,-153.50098
1770517852025,-0.97021484,-0.38183594,-0.09375,-2.0751953,4.760742,-4.211426,14636.0,5372.0,-1365.0,-109.16016,68.516235,-153.77563
1770517852040,-0.97021484,-0.38183594,-0.09375,-2.0751953,4.760742,-4.211426,0.0,0.0,0.0,-109.16016,68.516235,-153.77563
1770517852113,-0.9140625,-0.37841797,-0.11328125,-2.2583008,0.8544922,-2.319336,14592.0,5431.0,-1327.0,-109.16016,68.516235,-153.77563
1770517852125,-0.9140625,-0.37841797,-0.11328125,-2.2583008,0.8544922,-2.319336,14592.0,5431.0,-1327.0,-109.0448,68.21411,-153.78113
1770517852142,-0.9140625,-0.37841797,-0.11328125,-2.2583008,0.8544922,-2.319336,0.0,0.0,0.0,-109.0448,68.21411,-153.78113
1770517852213,-0.9086914,-0.38476562,-0.115234375,6.7749023,2.8686523,-3.2958984,14605.0,5470.0,-1307.0,-109.0448,68.21411,-153.78113
1770517852224,-0.9086914,-0.38476562,-0.115234375,6.7749023,2.8686523,-3.2958984,14605.0,5470.0,-1307.0,-108.77014,67.83508,-154.02283
1770517852236,-0.9086914,-0.38476562,-0.115234375,6.7749023,2.8686523,-3.2958984,0.0,0.0,0.0,-108.77014,67.83508,-154.02283
1770517852313,-0.9213867,-0.3798828,-0.106933594,11.047363,9.155273,-3.9672852,14612.0,5493.0,-1276.0,-108.77014,67.83508,-154.02283
1770517852324,-0.9213867,-0.3798828,-0.106933594,11.047363,9.155273,-3.9672852,14612.0,5493.0,-1276.0,-109.15466,67.12097,-155.6543
1770517852336,-0.9213867,-0.3798828,-0.106933594,11.047363,9.155273,-3.9672852,0.0,0.0,0.0,-109.15466,67.12097,-155.6543
1770517852412,-0.9145508,-0.4165039,-0.1303711,8.666992,10.375977,-2.8076172,14637.0,5498.0,-1308.0,-109.15466,67.12097,-155.6543
1770517852424,-0.9145508,-0.4165039,-0.1303711,8.666992,10.375977,-2.8076172,14637.0,5498.0,-1308.0,-109.868774,66.46179,-157.73071
1770517852435,-0.9145508,-0.4165039,-0.1303711,8.666992,10.375977,-2.8076172,0.0,0.0,0.0,-109.868774,66.46179,-157.73071
1770517852512,-0.9003906,-0.39013672,-0.10644531,4.1503906,5.2490234,0.36621094,14656.0,5497.0,-1320.0,-109.868774,66.46179,-157.73071
1770517852524,-0.9003906,-0.39013672,-0.10644531,4.1503906,5.2490234,0.36621094,14656.0,5497.0,-1320.0,-110.67078,65.99487,-159.55994
1770517852535,-0.9003906,-0.39013672,-0.10644531,4.1503906,5.2490234,0.36621094,0.0,0.0,0.0,-110.67078,65.99487,-159.55994
1770517852612,-0.9038086,-0.40283203,-0.11621094,-3.8452148,-2.9296875,2.9907227,14707.0,5477.0,-1357.0,-110.67078,65.99487,-159.55994
1770517852623,-0.9038086,-0.40283203,-0.11621094,-3.8452148,-2.9296875,2.9907227,14707.0,5477.0,-1357.0,-110.40161,66.225586,-159.55444
1770517852635,-0.9038086,-0.40283203,-0.11621094,-3.8452148,-2.9296875,2.9907227,0.0,0.0,0.0,-110.40161,66.225586,-159.55444
1770517852712,-0.9238281,-0.38720703,-0.13720703,-7.507324,0.6713867,2.0141602,14736.0,5464.0,-1339.0,-110.40161,66.225586,-159.55444
1770517852724,-0.9238281,-0.38720703,-0.13720703,-7.507324,0.6713867,2.0141602,14736.0,5464.0,-1339.0,-110.74219,66.40686,-159.52148
1770517852745,-0.9238281,-0.38720703,-0.13720703,-7.507324,0.6713867,2.0141602,0.0,0.0,0.0,-110.74219,66.40686,-159.52148
1770517852811,-0.90722656,-0.38867188,-0.16552734,-7.6293945,4.3945312,2.6245117,14748.0,5472.0,-1326.0,-110.74219,66.40686,-159.52148
1770517852823,-0.90722656,-0.38867188,-0.16552734,-7.6293945,4.3945312,2.6245117,14748.0,5472.0,-1326.0,-112.06055,66.483765,-160.3125
1770517852835,-0.90722656,-0.38867188,-0.16552734,-7.6293945,4.3945312,2.6245117,0.0,0.0,0.0,-112.06055,66.483765,-160.3125
1770517852911,-0.90771484,-0.3798828,-0.16064453,-3.7231445,7.2021484,3.540039,14734.0,5515.0,-1204.0,-112.06055,66.483765,-160.3125
1770517852922,-0.90771484,-0.3798828,-0.16064453,-3.7231445,7.2021484,3.540039,14734.0,5515.0,-1204.0,-114.246826,66.39038,-162.21863
1770517852935,-0.90771484,-0.3798828,-0.16064453,-3.7231445,7.2021484,3.540039,0.0,0.0,0.0,-114.246826,66.39038,-162.21863
1770517853011,-0.9189453,-0.3881836,-0.17529297,0.9765625,7.5683594,3.7231445,14790.0,5529.0,-1135.0,-114.246826,66.39038,-162.21863
1770517853022,-0.9189453,-0.3881836,-0.17529297,0.9765625,7.5683594,3.7231445,14790.0,5529.0,-1135.0,-115.9552,66.346436,-164.20166
1770517853033,-0.9189453,-0.3881836,-0.17529297,0.9765625,7.5683594,3.7231445,0.0,0.0,0.0,-115.9552,66.346436,-164.20166
1770517853110,-0.93896484,-0.3647461,-0.17626953,5.859375,6.591797,4.211426,14848.0,5502.0,-1089.0,-115.9552,66.346436,-164.20166
1770517853122,-0.93896484,-0.3647461,-0.17626953,5.859375,6.591797,4.211426,14848.0,5502.0,-1089.0,-117.20215,66.31348,-166.1737
1770517853135,-0.93896484,-0.3647461,-0.17626953,5.859375,6.591797,4.211426,0.0,0.0,0.0,-117.20215,66.31348,-166.1737
1770517853210,-0.8989258,-0.32177734,-0.17285156,8.056641,-1.159668,7.446289,14890.0,5472.0,-1030.0,-117.20215,66.31348,-166.1737
1770517853222,-0.8989258,-0.32177734,-0.17285156,8.056641,-1.159668,7.446289,14890.0,5472.0,-1030.0,-117.44385,66.82434,-167.26685
1770517853234,-0.8989258,-0.32177734,-0.17285156,8.056641,-1.159668,7.446289,0.0,0.0,0.0,-117.44385,66.82434,-167.26685
1770517853310,-0.9355469,-0.36083984,-0.14355469,12.878418,-1.2207031,2.5024414,14974.0,5377.0,-1104.0,-117.44385,66.82434,-167.26685
1770517853321,-0.9355469,-0.36083984,-0.14355469,12.878418,-1.2207031,2.5024414,14974.0,5377.0,-1104.0,-116.79016,67.25281,-167.85461
1770517853334,-0.9355469,-0.36083984,-0.14355469,12.878418,-1.2207031,2.5024414,0.0,0.0,0.0,-116.79016,67.25281,-167.85461
1770517853409,-0.9404297,-0.3203125,-0.12695312,5.859375,-3.112793,3.479004,15005.0,5275.0,-1181.0,-116.79016,67.25281,-167.85461
1770517853421,-0.9404297,-0.3203125,-0.12695312,5.859375,-3.112793,3.479004,15005.0,5275.0,-1181.0,-115.510254,67.51648,-167.74475
1770517853432,-0.9404297,-0.3203125,-0.12695312,5.859375,-3.112793,3.479004,0.0,0.0,0.0,-115.510254,67.51648,-167.74475
1770517853509,-0.9169922,-0.3408203,-0.14697266,1.953125,-5.2490234,3.6621094,14969.0,5230.0,-1246.0,-115.510254,67.51648,-167.74475
1770517853521,-0.9169922,-0.3408203,-0.14697266,1.953125,-5.2490234,3.6621094,14969.0,5230.0,-1246.0,-114.21936,68.23059,-166.73401
1770517853532,-0.9169922,-0.3408203,-0.14697266,1.953125,-5.2490234,3.6621094,0.0,0.0,0.0,-114.21936,68.23059,-166.73401
1770517853609,-0.9404297,-0.34326172,-0.14208984,0.0,-5.6152344,0.5493164,14955.0,5172.0,-1335.0,-114.21936,68.23059,-166.73401
1770517853620,-0.9404297,-0.34326172,-0.14208984,0.0,-5.6152344,0.5493164,14955.0,5172.0,-1335.0,-112.8241,68.5437,-165.47607
1770517853632,-0.9404297,-0.34326172,-0.14208984,0.0,-5.6152344,0.5493164,0.0,0.0,0.0,-112.8241,68.5437,-165.47607
1770517853709,-0.9350586,-0.31640625,-0.12841797,-5.3710938,-4.4555664,3.2348633,14923.0,5086.0,-1396.0,-112.8241,68.5437,-165.47607
1770517853720,-0.9350586,-0.31640625,-0.12841797,-5.3710938,-4.4555664,3.2348633,14923.0,5086.0,-1396.0,-112.19238,68.878784,-164.53674
1770517853731,-0.9350586,-0.31640625,-0.12841797,-5.3710938,-4.4555664,3.2348633,0.0,0.0,0.0,-112.19238,68.878784,-164.53674
1770517853808,-0.92822266,-0.3046875,-0.11279297,-7.385254,-7.3242188,3.479004,14890.0,5071.0,-1462.0,-112.19238,68.878784,-164.53674
1770517853820,-0.92822266,-0.3046875,-0.11279297,-7.385254,-7.3242188,3.479004,14890.0,5071.0,-1462.0,-111.74194,69.39514,-163.38318
1770517853832,-0.92822266,-0.3046875,-0.11279297,-7.385254,-7.3242188,3.479004,0.0,0.0,0.0,-111.74194,69.39514,-163.38318
1770517853908,-0.9707031,-0.28173828,-0.123046875,-7.446289,-4.5166016,3.8452148,14894.0,5053.0,-1526.0,-111.74194,69.39514,-163.38318
1770517853920,-0.9707031,-0.28173828,-0.123046875,-7.446289,-4.5166016,3.8452148,14894.0,5053.0,-1526.0,-111.170654,70.059814,-161.97144
1770517853931,-0.9707031,-0.28173828,-0.123046875,-7.446289,-4.5166016,3.8452148,0.0,0.0,0.0,-111.170654,70.059814,-161.97144
1770517854008,-0.9458008,-0.29785156,-0.10253906,0.0,-3.479004,2.4414062,14892.0,5049.0,-1530.0,-111.170654,70.059814,-161.97144
1770517854019,-0.9458008,-0.29785156,-0.10253906,0.0,-3.479004,2.4414062,14892.0,5049.0,-1530.0,-111.03882,70.510254,-161.33423
1770517854035,-0.9458008,-0.29785156,-0.10253906,0.0,-3.479004,2.4414062,0.0,0.0,0.0,-111.03882,70.510254,-161.33423
1770517854107,-0.95458984,-0.27294922,-0.103027344,-0.9765625,0.0,3.6621094,14892.0,5025.0,-1547.0,-111.03882,70.510254,-161.33423
1770517854119,-0.95458984,-0.27294922,-0.103027344,-0.9765625,0.0,3.6621094,14892.0,5025.0,-1547.0,-110.9729,70.88379,-161.22437
1770517854131,-0.95458984,-0.27294922,-0.103027344,-0.9765625,0.0,3.6621094,0.0,0.0,0.0,-110.9729,70.88379,-161.22437
1770517854207,-0.9707031,-0.2919922,-0.114746094,-3.540039,2.319336,2.8076172,14889.0,4999.0,-1570.0,-110.9729,70.88379,-161.22437
1770517854219,-0.9707031,-0.2919922,-0.114746094,-3.540039,2.319336,2.8076172,14889.0,4999.0,-1570.0,-111.86279,71.25183,-161.9165
1770517854231,-0.9707031,-0.2919922,-0.114746094,-3.540039,2.319336,2.8076172,0.0,0.0,0.0,-111.86279,71.25183,-161.9165
1770517854307,-0.9560547,-0.27294922,-0.122558594,-7.019043,4.8217773,2.6245117,14931.0,4988.0,-1548.0,-111.86279,71.25183,-161.9165
1770517854318,-0.9560547,-0.27294922,-0.122558594,-7.019043,4.8217773,2.6245117,14931.0,4988.0,-1548.0,-113.58765,71.37268,-163.32275
1770517854330,-0.9560547,-0.27294922,-0.122558594,-7.019043,4.8217773,2.6245117,0.0,0.0,0.0,-113.58765,71.37268,-163.32275
1770517854407,-0.9433594,-0.2788086,-0.1352539,-11.413574,3.90625,1.8920898,14981.0,4990.0,-1462.0,-113.58765,71.37268,-163.32275
1770517854419,-0.9433594,-0.2788086,-0.1352539,-11.413574,3.90625,1.8920898,14981.0,4990.0,-1462.0,-116.01013,71.42761,-165.00366
1770517854431,-0.9433594,-0.2788086,-0.1352539,-11.413574,3.90625,1.8920898,0.0,0.0,0.0,-116.01013,71.42761,-165.00366
1770517854506,-0.96533203,-0.27246094,-0.1508789,-12.207031,6.652832,-0.18310547,15020.0,5026.0,-1384.0,-116.01013,71.42761,-165.00366
1770517854518,-0.96533203,-0.27246094,-0.1508789,-12.207031,6.652832,-0.18310547,15020.0,5026.0,-1384.0,-118.8501,71.1969,-166.8219
1770517854529,-0.96533203,-0.27246094,-0.1508789,-12.207031,6.652832,-0.18310547,0.0,0.0,0.0,-118.8501,71.1969,-166.8219
1770517854606,-0.9350586,-0.26464844,-0.16210938,-5.1879883,-1.159668,1.159668,15066.0,5076.0,-1264.0,-118.8501,71.1969,-166.8219
1770517854617,-0.9350586,-0.26464844,-0.16210938,-5.1879883,-1.159668,1.159668,15066.0,5076.0,-1264.0,-120.34424,71.21887,-167.48657
1770517854629,-0.9350586,-0.26464844,-0.16210938,-5.1879883,-1.159668,1.159668,0.0,0.0,0.0,-120.34424,71.21887,-167.48657
1770517854706,-0.9589844,-0.26953125,-0.15283203,0.48828125,1.159668,-0.24414062,15107.0,5112.0,-1188.0,-120.34424,71.21887,-167.48657
1770517854717,-0.9589844,-0.26953125,-0.15283203,0.48828125,1.159668,-0.24414062,15107.0,5112.0,-1188.0,-120.52002,71.26282,-167.547
1770517854729,-0.9589844,-0.26953125,-0.15283203,0.48828125,1.159668,-0.24414062,0.0,0.0,0.0,-120.52002,71.26282,-167.547
1770517854805,-0.94189453,-0.26953125,-0.17333984,0.91552734,0.0,1.159668,15101.0,5126.0,-1145.0,-120.52002,71.26282,-167.547
1770517854817,-0.94189453,-0.26953125,-0.17333984,0.91552734,0.0,1.159668,15101.0,5126.0,-1145.0,-120.57495,71.32324,-167.67334
1770517854828,-0.94189453,-0.26953125,-0.17333984,0.91552734,0.0,1.159668,0.0,0.0,0.0,-120.57495,71.32324,-167.67334
1770517854905,-0.9550781,-0.26464844,-0.16748047,1.7700195,1.0375977,0.6713867,15116.0,5123.0,-1149.0,-120.57495,71.32324,-167.67334
1770517854917,-0.9550781,-0.26464844,-0.16748047,1.7700195,1.0375977,0.6713867,15116.0,5123.0,-1149.0,-120.84412,71.30127,-168.15125
1770517854929,-0.9550781,-0.26464844,-0.16748047,1.7700195,1.0375977,0.6713867,0.0,0.0,0.0,-120.84412,71.30127,-168.15125
1770517855005,-0.95947266,-0.25927734,-0.16992188,2.5634766,0.7324219,0.7324219,15074.0,5148.0,-1036.0,-120.84412,71.30127,-168.15125
1770517855017,-0.95947266,-0.25927734,-0.16992188,2.5634766,0.7324219,0.7324219,15074.0,5148.0,-1036.0,-120.860596,71.32324,-168.38196
1770517855032,-0.95947266,-0.25927734,-0.16992188,2.5634766,0.7324219,0.7324219,0.0,0.0,0.0,-120.860596,71.32324,-168.38196
1770517855105,-0.9555664,-0.2475586,-0.16796875,4.3945312,3.540039,0.8544922,15092.0,5110.0,-1124.0,-120.860596,71.32324,-168.38196
1770517855116,-0.9555664,-0.2475586,-0.16796875,4.3945312,3.540039,0.8544922,15092.0,5110.0,-1124.0,-121.311035,71.26831,-169.12903
1770517855135,-0.9555664,-0.2475586,-0.16796875,4.3945312,3.540039,0.8544922,0.0,0.0,0.0,-121.311035,71.26831,-169.12903
1770517855204,-0.9746094,-0.25976562,-0.15820312,10.498047,3.2348633,0.4272461,15086.0,5089.0,-1114.0,-121.311035,71.26831,-169.12903
1770517855216,-0.9746094,-0.25976562,-0.15820312,10.498047,3.2348633,0.4272461,15086.0,5089.0,-1114.0,-121.75049,71.19141,-170.18921
1770517855227,-0.9746094,-0.25976562,-0.15820312,10.498047,3.2348633,0.4272461,0.0,0.0,0.0,-121.75049,71.19141,-170.18921
1770517855304,-0.9663086,-0.2680664,-0.15527344,14.160156,0.9765625,0.0,15110.0,5054.0,-1103.0,-121.75049,71.19141,-170.18921
1770517855316,-0.9663086,-0.2680664,-0.15527344,14.160156,0.9765625,0.0,15110.0,5054.0,-1103.0,-120.89905,71.21887,-170.5957
1770517855327,-0.9663086,-0.2680664,-0.15527344,14.160156,0.9765625,0.0,0.0,0.0,0.0,-120.89905,71.21887,-170.5957
1770517855404,-0.8847656,-0.24169922,-0.13378906,20.385742,-5.004883,1.8310547,15105.0,5000.0,-1189.0,-120.89905,71.21887,-170.5957
1770517855415,-0.8847656,-0.24169922,-0.13378906,20.385742,-5.004883,1.8310547,15105.0,5000.0,-1189.0,-118.54248,71.416626,-170.12329
1770517855432,-0.8847656,-0.24169922,-0.13378906,20.385742,-5.004883,1.8310547,0.0,0.0,0.0,-118.54248,71.416626,-170.12329
1770517855503,-0.9921875,-0.2915039,-0.11279297,17.944336,-1.953125,2.5634766,15107.0,4953.0,-1293.0,-118.54248,71.416626,-170.12329
1770517855515,-0.9921875,-0.2915039,-0.11279297,17.944336,-1.953125,2.5634766,15107.0,4953.0,-1293.0,-116.3562,71.5979,-170.10681
1770517855526,-0.9921875,-0.2915039,-0.11279297,17.944336,-1.953125,2.5634766,0.0,0.0,0.0,-116.3562,71.5979,-170.10681
1770517855603,-0.94921875,-0.3071289,-0.13085938,10.7421875,2.8686523,-0.91552734,15092.0,4866.0,-1469.0,-116.3562,71.5979,-170.10681
1770517855615,-0.94921875,-0.3071289,-0.13085938,10.7421875,2.8686523,-0.91552734,15092.0,4866.0,-1469.0,-114.86206,71.7572,-170.26062
1770517855626,-0.94921875,-0.3071289,-0.13085938,10.7421875,2.8686523,-0.91552734,0.0,0.0,0.0,-114.86206,71.7572,-170.26062
1770517855703,-0.9536133,-0.29785156,-0.11669922,1.4648438,0.79345703,-3.2958984,15089.0,4809.0,-1586.0,-114.86206,71.7572,-170.26062
1770517855714,-0.9536133,-0.29785156,-0.11669922,1.4648438,0.79345703,-3.2958984,15089.0,4809.0,-1586.0,-114.29077,71.47705,-170.4419
1770517855726,-0.9536133,-0.29785156,-0.11669922,1.4648438,0.79345703,-3.2958984,0.0,0.0,0.0,-114.29077,71.47705,-170.4419
1770517855803,-0.9453125,-0.29736328,-0.125,-4.8217773,3.0517578,-4.211426,15077.0,4779.0,-1618.0,-114.29077,71.47705,-170.4419
1770517855814,-0.9453125,-0.29736328,-0.125,-4.8217773,3.0517578,-4.211426,15077.0,4779.0,-1618.0,-114.35669,71.02112,-170.52429
1770517855826,-0.9453125,-0.29736328,-0.125,-4.8217773,3.0517578,-4.211426,0.0,0.0,0.0,-114.35669,71.02112,-170.52429
1770517855902,-0.94140625,-0.30322266,-0.13183594,-7.8125,1.8310547,-4.760742,15082.0,4805.0,-1623.0,-114.35669,71.02112,-170.52429
1770517855914,-0.94140625,-0.30322266,-0.13183594,-7.8125,1.8310547,-4.760742,15082.0,4805.0,-1623.0,-114.97742,70.493774,-170.6726
1770517855927,-0.94140625,-0.30322266,-0.13183594,-7.8125,1.8310547,-4.760742,0.0,0.0,0.0,-114.97742,70.493774,-170.6726
1770517856002,-0.93652344,-0.30615234,-0.14208984,-6.1035156,0.5493164,-3.90625,15075.0,4869.0,-1577.0,-114.97742,70.493774,-170.6726
1770517856013,-0.93652344,-0.30615234,-0.14208984,-6.1035156,0.5493164,-3.90625,15075.0,4869.0,-1577.0,-115.180664,70.09827,-170.30457
1770517856025,-0.93652344,-0.30615234,-0.14208984,-6.1035156,0.5493164,-3.90625,0.0,0.0,0.0,-115.180664,70.09827,-170.30457
1770517856102,-0.93896484,-0.3125,-0.14404297,-4.4555664,1.8310547,-3.8452148,15050.0,4942.0,-1486.0,-115.180664,70.09827,-170.30457
1770517856114,-0.93896484,-0.3125,-0.14404297,-4.4555664,1.8310547,-3.8452148,15050.0,4942.0,-1486.0,-115.40039,69.71924,-170.10681
1770517856125,-0.93896484,-0.3125,-0.14404297,-4.4555664,1.8310547,-3.8452148,0.0,0.0,0.0,-115.40039,69.71924,-170.10681
1770517856201,-0.93310547,-0.32421875,-0.14013672,-2.380371,2.0751953,-3.2348633,15022.0,5026.0,-1454.0,-115.40039,69.71924,-170.10681
1770517856213,-0.93310547,-0.32421875,-0.14013672,-2.380371,2.0751953,-3.2348633,15022.0,5026.0,-1454.0,-115.70801,69.3457,-170.21667
1770517856229,-0.93310547,-0.32421875,-0.14013672,-2.380371,2.0751953,-3.2348633,0.0,0.0,0.0,-115.70801,69.3457,-170.21667
1770517856301,-0.92822266,-0.3359375,-0.12548828,1.953125,0.5493164,-2.9907227,15025.0,5067.0,-1428.0,-115.70801,69.3457,-170.21667
1770517856313,-0.92822266,-0.3359375,-0.12548828,1.953125,0.5493164,-2.9907227,15025.0,5067.0,-1428.0,-115.43884,69.0271,-170.13428
1770517856325,-0.92822266,-0.3359375,-0.12548828,1.953125,0.5493164,-2.9907227,0.0,0.0,0.0,-115.43884,69.0271,-170.13428
1770517856401,-0.9194336,-0.3515625,-0.111816406,1.6479492,-3.112793,-1.5869141,15015.0,5116.0,-1405.0,-115.43884,69.0271,-170.13428
1770517856412,-0.9194336,-0.3515625,-0.111816406,1.6479492,-3.112793,-1.5869141,15015.0,5116.0,-1405.0,-114.191895,68.91174,-169.33228
1770517856424,-0.9194336,-0.3515625,-0.111816406,1.6479492,-3.112793,-1.5869141,0.0,0.0,0.0,-114.191895,68.91174,-169.33228
1770517856501,-0.9682617,-0.35839844,-0.122558594,-0.6713867,1.0375977,-0.8544922,14991.0,5130.0,-1444.0,-114.191895,68.91174,-169.33228
1770517856513,-0.9682617,-0.35839844,-0.122558594,-0.6713867,1.0375977,-0.8544922,14991.0,5130.0,-1444.0,-113.56018,68.77991,-169.04114
1770517856524,-0.9682617,-0.35839844,-0.122558594,-0.6713867,1.0375977,-0.8544922,0.0,0.0,0.0,-113.56018,68.77991,-169.04114
1770517856600,-0.9169922,-0.35009766,-0.12402344,0.4272461,-0.61035156,-0.91552734,14984.0,5156.0,-1408.0,-113.56018,68.77991,-169.04114
1770517856612,-0.9169922,-0.35009766,-0.12402344,0.4272461,-0.61035156,-0.91552734,14984.0,5156.0,-1408.0,-113.20862,68.73047,-168.97522
1770517856630,-0.9169922,-0.35009766,-0.12402344,0.4272461,-0.61035156,-0.91552734,0.0,0.0,0.0,-113.20862,68.73047,-168.97522
1770517856700,-0.92333984,-0.36376953,-0.10839844,1.159668,-1.5258789,-3.4179688,14994.0,5184.0,-1389.0,-113.20862,68.73047,-168.97522
1770517856712,-0.92333984,-0.36376953,-0.10839844,1.159668,-1.5258789,-3.4179688,14994.0,5184.0,-1389.0,-112.29126,68.45581,-168.45886
1770517856723,-0.92333984,-0.36376953,-0.10839844,1.159668,-1.5258789,-3.4179688,0.0,0.0,0.0,-112.29126,68.45581,-168.45886
1770517856800,-0.9404297,-0.37158203,-0.13964844,2.9296875,2.5024414,-3.0517578,14971.0,5196.0,-1403.0,-112.29126,68.45581,-168.45886
1770517856811,-0.9404297,-0.37158203,-0.13964844,2.9296875,2.5024414,-3.0517578,14971.0,5196.0,-1403.0,-111.59912,68.10425,-168.1897
1770517856825,-0.9404297,-0.37158203,-0.13964844,2.9296875,2.5024414,-3.0517578,0.0,0.0,0.0,-111.59912,68.10425,-168.1897
1770517856899,-0.92333984,-0.3647461,-0.12841797,6.0424805,2.8686523,-1.0986328,14941.0,5211.0,-1437.0,-111.59912,68.10425,-168.1897
1770517856911,-0.92333984,-0.3647461,-0.12841797,6.0424805,2.8686523,-1.0986328,14941.0,5211.0,-1437.0,-111.44531,67.79663,-168.72803
1770517856929,-0.92333984,-0.3647461,-0.12841797,6.0424805,2.8686523,-1.0986328,0.0,0.0,0.0,-111.44531,67.79663,-168.72803
1770517856999,-0.90625,-0.3725586,-0.10839844,2.5024414,-0.24414062,-0.48828125,14933.0,5225.0,-1460.0,-111.44531,67.79663,-168.72803
1770517857011,-0.90625,-0.3725586,-0.10839844,2.5024414,-0.24414062,-0.48828125,14933.0,5225.0,-1460.0,-111.02234,67.62634,-168.98071
1770517857023,-0.90625,-0.3725586,-0.10839844,2.5024414,-0.24414062,-0.48828125,0.0,0.0,0.0,-111.02234,67.62634,-168.98071
1770517857099,-0.9355469,-0.38476562,-0.10888672,-1.159668,-0.7324219,-1.4038086,14962.0,5193.0,-1506.0,-111.02234,67.62634,-168.98071
1770517857110,-0.9355469,-0.38476562,-0.10888672,-1.159668,-0.7324219,-1.4038086,14962.0,5193.0,-1506.0,-110.527954,67.5,-168.7555
1770517857122,-0.9355469,-0.38476562,-0.10888672,-1.159668,-0.7324219,-1.4038086,0.0,0.0,0.0,-110.527954,67.5,-168.7555
1770517857199,-0.90966797,-0.37402344,-0.11816406,-6.5307617,-4.272461,-0.24414062,14962.0,5192.0,-1534.0,-110.527954,67.5,-168.7555
1770517857210,-0.90966797,-0.37402344,-0.11816406,-6.5307617,-4.272461,-0.24414062,14962.0,5192.0,-1534.0,-109.940186,67.48352,-167.96448
1770517857221,-0.90966797,-0.37402344,-0.11816406,-6.5307617,-4.272461,-0.24414062,0.0,0.0,0.0,-109.940186,67.48352,-167.96448
1770517857298,-0.94628906,-0.3720703,-0.119628906,-7.507324,-0.9765625,-0.9765625,14938.0,5198.0,-1591.0,-109.940186,67.48352,-167.96448
1770517857310,-0.94628906,-0.3720703,-0.119628906,-7.507324,-0.9765625,-0.9765625,14938.0,5198.0,-1591.0,-109.87976,67.44507,-167.32727
1770517857321,-0.94628906,-0.3720703,-0.119628906,-7.507324,-0.9765625,-0.9765625,0.0,0.0,0.0,-109.87976,67.44507,-167.32727
1770517857398,-0.92041016,-0.3540039,-0.1328125,-5.92041,-0.30517578,-0.6713867,14893.0,5204.0,-1574.0,-109.87976,67.44507,-167.32727
1770517857410,-0.92041016,-0.3540039,-0.1328125,-5.92041,-0.30517578,-0.6713867,14893.0,5204.0,-1574.0,-110.14343,67.39014,-167.08557
1770517857421,-0.92041016,-0.3540039,-0.1328125,-5.92041,-0.30517578,-0.6713867,0.0,0.0,0.0,-110.14343,67.39014,-167.08557
1770517857498,-0.92089844,-0.35888672,-0.12890625,-3.7841797,-1.0986328,-1.159668,14862.0,5239.0,-1561.0,-110.14343,67.39014,-167.08557
1770517857509,-0.92089844,-0.35888672,-0.12890625,-3.7841797,-1.0986328,-1.159668,14862.0,5239.0,-1561.0,-110.30823,67.31323,-166.85486
1770517857521,-0.92089844,-0.35888672,-0.12890625,-3.7841797,-1.0986328,-1.159668,0.0,0.0,0.0,-110.30823,67.31323,-166.85486
1770517857597,-0.92285156,-0.3544922,-0.13867188,-1.159668,-0.24414062,-0.36621094,14776.0,5284.0,-1422.0,-110.30823,67.31323,-166.85486
1770517857609,-0.92285156,-0.3544922,-0.13867188,-1.159668,-0.24414062,-0.36621094,14776.0,5284.0,-1422.0,-110.2478,67.26929,-166.62415
1770517857620,-0.92285156,-0.3544922,-0.13867188,-1.159668,-0.24414062,-0.36621094,0.0,0.0,0.0,-110.2478,67.26929,-166.62415
1770517857697,-0.92041016,-0.37158203,-0.13330078,-0.8544922,-0.12207031,-0.24414062,14789.0,5256.0,-1470.0,-110.2478,67.26929,-166.62415
1770517857709,-0.92041016,-0.37158203,-0.13330078,-0.8544922,-0.12207031,-0.24414062,14789.0,5256.0,-1470.0,-110.38513,67.22534,-166.70105
1770517857720,-0.92041016,-0.37158203,-0.13330078,-0.8544922,-0.12207031,-0.24414062,0.0,0.0,0.0,-110.38513,67.22534,-166.70105
1770517857797,-0.9238281,-0.36132812,-0.1352539,-4.272461,0.18310547,0.12207031,14807.0,5245.0,-1504.0,-110.38513,67.22534,-166.70105
1770517857808,-0.9238281,-0.36132812,-0.1352539,-4.272461,0.18310547,0.12207031,14807.0,5245.0,-1504.0,-110.60486,67.1759,-166.70654
1770517857820,-0.9238281,-0.36132812,-0.1352539,-4.272461,0.18310547,0.12207031,0.0,0.0,0.0,-110.60486,67.1759,-166.70654
1770517857897,-0.9248047,-0.35205078,-0.13623047,-2.1972656,1.4038086,1.159668,14795.0,5240.0,-1523.0,-110.60486,67.1759,-166.70654
1770517857908,-0.9248047,-0.35205078,-0.13623047,-2.1972656,1.4038086,1.159668,14795.0,5240.0,-1523.0,-111.154175,67.22534,-167.01965
1770517857920,-0.9248047,-0.35205078,-0.13623047,-2.1972656,1.4038086,1.159668,0.0,0.0,0.0,-111.154175,67.22534,-167.01965
1770517857996,-0.9238281,-0.359375,-0.12841797,-2.0751953,-0.79345703,1.5869141,14789.0,5239.0,-1524.0,-111.154175,67.22534,-167.01965
1770517858008,-0.9238281,-0.359375,-0.12841797,-2.0751953,-0.79345703,1.5869141,14789.0,5239.0,-1524.0,-111.47278,67.34619,-167.27783
1770517858020,-0.9238281,-0.359375,-0.12841797,-2.0751953,-0.79345703,1.5869141,0.0,0.0,0.0,-111.47278,67.34619,-167.27783
1770517858096,-0.9291992,-0.3486328,-0.13427734,-4.760742,-1.0375977,1.0986328,14802.0,5236.0,-1518.0,-111.47278,67.34619,-167.27783
1770517858107,-0.9291992,-0.3486328,-0.13427734,-4.760742,-1.0375977,1.0986328,14802.0,5236.0,-1518.0,-111.59912,67.51099,-167.13501
1770517858119,-0.9291992,-0.3486328,-0.13427734,-4.760742,-1.0375977,1.0986328,0.0,0.0,0.0,-111.59912,67.51099,-167.13501
1770517858196,-0.9375,-0.35253906,-0.14111328,-4.0893555,-1.2207031,0.79345703,14768.0,5246.0,-1445.0,-111.59912,67.51099,-167.13501
1770517858207,-0.9375,-0.35253906,-0.14111328,-4.0893555,-1.2207031,0.79345703,14768.0,5246.0,-1445.0,-111.59912,67.70325,-166.78894
1770517858220,-0.9375,-0.35253906,-0.14111328,-4.0893555,-1.2207031,0.79345703,0.0,0.0,0.0,-111.59912,67.70325,-166.78894
1770517858295,-0.92626953,-0.33496094,-0.123535156,-0.91552734,-1.5869141,1.4038086,14788.0,5230.0,-1464.0,-111.59912,67.70325,-166.78894
1770517858307,-0.92626953,-0.33496094,-0.123535156,-0.91552734,-1.5869141,1.4038086,14788.0,5230.0,-1464.0,-111.67053,67.87903,-166.59668
1770517858318,-0.92626953,-0.33496094,-0.123535156,-0.91552734,-1.5869141,1.4038086,0.0,0.0,0.0,-111.67053,67.87903,-166.59668
1770517858395,-0.9301758,-0.35205078,-0.122558594,-0.79345703,-2.6245117,0.7324219,14774.0,5243.0,-1462.0,-111.67053,67.87903,-166.59668
1770517858407,-0.9301758,-0.35205078,-0.122558594,-0.79345703,-2.6245117,0.7324219,14774.0,5243.0,-1462.0,-111.23657,68.07678,-166.1737
1770517858418,-0.9301758,-0.35205078,-0.122558594,-0.79345703,-2.6245117,0.7324219,0.0,0.0,0.0,-111.23657,68.07678,-166.1737
1770517858495,-0.9379883,-0.34375,-0.12695312,-1.7700195,-1.4038086,1.4038086,14766.0,5229.0,-1484.0,-111.23657,68.07678,-166.1737
1770517858506,-0.9379883,-0.34375,-0.12695312,-1.7700195,-1.4038086,1.4038086,14766.0,5229.0,-1484.0,-110.91797,68.25256,-165.74524
1770517858518,-0.9379883,-0.34375,-0.12695312,-1.7700195,-1.4038086,1.4038086,0.0,0.0,0.0,-110.91797,68.25256,-165.74524
1770517858595,-0.93115234,-0.34179688,-0.12597656,-1.5869141,0.12207031,1.3427734,14747.0,5240.0,-1512.0,-110.91797,68.25256,-165.74524
1770517858606,-0.93115234,-0.34179688,-0.12597656,-1.5869141,0.12207031,1.3427734,14747.0,5240.0,-1512.0,-110.90698,68.3844,-165.68481
1770517858619,-0.93115234,-0.34179688,-0.12597656,-1.5869141,0.12207031,1.3427734,0.0,0.0,0.0,-110.90698,68.3844,-165.68481
1770517858694,-0.9326172,-0.3383789,-0.1171875,-1.7700195,-0.8544922,2.0141602,14733.0,5237.0,-1457.0,-110.90698,68.3844,-165.68481
1770517858707,-0.9326172,-0.3383789,-0.1171875,-1.7700195,-0.8544922,2.0141602,14733.0,5237.0,-1457.0,-111.02783,68.55469,-165.76172
1770517858717,-0.9326172,-0.3383789,-0.1171875,-1.7700195,-0.8544922,2.0141602,0.0,0.0,0.0,-111.02783,68.55469,-165.76172
1770517858794,-0.9375,-0.33251953,-0.115234375,-0.30517578,-1.953125,2.319336,14746.0,5206.0,-1483.0,-111.02783,68.55469,-165.76172
1770517858805,-0.9375,-0.33251953,-0.115234375,-0.30517578,-1.953125,2.319336,14746.0,5206.0,-1483.0,-110.83557,68.79089,-165.6134
1770517858817,-0.9375,-0.33251953,-0.115234375,-0.30517578,-1.953125,2.319336,0.0,0.0,0.0,-110.83557,68.79089,-165.6134
1770517858894,-0.93847656,-0.3359375,-0.11376953,0.0,0.0,1.2817383,14732.0,5227.0,-1444.0,-110.83557,68.79089,-165.6134
1770517858905,-0.93847656,-0.3359375,-0.11376953,0.0,0.0,1.2817383,14732.0,5227.0,-1444.0,-110.687256,68.983154,-165.59692
1770517858917,-0.93847656,-0.3359375,-0.11376953,0.0,0.0,1.2817383,0.0,0.0,0.0,-110.687256,68.983154,-165.59692
1770517858993,-0.93603516,-0.33642578,-0.11035156,-1.4648438,0.36621094,0.4272461,14658.0,5285.0,-1286.0,-110.687256,68.983154,-165.59692
1770517859005,-0.93603516,-0.33642578,-0.11035156,-1.4648438,0.36621094,0.4272461,14658.0,5285.0,-1286.0,-110.72571,69.04358,-165.73975
1770517859016,-0.93603516,-0.33642578,-0.11035156,-1.4648438,0.36621094,0.4272461,0.0,0.0,0.0,-110.72571,69.04358,-165.73975
1770517859093,-0.93847656,-0.34033203,-0.118652344,-2.5024414,0.48828125,-0.30517578,14685.0,5247.0,-1392.0,-110.72571,69.04358,-165.73975
1770517859105,-0.93847656,-0.34033203,-0.118652344,-2.5024414,0.48828125,-0.30517578,14685.0,5247.0,-1392.0,-110.87952,69.03259,-165.84961
1770517859119,-0.93847656,-0.34033203,-0.118652344,-2.5024414,0.48828125,-0.30517578,0.0,0.0,0.0,-110.87952,69.03259,-165.84961
1770517859193,-0.9345703,-0.34179688,-0.12597656,-1.8920898,2.319336,-1.4648438,14681.0,5245.0,-1383.0,-110.87952,69.03259,-165.84961
1770517859204,-0.9345703,-0.34179688,-0.12597656,-1.8920898,2.319336,-1.4648438,14681.0,5245.0,-1383.0,-111.19263,68.878784,-166.10779
1770517859216,-0.9345703,-0.34179688,-0.12597656,-1.8920898,2.319336,-1.4648438,0.0,0.0,0.0,-111.19263,68.878784,-166.10779
1770517859293,-0.93310547,-0.34375,-0.12646484,-3.540039,1.5258789,-0.91552734,14732.0,5236.0,-1445.0,-111.19263,68.878784,-166.10779
1770517859304,-0.93310547,-0.34375,-0.12646484,-3.540039,1.5258789,-0.91552734,14732.0,5236.0,-1445.0,-111.63757,68.67554,-166.48132
1770517859320,-0.93310547,-0.34375,-0.12646484,-3.540039,1.5258789,-0.91552734,0.0,0.0,0.0,-111.63757,68.67554,-166.48132
1770517859392,-0.9321289,-0.3388672,-0.1328125,-6.4086914,2.5024414,-0.61035156,14752.0,5242.0,-1457.0,-111.63757,68.67554,-166.48132
1770517859404,-0.9321289,-0.3388672,-0.1328125,-6.4086914,2.5024414,-0.61035156,14752.0,5242.0,-1457.0,-112.35718,68.532715,-166.88232
1770517859415,-0.9321289,-0.3388672,-0.1328125,-6.4086914,2.5024414,-0.61035156,0.0,0.0,0.0,-112.35718,68.532715,-166.88232
1770517859492,-0.9291992,-0.3388672,-0.1459961,-5.9814453,3.3569336,-0.6713867,14758.0,5255.0,-1424.0,-112.35718,68.532715,-166.88232
1770517859503,-0.9291992,-0.3388672,-0.1459961,-5.9814453,3.3569336,-0.6713867,14758.0,5255.0,-1424.0,-113.66455,68.32947,-167.7063
1770517859515,-0.9291992,-0.3388672,-0.1459961,-5.9814453,3.3569336,-0.6713867,0.0,0.0,0.0,-113.66455,68.32947,-167.7063
1770517859592,-0.9316406,-0.3461914,-0.14892578,-4.8828125,2.4414062,-0.5493164,14771.0,5281.0,-1350.0,-113.66455,68.32947,-167.7063
1770517859603,-0.9316406,-0.3461914,-0.14892578,-4.8828125,2.4414062,-0.5493164,14771.0,5281.0,-1350.0,-114.746704,68.10425,-168.46985
1770517859615,-0.9316406,-0.3461914,-0.14892578,-4.8828125,2.4414062,-0.5493164,0.0,0.0,0.0,-114.746704,68.10425,-168.46985
1770517859691,-0.9267578,-0.32080078,-0.15234375,0.061035156,3.4179688,-0.18310547,14778.0,5299.0,-1289.0,-114.746704,68.10425,-168.46985
1770517859703,-0.9267578,-0.32080078,-0.15234375,0.061035156,3.4179688,-0.18310547,14778.0,5299.0,-1289.0,-115.58716,67.977905,-169.10156
1770517859715,-0.9267578,-0.32080078,-0.15234375,0.061035156,3.4179688,-0.18310547,0.0,0.0,0.0,-115.58716,67.977905,-169.10156
1770517859791,-0.93359375,-0.3256836,-0.16601562,3.4179688,3.6010742,1.4038086,14739.0,5351.0,-1223.0,-115.58716,67.977905,-169.10156
1770517859803,-0.93359375,-0.3256836,-0.16601562,3.4179688,3.6010742,1.4038086,14739.0,5351.0,-1223.0,-115.982666,68.00537,-169.68933
1770517859814,-0.93359375,-0.3256836,-0.16601562,3.4179688,3.6010742,1.4038086,0.0,0.0,0.0,-115.982666,68.00537,-169.68933
1770517859891,-0.93359375,-0.3178711,-0.16210938,11.352539,5.6152344,2.6855469,14748.0,5359.0,-1197.0,-115.982666,68.00537,-169.68933
1770517859902,-0.93359375,-0.3178711,-0.16210938,11.352539,5.6152344,2.6855469,14748.0,5359.0,-1197.0,-116.66382,68.01636,-171.10657
1770517859914,-0.93359375,-0.3178711,-0.16210938,11.352539,5.6152344,2.6855469,0.0,0.0,0.0,-116.66382,68.01636,-171.10657
1770517859991,-0.94140625,-0.31689453,-0.15478516,17.578125,-7.019043,7.6904297,14793.0,5320.0,-1201.0,-116.66382,68.01636,-171.10657
1770517860002,-0.94140625,-0.31689453,-0.15478516,17.578125,-7.019043,7.6904297,14793.0,5320.0,-1201.0,-115.98816,68.35693,-172.02393
1770517860014,-0.94140625,-0.31689453,-0.15478516,17.578125,-7.019043,7.6904297,0.0,0.0,0.0,-115.98816,68.35693,-172.02393
1770517860090,-0.9355469,-0.30371094,-0.14160156,20.385742,6.3476562,3.4179688,14842.0,5259.0,-1259.0,-115.98816,68.35693,-172.02393
1770517860102,-0.9355469,-0.30371094,-0.14160156,20.385742,6.3476562,3.4179688,14842.0,5259.0,-1259.0,-114.46106,69.13147,-172.15027
1770517860113,-0.9355469,-0.30371094,-0.14160156,20.385742,6.3476562,3.4179688,0.0,0.0,0.0,-114.46106,69.13147,-172.15027
1770517860190,-0.9448242,-0.31396484,-0.14648438,18.371582,8.239746,2.8686523,14869.0,5194.0,-1366.0,-114.46106,69.13147,-172.15027
1770517860201,-0.9448242,-0.31396484,-0.14648438,18.371582,8.239746,2.8686523,14869.0,5194.0,-1366.0,-114.61487,69.09302,-174.39697
1770517860215,-0.9448242,-0.31396484,-0.14648438,18.371582,8.239746,2.8686523,0.0,0.0,0.0,-114.61487,69.09302,-174.39697
1770517860290,-0.9321289,-0.31982422,-0.14404297,16.113281,8.178711,1.8920898,14967.0,5092.0,-1471.0,-114.61487,69.09302,-174.39697
1770517860301,-0.9321289,-0.31982422,-0.14404297,16.113281,8.178711,1.8920898,14967.0,5092.0,-1471.0,-115.05432,68.99963,-176.75903
1770517860315,-0.9321289,-0.31982422,-0.14404297,16.113281,8.178711,1.8920898,0.0,0.0,0.0,-115.05432,68.99963,-176.75903
1770517860389,-0.93408203,-0.31640625,-0.1381836,15.075684,8.239746,1.2207031,15064.0,5025.0,-1597.0,-115.05432,68.99963,-176.75903
1770517860401,-0.93408203,-0.31640625,-0.1381836,15.075684,8.239746,1.2207031,15064.0,5025.0,-1597.0,-115.6311,68.79089,-179.1156
1770517860412,-0.93408203,-0.31640625,-0.1381836,15.075684,8.239746,1.2207031,0.0,0.0,0.0,-115.6311,68.79089,-179.1156
1770517860489,-0.9375,-0.32373047,-0.15771484,10.986328,8.605957,0.4272461,15140.0,4953.0,-1621.0,-115.6311,68.79089,-179.1156
1770517860501,-0.9375,-0.32373047,-0.15771484,10.986328,8.605957,0.4272461,15140.0,4953.0,-1621.0,-116.12549,68.49426,178.72559
1770517860512,-0.9375,-0.32373047,-0.15771484,10.986328,8.605957,0.4272461,0.0,0.0,0.0,-116.12549,68.49426,178.72559
1770517860589,-0.93408203,-0.3173828,-0.16113281,6.3476562,10.620117,0.0,15197.0,4902.0,-1592.0,-116.12549,68.49426,178.72559
1770517860600,-0.93408203,-0.3173828,-0.16113281,6.3476562,10.620117,0.0,15197.0,4902.0,-1592.0,-117.438354,68.115234,176.34705
1770517860612,-0.93408203,-0.3173828,-0.16113281,6.3476562,10.620117,0.0,0.0,0.0,0.0,-117.438354,68.115234,176.34705
1770517860689,-0.9301758,-0.32666016,-0.1743164,4.699707,6.652832,0.061035156,15297.0,4879.0,-1611.0,-117.438354,68.115234,176.34705
1770517860700,-0.9301758,-0.32666016,-0.1743164,4.699707,6.652832,0.061035156,15297.0,4879.0,-1611.0,-118.66333,67.69226,174.18274
1770517860713,-0.9301758,-0.32666016,-0.1743164,4.699707,6.652832,0.061035156,0.0,0.0,0.0,-118.66333,67.69226,174.18274
1770517860788,-0.9272461,-0.33447266,-0.16796875,5.554199,8.117676,-1.4038086,15387.0,4852.0,-1568.0,-118.66333,67.69226,174.18274
1770517860800,-0.9272461,-0.33447266,-0.16796875,5.554199,8.117676,-1.4038086,15387.0,4852.0,-1568.0,-119.5697,67.28027,172.51831
1770517860812,-0.9272461,-0.33447266,-0.16796875,5.554199,8.117676,-1.4038086,0.0,0.0,0.0,-119.5697,67.28027,172.51831
1770517860888,-0.9140625,-0.35546875,-0.1616211,7.2021484,1.953125,-0.12207031,15411.0,4894.0,-1465.0,-119.5697,67.28027,172.51831
1770517860900,-0.9140625,-0.35546875,-0.1616211,7.2021484,1.953125,-0.12207031,15411.0,4894.0,-1465.0,-119.33899,67.10449,171.77673
1770517860911,-0.9140625,-0.35546875,-0.1616211,7.2021484,1.953125,-0.12207031,0.0,0.0,0.0,-119.33899,67.10449,171.77673
1770517860988,-0.9482422,-0.34814453,-0.15917969,0.48828125,-1.0986328,2.8076172,15450.0,4886.0,-1517.0,-119.33899,67.10449,171.77673
1770517860999,-0.9482422,-0.34814453,-0.15917969,0.48828125,-1.0986328,2.8076172,15450.0,4886.0,-1517.0,-119.20715,67.109985,171.2439
1770517861012,-0.9482422,-0.34814453,-0.15917969,0.48828125,-1.0986328,2.8076172,0.0,0.0,0.0,-119.20715,67.109985,171.2439
1770517861087,-0.90722656,-0.37158203,-0.17041016,2.4414062,-2.380371,0.91552734,15444.0,4928.0,-1482.0,-119.20715,67.109985,171.2439
1770517861099,-0.90722656,-0.37158203,-0.17041016,2.4414062,-2.380371,0.91552734,15444.0,4928.0,-1482.0,-118.4491,67.45056,171.54053
1770517861111,-0.90722656,-0.37158203,-0.17041016,2.4414062,-2.380371,0.91552734,0.0,0.0,0.0,-118.4491,67.45056,171.54053
1770517861187,-0.9326172,-0.3720703,-0.16894531,3.8452148,1.7700195,-2.9296875,15460.0,4953.0,-1519.0,-118.4491,67.45056,171.54053
1770517861199,-0.9326172,-0.3720703,-0.16894531,3.8452148,1.7700195,-2.9296875,15460.0,4953.0,-1519.0,-117.718506,67.214355,171.67786
1770517861211,-0.9326172,-0.3720703,-0.16894531,3.8452148,1.7700195,-2.9296875,0.0,0.0,0.0,-117.718506,67.214355,171.67786
1770517861287,-0.91015625,-0.3618164,-0.16259766,4.272461,-0.9765625,-1.5869141,15458.0,4943.0,-1538.0,-117.718506,67.214355,171.67786
1770517861298,-0.91015625,-0.3618164,-0.16259766,4.272461,-0.9765625,-1.5869141,15458.0,4943.0,-1538.0,-117.09778,66.884766,171.66138
1770517861310,-0.91015625,-0.3618164,-0.16259766,4.272461,-0.9765625,-1.5869141,0.0,0.0,0.0,-117.09778,66.884766,171.66138
1770517861387,-0.92089844,-0.37353516,-0.14648438,-0.18310547,-14.831543,3.90625,15465.0,4949.0,-1546.0,-117.09778,66.884766,171.66138
1770517861398,-0.92089844,-0.37353516,-0.14648438,-0.18310547,-14.831543,3.90625,15465.0,4949.0,-1546.0,-115.00488,67.32422,173.51257
1770517861417,-0.92089844,-0.37353516,-0.14648438,-0.18310547,-14.831543,3.90625,0.0,0.0,0.0,-115.00488,67.32422,173.51257
1770517861486,-0.9199219,-0.3544922,-0.1328125,-0.12207031,-4.9438477,-0.061035156,15433.0,4954.0,-1629.0,-115.00488,67.32422,173.51257
1770517861498,-0.9199219,-0.3544922,-0.1328125,-0.12207031,-4.9438477,-0.061035156,15433.0,4954.0,-1629.0,-113.02734,67.8241,175.50659
1770517861513,-0.9199219,-0.3544922,-0.1328125,-0.12207031,-4.9438477,-0.061035156,0.0,0.0,0.0,-113.02734,67.8241,175.50659
1770517861586,-0.9277344,-0.359375,-0.13183594,-0.9765625,-0.6713867,-1.4648438,15383.0,4938.0,-1727.0,-113.02734,67.8241,175.50659
1770517861598,-0.9277344,-0.359375,-0.13183594,-0.9765625,-0.6713867,-1.4648438,15383.0,4938.0,-1727.0,-112.1759,67.8241,176.37451
1770517861609,-0.9277344,-0.359375,-0.13183594,-0.9765625,-0.6713867,-1.4648438,0.0,0.0,0.0,-112.1759,67.8241,176.37451
1770517861686,-0.9272461,-0.35253906,-0.1430664,-2.380371,3.7841797,-0.24414062,15358.0,4927.0,-1799.0,-112.1759,67.8241,176.37451
1770517861697,-0.9272461,-0.35253906,-0.1430664,-2.380371,3.7841797,-0.24414062,15358.0,4927.0,-1799.0,-112.65381,67.664795,175.96802
1770517861709,-0.9272461,-0.35253906,-0.1430664,-2.380371,3.7841797,-0.24414062,0.0,0.0,0.0,-112.65381,67.664795,175.96802
1770517861785,-0.93115234,-0.359375,-0.14501953,0.5493164,0.36621094,0.7324219,15354.0,4929.0,-1805.0,-112.65381,67.664795,175.96802
1770517861797,-0.93115234,-0.359375,-0.14501953,0.5493164,0.36621094,0.7324219,15354.0,4929.0,-1805.0,-113.07129,67.58789,175.38574
1770517861808,-0.93115234,-0.359375,-0.14501953,0.5493164,0.36621094,0.7324219,0.0,0.0,0.0,-113.07129,67.58789,175.38574
1770517861885,-0.9145508,-0.3461914,-0.12548828,0.36621094,2.1362305,0.5493164,15344.0,4935.0,-1770.0,-113.07129,67.58789,175.38574
1770517861897,-0.9145508,-0.3461914,-0.12548828,0.36621094,2.1362305,0.5493164,15344.0,4935.0,-1770.0,-113.28552,67.53296,174.86389
1770517861908,-0.9145508,-0.3461914,-0.12548828,0.36621094,2.1362305,0.5493164,0.0,0.0,0.0,-113.28552,67.53296,174.86389
1770517861985,-0.9272461,-0.34570312,-0.13378906,-0.5493164,-0.36621094,2.1362305,15353.0,4918.0,-1763.0,-113.28552,67.53296,174.86389
1770517861996,-0.9272461,-0.34570312,-0.13378906,-0.5493164,-0.36621094,2.1362305,15353.0,4918.0,-1763.0,-113.3844,67.664795,174.55078
1770517862008,-0.9272461,-0.34570312,-0.13378906,-0.5493164,-0.36621094,2.1362305,0.0,0.0,0.0,-113.3844,67.664795,174.55078
1770517862085,-0.9321289,-0.33691406,-0.12890625,-0.9765625,-2.1362305,2.8076172,15359.0,4889.0,-1782.0,-113.3844,67.664795,174.55078
1770517862096,-0.9321289,-0.33691406,-0.12890625,-0.9765625,-2.1362305,2.8076172,15359.0,4889.0,-1782.0,-113.10974,67.98889,174.6936
1770517862107,-0.9321289,-0.33691406,-0.12890625,-0.9765625,-2.1362305,2.8076172,0.0,0.0,0.0,-113.10974,67.98889,174.6936
1770517862184,-0.9350586,-0.3334961,-0.12695312,-2.1972656,-3.0517578,2.380371,15312.0,4885.0,-1758.0,-113.10974,67.98889,174.6936
1770517862196,-0.9350586,-0.3334961,-0.12695312,-2.1972656,-3.0517578,2.380371,15312.0,4885.0,-1758.0,-112.736206,68.37891,175.13855
1770517862208,-0.9350586,-0.3334961,-0.12695312,-2.1972656,-3.0517578,2.380371,0.0,0.0,0.0,-112.736206,68.37891,175.13855
1770517862284,-0.94140625,-0.33398438,-0.13085938,-1.5869141,-2.8076172,1.4038086,15304.0,4847.0,-1794.0,-112.736206,68.37891,175.13855
1770517862296,-0.94140625,-0.33398438,-0.13085938,-1.5869141,-2.8076172,1.4038086,15304.0,4847.0,-1794.0,-112.27478,68.65906,175.6659
1770517862307,-0.94140625,-0.33398438,-0.13085938,-1.5869141,-2.8076172,1.4038086,0.0,0.0,0.0,-112.27478,68.65906,175.6659
1770517862384,-0.95703125,-0.32861328,-0.119140625,-2.6855469,-1.4648438,0.18310547,15294.0,4832.0,-1821.0,-112.27478,68.65906,175.6659
1770517862395,-0.95703125,-0.32861328,-0.119140625,-2.6855469,-1.4648438,0.18310547,15294.0,4832.0,-1821.0,-111.934204,68.81836,176.12732
1770517862407,-0.95703125,-0.32861328,-0.119140625,-2.6855469,-1.4648438,0.18310547,0.0,0.0,0.0,-111.934204,68.81836,176.12732
1770517862483,-0.9223633,-0.3310547,-0.119628906,-3.90625,-2.4414062,-1.5258789,15248.0,4824.0,-1866.0,-111.934204,68.81836,176.12732
1770517862495,-0.9223633,-0.3310547,-0.119628906,-3.90625,-2.4414062,-1.5258789,15248.0,4824.0,-1866.0,-111.40137,68.92822,176.93481
1770517862507,-0.9223633,-0.3310547,-0.119628906,-3.90625,-2.4414062,-1.5258789,0.0,0.0,0.0,-111.40137,68.92822,176.93481
1770517862583,-0.9448242,-0.3408203,-0.1171875,-5.79834,-0.7324219,-2.0751953,15225.0,4825.0,-1891.0,-111.40137,68.92822,176.93481
1770517862595,-0.9448242,-0.3408203,-0.1171875,-5.79834,-0.7324219,-2.0751953,15225.0,4825.0,-1891.0,-111.500244,68.6261,177.11609
1770517862606,-0.9448242,-0.3408203,-0.1171875,-5.79834,-0.7324219,-2.0751953,0.0,0.0,0.0,-111.500244,68.6261,177.11609
1770517862683,-0.92871094,-0.34472656,-0.12402344,-8.972168,-3.7231445,-1.5869141,15171.0,4832.0,-1856.0,-111.500244,68.6261,177.11609
1770517862694,-0.92871094,-0.34472656,-0.12402344,-8.972168,-3.7231445,-1.5869141,15171.0,4832.0,-1856.0,-111.44531,68.5437,177.79175
1770517862707,-0.92871094,-0.34472656,-0.12402344,-8.972168,-3.7231445,-1.5869141,0.0,0.0,0.0,-111.44531,68.5437,177.79175
1770517862783,-0.9277344,-0.34765625,-0.12890625,-13.85498,-5.859375,-0.7324219,15159.0,4870.0,-1831.0,-111.44531,68.5437,177.79175
1770517862794,-0.9277344,-0.34765625,-0.12890625,-13.85498,-5.859375,-0.7324219,15159.0,4870.0,-1831.0,-111.25305,68.59314,179.08813
1770517862805,-0.9277344,-0.34765625,-0.12890625,-13.85498,-5.859375,-0.7324219,0.0,0.0,0.0,-111.25305,68.59314,179.08813
1770517862882,-0.93652344,-0.33496094,-0.13085938,-14.709473,-5.3100586,-0.7324219,15108.0,4891.0,-1815.0,-111.25305,68.59314,179.08813
1770517862894,-0.93652344,-0.33496094,-0.13085938,-14.709473,-5.3100586,-0.7324219,15108.0,4891.0,-1815.0,-110.99487,68.76892,-179.16504
1770517862906,-0.93652344,-0.33496094,-0.13085938,-14.709473,-5.3100586,-0.7324219,0.0,0.0,0.0,-110.99487,68.76892,-179.16504
1770517862982,-0.92822266,-0.32958984,-0.123046875,-14.709473,-4.8828125,0.061035156,15047.0,4950.0,-1811.0,-110.99487,68.76892,-179.16504
1770517862993,-0.92822266,-0.32958984,-0.123046875,-14.709473,-4.8828125,0.061035156,15047.0,4950.0,-1811.0,-111.16516,68.89526,-177.85217
1770517863005,-0.92822266,-0.32958984,-0.123046875,-14.709473,-4.8828125,0.061035156,0.0,0.0,0.0,-111.16516,68.89526,-177.85217
1770517863082,-0.9321289,-0.32421875,-0.12011719,-14.160156,-3.0517578,0.4272461,15003.0,5002.0,-1786.0,-111.16516,68.89526,-177.85217
1770517863093,-0.9321289,-0.32421875,-0.12011719,-14.160156,-3.0517578,0.4272461,15003.0,5002.0,-1786.0,-111.57715,69.06006,-176.8689
1770517863105,-0.9321289,-0.32421875,-0.12011719,-14.160156,-3.0517578,0.4272461,0.0,0.0,0.0,-111.57715,69.06006,-176.8689
1770517863181,-0.9399414,-0.3125,-0.1303711,-10.7421875,-0.9765625,0.36621094,14982.0,5053.0,-1745.0,-111.57715,69.06006,-176.8689
1770517863193,-0.9399414,-0.3125,-0.1303711,-10.7421875,-0.9765625,0.36621094,14982.0,5053.0,-1745.0,-112.31323,69.16992,-176.41846
1770517863205,-0.9399414,-0.3125,-0.1303711,-10.7421875,-0.9765625,0.36621094,0.0,0.0,0.0,-112.31323,69.16992,-176.41846
1770517863281,-0.9404297,-0.31201172,-0.12890625,-4.638672,1.5258789,-0.061035156,14952.0,5098.0,-1674.0,-112.31323,69.16992,-176.41846
1770517863293,-0.9404297,-0.31201172,-0.12890625,-4.638672,1.5258789,-0.061035156,14952.0,5098.0,-1674.0,-113.082275,69.16992,-176.52283
1770517863304,-0.9404297,-0.31201172,-0.12890625,-4.638672,1.5258789,-0.061035156,0.0,0.0,0.0,-113.082275,69.16992,-176.52283
1770517863381,-0.93896484,-0.3149414,-0.13964844,0.061035156,4.5166016,1.0986328,14953.0,5127.0,-1619.0,-113.082275,69.16992,-176.52283
1770517863392,-0.93896484,-0.3149414,-0.13964844,0.061035156,4.5166016,1.0986328,14953.0,5127.0,-1619.0,-114.1095,69.11499,-177.46216
1770517863406,-0.93896484,-0.3149414,-0.13964844,0.061035156,4.5166016,1.0986328,0.0,0.0,0.0,-114.1095,69.11499,-177.46216
1770517863481,-0.9379883,-0.30810547,-0.1430664,4.699707,4.699707,2.1362305,14962.0,5134.0,-1579.0,-114.1095,69.11499,-177.46216
1770517863492,-0.9379883,-0.30810547,-0.1430664,4.699707,4.699707,2.1362305,14962.0,5134.0,-1579.0,-115.10925,69.1095,-178.85193
1770517863504,-0.9379883,-0.30810547,-0.1430664,4.699707,4.699707,2.1362305,0.0,0.0,0.0,-115.10925,69.1095,-178.85193
1770517863580,-0.94091797,-0.30322266,-0.1303711,9.033203,4.638672,2.5024414,15005.0,5130.0,-1552.0,-115.10925,69.1095,-178.85193
1770517863592,-0.94091797,-0.30322266,-0.1303711,9.033203,4.638672,2.5024414,15005.0,5130.0,-1552.0,-115.2301,69.296265,-179.7638
1770517863610,-0.94091797,-0.30322266,-0.1303711,9.033203,4.638672,2.5024414,0.0,0.0,0.0,-115.2301,69.296265,-179.7638
1770517863680,-0.9448242,-0.3154297,-0.14111328,11.169434,7.6904297,2.380371,15039.0,5101.0,-1584.0,-115.2301,69.296265,-179.7638
1770517863691,-0.9448242,-0.3154297,-0.14111328,11.169434,7.6904297,2.380371,15039.0,5101.0,-1584.0,-115.686035,69.32373,178.58826
1770517863703,-0.9448242,-0.3154297,-0.14111328,11.169434,7.6904297,2.380371,0.0,0.0,0.0,-115.686035,69.32373,178.58826
1770517863780,-0.93408203,-0.3125,-0.15478516,11.657715,7.446289,2.9907227,15063.0,5053.0,-1600.0,-115.686035,69.32373,178.58826
1770517863791,-0.93408203,-0.3125,-0.15478516,11.657715,7.446289,2.9907227,15063.0,5053.0,-1600.0,-116.71875,69.20288,176.10535
1770517863803,-0.93408203,-0.3125,-0.15478516,11.657715,7.446289,2.9907227,0.0,0.0,0.0,-116.71875,69.20288,176.10535
1770517863880,-0.94433594,-0.3125,-0.15283203,13.549805,3.90625,2.4414062,15142.0,4984.0,-1612.0,-116.71875,69.20288,176.10535
1770517863891,-0.94433594,-0.3125,-0.15283203,13.549805,3.90625,2.4414062,15142.0,4984.0,-1612.0,-116.96045,69.24133,174.35303
1770517863904,-0.94433594,-0.3125,-0.15283203,13.549805,3.90625,2.4414062,0.0,0.0,0.0,-116.96045,69.24133,174.35303
1770517863979,-0.9326172,-0.3173828,-0.14257812,13.244629,4.5776367,2.1362305,15216.0,4918.0,-1677.0,-116.96045,69.24133,174.35303
1770517863991,-0.9326172,-0.3173828,-0.14257812,13.244629,4.5776367,2.1362305,15216.0,4918.0,-1677.0,-116.78467,69.25232,172.97424
1770517864002,-0.9326172,-0.3173828,-0.14257812,13.244629,4.5776367,2.1362305,0.0,0.0,0.0,-116.78467,69.25232,172.97424
1770517864079,-0.9375,-0.32226562,-0.140625,9.521484,0.9765625,2.1972656,15267.0,4865.0,-1685.0,-116.78467,69.25232,172.97424
1770517864090,-0.9375,-0.32226562,-0.140625,9.521484,0.9765625,2.1972656,15267.0,4865.0,-1685.0,-116.520996,69.30176,171.82617
1770517864102,-0.9375,-0.32226562,-0.140625,9.521484,0.9765625,2.1972656,0.0,0.0,0.0,-116.520996,69.30176,171.82617
1770517864179,-0.93408203,-0.32226562,-0.14697266,5.004883,0.0,1.2207031,15281.0,4825.0,-1705.0,-116.520996,69.30176,171.82617
1770517864190,-0.93408203,-0.32226562,-0.14697266,5.004883,0.0,1.2207031,15281.0,4825.0,-1705.0,-116.04309,69.41162,171.37573
1770517864201,-0.93408203,-0.32226562,-0.14697266,5.004883,0.0,1.2207031,0.0,0.0,0.0,-116.04309,69.41162,171.37573
1770517864278,-0.93652344,-0.31982422,-0.13623047,2.319336,-1.4038086,0.36621094,15287.0,4795.0,-1700.0,-116.04309,69.41162,171.37573
1770517864290,-0.93652344,-0.31982422,-0.13623047,2.319336,-1.4038086,0.36621094,15287.0,4795.0,-1700.0,-115.29053,69.53247,171.6394
1770517864301,-0.93652344,-0.31982422,-0.13623047,2.319336,-1.4038086,0.36621094,0.0,0.0,0.0,-115.29053,69.53247,171.6394
1770517864378,-0.9433594,-0.32470703,-0.14111328,0.6713867,-0.061035156,-0.24414062,15247.0,4780.0,-1649.0,-115.29053,69.53247,171.6394
1770517864389,-0.9433594,-0.32470703,-0.14111328,0.6713867,-0.061035156,-0.24414062,15247.0,4780.0,-1649.0,-114.9884,69.53247,171.71631
1770517864401,-0.9433594,-0.32470703,-0.14111328,0.6713867,-0.061035156,-0.24414062,0.0,0.0,0.0,-114.9884,69.53247,171.71631
1770517864478,-0.94091797,-0.32128906,-0.14404297,-1.7700195,-1.5258789,-0.36621094,15267.0,4758.0,-1789.0,-114.9884,69.53247,171.71631
1770517864489,-0.94091797,-0.32128906,-0.14404297,-1.7700195,-1.5258789,-0.36621094,15267.0,4758.0,-1789.0,-114.76318,69.53247,171.92505
1770517864501,-0.94091797,-0.32128906,-0.14404297,-1.7700195,-1.5258789,-0.36621094,0.0,0.0,0.0,-114.76318,69.53247,171.92505
1770517864577,-0.9379883,-0.31591797,-0.13330078,-3.2958984,-1.7089844,-0.6713867,15273.0,4756.0,-1791.0,-114.76318,69.53247,171.92505
1770517864589,-0.9379883,-0.31591797,-0.13330078,-3.2958984,-1.7089844,-0.6713867,15273.0,4756.0,-1791.0,-114.52698,69.537964,172.3645
1770517864601,-0.9379883,-0.31591797,-0.13330078,-3.2958984,-1.7089844,-0.6713867,0.0,0.0,0.0,-114.52698,69.537964,172.3645
1770517864677,-0.9399414,-0.31884766,-0.1328125,-2.6245117,-0.24414062,-1.0375977,15295.0,4739.0,-1876.0,-114.52698,69.537964,172.3645
1770517864689,-0.9399414,-0.31884766,-0.1328125,-2.6245117,-0.24414062,-1.0375977,15295.0,4739.0,-1876.0,-114.38965,69.49951,172.72156
1770517864700,-0.9399414,-0.31884766,-0.1328125,-2.6245117,-0.24414062,-1.0375977,0.0,0.0,0.0,-114.38965,69.49951,172.72156
1770517864777,-0.93896484,-0.3203125,-0.14013672,-1.0375977,-0.30517578,-1.2817383,15283.0,4752.0,-1869.0,-114.38965,69.49951,172.72156
1770517864788,-0.93896484,-0.3203125,-0.14013672,-1.0375977,-0.30517578,-1.2817383,15283.0,4752.0,-1869.0,-114.21936,69.417114,172.99622
1770517864800,-0.93896484,-0.3203125,-0.14013672,-1.0375977,-0.30517578,-1.2817383,0.0,0.0,0.0,-114.21936,69.417114,172.99622
1770517864877,-0.9423828,-0.32714844,-0.13232422,-0.36621094,0.36621094,-1.6479492,15262.0,4767.0,-1909.0,-114.21936,69.417114,172.99622
1770517864888,-0.9423828,-0.32714844,-0.13232422,-0.36621094,0.36621094,-1.6479492,15262.0,4767.0,-1909.0,-113.97217,69.279785,173.17749
1770517864900,-0.9423828,-0.32714844,-0.13232422,-0.36621094,0.36621094,-1.6479492,0.0,0.0,0.0,-113.97217,69.279785,173.17749
1770517864976,-0.9321289,-0.328125,-0.14746094,-1.3427734,-0.18310547,-0.48828125,15265.0,4776.0,-1903.0,-113.97217,69.279785,173.17749
1770517864988,-0.9321289,-0.328125,-0.14746094,-1.3427734,-0.18310547,-0.48828125,15265.0,4776.0,-1903.0,-114.04358,69.14795,173.11707
1770517865000,-0.9321289,-0.328125,-0.14746094,-1.3427734,-0.18310547,-0.48828125,0.0,0.0,0.0,-114.04358,69.14795,173.11707
1770517865076,-0.9375,-0.32226562,-0.12792969,2.0141602,-0.4272461,-0.9765625,15256.0,4799.0,-1912.0,-114.04358,69.14795,173.11707
1770517865088,-0.9375,-0.32226562,-0.12792969,2.0141602,-0.4272461,-0.9765625,15256.0,4799.0,-1912.0,-113.67554,69.09302,173.30933
1770517865099,-0.9375,-0.32226562,-0.12792969,2.0141602,-0.4272461,-0.9765625,0.0,0.0,0.0,-113.67554,69.09302,173.30933
1770517865176,-0.9321289,-0.3256836,-0.1171875,-1.7700195,1.953125,-0.24414062,15254.0,4796.0,-1933.0,-113.67554,69.09302,173.30933
1770517865187,-0.9321289,-0.3256836,-0.1171875,-1.7700195,1.953125,-0.24414062,15254.0,4796.0,-1933.0,-113.741455,69.0271,173.15002
1770517865199,-0.9321289,-0.3256836,-0.1171875,-1.7700195,1.953125,-0.24414062,0.0,0.0,0.0,-113.741455,69.0271,173.15002
1770517865276,-0.9370117,-0.33544922,-0.14208984,-5.432129,0.61035156,-0.30517578,15233.0,4802.0,-1929.0,-113.741455,69.0271,173.15002
1770517865287,-0.9370117,-0.33544922,-0.14208984,-5.432129,0.61035156,-0.30517578,15233.0,4802.0,-1929.0,-114.16443,68.92273,172.79846
1770517865306,-0.9370117,-0.33544922,-0.14208984,-5.432129,0.61035156,-0.30517578,0.0,0.0,0.0,-114.16443,68.92273,172.79846
1770517865375,-0.92089844,-0.33789062,-0.123535156,-10.437012,-2.2583008,-1.0986328,15244.0,4815.0,-1886.0,-114.16443,68.92273,172.79846
1770517865387,-0.92089844,-0.33789062,-0.123535156,-10.437012,-2.2583008,-1.0986328,15244.0,4815.0,-1886.0,-114.51599,68.862305,173.0841
1770517865398,-0.92089844,-0.33789062,-0.123535156,-10.437012,-2.2583008,-1.0986328,0.0,0.0,0.0,-114.51599,68.862305,173.0841
1770517865475,-0.94433594,-0.34179688,-0.15039062,-15.808105,-9.887695,0.8544922,15234.0,4874.0,-1845.0,-114.51599,68.862305,173.0841
1770517865486,-0.94433594,-0.34179688,-0.15039062,-15.808105,-9.887695,0.8544922,15234.0,4874.0,-1845.0,-114.25232,69.13147,174.74854
1770517865498,-0.94433594,-0.34179688,-0.15039062,-15.808105,-9.887695,0.8544922,0.0,0.0,0.0,-114.25232,69.13147,174.74854
1770517865575,-0.9326172,-0.3154297,-0.13134766,-16.235352,-10.437012,-1.2817383,15212.0,4934.0,-1807.0,-114.25232,69.13147,174.74854
1770517865586,-0.9326172,-0.3154297,-0.13134766,-16.235352,-10.437012,-1.2817383,15212.0,4934.0,-1807.0,-113.07678,69.51599,177.64893
1770517865598,-0.9326172,-0.3154297,-0.13134766,-16.235352,-10.437012,-1.2817383,0.0,0.0,0.0,-113.07678,69.51599,177.64893
1770517865674,-0.9472656,-0.3154297,-0.1171875,-14.282227,-3.90625,-4.5776367,15127.0,5007.0,-1765.0,-113.07678,69.51599,177.64893
1770517865686,-0.9472656,-0.3154297,-0.1171875,-14.282227,-3.90625,-4.5776367,15127.0,5007.0,-1765.0,-112.74719,69.417114,179.599
1770517865699,-0.9472656,-0.3154297,-0.1171875,-14.282227,-3.90625,-4.5776367,0.0,0.0,0.0,-112.74719,69.417114,179.599
1770517865774,-0.93652344,-0.32617188,-0.12939453,-15.808105,-0.5493164,-5.004883,15052.0,5097.0,-1742.0,-112.74719,69.417114,179.599
1770517865786,-0.93652344,-0.32617188,-0.12939453,-15.808105,-0.5493164,-5.004883,15052.0,5097.0,-1742.0,-112.93396,69.09851,-179.14307
1770517865799,-0.93652344,-0.32617188,-0.12939453,-15.808105,-0.5493164,-5.004883,0.0,0.0,0.0,-112.93396,69.09851,-179.14307
1770517865874,-0.93603516,-0.328125,-0.13769531,-13.305664,0.0,-4.4555664,14987.0,5171.0,-1671.0,-112.93396,69.09851,-179.14307
1770517865885,-0.93603516,-0.328125,-0.13769531,-13.305664,0.0,-4.4555664,14987.0,5171.0,-1671.0,-113.741455,68.69751,-178.58276
1770517865901,-0.93603516,-0.328125,-0.13769531,-13.305664,0.0,-4.4555664,0.0,0.0,0.0,-113.741455,68.69751,-178.58276
1770517865974,-0.9267578,-0.33544922,-0.14208984,-10.131836,-0.7324219,-3.479004,14950.0,5258.0,-1598.0,-113.741455,68.69751,-178.58276
1770517865985,-0.9267578,-0.33544922,-0.14208984,-10.131836,-0.7324219,-3.479004,14950.0,5258.0,-1598.0,-114.29077,68.38989,-178.08289
1770517865996,-0.9267578,-0.33544922,-0.14208984,-10.131836,-0.7324219,-3.479004,0.0,0.0,0.0,-114.29077,68.38989,-178.08289
1770517866073,-0.92822266,-0.34472656,-0.13867188,-8.422852,-1.7089844,-2.5634766,14915.0,5321.0,-1503.0,-114.29077,68.38989,-178.08289
1770517866085,-0.92822266,-0.34472656,-0.13867188,-8.422852,-1.7089844,-2.5634766,14915.0,5321.0,-1503.0,-114.44458,68.23059,-177.36877
1770517866096,-0.92822266,-0.34472656,-0.13867188,-8.422852,-1.7089844,-2.5634766,0.0,0.0,0.0,-114.44458,68.23059,-177.36877
1770517866173,-0.91748047,-0.35498047,-0.13769531,-4.3945312,-4.8828125,-3.6010742,14871.0,5400.0,-1449.0,-114.44458,68.23059,-177.36877
1770517866184,-0.91748047,-0.35498047,-0.13769531,-4.3945312,-4.8828125,-3.6010742,14871.0,5400.0,-1449.0,-114.04907,68.065796,-176.35803
1770517866196,-0.91748047,-0.35498047,-0.13769531,-4.3945312,-4.8828125,-3.6010742,0.0,0.0,0.0,-114.04907,68.065796,-176.35803
1770517866273,-0.91748047,-0.39794922,-0.11425781,-6.164551,-5.92041,-7.3242188,14848.0,5480.0,-1361.0,-114.04907,68.065796,-176.35803
1770517866284,-0.91748047,-0.39794922,-0.11425781,-6.164551,-5.92041,-7.3242188,14848.0,5480.0,-1361.0,-112.29126,67.785645,-174.12231
1770517866296,-0.91748047,-0.39794922,-0.11425781,-6.164551,-5.92041,-7.3242188,0.0,0.0,0.0,-112.29126,67.785645,-174.12231
1770517866372,-0.92871094,-0.3618164,-0.16259766,-17.700195,1.3427734,-2.1972656,14813.0,5502.0,-1449.0,-112.29126,67.785645,-174.12231
1770517866384,-0.92871094,-0.3618164,-0.16259766,-17.700195,1.3427734,-2.1972656,14813.0,5502.0,-1449.0,-112.77466,67.335205,-173.55652
1770517866395,-0.92871094,-0.3618164,-0.16259766,-17.700195,1.3427734,-2.1972656,0.0,0.0,0.0,-112.77466,67.335205,-173.55652
1770517866472,-0.9067383,-0.39648438,-0.15039062,-4.5776367,-0.36621094,-5.6762695,14775.0,5556.0,-1434.0,-112.77466,67.335205,-173.55652
1770517866484,-0.9067383,-0.39648438,-0.15039062,-4.5776367,-0.36621094,-5.6762695,14775.0,5556.0,-1434.0,-113.25806,66.884766,-173.0896
1770517866500,-0.9067383,-0.39648438,-0.15039062,-4.5776367,-0.36621094,-5.6762695,0.0,0.0,0.0,-113.25806,66.884766,-173.0896
1770517866572,-0.9033203,-0.39746094,-0.1430664,0.6713867,-0.12207031,-4.1503906,14715.0,5655.0,-1299.0,-113.25806,66.884766,-173.0896
1770517866583,-0.9033203,-0.39746094,-0.1430664,0.6713867,-0.12207031,-4.1503906,14715.0,5655.0,-1299.0,-112.88452,66.35742,-172.80396
1770517866595,-0.9033203,-0.39746094,-0.1430664,0.6713867,-0.12207031,-4.1503906,0.0,0.0,0.0,-112.88452,66.35742,-172.80396
1770517866672,-0.9067383,-0.38867188,-0.13671875,0.0,-0.30517578,-0.4272461,14685.0,5680.0,-1350.0,-112.88452,66.35742,-172.80396
1770517866683,-0.9067383,-0.38867188,-0.13671875,0.0,-0.30517578,-0.4272461,14685.0,5680.0,-1350.0,-112.302246,66.0553,-172.50732
1770517866695,-0.9067383,-0.38867188,-0.13671875,0.0,-0.30517578,-0.4272461,0.0,0.0,0.0,-112.302246,66.0553,-172.50732
1770517866771,-0.9121094,-0.4013672,-0.140625,-5.7373047,-0.79345703,2.0751953,14634.0,5669.0,-1401.0,-112.302246,66.0553,-172.50732
1770517866783,-0.9121094,-0.4013672,-0.140625,-5.7373047,-0.79345703,2.0751953,14634.0,5669.0,-1401.0,-112.41211,66.14319,-172.45789
1770517866795,-0.9121094,-0.4013672,-0.140625,-5.7373047,-0.79345703,2.0751953,0.0,0.0,0.0,-112.41211,66.14319,-172.45789
1770517866871,-0.90771484,-0.38671875,-0.13427734,-3.0517578,-0.061035156,2.6855469,14585.0,5721.0,-1401.0,-112.41211,66.14319,-172.45789
1770517866882,-0.90771484,-0.38671875,-0.13427734,-3.0517578,-0.061035156,2.6855469,14585.0,5721.0,-1401.0,-112.961426,66.18164,-172.80945
1770517866895,-0.90771484,-0.38671875,-0.13427734,-3.0517578,-0.061035156,2.6855469,0.0,0.0,0.0,-112.961426,66.18164,-172.80945
1770517866971,-0.9267578,-0.36279297,-0.09863281,0.12207031,-12.268066,7.6293945,14518.0,5788.0,-1371.0,-112.961426,66.18164,-172.80945
1770517866982,-0.9267578,-0.36279297,-0.09863281,0.12207031,-12.268066,7.6293945,14518.0,5788.0,-1371.0,-112.68677,66.555176,-172.6886
1770517866994,-0.9267578,-0.36279297,-0.09863281,0.12207031,-12.268066,7.6293945,0.0,0.0,0.0,-112.68677,66.555176,-172.6886
1770517867071,-0.9267578,-0.38085938,-0.15722656,-0.48828125,-8.850098,3.7841797,14532.0,5769.0,-1404.0,-112.68677,66.555176,-172.6886
1770517867082,-0.9267578,-0.38085938,-0.15722656,-0.48828125,-8.850098,3.7841797,14532.0,5769.0,-1404.0,-109.506226,67.83508,-169.34875
1770517867093,-0.9267578,-0.38085938,-0.15722656,-0.48828125,-8.850098,3.7841797,0.0,0.0,0.0,-109.506226,67.83508,-169.34875
1770517867171,-0.9194336,-0.35986328,-0.10498047,-2.4414062,-8.056641,1.8310547,14516.0,5751.0,-1428.0,-109.506226,67.83508,-169.34875
1770517867182,-0.9194336,-0.35986328,-0.10498047,-2.4414062,-8.056641,1.8310547,14516.0,5751.0,-1428.0,-108.22632,68.1427,-167.82166
1770517867193,-0.9194336,-0.35986328,-0.10498047,-2.4414062,-8.056641,1.8310547,0.0,0.0,0.0,-108.22632,68.1427,-167.82166
1770517867270,-0.9194336,-0.36572266,-0.09082031,-3.540039,-4.9438477,2.746582,14498.0,5719.0,-1521.0,-108.22632,68.1427,-167.82166
1770517867281,-0.9194336,-0.36572266,-0.09082031,-3.540039,-4.9438477,2.746582,14498.0,5719.0,-1521.0,-107.072754,68.444824,-166.4154
1770517867293,-0.9194336,-0.36572266,-0.09082031,-3.540039,-4.9438477,2.746582,0.0,0.0,0.0,-107.072754,68.444824,-166.4154
1770517867370,-0.93115234,-0.35058594,-0.08691406,-8.850098,-7.080078,3.7231445,14475.0,5701.0,-1643.0,-107.072754,68.444824,-166.4154
1770517867381,-0.93115234,-0.35058594,-0.08691406,-8.850098,-7.080078,3.7231445,14475.0,5701.0,-1643.0,-106.41907,68.89526,-165.14099
1770517867398,-0.93115234,-0.35058594,-0.08691406,-8.850098,-7.080078,3.7231445,0.0,0.0,0.0,-106.41907,68.89526,-165.14099
1770517867469,-0.9321289,-0.3310547,-0.08154297,-8.117676,-7.446289,3.0517578,14453.0,5686.0,-1622.0,-106.41907,68.89526,-165.14099
1770517867481,-0.9321289,-0.3310547,-0.08154297,-8.117676,-7.446289,3.0517578,14453.0,5686.0,-1622.0,-105.391846,69.42261,-163.26233
1770517867492,-0.9321289,-0.3310547,-0.08154297,-8.117676,-7.446289,3.0517578,0.0,0.0,0.0,-105.391846,69.42261,-163.26233
1770517867569,-0.9370117,-0.30126953,-0.07373047,-4.760742,-5.3100586,2.5024414,14427.0,5682.0,-1617.0,-105.391846,69.42261,-163.26233
1770517867580,-0.9370117,-0.30126953,-0.07373047,-4.760742,-5.3100586,2.5024414,14427.0,5682.0,-1617.0,-104.56787,69.78516,-161.79016
1770517867597,-0.9370117,-0.30126953,-0.07373047,-4.760742,-5.3100586,2.5024414,0.0,0.0,0.0,-104.56787,69.78516,-161.79016
1770517867669,-0.98779297,-0.28857422,-0.08105469,1.159668,-1.8920898,3.112793,14411.0,5669.0,-1620.0,-104.56787,69.78516,-161.79016
1770517867680,-0.98779297,-0.28857422,-0.08105469,1.159668,-1.8920898,3.112793,14411.0,5669.0,-1620.0,-103.92517,70.25757,-160.88928
1770517867692,-0.98779297,-0.28857422,-0.08105469,1.159668,-1.8920898,3.112793,0.0,0.0,0.0,-103.92517,70.25757,-160.88928
1770517867769,-0.94873047,-0.28027344,-0.08105469,5.493164,-3.90625,4.699707,14412.0,5672.0,-1641.0,-103.92517,70.25757,-160.88928
1770517867780,-0.94873047,-0.28027344,-0.08105469,5.493164,-3.90625,4.699707,14412.0,5672.0,-1641.0,-103.04077,70.75745,-160.40588
1770517867795,-0.94873047,-0.28027344,-0.08105469,5.493164,-3.90625,4.699707,0.0,0.0,0.0,-103.04077,70.75745,-160.40588
1770517867868,-0.9746094,-0.29492188,-0.06640625,1.8920898,0.7324219,3.6621094,14430.0,5633.0,-1652.0,-103.04077,70.75745,-160.40588
1770517867880,-0.9746094,-0.29492188,-0.06640625,1.8920898,0.7324219,3.6621094,14430.0,5633.0,-1652.0,-102.507935,71.29578,-160.21912
1770517867892,-0.9746094,-0.29492188,-0.06640625,1.8920898,0.7324219,3.6621094,0.0,0.0,0.0,-102.507935,71.29578,-160.21912
1770517867968,-0.9589844,-0.27246094,-0.072265625,1.0986328,3.0517578,2.5634766,14467.0,5589.0,-1755.0,-102.507935,71.29578,-160.21912
1770517867979,-0.9589844,-0.27246094,-0.072265625,1.0986328,3.0517578,2.5634766,14467.0,5589.0,-1755.0,-103.18359,71.61438,-160.99915
1770517867991,-0.9589844,-0.27246094,-0.072265625,1.0986328,3.0517578,2.5634766,0.0,0.0,0.0,-103.18359,71.61438,-160.99915
1770517868068,-0.9609375,-0.27685547,-0.07421875,-1.0375977,2.9296875,1.8310547,14495.0,5567.0,-1750.0,-103.18359,71.61438,-160.99915
1770517868079,-0.9609375,-0.27685547,-0.07421875,-1.0375977,2.9296875,1.8310547,14495.0,5567.0,-1750.0,-104.12842,71.85608,-162.0758
1770517868091,-0.9609375,-0.27685547,-0.07421875,-1.0375977,2.9296875,1.8310547,0.0,0.0,0.0,-104.12842,71.85608,-162.0758
1770517868167,-0.9711914,-0.30615234,-0.05078125,-0.24414062,1.4648438,-1.4038086,14530.0,5571.0,-1712.0,-104.12842,71.85608,-162.0758
1770517868179,-0.9711914,-0.30615234,-0.05078125,-0.24414062,1.4648438,-1.4038086,14530.0,5571.0,-1712.0,-105.078735,71.900024,-162.99316
1770517868190,-0.9711914,-0.30615234,-0.05078125,-0.24414062,1.4648438,-1.4038086,0.0,0.0,0.0,-105.078735,71.900024,-162.99316
1770517868267,-0.9526367,-0.28955078,-0.07519531,-1.5258789,1.4648438,-2.5024414,14510.0,5591.0,-1615.0,-105.078735,71.900024,-162.99316
1770517868278,-0.9526367,-0.28955078,-0.07519531,-1.5258789,1.4648438,-2.5024414,14510.0,5591.0,-1615.0,-104.91394,71.7572,-162.91077
1770517868290,-0.9526367,-0.28955078,-0.07519531,-1.5258789,1.4648438,-2.5024414,0.0,0.0,0.0,-104.91394,71.7572,-162.91077
1770517868367,-0.94970703,-0.3154297,-0.068359375,-4.8828125,-0.12207031,-2.8686523,14548.0,5592.0,-1661.0,-104.91394,71.7572,-162.91077
1770517868378,-0.94970703,-0.3154297,-0.068359375,-4.8828125,-0.12207031,-2.8686523,14548.0,5592.0,-1661.0,-105.007324,71.52649,-162.85034
1770517868390,-0.94970703,-0.3154297,-0.068359375,-4.8828125,-0.12207031,-2.8686523,0.0,0.0,0.0,-105.007324,71.52649,-162.85034
1770517868466,-0.9404297,-0.3227539,-0.07714844,-5.1879883,2.9907227,-3.6010742,14525.0,5623.0,-1666.0,-105.007324,71.52649,-162.85034
1770517868478,-0.9404297,-0.3227539,-0.07714844,-5.1879883,2.9907227,-3.6010742,14525.0,5623.0,-1666.0,-105.38086,71.207886,-162.93274
1770517868489,-0.9404297,-0.3227539,-0.07714844,-5.1879883,2.9907227,-3.6010742,0.0,0.0,0.0,-105.38086,71.207886,-162.93274
1770517868566,-0.9379883,-0.3232422,-0.083496094,-7.080078,5.7373047,-4.211426,14503.0,5668.0,-1627.0,-105.38086,71.207886,-162.93274
1770517868578,-0.9379883,-0.3232422,-0.083496094,-7.080078,5.7373047,-4.211426,14503.0,5668.0,-1627.0,-106.77063,70.69153,-163.97644
1770517868589,-0.9379883,-0.3232422,-0.083496094,-7.080078,5.7373047,-4.211426,0.0,0.0,0.0,-106.77063,70.69153,-163.97644
1770517868666,-0.9267578,-0.3383789,-0.095214844,-8.483887,5.065918,-5.3100586,14512.0,5699.0,-1557.0,-106.77063,70.69153,-163.97644
1770517868677,-0.9267578,-0.3383789,-0.095214844,-8.483887,5.065918,-5.3100586,14512.0,5699.0,-1557.0,-108.28125,70.09277,-165.06409
1770517868699,-0.9267578,-0.3383789,-0.095214844,-8.483887,5.065918,-5.3100586,0.0,0.0,0.0,-108.28125,70.09277,-165.06409
1770517868765,-0.93847656,-0.35302734,-0.11230469,-2.746582,9.765625,-6.4086914,14494.0,5774.0,-1492.0,-108.28125,70.09277,-165.06409
1770517868777,-0.93847656,-0.35302734,-0.11230469,-2.746582,9.765625,-6.4086914,14494.0,5774.0,-1492.0,-109.868774,69.2688,-166.37695
1770517868788,-0.93847656,-0.35302734,-0.11230469,-2.746582,9.765625,-6.4086914,0.0,0.0,0.0,-109.868774,69.2688,-166.37695
1770517868865,-0.92285156,-0.35205078,-0.14355469,-0.12207031,9.460449,-4.333496,14461.0,5862.0,-1361.0,-109.868774,69.2688,-166.37695
1770517868877,-0.92285156,-0.35205078,-0.14355469,-0.12207031,9.460449,-4.333496,14461.0,5862.0,-1361.0,-111.54419,68.42285,-168.30505
1770517868890,-0.92285156,-0.35205078,-0.14355469,-0.12207031,9.460449,-4.333496,0.0,0.0,0.0,-111.54419,68.42285,-168.30505
1770517868965,-0.91064453,-0.38476562,-0.14501953,3.3569336,8.605957,-3.0517578,14485.0,5896.0,-1286.0,-111.54419,68.42285,-168.30505
1770517868976,-0.91064453,-0.38476562,-0.14501953,3.3569336,8.605957,-3.0517578,14485.0,5896.0,-1286.0,-113.131714,67.72522,-170.34302
1770517868988,-0.91064453,-0.38476562,-0.14501953,3.3569336,8.605957,-3.0517578,0.0,0.0,0.0,-113.131714,67.72522,-170.34302
1770517869065,-0.9082031,-0.37353516,-0.15771484,3.4179688,5.554199,-1.4038086,14520.0,5924.0,-1244.0,-113.131714,67.72522,-170.34302
1770517869076,-0.9082031,-0.37353516,-0.15771484,3.4179688,5.554199,-1.4038086,14520.0,5924.0,-1244.0,-113.71948,67.24182,-171.55151
1770517869087,-0.9082031,-0.37353516,-0.15771484,3.4179688,5.554199,-1.4038086,0.0,0.0,0.0,-113.71948,67.24182,-171.55151
1770517869164,-0.9321289,-0.36816406,-0.15527344,8.483887,5.79834,0.48828125,14530.0,5942.0,-1223.0,-113.71948,67.24182,-171.55151
1770517869176,-0.9321289,-0.36816406,-0.15527344,8.483887,5.79834,0.48828125,14530.0,5942.0,-1223.0,-114.175415,66.934204,-172.90833
1770517869187,-0.9321289,-0.36816406,-0.15527344,8.483887,5.79834,0.48828125,0.0,0.0,0.0,-114.175415,66.934204,-172.90833
1770517869264,-0.9135742,-0.3623047,-0.13867188,11.230469,2.380371,1.5869141,14560.0,5945.0,-1207.0,-114.175415,66.934204,-172.90833
1770517869275,-0.9135742,-0.3623047,-0.13867188,11.230469,2.380371,1.5869141,14560.0,5945.0,-1207.0,-113.69751,66.89575,-173.75427
1770517869287,-0.9135742,-0.3623047,-0.13867188,11.230469,2.380371,1.5869141,0.0,0.0,0.0,-113.69751,66.89575,-173.75427
1770517869364,-0.9296875,-0.36083984,-0.119140625,10.559082,0.4272461,2.4414062,14601.0,5898.0,-1266.0,-113.69751,66.89575,-173.75427
1770517869375,-0.9296875,-0.36083984,-0.119140625,10.559082,0.4272461,2.4414062,14601.0,5898.0,-1266.0,-112.92847,66.98364,-174.38599
1770517869387,-0.9296875,-0.36083984,-0.119140625,10.559082,0.4272461,2.4414062,0.0,0.0,0.0,-112.92847,66.98364,-174.38599
1770517869463,-0.9140625,-0.37402344,-0.11425781,7.019043,-3.0517578,1.5258789,14613.0,5861.0,-1324.0,-112.92847,66.98364,-174.38599
1770517869475,-0.9140625,-0.37402344,-0.11425781,7.019043,-3.0517578,1.5258789,14613.0,5861.0,-1324.0,-111.659546,67.24182,-174.2157
1770517869486,-0.9140625,-0.37402344,-0.11425781,7.019043,-3.0517578,1.5258789,0.0,0.0,0.0,-111.659546,67.24182,-174.2157
1770517869563,-0.921875,-0.37402344,-0.11035156,3.6010742,-1.7700195,-0.9765625,14629.0,5841.0,-1395.0,-111.659546,67.24182,-174.2157
1770517869575,-0.921875,-0.37402344,-0.11035156,3.6010742,-1.7700195,-0.9765625,14629.0,5841.0,-1395.0,-110.38513,67.29675,-173.62244
1770517869586,-0.921875,-0.37402344,-0.11035156,3.6010742,-1.7700195,-0.9765625,0.0,0.0,0.0,-110.38513,67.29675,-173.62244
1770517869663,-0.92626953,-0.39257812,-0.13232422,-1.5869141,2.5634766,-0.8544922,14592.0,5844.0,-1434.0,-110.38513,67.29675,-173.62244
1770517869674,-0.92626953,-0.39257812,-0.13232422,-1.5869141,2.5634766,-0.8544922,14592.0,5844.0,-1434.0,-110.12146,67.126465,-173.6554
1770517869686,-0.92626953,-0.39257812,-0.13232422,-1.5869141,2.5634766,-0.8544922,0.0,0.0,0.0,-110.12146,67.126465,-173.6554
1770517869763,-0.91748047,-0.390625,-0.14697266,0.0,4.211426,-1.0986328,14548.0,5847.0,-1395.0,-110.12146,67.126465,-173.6554
1770517869774,-0.91748047,-0.390625,-0.14697266,0.0,4.211426,-1.0986328,14548.0,5847.0,-1395.0,-110.93994,66.868286,-174.54529
1770517869785,-0.91748047,-0.390625,-0.14697266,0.0,4.211426,-1.0986328,0.0,0.0,0.0,-110.93994,66.868286,-174.54529
1770517869862,-0.91259766,-0.39111328,-0.15283203,2.6855469,9.033203,-2.9296875,14535.0,5896.0,-1382.0,-110.93994,66.868286,-174.54529
1770517869874,-0.91259766,-0.39111328,-0.15283203,2.6855469,9.033203,-2.9296875,14535.0,5896.0,-1382.0,-112.04956,66.31897,-176.07239
1770517869887,-0.91259766,-0.39111328,-0.15283203,2.6855469,9.033203,-2.9296875,0.0,0.0,0.0,-112.04956,66.31897,-176.07239
1770517869962,-0.91259766,-0.3857422,-0.1508789,0.91552734,7.2631836,-2.1362305,14592.0,5903.0,-1299.0,-112.04956,66.31897,-176.07239
1770517869973,-0.91259766,-0.3857422,-0.1508789,0.91552734,7.2631836,-2.1362305,14592.0,5903.0,-1299.0,-113.29651,65.72571,-177.80273
1770517869985,-0.91259766,-0.3857422,-0.1508789,0.91552734,7.2631836,-2.1362305,0.0,0.0,0.0,-113.29651,65.72571,-177.80273
1770517870062,-0.8930664,-0.3828125,-0.14794922,-0.36621094,1.953125,-0.6713867,14644.0,5881.0,-1325.0,-113.29651,65.72571,-177.80273
1770517870073,-0.8930664,-0.3828125,-0.14794922,-0.36621094,1.953125,-0.6713867,14644.0,5881.0,-1325.0,-113.88428,65.40161,-178.70361
1770517870090,-0.8930664,-0.3828125,-0.14794922,-0.36621094,1.953125,-0.6713867,0.0,0.0,0.0,-113.88428,65.40161,-178.70361
1770517870161,-0.9121094,-0.40625,-0.15478516,-4.0893555,-2.1972656,-0.061035156,14648.0,5891.0,-1315.0,-113.88428,65.40161,-178.70361
1770517870173,-0.9121094,-0.40625,-0.15478516,-4.0893555,-2.1972656,-0.061035156,14648.0,5891.0,-1315.0,-113.69751,65.390625,-178.52234
1770517870193,-0.9121094,-0.40625,-0.15478516,-4.0893555,-2.1972656,-0.061035156,0.0,0.0,0.0,-113.69751,65.390625,-178.52234
1770517870261,-0.9013672,-0.38427734,-0.15625,-6.713867,-2.9296875,0.24414062,14666.0,5896.0,-1309.0,-113.69751,65.390625,-178.52234
1770517870273,-0.9013672,-0.38427734,-0.15625,-6.713867,-2.9296875,0.24414062,14666.0,5896.0,-1309.0,-113.61511,65.48401,-177.96753
1770517870288,-0.9013672,-0.38427734,-0.15625,-6.713867,-2.9296875,0.24414062,0.0,0.0,0.0,-113.61511,65.48401,-177.96753
1770517870361,-0.9135742,-0.3930664,-0.16113281,-2.5634766,-3.112793,-0.4272461,14659.0,5898.0,-1312.0,-113.61511,65.48401,-177.96753
1770517870372,-0.9135742,-0.3930664,-0.16113281,-2.5634766,-3.112793,-0.4272461,14659.0,5898.0,-1312.0,-113.323975,65.56091,-177.30835
1770517870384,-0.9135742,-0.3930664,-0.16113281,-2.5634766,-3.112793,-0.4272461,0.0,0.0,0.0,-113.323975,65.56091,-177.30835
1770517870460,-0.91015625,-0.40039062,-0.17041016,-3.0517578,1.2207031,-0.36621094,14632.0,5916.0,-1314.0,-113.323975,65.56091,-177.30835
1770517870472,-0.91015625,-0.40039062,-0.17041016,-3.0517578,1.2207031,-0.36621094,14632.0,5916.0,-1314.0,-113.131714,65.56091,-176.90186
1770517870484,-0.91015625,-0.40039062,-0.17041016,-3.0517578,1.2207031,-0.36621094,0.0,0.0,0.0,-113.131714,65.56091,-176.90186
1770517870560,-0.89404297,-0.41503906,-0.171875,0.0,3.7841797,0.0,14598.0,5903.0,-1302.0,-113.131714,65.56091,-176.90186
1770517870572,-0.89404297,-0.41503906,-0.171875,0.0,3.7841797,0.0,14598.0,5903.0,-1302.0,-113.757935,65.407104,-177.46216
1770517870583,-0.89404297,-0.41503906,-0.171875,0.0,3.7841797,0.0,0.0,0.0,0.0,-113.757935,65.407104,-177.46216
1770517870660,-0.8935547,-0.39697266,-0.12841797,-0.061035156,-0.61035156,2.319336,14601.0,5893.0,-1281.0,-113.757935,65.407104,-177.46216
1770517870672,-0.8935547,-0.39697266,-0.12841797,-0.061035156,-0.61035156,2.319336,14601.0,5893.0,-1281.0,-114.35669,65.17639,-178.36304
1770517870683,-0.8935547,-0.39697266,-0.12841797,-0.061035156,-0.61035156,2.319336,0.0,0.0,0.0,-114.35669,65.17639,-178.36304
1770517870760,-0.9375,-0.3798828,-0.13867188,-4.760742,2.1362305,2.5634766,14582.0,5915.0,-1236.0,-114.35669,65.17639,-178.36304
1770517870771,-0.9375,-0.3798828,-0.13867188,-4.760742,2.1362305,2.5634766,14582.0,5915.0,-1236.0,-114.818115,65.253296,-178.92334
1770517870783,-0.9375,-0.3798828,-0.13867188,-4.760742,2.1362305,2.5634766,0.0,0.0,0.0,-114.818115,65.253296,-178.92334
1770517870859,-0.88623047,-0.3486328,-0.13085938,-1.4648438,-11.962891,7.507324,14572.0,5925.0,-1273.0,-114.818115,65.253296,-178.92334
1770517870871,-0.88623047,-0.3486328,-0.13085938,-1.4648438,-11.962891,7.507324,14572.0,5925.0,-1273.0,-114.142456,66.17615,-177.9126
1770517870891,-0.88623047,-0.3486328,-0.13085938,-1.4648438,-11.962891,7.507324,0.0,0.0,0.0,-114.142456,66.17615,-177.9126
1770517870959,-0.96875,-0.35107422,-0.099121094,1.8310547,-25.024414,9.460449,14578.0,5907.0,-1284.0,-114.142456,66.17615,-177.9126
1770517870970,-0.96875,-0.35107422,-0.099121094,1.8310547,-25.024414,9.460449,14578.0,5907.0,-1284.0,-111.34094,67.37915,-175.2539
1770517870987,-0.96875,-0.35107422,-0.099121094,1.8310547,-25.024414,9.460449,0.0,0.0,0.0,-111.34094,67.37915,-175.2539
1770517871059,-0.9321289,-0.31347656,-0.083984375,-6.652832,-9.155273,5.7373047,14534.0,5860.0,-1343.0,-111.34094,67.37915,-175.2539
1770517871070,-0.9321289,-0.31347656,-0.083984375,-6.652832,-9.155273,5.7373047,14534.0,5860.0,-1343.0,-108.52295,68.6261,-171.86462
1770517871087,-0.9321289,-0.31347656,-0.083984375,-6.652832,-9.155273,5.7373047,0.0,0.0,0.0,-108.52295,68.6261,-171.86462
1770517871159,-0.9316406,-0.35253906,-0.08300781,-6.591797,-9.82666,1.8310547,14526.0,5825.0,-1454.0,-108.52295,68.6261,-171.86462
1770517871170,-0.9316406,-0.35253906,-0.08300781,-6.591797,-9.82666,1.8310547,14526.0,5825.0,-1454.0,-106.56189,69.33472,-169.21143
1770517871181,-0.9316406,-0.35253906,-0.08300781,-6.591797,-9.82666,1.8310547,0.0,0.0,0.0,-106.56189,69.33472,-169.21143
1770517871258,-0.9394531,-0.3173828,-0.08105469,-12.268066,-6.591797,0.6713867,14487.0,5799.0,-1545.0,-106.56189,69.33472,-169.21143
1770517871270,-0.9394531,-0.3173828,-0.08105469,-12.268066,-6.591797,0.6713867,14487.0,5799.0,-1545.0,-105.12268,69.680786,-166.69556
1770517871281,-0.9394531,-0.3173828,-0.08105469,-12.268066,-6.591797,0.6713867,0.0,0.0,0.0,-105.12268,69.680786,-166.69556
1770517871358,-0.94921875,-0.29882812,-0.09765625,-8.605957,-0.5493164,0.061035156,14410.0,5833.0,-1470.0,-105.12268,69.680786,-166.69556
1770517871369,-0.94921875,-0.29882812,-0.09765625,-8.605957,-0.5493164,0.061035156,14410.0,5833.0,-1470.0,-105.232544,69.87305,-165.6903
1770517871381,-0.94921875,-0.29882812,-0.09765625,-8.605957,-0.5493164,0.061035156,0.0,0.0,0.0,-105.232544,69.87305,-165.6903
1770517871458,-0.96484375,-0.33496094,-0.08886719,-1.7089844,2.9296875,-3.112793,14335.0,5871.0,-1321.0,-105.232544,69.87305,-165.6903
1770517871469,-0.96484375,-0.33496094,-0.08886719,-1.7089844,2.9296875,-3.112793,14335.0,5871.0,-1321.0,-105.95764,69.730225,-165.92102
1770517871480,-0.96484375,-0.33496094,-0.08886719,-1.7089844,2.9296875,-3.112793,0.0,0.0,0.0,-105.95764,69.730225,-165.92102
1770517871557,-0.9248047,-0.3125,-0.09375,2.5634766,5.6152344,-2.0751953,14247.0,5925.0,-1217.0,-105.95764,69.730225,-165.92102
1770517871569,-0.9248047,-0.3125,-0.09375,2.5634766,5.6152344,-2.0751953,14247.0,5925.0,-1217.0,-106.693726,69.384155,-166.84937
1770517871581,-0.9248047,-0.3125,-0.09375,2.5634766,5.6152344,-2.0751953,0.0,0.0,0.0,-106.693726,69.384155,-166.84937
1770517871657,-0.93310547,-0.3071289,-0.08642578,3.1738281,9.033203,-0.24414062,14338.0,5880.0,-1382.0,-106.693726,69.384155,-166.84937
1770517871668,-0.93310547,-0.3071289,-0.08642578,3.1738281,9.033203,-0.24414062,14338.0,5880.0,-1382.0,-108.012085,69.191895,-168.57422
1770517871680,-0.93310547,-0.3071289,-0.08642578,3.1738281,9.033203,-0.24414062,0.0,0.0,0.0,-108.012085,69.191895,-168.57422
