timestamp,accX,accY,accZ,gyroX,gyroY,gyroZ,magX,magY,magZ,roll,pitch,yaw
1768033040606,-0.98046875,0.20458984,-0.10986328,-0.8544922,-1.7700195,0.91552734,0.0,0.0,0.0,117.4823,75.98694,35.150757
1768033040618,-0.98046875,0.20458984,-0.10986328,-0.8544922,-1.7700195,0.91552734,0.0,0.0,0.0,117.20215,76.02539,34.93103
1768033040706,-0.9838867,0.21240234,-0.11376953,0.9765625,-2.6855469,-0.8544922,0.0,0.0,0.0,117.20215,76.02539,34.93103
1768033040719,-0.9838867,0.21240234,-0.11376953,0.9765625,-2.6855469,-0.8544922,0.0,0.0,0.0,116.54846,76.00891,34.326782
1768033040806,-0.97021484,0.2055664,-0.099121094,0.061035156,0.5493164,0.30517578,0.0,0.0,0.0,116.54846,76.00891,34.326782
1768033040817,-0.97021484,0.2055664,-0.099121094,0.061035156,0.5493164,0.30517578,0.0,0.0,0.0,115.581665,75.997925,33.392944
1768033040909,-0.9765625,0.20751953,-0.099609375,-2.1362305,-1.2207031,0.12207031,0.0,0.0,0.0,115.581665,75.997925,33.392944
1768033040917,-0.9765625,0.20751953,-0.099609375,-2.1362305,-1.2207031,0.12207031,0.0,0.0,0.0,115.08728,75.981445,32.942505
1768033041005,-0.9746094,0.21142578,-0.09326172,0.061035156,0.12207031,-0.6713867,0.0,0.0,0.0,115.08728,75.981445,32.942505
1768033041017,-0.9746094,0.21142578,-0.09326172,0.061035156,0.12207031,-0.6713867,0.0,0.0,0.0,115.30701,76.04187,33.19519
1768033041105,-0.9707031,0.20117188,-0.08642578,1.3427734,1.953125,-1.0986328,0.0,0.0,0.0,115.30701,76.04187,33.19519
1768033041117,-0.9707031,0.20117188,-0.08642578,1.3427734,1.953125,-1.0986328,0.0,0.0,0.0,115.70801,76.0968,33.563232
1768033041205,-0.97558594,0.20898438,-0.099609375,1.8310547,0.24414062,-1.5258789,0.0,0.0,0.0,115.70801,76.0968,33.563232
1768033041216,-0.97558594,0.20898438,-0.099609375,1.8310547,0.24414062,-1.5258789,0.0,0.0,0.0,116.13098,76.22864,33.898315
1768033041304,-0.9790039,0.19970703,-0.10107422,0.4272461,0.30517578,-0.79345703,0.0,0.0,0.0,116.13098,76.22864,33.898315
1768033041316,-0.9790039,0.19970703,-0.10107422,0.4272461,0.30517578,-0.79345703,0.0,0.0,0.0,116.2738,76.327515,33.964233
1768033041404,-0.9770508,0.19921875,-0.10205078,0.48828125,-0.9765625,-0.79345703,0.0,0.0,0.0,116.2738,76.327515,33.964233
1768033041416,-0.9770508,0.19921875,-0.10205078,0.48828125,-0.9765625,-0.79345703,0.0,0.0,0.0,116.30676,76.40991,33.931274
1768033041504,-0.9824219,0.19628906,-0.08300781,-0.30517578,0.36621094,-0.24414062,0.0,0.0,0.0,116.30676,76.40991,33.931274
1768033041515,-0.9824219,0.19628906,-0.08300781,-0.30517578,0.36621094,-0.24414062,0.0,0.0,0.0,116.29028,76.48132,33.876343
1768033041603,-0.9921875,0.20361328,-0.12597656,-5.554199,-5.432129,1.8310547,0.0,0.0,0.0,116.29028,76.48132,33.876343
1768033041615,-0.9921875,0.20361328,-0.12597656,-5.554199,-5.432129,1.8310547,0.0,0.0,0.0,115.21362,76.70105,32.838135
1768033041703,-0.9716797,0.19921875,-0.078125,0.0,-0.18310547,-0.7324219,0.0,0.0,0.0,115.21362,76.70105,32.838135
1768033041715,-0.9716797,0.19921875,-0.078125,0.0,-0.18310547,-0.7324219,0.0,0.0,0.0,115.10925,76.6626,32.816162
1768033041803,-0.9765625,0.19726562,-0.095214844,-5.2490234,1.159668,0.61035156,0.0,0.0,0.0,115.10925,76.6626,32.816162
1768033041815,-0.9765625,0.19726562,-0.095214844,-5.2490234,1.159668,0.61035156,0.0,0.0,0.0,113.43384,76.72302,31.50879
1768033041903,-0.9741211,0.2084961,-0.083984375,-6.286621,-4.0283203,0.7324219,0.0,0.0,0.0,113.43384,76.72302,31.50879
1768033041914,-0.9741211,0.2084961,-0.083984375,-6.286621,-4.0283203,0.7324219,0.0,0.0,0.0,113.07129,76.72302,31.50879
1768033042003,-0.9716797,0.2055664,-0.07763672,-3.9672852,1.159668,0.4272461,0.0,0.0,0.0,113.07129,76.72302,31.50879
1768033042014,-0.9716797,0.2055664,-0.07763672,-3.9672852,1.159668,0.4272461,0.0,0.0,0.0,112.51099,76.72302,31.343994
1768033042102,-0.9941406,0.22509766,-0.084472656,-0.18310547,6.1035156,-0.061035156,0.0,0.0,0.0,112.51099,76.72302,31.343994
1768033042114,-0.9941406,0.22509766,-0.084472656,-0.18310547,6.1035156,-0.061035156,0.0,0.0,0.0,113.131714,76.65161,32.200928
1768033042202,-0.9770508,0.19726562,-0.09326172,-2.9296875,-4.699707,-0.36621094,0.0,0.0,0.0,113.131714,76.65161,32.200928
1768033042213,-0.9770508,0.19726562,-0.09326172,-2.9296875,-4.699707,-0.36621094,0.0,0.0,0.0,114.76318,76.657104,33.876343
1768033042301,-0.98583984,0.20800781,-0.08935547,0.6713867,2.9296875,-2.4414062,0.0,0.0,0.0,114.76318,76.657104,33.876343
1768033042313,-0.98583984,0.20800781,-0.08935547,0.6713867,2.9296875,-2.4414062,0.0,0.0,0.0,114.27429,76.78894,33.70056
1768033042401,-0.9873047,0.18945312,-0.09863281,-2.6245117,0.61035156,-1.8310547,0.0,0.0,0.0,114.27429,76.78894,33.70056
1768033042413,-0.9873047,0.18945312,-0.09863281,-2.6245117,0.61035156,-1.8310547,0.0,0.0,0.0,114.23035,76.91528,33.931274
1768033042501,-0.9794922,0.20507812,-0.08154297,-1.8310547,0.48828125,-2.0751953,0.0,0.0,0.0,114.23035,76.91528,33.931274
1768033042512,-0.9794922,0.20507812,-0.08154297,-1.8310547,0.48828125,-2.0751953,0.0,0.0,0.0,115.08179,77.058105,35.00244
1768033042601,-0.9692383,0.20214844,-0.08544922,-4.272461,-2.1972656,1.2207031,0.0,0.0,0.0,115.08179,77.058105,35.00244
1768033042612,-0.9692383,0.20214844,-0.08544922,-4.272461,-2.1972656,1.2207031,0.0,0.0,0.0,114.77966,77.145996,34.985962
1768033042700,-0.97998047,0.1977539,-0.078125,-2.1362305,-3.2348633,1.0375977,0.0,0.0,0.0,114.77966,77.145996,34.985962
1768033042712,-0.97998047,0.1977539,-0.078125,-2.1362305,-3.2348633,1.0375977,0.0,0.0,0.0,113.010864,77.145996,33.480835
1768033042800,-0.9760742,0.20654297,-0.06347656,-4.9438477,-1.3427734,1.0986328,0.0,0.0,0.0,113.010864,77.145996,33.480835
1768033042812,-0.9760742,0.20654297,-0.06347656,-4.9438477,-1.3427734,1.0986328,0.0,0.0,0.0,111.362915,77.145996,32.18994
1768033042900,-0.97265625,0.20361328,-0.07080078,-4.5166016,-0.30517578,1.4038086,0.0,0.0,0.0,111.362915,77.145996,32.18994
1768033042911,-0.97265625,0.20361328,-0.07080078,-4.5166016,-0.30517578,1.4038086,0.0,0.0,0.0,110.286255,77.13501,31.442871
1768033042999,-0.97509766,0.21289062,-0.06982422,-2.9296875,0.48828125,0.9765625,0.0,0.0,0.0,110.286255,77.13501,31.442871
1768033043011,-0.97509766,0.21289062,-0.06982422,-2.9296875,0.48828125,0.9765625,0.0,0.0,0.0,109.23706,76.986694,30.783691
1768033043099,-0.984375,0.21240234,-0.072753906,-1.4648438,-0.79345703,-1.4038086,0.0,0.0,0.0,109.23706,76.986694,30.783691
1768033043111,-0.984375,0.21240234,-0.072753906,-1.4648438,-0.79345703,-1.4038086,0.0,0.0,0.0,109.000854,77.01965,30.756226
1768033043199,-0.9790039,0.20898438,-0.06640625,-1.7089844,0.6713867,-0.18310547,0.0,0.0,0.0,109.000854,77.01965,30.756226
1768033043210,-0.9790039,0.20898438,-0.06640625,-1.7089844,0.6713867,-0.18310547,0.0,0.0,0.0,109.21509,77.02515,31.223145
1768033043298,-0.97753906,0.21142578,-0.06640625,-1.159668,1.5869141,0.6713867,0.0,0.0,0.0,109.21509,77.02515,31.223145
1768033043310,-0.97753906,0.21142578,-0.06640625,-1.159668,1.5869141,0.6713867,0.0,0.0,0.0,109.451294,76.95923,31.706543
1768033043398,-0.9682617,0.21972656,-0.07421875,2.8076172,-0.7324219,0.48828125,0.0,0.0,0.0,109.451294,76.95923,31.706543
1768033043410,-0.9682617,0.21972656,-0.07421875,2.8076172,-0.7324219,0.48828125,0.0,0.0,0.0,109.39636,76.832886,31.744995
1768033043498,-0.9873047,0.18798828,-0.078125,-0.91552734,2.1972656,0.30517578,0.0,0.0,0.0,109.39636,76.832886,31.744995
1768033043510,-0.9873047,0.18798828,-0.078125,-0.91552734,2.1972656,0.30517578,0.0,0.0,0.0,109.72046,76.81091,31.975708
1768033043598,-0.97265625,0.19580078,-0.076660156,-2.319336,2.6855469,-0.7324219,0.0,0.0,0.0,109.72046,76.81091,31.975708
1768033043609,-0.97265625,0.19580078,-0.076660156,-2.319336,2.6855469,-0.7324219,0.0,0.0,0.0,110.48401,76.73401,32.95349
1768033043697,-0.9838867,0.2133789,-0.087402344,-4.5166016,0.061035156,-0.4272461,0.0,0.0,0.0,110.48401,76.73401,32.95349
1768033043709,-0.9838867,0.2133789,-0.087402344,-4.5166016,0.061035156,-0.4272461,0.0,0.0,0.0,110.86853,76.78894,33.634644
1768033043797,-0.97314453,0.20751953,-0.076660156,-3.6010742,1.8310547,0.0,0.0,0.0,0.0,110.86853,76.78894,33.634644
1768033043809,-0.97314453,0.20751953,-0.076660156,-3.6010742,1.8310547,0.0,0.0,0.0,0.0,111.09375,76.777954,34.172974
1768033043897,-0.97021484,0.19970703,-0.076171875,-2.1362305,0.79345703,-0.5493164,0.0,0.0,0.0,111.09375,76.777954,34.172974
1768033043908,-0.97021484,0.19970703,-0.076171875,-2.1362305,0.79345703,-0.5493164,0.0,0.0,0.0,111.32446,76.71753,34.7937
1768033043997,-0.9819336,0.22216797,-0.07763672,-2.8076172,-0.8544922,-0.18310547,0.0,0.0,0.0,111.32446,76.71753,34.7937
1768033044008,-0.9819336,0.22216797,-0.07763672,-2.8076172,-0.8544922,-0.18310547,0.0,0.0,0.0,111.121216,76.78345,34.91455
1768033044096,-0.98095703,0.20898438,-0.078125,-1.5258789,-2.0751953,1.0986328,0.0,0.0,0.0,111.121216,76.78345,34.91455
1768033044108,-0.98095703,0.20898438,-0.078125,-1.5258789,-2.0751953,1.0986328,0.0,0.0,0.0,110.53894,76.80542,34.502563
1768033044196,-0.9770508,0.21582031,-0.06982422,0.4272461,-0.36621094,0.061035156,0.0,0.0,0.0,110.53894,76.80542,34.502563
1768033044207,-0.9770508,0.21582031,-0.06982422,0.4272461,-0.36621094,0.061035156,0.0,0.0,0.0,110.11047,76.80542,34.090576
1768033044296,-0.97753906,0.20654297,-0.072265625,0.5493164,-0.7324219,0.61035156,0.0,0.0,0.0,110.11047,76.80542,34.090576
1768033044308,-0.97753906,0.20654297,-0.072265625,0.5493164,-0.7324219,0.61035156,0.0,0.0,0.0,109.89624,76.80542,33.80493
1768033044395,-0.9838867,0.18798828,-0.06298828,-2.9296875,-1.5869141,2.0751953,0.0,0.0,0.0,109.89624,76.80542,33.80493
1768033044407,-0.9838867,0.18798828,-0.06298828,-2.9296875,-1.5869141,2.0751953,0.0,0.0,0.0,109.25903,76.75598,33.189697
1768033044495,-0.9897461,0.21044922,-0.063964844,-7.507324,-0.5493164,2.1362305,0.0,0.0,0.0,109.25903,76.75598,33.189697
1768033044508,-0.9897461,0.21044922,-0.063964844,-7.507324,-0.5493164,2.1362305,0.0,0.0,0.0,108.06152,76.69006,32.37671
1768033044595,-0.96777344,0.22021484,-0.057617188,-7.507324,-1.6479492,0.4272461,0.0,0.0,0.0,108.06152,76.69006,32.37671
1768033044606,-0.96777344,0.22021484,-0.057617188,-7.507324,-1.6479492,0.4272461,0.0,0.0,0.0,107.440796,76.6626,32.349243
1768033044695,-0.97558594,0.21728516,-0.05517578,-6.591797,-0.91552734,1.6479492,0.0,0.0,0.0,107.440796,76.6626,32.349243
1768033044706,-0.97558594,0.21728516,-0.05517578,-6.591797,-0.91552734,1.6479492,0.0,0.0,0.0,105.68848,76.607666,31.349487
1768033044794,-0.98095703,0.21972656,-0.04638672,-6.8359375,-0.8544922,1.2207031,0.0,0.0,0.0,105.68848,76.607666,31.349487
1768033044805,-0.98095703,0.21972656,-0.04638672,-6.8359375,-0.8544922,1.2207031,0.0,0.0,0.0,104.10095,76.47583,30.41565
1768033044894,-0.96435547,0.22363281,-0.043945312,-7.2021484,-1.953125,-0.8544922,0.0,0.0,0.0,104.10095,76.47583,30.41565
1768033044906,-0.96435547,0.22363281,-0.043945312,-7.2021484,-1.953125,-0.8544922,0.0,0.0,0.0,102.94739,76.503296,29.943237
1768033044994,-0.9536133,0.22949219,-0.044921875,-6.8969727,-6.3476562,2.380371,0.0,0.0,0.0,102.94739,76.503296,29.943237
1768033045005,-0.9536133,0.22949219,-0.044921875,-6.8969727,-6.3476562,2.380371,0.0,0.0,0.0,100.39856,76.49231,28.009644
1768033045093,-1.0053711,0.20214844,-0.03173828,-11.71875,-8.483887,0.9765625,0.0,0.0,0.0,100.39856,76.49231,28.009644
1768033045105,-1.0053711,0.20214844,-0.03173828,-11.71875,-8.483887,0.9765625,0.0,0.0,0.0,96.33362,76.55823,24.417114
1768033045193,-0.9946289,0.19873047,0.0029296875,-7.873535,6.4697266,-5.7373047,0.0,0.0,0.0,96.33362,76.55823,24.417114
1768033045204,-0.9946289,0.19873047,0.0029296875,-7.873535,6.4697266,-5.7373047,0.0,0.0,0.0,96.26221,76.86035,25.307007
1768033045293,-0.9589844,0.234375,-0.014160156,-12.6953125,0.0,-6.0424805,0.0,0.0,0.0,96.26221,76.86035,25.307007
1768033045304,-0.9589844,0.234375,-0.014160156,-12.6953125,0.0,-6.0424805,0.0,0.0,0.0,94.7406,77.34924,25.438843
1768033045392,-0.9863281,0.2290039,0.0024414062,-8.666992,-1.2207031,-2.5024414,0.0,0.0,0.0,94.7406,77.34924,25.438843
1768033045404,-0.9863281,0.2290039,0.0024414062,-8.666992,-1.2207031,-2.5024414,0.0,0.0,0.0,94.04297,77.73926,25.680542
1768033045492,-0.9628906,0.20166016,0.009277344,-1.7700195,0.48828125,-0.6713867,0.0,0.0,0.0,94.04297,77.73926,25.680542
1768033045504,-0.9628906,0.20166016,0.009277344,-1.7700195,0.48828125,-0.6713867,0.0,0.0,0.0,93.48816,77.821655,25.62561
1768033045592,-0.99560547,0.19384766,4.8828125E-4,-0.6713867,-0.91552734,-0.91552734,0.0,0.0,0.0,93.48816,77.821655,25.62561
1768033045603,-0.99560547,0.19384766,4.8828125E-4,-0.6713867,-0.91552734,-0.91552734,0.0,0.0,0.0,92.631226,77.93152,24.900513
1768033045691,-0.99072266,0.21289062,-9.765625E-4,0.8544922,2.6855469,-0.36621094,0.0,0.0,0.0,92.631226,77.93152,24.900513
1768033045703,-0.99072266,0.21289062,-9.765625E-4,0.8544922,2.6855469,-0.36621094,0.0,0.0,0.0,93.78479,77.92053,26.279297
1768033045791,-0.9916992,0.18457031,-0.016113281,-6.652832,5.554199,2.319336,0.0,0.0,0.0,93.78479,77.92053,26.279297
1768033045803,-0.9916992,0.18457031,-0.016113281,-6.652832,5.554199,2.319336,0.0,0.0,0.0,95.50415,77.8656,28.580933
1768033045891,-0.96875,0.23486328,-0.01171875,-3.8452148,6.958008,2.5634766,0.0,0.0,0.0,95.50415,77.8656,28.580933
1768033045902,-0.96875,0.23486328,-0.01171875,-3.8452148,6.958008,2.5634766,0.0,0.0,0.0,97.30591,77.49756,31.426392
1768033045990,-0.97216797,0.25,-0.029785156,4.1503906,2.5634766,6.3476562,0.0,0.0,0.0,97.30591,77.49756,31.426392
1768033046002,-0.97216797,0.25,-0.029785156,4.1503906,2.5634766,6.3476562,0.0,0.0,0.0,98.6792,76.953735,33.04138
1768033046090,-0.9692383,0.24707031,-0.028808594,12.878418,0.7324219,3.2958984,0.0,0.0,0.0,98.6792,76.953735,33.04138
1768033046102,-0.9692383,0.24707031,-0.028808594,12.878418,0.7324219,3.2958984,0.0,0.0,0.0,99.60205,76.39343,33.24463
1768033046190,-0.95751953,0.2783203,-0.045898438,23.986816,-5.6152344,2.8076172,0.0,0.0,0.0,99.60205,76.39343,33.24463
1768033046201,-0.95751953,0.2783203,-0.045898438,23.986816,-5.6152344,2.8076172,0.0,0.0,0.0,100.31067,76.14624,32.113037
1768033046290,-0.9848633,0.18359375,-0.04248047,25.20752,-4.211426,0.061035156,0.0,0.0,0.0,100.31067,76.14624,32.113037
1768033046302,-0.9848633,0.18359375,-0.04248047,25.20752,-4.211426,0.061035156,0.0,0.0,0.0,100.67322,76.0968,29.690552
1768033046389,-0.9863281,0.18066406,-0.0390625,11.169434,-1.7700195,1.3427734,0.0,0.0,0.0,100.67322,76.0968,29.690552
1768033046402,-0.9863281,0.18066406,-0.0390625,11.169434,-1.7700195,1.3427734,0.0,0.0,0.0,101.06323,76.16272,28.24585
1768033046489,-0.96777344,0.22705078,-0.040039062,7.2021484,-1.4648438,1.6479492,0.0,0.0,0.0,101.06323,76.16272,28.24585
1768033046501,-0.96777344,0.22705078,-0.040039062,7.2021484,-1.4648438,1.6479492,0.0,0.0,0.0,101.42578,76.1792,27.60315
1768033046589,-0.98339844,0.21142578,-0.05419922,1.953125,-1.2207031,-0.91552734,0.0,0.0,0.0,101.42578,76.1792,27.60315
1768033046600,-0.98339844,0.21142578,-0.05419922,1.953125,-1.2207031,-0.91552734,0.0,0.0,0.0,101.398315,76.28357,26.954956
1768033046688,-0.98535156,0.21679688,-0.041992188,0.0,1.159668,0.36621094,0.0,0.0,0.0,101.398315,76.28357,26.954956
1768033046700,-0.98535156,0.21679688,-0.041992188,0.0,1.159668,0.36621094,0.0,0.0,0.0,101.87622,76.36597,27.218628
1768033046788,-0.9814453,0.20263672,-0.040527344,-6.713867,4.5166016,0.6713867,0.0,0.0,0.0,101.87622,76.36597,27.218628
1768033046800,-0.9814453,0.20263672,-0.040527344,-6.713867,4.5166016,0.6713867,0.0,0.0,0.0,102.84302,76.36597,28.377686
1768033046888,-0.9711914,0.23925781,-0.040039062,-4.0283203,5.2490234,1.7700195,0.0,0.0,0.0,102.84302,76.36597,28.377686
1768033046899,-0.9711914,0.23925781,-0.040039062,-4.0283203,5.2490234,1.7700195,0.0,0.0,0.0,103.69446,76.12427,29.992676
1768033046988,-0.95410156,0.26367188,-0.04248047,1.0986328,5.065918,-0.5493164,0.0,0.0,0.0,103.69446,76.12427,29.992676
1768033046999,-0.95410156,0.26367188,-0.04248047,1.0986328,5.065918,-0.5493164,0.0,0.0,0.0,104.50195,75.79468,31.398926
1768033047087,-0.97998047,0.23291016,-0.06591797,5.9814453,-0.18310547,-2.380371,0.0,0.0,0.0,104.50195,75.79468,31.398926
1768033047099,-0.97998047,0.23291016,-0.06591797,5.9814453,-0.18310547,-2.380371,0.0,0.0,0.0,105.754395,75.83313,32.541504
1768033047187,-0.96875,0.22607422,-0.05810547,7.385254,1.3427734,-1.6479492,0.0,0.0,0.0,105.754395,75.83313,32.541504
1768033047200,-0.96875,0.22607422,-0.05810547,7.385254,1.3427734,-1.6479492,0.0,0.0,0.0,106.92444,75.93201,33.338013
1768033047289,-0.9716797,0.23046875,-0.06982422,6.958008,0.30517578,0.061035156,0.0,0.0,0.0,106.92444,75.93201,33.338013
1768033047300,-0.9716797,0.23046875,-0.06982422,6.958008,0.30517578,0.061035156,0.0,0.0,0.0,107.352905,75.95398,33.321533
1768033047387,-0.96533203,0.22216797,-0.06933594,12.023926,-1.2207031,-1.6479492,0.0,0.0,0.0,107.352905,75.95398,33.321533
1768033047398,-0.96533203,0.22216797,-0.06933594,12.023926,-1.2207031,-1.6479492,0.0,0.0,0.0,108.028564,75.94849,33.21167
1768033047486,-0.96875,0.2319336,-0.06933594,10.314941,-0.18310547,-1.4648438,0.0,0.0,0.0,108.028564,75.94849,33.21167
1768033047497,-0.96875,0.2319336,-0.06933594,10.314941,-0.18310547,-1.4648438,0.0,0.0,0.0,108.28674,76.02539,32.667847
1768033047586,-0.97509766,0.21582031,-0.075683594,7.9956055,-1.5258789,-1.2817383,0.0,0.0,0.0,108.28674,76.02539,32.667847
1768033047597,-0.97509766,0.21582031,-0.075683594,7.9956055,-1.5258789,-1.2817383,0.0,0.0,0.0,108.42407,76.173706,31.937256
1768033047685,-0.9770508,0.2211914,-0.07470703,6.713867,-1.8310547,-1.0375977,0.0,0.0,0.0,108.42407,76.173706,31.937256
1768033047697,-0.9770508,0.2211914,-0.07470703,6.713867,-1.8310547,-1.0375977,0.0,0.0,0.0,108.671265,76.32202,31.486816
1768033047785,-0.97558594,0.20996094,-0.068847656,6.591797,-1.0986328,-1.8310547,0.0,0.0,0.0,108.671265,76.32202,31.486816
1768033047796,-0.97558594,0.20996094,-0.068847656,6.591797,-1.0986328,-1.8310547,0.0,0.0,0.0,109.00635,76.448364,31.16272
1768033047885,-0.9814453,0.22216797,-0.07324219,7.446289,-1.4038086,-1.4648438,0.0,0.0,0.0,109.00635,76.448364,31.16272
1768033047897,-0.9814453,0.22216797,-0.07324219,7.446289,-1.4038086,-1.4648438,0.0,0.0,0.0,109.13269,76.63513,30.789185
1768033047984,-0.97753906,0.2084961,-0.06933594,9.399414,-0.24414062,-1.6479492,0.0,0.0,0.0,109.13269,76.63513,30.789185
1768033047996,-0.97753906,0.2084961,-0.06933594,9.399414,-0.24414062,-1.6479492,0.0,0.0,0.0,109.82483,76.7395,30.822144
1768033048084,-0.9814453,0.19921875,-0.07470703,5.3710938,-0.5493164,0.24414062,0.0,0.0,0.0,109.82483,76.7395,30.822144
1768033048096,-0.9814453,0.19921875,-0.07470703,5.3710938,-0.5493164,0.24414062,0.0,0.0,0.0,110.12695,76.832886,30.547485
1768033048184,-0.97558594,0.20800781,-0.07373047,2.4414062,-0.30517578,0.61035156,0.0,0.0,0.0,110.12695,76.832886,30.547485
1768033048195,-0.97558594,0.20800781,-0.07373047,2.4414062,-0.30517578,0.61035156,0.0,0.0,0.0,110.357666,76.84387,30.39917
1768033048284,-0.97314453,0.20996094,-0.0703125,2.0141602,1.159668,0.6713867,0.0,0.0,0.0,110.357666,76.84387,30.39917
1768033048295,-0.97314453,0.20996094,-0.0703125,2.0141602,1.159668,0.6713867,0.0,0.0,0.0,110.632324,76.81091,30.50354
1768033048383,-0.97558594,0.20703125,-0.07763672,1.4038086,1.0986328,0.36621094,0.0,0.0,0.0,110.632324,76.81091,30.50354
1768033048395,-0.97558594,0.20703125,-0.07763672,1.4038086,1.0986328,0.36621094,0.0,0.0,0.0,110.87402,76.78894,30.635376
1768033048483,-0.9790039,0.20605469,-0.08203125,0.061035156,0.48828125,1.2207031,0.0,0.0,0.0,110.87402,76.78894,30.635376
1768033048495,-0.9790039,0.20605469,-0.08203125,0.061035156,0.48828125,1.2207031,0.0,0.0,0.0,111.1322,76.68457,30.860596
1768033048583,-0.9785156,0.2163086,-0.08203125,-0.91552734,0.061035156,0.7324219,0.0,0.0,0.0,111.1322,76.68457,30.860596
1768033048595,-0.9785156,0.2163086,-0.08203125,-0.91552734,0.061035156,0.7324219,0.0,0.0,0.0,111.15967,76.58569,30.970459
1768033048682,-0.9819336,0.20703125,-0.08105469,-2.5634766,0.0,1.159668,0.0,0.0,0.0,111.15967,76.58569,30.970459
1768033048694,-0.9819336,0.20703125,-0.08105469,-2.5634766,0.0,1.159668,0.0,0.0,0.0,110.90149,76.50879,30.899048
1768033048783,-0.97021484,0.2163086,-0.07128906,-3.0517578,1.0986328,0.4272461,0.0,0.0,0.0,110.90149,76.50879,30.899048
1768033048794,-0.97021484,0.2163086,-0.07128906,-3.0517578,1.0986328,0.4272461,0.0,0.0,0.0,110.85205,76.40442,31.168213
1768033048882,-0.9819336,0.23095703,-0.09472656,-0.4272461,0.30517578,-2.746582,0.0,0.0,0.0,110.85205,76.40442,31.168213
1768033048893,-0.9819336,0.23095703,-0.09472656,-0.4272461,0.30517578,-2.746582,0.0,0.0,0.0,111.258545,76.58569,31.690063
1768033048982,-0.9814453,0.18847656,-0.08642578,1.953125,-0.8544922,-0.91552734,0.0,0.0,0.0,111.258545,76.58569,31.690063
1768033048993,-0.9814453,0.18847656,-0.08642578,1.953125,-0.8544922,-0.91552734,0.0,0.0,0.0,111.24756,76.61865,31.624146
1768033049081,-0.9814453,0.19628906,-0.088378906,-2.1362305,-0.061035156,-1.8310547,0.0,0.0,0.0,111.24756,76.61865,31.624146
1768033049093,-0.9814453,0.19628906,-0.088378906,-2.1362305,-0.061035156,-1.8310547,0.0,0.0,0.0,111.52771,76.80542,31.80542
1768033049181,-0.9746094,0.21728516,-0.079589844,-0.61035156,-1.5869141,-1.3427734,0.0,0.0,0.0,111.52771,76.80542,31.80542
1768033049192,-0.9746094,0.21728516,-0.079589844,-0.61035156,-1.5869141,-1.3427734,0.0,0.0,0.0,111.74744,76.970215,32.211914
1768033049281,-0.98095703,0.20166016,-0.08154297,-1.0375977,0.18310547,0.36621094,0.0,0.0,0.0,111.74744,76.970215,32.211914
1768033049292,-0.98095703,0.20166016,-0.08154297,-1.0375977,0.18310547,0.36621094,0.0,0.0,0.0,111.35193,76.986694,31.915283
1768033049380,-0.9790039,0.21240234,-0.083984375,0.30517578,0.4272461,0.061035156,0.0,0.0,0.0,111.35193,76.986694,31.915283
1768033049392,-0.9790039,0.21240234,-0.083984375,0.30517578,0.4272461,0.061035156,0.0,0.0,0.0,111.3739,76.94824,32.003174
1768033049480,-0.9819336,0.2055664,-0.08154297,1.3427734,-0.24414062,0.8544922,0.0,0.0,0.0,111.3739,76.94824,32.003174
1768033049492,-0.9819336,0.2055664,-0.08154297,1.3427734,-0.24414062,0.8544922,0.0,0.0,0.0,111.59912,76.8988,32.156982
1768033049580,-0.96972656,0.20898438,-0.07714844,1.7089844,0.79345703,1.2817383,0.0,0.0,0.0,111.59912,76.8988,32.156982
1768033049592,-0.96972656,0.20898438,-0.07714844,1.7089844,0.79345703,1.2817383,0.0,0.0,0.0,111.89575,76.78345,32.321777
1768033049680,-0.9848633,0.21435547,-0.09033203,0.48828125,-1.159668,2.6855469,0.0,0.0,0.0,111.89575,76.78345,32.321777
1768033049691,-0.9848633,0.21435547,-0.09033203,0.48828125,-1.159668,2.6855469,0.0,0.0,0.0,111.30249,76.640625,31.59668
1768033049779,-0.97021484,0.21679688,-0.072753906,0.79345703,-0.061035156,2.2583008,0.0,0.0,0.0,111.30249,76.640625,31.59668
1768033049791,-0.97021484,0.21679688,-0.072753906,0.79345703,-0.061035156,2.2583008,0.0,0.0,0.0,111.39038,76.44287,31.536255
1768033049879,-0.97558594,0.21582031,-0.079589844,1.3427734,0.9765625,1.4038086,0.0,0.0,0.0,111.39038,76.44287,31.536255
1768033049890,-0.97558594,0.21582031,-0.079589844,1.3427734,0.9765625,1.4038086,0.0,0.0,0.0,111.03882,76.30005,31.140747
1768033049979,-0.9760742,0.21875,-0.08203125,-0.061035156,1.0375977,1.4038086,0.0,0.0,0.0,111.03882,76.30005,31.140747
1768033049990,-0.9760742,0.21875,-0.08203125,-0.061035156,1.0375977,1.4038086,0.0,0.0,0.0,111.28052,76.14624,31.382446
1768033050078,-0.9746094,0.22363281,-0.083984375,0.48828125,0.0,0.48828125,0.0,0.0,0.0,111.28052,76.14624,31.382446
1768033050090,-0.9746094,0.22363281,-0.083984375,0.48828125,0.0,0.48828125,0.0,0.0,0.0,111.555176,76.03638,31.70105
1768033050178,-0.9736328,0.2211914,-0.07910156,0.6713867,0.36621094,-0.4272461,0.0,0.0,0.0,111.555176,76.03638,31.70105
1768033050190,-0.9736328,0.2211914,-0.07910156,0.6713867,0.36621094,-0.4272461,0.0,0.0,0.0,111.676025,76.03638,31.8219
1768033050278,-0.9741211,0.22460938,-0.083984375,1.0986328,0.18310547,-0.18310547,0.0,0.0,0.0,111.676025,76.03638,31.8219
1768033050289,-0.9741211,0.22460938,-0.083984375,1.0986328,0.18310547,-0.18310547,0.0,0.0,0.0,111.71448,76.09131,31.777954
1768033050378,-0.9667969,0.22167969,-0.08642578,0.7324219,-1.953125,-0.61035156,0.0,0.0,0.0,111.71448,76.09131,31.777954
1768033050389,-0.9667969,0.22167969,-0.08642578,0.7324219,-1.953125,-0.61035156,0.0,0.0,0.0,111.64856,76.21216,31.503296
1768033050477,-0.9716797,0.2133789,-0.08251953,0.79345703,0.12207031,0.0,0.0,0.0,0.0,111.64856,76.21216,31.503296
1768033050489,-0.9716797,0.2133789,-0.08251953,0.79345703,0.12207031,0.0,0.0,0.0,0.0,111.47827,76.20117,31.23413
1768033050577,-0.9741211,0.21826172,-0.083496094,-0.91552734,0.6713867,0.48828125,0.0,0.0,0.0,111.47827,76.20117,31.23413
1768033050589,-0.9741211,0.21826172,-0.083496094,-0.91552734,0.6713867,0.48828125,0.0,0.0,0.0,111.395874,76.1792,31.16272
1768033050677,-0.97509766,0.2241211,-0.08935547,-0.6713867,0.79345703,0.61035156,0.0,0.0,0.0,111.395874,76.1792,31.16272
1768033050688,-0.97509766,0.2241211,-0.08935547,-0.6713867,0.79345703,0.61035156,0.0,0.0,0.0,111.500244,76.11328,31.327515
1768033050776,-0.9711914,0.22558594,-0.08203125,-1.5869141,0.12207031,0.7324219,0.0,0.0,0.0,111.500244,76.11328,31.327515
1768033050789,-0.9711914,0.22558594,-0.08203125,-1.5869141,0.12207031,0.7324219,0.0,0.0,0.0,111.64856,76.014404,31.607666
1768033050876,-0.9692383,0.22314453,-0.076171875,0.12207031,1.0986328,0.0,0.0,0.0,0.0,111.64856,76.014404,31.607666
1768033050888,-0.9692383,0.22314453,-0.076171875,0.12207031,1.0986328,0.0,0.0,0.0,0.0,111.63757,75.95398,31.651611
1768033050976,-0.97021484,0.2241211,-0.087890625,0.7324219,0.9765625,-0.4272461,0.0,0.0,0.0,111.63757,75.95398,31.651611
1768033050988,-0.97021484,0.2241211,-0.087890625,0.7324219,0.9765625,-0.4272461,0.0,0.0,0.0,111.79138,75.964966,31.843872
1768033051075,-0.9770508,0.21386719,-0.08935547,-1.0986328,-0.4272461,2.1362305,0.0,0.0,0.0,111.79138,75.964966,31.843872
1768033051087,-0.9770508,0.21386719,-0.08935547,-1.0986328,-0.4272461,2.1362305,0.0,0.0,0.0,111.64856,75.90454,31.695557
1768033051175,-0.9658203,0.22851562,-0.080078125,-0.18310547,-0.36621094,1.7089844,0.0,0.0,0.0,111.64856,75.90454,31.695557
1768033051187,-0.9658203,0.22851562,-0.080078125,-0.18310547,-0.36621094,1.7089844,0.0,0.0,0.0,111.395874,75.71228,31.481323
1768033051275,-0.9760742,0.23388672,-0.08886719,1.953125,-0.7324219,1.7089844,0.0,0.0,0.0,111.395874,75.71228,31.481323
1768033051286,-0.9760742,0.23388672,-0.08886719,1.953125,-0.7324219,1.7089844,0.0,0.0,0.0,110.69275,75.60791,30.657349
1768033051375,-0.9716797,0.24316406,-0.076171875,7.507324,-1.7700195,1.4648438,0.0,0.0,0.0,110.69275,75.60791,30.657349
1768033051386,-0.9716797,0.24316406,-0.076171875,7.507324,-1.7700195,1.4648438,0.0,0.0,0.0,110.14343,75.443115,29.707031
1768033051474,-0.96875,0.24853516,-0.063964844,10.437012,0.0,-1.6479492,0.0,0.0,0.0,110.14343,75.443115,29.707031
1768033051486,-0.96875,0.24853516,-0.063964844,10.437012,0.0,-1.6479492,0.0,0.0,0.0,110.061035,75.426636,28.828125
1768033051574,-0.97509766,0.2290039,-0.084472656,8.178711,-2.2583008,-1.0375977,0.0,0.0,0.0,110.061035,75.426636,28.828125
1768033051585,-0.97509766,0.2290039,-0.084472656,8.178711,-2.2583008,-1.0375977,0.0,0.0,0.0,110.99487,75.635376,28.844604
1768033051674,-0.97509766,0.21679688,-0.08984375,10.498047,1.159668,-1.6479492,0.0,0.0,0.0,110.99487,75.635376,28.844604
1768033051685,-0.97509766,0.21679688,-0.08984375,10.498047,1.159668,-1.6479492,0.0,0.0,0.0,112.197876,75.79468,29.152222
1768033051773,-0.96777344,0.22607422,-0.087402344,10.559082,0.18310547,0.0,0.0,0.0,0.0,112.197876,75.79468,29.152222
1768033051785,-0.96777344,0.22607422,-0.087402344,10.559082,0.18310547,0.0,0.0,0.0,0.0,112.890015,75.76172,29.053345
1768033051873,-0.97558594,0.21777344,-0.095214844,7.8125,-0.12207031,1.3427734,0.0,0.0,0.0,112.890015,75.76172,29.053345
1768033051885,-0.97558594,0.21777344,-0.095214844,7.8125,-0.12207031,1.3427734,0.0,0.0,0.0,113.50525,75.70679,28.833618
1768033051973,-0.9682617,0.2241211,-0.09716797,8.056641,0.4272461,2.1362305,0.0,0.0,0.0,113.50525,75.70679,28.833618
1768033051984,-0.9682617,0.2241211,-0.09716797,8.056641,0.4272461,2.1362305,0.0,0.0,0.0,114.07654,75.55298,28.652344
1768033052073,-0.96972656,0.23339844,-0.095214844,7.6293945,0.5493164,3.479004,0.0,0.0,0.0,114.07654,75.55298,28.652344
1768033052084,-0.96972656,0.23339844,-0.095214844,7.6293945,0.5493164,3.479004,0.0,0.0,0.0,114.071045,75.28381,27.91626
1768033052172,-0.9663086,0.23876953,-0.10253906,6.8359375,0.0,3.8452148,0.0,0.0,0.0,114.071045,75.28381,27.91626
1768033052184,-0.9663086,0.23876953,-0.10253906,6.8359375,0.0,3.8452148,0.0,0.0,0.0,114.576416,74.992676,27.636108
1768033052272,-0.9667969,0.234375,-0.11279297,9.338379,0.48828125,2.5634766,0.0,0.0,0.0,114.576416,74.992676,27.636108
1768033052284,-0.9667969,0.234375,-0.11279297,9.338379,0.48828125,2.5634766,0.0,0.0,0.0,115.147705,74.70154,27.350464
1768033052372,-0.9633789,0.23730469,-0.11230469,10.620117,1.159668,1.6479492,0.0,0.0,0.0,115.147705,74.70154,27.350464
1768033052383,-0.9633789,0.23730469,-0.11230469,10.620117,1.159668,1.6479492,0.0,0.0,0.0,115.68054,74.44885,26.998901
1768033052471,-0.96435547,0.24072266,-0.11669922,8.544922,0.0,1.159668,0.0,0.0,0.0,115.68054,74.44885,26.998901
1768033052483,-0.96435547,0.24072266,-0.11669922,8.544922,0.0,1.159668,0.0,0.0,0.0,116.361694,74.28406,26.784668
1768033052571,-0.9663086,0.23828125,-0.119628906,6.713867,-1.8920898,1.159668,0.0,0.0,0.0,116.361694,74.28406,26.784668
1768033052583,-0.9663086,0.23828125,-0.119628906,6.713867,-1.8920898,1.159668,0.0,0.0,0.0,116.746216,74.245605,26.394653
1768033052671,-0.9658203,0.23925781,-0.110839844,4.3945312,-0.5493164,1.5258789,0.0,0.0,0.0,116.746216,74.245605,26.394653
1768033052682,-0.9658203,0.23925781,-0.110839844,4.3945312,-0.5493164,1.5258789,0.0,0.0,0.0,116.56494,74.20166,25.565186
1768033052771,-0.9628906,0.24560547,-0.12011719,1.8920898,-1.159668,0.91552734,0.0,0.0,0.0,116.56494,74.20166,25.565186
1768033052783,-0.9628906,0.24560547,-0.12011719,1.8920898,-1.159668,0.91552734,0.0,0.0,0.0,116.40015,74.17969,24.971924
1768033052870,-0.96777344,0.24365234,-0.11669922,1.2817383,-0.6713867,0.4272461,0.0,0.0,0.0,116.40015,74.17969,24.971924
1768033052882,-0.96777344,0.24365234,-0.11669922,1.2817383,-0.6713867,0.4272461,0.0,0.0,0.0,116.07056,74.13574,24.466553
1768033052970,-0.97216797,0.24267578,-0.11279297,1.953125,-0.8544922,-0.36621094,0.0,0.0,0.0,116.07056,74.13574,24.466553
1768033052982,-0.97216797,0.24267578,-0.11279297,1.953125,-0.8544922,-0.36621094,0.0,0.0,0.0,115.94971,74.141235,24.246826
1768033053070,-0.9663086,0.24658203,-0.119140625,-2.5024414,-1.2817383,0.36621094,0.0,0.0,0.0,115.94971,74.141235,24.246826
1768033053082,-0.9663086,0.24658203,-0.119140625,-2.5024414,-1.2817383,0.36621094,0.0,0.0,0.0,115.460815,74.23462,23.659058
1768033053169,-0.9663086,0.25195312,-0.10986328,-0.30517578,0.0,-1.0986328,0.0,0.0,0.0,115.460815,74.23462,23.659058
1768033053181,-0.9663086,0.25195312,-0.10986328,-0.30517578,0.0,-1.0986328,0.0,0.0,0.0,115.40588,74.278564,23.68103
1768033053269,-0.9638672,0.24609375,-0.11328125,0.061035156,-0.5493164,-0.61035156,0.0,0.0,0.0,115.40588,74.278564,23.68103
1768033053281,-0.9638672,0.24609375,-0.11328125,0.061035156,-0.5493164,-0.61035156,0.0,0.0,0.0,115.24109,74.33899,23.604126
1768033053369,-0.9667969,0.24707031,-0.10644531,0.91552734,-0.9765625,-0.5493164,0.0,0.0,0.0,115.24109,74.33899,23.604126
1768033053380,-0.9667969,0.24707031,-0.10644531,0.91552734,-0.9765625,-0.5493164,0.0,0.0,0.0,115.268555,74.38843,23.637085
1768033053468,-0.9663086,0.24267578,-0.111328125,0.4272461,0.48828125,0.0,0.0,0.0,0.0,115.268555,74.38843,23.637085
1768033053480,-0.9663086,0.24267578,-0.111328125,0.4272461,0.48828125,0.0,0.0,0.0,0.0,115.010376,74.39392,23.422852
1768033053568,-0.9692383,0.24511719,-0.11425781,-0.48828125,-1.4648438,0.4272461,0.0,0.0,0.0,115.010376,74.39392,23.422852
1768033053580,-0.9692383,0.24511719,-0.11425781,-0.48828125,-1.4648438,0.4272461,0.0,0.0,0.0,114.86755,74.39392,23.252563
1768033053668,-0.9716797,0.2421875,-0.11230469,-0.30517578,2.1362305,0.7324219,0.0,0.0,0.0,114.86755,74.39392,23.252563
1768033053680,-0.9716797,0.2421875,-0.11230469,-0.30517578,2.1362305,0.7324219,0.0,0.0,0.0,115.22461,74.31702,23.598633
1768033053768,-0.96435547,0.2397461,-0.11279297,-0.24414062,2.0141602,0.61035156,0.0,0.0,0.0,115.22461,74.31702,23.598633
1768033053779,-0.96435547,0.2397461,-0.11279297,-0.24414062,2.0141602,0.61035156,0.0,0.0,0.0,115.6311,74.17969,24.093018
1768033053867,-0.9536133,0.2578125,-0.1171875,3.6010742,-0.79345703,-0.061035156,0.0,0.0,0.0,115.6311,74.17969,24.093018
1768033053879,-0.9536133,0.2578125,-0.1171875,3.6010742,-0.79345703,-0.061035156,0.0,0.0,0.0,115.9552,74.13025,24.307251
1768033053967,-0.9716797,0.2319336,-0.10546875,3.9672852,-1.0375977,0.4272461,0.0,0.0,0.0,115.9552,74.13025,24.307251
1768033053979,-0.9716797,0.2319336,-0.10546875,3.9672852,-1.0375977,0.4272461,0.0,0.0,0.0,115.48828,74.11377,23.444824
1768033054067,-0.9682617,0.24707031,-0.11230469,1.2817383,0.91552734,-1.2817383,0.0,0.0,0.0,115.48828,74.11377,23.444824
1768033054078,-0.9682617,0.24707031,-0.11230469,1.2817383,0.91552734,-1.2817383,0.0,0.0,0.0,115.8728,74.2511,23.642578
1768033054166,-0.9633789,0.23876953,-0.11669922,2.6245117,-0.12207031,-1.2207031,0.0,0.0,0.0,115.8728,74.2511,23.642578
1768033054178,-0.9633789,0.23876953,-0.11669922,2.6245117,-0.12207031,-1.2207031,0.0,0.0,0.0,116.55945,74.34448,24.136963
1768033054266,-0.96533203,0.23535156,-0.12451172,2.8686523,0.4272461,-1.953125,0.0,0.0,0.0,116.55945,74.34448,24.136963
1768033054278,-0.96533203,0.23535156,-0.12451172,2.8686523,0.4272461,-1.953125,0.0,0.0,0.0,116.987915,74.45984,24.362183
1768033054366,-0.9667969,0.22363281,-0.12109375,0.12207031,-0.7324219,-1.2207031,0.0,0.0,0.0,116.987915,74.45984,24.362183
1768033054377,-0.9667969,0.22363281,-0.12109375,0.12207031,-0.7324219,-1.2207031,0.0,0.0,0.0,117.33948,74.5697,24.554443
1768033054466,-0.9692383,0.22460938,-0.115722656,-1.2207031,-0.4272461,-0.5493164,0.0,0.0,0.0,117.33948,74.5697,24.554443
1768033054477,-0.9692383,0.22460938,-0.115722656,-1.2207031,-0.4272461,-0.5493164,0.0,0.0,0.0,117.29004,74.70703,24.53247
1768033054565,-0.97802734,0.22753906,-0.12158203,-2.9907227,-2.5634766,0.48828125,0.0,0.0,0.0,117.29004,74.70703,24.53247
1768033054577,-0.97802734,0.22753906,-0.12158203,-2.9907227,-2.5634766,0.48828125,0.0,0.0,0.0,116.44409,74.78943,23.829346
1768033054665,-0.9614258,0.20117188,-0.10839844,-1.5869141,-0.5493164,-0.91552734,0.0,0.0,0.0,116.44409,74.78943,23.829346
1768033054676,-0.9614258,0.20117188,-0.10839844,-1.5869141,-0.5493164,-0.91552734,0.0,0.0,0.0,116.50452,74.88281,23.867798
1768033054765,-0.97558594,0.19873047,-0.12597656,0.061035156,-2.1362305,-3.112793,0.0,0.0,0.0,116.50452,74.88281,23.867798
1768033054776,-0.97558594,0.19873047,-0.12597656,0.061035156,-2.1362305,-3.112793,0.0,0.0,0.0,115.85083,75.201416,23.104248
1768033054864,-0.97558594,0.21826172,-0.10546875,1.7089844,-0.6713867,-1.6479492,0.0,0.0,0.0,115.85083,75.201416,23.104248
1768033054876,-0.97558594,0.21826172,-0.10546875,1.7089844,-0.6713867,-1.6479492,0.0,0.0,0.0,116.4386,75.443115,23.378906
1768033054964,-0.97021484,0.23291016,-0.107421875,2.9296875,0.61035156,-0.18310547,0.0,0.0,0.0,116.4386,75.443115,23.378906
1768033054976,-0.97021484,0.23291016,-0.107421875,2.9296875,0.61035156,-0.18310547,0.0,0.0,0.0,116.91101,75.55298,23.516235
1768033055064,-0.9682617,0.234375,-0.11621094,5.9814453,0.8544922,2.9296875,0.0,0.0,0.0,116.91101,75.55298,23.516235
1768033055075,-0.9682617,0.234375,-0.11621094,5.9814453,0.8544922,2.9296875,0.0,0.0,0.0,117.13074,75.41565,23.302002
1768033055164,-0.9760742,0.26220703,-0.08935547,4.211426,-4.3945312,5.79834,0.0,0.0,0.0,117.13074,75.41565,23.302002
1768033055175,-0.9760742,0.26220703,-0.08935547,4.211426,-4.3945312,5.79834,0.0,0.0,0.0,116.032104,74.95972,21.813354
1768033055263,-0.9433594,0.27246094,-0.08300781,6.1035156,-0.79345703,6.164551,0.0,0.0,0.0,116.032104,74.95972,21.813354
1768033055277,-0.9433594,0.27246094,-0.08300781,6.1035156,-0.79345703,6.164551,0.0,0.0,0.0,114.96643,74.51477,20.352173
1768033055363,-0.95458984,0.29492188,-0.09716797,6.591797,-1.8310547,7.1411133,0.0,0.0,0.0,114.96643,74.51477,20.352173
1768033055374,-0.95458984,0.29492188,-0.09716797,6.591797,-1.8310547,7.1411133,0.0,0.0,0.0,113.16467,73.93799,18.292236
1768033055463,-0.9589844,0.27294922,-0.1015625,9.338379,-1.0986328,3.1738281,0.0,0.0,0.0,113.16467,73.93799,18.292236
1768033055476,-0.9589844,0.27294922,-0.1015625,9.338379,-1.0986328,3.1738281,0.0,0.0,0.0,113.38989,73.43811,17.825317
1768033055562,-0.9692383,0.2602539,-0.11035156,11.047363,1.0986328,0.9765625,0.0,0.0,0.0,113.38989,73.43811,17.825317
1768033055574,-0.9692383,0.2602539,-0.11035156,11.047363,1.0986328,0.9765625,0.0,0.0,0.0,113.33496,73.201904,17.089233
1768033055662,-0.9614258,0.24365234,-0.11328125,3.540039,-1.159668,0.0,0.0,0.0,0.0,113.33496,73.201904,17.089233
1768033055673,-0.9614258,0.24365234,-0.11328125,3.540039,-1.159668,0.0,0.0,0.0,0.0,113.757935,73.15796,16.896973
1768033055762,-0.9638672,0.25878906,-0.10888672,1.4648438,-1.5869141,-1.3427734,0.0,0.0,0.0,113.757935,73.15796,16.896973
1768033055773,-0.9638672,0.25878906,-0.10888672,1.4648438,-1.5869141,-1.3427734,0.0,0.0,0.0,113.76343,73.289795,16.732178
1768033055861,-0.97021484,0.24902344,-0.11035156,-0.24414062,-0.4272461,-1.5869141,0.0,0.0,0.0,113.76343,73.289795,16.732178
1768033055873,-0.97021484,0.24902344,-0.11035156,-0.24414062,-0.4272461,-1.5869141,0.0,0.0,0.0,113.49426,73.50952,16.397095
1768033055961,-0.9692383,0.25585938,-0.10107422,-3.1738281,0.12207031,-1.3427734,0.0,0.0,0.0,113.49426,73.50952,16.397095
1768033055973,-0.9692383,0.25585938,-0.10107422,-3.1738281,0.12207031,-1.3427734,0.0,0.0,0.0,113.50525,73.690796,16.589355
1768033056061,-0.96875,0.24023438,-0.096191406,-5.004883,2.5634766,-1.6479492,0.0,0.0,0.0,113.50525,73.690796,16.589355
1768033056072,-0.96875,0.24023438,-0.096191406,-5.004883,2.5634766,-1.6479492,0.0,0.0,0.0,113.69202,73.78967,17.248535
1768033056161,-0.95751953,0.24365234,-0.103515625,-10.375977,3.90625,-1.8920898,0.0,0.0,0.0,113.69202,73.78967,17.248535
1768033056172,-0.95751953,0.24365234,-0.103515625,-10.375977,3.90625,-1.8920898,0.0,0.0,0.0,114.44458,73.90503,18.808594
1768033056260,-0.97558594,0.24804688,-0.12402344,-8.605957,0.48828125,-1.2817383,0.0,0.0,0.0,114.44458,73.90503,18.808594
1768033056272,-0.97558594,0.24804688,-0.12402344,-8.605957,0.48828125,-1.2817383,0.0,0.0,0.0,114.87305,74.06433,20.148926
1768033056360,-0.97021484,0.234375,-0.115234375,-7.385254,1.5258789,-0.8544922,0.0,0.0,0.0,114.87305,74.06433,20.148926
1768033056372,-0.97021484,0.234375,-0.115234375,-7.385254,1.5258789,-0.8544922,0.0,0.0,0.0,114.713745,74.0863,20.769653
1768033056460,-0.9663086,0.24267578,-0.10253906,-10.070801,2.2583008,-0.24414062,0.0,0.0,0.0,114.713745,74.0863,20.769653
1768033056471,-0.9663086,0.24267578,-0.10253906,-10.070801,2.2583008,-0.24414062,0.0,0.0,0.0,114.41162,74.04236,21.43982
1768033056559,-0.9604492,0.24121094,-0.10107422,-7.2631836,2.5024414,-1.8310547,0.0,0.0,0.0,114.41162,74.04236,21.43982
1768033056571,-0.9604492,0.24121094,-0.10107422,-7.2631836,2.5024414,-1.8310547,0.0,0.0,0.0,114.27429,74.053345,22.247314
1768033056659,-0.96728516,0.24316406,-0.11328125,-7.5683594,-0.36621094,-2.380371,0.0,0.0,0.0,114.27429,74.053345,22.247314
1768033056671,-0.96728516,0.24316406,-0.11328125,-7.5683594,-0.36621094,-2.380371,0.0,0.0,0.0,114.20288,74.20715,23.07129
1768033056759,-0.9746094,0.24023438,-0.103515625,-6.8969727,3.7231445,-3.479004,0.0,0.0,0.0,114.20288,74.20715,23.07129
1768033056770,-0.9746094,0.24023438,-0.103515625,-6.8969727,3.7231445,-3.479004,0.0,0.0,0.0,113.91724,74.42139,23.615112
1768033056859,-0.96777344,0.23779297,-0.111328125,-5.7373047,0.7324219,-2.746582,0.0,0.0,0.0,113.91724,74.42139,23.615112
1768033056870,-0.96777344,0.23779297,-0.111328125,-5.7373047,0.7324219,-2.746582,0.0,0.0,0.0,114.60388,74.61914,25.010376
1768033056958,-0.96972656,0.23291016,-0.10595703,-4.760742,1.3427734,-2.4414062,0.0,0.0,0.0,114.60388,74.61914,25.010376
1768033056970,-0.96972656,0.23291016,-0.10595703,-4.760742,1.3427734,-2.4414062,0.0,0.0,0.0,114.92798,74.800415,25.894775
1768033057058,-0.97265625,0.23828125,-0.10839844,-4.1503906,2.0141602,-1.7089844,0.0,0.0,0.0,114.92798,74.800415,25.894775
1768033057069,-0.97265625,0.23828125,-0.10839844,-4.1503906,2.0141602,-1.7089844,0.0,0.0,0.0,115.164185,74.92676,26.652832
1768033057158,-0.97314453,0.23095703,-0.11230469,-3.7231445,2.319336,-1.5258789,0.0,0.0,0.0,115.164185,74.92676,26.652832
1768033057169,-0.97314453,0.23095703,-0.11230469,-3.7231445,2.319336,-1.5258789,0.0,0.0,0.0,115.62012,74.98169,27.559204
1768033057257,-0.9707031,0.22753906,-0.11035156,-4.8217773,1.4038086,-0.61035156,0.0,0.0,0.0,115.62012,74.98169,27.559204
1768033057269,-0.9707031,0.22753906,-0.11035156,-4.8217773,1.4038086,-0.61035156,0.0,0.0,0.0,116.466064,75.025635,28.811646
1768033057357,-0.9692383,0.22216797,-0.11376953,-4.211426,2.319336,-0.4272461,0.0,0.0,0.0,116.466064,75.025635,28.811646
1768033057369,-0.9692383,0.22216797,-0.11376953,-4.211426,2.319336,-0.4272461,0.0,0.0,0.0,116.6803,74.99817,29.553223
1768033057457,-0.9707031,0.22802734,-0.11669922,-5.79834,1.6479492,0.6713867,0.0,0.0,0.0,116.6803,74.99817,29.553223
1768033057468,-0.9707031,0.22802734,-0.11669922,-5.79834,1.6479492,0.6713867,0.0,0.0,0.0,116.9989,74.8938,30.410156
1768033057556,-0.9741211,0.2290039,-0.11767578,-4.8828125,1.5869141,0.48828125,0.0,0.0,0.0,116.9989,74.8938,30.410156
1768033057568,-0.9741211,0.2290039,-0.11767578,-4.8828125,1.5869141,0.48828125,0.0,0.0,0.0,116.96594,74.77295,30.899048
1768033057656,-0.9707031,0.23339844,-0.11621094,-4.8217773,2.0141602,-0.30517578,0.0,0.0,0.0,116.96594,74.77295,30.899048
1768033057668,-0.9707031,0.23339844,-0.11621094,-4.8217773,2.0141602,-0.30517578,0.0,0.0,0.0,117.27356,74.69055,31.723022
1768033057756,-0.9692383,0.23144531,-0.119628906,-3.112793,2.319336,-1.159668,0.0,0.0,0.0,117.27356,74.69055,31.723022
1768033057767,-0.9692383,0.23144531,-0.119628906,-3.112793,2.319336,-1.159668,0.0,0.0,0.0,117.751465,74.6521,32.667847
1768033057856,-0.9609375,0.2290039,-0.11425781,-1.953125,2.5634766,-2.5024414,0.0,0.0,0.0,117.751465,74.6521,32.667847
1768033057867,-0.9609375,0.2290039,-0.11425781,-1.953125,2.5634766,-2.5024414,0.0,0.0,0.0,118.531494,74.69055,33.876343
1768033057955,-0.97216797,0.2163086,-0.12841797,-3.479004,-0.12207031,0.0,0.0,0.0,0.0,118.531494,74.69055,33.876343
1768033057967,-0.97216797,0.2163086,-0.12841797,-3.479004,-0.12207031,0.0,0.0,0.0,0.0,118.531494,74.76196,34.27185
1768033058055,-0.96972656,0.22216797,-0.123046875,-3.1738281,-0.061035156,0.0,0.0,0.0,0.0,118.531494,74.76196,34.27185
1768033058067,-0.96972656,0.22216797,-0.123046875,-3.1738281,-0.061035156,0.0,0.0,0.0,0.0,118.62488,74.767456,34.65088
1768033058155,-0.9707031,0.22363281,-0.122558594,-1.7700195,0.48828125,0.24414062,0.0,0.0,0.0,118.62488,74.767456,34.65088
1768033058166,-0.9707031,0.22363281,-0.122558594,-1.7700195,0.48828125,0.24414062,0.0,0.0,0.0,118.56995,74.767456,34.821167
1768033058254,-0.9682617,0.21972656,-0.11621094,-1.7089844,1.4038086,0.061035156,0.0,0.0,0.0,118.56995,74.767456,34.821167
1768033058266,-0.9682617,0.21972656,-0.11621094,-1.7089844,1.4038086,0.061035156,0.0,0.0,0.0,118.55896,74.72351,34.99695
1768033058354,-0.97314453,0.2319336,-0.123535156,-2.1362305,0.79345703,-0.36621094,0.0,0.0,0.0,118.55896,74.72351,34.99695
1768033058366,-0.97314453,0.2319336,-0.123535156,-2.1362305,0.79345703,-0.36621094,0.0,0.0,0.0,118.53699,74.71802,35.21118
1768033058454,-0.95751953,0.23291016,-0.11279297,3.90625,-0.18310547,2.380371,0.0,0.0,0.0,118.53699,74.71802,35.21118
1768033058465,-0.95751953,0.23291016,-0.11279297,3.90625,-0.18310547,2.380371,0.0,0.0,0.0,118.54797,74.5697,35.183716
1768033058554,-0.97216797,0.22509766,-0.12890625,-1.953125,1.2817383,0.91552734,0.0,0.0,0.0,118.54797,74.5697,35.183716
1768033058565,-0.97216797,0.22509766,-0.12890625,-1.953125,1.2817383,0.91552734,0.0,0.0,0.0,118.38867,74.503784,34.94751
1768033058653,-0.97216797,0.23242188,-0.12646484,0.4272461,0.24414062,0.18310547,0.0,0.0,0.0,118.38867,74.503784,34.94751
1768033058665,-0.97216797,0.23242188,-0.12646484,0.4272461,0.24414062,0.18310547,0.0,0.0,0.0,118.71826,74.43237,35.321045
1768033058753,-0.9658203,0.22998047,-0.12646484,-0.36621094,2.6855469,-0.18310547,0.0,0.0,0.0,118.71826,74.43237,35.321045
1768033058764,-0.9658203,0.22998047,-0.12646484,-0.36621094,2.6855469,-0.18310547,0.0,0.0,0.0,119.00391,74.366455,35.628662
1768033058853,-0.9667969,0.23388672,-0.1274414,0.30517578,1.159668,-0.36621094,0.0,0.0,0.0,119.00391,74.366455,35.628662
1768033058864,-0.9667969,0.23388672,-0.1274414,0.30517578,1.159668,-0.36621094,0.0,0.0,0.0,119.42139,74.31152,36.123047
1768033058952,-0.96777344,0.22705078,-0.12988281,-0.24414062,0.7324219,-0.48828125,0.0,0.0,0.0,119.42139,74.31152,36.123047
1768033058964,-0.96777344,0.22705078,-0.12988281,-0.24414062,0.7324219,-0.48828125,0.0,0.0,0.0,119.904785,74.31152,36.622925
1768033059052,-0.96240234,0.22998047,-0.12207031,-0.36621094,1.0986328,-0.6713867,0.0,0.0,0.0,119.904785,74.31152,36.622925
1768033059064,-0.96240234,0.22998047,-0.12207031,-0.36621094,1.0986328,-0.6713867,0.0,0.0,0.0,120.24536,74.33899,36.990967
1768033059152,-0.9663086,0.22998047,-0.13330078,-0.91552734,0.48828125,-0.61035156,0.0,0.0,0.0,120.24536,74.33899,36.990967
1768033059163,-0.9663086,0.22998047,-0.13330078,-0.91552734,0.48828125,-0.61035156,0.0,0.0,0.0,120.43762,74.41589,37.249146
1768033059251,-0.9692383,0.22460938,-0.13623047,-0.24414062,0.061035156,-0.24414062,0.0,0.0,0.0,120.43762,74.41589,37.249146
1768033059263,-0.9692383,0.22460938,-0.13623047,-0.24414062,0.061035156,-0.24414062,0.0,0.0,0.0,120.371704,74.43237,37.243652
1768033059351,-0.9658203,0.22363281,-0.13330078,-1.3427734,-0.4272461,0.48828125,0.0,0.0,0.0,120.371704,74.43237,37.243652
1768033059363,-0.9658203,0.22363281,-0.13330078,-1.3427734,-0.4272461,0.48828125,0.0,0.0,0.0,120.33325,74.4104,37.282104
1768033059451,-0.96875,0.22314453,-0.13427734,-0.79345703,0.6713867,-0.061035156,0.0,0.0,0.0,120.33325,74.4104,37.282104
1768033059462,-0.96875,0.22314453,-0.13427734,-0.79345703,0.6713867,-0.061035156,0.0,0.0,0.0,120.15747,74.39392,37.177734
1768033059553,-0.9692383,0.23046875,-0.13085938,-1.953125,0.48828125,-0.061035156,0.0,0.0,0.0,120.15747,74.39392,37.177734
1768033059562,-0.9692383,0.23046875,-0.13085938,-1.953125,0.48828125,-0.061035156,0.0,0.0,0.0,120.22339,74.399414,37.37549
1768033059650,-0.9663086,0.23095703,-0.12890625,-1.5869141,1.7089844,0.24414062,0.0,0.0,0.0,120.22339,74.399414,37.37549
1768033059662,-0.9663086,0.23095703,-0.12890625,-1.5869141,1.7089844,0.24414062,0.0,0.0,0.0,120.371704,74.366455,37.62268
1768033059750,-0.96240234,0.23339844,-0.13183594,-1.7089844,0.5493164,0.0,0.0,0.0,0.0,120.371704,74.366455,37.62268
1768033059761,-0.96240234,0.23339844,-0.13183594,-1.7089844,0.5493164,0.0,0.0,0.0,0.0,120.52551,74.349976,37.89734
1768033059850,-0.96972656,0.22949219,-0.13769531,-0.91552734,0.36621094,0.12207031,0.0,0.0,0.0,120.52551,74.349976,37.89734
1768033059862,-0.96972656,0.22949219,-0.13769531,-0.91552734,0.36621094,0.12207031,0.0,0.0,0.0,120.52002,74.30054,38.012695
1768033059949,-0.9667969,0.23046875,-0.12841797,0.0,1.5258789,0.061035156,0.0,0.0,0.0,120.52002,74.30054,38.012695
1768033059961,-0.9667969,0.23046875,-0.12841797,0.0,1.5258789,0.061035156,0.0,0.0,0.0,120.739746,74.22363,38.336792
1768033060049,-0.96875,0.22998047,-0.13671875,-0.48828125,0.7324219,-0.061035156,0.0,0.0,0.0,120.739746,74.22363,38.336792
1768033060061,-0.96875,0.22998047,-0.13671875,-0.48828125,0.7324219,-0.061035156,0.0,0.0,0.0,120.997925,74.190674,38.64441
1768033060149,-0.96777344,0.22851562,-0.13671875,-0.61035156,0.36621094,0.0,0.0,0.0,0.0,120.997925,74.190674,38.64441
1768033060160,-0.96777344,0.22851562,-0.13671875,-0.61035156,0.36621094,0.0,0.0,0.0,0.0,121.11328,74.17969,38.80371
1768033060248,-0.96972656,0.22949219,-0.14013672,0.24414062,-0.30517578,0.12207031,0.0,0.0,0.0,121.11328,74.17969,38.80371
1768033060260,-0.96972656,0.22949219,-0.14013672,0.24414062,-0.30517578,0.12207031,0.0,0.0,0.0,121.173706,74.190674,38.85315
1768033060348,-0.96533203,0.22802734,-0.13574219,-0.36621094,-1.0986328,0.18310547,0.0,0.0,0.0,121.173706,74.190674,38.85315
1768033060360,-0.96533203,0.22802734,-0.13574219,-0.36621094,-1.0986328,0.18310547,0.0,0.0,0.0,121.28906,74.21814,38.90808
1768033060448,-0.96240234,0.22802734,-0.13232422,0.12207031,0.36621094,-0.4272461,0.0,0.0,0.0,121.28906,74.21814,38.90808
1768033060459,-0.96240234,0.22802734,-0.13232422,0.12207031,0.36621094,-0.4272461,0.0,0.0,0.0,121.09131,74.2511,38.78174
1768033060548,-0.9707031,0.23095703,-0.1381836,-0.8544922,0.5493164,-0.24414062,0.0,0.0,0.0,121.09131,74.2511,38.78174
1768033060559,-0.9707031,0.23095703,-0.1381836,-0.8544922,0.5493164,-0.24414062,0.0,0.0,0.0,121.08032,74.295044,38.792725
1768033060647,-0.9707031,0.22265625,-0.14160156,-1.2207031,0.18310547,-0.061035156,0.0,0.0,0.0,121.08032,74.295044,38.792725
1768033060659,-0.9707031,0.22265625,-0.14160156,-1.2207031,0.18310547,-0.061035156,0.0,0.0,0.0,121.33301,74.295044,39.083862
1768033060747,-0.96240234,0.22753906,-0.13476562,-2.0751953,1.4038086,0.18310547,0.0,0.0,0.0,121.33301,74.295044,39.083862
1768033060758,-0.96240234,0.22753906,-0.13476562,-2.0751953,1.4038086,0.18310547,0.0,0.0,0.0,121.66809,74.229126,39.56726
1768033060847,-0.9638672,0.22851562,-0.14013672,-0.30517578,0.6713867,-0.4272461,0.0,0.0,0.0,121.66809,74.229126,39.56726
1768033060858,-0.9638672,0.22851562,-0.14013672,-0.30517578,0.6713867,-0.4272461,0.0,0.0,0.0,121.78894,74.20715,39.836426
1768033060946,-0.9658203,0.22460938,-0.13867188,1.5869141,0.0,-1.2817383,0.0,0.0,0.0,121.78894,74.20715,39.836426
1768033060958,-0.9658203,0.22460938,-0.13867188,1.5869141,0.0,-1.2817383,0.0,0.0,0.0,121.97571,74.24011,40.056152
1768033061046,-0.96777344,0.22265625,-0.13671875,-0.61035156,-0.61035156,0.18310547,0.0,0.0,0.0,121.97571,74.24011,40.056152
1768033061058,-0.96777344,0.22265625,-0.13671875,-0.61035156,-0.61035156,0.18310547,0.0,0.0,0.0,121.97571,74.30603,40.08362
1768033061146,-0.96777344,0.22558594,-0.14208984,-0.8544922,-0.61035156,0.0,0.0,0.0,0.0,121.97571,74.30603,40.08362
1768033061157,-0.96777344,0.22558594,-0.14208984,-0.8544922,-0.61035156,0.0,0.0,0.0,0.0,121.986694,74.35547,40.08362
1768033061246,-0.9711914,0.2265625,-0.14404297,-0.48828125,0.5493164,-0.24414062,0.0,0.0,0.0,121.986694,74.35547,40.08362
1768033061257,-0.9711914,0.2265625,-0.14404297,-0.48828125,0.5493164,-0.24414062,0.0,0.0,0.0,122.04712,74.37744,40.19348
1768033061345,-0.9667969,0.21972656,-0.13574219,-0.91552734,0.79345703,-0.30517578,0.0,0.0,0.0,122.04712,74.37744,40.19348
1768033061357,-0.9667969,0.21972656,-0.13574219,-0.91552734,0.79345703,-0.30517578,0.0,0.0,0.0,122.09656,74.366455,40.319824
1768033061445,-0.9667969,0.22460938,-0.13330078,-1.5869141,0.0,0.0,0.0,0.0,0.0,122.09656,74.366455,40.319824
1768033061457,-0.9667969,0.22460938,-0.13330078,-1.5869141,0.0,0.0,0.0,0.0,0.0,122.06909,74.36096,40.43518
1768033061545,-0.96435547,0.23144531,-0.1303711,0.18310547,-0.79345703,-0.30517578,0.0,0.0,0.0,122.06909,74.36096,40.43518
1768033061556,-0.96435547,0.23144531,-0.1303711,0.18310547,-0.79345703,-0.30517578,0.0,0.0,0.0,121.832886,74.43237,40.2594
1768033061644,-0.9658203,0.22314453,-0.13720703,0.0,0.061035156,-0.48828125,0.0,0.0,0.0,121.832886,74.43237,40.2594
1768033061656,-0.9658203,0.22314453,-0.13720703,0.0,0.061035156,-0.48828125,0.0,0.0,0.0,121.744995,74.50928,40.08911
1768033061744,-0.96875,0.21923828,-0.13232422,2.0141602,-0.36621094,-0.4272461,0.0,0.0,0.0,121.744995,74.50928,40.08911
1768033061756,-0.96875,0.21923828,-0.13232422,2.0141602,-0.36621094,-0.4272461,0.0,0.0,0.0,121.536255,74.52026,39.836426
1768033061844,-0.96777344,0.22363281,-0.1303711,0.8544922,0.18310547,-0.061035156,0.0,0.0,0.0,121.536255,74.52026,39.836426
1768033061856,-0.96777344,0.22363281,-0.1303711,0.8544922,0.18310547,-0.061035156,0.0,0.0,0.0,121.56372,74.53674,39.819946
1768033061943,-0.97265625,0.21875,-0.13330078,0.12207031,1.5869141,0.48828125,0.0,0.0,0.0,121.56372,74.53674,39.819946
1768033061955,-0.97265625,0.21875,-0.13330078,0.12207031,1.5869141,0.48828125,0.0,0.0,0.0,121.673584,74.487305,39.86389
1768033062043,-0.97021484,0.22509766,-0.13671875,-0.5493164,0.18310547,0.061035156,0.0,0.0,0.0,121.673584,74.487305,39.86389
1768033062055,-0.97021484,0.22509766,-0.13671875,-0.5493164,0.18310547,0.061035156,0.0,0.0,0.0,121.68457,74.46533,39.94629
1768033062143,-0.96972656,0.2241211,-0.13769531,0.0,0.79345703,0.91552734,0.0,0.0,0.0,121.68457,74.46533,39.94629
1768033062155,-0.96972656,0.2241211,-0.13769531,0.0,0.79345703,0.91552734,0.0,0.0,0.0,121.85486,74.399414,40.111084
1768033062243,-0.9682617,0.2290039,-0.13623047,-0.8544922,0.30517578,0.5493164,0.0,0.0,0.0,121.85486,74.399414,40.111084
1768033062255,-0.9682617,0.2290039,-0.13623047,-0.8544922,0.30517578,0.5493164,0.0,0.0,0.0,122.06909,74.33899,40.352783
1768033062342,-0.96435547,0.22802734,-0.13671875,0.0,0.5493164,0.36621094,0.0,0.0,0.0,122.06909,74.33899,40.352783
1768033062354,-0.96435547,0.22802734,-0.13671875,0.0,0.5493164,0.36621094,0.0,0.0,0.0,122.23389,74.262085,40.60547
1768033062442,-0.9667969,0.23095703,-0.13867188,-0.061035156,1.3427734,0.0,0.0,0.0,0.0,122.23389,74.262085,40.60547
1768033062454,-0.9667969,0.23095703,-0.13867188,-0.061035156,1.3427734,0.0,0.0,0.0,0.0,122.59094,74.21265,40.979004
1768033062542,-0.9736328,0.2241211,-0.14648438,1.0986328,0.91552734,-0.12207031,0.0,0.0,0.0,122.59094,74.21265,40.979004
1768033062553,-0.9736328,0.2241211,-0.14648438,1.0986328,0.91552734,-0.12207031,0.0,0.0,0.0,122.98096,74.18518,41.314087
1768033062641,-0.9628906,0.22607422,-0.15185547,3.112793,1.953125,-0.24414062,0.0,0.0,0.0,122.98096,74.18518,41.314087
1768033062653,-0.9628906,0.22607422,-0.15185547,3.112793,1.953125,-0.24414062,0.0,0.0,0.0,123.65662,74.1687,41.863403
1768033062742,-0.96191406,0.21728516,-0.14794922,-1.953125,0.4272461,0.6713867,0.0,0.0,0.0,123.65662,74.1687,41.863403
1768033062753,-0.96191406,0.21728516,-0.14794922,-1.953125,0.4272461,0.6713867,0.0,0.0,0.0,124.27185,74.02588,42.495117
1768033062841,-0.9609375,0.2290039,-0.15185547,0.5493164,1.0986328,-0.61035156,0.0,0.0,0.0,124.27185,74.02588,42.495117
1768033062852,-0.9609375,0.2290039,-0.15185547,0.5493164,1.0986328,-0.61035156,0.0,0.0,0.0,124.3103,74.0094,42.648926
1768033062941,-0.9682617,0.2290039,-0.15136719,-0.9765625,0.30517578,1.5258789,0.0,0.0,0.0,124.3103,74.0094,42.648926
1768033062952,-0.9682617,0.2290039,-0.15136719,-0.9765625,0.30517578,1.5258789,0.0,0.0,0.0,123.95325,73.93799,42.39624
1768033063040,-0.9638672,0.23291016,-0.15332031,-0.061035156,-1.7700195,0.36621094,0.0,0.0,0.0,123.95325,73.93799,42.39624
1768033063052,-0.9638672,0.23291016,-0.15332031,-0.061035156,-1.7700195,0.36621094,0.0,0.0,0.0,123.80493,73.927,42.24243
1768033063140,-0.96875,0.2265625,-0.15820312,1.8920898,-0.4272461,0.24414062,0.0,0.0,0.0,123.80493,73.927,42.24243
1768033063152,-0.96875,0.2265625,-0.15820312,1.8920898,-0.4272461,0.24414062,0.0,0.0,0.0,123.70056,73.95447,41.984253
1768033063240,-0.95996094,0.22460938,-0.14257812,0.79345703,-0.8544922,0.24414062,0.0,0.0,0.0,123.70056,73.95447,41.984253
1768033063251,-0.95996094,0.22460938,-0.14257812,0.79345703,-0.8544922,0.24414062,0.0,0.0,0.0,123.6676,73.90503,41.852417
1768033063339,-0.9658203,0.2265625,-0.14794922,-0.7324219,0.61035156,0.36621094,0.0,0.0,0.0,123.6676,73.90503,41.852417
1768033063351,-0.9658203,0.2265625,-0.14794922,-0.7324219,0.61035156,0.36621094,0.0,0.0,0.0,123.50281,73.92151,41.643677
1768033063439,-0.96484375,0.2290039,-0.14550781,-1.7089844,-0.61035156,0.4272461,0.0,0.0,0.0,123.50281,73.92151,41.643677
1768033063451,-0.96484375,0.2290039,-0.14550781,-1.7089844,-0.61035156,0.4272461,0.0,0.0,0.0,123.26111,73.932495,41.45691
1768033063539,-0.96875,0.22558594,-0.15234375,-1.3427734,-0.7324219,-0.061035156,0.0,0.0,0.0,123.26111,73.932495,41.45691
1768033063550,-0.96875,0.22558594,-0.15234375,-1.3427734,-0.7324219,-0.061035156,0.0,0.0,0.0,123.07434,74.0094,41.281128
1768033063639,-0.9609375,0.23095703,-0.14257812,-1.0986328,-0.8544922,-0.79345703,0.0,0.0,0.0,123.07434,74.0094,41.281128
1768033063650,-0.9609375,0.23095703,-0.14257812,-1.0986328,-0.8544922,-0.79345703,0.0,0.0,0.0,122.89856,74.03137,41.3031
1768033063738,-0.9633789,0.23388672,-0.13671875,-0.48828125,-0.9765625,-0.48828125,0.0,0.0,0.0,122.89856,74.03137,41.3031
1768033063750,-0.9633789,0.23388672,-0.13671875,-0.48828125,-0.9765625,-0.48828125,0.0,0.0,0.0,122.75574,74.11377,41.297607
1768033063838,-0.96777344,0.22314453,-0.14257812,0.12207031,0.18310547,-0.6713867,0.0,0.0,0.0,122.75574,74.11377,41.297607
1768033063850,-0.96777344,0.22314453,-0.14257812,0.12207031,0.18310547,-0.6713867,0.0,0.0,0.0,122.69531,74.21814,41.21521
1768033063938,-0.9658203,0.22851562,-0.14160156,-0.24414062,-0.79345703,-0.5493164,0.0,0.0,0.0,122.69531,74.21814,41.21521
1768033063949,-0.9658203,0.22851562,-0.14160156,-0.24414062,-0.79345703,-0.5493164,0.0,0.0,0.0,122.71179,74.31702,41.27014
1768033064038,-0.96777344,0.22558594,-0.1430664,0.8544922,-0.18310547,0.48828125,0.0,0.0,0.0,122.71179,74.31702,41.27014
1768033064049,-0.96777344,0.22558594,-0.1430664,0.8544922,-0.18310547,0.48828125,0.0,0.0,0.0,122.66235,74.36096,41.204224
1768033064137,-0.97216797,0.22802734,-0.13671875,-1.5869141,-1.3427734,-0.91552734,0.0,0.0,0.0,122.66235,74.36096,41.204224
1768033064149,-0.97216797,0.22802734,-0.13671875,-1.5869141,-1.3427734,-0.91552734,0.0,0.0,0.0,122.733765,74.40491,41.341553
1768033064237,-0.9658203,0.21728516,-0.13232422,-0.36621094,-0.061035156,0.061035156,0.0,0.0,0.0,122.733765,74.40491,41.341553
1768033064248,-0.9658203,0.21728516,-0.13232422,-0.36621094,-0.061035156,0.061035156,0.0,0.0,0.0,122.57446,74.44336,41.341553
1768033064337,-0.96777344,0.23339844,-0.13671875,1.0375977,-0.5493164,-0.061035156,0.0,0.0,0.0,122.57446,74.44336,41.341553
1768033064348,-0.96777344,0.23339844,-0.13671875,1.0375977,-0.5493164,-0.061035156,0.0,0.0,0.0,122.13501,74.50928,40.94055
1768033064436,-0.9609375,0.22509766,-0.13427734,2.4414062,-3.112793,0.36621094,0.0,0.0,0.0,122.13501,74.50928,40.94055
1768033064448,-0.9609375,0.22509766,-0.13427734,2.4414062,-3.112793,0.36621094,0.0,0.0,0.0,122.02515,74.558716,40.654907
1768033064536,-0.96533203,0.21289062,-0.13085938,2.1972656,-1.0986328,-0.7324219,0.0,0.0,0.0,122.02515,74.558716,40.654907
1768033064548,-0.96533203,0.21289062,-0.13085938,2.1972656,-1.0986328,-0.7324219,0.0,0.0,0.0,121.8988,74.70154,40.220947
1768033064636,-0.97216797,0.21435547,-0.13330078,2.2583008,-0.9765625,-0.7324219,0.0,0.0,0.0,121.8988,74.70154,40.220947
1768033064647,-0.97216797,0.21435547,-0.13330078,2.2583008,-0.9765625,-0.7324219,0.0,0.0,0.0,121.71753,74.8114,39.8584
1768033064735,-0.96777344,0.20996094,-0.123046875,2.4414062,-0.8544922,-0.7324219,0.0,0.0,0.0,121.71753,74.8114,39.8584
1768033064747,-0.96777344,0.20996094,-0.123046875,2.4414062,-0.8544922,-0.7324219,0.0,0.0,0.0,121.56372,74.888306,39.517822
1768033064835,-0.97509766,0.21533203,-0.12988281,-0.30517578,-0.18310547,0.79345703,0.0,0.0,0.0,121.56372,74.888306,39.517822
1768033064847,-0.97509766,0.21533203,-0.12988281,-0.30517578,-0.18310547,0.79345703,0.0,0.0,0.0,121.25061,74.9707,39.105835
1768033064935,-0.97021484,0.22070312,-0.1303711,-0.91552734,-0.48828125,-0.6713867,0.0,0.0,0.0,121.25061,74.9707,39.105835
1768033064946,-0.97021484,0.22070312,-0.1303711,-0.91552734,-0.48828125,-0.6713867,0.0,0.0,0.0,121.12976,75.009155,39.023438
1768033065035,-0.98828125,0.21044922,-0.1328125,-0.5493164,0.8544922,-0.7324219,0.0,0.0,0.0,121.12976,75.009155,39.023438
1768033065046,-0.98828125,0.21044922,-0.1328125,-0.5493164,0.8544922,-0.7324219,0.0,0.0,0.0,121.15173,75.03662,39.10034
1768033065134,-0.95996094,0.20361328,-0.12402344,2.1362305,2.5634766,-2.6245117,0.0,0.0,0.0,121.15173,75.03662,39.10034
1768033065146,-0.95996094,0.20361328,-0.12402344,2.1362305,2.5634766,-2.6245117,0.0,0.0,0.0,121.624146,75.09155,39.51233
1768033065234,-0.98095703,0.21679688,-0.12695312,-5.79834,-2.5024414,0.61035156,0.0,0.0,0.0,121.624146,75.09155,39.51233
1768033065245,-0.98095703,0.21679688,-0.12695312,-5.79834,-2.5024414,0.61035156,0.0,0.0,0.0,121.849365,75.217896,39.88037
1768033065334,-0.9692383,0.21777344,-0.12451172,-4.3945312,0.61035156,-0.5493164,0.0,0.0,0.0,121.849365,75.217896,39.88037
1768033065345,-0.9692383,0.21777344,-0.12451172,-4.3945312,0.61035156,-0.5493164,0.0,0.0,0.0,121.47583,75.355225,39.874878
1768033065433,-0.96728516,0.22607422,-0.119140625,-7.5683594,-1.159668,-2.6245117,0.0,0.0,0.0,121.47583,75.355225,39.874878
1768033065445,-0.96728516,0.22607422,-0.119140625,-7.5683594,-1.159668,-2.6245117,0.0,0.0,0.0,121.415405,75.52002,40.4187
1768033065533,-0.9692383,0.20410156,-0.13378906,-0.48828125,4.272461,-1.8920898,0.0,0.0,0.0,121.415405,75.52002,40.4187
1768033065545,-0.9692383,0.20410156,-0.13378906,-0.48828125,4.272461,-1.8920898,0.0,0.0,0.0,120.64087,75.668335,40.281372
1768033065633,-0.97558594,0.19970703,-0.114746094,-6.713867,-1.3427734,-1.0986328,0.0,0.0,0.0,120.64087,75.668335,40.281372
1768033065644,-0.97558594,0.19970703,-0.114746094,-6.713867,-1.3427734,-1.0986328,0.0,0.0,0.0,120.910034,75.69031,41.028442
1768033065732,-0.97802734,0.20361328,-0.12451172,-2.2583008,2.6855469,-1.0375977,0.0,0.0,0.0,120.910034,75.69031,41.028442
1768033065744,-0.97802734,0.20361328,-0.12451172,-2.2583008,2.6855469,-1.0375977,0.0,0.0,0.0,121.37146,75.805664,41.709595
1768033065832,-0.9760742,0.21142578,-0.12939453,-0.30517578,1.3427734,0.061035156,0.0,0.0,0.0,121.37146,75.805664,41.709595
1768033065844,-0.9760742,0.21142578,-0.12939453,-0.30517578,1.3427734,0.061035156,0.0,0.0,0.0,121.37695,75.81116,41.863403
1768033065932,-0.9736328,0.19433594,-0.122558594,-0.30517578,-0.5493164,-0.12207031,0.0,0.0,0.0,121.37695,75.81116,41.863403
1768033065944,-0.9736328,0.19433594,-0.122558594,-0.30517578,-0.5493164,-0.12207031,0.0,0.0,0.0,121.79443,75.75073,42.330322
1768033066032,-0.96972656,0.20507812,-0.12402344,0.24414062,1.953125,-0.61035156,0.0,0.0,0.0,121.79443,75.75073,42.330322
1768033066043,-0.96972656,0.20507812,-0.12402344,0.24414062,1.953125,-0.61035156,0.0,0.0,0.0,122.3822,75.79468,42.93457
1768033066131,-0.97558594,0.20654297,-0.13183594,-0.18310547,0.18310547,2.6855469,0.0,0.0,0.0,122.3822,75.79468,42.93457
1768033066143,-0.97558594,0.20654297,-0.13183594,-0.18310547,0.18310547,2.6855469,0.0,0.0,0.0,122.195435,75.69031,42.81372
1768033066231,-0.9814453,0.20654297,-0.12451172,-1.5258789,0.12207031,1.2817383,0.0,0.0,0.0,122.195435,75.69031,42.81372
1768033066243,-0.9814453,0.20654297,-0.12451172,-1.5258789,0.12207031,1.2817383,0.0,0.0,0.0,122.15149,75.51453,42.786255
1768033066331,-0.9824219,0.2163086,-0.13671875,0.18310547,1.0375977,-0.79345703,0.0,0.0,0.0,122.15149,75.51453,42.786255
1768033066342,-0.9824219,0.2163086,-0.13671875,0.18310547,1.0375977,-0.79345703,0.0,0.0,0.0,122.283325,75.6189,42.90161
1768033066430,-0.97802734,0.20898438,-0.1171875,0.18310547,0.0,0.8544922,0.0,0.0,0.0,122.283325,75.6189,42.90161
1768033066442,-0.97802734,0.20898438,-0.1171875,0.18310547,0.0,0.8544922,0.0,0.0,0.0,123.063354,75.459595,43.780518
1768033066531,-0.96875,0.22021484,-0.14160156,2.5634766,0.7324219,2.0751953,0.0,0.0,0.0,123.063354,75.459595,43.780518
1768033066542,-0.96875,0.22021484,-0.14160156,2.5634766,0.7324219,2.0751953,0.0,0.0,0.0,122.32727,75.43762,43.154297
1768033066630,-0.95947266,0.21191406,-0.13330078,14.404297,-5.493164,0.9765625,0.0,0.0,0.0,122.32727,75.43762,43.154297
1768033066641,-0.95947266,0.21191406,-0.13330078,14.404297,-5.493164,0.9765625,0.0,0.0,0.0,122.145996,75.3772,41.99524
1768033066730,-0.9682617,0.20947266,-0.12890625,12.145996,-3.90625,3.479004,0.0,0.0,0.0,122.145996,75.3772,41.99524
1768033066742,-0.9682617,0.20947266,-0.12890625,12.145996,-3.90625,3.479004,0.0,0.0,0.0,121.15723,75.426636,39.60022
1768033066829,-0.97998047,0.20751953,-0.13183594,13.793945,-5.432129,5.004883,0.0,0.0,0.0,121.15723,75.426636,39.60022
1768033066841,-0.97998047,0.20751953,-0.13183594,13.793945,-5.432129,5.004883,0.0,0.0,0.0,119.52576,75.31677,36.49109
1768033066929,-0.96875,0.21484375,-0.122558594,10.253906,-3.6621094,4.8217773,0.0,0.0,0.0,119.52576,75.31677,36.49109
1768033066940,-0.96875,0.21484375,-0.122558594,10.253906,-3.6621094,4.8217773,0.0,0.0,0.0,118.861084,75.08057,34.33777
1768033067029,-0.9711914,0.22851562,-0.11767578,12.207031,-2.4414062,3.90625,0.0,0.0,0.0,118.861084,75.08057,34.33777
1768033067041,-0.9711914,0.22851562,-0.11767578,12.207031,-2.4414062,3.90625,0.0,0.0,0.0,117.976685,74.871826,32.129517
1768033067128,-0.9692383,0.22070312,-0.11328125,8.178711,-3.7841797,4.211426,0.0,0.0,0.0,117.976685,74.871826,32.129517
1768033067140,-0.9692383,0.22070312,-0.11328125,8.178711,-3.7841797,4.211426,0.0,0.0,0.0,117.37793,74.68506,30.377197
1768033067228,-0.9638672,0.22216797,-0.11230469,6.7749023,-2.5634766,3.4179688,0.0,0.0,0.0,117.37793,74.68506,30.377197
1768033067240,-0.9638672,0.22216797,-0.11230469,6.7749023,-2.5634766,3.4179688,0.0,0.0,0.0,116.71326,74.53125,28.789673
1768033067328,-0.95214844,0.23730469,-0.11035156,3.1738281,-5.493164,5.493164,0.0,0.0,0.0,116.71326,74.53125,28.789673
1768033067340,-0.95214844,0.23730469,-0.11035156,3.1738281,-5.493164,5.493164,0.0,0.0,0.0,115.21912,74.41589,26.608887
1768033067427,-0.96777344,0.24902344,-0.10888672,3.112793,-3.4179688,5.432129,0.0,0.0,0.0,115.21912,74.41589,26.608887
1768033067439,-0.96777344,0.24902344,-0.10888672,3.112793,-3.4179688,5.432129,0.0,0.0,0.0,112.61536,74.053345,23.527222
1768033067527,-0.95214844,0.25927734,-0.08886719,0.5493164,-5.3100586,5.6762695,0.0,0.0,0.0,112.61536,74.053345,23.527222
1768033067539,-0.95214844,0.25927734,-0.08886719,0.5493164,-5.3100586,5.6762695,0.0,0.0,0.0,111.121216,73.71277,21.571655
1768033067627,-0.94970703,0.24169922,-0.09082031,1.6479492,-6.3476562,9.58252,0.0,0.0,0.0,111.121216,73.71277,21.571655
1768033067638,-0.94970703,0.24169922,-0.09082031,1.6479492,-6.3476562,9.58252,0.0,0.0,0.0,108.73718,73.26782,18.753662
1768033067727,-0.9902344,0.2705078,-0.09326172,-4.0893555,-7.507324,11.71875,0.0,0.0,0.0,108.73718,73.26782,18.753662
1768033067739,-0.9902344,0.2705078,-0.09326172,-4.0893555,-7.507324,11.71875,0.0,0.0,0.0,104.573364,72.438354,14.249268
1768033067826,-0.9423828,0.328125,-0.05810547,-4.1503906,-3.0517578,7.9956055,0.0,0.0,0.0,104.573364,72.438354,14.249268
1768033067838,-0.9423828,0.328125,-0.05810547,-4.1503906,-3.0517578,7.9956055,0.0,0.0,0.0,103.20007,71.691284,12.678223
1768033067926,-0.94384766,0.33935547,-0.038085938,3.3569336,-7.080078,2.746582,0.0,0.0,0.0,103.20007,71.691284,12.678223
1768033067937,-0.94384766,0.33935547,-0.038085938,3.3569336,-7.080078,2.746582,0.0,0.0,0.0,101.14563,71.18591,10.376587
1768033068026,-0.9536133,0.3149414,-0.04345703,1.4648438,0.30517578,1.7700195,0.0,0.0,0.0,101.14563,71.18591,10.376587
1768033068037,-0.9536133,0.3149414,-0.04345703,1.4648438,0.30517578,1.7700195,0.0,0.0,0.0,100.72266,71.0376,9.508667
1768033068125,-0.94628906,0.33154297,-0.049804688,-4.8217773,-1.5258789,3.479004,0.0,0.0,0.0,100.72266,71.0376,9.508667
1768033068137,-0.94628906,0.33154297,-0.049804688,-4.8217773,-1.5258789,3.479004,0.0,0.0,0.0,99.93164,70.927734,8.7890625
1768033068225,-0.94091797,0.33984375,-0.032714844,-4.638672,-4.211426,5.065918,0.0,0.0,0.0,99.93164,70.927734,8.7890625
1768033068237,-0.94091797,0.33984375,-0.032714844,-4.638672,-4.211426,5.065918,0.0,0.0,0.0,98.60779,70.48279,7.833252
1768033068325,-0.92822266,0.3720703,-0.016113281,-2.6245117,-4.1503906,7.3242188,0.0,0.0,0.0,98.60779,70.48279,7.833252
1768033068336,-0.92822266,0.3720703,-0.016113281,-2.6245117,-4.1503906,7.3242188,0.0,0.0,0.0,96.63574,69.88403,6.1853027
1768033068424,-0.94433594,0.36767578,-0.0068359375,0.061035156,-11.413574,10.253906,0.0,0.0,0.0,96.63574,69.88403,6.1853027
1768033068436,-0.94433594,0.36767578,-0.0068359375,0.061035156,-11.413574,10.253906,0.0,0.0,0.0,93.70239,69.01062,3.1750488
1768033068524,-0.94677734,0.3803711,-0.015136719,5.859375,0.4272461,6.4086914,0.0,0.0,0.0,93.70239,69.01062,3.1750488
1768033068536,-0.94677734,0.3803711,-0.015136719,5.859375,0.4272461,6.4086914,0.0,0.0,0.0,93.114624,68.219604,1.9775391
1768033068624,-0.9223633,0.39648438,-0.005859375,6.5307617,-1.8920898,3.7231445,0.0,0.0,0.0,93.114624,68.219604,1.9775391
1768033068636,-0.9223633,0.39648438,-0.005859375,6.5307617,-1.8920898,3.7231445,0.0,0.0,0.0,93.52112,67.71423,1.8182373
1768033068724,-0.9140625,0.38476562,-0.0053710938,10.192871,-3.3569336,1.0375977,0.0,0.0,0.0,93.52112,67.71423,1.8182373
1768033068735,-0.9140625,0.38476562,-0.0053710938,10.192871,-3.3569336,1.0375977,0.0,0.0,0.0,93.499146,67.39563,1.005249
1768033068823,-0.9238281,0.3701172,-0.0034179688,5.3710938,-4.5166016,-2.6855469,0.0,0.0,0.0,93.499146,67.39563,1.005249
1768033068836,-0.9238281,0.3701172,-0.0034179688,5.3710938,-4.5166016,-2.6855469,0.0,0.0,0.0,93.51013,67.560425,0.15930176
1768033068923,-0.93066406,0.37402344,-0.0053710938,2.5024414,-5.554199,-5.859375,0.0,0.0,0.0,93.51013,67.560425,0.15930176
1768033068935,-0.93066406,0.37402344,-0.0053710938,2.5024414,-5.554199,-5.859375,0.0,0.0,0.0,92.56531,67.98889,-1.1755371
1768033069023,-0.9350586,0.38916016,-0.0078125,3.90625,-3.7231445,-3.540039,0.0,0.0,0.0,92.56531,67.98889,-1.1755371
1768033069034,-0.9350586,0.38916016,-0.0078125,3.90625,-3.7231445,-3.540039,0.0,0.0,0.0,91.81824,68.532715,-2.3016357
1768033069123,-0.9316406,0.38964844,0.0014648438,7.3242188,-1.2817383,-1.2207031,0.0,0.0,0.0,91.81824,68.532715,-2.3016357
1768033069134,-0.9316406,0.38964844,0.0014648438,7.3242188,-1.2817383,-1.2207031,0.0,0.0,0.0,91.56006,68.69202,-3.1585693
1768033069222,-0.94091797,0.36279297,0.01171875,7.3242188,0.79345703,-6.225586,0.0,0.0,0.0,91.56006,68.69202,-3.1585693
1768033069234,-0.94091797,0.36279297,0.01171875,7.3242188,0.79345703,-6.225586,0.0,0.0,0.0,92.09839,68.90625,-3.383789
1768033069322,-0.95703125,0.34814453,-0.01171875,2.1972656,1.6479492,-9.094238,0.0,0.0,0.0,92.09839,68.90625,-3.383789
1768033069333,-0.95703125,0.34814453,-0.01171875,2.1972656,1.6479492,-9.094238,0.0,0.0,0.0,93.14758,69.63684,-2.5982666
1768033069422,-0.95214844,0.35302734,-0.029296875,4.699707,9.58252,-9.155273,0.0,0.0,0.0,93.14758,69.63684,-2.5982666
1768033069433,-0.95214844,0.35302734,-0.029296875,4.699707,9.58252,-9.155273,0.0,0.0,0.0,94.993286,70.510254,-0.8074951
1768033069521,-0.91748047,0.35302734,-0.021972656,11.291504,1.7089844,-5.859375,0.0,0.0,0.0,94.993286,70.510254,-0.8074951
1768033069533,-0.91748047,0.35302734,-0.021972656,11.291504,1.7089844,-5.859375,0.0,0.0,0.0,97.421265,71.032104,1.1810303
1768033069621,-0.9472656,0.33642578,-0.028808594,15.869141,-2.9296875,-4.333496,0.0,0.0,0.0,97.421265,71.032104,1.1810303
1768033069633,-0.9472656,0.33642578,-0.028808594,15.869141,-2.9296875,-4.333496,0.0,0.0,0.0,98.618774,71.433105,1.0986328
1768033069721,-0.9472656,0.33544922,-0.020996094,20.324707,-7.6904297,-2.8686523,0.0,0.0,0.0,98.618774,71.433105,1.0986328
1768033069732,-0.9472656,0.33544922,-0.020996094,20.324707,-7.6904297,-2.8686523,0.0,0.0,0.0,99.107666,71.795654,-0.07141113
1768033069820,-0.96875,0.29589844,-0.047851562,22.033691,-2.0141602,-4.0283203,0.0,0.0,0.0,99.107666,71.795654,-0.07141113
1768033069832,-0.96875,0.29589844,-0.047851562,22.033691,-2.0141602,-4.0283203,0.0,0.0,0.0,99.60205,72.1637,-1.7578125
1768033069920,-0.95947266,0.29589844,-0.037597656,6.5307617,0.7324219,-5.79834,0.0,0.0,0.0,99.60205,72.1637,-1.7578125
1768033069932,-0.95947266,0.29589844,-0.037597656,6.5307617,0.7324219,-5.79834,0.0,0.0,0.0,101.277466,72.58118,-1.104126
1768033070020,-0.9667969,0.2734375,-0.045898438,3.7841797,1.0986328,-5.859375,0.0,0.0,0.0,101.277466,72.58118,-1.104126
1768033070031,-0.9667969,0.2734375,-0.045898438,3.7841797,1.0986328,-5.859375,0.0,0.0,0.0,102.30469,73.08655,-0.3515625
1768033070119,-0.9663086,0.25439453,-0.044433594,-4.3945312,0.4272461,-8.178711,0.0,0.0,0.0,102.30469,73.08655,-0.3515625
1768033070131,-0.9663086,0.25439453,-0.044433594,-4.3945312,0.4272461,-8.178711,0.0,0.0,0.0,103.04077,73.80066,0.66467285
1768033070219,-0.9667969,0.2631836,-0.029296875,-3.9672852,-4.1503906,-10.253906,0.0,0.0,0.0,103.04077,73.80066,0.66467285
1768033070231,-0.9667969,0.2631836,-0.029296875,-3.9672852,-4.1503906,-10.253906,0.0,0.0,0.0,101.89819,74.679565,0.31311035
1768033070319,-0.9863281,0.24072266,-0.04638672,12.878418,-10.559082,-10.803223,0.0,0.0,0.0,101.89819,74.679565,0.31311035
1768033070330,-0.9863281,0.24072266,-0.04638672,12.878418,-10.559082,-10.803223,0.0,0.0,0.0,99.61304,75.83313,-2.7630615
1768033070419,-0.9589844,0.2211914,-0.029785156,19.958496,-7.751465,-7.9956055,0.0,0.0,0.0,99.61304,75.83313,-2.7630615
1768033070430,-0.9589844,0.2211914,-0.029785156,19.958496,-7.751465,-7.9956055,0.0,0.0,0.0,98.47595,76.80542,-5.8502197
1768033070518,-0.9746094,0.16113281,-0.021484375,20.507812,-3.2348633,-9.58252,0.0,0.0,0.0,98.47595,76.80542,-5.8502197
1768033070530,-0.9746094,0.16113281,-0.021484375,20.507812,-3.2348633,-9.58252,0.0,0.0,0.0,98.66821,77.73926,-8.00354
1768033070618,-1.0068359,0.20800781,-0.036621094,15.563965,-5.065918,-5.92041,0.0,0.0,0.0,98.66821,77.73926,-8.00354
1768033070630,-1.0068359,0.20800781,-0.036621094,15.563965,-5.065918,-5.92041,0.0,0.0,0.0,99.04724,78.552246,-9.349365
1768033070718,-0.9794922,0.14453125,-0.0390625,9.94873,2.5634766,-4.760742,0.0,0.0,0.0,99.04724,78.552246,-9.349365
1768033070730,-0.9794922,0.14453125,-0.0390625,9.94873,2.5634766,-4.760742,0.0,0.0,0.0,101.20056,79.06311,-8.55835
1768033070817,-1.0249023,0.122558594,-0.09375,-2.6855469,2.6245117,-5.9814453,0.0,0.0,0.0,101.20056,79.06311,-8.55835
1768033070829,-1.0249023,0.122558594,-0.09375,-2.6855469,2.6245117,-5.9814453,0.0,0.0,0.0,102.52991,79.73328,-7.9211426
1768033070917,-0.9819336,0.12011719,-0.07519531,-4.0283203,2.746582,-7.2021484,0.0,0.0,0.0,102.52991,79.73328,-7.9211426
1768033070929,-0.9819336,0.12011719,-0.07519531,-4.0283203,2.746582,-7.2021484,0.0,0.0,0.0,107.506714,80.304565,-3.2354736
1768033071017,-1.0234375,0.107421875,-0.08642578,-1.953125,5.6762695,-8.056641,0.0,0.0,0.0,107.506714,80.304565,-3.2354736
1768033071028,-1.0234375,0.107421875,-0.08642578,-1.953125,5.6762695,-8.056641,0.0,0.0,0.0,108.863525,80.963745,-2.1203613
1768033071116,-0.97314453,0.10839844,-0.079589844,-0.061035156,3.7231445,-5.1879883,0.0,0.0,0.0,108.863525,80.963745,-2.1203613
1768033071128,-0.97314453,0.10839844,-0.079589844,-0.061035156,3.7231445,-5.1879883,0.0,0.0,0.0,115.49927,81.44714,3.7738037
1768033071216,-0.9785156,0.08935547,-0.09082031,5.6152344,-1.159668,-6.958008,0.0,0.0,0.0,115.49927,81.44714,3.7738037
1768033071228,-0.9785156,0.08935547,-0.09082031,5.6152344,-1.159668,-6.958008,0.0,0.0,0.0,119.036865,81.94153,6.569824
1768033071316,-0.99121094,0.06347656,-0.08496094,10.009766,3.0517578,-5.493164,0.0,0.0,0.0,119.036865,81.94153,6.569824
1768033071327,-0.99121094,0.06347656,-0.08496094,10.009766,3.0517578,-5.493164,0.0,0.0,0.0,123.87085,82.369995,10.118408
1768033071415,-0.9863281,0.0625,-0.06982422,11.84082,4.4555664,-1.5258789,0.0,0.0,0.0,123.87085,82.369995,10.118408
1768033071427,-0.9863281,0.0625,-0.06982422,11.84082,4.4555664,-1.5258789,0.0,0.0,0.0,126.51306,82.54028,11.738892
1768033071515,-0.9868164,0.03955078,-0.10107422,8.056641,2.4414062,1.4648438,0.0,0.0,0.0,126.51306,82.54028,11.738892
1768033071527,-0.9868164,0.03955078,-0.10107422,8.056641,2.4414062,1.4648438,0.0,0.0,0.0,131.88538,82.353516,15.985107
1768033071615,-0.99560547,0.06347656,-0.09423828,9.277344,1.5869141,0.9765625,0.0,0.0,0.0,131.88538,82.353516,15.985107
1768033071626,-0.99560547,0.06347656,-0.09423828,9.277344,1.5869141,0.9765625,0.0,0.0,0.0,134.37927,81.919556,17.155151
1768033071715,-1.0195312,0.07910156,-0.10498047,28.564453,6.0424805,1.953125,0.0,0.0,0.0,134.37927,81.919556,17.155151
1768033071726,-1.0195312,0.07910156,-0.10498047,28.564453,6.0424805,1.953125,0.0,0.0,0.0,134.54407,81.67236,15.270996
1768033071815,-0.9824219,-4.8828125E-4,-0.078125,11.047363,0.9765625,1.0375977,0.0,0.0,0.0,134.54407,81.67236,15.270996
1768033071826,-0.9824219,-4.8828125E-4,-0.078125,11.047363,0.9765625,1.0375977,0.0,0.0,0.0,139.49341,81.58447,17.72644
1768033071914,-1.0146484,0.046875,-0.079589844,-6.164551,-2.380371,0.5493164,0.0,0.0,0.0,139.49341,81.58447,17.72644
1768033071925,-1.0146484,0.046875,-0.079589844,-6.164551,-2.380371,0.5493164,0.0,0.0,0.0,139.46594,81.66687,16.452026
1768033072014,-0.9951172,0.114746094,-0.08691406,-4.3945312,3.112793,1.8920898,0.0,0.0,0.0,139.46594,81.66687,16.452026
1768033072026,-0.9951172,0.114746094,-0.08691406,-4.3945312,3.112793,1.8920898,0.0,0.0,0.0,138.23547,81.61743,15.325928
1768033072113,-0.99072266,0.122558594,-0.095703125,-9.82666,1.8920898,4.0893555,0.0,0.0,0.0,138.23547,81.61743,15.325928
1768033072125,-0.99072266,0.122558594,-0.095703125,-9.82666,1.8920898,4.0893555,0.0,0.0,0.0,136.42273,81.41968,14.441528
1768033072213,-0.99902344,0.12988281,-0.087890625,-12.6953125,5.493164,3.112793,0.0,0.0,0.0,136.42273,81.41968,14.441528
1768033072225,-0.99902344,0.12988281,-0.087890625,-12.6953125,5.493164,3.112793,0.0,0.0,0.0,135.20325,80.755005,14.837036
1768033072313,-0.95947266,0.14355469,-0.095214844,-12.573242,5.7373047,2.0141602,0.0,0.0,0.0,135.20325,80.755005,14.837036
1768033072324,-0.95947266,0.14355469,-0.095214844,-12.573242,5.7373047,2.0141602,0.0,0.0,0.0,135.70862,80.1178,17.177124
1768033072412,-1.0175781,0.17041016,-0.15429688,-9.82666,0.5493164,5.6152344,0.0,0.0,0.0,135.70862,80.1178,17.177124
1768033072424,-1.0175781,0.17041016,-0.15429688,-9.82666,0.5493164,5.6152344,0.0,0.0,0.0,133.53882,79.766235,16.842041
1768033072513,-0.9433594,0.19726562,-0.12207031,-3.6621094,12.268066,8.728027,0.0,0.0,0.0,133.53882,79.766235,16.842041
1768033072524,-0.9433594,0.19726562,-0.12207031,-3.6621094,12.268066,8.728027,0.0,0.0,0.0,134.29688,78.49182,18.709717
1768033072612,-0.97998047,0.19873047,-0.16259766,-1.2207031,2.380371,8.7890625,0.0,0.0,0.0,134.29688,78.49182,18.709717
1768033072623,-0.97998047,0.19873047,-0.16259766,-1.2207031,2.380371,8.7890625,0.0,0.0,0.0,131.51184,77.475586,16.831055
1768033072712,-0.96533203,0.26464844,-0.14453125,9.58252,0.7324219,3.6621094,0.0,0.0,0.0,131.51184,77.475586,16.831055
1768033072723,-0.96533203,0.26464844,-0.14453125,9.58252,0.7324219,3.6621094,0.0,0.0,0.0,130.81421,76.536255,16.298218
1768033072811,-0.9868164,0.21777344,-0.17919922,20.324707,0.61035156,-4.5166016,0.0,0.0,0.0,130.81421,76.536255,16.298218
1768033072823,-0.9868164,0.21777344,-0.17919922,20.324707,0.61035156,-4.5166016,0.0,0.0,0.0,133.17627,76.45386,17.660522
1768033072911,-0.95410156,0.1899414,-0.15722656,29.23584,1.2207031,-4.3945312,0.0,0.0,0.0,133.17627,76.45386,17.660522
1768033072923,-0.95410156,0.1899414,-0.15722656,29.23584,1.2207031,-4.3945312,0.0,0.0,0.0,136.51611,76.52527,19.385376
1768033073011,-0.9692383,0.15771484,-0.17285156,18.920898,-5.004883,3.8452148,0.0,0.0,0.0,136.51611,76.52527,19.385376
1768033073022,-0.9692383,0.15771484,-0.17285156,18.920898,-5.004883,3.8452148,0.0,0.0,0.0,138.32336,76.52527,19.379883
1768033073111,-0.97021484,0.16113281,-0.19140625,10.375977,-1.4648438,5.2490234,0.0,0.0,0.0,138.32336,76.52527,19.379883
1768033073122,-0.97021484,0.16113281,-0.19140625,10.375977,-1.4648438,5.2490234,0.0,0.0,0.0,137.12036,76.415405,16.896973
1768033073211,-0.96777344,0.18554688,-0.18164062,1.3427734,-12.145996,6.286621,0.0,0.0,0.0,137.12036,76.415405,16.896973
1768033073222,-0.96777344,0.18554688,-0.18164062,1.3427734,-12.145996,6.286621,0.0,0.0,0.0,134.88464,76.37146,13.842773
1768033073310,-0.99560547,0.2211914,-0.1665039,-0.6713867,-2.4414062,3.8452148,0.0,0.0,0.0,134.88464,76.37146,13.842773
1768033073322,-0.99560547,0.2211914,-0.1665039,-0.6713867,-2.4414062,3.8452148,0.0,0.0,0.0,130.35828,76.47583,9.277954
1768033073410,-0.92285156,0.23828125,-0.13720703,3.2348633,-0.4272461,3.2348633,0.0,0.0,0.0,130.35828,76.47583,9.277954
1768033073422,-0.92285156,0.23828125,-0.13720703,3.2348633,-0.4272461,3.2348633,0.0,0.0,0.0,129.34204,76.06384,8.404541
1768033073509,-1.0039062,0.16992188,-0.140625,-3.1738281,-2.9907227,0.8544922,0.0,0.0,0.0,129.34204,76.06384,8.404541
1768033073521,-1.0039062,0.16992188,-0.140625,-3.1738281,-2.9907227,0.8544922,0.0,0.0,0.0,127.95227,75.88257,7.2564697
1768033073609,-0.984375,0.14794922,-0.13183594,-6.7749023,3.479004,-1.5258789,0.0,0.0,0.0,127.95227,75.88257,7.2564697
1768033073621,-0.984375,0.14794922,-0.13183594,-6.7749023,3.479004,-1.5258789,0.0,0.0,0.0,127.194214,75.94849,7.1081543
1768033073709,-0.96240234,0.13183594,-0.114746094,-11.59668,-1.8310547,-1.5258789,0.0,0.0,0.0,127.194214,75.94849,7.1081543
1768033073720,-0.96240234,0.13183594,-0.114746094,-11.59668,-1.8310547,-1.5258789,0.0,0.0,0.0,128.99597,76.08032,9.547119
1768033073808,-0.98828125,0.2084961,-0.12597656,-8.728027,-1.953125,0.30517578,0.0,0.0,0.0,128.99597,76.08032,9.547119
1768033073820,-0.98828125,0.2084961,-0.12597656,-8.728027,-1.953125,0.30517578,0.0,0.0,0.0,126.101074,76.40991,8.179321
1768033073908,-0.9765625,0.17041016,-0.12402344,-0.7324219,9.094238,-5.6152344,0.0,0.0,0.0,126.101074,76.40991,8.179321
1768033073920,-0.9765625,0.17041016,-0.12402344,-0.7324219,9.094238,-5.6152344,0.0,0.0,0.0,127.23816,76.503296,9.959106
1768033074008,-0.97998047,0.17919922,-0.1459961,2.5024414,-4.8828125,1.0375977,0.0,0.0,0.0,127.23816,76.503296,9.959106
1768033074019,-0.97998047,0.17919922,-0.1459961,2.5024414,-4.8828125,1.0375977,0.0,0.0,0.0,128.93555,76.50879,11.865234
1768033074108,-0.9658203,0.13085938,-0.140625,9.521484,2.380371,-3.540039,0.0,0.0,0.0,128.93555,76.50879,11.865234
1768033074119,-0.9658203,0.13085938,-0.140625,9.521484,2.380371,-3.540039,0.0,0.0,0.0,130.59998,76.712036,12.590332
1768033074207,-0.97558594,0.17333984,-0.14160156,9.216309,-3.8452148,2.9907227,0.0,0.0,0.0,130.59998,76.712036,12.590332
1768033074219,-0.97558594,0.17333984,-0.14160156,9.216309,-3.8452148,2.9907227,0.0,0.0,0.0,129.88037,76.96472,11.277466
1768033074307,-0.99560547,0.14501953,-0.12158203,2.380371,-5.7373047,1.8310547,0.0,0.0,0.0,129.88037,76.96472,11.277466
1768033074318,-0.99560547,0.14501953,-0.12158203,2.380371,-5.7373047,1.8310547,0.0,0.0,0.0,129.03442,77.01965,9.574585
1768033074407,-0.95166016,0.15234375,-0.13574219,-1.0375977,-3.3569336,-1.0986328,0.0,0.0,0.0,129.03442,77.01965,9.574585
1768033074418,-0.95166016,0.15234375,-0.13574219,-1.0375977,-3.3569336,-1.0986328,0.0,0.0,0.0,129.00146,77.49756,9.354858
1768033074506,-0.9951172,0.15136719,-0.1171875,-5.065918,1.7700195,0.7324219,0.0,0.0,0.0,129.00146,77.49756,9.354858
1768033074518,-0.9951172,0.15136719,-0.1171875,-5.065918,1.7700195,0.7324219,0.0,0.0,0.0,127.96875,77.39868,8.717651
1768033074606,-0.9584961,0.20751953,-0.14648438,-3.1738281,0.61035156,-3.0517578,0.0,0.0,0.0,127.96875,77.39868,8.717651
1768033074618,-0.9584961,0.20751953,-0.14648438,-3.1738281,0.61035156,-3.0517578,0.0,0.0,0.0,128.47412,77.67883,9.711914
1768033074706,-0.9921875,0.16259766,-0.14794922,20.080566,3.112793,-4.333496,0.0,0.0,0.0,128.47412,77.67883,9.711914
1768033074718,-0.9921875,0.16259766,-0.14794922,20.080566,3.112793,-4.333496,0.0,0.0,0.0,133.99475,77.420654,13.919678
1768033074806,-0.97802734,0.13623047,-0.14208984,5.79834,2.6245117,0.48828125,0.0,0.0,0.0,133.99475,77.420654,13.919678
1768033074817,-0.97802734,0.13623047,-0.14208984,5.79834,2.6245117,0.48828125,0.0,0.0,0.0,133.76404,77.547,13.233032
1768033074905,-0.98828125,0.15039062,-0.13867188,0.0,-1.953125,0.9765625,0.0,0.0,0.0,133.76404,77.547,13.233032
1768033074917,-0.98828125,0.15039062,-0.13867188,0.0,-1.953125,0.9765625,0.0,0.0,0.0,133.94531,77.42615,13.205566
1768033075005,-0.9741211,0.1484375,-0.14501953,0.61035156,1.7700195,0.12207031,0.0,0.0,0.0,133.94531,77.42615,13.205566
1768033075016,-0.9741211,0.1484375,-0.14501953,0.61035156,1.7700195,0.12207031,0.0,0.0,0.0,134.0387,77.35474,13.271484
1768033075105,-0.98583984,0.16503906,-0.1484375,-0.4272461,0.79345703,1.0375977,0.0,0.0,0.0,134.0387,77.35474,13.271484
1768033075116,-0.98583984,0.16503906,-0.1484375,-0.4272461,0.79345703,1.0375977,0.0,0.0,0.0,133.74756,77.27234,13.161621
1768033075204,-0.9790039,0.16601562,-0.14648438,-0.4272461,0.61035156,0.7324219,0.0,0.0,0.0,133.74756,77.27234,13.161621
1768033075216,-0.9790039,0.16601562,-0.14648438,-0.4272461,0.61035156,0.7324219,0.0,0.0,0.0,133.91785,77.09656,13.480225
1768033075304,-0.9707031,0.16259766,-0.14404297,-0.7324219,2.380371,0.48828125,0.0,0.0,0.0,133.91785,77.09656,13.480225
1768033075316,-0.9707031,0.16259766,-0.14404297,-0.7324219,2.380371,0.48828125,0.0,0.0,0.0,133.9563,76.92078,13.754883
1768033075404,-0.9790039,0.17285156,-0.14746094,-2.380371,-0.36621094,1.3427734,0.0,0.0,0.0,133.9563,76.92078,13.754883
1768033075415,-0.9790039,0.17285156,-0.14746094,-2.380371,-0.36621094,1.3427734,0.0,0.0,0.0,133.40149,76.83838,13.62854
1768033075503,-0.9765625,0.17138672,-0.14355469,-1.6479492,0.8544922,1.0986328,0.0,0.0,0.0,133.40149,76.83838,13.62854
1768033075515,-0.9765625,0.17138672,-0.14355469,-1.6479492,0.8544922,1.0986328,0.0,0.0,0.0,133.11584,76.69006,13.656006
1768033075603,-0.9785156,0.17089844,-0.15283203,-1.6479492,0.91552734,0.12207031,0.0,0.0,0.0,133.11584,76.69006,13.656006
1768033075615,-0.9785156,0.17089844,-0.15283203,-1.6479492,0.91552734,0.12207031,0.0,0.0,0.0,132.91809,76.59668,13.804321
1768033075703,-0.97558594,0.17138672,-0.14990234,-1.953125,2.319336,0.4272461,0.0,0.0,0.0,132.91809,76.59668,13.804321
1768033075714,-0.97558594,0.17138672,-0.14990234,-1.953125,2.319336,0.4272461,0.0,0.0,0.0,132.96753,76.49231,14.216309
1768033075803,-0.9794922,0.16064453,-0.16210938,-3.3569336,-0.48828125,0.18310547,0.0,0.0,0.0,132.96753,76.49231,14.216309
1768033075814,-0.9794922,0.16064453,-0.16210938,-3.3569336,-0.48828125,0.18310547,0.0,0.0,0.0,132.92358,76.40991,14.540405
1768033075903,-0.9770508,0.17480469,-0.15527344,-3.6010742,0.30517578,-0.7324219,0.0,0.0,0.0,132.92358,76.40991,14.540405
1768033075914,-0.9770508,0.17480469,-0.15527344,-3.6010742,0.30517578,-0.7324219,0.0,0.0,0.0,132.95105,76.37695,14.974365
1768033076002,-0.9760742,0.17529297,-0.15332031,-2.1362305,0.18310547,-0.36621094,0.0,0.0,0.0,132.95105,76.37695,14.974365
1768033076013,-0.9760742,0.17529297,-0.15332031,-2.1362305,0.18310547,-0.36621094,0.0,0.0,0.0,132.57751,76.431885,15.03479
1768033076102,-0.9785156,0.16992188,-0.14746094,-2.746582,-1.8310547,-0.8544922,0.0,0.0,0.0,132.57751,76.431885,15.03479
1768033076113,-0.9785156,0.16992188,-0.14746094,-2.746582,-1.8310547,-0.8544922,0.0,0.0,0.0,132.55554,76.51428,15.276489
1768033076202,-0.9785156,0.17089844,-0.15332031,-1.0986328,-0.79345703,-1.0986328,0.0,0.0,0.0,132.55554,76.51428,15.276489
1768033076213,-0.9785156,0.17089844,-0.15332031,-1.0986328,-0.79345703,-1.0986328,0.0,0.0,0.0,132.37976,76.673584,15.342407
1768033076301,-0.9794922,0.16845703,-0.14697266,1.3427734,-0.18310547,-1.0375977,0.0,0.0,0.0,132.37976,76.673584,15.342407
1768033076313,-0.9794922,0.16845703,-0.14697266,1.3427734,-0.18310547,-1.0375977,0.0,0.0,0.0,132.47864,76.777954,15.490723
1768033076401,-0.9916992,0.1538086,-0.15039062,0.061035156,-4.3945312,-1.953125,0.0,0.0,0.0,132.47864,76.777954,15.490723
1768033076413,-0.9916992,0.1538086,-0.15039062,0.061035156,-4.3945312,-1.953125,0.0,0.0,0.0,132.19849,76.99768,15.183105
1768033076501,-0.98095703,0.16748047,-0.140625,0.24414062,-3.540039,-2.1972656,0.0,0.0,0.0,132.19849,76.99768,15.183105
1768033076512,-0.98095703,0.16748047,-0.140625,0.24414062,-3.540039,-2.1972656,0.0,0.0,0.0,131.42944,77.43164,14.529419
1768033076600,-0.9785156,0.1538086,-0.1328125,1.2207031,0.061035156,-0.79345703,0.0,0.0,0.0,131.42944,77.43164,14.529419
1768033076612,-0.9785156,0.1538086,-0.1328125,1.2207031,0.061035156,-0.79345703,0.0,0.0,0.0,131.67114,77.59094,14.732666
1768033076700,-0.9838867,0.15722656,-0.14013672,0.36621094,-0.061035156,-0.30517578,0.0,0.0,0.0,131.67114,77.59094,14.732666
1768033076712,-0.9838867,0.15722656,-0.14013672,0.36621094,-0.061035156,-0.30517578,0.0,0.0,0.0,131.75903,77.67883,14.771118
1768033076800,-0.98095703,0.15136719,-0.13964844,0.4272461,0.18310547,0.18310547,0.0,0.0,0.0,131.75903,77.67883,14.771118
1768033076811,-0.98095703,0.15136719,-0.13964844,0.4272461,0.18310547,0.18310547,0.0,0.0,0.0,132.12158,77.67334,15.078735
1768033076900,-0.98046875,0.1508789,-0.13671875,1.0375977,2.8076172,0.91552734,0.0,0.0,0.0,132.12158,77.67334,15.078735
1768033076911,-0.98046875,0.1508789,-0.13671875,1.0375977,2.8076172,0.91552734,0.0,0.0,0.0,132.64343,77.579956,15.496216
1768033076999,-0.9770508,0.16113281,-0.14355469,0.36621094,0.18310547,1.8920898,0.0,0.0,0.0,132.64343,77.579956,15.496216
1768033077011,-0.9770508,0.16113281,-0.14355469,0.36621094,0.18310547,1.8920898,0.0,0.0,0.0,132.28088,77.492065,15.106201
1768033077099,-0.9838867,0.15771484,-0.14355469,-0.5493164,-0.7324219,2.0751953,0.0,0.0,0.0,132.28088,77.492065,15.106201
1768033077110,-0.9838867,0.15771484,-0.14355469,-0.5493164,-0.7324219,2.0751953,0.0,0.0,0.0,132.49512,77.34924,15.128174
1768033077199,-0.9785156,0.1616211,-0.14404297,0.061035156,1.0986328,1.953125,0.0,0.0,0.0,132.49512,77.34924,15.128174
1768033077210,-0.9785156,0.1616211,-0.14404297,0.061035156,1.0986328,1.953125,0.0,0.0,0.0,131.89087,77.23389,14.458008
1768033077298,-0.97998047,0.17382812,-0.13916016,0.36621094,-0.061035156,2.0751953,0.0,0.0,0.0,131.89087,77.23389,14.458008
1768033077310,-0.97998047,0.17382812,-0.13916016,0.36621094,-0.061035156,2.0751953,0.0,0.0,0.0,131.45142,77.0636,14.013062
1768033077398,-0.9814453,0.16845703,-0.14794922,0.18310547,-0.9765625,1.4648438,0.0,0.0,0.0,131.45142,77.0636,14.013062
1768033077410,-0.9814453,0.16845703,-0.14794922,0.18310547,-0.9765625,1.4648438,0.0,0.0,0.0,130.9076,76.96472,13.381348
1768033077498,-0.9765625,0.17285156,-0.13867188,-0.48828125,-0.9765625,0.8544922,0.0,0.0,0.0,130.9076,76.96472,13.381348
1768033077509,-0.9765625,0.17285156,-0.13867188,-0.48828125,-0.9765625,0.8544922,0.0,0.0,0.0,130.72632,76.87134,13.123169
1768033077597,-0.9794922,0.17333984,-0.13671875,0.18310547,0.9765625,0.79345703,0.0,0.0,0.0,130.72632,76.87134,13.123169
1768033077609,-0.9794922,0.17333984,-0.13671875,0.18310547,0.9765625,0.79345703,0.0,0.0,0.0,130.06714,76.882324,12.436523
1768033077697,-0.9814453,0.17089844,-0.14160156,-0.61035156,-1.5258789,0.30517578,0.0,0.0,0.0,130.06714,76.882324,12.436523
1768033077709,-0.9814453,0.17089844,-0.14160156,-0.61035156,-1.5258789,0.30517578,0.0,0.0,0.0,129.8529,76.89331,12.178345
1768033077797,-0.97802734,0.17041016,-0.14111328,-0.9765625,0.12207031,-0.18310547,0.0,0.0,0.0,129.8529,76.89331,12.178345
1768033077808,-0.97802734,0.17041016,-0.14111328,-0.9765625,0.12207031,-0.18310547,0.0,0.0,0.0,129.6222,76.93176,11.980591
1768033077897,-0.9711914,0.1694336,-0.13427734,-0.061035156,0.24414062,-0.79345703,0.0,0.0,0.0,129.6222,76.93176,11.980591
1768033077908,-0.9711914,0.1694336,-0.13427734,-0.061035156,0.24414062,-0.79345703,0.0,0.0,0.0,129.59473,76.95923,12.073975
1768033077996,-0.98046875,0.17089844,-0.13720703,-0.5493164,1.7700195,-0.61035156,0.0,0.0,0.0,129.59473,76.95923,12.073975
1768033078008,-0.98046875,0.17089844,-0.13720703,-0.5493164,1.7700195,-0.61035156,0.0,0.0,0.0,129.6222,76.99219,12.249756
1768033078096,-0.97802734,0.17138672,-0.13183594,-1.2207031,-0.12207031,-0.61035156,0.0,0.0,0.0,129.6222,76.99219,12.249756
1768033078107,-0.97802734,0.17138672,-0.13183594,-1.2207031,-0.12207031,-0.61035156,0.0,0.0,0.0,130.20447,76.9812,12.963867
1768033078196,-0.97998047,0.171875,-0.13183594,1.0375977,2.8686523,-0.12207031,0.0,0.0,0.0,130.20447,76.9812,12.963867
1768033078207,-0.97998047,0.171875,-0.13183594,1.0375977,2.8686523,-0.12207031,0.0,0.0,0.0,130.55603,76.953735,13.3758545
1768033078295,-0.9785156,0.16357422,-0.1430664,-1.3427734,-0.061035156,0.24414062,0.0,0.0,0.0,130.55603,76.953735,13.3758545
1768033078307,-0.9785156,0.16357422,-0.1430664,-1.3427734,-0.061035156,0.24414062,0.0,0.0,0.0,130.59998,76.94275,13.496704
1768033078395,-0.9794922,0.16796875,-0.14160156,-0.91552734,1.0986328,0.12207031,0.0,0.0,0.0,130.59998,76.94275,13.496704
1768033078406,-0.9794922,0.16796875,-0.14160156,-0.91552734,1.0986328,0.12207031,0.0,0.0,0.0,130.45715,76.8988,13.540649
1768033078495,-0.9741211,0.17871094,-0.13574219,-0.061035156,0.7324219,0.48828125,0.0,0.0,0.0,130.45715,76.8988,13.540649
1768033078506,-0.9741211,0.17871094,-0.13574219,-0.061035156,0.7324219,0.48828125,0.0,0.0,0.0,130.16052,76.84387,13.408813
1768033078594,-0.97998047,0.1772461,-0.14453125,1.0375977,0.0,0.61035156,0.0,0.0,0.0,130.16052,76.84387,13.408813
1768033078606,-0.97998047,0.1772461,-0.14453125,1.0375977,0.0,0.61035156,0.0,0.0,0.0,130.2539,76.79993,13.436279
1768033078694,-0.97509766,0.17236328,-0.14111328,2.0751953,0.24414062,0.4272461,0.0,0.0,0.0,130.2539,76.79993,13.436279
1768033078706,-0.97509766,0.17236328,-0.14111328,2.0751953,0.24414062,0.4272461,0.0,0.0,0.0,130.51208,76.72302,13.557129
1768033078794,-0.97509766,0.17138672,-0.13720703,2.380371,0.6713867,0.0,0.0,0.0,0.0,130.51208,76.72302,13.557129
1768033078805,-0.97509766,0.17138672,-0.13720703,2.380371,0.6713867,0.0,0.0,0.0,0.0,130.55603,76.728516,13.3758545
1768033078894,-0.97753906,0.171875,-0.14697266,1.2817383,-0.5493164,-0.18310547,0.0,0.0,0.0,130.55603,76.728516,13.3758545
1768033078905,-0.97753906,0.171875,-0.14697266,1.2817383,-0.5493164,-0.18310547,0.0,0.0,0.0,130.41321,76.79993,13.068237
1768033078993,-0.97753906,0.1694336,-0.1430664,1.2207031,-0.30517578,-0.24414062,0.0,0.0,0.0,130.41321,76.79993,13.068237
1768033079005,-0.97753906,0.1694336,-0.1430664,1.2207031,-0.30517578,-0.24414062,0.0,0.0,0.0,130.41321,76.81091,12.958374
1768033079093,-0.9746094,0.16796875,-0.14111328,1.3427734,0.8544922,-0.61035156,0.0,0.0,0.0,130.41321,76.81091,12.958374
1768033079104,-0.9746094,0.16796875,-0.14111328,1.3427734,0.8544922,-0.61035156,0.0,0.0,0.0,130.55054,76.82739,13.051758
1768033079193,-0.9814453,0.17089844,-0.14794922,0.79345703,0.4272461,-0.30517578,0.0,0.0,0.0,130.55054,76.82739,13.051758
1768033079204,-0.9814453,0.17089844,-0.14794922,0.79345703,0.4272461,-0.30517578,0.0,0.0,0.0,130.69885,76.849365,13.150635
1768033079292,-0.97558594,0.17041016,-0.14160156,-0.18310547,-0.061035156,0.0,0.0,0.0,0.0,130.69885,76.849365,13.150635
1768033079304,-0.97558594,0.17041016,-0.14160156,-0.18310547,-0.061035156,0.0,0.0,0.0,0.0,131.11633,76.8219,13.535156
1768033079392,-0.97509766,0.17138672,-0.13769531,0.9765625,1.8920898,-0.24414062,0.0,0.0,0.0,131.11633,76.8219,13.535156
1768033079404,-0.97509766,0.17138672,-0.13769531,0.9765625,1.8920898,-0.24414062,0.0,0.0,0.0,131.41846,76.79993,13.765869
1768033079492,-0.98046875,0.17138672,-0.1538086,0.4272461,0.79345703,-0.12207031,0.0,0.0,0.0,131.41846,76.79993,13.765869
1768033079503,-0.98046875,0.17138672,-0.1538086,0.4272461,0.79345703,-0.12207031,0.0,0.0,0.0,131.48987,76.80542,13.820801
1768033079591,-0.9770508,0.16845703,-0.14941406,0.30517578,0.4272461,0.061035156,0.0,0.0,0.0,131.48987,76.80542,13.820801
1768033079603,-0.9770508,0.16845703,-0.14941406,0.30517578,0.4272461,0.061035156,0.0,0.0,0.0,131.83044,76.72302,14.144897
1768033079691,-0.97314453,0.16503906,-0.14746094,0.8544922,1.5869141,-0.48828125,0.0,0.0,0.0,131.83044,76.72302,14.144897
1768033079703,-0.97314453,0.16503906,-0.14746094,0.8544922,1.5869141,-0.48828125,0.0,0.0,0.0,132.17102,76.65161,14.523926
1768033079791,-0.9785156,0.16845703,-0.15136719,0.061035156,1.0986328,-0.24414062,0.0,0.0,0.0,132.17102,76.65161,14.523926
1768033079802,-0.9785156,0.16845703,-0.15136719,0.061035156,1.0986328,-0.24414062,0.0,0.0,0.0,132.31934,76.62964,14.716187
1768033079891,-0.97998047,0.16992188,-0.14892578,-0.9765625,-0.18310547,0.0,0.0,0.0,0.0,132.31934,76.62964,14.716187
1768033079902,-0.97998047,0.16992188,-0.14892578,-0.9765625,-0.18310547,0.0,0.0,0.0,0.0,132.46216,76.61316,14.941406
1768033079991,-0.9765625,0.16845703,-0.14794922,-0.24414062,1.7089844,0.0,0.0,0.0,0.0,132.46216,76.61316,14.941406
1768033080002,-0.9765625,0.16845703,-0.14794922,-0.24414062,1.7089844,0.0,0.0,0.0,0.0,132.72583,76.60217,15.166626
1768033080090,-0.9770508,0.16894531,-0.15820312,-0.9765625,-0.18310547,0.0,0.0,0.0,0.0,132.72583,76.60217,15.166626
1768033080101,-0.9770508,0.16894531,-0.15820312,-0.9765625,-0.18310547,0.0,0.0,0.0,0.0,132.63245,76.62964,15.1171875
1768033080190,-0.97558594,0.16992188,-0.1538086,0.18310547,0.0,0.24414062,0.0,0.0,0.0,132.63245,76.62964,15.1171875
1768033080201,-0.97558594,0.16992188,-0.1538086,0.18310547,0.0,0.24414062,0.0,0.0,0.0,132.61047,76.60217,15.1171875
1768033080289,-0.9736328,0.16503906,-0.15478516,1.4648438,0.48828125,-0.061035156,0.0,0.0,0.0,132.61047,76.60217,15.1171875
1768033080301,-0.9736328,0.16503906,-0.15478516,1.4648438,0.48828125,-0.061035156,0.0,0.0,0.0,132.52258,76.56372,15.029297
1768033080389,-0.9741211,0.1694336,-0.1538086,0.79345703,0.24414062,0.12207031,0.0,0.0,0.0,132.52258,76.56372,15.029297
1768033080401,-0.9741211,0.1694336,-0.1538086,0.79345703,0.24414062,0.12207031,0.0,0.0,0.0,132.33582,76.552734,14.787598
1768033080489,-0.9760742,0.16796875,-0.15136719,-0.79345703,-0.8544922,0.36621094,0.0,0.0,0.0,132.33582,76.552734,14.787598
1768033080500,-0.9760742,0.16796875,-0.15136719,-0.79345703,-0.8544922,0.36621094,0.0,0.0,0.0,132.25891,76.552734,14.666748
1768033080589,-0.9746094,0.16796875,-0.15039062,-0.6713867,0.5493164,0.30517578,0.0,0.0,0.0,132.25891,76.552734,14.666748
1768033080600,-0.9746094,0.16796875,-0.15039062,-0.6713867,0.5493164,0.30517578,0.0,0.0,0.0,132.09412,76.57471,14.474487
1768033080688,-0.97558594,0.17089844,-0.1508789,-1.7700195,-1.5258789,0.0,0.0,0.0,0.0,132.09412,76.57471,14.474487
1768033080700,-0.97558594,0.17089844,-0.1508789,-1.7700195,-1.5258789,0.0,0.0,0.0,0.0,131.85242,76.61865,14.265747
1768033080788,-0.97753906,0.16796875,-0.1508789,-0.61035156,0.0,-0.36621094,0.0,0.0,0.0,131.85242,76.61865,14.265747
1768033080799,-0.97753906,0.16796875,-0.1508789,-0.61035156,0.0,-0.36621094,0.0,0.0,0.0,131.73157,76.6626,14.188843
1768033080888,-0.97509766,0.1640625,-0.14794922,0.36621094,0.8544922,-1.3427734,0.0,0.0,0.0,131.73157,76.6626,14.188843
1768033080899,-0.97509766,0.1640625,-0.14794922,0.36621094,0.8544922,-1.3427734,0.0,0.0,0.0,131.73706,76.712036,14.293213
1768033080987,-0.97753906,0.16845703,-0.14550781,-0.36621094,0.79345703,-0.8544922,0.0,0.0,0.0,131.73706,76.712036,14.293213
1768033080999,-0.97753906,0.16845703,-0.14550781,-0.36621094,0.79345703,-0.8544922,0.0,0.0,0.0,131.9403,76.761475,14.584351
1768033081087,-0.9770508,0.16845703,-0.14404297,-0.79345703,-0.36621094,-0.48828125,0.0,0.0,0.0,131.9403,76.761475,14.584351
1768033081099,-0.9770508,0.16845703,-0.14404297,-0.79345703,-0.36621094,-0.48828125,0.0,0.0,0.0,132.12158,76.80542,14.864502
1768033081187,-0.97753906,0.16845703,-0.14160156,0.24414062,0.4272461,-0.30517578,0.0,0.0,0.0,132.12158,76.80542,14.864502
1768033081198,-0.97753906,0.16845703,-0.14160156,0.24414062,0.4272461,-0.30517578,0.0,0.0,0.0,132.23694,76.86035,14.985352
1768033081286,-0.9794922,0.16601562,-0.15136719,0.5493164,-0.12207031,-0.5493164,0.0,0.0,0.0,132.23694,76.86035,14.985352
1768033081298,-0.9794922,0.16601562,-0.15136719,0.5493164,-0.12207031,-0.5493164,0.0,0.0,0.0,132.14905,76.93176,14.886475
1768033081386,-0.9790039,0.16503906,-0.1459961,0.5493164,-0.24414062,-0.061035156,0.0,0.0,0.0,132.14905,76.93176,14.886475
1768033081398,-0.9790039,0.16503906,-0.1459961,0.5493164,-0.24414062,-0.061035156,0.0,0.0,0.0,132.1106,76.953735,14.820557
1768033081486,-0.97753906,0.16064453,-0.14648438,1.3427734,0.18310547,-0.6713867,0.0,0.0,0.0,132.1106,76.953735,14.820557
1768033081497,-0.97753906,0.16064453,-0.14648438,1.3427734,0.18310547,-0.6713867,0.0,0.0,0.0,132.0282,76.9812,14.738159
1768033081586,-0.9785156,0.16259766,-0.14404297,0.4272461,-0.061035156,-0.18310547,0.0,0.0,0.0,132.0282,76.9812,14.738159
1768033081597,-0.9785156,0.16259766,-0.14404297,0.4272461,-0.061035156,-0.18310547,0.0,0.0,0.0,132.09961,76.99768,14.7821045
1768033081685,-0.97998047,0.1640625,-0.140625,-0.36621094,-0.61035156,0.12207031,0.0,0.0,0.0,132.09961,76.99768,14.7821045
1768033081697,-0.97998047,0.1640625,-0.140625,-0.36621094,-0.61035156,0.12207031,0.0,0.0,0.0,132.03918,77.03613,14.72168
1768033081785,-0.97558594,0.16503906,-0.13623047,0.0,0.30517578,0.12207031,0.0,0.0,0.0,132.03918,77.03613,14.72168
1768033081796,-0.97558594,0.16503906,-0.13623047,0.0,0.30517578,0.12207031,0.0,0.0,0.0,131.85242,77.08008,14.507446
1768033081885,-0.98046875,0.16455078,-0.14453125,-0.30517578,-0.79345703,-0.061035156,0.0,0.0,0.0,131.85242,77.08008,14.507446
1768033081896,-0.98046875,0.16455078,-0.14453125,-0.30517578,-0.79345703,-0.061035156,0.0,0.0,0.0,131.42395,77.15698,14.095459
1768033081984,-0.98046875,0.16357422,-0.14013672,0.18310547,-0.30517578,0.12207031,0.0,0.0,0.0,131.42395,77.15698,14.095459
1768033081996,-0.98046875,0.16357422,-0.14013672,0.18310547,-0.30517578,0.12207031,0.0,0.0,0.0,131.16028,77.162476,13.848267
1768033082084,-0.9765625,0.16113281,-0.13867188,0.24414062,0.24414062,-0.18310547,0.0,0.0,0.0,131.16028,77.162476,13.848267
1768033082096,-0.9765625,0.16113281,-0.13867188,0.24414062,0.24414062,-0.18310547,0.0,0.0,0.0,131.00647,77.15698,13.74939
1768033082184,-0.98291016,0.1640625,-0.14208984,-0.36621094,-0.4272461,0.18310547,0.0,0.0,0.0,131.00647,77.15698,13.74939
1768033082195,-0.98291016,0.1640625,-0.14208984,-0.36621094,-0.4272461,0.18310547,0.0,0.0,0.0,130.77576,77.17346,13.562622
1768033082283,-0.9770508,0.16699219,-0.1328125,-1.2207031,-0.36621094,0.30517578,0.0,0.0,0.0,130.77576,77.17346,13.562622
1768033082296,-0.9770508,0.16699219,-0.1328125,-1.2207031,-0.36621094,0.30517578,0.0,0.0,0.0,130.84167,77.145996,13.694458
1768033082383,-0.9824219,0.1640625,-0.1381836,0.061035156,0.6713867,0.30517578,0.0,0.0,0.0,130.84167,77.145996,13.694458
1768033082395,-0.9824219,0.1640625,-0.1381836,0.061035156,0.6713867,0.30517578,0.0,0.0,0.0,130.68787,77.16797,13.562622
1768033082483,-0.98095703,0.16503906,-0.13769531,-1.0375977,-0.6713867,0.48828125,0.0,0.0,0.0,130.68787,77.16797,13.562622
1768033082494,-0.98095703,0.16503906,-0.13769531,-1.0375977,-0.6713867,0.48828125,0.0,0.0,0.0,130.45166,77.16797,13.381348
1768033082583,-0.9765625,0.16894531,-0.13427734,-0.30517578,0.4272461,0.36621094,0.0,0.0,0.0,130.45166,77.16797,13.381348
1768033082594,-0.9765625,0.16894531,-0.13427734,-0.30517578,0.4272461,0.36621094,0.0,0.0,0.0,130.37476,77.10205,13.381348
1768033082682,-0.9794922,0.17041016,-0.13378906,-0.5493164,0.48828125,0.5493164,0.0,0.0,0.0,130.37476,77.10205,13.381348
1768033082694,-0.9794922,0.17041016,-0.13378906,-0.5493164,0.48828125,0.5493164,0.0,0.0,0.0,130.0946,77.0636,13.238525
1768033082783,-0.9819336,0.17041016,-0.14111328,-0.61035156,-0.061035156,0.4272461,0.0,0.0,0.0,130.0946,77.0636,13.238525
1768033082793,-0.9819336,0.17041016,-0.14111328,-0.61035156,-0.061035156,0.4272461,0.0,0.0,0.0,129.94629,77.03613,13.156128
1768033082882,-0.9790039,0.17285156,-0.13769531,-0.4272461,-0.7324219,0.36621094,0.0,0.0,0.0,129.94629,77.03613,13.156128
1768033082893,-0.9790039,0.17285156,-0.13769531,-0.4272461,-0.7324219,0.36621094,0.0,0.0,0.0,129.97375,77.00867,13.216553
1768033082982,-0.9824219,0.17138672,-0.14453125,0.30517578,0.61035156,0.4272461,0.0,0.0,0.0,129.97375,77.00867,13.216553
1768033082993,-0.9824219,0.17138672,-0.14453125,0.30517578,0.61035156,0.4272461,0.0,0.0,0.0,129.72107,77.003174,12.958374
1768033083081,-0.9770508,0.17285156,-0.13476562,-1.159668,-2.1362305,0.48828125,0.0,0.0,0.0,129.72107,77.003174,12.958374
1768033083093,-0.9770508,0.17285156,-0.13476562,-1.159668,-2.1362305,0.48828125,0.0,0.0,0.0,129.44092,77.02515,12.694702
1768033083181,-0.97558594,0.17089844,-0.13134766,0.48828125,0.36621094,-0.30517578,0.0,0.0,0.0,129.44092,77.02515,12.694702
1768033083192,-0.97558594,0.17089844,-0.13134766,0.48828125,0.36621094,-0.30517578,0.0,0.0,0.0,129.23218,77.03613,12.546387
1768033083280,-0.98095703,0.17333984,-0.13330078,-0.061035156,0.0,-0.24414062,0.0,0.0,0.0,129.23218,77.03613,12.546387
1768033083292,-0.98095703,0.17333984,-0.13330078,-0.061035156,0.0,-0.24414062,0.0,0.0,0.0,128.9685,77.08557,12.348633
1768033083380,-0.9824219,0.17041016,-0.1381836,-0.6713867,-1.2817383,-0.36621094,0.0,0.0,0.0,128.9685,77.08557,12.348633
1768033083392,-0.9824219,0.17041016,-0.1381836,-0.6713867,-1.2817383,-0.36621094,0.0,0.0,0.0,128.93555,77.145996,12.348633
1768033083480,-0.97802734,0.1694336,-0.13378906,-0.5493164,0.0,-0.6713867,0.0,0.0,0.0,128.93555,77.145996,12.348633
1768033083491,-0.97802734,0.1694336,-0.13378906,-0.5493164,0.0,-0.6713867,0.0,0.0,0.0,129.28162,77.178955,12.705688
1768033083579,-0.97998047,0.17138672,-0.14160156,0.48828125,-0.48828125,-0.7324219,0.0,0.0,0.0,129.28162,77.178955,12.705688
1768033083591,-0.97998047,0.17138672,-0.14160156,0.48828125,-0.48828125,-0.7324219,0.0,0.0,0.0,129.25964,77.26135,12.722168
1768033083679,-0.97558594,0.17089844,-0.1274414,0.91552734,-1.4038086,-0.36621094,0.0,0.0,0.0,129.25964,77.26135,12.722168
1768033083691,-0.97558594,0.17089844,-0.1274414,0.91552734,-1.4038086,-0.36621094,0.0,0.0,0.0,129.50684,77.3053,12.914429
1768033083779,-0.97753906,0.16503906,-0.12939453,1.3427734,1.4038086,-0.4272461,0.0,0.0,0.0,129.50684,77.3053,12.914429
1768033083790,-0.97753906,0.16503906,-0.12939453,1.3427734,1.4038086,-0.4272461,0.0,0.0,0.0,129.19373,77.36572,12.623291
1768033083879,-0.9863281,0.16894531,-0.13476562,-0.36621094,-0.30517578,0.18310547,0.0,0.0,0.0,129.19373,77.36572,12.623291
1768033083890,-0.9863281,0.16894531,-0.13476562,-0.36621094,-0.30517578,0.18310547,0.0,0.0,0.0,129.28162,77.36023,12.711182
1768033083978,-0.98046875,0.16210938,-0.13476562,-0.61035156,0.12207031,0.30517578,0.0,0.0,0.0,129.28162,77.36023,12.711182
1768033083990,-0.98046875,0.16210938,-0.13476562,-0.61035156,0.12207031,0.30517578,0.0,0.0,0.0,129.7815,77.299805,13.183594
1768033084078,-0.9794922,0.16308594,-0.1352539,-0.9765625,1.0375977,0.061035156,0.0,0.0,0.0,129.7815,77.299805,13.183594
1768033084090,-0.9794922,0.16308594,-0.1352539,-0.9765625,1.0375977,0.061035156,0.0,0.0,0.0,130.12756,77.25037,13.590088
1768033084178,-0.97998047,0.16455078,-0.14208984,0.36621094,1.2207031,-0.24414062,0.0,0.0,0.0,130.12756,77.25037,13.590088
1768033084189,-0.97998047,0.16455078,-0.14208984,0.36621094,1.2207031,-0.24414062,0.0,0.0,0.0,130.31982,77.20642,13.892212
1768033084277,-0.97998047,0.16796875,-0.13427734,-1.0986328,-0.4272461,0.0,0.0,0.0,0.0,130.31982,77.20642,13.892212
1768033084289,-0.97998047,0.16796875,-0.13427734,-1.0986328,-0.4272461,0.0,0.0,0.0,0.0,130.64392,77.162476,14.304199
1768033084377,-0.9785156,0.16455078,-0.13574219,-1.5869141,0.5493164,0.24414062,0.0,0.0,0.0,130.64392,77.162476,14.304199
1768033084389,-0.9785156,0.16455078,-0.13574219,-1.5869141,0.5493164,0.24414062,0.0,0.0,0.0,130.53955,77.15149,14.386597
1768033084477,-0.97998047,0.1665039,-0.140625,-1.6479492,-0.18310547,0.0,0.0,0.0,0.0,130.53955,77.15149,14.386597
1768033084488,-0.97998047,0.1665039,-0.140625,-1.6479492,-0.18310547,0.0,0.0,0.0,0.0,130.53406,77.145996,14.518433
1768033084577,-0.9785156,0.16455078,-0.13867188,-1.0986328,-0.30517578,0.0,0.0,0.0,0.0,130.53406,77.145996,14.518433
1768033084588,-0.9785156,0.16455078,-0.13867188,-1.0986328,-0.30517578,0.0,0.0,0.0,0.0,130.60547,77.17346,14.672241
1768033084676,-0.97802734,0.1640625,-0.13671875,-0.12207031,0.24414062,-0.6713867,0.0,0.0,0.0,130.60547,77.17346,14.672241
1768033084688,-0.97802734,0.1640625,-0.13671875,-0.12207031,0.24414062,-0.6713867,0.0,0.0,0.0,130.67688,77.21741,14.787598
1768033084776,-0.9824219,0.16210938,-0.14453125,0.5493164,-1.159668,-0.48828125,0.0,0.0,0.0,130.67688,77.21741,14.787598
1768033084787,-0.9824219,0.16210938,-0.14453125,0.5493164,-1.159668,-0.48828125,0.0,0.0,0.0,130.54504,77.299805,14.699707
1768033084876,-0.9785156,0.1640625,-0.13427734,0.061035156,-1.4648438,-0.48828125,0.0,0.0,0.0,130.54504,77.299805,14.699707
1768033084887,-0.9785156,0.1640625,-0.13427734,0.061035156,-1.4648438,-0.48828125,0.0,0.0,0.0,130.6604,77.35474,14.776611
1768033084975,-0.9794922,0.16210938,-0.1328125,-0.4272461,0.12207031,0.36621094,0.0,0.0,0.0,130.6604,77.35474,14.776611
1768033084987,-0.9794922,0.16210938,-0.1328125,-0.4272461,0.12207031,0.36621094,0.0,0.0,0.0,130.38574,77.40967,14.545898
1768033085075,-0.98095703,0.1640625,-0.13623047,-0.6713867,0.0,0.24414062,0.0,0.0,0.0,130.38574,77.40967,14.545898
1768033085086,-0.98095703,0.1640625,-0.13623047,-0.6713867,0.0,0.24414062,0.0,0.0,0.0,130.3363,77.41516,14.518433
1768033085175,-0.98095703,0.1616211,-0.13964844,-0.24414062,0.12207031,0.48828125,0.0,0.0,0.0,130.3363,77.41516,14.518433
1768033085186,-0.98095703,0.1616211,-0.13964844,-0.24414062,0.12207031,0.48828125,0.0,0.0,0.0,130.5011,77.387695,14.683228
1768033085274,-0.97802734,0.1616211,-0.13623047,0.30517578,0.79345703,0.061035156,0.0,0.0,0.0,130.5011,77.387695,14.683228
1768033085286,-0.97802734,0.1616211,-0.13623047,0.30517578,0.79345703,0.061035156,0.0,0.0,0.0,130.67139,77.34924,14.820557
1768033085374,-0.98095703,0.16357422,-0.14111328,0.61035156,-0.061035156,0.18310547,0.0,0.0,0.0,130.67139,77.34924,14.820557
1768033085386,-0.98095703,0.16357422,-0.14111328,0.61035156,-0.061035156,0.18310547,0.0,0.0,0.0,130.61646,77.33276,14.7821045
1768033085474,-0.9760742,0.16308594,-0.13427734,0.5493164,-0.6713867,0.0,0.0,0.0,0.0,130.61646,77.33276,14.7821045
1768033085485,-0.9760742,0.16308594,-0.13427734,0.5493164,-0.6713867,0.0,0.0,0.0,0.0,130.78674,77.29431,14.91394
1768033085574,-0.9794922,0.16308594,-0.13623047,-0.061035156,0.8544922,0.7324219,0.0,0.0,0.0,130.78674,77.29431,14.91394
1768033085585,-0.9794922,0.16308594,-0.13623047,-0.061035156,0.8544922,0.7324219,0.0,0.0,0.0,130.55603,77.3053,14.7052
1768033085673,-0.9824219,0.16503906,-0.13867188,-0.61035156,-0.24414062,0.48828125,0.0,0.0,0.0,130.55603,77.3053,14.7052
1768033085685,-0.9824219,0.16503906,-0.13867188,-0.61035156,-0.24414062,0.48828125,0.0,0.0,0.0,130.51208,77.27234,14.672241
1768033085773,-0.9838867,0.16552734,-0.13916016,-0.61035156,0.24414062,0.5493164,0.0,0.0,0.0,130.51208,77.27234,14.672241
1768033085784,-0.9838867,0.16552734,-0.13916016,-0.61035156,0.24414062,0.5493164,0.0,0.0,0.0,130.62744,77.2229,14.820557
1768033085873,-0.97753906,0.16503906,-0.14160156,0.48828125,1.0375977,0.061035156,0.0,0.0,0.0,130.62744,77.2229,14.820557
1768033085884,-0.97753906,0.16503906,-0.14160156,0.48828125,1.0375977,0.061035156,0.0,0.0,0.0,130.6659,77.20642,14.820557
1768033085972,-0.9790039,0.16748047,-0.140625,0.91552734,-0.8544922,0.0,0.0,0.0,0.0,130.6659,77.20642,14.820557
1768033085984,-0.9790039,0.16748047,-0.140625,0.91552734,-0.8544922,0.0,0.0,0.0,0.0,130.75378,77.178955,14.891968
1768033086072,-0.97021484,0.16503906,-0.13134766,1.5869141,0.0,-0.30517578,0.0,0.0,0.0,130.75378,77.178955,14.891968
1768033086084,-0.97021484,0.16503906,-0.13134766,1.5869141,0.0,-0.30517578,0.0,0.0,0.0,130.77026,77.178955,14.820557
1768033086172,-0.9848633,0.16503906,-0.14404297,-0.30517578,-0.30517578,0.30517578,0.0,0.0,0.0,130.77026,77.178955,14.820557
1768033086184,-0.9848633,0.16503906,-0.14404297,-0.30517578,-0.30517578,0.30517578,0.0,0.0,0.0,130.19897,77.27783,14.260254
1768033086271,-0.97753906,0.16503906,-0.13476562,-0.24414062,-0.8544922,0.061035156,0.0,0.0,0.0,130.19897,77.27783,14.260254
1768033086283,-0.97753906,0.16503906,-0.13476562,-0.24414062,-0.8544922,0.061035156,0.0,0.0,0.0,130.32532,77.26135,14.353638
1768033086371,-0.97802734,0.16259766,-0.13720703,0.7324219,0.91552734,-0.7324219,0.0,0.0,0.0,130.32532,77.26135,14.353638
1768033086383,-0.97802734,0.16259766,-0.13720703,0.7324219,0.91552734,-0.7324219,0.0,0.0,0.0,130.11658,77.31079,14.161377
1768033086471,-0.9794922,0.16455078,-0.13916016,0.18310547,0.4272461,-0.4272461,0.0,0.0,0.0,130.11658,77.31079,14.161377
1768033086482,-0.9794922,0.16455078,-0.13916016,0.18310547,0.4272461,-0.4272461,0.0,0.0,0.0,129.95178,77.34924,14.018555
1768033086571,-0.9760742,0.16455078,-0.12988281,-0.30517578,0.0,-0.12207031,0.0,0.0,0.0,129.95178,77.34924,14.018555
1768033086582,-0.9760742,0.16455078,-0.12988281,-0.30517578,0.0,-0.12207031,0.0,0.0,0.0,130.14954,77.33826,14.243774
1768033086670,-0.9765625,0.16357422,-0.12890625,0.24414062,0.91552734,-0.18310547,0.0,0.0,0.0,130.14954,77.33826,14.243774
1768033086682,-0.9765625,0.16357422,-0.12890625,0.24414062,0.91552734,-0.18310547,0.0,0.0,0.0,130.22644,77.34924,14.315186
1768033086770,-0.984375,0.1640625,-0.140625,-0.91552734,-0.30517578,0.0,0.0,0.0,0.0,130.22644,77.34924,14.315186
1768033086781,-0.984375,0.1640625,-0.140625,-0.91552734,-0.30517578,0.0,0.0,0.0,0.0,130.11108,77.404175,14.232788
1768033086870,-0.98046875,0.1640625,-0.13574219,0.12207031,0.0,-0.12207031,0.0,0.0,0.0,130.11108,77.404175,14.232788
1768033086881,-0.98046875,0.1640625,-0.13574219,0.12207031,0.0,-0.12207031,0.0,0.0,0.0,130.3418,77.3822,14.452515
1768033086969,-0.9790039,0.16064453,-0.13867188,1.159668,1.2207031,-0.7324219,0.0,0.0,0.0,130.3418,77.3822,14.452515
1768033086981,-0.9790039,0.16064453,-0.13867188,1.159668,1.2207031,-0.7324219,0.0,0.0,0.0,130.38574,77.3822,14.534912
1768033087069,-0.9790039,0.1616211,-0.13671875,0.18310547,0.6713867,-0.12207031,0.0,0.0,0.0,130.38574,77.3822,14.534912
1768033087080,-0.9790039,0.1616211,-0.13671875,0.18310547,0.6713867,-0.12207031,0.0,0.0,0.0,130.49011,77.36572,14.644775
1768033087169,-0.98095703,0.16455078,-0.13623047,-0.24414062,0.0,0.061035156,0.0,0.0,0.0,130.49011,77.36572,14.644775
1768033087180,-0.98095703,0.16455078,-0.13623047,-0.24414062,0.0,0.061035156,0.0,0.0,0.0,130.47363,77.36572,14.666748
1768033087270,-0.9760742,0.16259766,-0.13085938,0.61035156,0.61035156,-0.12207031,0.0,0.0,0.0,130.47363,77.36572,14.666748
1768033087280,-0.9760742,0.16259766,-0.13085938,0.61035156,0.61035156,-0.12207031,0.0,0.0,0.0,130.71533,77.33276,14.859009
1768033087368,-0.9848633,0.16552734,-0.14160156,-0.30517578,0.18310547,0.12207031,0.0,0.0,0.0,130.71533,77.33276,14.859009
1768033087380,-0.9848633,0.16552734,-0.14160156,-0.30517578,0.18310547,0.12207031,0.0,0.0,0.0,130.55603,77.36572,14.732666
1768033087468,-0.9790039,0.16357422,-0.13476562,0.24414062,0.30517578,0.0,0.0,0.0,0.0,130.55603,77.36572,14.732666
1768033087479,-0.9790039,0.16357422,-0.13476562,0.24414062,0.30517578,0.0,0.0,0.0,0.0,130.64941,77.33276,14.820557
1768033087567,-0.97998047,0.16113281,-0.14160156,0.79345703,0.4272461,-0.61035156,0.0,0.0,0.0,130.64941,77.33276,14.820557
1768033087579,-0.97998047,0.16113281,-0.14160156,0.79345703,0.4272461,-0.61035156,0.0,0.0,0.0,130.72083,77.33826,14.91394
1768033087667,-0.97998047,0.16259766,-0.13867188,0.36621094,0.48828125,-0.12207031,0.0,0.0,0.0,130.72083,77.33826,14.91394
1768033087679,-0.97998047,0.16259766,-0.13867188,0.36621094,0.48828125,-0.12207031,0.0,0.0,0.0,130.75928,77.33276,14.952393
1768033087767,-0.9790039,0.16455078,-0.1381836,-0.061035156,-0.4272461,0.0,0.0,0.0,0.0,130.75928,77.33276,14.952393
1768033087778,-0.9790039,0.16455078,-0.1381836,-0.061035156,-0.4272461,0.0,0.0,0.0,0.0,130.7428,77.34375,14.952393
1768033087866,-0.9746094,0.16210938,-0.13134766,0.8544922,0.0,-0.24414062,0.0,0.0,0.0,130.7428,77.34375,14.952393
1768033087878,-0.9746094,0.16210938,-0.13134766,0.8544922,0.0,-0.24414062,0.0,0.0,0.0,130.79224,77.34924,14.963379
1768033087966,-0.98291016,0.16455078,-0.14111328,-0.24414062,0.30517578,0.48828125,0.0,0.0,0.0,130.79224,77.34924,14.963379
1768033087978,-0.98291016,0.16455078,-0.14111328,-0.24414062,0.30517578,0.48828125,0.0,0.0,0.0,130.45166,77.39319,14.633789
1768033088066,-0.9819336,0.16455078,-0.13867188,-0.30517578,-0.8544922,0.36621094,0.0,0.0,0.0,130.45166,77.39319,14.633789
1768033088078,-0.9819336,0.16455078,-0.13867188,-0.30517578,-0.8544922,0.36621094,0.0,0.0,0.0,130.39124,77.371216,14.562378
1768033088166,-0.98046875,0.16357422,-0.14013672,0.5493164,0.79345703,-0.12207031,0.0,0.0,0.0,130.39124,77.371216,14.562378
1768033088177,-0.98046875,0.16357422,-0.14013672,0.5493164,0.79345703,-0.12207031,0.0,0.0,0.0,130.47363,77.32727,14.644775
1768033088265,-0.9794922,0.1640625,-0.1381836,0.61035156,1.159668,0.061035156,0.0,0.0,0.0,130.47363,77.32727,14.644775
1768033088277,-0.9794922,0.1640625,-0.1381836,0.61035156,1.159668,0.061035156,0.0,0.0,0.0,130.46265,77.29431,14.628296
1768033088365,-0.97998047,0.16552734,-0.13867188,-0.12207031,-0.36621094,0.30517578,0.0,0.0,0.0,130.46265,77.29431,14.628296
1768033088377,-0.97998047,0.16552734,-0.13867188,-0.12207031,-0.36621094,0.30517578,0.0,0.0,0.0,130.51208,77.26135,14.694214
1768033088465,-0.9741211,0.16455078,-0.13134766,0.79345703,0.24414062,0.0,0.0,0.0,0.0,130.51208,77.26135,14.694214
1768033088476,-0.9741211,0.16455078,-0.13134766,0.79345703,0.24414062,0.0,0.0,0.0,0.0,130.6604,77.22839,14.787598
1768033088564,-0.9848633,0.16845703,-0.14404297,-0.061035156,0.24414062,0.48828125,0.0,0.0,0.0,130.6604,77.22839,14.787598
1768033088576,-0.9848633,0.16845703,-0.14404297,-0.061035156,0.24414062,0.48828125,0.0,0.0,0.0,130.29785,77.266846,14.441528
1768033088664,-0.98291016,0.16552734,-0.1430664,0.18310547,-0.18310547,0.18310547,0.0,0.0,0.0,130.29785,77.266846,14.441528
1768033088676,-0.98291016,0.16552734,-0.1430664,0.18310547,-0.18310547,0.18310547,0.0,0.0,0.0,130.38574,77.21741,14.485474
1768033088764,-0.97802734,0.16601562,-0.14208984,0.30517578,0.4272461,-0.12207031,0.0,0.0,0.0,130.38574,77.21741,14.485474
1768033088775,-0.97802734,0.16601562,-0.14208984,0.30517578,0.4272461,-0.12207031,0.0,0.0,0.0,130.51758,77.17346,14.61731
1768033088863,-0.9785156,0.16552734,-0.13964844,0.48828125,1.159668,-0.12207031,0.0,0.0,0.0,130.51758,77.17346,14.61731
1768033088875,-0.9785156,0.16552734,-0.13964844,0.48828125,1.159668,-0.12207031,0.0,0.0,0.0,130.45166,77.16797,14.540405
1768033088963,-0.97802734,0.16796875,-0.13671875,-0.30517578,-0.6713867,0.0,0.0,0.0,0.0,130.45166,77.16797,14.540405
1768033088975,-0.97802734,0.16796875,-0.13671875,-0.30517578,-0.6713867,0.0,0.0,0.0,0.0,130.46265,77.16797,14.589844
1768033089063,-0.97314453,0.16455078,-0.12890625,0.4272461,0.91552734,-0.4272461,0.0,0.0,0.0,130.46265,77.16797,14.589844
1768033089074,-0.97314453,0.16455078,-0.12890625,0.4272461,0.91552734,-0.4272461,0.0,0.0,0.0,130.51208,77.18445,14.61731
1768033089163,-0.98339844,0.16748047,-0.14160156,-1.0375977,-0.91552734,0.0,0.0,0.0,0.0,130.51208,77.18445,14.61731
1768033089174,-0.98339844,0.16748047,-0.14160156,-1.0375977,-0.91552734,0.0,0.0,0.0,0.0,130.0946,77.27783,14.265747
1768033089262,-0.98046875,0.16601562,-0.13671875,-1.0375977,-1.4038086,0.0,0.0,0.0,0.0,130.0946,77.27783,14.265747
1768033089274,-0.98046875,0.16601562,-0.13671875,-1.0375977,-1.4038086,0.0,0.0,0.0,0.0,130.08911,77.28882,14.28772
1768033089362,-0.9785156,0.16552734,-0.13964844,0.4272461,0.61035156,-0.61035156,0.0,0.0,0.0,130.08911,77.28882,14.28772
1768033089373,-0.9785156,0.16552734,-0.13964844,0.4272461,0.61035156,-0.61035156,0.0,0.0,0.0,129.86938,77.33276,14.117432
1768033089462,-0.97753906,0.1640625,-0.13330078,0.7324219,0.30517578,-0.48828125,0.0,0.0,0.0,129.86938,77.33276,14.117432
1768033089473,-0.97753906,0.1640625,-0.13330078,0.7324219,0.30517578,-0.48828125,0.0,0.0,0.0,129.78699,77.36023,14.0460205
1768033089561,-0.9794922,0.16699219,-0.13330078,-0.061035156,-0.30517578,-0.12207031,0.0,0.0,0.0,129.78699,77.36023,14.0460205
1768033089573,-0.9794922,0.16699219,-0.13330078,-0.061035156,-0.30517578,-0.12207031,0.0,0.0,0.0,129.67712,77.39868,13.974609
1768033089661,-0.97558594,0.16357422,-0.1274414,0.48828125,0.0,-0.30517578,0.0,0.0,0.0,129.67712,77.39868,13.974609
1768033089673,-0.97558594,0.16357422,-0.1274414,0.48828125,0.0,-0.30517578,0.0,0.0,0.0,129.86389,77.39868,14.155884
1768033089761,-0.9838867,0.16455078,-0.13623047,-0.8544922,0.12207031,0.18310547,0.0,0.0,0.0,129.86389,77.39868,14.155884
1768033089772,-0.9838867,0.16455078,-0.13623047,-0.8544922,0.12207031,0.18310547,0.0,0.0,0.0,129.68262,77.45361,14.007568
1768033089860,-0.9824219,0.16503906,-0.13378906,-0.7324219,0.0,0.0,0.0,0.0,0.0,129.68262,77.45361,14.007568
1768033089872,-0.9824219,0.16503906,-0.13378906,-0.7324219,0.0,0.0,0.0,0.0,0.0,129.75403,77.43713,14.128418
1768033089960,-0.98046875,0.16308594,-0.13867188,0.24414062,0.91552734,-0.4272461,0.0,0.0,0.0,129.75403,77.43713,14.128418
1768033089972,-0.98046875,0.16308594,-0.13867188,0.24414062,0.91552734,-0.4272461,0.0,0.0,0.0,129.80896,77.41516,14.265747
1768033090060,-0.98046875,0.1640625,-0.13378906,0.12207031,0.9765625,-0.061035156,0.0,0.0,0.0,129.80896,77.41516,14.265747
1768033090071,-0.98046875,0.1640625,-0.13378906,0.12207031,0.9765625,-0.061035156,0.0,0.0,0.0,129.86389,77.387695,14.37561
