timestamp,accX,accY,accZ,gyroX,gyroY,gyroZ,magX,magY,magZ,roll,pitch,yaw
1765376986059,-0.71240234,-0.1977539,-0.67529297,-0.8544922,0.61035156,0.24414062,0.0,0.0,0.0,-163.10303,45.021973,-171.77124
1765376986071,-0.71240234,-0.1977539,-0.67529297,-0.8544922,0.61035156,0.24414062,0.0,0.0,0.0,-163.19092,45.01648,-171.79321
1765376986159,-0.7128906,-0.19873047,-0.67578125,-0.5493164,-0.12207031,0.24414062,0.0,0.0,0.0,-163.19092,45.01648,-171.79321
1765376986171,-0.7128906,-0.19873047,-0.67578125,-0.5493164,-0.12207031,0.24414062,0.0,0.0,0.0,-163.2843,45.01648,-171.81519
1765376986259,-0.71191406,-0.19824219,-0.6743164,0.24414062,0.0,0.061035156,0.0,0.0,0.0,-163.2843,45.01648,-171.81519
1765376986270,-0.71191406,-0.19824219,-0.6743164,0.24414062,0.0,0.061035156,0.0,0.0,0.0,-163.29529,45.03296,-171.7987
1765376986359,-0.7128906,-0.2006836,-0.67578125,0.4272461,0.4272461,0.0,0.0,0.0,0.0,-163.29529,45.03296,-171.7987
1765376986370,-0.7128906,-0.2006836,-0.67578125,0.4272461,0.4272461,0.0,0.0,0.0,0.0,-163.22937,45.027466,-171.74377
1765376986459,-0.71240234,-0.19824219,-0.6743164,0.18310547,0.6713867,-0.12207031,0.0,0.0,0.0,-163.22937,45.027466,-171.74377
1765376986471,-0.71240234,-0.19824219,-0.6743164,0.18310547,0.6713867,-0.12207031,0.0,0.0,0.0,-163.2074,44.972534,-171.7218
1765376986558,-0.71240234,-0.20117188,-0.6767578,0.24414062,0.48828125,-0.18310547,0.0,0.0,0.0,-163.2074,44.972534,-171.7218
1765376986570,-0.71240234,-0.20117188,-0.6767578,0.24414062,0.48828125,-0.18310547,0.0,0.0,0.0,-163.17444,44.923096,-171.69434
1765376986658,-0.70996094,-0.19921875,-0.67578125,0.061035156,0.9765625,0.0,0.0,0.0,0.0,-163.17444,44.923096,-171.69434
1765376986669,-0.70996094,-0.19921875,-0.67578125,0.061035156,0.9765625,0.0,0.0,0.0,0.0,-163.16345,44.835205,-171.71082
1765376986758,-0.70947266,-0.20214844,-0.67871094,0.9765625,-0.12207031,-0.30517578,0.0,0.0,0.0,-163.16345,44.835205,-171.71082
1765376986769,-0.70947266,-0.20214844,-0.67871094,0.9765625,-0.12207031,-0.30517578,0.0,0.0,0.0,-163.07556,44.802246,-171.67786
1765376986857,-0.71191406,-0.20410156,-0.6796875,0.48828125,0.0,-0.18310547,0.0,0.0,0.0,-163.07556,44.802246,-171.67786
1765376986869,-0.71191406,-0.20410156,-0.6796875,0.48828125,0.0,-0.18310547,0.0,0.0,0.0,-162.98218,44.796753,-171.65039
1765376986957,-0.70947266,-0.20410156,-0.6777344,0.30517578,0.18310547,0.0,0.0,0.0,0.0,-162.98218,44.796753,-171.65039
1765376986968,-0.70947266,-0.20410156,-0.6777344,0.30517578,0.18310547,0.0,0.0,0.0,0.0,-162.92175,44.802246,-171.62842
1765376987057,-0.70996094,-0.20507812,-0.67871094,0.4272461,0.061035156,-0.061035156,0.0,0.0,0.0,-162.92175,44.802246,-171.62842
1765376987068,-0.70996094,-0.20507812,-0.67871094,0.4272461,0.061035156,-0.061035156,0.0,0.0,0.0,-162.8833,44.796753,-171.62292
1765376987156,-0.7109375,-0.20507812,-0.6772461,0.12207031,0.0,0.0,0.0,0.0,0.0,-162.8833,44.796753,-171.62292
1765376987168,-0.7109375,-0.20507812,-0.6772461,0.12207031,0.0,0.0,0.0,0.0,0.0,-162.85583,44.785767,-171.63391
1765376987257,-0.7109375,-0.20605469,-0.6801758,0.0,0.061035156,0.0,0.0,0.0,0.0,-162.85583,44.785767,-171.63391
1765376987268,-0.7109375,-0.20605469,-0.6801758,0.0,0.061035156,0.0,0.0,0.0,0.0,-162.83386,44.79126,-171.60645
1765376987356,-0.7104492,-0.20800781,-0.6801758,0.0,0.7324219,0.0,0.0,0.0,0.0,-162.83386,44.79126,-171.60645
1765376987367,-0.7104492,-0.20800781,-0.6801758,0.0,0.7324219,0.0,0.0,0.0,0.0,-162.82837,44.769287,-171.58447
1765376987456,-0.70947266,-0.2055664,-0.6796875,0.12207031,0.4272461,0.0,0.0,0.0,0.0,-162.82837,44.769287,-171.58447
1765376987467,-0.70947266,-0.2055664,-0.6796875,0.12207031,0.4272461,0.0,0.0,0.0,0.0,-162.82837,44.71985,-171.57898
1765376987555,-0.70996094,-0.20605469,-0.6791992,0.12207031,0.12207031,0.0,0.0,0.0,0.0,-162.82837,44.71985,-171.57898
1765376987567,-0.70996094,-0.20605469,-0.6791992,0.12207031,0.12207031,0.0,0.0,0.0,0.0,-162.77893,44.730835,-171.5625
1765376987655,-0.70996094,-0.20751953,-0.67871094,0.12207031,-0.30517578,0.0,0.0,0.0,0.0,-162.77893,44.730835,-171.5625
1765376987666,-0.70996094,-0.20751953,-0.67871094,0.12207031,-0.30517578,0.0,0.0,0.0,0.0,-162.76245,44.74182,-171.54602
1765376987755,-0.7104492,-0.20751953,-0.6772461,0.0,-0.061035156,0.0,0.0,0.0,0.0,-162.76245,44.74182,-171.54602
1765376987767,-0.7104492,-0.20751953,-0.6772461,0.0,-0.061035156,0.0,0.0,0.0,0.0,-162.74048,44.7583,-171.52405
1765376987854,-0.70947266,-0.20654297,-0.6777344,0.0,0.0,0.0,0.0,0.0,0.0,-162.74048,44.7583,-171.52405
1765376987866,-0.70947266,-0.20654297,-0.6777344,0.0,0.0,0.0,0.0,0.0,0.0,-162.72949,44.7583,-171.51306
1765376987954,-0.70996094,-0.20654297,-0.67578125,-0.061035156,-0.18310547,0.0,0.0,0.0,0.0,-162.72949,44.7583,-171.51306
1765376987966,-0.70996094,-0.20654297,-0.67578125,-0.061035156,-0.18310547,0.0,0.0,0.0,0.0,-162.71301,44.769287,-171.49658
1765376988054,-0.70947266,-0.20800781,-0.6748047,-0.061035156,0.0,0.0,0.0,0.0,0.0,-162.71301,44.769287,-171.49658
1765376988066,-0.70947266,-0.20800781,-0.6748047,-0.061035156,0.0,0.0,0.0,0.0,0.0,-162.70752,44.780273,-171.49109
1765376988154,-0.7080078,-0.20458984,-0.6713867,-0.18310547,0.30517578,0.0,0.0,0.0,0.0,-162.70752,44.780273,-171.49109
1765376988165,-0.7080078,-0.20458984,-0.6713867,-0.18310547,0.30517578,0.0,0.0,0.0,0.0,-162.7185,44.752808,-171.50208
1765376988253,-0.7089844,-0.20654297,-0.6767578,0.30517578,-0.12207031,0.0,0.0,0.0,0.0,-162.7185,44.752808,-171.50208
1765376988265,-0.7089844,-0.20654297,-0.6767578,0.30517578,-0.12207031,0.0,0.0,0.0,0.0,-162.70203,44.74182,-171.52954
1765376988353,-0.7104492,-0.20800781,-0.67871094,0.0,0.0,0.0,0.0,0.0,0.0,-162.70203,44.74182,-171.52954
1765376988365,-0.7104492,-0.20800781,-0.67871094,0.0,0.0,0.0,0.0,0.0,0.0,-162.69653,44.730835,-171.557
1765376988453,-0.7089844,-0.2084961,-0.67626953,0.0,-0.061035156,0.0,0.0,0.0,0.0,-162.69653,44.730835,-171.557
1765376988464,-0.7089844,-0.2084961,-0.67626953,0.0,-0.061035156,0.0,0.0,0.0,0.0,-162.67456,44.752808,-171.57349
1765376988553,-0.70996094,-0.20654297,-0.6772461,0.0,0.061035156,0.0,0.0,0.0,0.0,-162.67456,44.752808,-171.57349
1765376988564,-0.70996094,-0.20654297,-0.6772461,0.0,0.061035156,0.0,0.0,0.0,0.0,-162.66907,44.7583,-171.57898
1765376988652,-0.7104492,-0.20703125,-0.6772461,0.0,-0.061035156,0.0,0.0,0.0,0.0,-162.66907,44.7583,-171.57898
1765376988664,-0.7104492,-0.20703125,-0.6772461,0.0,-0.061035156,0.0,0.0,0.0,0.0,-162.66357,44.7583,-171.58997
1765376988752,-0.70996094,-0.20751953,-0.6767578,-0.18310547,0.12207031,0.0,0.0,0.0,0.0,-162.66357,44.7583,-171.58997
1765376988764,-0.70996094,-0.20751953,-0.6767578,-0.18310547,0.12207031,0.0,0.0,0.0,0.0,-162.65808,44.763794,-171.58447
1765376988852,-0.7104492,-0.20751953,-0.67626953,-0.36621094,0.61035156,0.0,0.0,0.0,0.0,-162.65808,44.763794,-171.58447
1765376988863,-0.7104492,-0.20751953,-0.67626953,-0.36621094,0.61035156,0.0,0.0,0.0,0.0,-162.66357,44.763794,-171.57898
1765376988951,-0.70947266,-0.20654297,-0.6796875,-0.12207031,0.5493164,0.0,0.0,0.0,0.0,-162.66357,44.763794,-171.57898
1765376988963,-0.70947266,-0.20654297,-0.6796875,-0.12207031,0.5493164,0.0,0.0,0.0,0.0,-162.68005,44.72534,-171.58997
1765376989051,-0.70947266,-0.2055664,-0.6791992,-0.12207031,0.30517578,0.0,0.0,0.0,0.0,-162.68005,44.72534,-171.58997
1765376989063,-0.70947266,-0.2055664,-0.6791992,-0.12207031,0.30517578,0.0,0.0,0.0,0.0,-162.65259,44.72534,-171.59546
1765376989151,-0.70996094,-0.20800781,-0.6777344,0.061035156,-0.30517578,0.0,0.0,0.0,0.0,-162.65259,44.72534,-171.59546
1765376989162,-0.70996094,-0.20800781,-0.6777344,0.061035156,-0.30517578,0.0,0.0,0.0,0.0,-162.65259,44.72534,-171.60095
1765376989251,-0.7089844,-0.2055664,-0.6767578,0.0,0.061035156,0.0,0.0,0.0,0.0,-162.65259,44.72534,-171.60095
1765376989262,-0.7089844,-0.2055664,-0.6767578,0.0,0.061035156,0.0,0.0,0.0,0.0,-162.6416,44.74182,-171.60645
1765376989350,-0.70947266,-0.20703125,-0.67626953,0.0,0.061035156,0.0,0.0,0.0,0.0,-162.6416,44.74182,-171.60645
1765376989362,-0.70947266,-0.20703125,-0.67626953,0.0,0.061035156,0.0,0.0,0.0,0.0,-162.63062,44.74182,-171.59546
1765376989450,-0.70996094,-0.20654297,-0.6777344,0.0,-0.061035156,0.0,0.0,0.0,0.0,-162.63062,44.74182,-171.59546
1765376989461,-0.70996094,-0.20654297,-0.6777344,0.0,-0.061035156,0.0,0.0,0.0,0.0,-162.62512,44.747314,-171.59546
1765376989550,-0.7104492,-0.20800781,-0.6772461,0.0,-0.18310547,0.0,0.0,0.0,0.0,-162.62512,44.747314,-171.59546
1765376989561,-0.7104492,-0.20800781,-0.6772461,0.0,-0.18310547,0.0,0.0,0.0,0.0,-162.62512,44.752808,-171.60095
1765376989649,-0.7114258,-0.20703125,-0.68066406,0.061035156,0.061035156,0.0,0.0,0.0,0.0,-162.62512,44.752808,-171.60095
1765376989661,-0.7114258,-0.20703125,-0.68066406,0.061035156,0.061035156,0.0,0.0,0.0,0.0,-162.63611,44.730835,-171.61743
1765376989749,-0.7089844,-0.20947266,-0.67822266,0.24414062,-0.061035156,0.0,0.0,0.0,0.0,-162.63611,44.730835,-171.61743
1765376989761,-0.7089844,-0.20947266,-0.67822266,0.24414062,-0.061035156,0.0,0.0,0.0,0.0,-162.6471,44.70337,-171.62842
1765376989849,-0.7104492,-0.20751953,-0.67871094,-0.12207031,0.18310547,0.0,0.0,0.0,0.0,-162.6471,44.70337,-171.62842
1765376989860,-0.7104492,-0.20751953,-0.67871094,-0.12207031,0.18310547,0.0,0.0,0.0,0.0,-162.6471,44.68689,-171.62842
1765376989949,-0.70947266,-0.20703125,-0.67626953,-0.061035156,-0.30517578,0.0,0.0,0.0,0.0,-162.6471,44.68689,-171.62842
1765376989960,-0.70947266,-0.20703125,-0.67626953,-0.061035156,-0.30517578,0.0,0.0,0.0,0.0,-162.6416,44.70337,-171.61743
1765376990049,-0.70947266,-0.2084961,-0.6777344,0.0,0.0,0.0,0.0,0.0,0.0,-162.6416,44.70337,-171.61743
1765376990061,-0.70947266,-0.2084961,-0.6777344,0.0,0.0,0.0,0.0,0.0,0.0,-162.63611,44.708862,-171.6394
1765376990149,-0.7089844,-0.20703125,-0.6772461,0.0,0.0,0.0,0.0,0.0,0.0,-162.63611,44.708862,-171.6394
1765376990162,-0.7089844,-0.20703125,-0.6772461,0.0,0.0,0.0,0.0,0.0,0.0,-162.63062,44.714355,-171.6449
1765376990248,-0.70947266,-0.20605469,-0.6772461,-0.061035156,-0.12207031,0.0,0.0,0.0,0.0,-162.63062,44.714355,-171.6449
1765376990259,-0.70947266,-0.20605469,-0.6772461,-0.061035156,-0.12207031,0.0,0.0,0.0,0.0,-162.62512,44.72534,-171.62842
1765376990348,-0.70947266,-0.20800781,-0.67529297,-0.061035156,0.0,0.0,0.0,0.0,0.0,-162.62512,44.72534,-171.62842
1765376990359,-0.70947266,-0.20800781,-0.67529297,-0.061035156,0.0,0.0,0.0,0.0,0.0,-162.62512,44.73633,-171.62842
1765376990447,-0.7080078,-0.20458984,-0.67089844,-0.18310547,0.18310547,0.0,0.0,0.0,0.0,-162.62512,44.73633,-171.62842
1765376990459,-0.7080078,-0.20458984,-0.67089844,-0.18310547,0.18310547,0.0,0.0,0.0,0.0,-162.63611,44.714355,-171.6394
1765376990547,-0.7089844,-0.20751953,-0.6772461,0.30517578,-0.061035156,0.0,0.0,0.0,0.0,-162.63611,44.714355,-171.6394
1765376990558,-0.7089844,-0.20751953,-0.6772461,0.30517578,-0.061035156,0.0,0.0,0.0,0.0,-162.62512,44.70337,-171.6394
1765376990646,-0.70947266,-0.20751953,-0.67822266,0.0,0.0,0.0,0.0,0.0,0.0,-162.62512,44.70337,-171.6394
1765376990658,-0.70947266,-0.20751953,-0.67822266,0.0,0.0,0.0,0.0,0.0,0.0,-162.62512,44.692383,-171.6394
1765376990746,-0.7084961,-0.20800781,-0.6767578,-0.061035156,0.0,0.0,0.0,0.0,0.0,-162.62512,44.692383,-171.6394
1765376990758,-0.7084961,-0.20800781,-0.6767578,-0.061035156,0.0,0.0,0.0,0.0,0.0,-162.61414,44.714355,-171.63391
1765376990846,-0.70947266,-0.20654297,-0.6777344,0.0,0.061035156,0.0,0.0,0.0,0.0,-162.61414,44.714355,-171.63391
1765376990858,-0.70947266,-0.20654297,-0.6777344,0.0,0.061035156,0.0,0.0,0.0,0.0,-162.61414,44.714355,-171.63391
1765376990946,-0.70996094,-0.20605469,-0.67871094,0.0,0.0,0.0,0.0,0.0,0.0,-162.61414,44.714355,-171.63391
1765376990957,-0.70996094,-0.20605469,-0.67871094,0.0,0.0,0.0,0.0,0.0,0.0,-162.60864,44.71985,-171.63391
1765376991045,-0.70947266,-0.20654297,-0.67626953,-0.18310547,0.0,0.0,0.0,0.0,0.0,-162.60864,44.71985,-171.63391
1765376991057,-0.70947266,-0.20654297,-0.67626953,-0.18310547,0.0,0.0,0.0,0.0,0.0,-162.60864,44.72534,-171.63391
1765376991145,-0.7089844,-0.20751953,-0.6748047,-0.18310547,0.24414062,0.0,0.0,0.0,0.0,-162.60864,44.72534,-171.63391
1765376991157,-0.7089844,-0.20751953,-0.6748047,-0.18310547,0.24414062,0.0,0.0,0.0,0.0,-162.61414,44.72534,-171.6449
1765376991245,-0.70703125,-0.2055664,-0.67529297,-0.24414062,0.79345703,0.0,0.0,0.0,0.0,-162.61414,44.72534,-171.6449
1765376991256,-0.70703125,-0.2055664,-0.67529297,-0.24414062,0.79345703,0.0,0.0,0.0,0.0,-162.63611,44.692383,-171.6394
1765376991345,-0.7084961,-0.20458984,-0.6772461,0.061035156,0.12207031,0.0,0.0,0.0,0.0,-162.63611,44.692383,-171.6394
1765376991356,-0.7084961,-0.20458984,-0.6772461,0.061035156,0.12207031,0.0,0.0,0.0,0.0,-162.61963,44.68689,-171.6449
1765376991444,-0.70996094,-0.20800781,-0.6791992,0.0,0.0,0.0,0.0,0.0,0.0,-162.61963,44.68689,-171.6449
1765376991456,-0.70996094,-0.20800781,-0.6791992,0.0,0.0,0.0,0.0,0.0,0.0,-162.61963,44.681396,-171.65588
1765376991544,-0.7089844,-0.20654297,-0.6777344,-0.061035156,0.061035156,0.0,0.0,0.0,0.0,-162.61963,44.681396,-171.65588
1765376991555,-0.7089844,-0.20654297,-0.6777344,-0.061035156,0.061035156,0.0,0.0,0.0,0.0,-162.60864,44.697876,-171.65588
1765376991644,-0.70947266,-0.20654297,-0.67822266,-0.061035156,0.12207031,0.0,0.0,0.0,0.0,-162.60864,44.697876,-171.65588
1765376991655,-0.70947266,-0.20654297,-0.67822266,-0.061035156,0.12207031,0.0,0.0,0.0,0.0,-162.60315,44.697876,-171.66687
1765376991743,-0.70947266,-0.20654297,-0.6777344,0.0,0.0,0.0,0.0,0.0,0.0,-162.60315,44.697876,-171.66687
1765376991755,-0.70947266,-0.20654297,-0.6777344,0.0,0.0,0.0,0.0,0.0,0.0,-162.60315,44.697876,-171.67236
1765376991843,-0.70947266,-0.20703125,-0.6772461,-0.24414062,0.18310547,0.0,0.0,0.0,0.0,-162.60315,44.697876,-171.67236
1765376991854,-0.70947266,-0.20703125,-0.6772461,-0.24414062,0.18310547,0.0,0.0,0.0,0.0,-162.61414,44.70337,-171.67786
1765376991943,-0.70996094,-0.20751953,-0.6738281,-0.36621094,0.48828125,0.0,0.0,0.0,0.0,-162.61414,44.70337,-171.67786
1765376991954,-0.70996094,-0.20751953,-0.6738281,-0.36621094,0.48828125,0.0,0.0,0.0,0.0,-162.61963,44.692383,-171.68884
1765376992042,-0.7089844,-0.20605469,-0.67871094,-0.24414062,0.6713867,0.0,0.0,0.0,0.0,-162.61963,44.692383,-171.68884
1765376992054,-0.7089844,-0.20605469,-0.67871094,-0.24414062,0.6713867,0.0,0.0,0.0,0.0,-162.6416,44.664917,-171.71082
1765376992142,-0.7089844,-0.20410156,-0.67822266,0.0,0.30517578,0.0,0.0,0.0,0.0,-162.6416,44.664917,-171.71082
1765376992154,-0.7089844,-0.20410156,-0.67822266,0.0,0.30517578,0.0,0.0,0.0,0.0,-162.62512,44.659424,-171.7218
1765376992242,-0.70996094,-0.20751953,-0.6796875,0.0,-0.24414062,0.0,0.0,0.0,0.0,-162.62512,44.659424,-171.7218
1765376992254,-0.70996094,-0.20751953,-0.6796875,0.0,-0.24414062,0.0,0.0,0.0,0.0,-162.62512,44.659424,-171.7273
1765376992342,-0.70947266,-0.20507812,-0.6767578,-0.12207031,0.0,0.0,0.0,0.0,0.0,-162.62512,44.659424,-171.7273
1765376992353,-0.70947266,-0.20507812,-0.6767578,-0.12207031,0.0,0.0,0.0,0.0,0.0,-162.61414,44.68689,-171.7273
1765376992441,-0.7089844,-0.20751953,-0.6772461,-0.061035156,0.0,0.0,0.0,0.0,0.0,-162.61414,44.68689,-171.7273
1765376992453,-0.7089844,-0.20751953,-0.6772461,-0.061035156,0.0,0.0,0.0,0.0,0.0,-162.60864,44.68689,-171.7273
1765376992541,-0.70996094,-0.20654297,-0.6777344,-0.061035156,-0.061035156,0.0,0.0,0.0,0.0,-162.60864,44.68689,-171.7273
1765376992553,-0.70996094,-0.20654297,-0.6777344,-0.061035156,-0.061035156,0.0,0.0,0.0,0.0,-162.60315,44.697876,-171.73279
1765376992645,-0.70996094,-0.20751953,-0.67871094,-0.12207031,0.061035156,0.0,0.0,0.0,0.0,-162.60315,44.697876,-171.73279
1765376992653,-0.70996094,-0.20751953,-0.67871094,-0.12207031,0.061035156,0.0,0.0,0.0,0.0,-162.60864,44.70337,-171.73279
1765376992741,-0.70996094,-0.20751953,-0.6767578,-0.36621094,0.5493164,0.0,0.0,0.0,0.0,-162.60864,44.70337,-171.73279
1765376992752,-0.70996094,-0.20751953,-0.6767578,-0.36621094,0.5493164,0.0,0.0,0.0,0.0,-162.61414,44.70337,-171.74377
1765376992842,-0.70947266,-0.20654297,-0.6801758,-0.18310547,0.5493164,0.0,0.0,0.0,0.0,-162.61414,44.70337,-171.74377
1765376992852,-0.70947266,-0.20654297,-0.6801758,-0.18310547,0.5493164,0.0,0.0,0.0,0.0,-162.63611,44.67041,-171.76025
1765376992940,-0.70947266,-0.20507812,-0.6796875,-0.061035156,0.30517578,0.0,0.0,0.0,0.0,-162.63611,44.67041,-171.76025
1765376992952,-0.70947266,-0.20507812,-0.6796875,-0.061035156,0.30517578,0.0,0.0,0.0,0.0,-162.61414,44.67041,-171.77124
1765376993040,-0.70996094,-0.20800781,-0.6791992,0.061035156,-0.30517578,0.0,0.0,0.0,0.0,-162.61414,44.67041,-171.77124
1765376993051,-0.70996094,-0.20800781,-0.6791992,0.061035156,-0.30517578,0.0,0.0,0.0,0.0,-162.61963,44.664917,-171.77673
1765376993139,-0.70947266,-0.2055664,-0.6777344,-0.12207031,0.0,0.0,0.0,0.0,0.0,-162.61963,44.664917,-171.77673
1765376993151,-0.70947266,-0.2055664,-0.6777344,-0.12207031,0.0,0.0,0.0,0.0,0.0,-162.60864,44.68689,-171.77124
1765376993239,-0.7084961,-0.20751953,-0.6772461,0.0,0.0,0.0,0.0,0.0,0.0,-162.60864,44.68689,-171.77124
1765376993251,-0.7084961,-0.20751953,-0.6772461,0.0,0.0,0.0,0.0,0.0,0.0,-162.60864,44.68689,-171.77673
1765376993339,-0.70947266,-0.20703125,-0.6777344,0.0,-0.061035156,0.0,0.0,0.0,0.0,-162.60864,44.68689,-171.77673
1765376993351,-0.70947266,-0.20703125,-0.6777344,0.0,-0.061035156,0.0,0.0,0.0,0.0,-162.60315,44.692383,-171.77673
1765376993439,-0.7089844,-0.20751953,-0.6796875,-0.12207031,0.12207031,0.0,0.0,0.0,0.0,-162.60315,44.692383,-171.77673
1765376993450,-0.7089844,-0.20751953,-0.6796875,-0.12207031,0.12207031,0.0,0.0,0.0,0.0,-162.60864,44.692383,-171.78223
1765376993538,-0.70996094,-0.20800781,-0.67822266,-0.30517578,0.61035156,0.0,0.0,0.0,0.0,-162.60864,44.692383,-171.78223
1765376993550,-0.70996094,-0.20800781,-0.67822266,-0.30517578,0.61035156,0.0,0.0,0.0,0.0,-162.61963,44.68689,-171.78772
1765376993638,-0.7104492,-0.20751953,-0.6796875,-0.12207031,0.4272461,0.0,0.0,0.0,0.0,-162.61963,44.68689,-171.78772
1765376993649,-0.7104492,-0.20751953,-0.6796875,-0.12207031,0.4272461,0.0,0.0,0.0,0.0,-162.6416,44.65393,-171.8097
1765376993738,-0.70947266,-0.20507812,-0.68066406,-0.12207031,0.30517578,0.0,0.0,0.0,0.0,-162.6416,44.65393,-171.8097
1765376993749,-0.70947266,-0.20507812,-0.68066406,-0.12207031,0.30517578,0.0,0.0,0.0,0.0,-162.62512,44.648438,-171.81519
1765376993837,-0.70996094,-0.20751953,-0.6791992,0.061035156,-0.30517578,0.0,0.0,0.0,0.0,-162.62512,44.648438,-171.81519
1765376993849,-0.70996094,-0.20751953,-0.6791992,0.061035156,-0.30517578,0.0,0.0,0.0,0.0,-162.63062,44.642944,-171.82068
1765376993937,-0.7084961,-0.20605469,-0.67822266,-0.061035156,0.0,0.0,0.0,0.0,0.0,-162.63062,44.642944,-171.82068
1765376993949,-0.7084961,-0.20605469,-0.67822266,-0.061035156,0.0,0.0,0.0,0.0,0.0,-162.62512,44.664917,-171.81519
1765376994037,-0.7089844,-0.20800781,-0.67871094,0.0,0.0,0.0,0.0,0.0,0.0,-162.62512,44.664917,-171.81519
1765376994049,-0.7089844,-0.20800781,-0.67871094,0.0,0.0,0.0,0.0,0.0,0.0,-162.61963,44.664917,-171.81519
1765376994137,-0.7089844,-0.20654297,-0.67822266,-0.061035156,-0.061035156,0.0,0.0,0.0,0.0,-162.61963,44.664917,-171.81519
1765376994148,-0.7089844,-0.20654297,-0.67822266,-0.061035156,-0.061035156,0.0,0.0,0.0,0.0,-162.61414,44.67041,-171.81519
1765376994237,-0.70947266,-0.2084961,-0.6796875,0.0,-0.061035156,0.0,0.0,0.0,0.0,-162.61414,44.67041,-171.81519
1765376994248,-0.70947266,-0.2084961,-0.6796875,0.0,-0.061035156,0.0,0.0,0.0,0.0,-162.61963,44.675903,-171.81519
1765376994337,-0.70947266,-0.20947266,-0.6816406,-0.061035156,0.4272461,0.0,0.0,0.0,0.0,-162.61963,44.675903,-171.81519
1765376994348,-0.70947266,-0.20947266,-0.6816406,-0.061035156,0.4272461,0.0,0.0,0.0,0.0,-162.63062,44.67041,-171.82617
1765376994436,-0.70996094,-0.20605469,-0.6791992,-0.24414062,0.6713867,0.0,0.0,0.0,0.0,-162.63062,44.67041,-171.82617
1765376994447,-0.70996094,-0.20605469,-0.6791992,-0.24414062,0.6713867,0.0,0.0,0.0,0.0,-162.6471,44.63745,-171.84265
1765376994536,-0.7084961,-0.20458984,-0.6791992,-0.061035156,0.36621094,0.0,0.0,0.0,0.0,-162.6471,44.63745,-171.84265
1765376994548,-0.7084961,-0.20458984,-0.6791992,-0.061035156,0.36621094,0.0,0.0,0.0,0.0,-162.63062,44.63745,-171.84814
1765376994635,-0.7089844,-0.20751953,-0.68066406,0.0,-0.18310547,0.0,0.0,0.0,0.0,-162.63062,44.63745,-171.84814
1765376994647,-0.7089844,-0.20751953,-0.68066406,0.0,-0.18310547,0.0,0.0,0.0,0.0,-162.63611,44.63745,-171.84814
1765376994735,-0.7084961,-0.20458984,-0.6772461,-0.18310547,0.061035156,0.0,0.0,0.0,0.0,-162.63611,44.63745,-171.84814
1765376994747,-0.7084961,-0.20458984,-0.6772461,-0.18310547,0.061035156,0.0,0.0,0.0,0.0,-162.63611,44.65393,-171.84265
1765376994835,-0.7084961,-0.20703125,-0.6777344,0.0,0.061035156,0.0,0.0,0.0,0.0,-162.63611,44.65393,-171.84265
1765376994846,-0.7084961,-0.20703125,-0.6777344,0.0,0.061035156,0.0,0.0,0.0,0.0,-162.63062,44.659424,-171.84814
1765376994935,-0.7089844,-0.20654297,-0.6791992,-0.061035156,-0.061035156,0.0,0.0,0.0,0.0,-162.63062,44.659424,-171.84814
1765376994946,-0.7089844,-0.20654297,-0.6791992,-0.061035156,-0.061035156,0.0,0.0,0.0,0.0,-162.62512,44.664917,-171.84814
1765376995034,-0.7089844,-0.20800781,-0.6796875,-0.12207031,0.12207031,0.0,0.0,0.0,0.0,-162.62512,44.664917,-171.84814
1765376995046,-0.7089844,-0.20800781,-0.6796875,-0.12207031,0.12207031,0.0,0.0,0.0,0.0,-162.6416,44.67041,-171.84814
1765376995134,-0.70947266,-0.20751953,-0.67871094,-0.30517578,0.61035156,0.0,0.0,0.0,0.0,-162.6416,44.67041,-171.84814
1765376995146,-0.70947266,-0.20751953,-0.67871094,-0.30517578,0.61035156,0.0,0.0,0.0,0.0,-162.65259,44.65393,-171.85364
1765376995234,-0.7084961,-0.20605469,-0.68115234,0.0,0.61035156,0.0,0.0,0.0,0.0,-162.65259,44.65393,-171.85364
1765376995245,-0.7084961,-0.20605469,-0.68115234,0.0,0.61035156,0.0,0.0,0.0,0.0,-162.66907,44.61548,-171.87561
1765376995333,-0.7109375,-0.20605469,-0.6777344,-0.12207031,0.30517578,0.0,0.0,0.0,0.0,-162.66907,44.61548,-171.87561
1765376995345,-0.7109375,-0.20605469,-0.6777344,-0.12207031,0.30517578,0.0,0.0,0.0,0.0,-162.6416,44.626465,-171.87561
1765376995433,-0.70751953,-0.20605469,-0.68066406,0.18310547,-0.24414062,0.0,0.0,0.0,0.0,-162.6416,44.626465,-171.87561
1765376995445,-0.70751953,-0.20605469,-0.68066406,0.18310547,-0.24414062,0.0,0.0,0.0,0.0,-162.6471,44.62097,-171.8811
1765376995533,-0.7089844,-0.20605469,-0.6772461,-0.061035156,0.061035156,0.0,0.0,0.0,0.0,-162.6471,44.62097,-171.8811
1765376995545,-0.7089844,-0.20605469,-0.6772461,-0.061035156,0.061035156,0.0,0.0,0.0,0.0,-162.6416,44.631958,-171.87561
1765376995633,-0.7084961,-0.20703125,-0.6801758,-0.061035156,0.061035156,0.0,0.0,0.0,0.0,-162.6416,44.631958,-171.87561
1765376995644,-0.7084961,-0.20703125,-0.6801758,-0.061035156,0.061035156,0.0,0.0,0.0,0.0,-162.63611,44.631958,-171.8811
1765376995732,-0.7084961,-0.2055664,-0.67871094,-0.061035156,0.0,0.0,0.0,0.0,0.0,-162.63611,44.631958,-171.8811
1765376995744,-0.7084961,-0.2055664,-0.67871094,-0.061035156,0.0,0.0,0.0,0.0,0.0,-162.6416,44.63745,-171.8811
1765376995832,-0.7084961,-0.20800781,-0.68115234,-0.12207031,0.0,0.0,0.0,0.0,0.0,-162.6416,44.63745,-171.8811
1765376995844,-0.7084961,-0.20800781,-0.68115234,-0.12207031,0.0,0.0,0.0,0.0,0.0,-162.65259,44.63745,-171.8811
1765376995932,-0.7084961,-0.20996094,-0.6826172,-0.18310547,0.5493164,0.0,0.0,0.0,0.0,-162.65259,44.63745,-171.8811
1765376995943,-0.7084961,-0.20996094,-0.6826172,-0.18310547,0.5493164,0.0,0.0,0.0,0.0,-162.66357,44.626465,-171.89209
1765376996031,-0.7089844,-0.20800781,-0.6826172,0.061035156,0.18310547,0.0,0.0,0.0,0.0,-162.66357,44.626465,-171.89209
1765376996043,-0.7089844,-0.20800781,-0.6826172,0.061035156,0.18310547,0.0,0.0,0.0,0.0,-162.68005,44.599,-171.90308
1765376996131,-0.70751953,-0.20458984,-0.6801758,-0.061035156,0.18310547,0.0,0.0,0.0,0.0,-162.68005,44.599,-171.90308
1765376996143,-0.70751953,-0.20458984,-0.6801758,-0.061035156,0.18310547,0.0,0.0,0.0,0.0,-162.66907,44.599,-171.90857
1765376996231,-0.7089844,-0.20751953,-0.68066406,0.061035156,-0.30517578,0.0,0.0,0.0,0.0,-162.66907,44.599,-171.90857
1765376996242,-0.7089844,-0.20751953,-0.68066406,0.061035156,-0.30517578,0.0,0.0,0.0,0.0,-162.66907,44.609985,-171.90308
1765376996331,-0.7084961,-0.20654297,-0.6791992,-0.061035156,0.0,0.0,0.0,0.0,0.0,-162.66907,44.609985,-171.90308
1765376996342,-0.7084961,-0.20654297,-0.6791992,-0.061035156,0.0,0.0,0.0,0.0,0.0,-162.66357,44.62097,-171.90308
1765376996430,-0.7080078,-0.20654297,-0.67822266,0.061035156,0.0,0.0,0.0,0.0,0.0,-162.66357,44.62097,-171.90308
1765376996442,-0.7080078,-0.20654297,-0.67822266,0.061035156,0.0,0.0,0.0,0.0,0.0,-162.65808,44.62097,-171.90308
1765376996532,-0.7128906,-0.20800781,-0.68310547,1.8310547,-1.7700195,-0.48828125,0.0,0.0,0.0,-162.65808,44.62097,-171.90308
1765376996542,-0.7128906,-0.20800781,-0.68310547,1.8310547,-1.7700195,-0.48828125,0.0,0.0,0.0,-162.53174,44.67041,-171.86462
1765376996630,-0.71240234,-0.21923828,-0.6645508,2.9907227,0.91552734,0.91552734,0.0,0.0,0.0,-162.53174,44.67041,-171.86462
1765376996641,-0.71240234,-0.21923828,-0.6645508,2.9907227,0.91552734,0.91552734,0.0,0.0,0.0,-162.32849,44.747314,-171.85913
1765376996730,-0.7036133,-0.20117188,-0.67626953,5.92041,3.2348633,1.8920898,0.0,0.0,0.0,-162.32849,44.747314,-171.85913
1765376996741,-0.7036133,-0.20117188,-0.67626953,5.92041,3.2348633,1.8920898,0.0,0.0,0.0,-162.02087,44.58252,-172.06238
1765376996829,-0.7114258,-0.21484375,-0.69189453,6.1035156,0.7324219,2.6855469,0.0,0.0,0.0,-162.02087,44.58252,-172.06238
1765376996841,-0.7114258,-0.21484375,-0.69189453,6.1035156,0.7324219,2.6855469,0.0,0.0,0.0,-161.86707,44.44519,-172.51282
1765376996929,-0.70947266,-0.20898438,-0.6816406,5.79834,-0.061035156,2.5634766,0.0,0.0,0.0,-161.86707,44.44519,-172.51282
1765376996941,-0.70947266,-0.20898438,-0.6816406,5.79834,-0.061035156,2.5634766,0.0,0.0,0.0,-161.5979,44.505615,-172.91382
1765376997029,-0.7026367,-0.2084961,-0.6879883,5.859375,-0.7324219,-2.0141602,0.0,0.0,0.0,-161.5979,44.505615,-172.91382
1765376997040,-0.7026367,-0.2084961,-0.6879883,5.859375,-0.7324219,-2.0141602,0.0,0.0,0.0,-161.01562,44.47815,-173.02368
1765376997128,-0.70214844,-0.2553711,-0.6743164,0.18310547,-5.065918,0.0,0.0,0.0,0.0,-161.01562,44.47815,-173.02368
1765376997140,-0.70214844,-0.2553711,-0.6743164,0.18310547,-5.065918,0.0,0.0,0.0,0.0,-160.5597,44.626465,-172.79297
1765376997228,-0.7182617,-0.25195312,-0.65527344,2.746582,-2.8686523,1.7700195,0.0,0.0,0.0,-160.5597,44.626465,-172.79297
1765376997240,-0.7182617,-0.25195312,-0.65527344,2.746582,-2.8686523,1.7700195,0.0,0.0,0.0,-160.26855,45.098877,-172.66663
1765376997328,-0.7294922,-0.21972656,-0.66259766,-0.4272461,-0.5493164,3.6621094,0.0,0.0,0.0,-160.26855,45.098877,-172.66663
1765376997339,-0.7294922,-0.21972656,-0.66259766,-0.4272461,-0.5493164,3.6621094,0.0,0.0,0.0,-160.36194,45.318604,-173.0072
1765376997428,-0.7114258,-0.23242188,-0.6542969,2.8076172,1.6479492,0.91552734,0.0,0.0,0.0,-160.36194,45.318604,-173.0072
1765376997439,-0.7114258,-0.23242188,-0.6542969,2.8076172,1.6479492,0.91552734,0.0,0.0,0.0,-160.51025,45.32959,-173.27087
1765376997527,-0.7182617,-0.23486328,-0.6591797,1.159668,-2.5634766,0.18310547,0.0,0.0,0.0,-160.51025,45.32959,-173.27087
1765376997539,-0.7182617,-0.23486328,-0.6591797,1.159668,-2.5634766,0.18310547,0.0,0.0,0.0,-160.26306,45.395508,-173.22693
1765376997627,-0.7167969,-0.23535156,-0.67333984,3.4179688,-6.8359375,-3.0517578,0.0,0.0,0.0,-160.26306,45.395508,-173.22693
1765376997639,-0.7167969,-0.23535156,-0.67333984,3.4179688,-6.8359375,-3.0517578,0.0,0.0,0.0,-159.76868,45.620728,-172.89734
1765376997727,-0.7236328,-0.22509766,-0.6201172,-6.4086914,6.5307617,-1.5258789,0.0,0.0,0.0,-159.76868,45.620728,-172.89734
1765376997738,-0.7236328,-0.22509766,-0.6201172,-6.4086914,6.5307617,-1.5258789,0.0,0.0,0.0,-159.93896,45.802002,-172.57874
1765376997827,-0.7167969,-0.23388672,-0.6640625,-5.004883,6.8969727,1.3427734,0.0,0.0,0.0,-159.93896,45.802002,-172.57874
1765376997838,-0.7167969,-0.23388672,-0.6640625,-5.004883,6.8969727,1.3427734,0.0,0.0,0.0,-160.65308,45.076904,-172.63916
1765376997926,-0.7080078,-0.2265625,-0.66748047,-4.333496,1.8920898,3.6621094,0.0,0.0,0.0,-160.65308,45.076904,-172.63916
1765376997938,-0.7080078,-0.2265625,-0.66748047,-4.333496,1.8920898,3.6621094,0.0,0.0,0.0,-161.2793,44.890137,-172.94128
1765376998026,-0.71240234,-0.20410156,-0.6816406,-3.8452148,-0.12207031,2.380371,0.0,0.0,0.0,-161.2793,44.890137,-172.94128
1765376998038,-0.71240234,-0.20410156,-0.6816406,-3.8452148,-0.12207031,2.380371,0.0,0.0,0.0,-162.05933,44.868164,-173.45215
1765376998126,-0.71435547,-0.21240234,-0.6694336,-0.24414062,-1.2817383,-0.061035156,0.0,0.0,0.0,-162.05933,44.868164,-173.45215
1765376998137,-0.71435547,-0.21240234,-0.6694336,-0.24414062,-1.2817383,-0.061035156,0.0,0.0,0.0,-162.3175,44.98352,-173.52905
1765376998225,-0.7060547,-0.20605469,-0.6738281,-0.61035156,1.8310547,0.061035156,0.0,0.0,0.0,-162.3175,44.98352,-173.52905
1765376998237,-0.7060547,-0.20605469,-0.6738281,-0.61035156,1.8310547,0.061035156,0.0,0.0,0.0,-162.27356,44.923096,-173.55103
1765376998325,-0.7133789,-0.20703125,-0.67041016,0.79345703,0.36621094,-0.30517578,0.0,0.0,0.0,-162.27356,44.923096,-173.55103
1765376998337,-0.7133789,-0.20703125,-0.67041016,0.79345703,0.36621094,-0.30517578,0.0,0.0,0.0,-162.29004,44.890137,-173.57849
1765376998425,-0.71240234,-0.20898438,-0.67529297,0.0,0.0,0.12207031,0.0,0.0,0.0,-162.29004,44.890137,-173.57849
1765376998436,-0.71240234,-0.20898438,-0.67529297,0.0,0.0,0.12207031,0.0,0.0,0.0,-162.21313,44.857178,-173.56201
1765376998525,-0.70996094,-0.22167969,-0.6777344,0.12207031,-0.24414062,0.6713867,0.0,0.0,0.0,-162.21313,44.857178,-173.56201
1765376998536,-0.70996094,-0.22167969,-0.6777344,0.12207031,-0.24414062,0.6713867,0.0,0.0,0.0,-162.20215,44.868164,-173.5675
1765376998624,-0.7211914,-0.19873047,-0.6748047,0.0,-0.8544922,0.30517578,0.0,0.0,0.0,-162.20215,44.868164,-173.5675
1765376998636,-0.7211914,-0.19873047,-0.6748047,0.0,-0.8544922,0.30517578,0.0,0.0,0.0,-162.30103,44.917603,-173.68835
1765376998724,-0.71435547,-0.21533203,-0.6791992,0.24414062,-1.5258789,-0.7324219,0.0,0.0,0.0,-162.30103,44.917603,-173.68835
1765376998735,-0.71435547,-0.21533203,-0.6791992,0.24414062,-1.5258789,-0.7324219,0.0,0.0,0.0,-162.2351,44.978027,-173.58398
1765376998824,-0.71435547,-0.21386719,-0.67529297,-0.61035156,-0.91552734,-0.18310547,0.0,0.0,0.0,-162.2351,44.978027,-173.58398
1765376998835,-0.71435547,-0.21386719,-0.67529297,-0.61035156,-0.91552734,-0.18310547,0.0,0.0,0.0,-162.17468,45.093384,-173.47961
1765376998923,-0.7192383,-0.21044922,-0.6689453,-0.79345703,-1.3427734,-0.4272461,0.0,0.0,0.0,-162.17468,45.093384,-173.47961
1765376998935,-0.7192383,-0.21044922,-0.6689453,-0.79345703,-1.3427734,-0.4272461,0.0,0.0,0.0,-162.1637,45.252686,-173.39722
1765376999023,-0.7133789,-0.21777344,-0.67089844,-0.36621094,-1.4648438,0.24414062,0.0,0.0,0.0,-162.1637,45.252686,-173.39722
1765376999035,-0.7133789,-0.21777344,-0.67089844,-0.36621094,-1.4648438,0.24414062,0.0,0.0,0.0,-162.18567,45.373535,-173.3313
1765376999123,-0.7241211,-0.20263672,-0.66552734,-0.6713867,-0.48828125,0.61035156,0.0,0.0,0.0,-162.18567,45.373535,-173.3313
1765376999135,-0.7241211,-0.20263672,-0.66552734,-0.6713867,-0.48828125,0.61035156,0.0,0.0,0.0,-162.2351,45.4834,-173.34229
1765376999223,-0.71484375,-0.21826172,-0.6669922,-0.5493164,-1.5869141,0.4272461,0.0,0.0,0.0,-162.2351,45.4834,-173.34229
1765376999235,-0.71484375,-0.21826172,-0.6669922,-0.5493164,-1.5869141,0.4272461,0.0,0.0,0.0,-162.323,45.582275,-173.30933
1765376999322,-0.7241211,-0.20605469,-0.6699219,-0.8544922,0.48828125,0.7324219,0.0,0.0,0.0,-162.323,45.582275,-173.30933
1765376999334,-0.7241211,-0.20605469,-0.6699219,-0.8544922,0.48828125,0.7324219,0.0,0.0,0.0,-162.44934,45.598755,-173.38623
1765376999422,-0.71875,-0.20361328,-0.6645508,-1.7089844,-0.061035156,1.4648438,0.0,0.0,0.0,-162.44934,45.598755,-173.38623
1765376999434,-0.71875,-0.20361328,-0.6645508,-1.7089844,-0.061035156,1.4648438,0.0,0.0,0.0,-162.69104,45.620728,-173.51257
1765376999522,-0.72216797,-0.1953125,-0.66308594,-2.0751953,-0.18310547,0.7324219,0.0,0.0,0.0,-162.69104,45.620728,-173.51257
1765376999533,-0.72216797,-0.1953125,-0.66308594,-2.0751953,-0.18310547,0.7324219,0.0,0.0,0.0,-162.97668,45.67566,-173.59497
1765376999621,-0.7207031,-0.19726562,-0.6586914,-2.1972656,0.48828125,0.36621094,0.0,0.0,0.0,-162.97668,45.67566,-173.59497
1765376999633,-0.7207031,-0.19726562,-0.6586914,-2.1972656,0.48828125,0.36621094,0.0,0.0,0.0,-163.16895,45.69763,-173.59497
1765376999721,-0.7211914,-0.19482422,-0.6640625,-0.12207031,0.5493164,0.0,0.0,0.0,0.0,-163.16895,45.69763,-173.59497
1765376999733,-0.7211914,-0.19482422,-0.6640625,-0.12207031,0.5493164,0.0,0.0,0.0,0.0,-163.25684,45.648193,-173.60046
1765376999821,-0.7192383,-0.19873047,-0.671875,0.6713867,-0.36621094,0.12207031,0.0,0.0,0.0,-163.25684,45.648193,-173.60046
1765376999832,-0.7192383,-0.19873047,-0.671875,0.6713867,-0.36621094,0.12207031,0.0,0.0,0.0,-163.15796,45.664673,-173.53455
1765376999921,-0.72314453,-0.19628906,-0.6669922,0.4272461,0.79345703,-0.30517578,0.0,0.0,0.0,-163.15796,45.664673,-173.53455
1765376999932,-0.72314453,-0.19628906,-0.6669922,0.4272461,0.79345703,-0.30517578,0.0,0.0,0.0,-163.125,45.653687,-173.52905
1765377000020,-0.7207031,-0.19482422,-0.66796875,-0.48828125,0.91552734,-0.30517578,0.0,0.0,0.0,-163.125,45.653687,-173.52905
1765377000032,-0.7207031,-0.19482422,-0.66796875,-0.48828125,0.91552734,-0.30517578,0.0,0.0,0.0,-163.1195,45.560303,-173.46863
1765377000120,-0.71484375,-0.20654297,-0.671875,1.2207031,0.5493164,0.061035156,0.0,0.0,0.0,-163.1195,45.560303,-173.46863
1765377000132,-0.71484375,-0.20654297,-0.671875,1.2207031,0.5493164,0.061035156,0.0,0.0,0.0,-163.06458,45.4834,-173.43018
1765377000220,-0.71875,-0.19970703,-0.66845703,0.8544922,0.18310547,0.0,0.0,0.0,0.0,-163.06458,45.4834,-173.43018
1765377000231,-0.71875,-0.19970703,-0.66845703,0.8544922,0.18310547,0.0,0.0,0.0,0.0,-162.95471,45.46692,-173.41919
1765377000319,-0.71728516,-0.20019531,-0.66748047,0.5493164,-0.061035156,-0.12207031,0.0,0.0,0.0,-162.95471,45.46692,-173.41919
1765377000331,-0.71728516,-0.20019531,-0.66748047,0.5493164,-0.061035156,-0.12207031,0.0,0.0,0.0,-162.89429,45.477905,-173.39722
1765377000419,-0.7182617,-0.20361328,-0.6689453,0.61035156,0.91552734,0.061035156,0.0,0.0,0.0,-162.89429,45.477905,-173.39722
1765377000431,-0.7182617,-0.20361328,-0.6689453,0.61035156,0.91552734,0.061035156,0.0,0.0,0.0,-162.81738,45.43396,-173.4082
1765377000519,-0.7167969,-0.19921875,-0.66796875,1.159668,-0.61035156,-0.5493164,0.0,0.0,0.0,-162.81738,45.43396,-173.4082
1765377000531,-0.7167969,-0.19921875,-0.66796875,1.159668,-0.61035156,-0.5493164,0.0,0.0,0.0,-162.71301,45.444946,-173.36426
1765377000619,-0.71875,-0.21191406,-0.671875,0.8544922,-0.12207031,-0.12207031,0.0,0.0,0.0,-162.71301,45.444946,-173.36426
1765377000630,-0.71875,-0.21191406,-0.671875,0.8544922,-0.12207031,-0.12207031,0.0,0.0,0.0,-162.5647,45.43396,-173.25989
1765377000718,-0.71728516,-0.20458984,-0.6689453,0.0,0.36621094,-0.4272461,0.0,0.0,0.0,-162.5647,45.43396,-173.25989
1765377000730,-0.71728516,-0.20458984,-0.6689453,0.0,0.36621094,-0.4272461,0.0,0.0,0.0,-162.49329,45.439453,-173.21594
1765377000818,-0.71972656,-0.20947266,-0.6713867,0.48828125,0.0,0.30517578,0.0,0.0,0.0,-162.49329,45.439453,-173.21594
1765377000829,-0.71972656,-0.20947266,-0.6713867,0.48828125,0.0,0.30517578,0.0,0.0,0.0,-162.46582,45.41748,-173.23242
1765377000918,-0.71728516,-0.2055664,-0.6694336,0.0,-0.12207031,-0.061035156,0.0,0.0,0.0,-162.46582,45.41748,-173.23242
1765377000929,-0.71728516,-0.2055664,-0.6694336,0.0,-0.12207031,-0.061035156,0.0,0.0,0.0,-162.45483,45.422974,-173.2489
1765377001018,-0.71972656,-0.21142578,-0.67529297,0.0,-0.61035156,0.061035156,0.0,0.0,0.0,-162.45483,45.422974,-173.2489
1765377001029,-0.71972656,-0.21142578,-0.67529297,0.0,-0.61035156,0.061035156,0.0,0.0,0.0,-162.44385,45.444946,-173.23242
1765377001117,-0.72021484,-0.20751953,-0.67041016,-0.30517578,-0.18310547,0.0,0.0,0.0,0.0,-162.44385,45.444946,-173.23242
1765377001129,-0.72021484,-0.20751953,-0.67041016,-0.30517578,-0.18310547,0.0,0.0,0.0,0.0,-162.44934,45.510864,-173.20496
1765377001217,-0.7207031,-0.20898438,-0.67089844,-0.4272461,-1.0375977,0.30517578,0.0,0.0,0.0,-162.44934,45.510864,-173.20496
1765377001228,-0.7207031,-0.20898438,-0.67089844,-0.4272461,-1.0375977,0.30517578,0.0,0.0,0.0,-162.52075,45.532837,-173.19946
1765377001317,-0.7192383,-0.2055664,-0.6694336,-1.159668,0.0,0.48828125,0.0,0.0,0.0,-162.52075,45.532837,-173.19946
1765377001328,-0.7192383,-0.2055664,-0.6694336,-1.159668,0.0,0.48828125,0.0,0.0,0.0,-162.58118,45.59326,-173.18848
1765377001416,-0.7241211,-0.20263672,-0.66796875,-0.7324219,-0.5493164,0.4272461,0.0,0.0,0.0,-162.58118,45.59326,-173.18848
1765377001428,-0.7241211,-0.20263672,-0.66796875,-0.7324219,-0.5493164,0.4272461,0.0,0.0,0.0,-162.70752,45.6427,-173.23792
1765377001516,-0.7207031,-0.2006836,-0.66552734,-1.0375977,-0.12207031,0.30517578,0.0,0.0,0.0,-162.70752,45.6427,-173.23792
1765377001528,-0.7207031,-0.2006836,-0.66552734,-1.0375977,-0.12207031,0.30517578,0.0,0.0,0.0,-162.83936,45.686646,-173.24341
1765377001616,-0.7192383,-0.2006836,-0.6640625,-1.159668,0.5493164,0.18310547,0.0,0.0,0.0,-162.83936,45.686646,-173.24341
1765377001627,-0.7192383,-0.2006836,-0.6640625,-1.159668,0.5493164,0.18310547,0.0,0.0,0.0,-162.95471,45.67566,-173.23242
1765377001715,-0.72021484,-0.19824219,-0.66748047,-1.5258789,0.79345703,0.79345703,0.0,0.0,0.0,-162.95471,45.67566,-173.23242
1765377001727,-0.72021484,-0.19824219,-0.66748047,-1.5258789,0.79345703,0.79345703,0.0,0.0,0.0,-163.10303,45.62622,-173.28735
1765377001815,-0.72216797,-0.1928711,-0.66064453,-1.8920898,0.8544922,0.30517578,0.0,0.0,0.0,-163.10303,45.62622,-173.28735
1765377001827,-0.72216797,-0.1928711,-0.66064453,-1.8920898,0.8544922,0.30517578,0.0,0.0,0.0,-163.2843,45.598755,-173.35327
1765377001915,-0.7182617,-0.20019531,-0.66796875,0.48828125,0.0,0.36621094,0.0,0.0,0.0,-163.2843,45.598755,-173.35327
1765377001927,-0.7182617,-0.20019531,-0.66796875,0.48828125,0.0,0.36621094,0.0,0.0,0.0,-163.35571,45.565796,-173.39722
1765377002015,-0.7158203,-0.19824219,-0.66796875,1.2207031,0.18310547,0.0,0.0,0.0,0.0,-163.35571,45.565796,-173.39722
1765377002026,-0.7158203,-0.19824219,-0.66796875,1.2207031,0.18310547,0.0,0.0,0.0,0.0,-163.24036,45.59326,-173.38074
1765377002114,-0.7216797,-0.1953125,-0.67089844,0.4272461,0.12207031,0.061035156,0.0,0.0,0.0,-163.24036,45.59326,-173.38074
1765377002126,-0.7216797,-0.1953125,-0.67089844,0.4272461,0.12207031,0.061035156,0.0,0.0,0.0,-163.15796,45.576782,-173.40271
1765377002214,-0.7207031,-0.19824219,-0.66845703,0.24414062,0.24414062,-0.61035156,0.0,0.0,0.0,-163.15796,45.576782,-173.40271
1765377002226,-0.7207031,-0.19824219,-0.66845703,0.24414062,0.24414062,-0.61035156,0.0,0.0,0.0,-163.08105,45.565796,-173.34778
1765377002314,-0.71777344,-0.20214844,-0.67041016,0.8544922,0.061035156,-0.24414062,0.0,0.0,0.0,-163.08105,45.565796,-173.34778
1765377002325,-0.71777344,-0.20214844,-0.67041016,0.8544922,0.061035156,-0.24414062,0.0,0.0,0.0,-162.99316,45.55481,-173.28735
1765377002413,-0.7182617,-0.20166016,-0.6694336,0.8544922,-0.061035156,-0.12207031,0.0,0.0,0.0,-162.99316,45.55481,-173.28735
1765377002425,-0.7182617,-0.20166016,-0.6694336,0.8544922,-0.061035156,-0.12207031,0.0,0.0,0.0,-162.8888,45.549316,-173.2489
1765377002513,-0.7211914,-0.20117188,-0.6669922,0.79345703,0.0,-0.24414062,0.0,0.0,0.0,-162.8888,45.549316,-173.2489
1765377002525,-0.7211914,-0.20117188,-0.6669922,0.79345703,0.0,-0.24414062,0.0,0.0,0.0,-162.78992,45.543823,-173.22144
1765377002613,-0.7163086,-0.20410156,-0.66503906,0.4272461,0.30517578,-0.061035156,0.0,0.0,0.0,-162.78992,45.543823,-173.22144
1765377002625,-0.7163086,-0.20410156,-0.66503906,0.4272461,0.30517578,-0.061035156,0.0,0.0,0.0,-162.71301,45.516357,-173.18848
1765377002713,-0.7182617,-0.20507812,-0.6665039,1.2207031,-0.91552734,-0.061035156,0.0,0.0,0.0,-162.71301,45.516357,-173.18848
1765377002724,-0.7182617,-0.20507812,-0.6665039,1.2207031,-0.91552734,-0.061035156,0.0,0.0,0.0,-162.63062,45.527344,-173.172
1765377002813,-0.7207031,-0.20654297,-0.6689453,0.30517578,0.0,0.0,0.0,0.0,0.0,-162.63062,45.527344,-173.172
1765377002824,-0.7207031,-0.20654297,-0.6689453,0.30517578,0.0,0.0,0.0,0.0,0.0,-162.52075,45.560303,-173.13904
1765377002912,-0.71972656,-0.20751953,-0.6669922,0.18310547,0.061035156,0.0,0.0,0.0,0.0,-162.52075,45.560303,-173.13904
1765377002924,-0.71972656,-0.20751953,-0.6669922,0.18310547,0.061035156,0.0,0.0,0.0,0.0,-162.47131,45.57129,-173.10608
1765377003012,-0.7192383,-0.20800781,-0.66845703,0.24414062,0.18310547,0.0,0.0,0.0,0.0,-162.47131,45.57129,-173.10608
1765377003023,-0.7192383,-0.20800781,-0.66845703,0.24414062,0.18310547,0.0,0.0,0.0,0.0,-162.46033,45.55481,-173.0841
1765377003112,-0.7207031,-0.20800781,-0.6669922,0.18310547,0.061035156,0.0,0.0,0.0,0.0,-162.46033,45.55481,-173.0841
1765377003123,-0.7207031,-0.20800781,-0.6669922,0.18310547,0.061035156,0.0,0.0,0.0,0.0,-162.42737,45.543823,-173.05664
1765377003211,-0.7192383,-0.20703125,-0.6635742,-0.061035156,0.0,0.0,0.0,0.0,0.0,-162.42737,45.543823,-173.05664
1765377003223,-0.7192383,-0.20703125,-0.6635742,-0.061035156,0.0,0.0,0.0,0.0,0.0,-162.41638,45.549316,-173.03467
1765377003311,-0.71972656,-0.20800781,-0.66503906,0.0,0.061035156,0.0,0.0,0.0,0.0,-162.41638,45.549316,-173.03467
1765377003322,-0.71972656,-0.20800781,-0.66503906,0.0,0.061035156,0.0,0.0,0.0,0.0,-162.4054,45.549316,-173.01819
1765377003411,-0.72021484,-0.2055664,-0.6660156,-0.4272461,-0.91552734,0.0,0.0,0.0,0.0,-162.4054,45.549316,-173.01819
1765377003422,-0.72021484,-0.2055664,-0.6660156,-0.4272461,-0.91552734,0.0,0.0,0.0,0.0,-162.39441,45.58777,-172.98523
1765377003510,-0.7211914,-0.20898438,-0.6635742,-0.5493164,-2.1972656,0.0,0.0,0.0,0.0,-162.39441,45.58777,-172.98523
1765377003522,-0.7211914,-0.20898438,-0.6635742,-0.5493164,-2.1972656,0.0,0.0,0.0,0.0,-162.38342,45.76355,-172.90833
1765377003610,-0.72314453,-0.20800781,-0.6645508,-0.9765625,-0.9765625,0.0,0.0,0.0,0.0,-162.38342,45.76355,-172.90833
1765377003622,-0.72314453,-0.20800781,-0.6645508,-0.9765625,-0.9765625,0.0,0.0,0.0,0.0,-162.41638,45.86792,-172.8424
1765377003710,-0.72509766,-0.20410156,-0.66064453,-1.3427734,-0.36621094,0.5493164,0.0,0.0,0.0,-162.41638,45.86792,-172.8424
1765377003722,-0.72509766,-0.20410156,-0.66064453,-1.3427734,-0.36621094,0.5493164,0.0,0.0,0.0,-162.4878,45.95581,-172.79846
1765377003810,-0.72509766,-0.20410156,-0.6621094,-0.91552734,0.36621094,0.48828125,0.0,0.0,0.0,-162.4878,45.95581,-172.79846
1765377003821,-0.72509766,-0.20410156,-0.6621094,-0.91552734,0.36621094,0.48828125,0.0,0.0,0.0,-162.63611,45.961304,-172.81494
1765377003909,-0.7260742,-0.19970703,-0.66308594,-1.2207031,0.36621094,0.061035156,0.0,0.0,0.0,-162.63611,45.961304,-172.81494
1765377003921,-0.7260742,-0.19970703,-0.66308594,-1.2207031,0.36621094,0.061035156,0.0,0.0,0.0,-162.75696,45.92285,-172.82043
1765377004009,-0.7236328,-0.20166016,-0.66503906,-1.5869141,0.5493164,0.48828125,0.0,0.0,0.0,-162.75696,45.92285,-172.82043
1765377004020,-0.7236328,-0.20166016,-0.66503906,-1.5869141,0.5493164,0.48828125,0.0,0.0,0.0,-162.94373,45.90088,-172.85889
1765377004109,-0.7216797,-0.19873047,-0.66552734,-1.159668,1.5869141,0.5493164,0.0,0.0,0.0,-162.94373,45.90088,-172.85889
1765377004120,-0.7216797,-0.19873047,-0.66552734,-1.159668,1.5869141,0.5493164,0.0,0.0,0.0,-163.15247,45.83496,-172.9248
1765377004209,-0.7236328,-0.1953125,-0.6665039,-0.12207031,0.061035156,0.061035156,0.0,0.0,0.0,-163.15247,45.83496,-172.9248
1765377004220,-0.7236328,-0.1953125,-0.6665039,-0.12207031,0.061035156,0.061035156,0.0,0.0,0.0,-163.24036,45.791016,-172.95227
1765377004308,-0.72216797,-0.19433594,-0.6665039,0.24414062,0.30517578,-0.12207031,0.0,0.0,0.0,-163.24036,45.791016,-172.95227
1765377004320,-0.72216797,-0.19433594,-0.6665039,0.24414062,0.30517578,-0.12207031,0.0,0.0,0.0,-163.22388,45.791016,-172.9303
1765377004408,-0.7246094,-0.1977539,-0.6694336,0.24414062,-0.6713867,0.061035156,0.0,0.0,0.0,-163.22388,45.791016,-172.9303
1765377004419,-0.7246094,-0.1977539,-0.6694336,0.24414062,-0.6713867,0.061035156,0.0,0.0,0.0,-163.16895,45.81299,-172.89734
1765377004508,-0.72314453,-0.19677734,-0.6669922,0.0,0.0,0.12207031,0.0,0.0,0.0,-163.16895,45.81299,-172.89734
1765377004519,-0.72314453,-0.19677734,-0.6669922,0.0,0.0,0.12207031,0.0,0.0,0.0,-163.17444,45.856934,-172.89185
1765377004607,-0.7241211,-0.1953125,-0.6645508,0.48828125,0.0,0.061035156,0.0,0.0,0.0,-163.17444,45.856934,-172.89185
1765377004619,-0.7241211,-0.1953125,-0.6645508,0.48828125,0.0,0.061035156,0.0,0.0,0.0,-163.14148,45.862427,-172.88635
1765377004707,-0.72216797,-0.19726562,-0.66259766,0.36621094,-0.24414062,-0.12207031,0.0,0.0,0.0,-163.14148,45.862427,-172.88635
1765377004719,-0.72216797,-0.19726562,-0.66259766,0.36621094,-0.24414062,-0.12207031,0.0,0.0,0.0,-163.07556,45.895386,-172.83691
1765377004807,-0.7246094,-0.19921875,-0.66503906,0.4272461,0.24414062,-0.12207031,0.0,0.0,0.0,-163.07556,45.895386,-172.83691
1765377004818,-0.7246094,-0.19921875,-0.66503906,0.4272461,0.24414062,-0.12207031,0.0,0.0,0.0,-163.02612,45.8844,-172.80396
1765377004906,-0.7207031,-0.19628906,-0.6640625,0.24414062,0.7324219,0.0,0.0,0.0,0.0,-163.02612,45.8844,-172.80396
1765377004918,-0.7207031,-0.19628906,-0.6640625,0.24414062,0.7324219,0.0,0.0,0.0,0.0,-162.99866,45.829468,-172.79846
1765377005006,-0.72265625,-0.20117188,-0.6640625,1.2207031,-0.36621094,0.0,0.0,0.0,0.0,-162.99866,45.829468,-172.79846
1765377005018,-0.72265625,-0.20117188,-0.6640625,1.2207031,-0.36621094,0.0,0.0,0.0,0.0,-162.89978,45.85144,-172.76001
1765377005106,-0.7260742,-0.20214844,-0.66503906,0.6713867,0.12207031,-0.24414062,0.0,0.0,0.0,-162.89978,45.85144,-172.76001
1765377005118,-0.7260742,-0.20214844,-0.66503906,0.6713867,0.12207031,-0.24414062,0.0,0.0,0.0,-162.77893,45.840454,-172.71057
1765377005206,-0.72216797,-0.20410156,-0.6640625,0.61035156,0.36621094,-0.18310547,0.0,0.0,0.0,-162.77893,45.840454,-172.71057
1765377005217,-0.72216797,-0.20410156,-0.6640625,0.61035156,0.36621094,-0.18310547,0.0,0.0,0.0,-162.68555,45.840454,-172.66663
1765377005305,-0.72509766,-0.20410156,-0.66259766,0.8544922,0.7324219,-0.18310547,0.0,0.0,0.0,-162.68555,45.840454,-172.66663
1765377005317,-0.72509766,-0.20410156,-0.66259766,0.8544922,0.7324219,-0.18310547,0.0,0.0,0.0,-162.59766,45.774536,-172.65564
1765377005405,-0.7216797,-0.20263672,-0.66503906,0.12207031,0.30517578,-0.24414062,0.0,0.0,0.0,-162.59766,45.774536,-172.65564
1765377005417,-0.7216797,-0.20263672,-0.66503906,0.12207031,0.30517578,-0.24414062,0.0,0.0,0.0,-162.54822,45.719604,-172.6117
1765377005505,-0.71972656,-0.20751953,-0.6660156,0.30517578,0.5493164,0.061035156,0.0,0.0,0.0,-162.54822,45.719604,-172.6117
1765377005516,-0.71972656,-0.20751953,-0.6660156,0.30517578,0.5493164,0.061035156,0.0,0.0,0.0,-162.49878,45.725098,-172.56775
1765377005605,-0.7207031,-0.20361328,-0.6621094,0.0,0.61035156,0.18310547,0.0,0.0,0.0,-162.49878,45.725098,-172.56775
1765377005616,-0.7207031,-0.20361328,-0.6621094,0.0,0.61035156,0.18310547,0.0,0.0,0.0,-162.49878,45.67566,-172.62817
1765377005704,-0.72021484,-0.20800781,-0.66796875,-0.061035156,0.6713867,-0.12207031,0.0,0.0,0.0,-162.49878,45.67566,-172.62817
1765377005716,-0.72021484,-0.20800781,-0.66796875,-0.061035156,0.6713867,-0.12207031,0.0,0.0,0.0,-162.4823,45.631714,-172.63916
1765377005804,-0.7211914,-0.2055664,-0.6689453,0.36621094,-0.061035156,-0.061035156,0.0,0.0,0.0,-162.4823,45.631714,-172.63916
1765377005815,-0.7211914,-0.2055664,-0.6689453,0.36621094,-0.061035156,-0.061035156,0.0,0.0,0.0,-162.41638,45.648193,-172.6117
1765377005904,-0.71972656,-0.20898438,-0.66748047,0.30517578,-0.18310547,-0.12207031,0.0,0.0,0.0,-162.41638,45.648193,-172.6117
1765377005915,-0.71972656,-0.20898438,-0.66748047,0.30517578,-0.18310547,-0.12207031,0.0,0.0,0.0,-162.38342,45.648193,-172.60071
1765377006003,-0.7216797,-0.20751953,-0.66552734,-0.12207031,0.12207031,0.12207031,0.0,0.0,0.0,-162.38342,45.648193,-172.60071
1765377006015,-0.7216797,-0.20751953,-0.66552734,-0.12207031,0.12207031,0.12207031,0.0,0.0,0.0,-162.35596,45.65918,-172.6062
1765377006103,-0.7216797,-0.20751953,-0.66552734,0.24414062,0.12207031,0.0,0.0,0.0,0.0,-162.35596,45.65918,-172.6062
1765377006115,-0.7216797,-0.20751953,-0.66552734,0.24414062,0.12207031,0.0,0.0,0.0,0.0,-162.34497,45.653687,-172.6117
1765377006203,-0.7211914,-0.20947266,-0.66552734,0.061035156,0.0,0.0,0.0,0.0,0.0,-162.34497,45.653687,-172.6117
1765377006214,-0.7211914,-0.20947266,-0.66552734,0.061035156,0.0,0.0,0.0,0.0,0.0,-162.323,45.653687,-172.6062
1765377006302,-0.72021484,-0.20800781,-0.66796875,0.0,0.0,0.0,0.0,0.0,0.0,-162.323,45.653687,-172.6062
1765377006314,-0.72021484,-0.20800781,-0.66796875,0.0,0.0,0.0,0.0,0.0,0.0,-162.31201,45.65918,-172.59521
1765377006402,-0.72265625,-0.21142578,-0.67089844,0.0,-0.4272461,0.0,0.0,0.0,0.0,-162.31201,45.65918,-172.59521
1765377006414,-0.72265625,-0.21142578,-0.67089844,0.0,-0.4272461,0.0,0.0,0.0,0.0,-162.30103,45.681152,-172.57324
1765377006502,-0.72314453,-0.20800781,-0.6660156,-0.48828125,-0.48828125,0.30517578,0.0,0.0,0.0,-162.30103,45.681152,-172.57324
1765377006513,-0.72314453,-0.20800781,-0.6660156,-0.48828125,-0.48828125,0.30517578,0.0,0.0,0.0,-162.33948,45.736084,-172.57324
1765377006602,-0.7236328,-0.20507812,-0.6645508,-1.0375977,-0.18310547,0.4272461,0.0,0.0,0.0,-162.33948,45.736084,-172.57324
1765377006614,-0.7236328,-0.20507812,-0.6645508,-1.0375977,-0.18310547,0.4272461,0.0,0.0,0.0,-162.38342,45.807495,-172.58423
1765377006701,-0.72314453,-0.20703125,-0.6645508,-1.0986328,-0.30517578,0.30517578,0.0,0.0,0.0,-162.38342,45.807495,-172.58423
1765377006713,-0.72314453,-0.20703125,-0.6645508,-1.0986328,-0.30517578,0.30517578,0.0,0.0,0.0,-162.49878,45.845947,-172.60071
1765377006801,-0.7241211,-0.20166016,-0.66308594,-0.9765625,0.12207031,0.36621094,0.0,0.0,0.0,-162.49878,45.845947,-172.60071
1765377006813,-0.7241211,-0.20166016,-0.66308594,-0.9765625,0.12207031,0.36621094,0.0,0.0,0.0,-162.6416,45.862427,-172.61719
1765377006901,-0.7236328,-0.19970703,-0.66308594,-1.2817383,0.4272461,0.4272461,0.0,0.0,0.0,-162.6416,45.862427,-172.61719
1765377006912,-0.7236328,-0.19970703,-0.66308594,-1.2817383,0.4272461,0.4272461,0.0,0.0,0.0,-162.75696,45.856934,-172.63367
1765377007001,-0.7216797,-0.203125,-0.6640625,-0.8544922,0.061035156,0.48828125,0.0,0.0,0.0,-162.75696,45.856934,-172.63367
1765377007012,-0.7216797,-0.203125,-0.6640625,-0.8544922,0.061035156,0.48828125,0.0,0.0,0.0,-162.89978,45.845947,-172.6886
1765377007100,-0.72509766,-0.19482422,-0.66503906,-0.9765625,0.30517578,0.12207031,0.0,0.0,0.0,-162.89978,45.845947,-172.6886
1765377007112,-0.72509766,-0.19482422,-0.66503906,-0.9765625,0.30517578,0.12207031,0.0,0.0,0.0,-163.03711,45.83496,-172.72705
1765377007200,-0.71875,-0.19580078,-0.66259766,-0.24414062,0.36621094,0.30517578,0.0,0.0,0.0,-163.03711,45.83496,-172.72705
1765377007212,-0.71875,-0.19580078,-0.66259766,-0.24414062,0.36621094,0.30517578,0.0,0.0,0.0,-163.14148,45.791016,-172.76001
1765377007300,-0.7207031,-0.19726562,-0.66503906,0.6713867,-0.18310547,-0.061035156,0.0,0.0,0.0,-163.14148,45.791016,-172.76001
1765377007311,-0.7207031,-0.19726562,-0.66503906,0.6713867,-0.18310547,-0.061035156,0.0,0.0,0.0,-163.1305,45.78003,-172.7655
1765377007399,-0.72265625,-0.19677734,-0.6665039,0.5493164,0.18310547,-0.12207031,0.0,0.0,0.0,-163.1305,45.78003,-172.7655
1765377007411,-0.72265625,-0.19677734,-0.6665039,0.5493164,0.18310547,-0.12207031,0.0,0.0,0.0,-163.0481,45.78003,-172.73254
1765377007499,-0.72216797,-0.20019531,-0.66552734,0.5493164,-0.4272461,0.0,0.0,0.0,0.0,-163.0481,45.78003,-172.73254
1765377007511,-0.72216797,-0.20019531,-0.66552734,0.5493164,-0.4272461,0.0,0.0,0.0,0.0,-162.97668,45.807495,-172.71057
1765377007599,-0.7236328,-0.19921875,-0.66552734,0.79345703,-0.12207031,-0.061035156,0.0,0.0,0.0,-162.97668,45.807495,-172.71057
1765377007610,-0.7236328,-0.19921875,-0.66552734,0.79345703,-0.12207031,-0.061035156,0.0,0.0,0.0,-162.91077,45.81299,-172.69409
1765377007699,-0.72265625,-0.20117188,-0.66503906,0.36621094,-0.12207031,-0.061035156,0.0,0.0,0.0,-162.91077,45.81299,-172.69409
1765377007710,-0.72265625,-0.20117188,-0.66503906,0.36621094,-0.12207031,-0.061035156,0.0,0.0,0.0,-162.82837,45.823975,-172.64465
1765377007798,-0.72265625,-0.20117188,-0.66308594,0.36621094,-0.48828125,0.0,0.0,0.0,0.0,-162.82837,45.823975,-172.64465
1765377007810,-0.72265625,-0.20117188,-0.66308594,0.36621094,-0.48828125,0.0,0.0,0.0,0.0,-162.76794,45.862427,-172.6062
1765377007898,-0.72265625,-0.20361328,-0.6640625,0.36621094,0.12207031,0.0,0.0,0.0,0.0,-162.76794,45.862427,-172.6062
1765377007909,-0.72265625,-0.20361328,-0.6640625,0.36621094,0.12207031,0.0,0.0,0.0,0.0,-162.72949,45.86792,-172.6062
1765377007998,-0.72021484,-0.20166016,-0.6611328,0.4272461,0.91552734,0.0,0.0,0.0,0.0,-162.72949,45.86792,-172.6062
1765377008009,-0.72021484,-0.20166016,-0.6611328,0.4272461,0.91552734,0.0,0.0,0.0,0.0,-162.70203,45.79651,-172.65015
1765377008097,-0.7246094,-0.20263672,-0.6621094,0.8544922,-0.61035156,0.0,0.0,0.0,0.0,-162.70203,45.79651,-172.65015
1765377008109,-0.7246094,-0.20263672,-0.6621094,0.8544922,-0.61035156,0.0,0.0,0.0,0.0,-162.60864,45.823975,-172.62817
1765377008197,-0.72216797,-0.20800781,-0.66552734,0.30517578,0.0,-0.30517578,0.0,0.0,0.0,-162.60864,45.823975,-172.62817
1765377008209,-0.72216797,-0.20800781,-0.66552734,0.30517578,0.0,-0.30517578,0.0,0.0,0.0,-162.52625,45.823975,-172.55676
1765377008297,-0.7236328,-0.20654297,-0.6645508,0.48828125,0.12207031,0.12207031,0.0,0.0,0.0,-162.52625,45.823975,-172.55676
1765377008308,-0.7236328,-0.20654297,-0.6645508,0.48828125,0.12207031,0.12207031,0.0,0.0,0.0,-162.44385,45.83496,-172.56226
1765377008397,-0.71875,-0.20947266,-0.6645508,0.5493164,0.36621094,0.0,0.0,0.0,0.0,-162.44385,45.83496,-172.56226
1765377008408,-0.71875,-0.20947266,-0.6645508,0.5493164,0.36621094,0.0,0.0,0.0,0.0,-162.41638,45.81299,-172.55127
1765377008496,-0.72558594,-0.2055664,-0.6635742,-0.061035156,0.48828125,-0.12207031,0.0,0.0,0.0,-162.41638,45.81299,-172.55127
1765377008508,-0.72558594,-0.2055664,-0.6635742,-0.061035156,0.48828125,-0.12207031,0.0,0.0,0.0,-162.37793,45.78003,-172.5293
1765377008596,-0.72216797,-0.20654297,-0.6616211,0.0,0.0,0.24414062,0.0,0.0,0.0,-162.37793,45.78003,-172.5293
1765377008608,-0.72216797,-0.20654297,-0.6616211,0.0,0.0,0.24414062,0.0,0.0,0.0,-162.38342,45.774536,-172.51831
1765377008696,-0.72216797,-0.20703125,-0.66259766,0.0,0.48828125,0.0,0.0,0.0,0.0,-162.38342,45.774536,-172.51831
1765377008707,-0.72216797,-0.20703125,-0.66259766,0.0,0.48828125,0.0,0.0,0.0,0.0,-162.38892,45.76355,-172.5293
1765377008795,-0.71875,-0.20898438,-0.66259766,-0.061035156,0.5493164,0.36621094,0.0,0.0,0.0,-162.38892,45.76355,-172.5293
1765377008807,-0.71875,-0.20898438,-0.66259766,-0.061035156,0.5493164,0.36621094,0.0,0.0,0.0,-162.4054,45.741577,-172.53479
1765377008895,-0.72216797,-0.20410156,-0.6635742,0.4272461,-0.18310547,-0.12207031,0.0,0.0,0.0,-162.4054,45.741577,-172.53479
1765377008907,-0.72216797,-0.20410156,-0.6635742,0.4272461,-0.18310547,-0.12207031,0.0,0.0,0.0,-162.37244,45.76355,-172.53479
1765377008995,-0.7241211,-0.20654297,-0.6669922,-0.61035156,-0.30517578,-0.18310547,0.0,0.0,0.0,-162.37244,45.76355,-172.53479
1765377009006,-0.7241211,-0.20654297,-0.6669922,-0.61035156,-0.30517578,-0.18310547,0.0,0.0,0.0,-162.36145,45.774536,-172.49634
1765377009095,-0.7236328,-0.2084961,-0.6645508,-0.91552734,-0.48828125,0.24414062,0.0,0.0,0.0,-162.36145,45.774536,-172.49634
1765377009106,-0.7236328,-0.2084961,-0.6645508,-0.91552734,-0.48828125,0.24414062,0.0,0.0,0.0,-162.41638,45.83496,-172.47437
1765377009194,-0.7207031,-0.20654297,-0.66308594,-0.79345703,0.24414062,0.30517578,0.0,0.0,0.0,-162.41638,45.83496,-172.47437
1765377009206,-0.7207031,-0.20654297,-0.66308594,-0.79345703,0.24414062,0.30517578,0.0,0.0,0.0,-162.51526,45.85144,-172.47986
1765377009294,-0.7270508,-0.203125,-0.6635742,-0.8544922,0.061035156,0.30517578,0.0,0.0,0.0,-162.51526,45.85144,-172.47986
1765377009306,-0.7270508,-0.203125,-0.6635742,-0.8544922,0.061035156,0.30517578,0.0,0.0,0.0,-162.61963,45.845947,-172.50732
1765377009394,-0.7211914,-0.2055664,-0.6616211,-1.0986328,0.18310547,0.5493164,0.0,0.0,0.0,-162.61963,45.845947,-172.50732
1765377009405,-0.7211914,-0.2055664,-0.6616211,-1.0986328,0.18310547,0.5493164,0.0,0.0,0.0,-162.74597,45.862427,-172.55127
1765377009493,-0.72314453,-0.2006836,-0.6591797,-0.7324219,0.7324219,0.48828125,0.0,0.0,0.0,-162.74597,45.862427,-172.55127
1765377009505,-0.72314453,-0.2006836,-0.6591797,-0.7324219,0.7324219,0.48828125,0.0,0.0,0.0,-162.85034,45.86792,-172.6062
1765377009593,-0.72021484,-0.19335938,-0.66308594,1.3427734,2.6855469,-2.1362305,0.0,0.0,0.0,-162.85034,45.86792,-172.6062
1765377009605,-0.72021484,-0.19335938,-0.66308594,1.3427734,2.6855469,-2.1362305,0.0,0.0,0.0,-162.78992,45.71411,-172.56226
1765377009693,-0.71875,-0.1953125,-0.6640625,1.5258789,4.638672,-6.1035156,0.0,0.0,0.0,-162.78992,45.71411,-172.56226
1765377009705,-0.71875,-0.1953125,-0.6640625,1.5258789,4.638672,-6.1035156,0.0,0.0,0.0,-162.27905,45.25818,-172.14478
1765377009793,-0.70654297,-0.23925781,-0.6772461,-0.061035156,1.159668,-1.5258789,0.0,0.0,0.0,-162.27905,45.25818,-172.14478
1765377009804,-0.70654297,-0.23925781,-0.6772461,-0.061035156,1.159668,-1.5258789,0.0,0.0,0.0,-161.98242,44.873657,-171.76575
1765377009892,-0.70458984,-0.21679688,-0.67333984,-0.91552734,2.0751953,-0.7324219,0.0,0.0,0.0,-161.98242,44.873657,-171.76575
1765377009904,-0.70458984,-0.21679688,-0.67333984,-0.91552734,2.0751953,-0.7324219,0.0,0.0,0.0,-161.93298,44.71985,-171.74377
1765377009992,-0.7133789,-0.21386719,-0.6748047,-0.4272461,0.61035156,1.0375977,0.0,0.0,0.0,-161.93298,44.71985,-171.74377
1765377010004,-0.7133789,-0.21386719,-0.6748047,-0.4272461,0.61035156,1.0375977,0.0,0.0,0.0,-161.98242,44.577026,-171.85364
1765377010092,-0.7060547,-0.2109375,-0.6767578,-0.5493164,-0.12207031,1.4648438,0.0,0.0,0.0,-161.98242,44.577026,-171.85364
1765377010104,-0.7060547,-0.2109375,-0.6767578,-0.5493164,-0.12207031,1.4648438,0.0,0.0,0.0,-162.15271,44.61548,-172.10632
1765377010191,-0.7080078,-0.20996094,-0.67871094,-0.4272461,1.0375977,-0.8544922,0.0,0.0,0.0,-162.15271,44.61548,-172.10632
1765377010203,-0.7080078,-0.20996094,-0.67871094,-0.4272461,1.0375977,-0.8544922,0.0,0.0,0.0,-162.2461,44.588013,-172.21619
1765377010291,-0.70458984,-0.21679688,-0.6826172,0.36621094,1.5258789,-1.159668,0.0,0.0,0.0,-162.2461,44.588013,-172.21619
1765377010303,-0.70458984,-0.21679688,-0.6826172,0.36621094,1.5258789,-1.159668,0.0,0.0,0.0,-162.19666,44.40674,-172.18323
1765377010391,-0.7011719,-0.20800781,-0.68603516,0.91552734,0.36621094,-0.9765625,0.0,0.0,0.0,-162.19666,44.40674,-172.18323
1765377010402,-0.7011719,-0.20800781,-0.68603516,0.91552734,0.36621094,-0.9765625,0.0,0.0,0.0,-162.14172,44.241943,-172.21619
1765377010490,-0.70214844,-0.22314453,-0.6826172,0.36621094,0.24414062,-0.4272461,0.0,0.0,0.0,-162.14172,44.241943,-172.21619
1765377010502,-0.70214844,-0.22314453,-0.6826172,0.36621094,0.24414062,-0.4272461,0.0,0.0,0.0,-161.95496,44.20349,-172.14478
1765377010590,-0.7036133,-0.22021484,-0.68359375,0.30517578,0.12207031,0.24414062,0.0,0.0,0.0,-161.95496,44.20349,-172.14478
1765377010602,-0.7036133,-0.22021484,-0.68359375,0.30517578,0.12207031,0.24414062,0.0,0.0,0.0,-161.90002,44.18152,-172.23267
1765377010690,-0.70166016,-0.21679688,-0.68359375,0.12207031,0.061035156,-0.18310547,0.0,0.0,0.0,-161.90002,44.18152,-172.23267
1765377010704,-0.70166016,-0.21679688,-0.68359375,0.12207031,0.061035156,-0.18310547,0.0,0.0,0.0,-161.90552,44.159546,-172.33704
1765377010789,-0.70166016,-0.2241211,-0.6826172,0.12207031,0.48828125,0.12207031,0.0,0.0,0.0,-161.90552,44.159546,-172.33704
1765377010801,-0.70166016,-0.2241211,-0.6826172,0.12207031,0.48828125,0.12207031,0.0,0.0,0.0,-161.86707,44.137573,-172.34802
1765377010889,-0.70166016,-0.21142578,-0.6816406,-0.12207031,-0.48828125,0.24414062,0.0,0.0,0.0,-161.86707,44.137573,-172.34802
1765377010901,-0.70166016,-0.21142578,-0.6816406,-0.12207031,-0.48828125,0.24414062,0.0,0.0,0.0,-161.88354,44.137573,-172.46887
1765377010989,-0.69970703,-0.22558594,-0.6826172,0.0,0.79345703,-0.6713867,0.0,0.0,0.0,-161.88354,44.137573,-172.46887
1765377011001,-0.69970703,-0.22558594,-0.6826172,0.0,0.79345703,-0.6713867,0.0,0.0,0.0,-161.86707,44.104614,-172.46338
1765377011089,-0.7001953,-0.21582031,-0.6791992,-0.061035156,0.30517578,0.48828125,0.0,0.0,0.0,-161.86707,44.104614,-172.46338
1765377011100,-0.7001953,-0.21582031,-0.6791992,-0.061035156,0.30517578,0.48828125,0.0,0.0,0.0,-161.87256,44.038696,-172.56226
1765377011188,-0.6972656,-0.21777344,-0.68359375,0.5493164,-0.18310547,-0.5493164,0.0,0.0,0.0,-161.87256,44.038696,-172.56226
1765377011200,-0.6972656,-0.21777344,-0.68359375,0.5493164,-0.18310547,-0.5493164,0.0,0.0,0.0,-161.87256,44.000244,-172.65015
1765377011288,-0.69873047,-0.22460938,-0.68652344,0.0,0.24414062,0.36621094,0.0,0.0,0.0,-161.87256,44.000244,-172.65015
1765377011300,-0.69873047,-0.22460938,-0.68652344,0.0,0.24414062,0.36621094,0.0,0.0,0.0,-161.82861,43.97278,-172.6831
1765377011388,-0.69921875,-0.21533203,-0.6816406,-0.30517578,0.0,-0.30517578,0.0,0.0,0.0,-161.82861,43.97278,-172.6831
1765377011399,-0.69921875,-0.21533203,-0.6816406,-0.30517578,0.0,-0.30517578,0.0,0.0,0.0,-161.82861,43.983765,-172.7655
1765377011488,-0.7006836,-0.2290039,-0.68652344,0.12207031,0.12207031,0.0,0.0,0.0,0.0,-161.82861,43.983765,-172.7655
1765377011499,-0.7006836,-0.2290039,-0.68652344,0.12207031,0.12207031,0.0,0.0,0.0,0.0,-161.80664,43.950806,-172.78198
1765377011587,-0.69873047,-0.21728516,-0.68359375,0.0,0.12207031,0.5493164,0.0,0.0,0.0,-161.80664,43.950806,-172.78198
1765377011599,-0.69873047,-0.21728516,-0.68359375,0.0,0.12207031,0.5493164,0.0,0.0,0.0,-161.81763,43.950806,-172.90283
1765377011687,-0.7001953,-0.21777344,-0.68359375,-0.18310547,-0.30517578,-0.24414062,0.0,0.0,0.0,-161.81763,43.950806,-172.90283
1765377011699,-0.7001953,-0.21777344,-0.68359375,-0.18310547,-0.30517578,-0.24414062,0.0,0.0,0.0,-161.81763,43.967285,-172.95227
1765377011787,-0.6972656,-0.22509766,-0.6821289,0.061035156,0.36621094,0.24414062,0.0,0.0,0.0,-161.81763,43.967285,-172.95227
1765377011798,-0.6972656,-0.22509766,-0.6821289,0.061035156,0.36621094,0.24414062,0.0,0.0,0.0,-161.8341,43.945312,-173.00171
1765377011886,-0.6972656,-0.21484375,-0.67578125,-0.30517578,0.36621094,-0.30517578,0.0,0.0,0.0,-161.8341,43.945312,-173.00171
1765377011898,-0.6972656,-0.21484375,-0.67578125,-0.30517578,0.36621094,-0.30517578,0.0,0.0,0.0,-161.82312,43.928833,-173.05115
1765377011986,-0.7006836,-0.22802734,-0.6894531,0.30517578,0.0,0.24414062,0.0,0.0,0.0,-161.82312,43.928833,-173.05115
1765377011998,-0.7006836,-0.22802734,-0.6894531,0.30517578,0.0,0.24414062,0.0,0.0,0.0,-161.80115,43.8739,-173.0841
1765377012086,-0.69677734,-0.22070312,-0.68310547,-0.5493164,-0.8544922,1.159668,0.0,0.0,0.0,-161.80115,43.8739,-173.0841
1765377012097,-0.69677734,-0.22070312,-0.68310547,-0.5493164,-0.8544922,1.159668,0.0,0.0,0.0,-161.87256,43.945312,-173.22144
1765377012186,-0.7006836,-0.21679688,-0.6826172,0.0,-0.61035156,1.4038086,0.0,0.0,0.0,-161.87256,43.945312,-173.22144
1765377012197,-0.7006836,-0.21679688,-0.6826172,0.0,-0.61035156,1.4038086,0.0,0.0,0.0,-161.94946,44.066162,-173.39722
1765377012285,-0.703125,-0.21728516,-0.6855469,0.30517578,-0.24414062,1.0375977,0.0,0.0,0.0,-161.94946,44.066162,-173.39722
1765377012297,-0.703125,-0.21728516,-0.6855469,0.30517578,-0.24414062,1.0375977,0.0,0.0,0.0,-162.03735,44.121094,-173.5675
1765377012385,-0.7036133,-0.21679688,-0.68115234,-0.18310547,-1.2817383,2.0141602,0.0,0.0,0.0,-162.03735,44.121094,-173.5675
1765377012396,-0.7036133,-0.21679688,-0.68115234,-0.18310547,-1.2817383,2.0141602,0.0,0.0,0.0,-162.14172,44.258423,-173.75977
1765377012485,-0.70458984,-0.21777344,-0.67578125,0.12207031,-0.30517578,2.0751953,0.0,0.0,0.0,-162.14172,44.258423,-173.75977
1765377012496,-0.70458984,-0.21777344,-0.67578125,0.12207031,-0.30517578,2.0751953,0.0,0.0,0.0,-162.25159,44.39026,-173.99048
1765377012585,-0.7080078,-0.20947266,-0.6738281,-0.36621094,-0.30517578,1.953125,0.0,0.0,0.0,-162.25159,44.39026,-173.99048
1765377012596,-0.7080078,-0.20947266,-0.6738281,-0.36621094,-0.30517578,1.953125,0.0,0.0,0.0,-162.37244,44.47815,-174.25964
1765377012684,-0.70703125,-0.20947266,-0.6791992,0.48828125,-1.2207031,2.5024414,0.0,0.0,0.0,-162.37244,44.47815,-174.25964
1765377012696,-0.70703125,-0.20947266,-0.6791992,0.48828125,-1.2207031,2.5024414,0.0,0.0,0.0,-162.50977,44.61548,-174.54529
1765377012784,-0.7104492,-0.20751953,-0.67333984,1.5869141,-0.61035156,2.746582,0.0,0.0,0.0,-162.50977,44.61548,-174.54529
1765377012795,-0.7104492,-0.20751953,-0.67333984,1.5869141,-0.61035156,2.746582,0.0,0.0,0.0,-162.54822,44.80774,-174.81995
1765377012884,-0.7138672,-0.2055664,-0.67871094,0.8544922,-2.2583008,2.8076172,0.0,0.0,0.0,-162.54822,44.80774,-174.81995
1765377012895,-0.7138672,-0.2055664,-0.67871094,0.8544922,-2.2583008,2.8076172,0.0,0.0,0.0,-162.6416,44.96704,-175.12207
1765377012983,-0.7182617,-0.20751953,-0.6723633,1.3427734,-2.6245117,2.6855469,0.0,0.0,0.0,-162.6416,44.96704,-175.12207
1765377012995,-0.7182617,-0.20751953,-0.6723633,1.3427734,-2.6245117,2.6855469,0.0,0.0,0.0,-162.66907,45.291138,-175.3418
1765377013083,-0.7216797,-0.20166016,-0.6694336,0.61035156,-1.4648438,3.0517578,0.0,0.0,0.0,-162.66907,45.291138,-175.3418
1765377013094,-0.7216797,-0.20166016,-0.6694336,0.61035156,-1.4648438,3.0517578,0.0,0.0,0.0,-162.8009,45.55481,-175.63843
1765377013183,-0.72265625,-0.1928711,-0.6616211,-2.1972656,0.0,2.1362305,0.0,0.0,0.0,-162.8009,45.55481,-175.63843
1765377013194,-0.72265625,-0.1928711,-0.6616211,-2.1972656,0.0,2.1362305,0.0,0.0,0.0,-163.1195,45.686646,-175.9076
1765377013282,-0.72021484,-0.19042969,-0.66552734,-2.6855469,-0.7324219,1.5258789,0.0,0.0,0.0,-163.1195,45.686646,-175.9076
1765377013294,-0.72021484,-0.19042969,-0.66552734,-2.6855469,-0.7324219,1.5258789,0.0,0.0,0.0,-163.48755,45.752563,-176.05042
1765377013382,-0.7192383,-0.18359375,-0.6660156,-2.9907227,0.5493164,-0.6713867,0.0,0.0,0.0,-163.48755,45.752563,-176.05042
1765377013394,-0.7192383,-0.18359375,-0.6660156,-2.9907227,0.5493164,-0.6713867,0.0,0.0,0.0,-163.78418,45.73059,-176.03943
1765377013482,-0.72216797,-0.19091797,-0.6738281,-1.953125,-0.30517578,-0.48828125,0.0,0.0,0.0,-163.78418,45.73059,-176.03943
1765377013493,-0.72216797,-0.19091797,-0.6738281,-1.953125,-0.30517578,-0.48828125,0.0,0.0,0.0,-163.92151,45.686646,-175.85815
1765377013582,-0.7216797,-0.18408203,-0.6699219,-2.319336,0.0,-0.6713867,0.0,0.0,0.0,-163.92151,45.686646,-175.85815
1765377013593,-0.7216797,-0.18408203,-0.6699219,-2.319336,0.0,-0.6713867,0.0,0.0,0.0,-164.04236,45.719604,-175.71533
1765377013681,-0.7211914,-0.18017578,-0.66308594,-3.2348633,1.5869141,-1.4038086,0.0,0.0,0.0,-164.04236,45.719604,-175.71533
1765377013693,-0.7211914,-0.18017578,-0.66308594,-3.2348633,1.5869141,-1.4038086,0.0,0.0,0.0,-164.19617,45.670166,-175.4956
1765377013781,-0.71972656,-0.18457031,-0.67333984,-1.3427734,-0.24414062,0.0,0.0,0.0,0.0,-164.19617,45.670166,-175.4956
1765377013793,-0.71972656,-0.18457031,-0.67333984,-1.3427734,-0.24414062,0.0,0.0,0.0,0.0,-164.35547,45.55481,-175.33081
1765377013881,-0.71777344,-0.1821289,-0.66845703,-2.5634766,4.0283203,-1.6479492,0.0,0.0,0.0,-164.35547,45.55481,-175.33081
1765377013892,-0.71777344,-0.1821289,-0.66845703,-2.5634766,4.0283203,-1.6479492,0.0,0.0,0.0,-164.50928,45.351562,-175.16602
1765377013980,-0.71191406,-0.18164062,-0.6640625,-1.953125,-0.24414062,0.24414062,0.0,0.0,0.0,-164.50928,45.351562,-175.16602
1765377013992,-0.71191406,-0.18164062,-0.6640625,-1.953125,-0.24414062,0.24414062,0.0,0.0,0.0,-164.70703,45.214233,-175.0946
1765377014080,-0.70947266,-0.19091797,-0.6826172,3.7841797,-0.8544922,-1.159668,0.0,0.0,0.0,-164.70703,45.214233,-175.0946
1765377014092,-0.70947266,-0.19091797,-0.6826172,3.7841797,-0.8544922,-1.159668,0.0,0.0,0.0,-164.52576,45.186768,-175.02869
1765377014180,-0.72509766,-0.18310547,-0.6699219,3.6621094,-1.4038086,-1.2817383,0.0,0.0,0.0,-164.52576,45.186768,-175.02869
1765377014191,-0.72509766,-0.18310547,-0.6699219,3.6621094,-1.4038086,-1.2817383,0.0,0.0,0.0,-163.93799,45.351562,-174.79248
1765377014280,-0.7163086,-0.19042969,-0.6743164,2.8076172,1.0375977,-1.4038086,0.0,0.0,0.0,-163.93799,45.351562,-174.79248
1765377014291,-0.7163086,-0.19042969,-0.6743164,2.8076172,1.0375977,-1.4038086,0.0,0.0,0.0,-163.56995,45.28015,-174.62769
1765377014379,-0.7207031,-0.20214844,-0.6767578,2.8076172,0.36621094,-0.18310547,0.0,0.0,0.0,-163.56995,45.28015,-174.62769
1765377014391,-0.7207031,-0.20214844,-0.6767578,2.8076172,0.36621094,-0.18310547,0.0,0.0,0.0,-163.17993,45.252686,-174.49036
1765377014479,-0.7133789,-0.20410156,-0.6748047,3.0517578,-0.24414062,-0.24414062,0.0,0.0,0.0,-163.17993,45.252686,-174.49036
1765377014491,-0.7133789,-0.20410156,-0.6748047,3.0517578,-0.24414062,-0.24414062,0.0,0.0,0.0,-162.85034,45.236206,-174.42993
1765377014579,-0.71728516,-0.20654297,-0.6713867,1.8310547,0.24414062,-0.61035156,0.0,0.0,0.0,-162.85034,45.236206,-174.42993
1765377014590,-0.71728516,-0.20654297,-0.6713867,1.8310547,0.24414062,-0.61035156,0.0,0.0,0.0,-162.59216,45.230713,-174.34753
1765377014678,-0.7167969,-0.21142578,-0.671875,1.4648438,0.36621094,-0.18310547,0.0,0.0,0.0,-162.59216,45.230713,-174.34753
1765377014690,-0.7167969,-0.21142578,-0.671875,1.4648438,0.36621094,-0.18310547,0.0,0.0,0.0,-162.4054,45.186768,-174.27612
1765377014778,-0.7080078,-0.21044922,-0.66796875,1.4038086,1.7700195,0.0,0.0,0.0,0.0,-162.4054,45.186768,-174.27612
1765377014790,-0.7080078,-0.21044922,-0.66796875,1.4038086,1.7700195,0.0,0.0,0.0,0.0,-162.28455,45.076904,-174.27063
1765377014878,-0.7133789,-0.21484375,-0.67285156,2.2583008,-0.12207031,-1.0375977,0.0,0.0,0.0,-162.28455,45.076904,-174.27063
1765377014889,-0.7133789,-0.21484375,-0.67285156,2.2583008,-0.12207031,-1.0375977,0.0,0.0,0.0,-162.0758,45.0,-174.23767
1765377014978,-0.71191406,-0.21728516,-0.67285156,0.9765625,0.4272461,-1.159668,0.0,0.0,0.0,-162.0758,45.0,-174.23767
1765377014989,-0.71191406,-0.21728516,-0.67285156,0.9765625,0.4272461,-1.159668,0.0,0.0,0.0,-161.82312,44.95056,-174.11133
1765377015077,-0.71240234,-0.22167969,-0.67333984,0.79345703,0.48828125,-0.48828125,0.0,0.0,0.0,-161.82312,44.95056,-174.11133
1765377015089,-0.71240234,-0.22167969,-0.67333984,0.79345703,0.48828125,-0.48828125,0.0,0.0,0.0,-161.66382,44.87915,-174.00146
1765377015177,-0.71240234,-0.2211914,-0.67285156,0.8544922,-0.30517578,0.061035156,0.0,0.0,0.0,-161.66382,44.87915,-174.00146
1765377015189,-0.71240234,-0.2211914,-0.67285156,0.8544922,-0.30517578,0.061035156,0.0,0.0,0.0,-161.55945,44.87915,-173.97949
1765377015277,-0.7104492,-0.22216797,-0.671875,0.79345703,0.12207031,-0.061035156,0.0,0.0,0.0,-161.55945,44.87915,-173.97949
1765377015288,-0.7104492,-0.22216797,-0.671875,0.79345703,0.12207031,-0.061035156,0.0,0.0,0.0,-161.46057,44.87915,-173.974
1765377015377,-0.7109375,-0.22216797,-0.671875,0.5493164,-0.12207031,0.0,0.0,0.0,0.0,-161.46057,44.87915,-173.974
1765377015388,-0.7109375,-0.22216797,-0.671875,0.5493164,-0.12207031,0.0,0.0,0.0,0.0,-161.38367,44.884644,-173.9685
1765377015476,-0.71191406,-0.22363281,-0.671875,0.48828125,0.18310547,-0.30517578,0.0,0.0,0.0,-161.38367,44.884644,-173.9685
1765377015488,-0.71191406,-0.22363281,-0.671875,0.48828125,0.18310547,-0.30517578,0.0,0.0,0.0,-161.29028,44.923096,-173.94653
1765377015576,-0.7114258,-0.22607422,-0.67089844,0.79345703,0.61035156,-0.5493164,0.0,0.0,0.0,-161.29028,44.923096,-173.94653
1765377015587,-0.7114258,-0.22607422,-0.67089844,0.79345703,0.61035156,-0.5493164,0.0,0.0,0.0,-161.1969,44.868164,-173.88062
1765377015676,-0.7114258,-0.22705078,-0.6723633,0.48828125,0.0,-0.12207031,0.0,0.0,0.0,-161.1969,44.868164,-173.88062
1765377015687,-0.7114258,-0.22705078,-0.6723633,0.48828125,0.0,-0.12207031,0.0,0.0,0.0,-161.0321,44.857178,-173.80371
1765377015775,-0.7114258,-0.22851562,-0.6713867,0.48828125,-0.5493164,0.24414062,0.0,0.0,0.0,-161.0321,44.857178,-173.80371
1765377015787,-0.7114258,-0.22851562,-0.6713867,0.48828125,-0.5493164,0.24414062,0.0,0.0,0.0,-160.98816,44.868164,-173.79822
1765377015875,-0.70996094,-0.22753906,-0.6669922,0.0,-0.18310547,0.24414062,0.0,0.0,0.0,-160.98816,44.868164,-173.79822
1765377015887,-0.70996094,-0.22753906,-0.6669922,0.0,-0.18310547,0.24414062,0.0,0.0,0.0,-160.9607,44.91211,-173.8147
1765377015975,-0.7128906,-0.22949219,-0.6699219,0.18310547,-0.12207031,0.0,0.0,0.0,0.0,-160.9607,44.91211,-173.8147
1765377015986,-0.7128906,-0.22949219,-0.6699219,0.18310547,-0.12207031,0.0,0.0,0.0,0.0,-160.93872,44.917603,-173.80371
1765377016075,-0.7114258,-0.2265625,-0.66845703,-0.12207031,0.0,0.0,0.0,0.0,0.0,-160.93872,44.917603,-173.80371
1765377016086,-0.7114258,-0.2265625,-0.66845703,-0.12207031,0.0,0.0,0.0,0.0,0.0,-160.92773,44.917603,-173.79822
1765377016174,-0.7109375,-0.22851562,-0.6689453,-0.24414062,0.24414062,0.0,0.0,0.0,0.0,-160.92773,44.917603,-173.79822
1765377016186,-0.7109375,-0.22851562,-0.6689453,-0.24414062,0.24414062,0.0,0.0,0.0,0.0,-160.93323,44.91211,-173.78723
1765377016274,-0.71191406,-0.22851562,-0.6694336,-0.061035156,0.6713867,0.0,0.0,0.0,0.0,-160.93323,44.91211,-173.78723
1765377016286,-0.71191406,-0.22851562,-0.6694336,-0.061035156,0.6713867,0.0,0.0,0.0,0.0,-160.92773,44.890137,-173.78174
1765377016374,-0.7114258,-0.22802734,-0.67089844,0.24414062,0.30517578,0.0,0.0,0.0,0.0,-160.92773,44.890137,-173.78174
1765377016385,-0.7114258,-0.22802734,-0.67089844,0.24414062,0.30517578,0.0,0.0,0.0,0.0,-160.90576,44.86267,-173.78723
1765377016473,-0.7109375,-0.22753906,-0.6689453,0.4272461,-0.12207031,0.0,0.0,0.0,0.0,-160.90576,44.86267,-173.78723
1765377016485,-0.7109375,-0.22753906,-0.6689453,0.4272461,-0.12207031,0.0,0.0,0.0,0.0,-160.81787,44.890137,-173.76526
1765377016573,-0.7114258,-0.22998047,-0.6699219,0.24414062,-0.30517578,0.0,0.0,0.0,0.0,-160.81787,44.890137,-173.76526
1765377016585,-0.7114258,-0.22998047,-0.6699219,0.24414062,-0.30517578,0.0,0.0,0.0,0.0,-160.78491,44.901123,-173.75427
1765377016673,-0.71191406,-0.22851562,-0.66796875,0.0,0.061035156,0.0,0.0,0.0,0.0,-160.78491,44.901123,-173.75427
1765377016684,-0.71191406,-0.22851562,-0.66796875,0.0,0.061035156,0.0,0.0,0.0,0.0,-160.76294,44.917603,-173.7323
1765377016773,-0.7114258,-0.22998047,-0.6689453,0.12207031,-0.12207031,0.0,0.0,0.0,0.0,-160.76294,44.917603,-173.7323
1765377016784,-0.7114258,-0.22998047,-0.6689453,0.12207031,-0.12207031,0.0,0.0,0.0,0.0,-160.73547,44.923096,-173.71582
1765377016872,-0.7114258,-0.23046875,-0.66748047,0.0,-0.061035156,0.0,0.0,0.0,0.0,-160.73547,44.923096,-173.71582
1765377016884,-0.7114258,-0.23046875,-0.66748047,0.0,-0.061035156,0.0,0.0,0.0,0.0,-160.7135,44.92859,-173.69934
1765377016972,-0.7114258,-0.23046875,-0.66796875,-0.12207031,0.12207031,0.0,0.0,0.0,0.0,-160.7135,44.92859,-173.69934
1765377016984,-0.7114258,-0.23046875,-0.66796875,-0.12207031,0.12207031,0.0,0.0,0.0,0.0,-160.70251,44.92859,-173.68286
1765377017072,-0.7109375,-0.23095703,-0.66845703,-0.30517578,0.8544922,0.0,0.0,0.0,0.0,-160.70251,44.92859,-173.68286
1765377017083,-0.7109375,-0.23095703,-0.66845703,-0.30517578,0.8544922,0.0,0.0,0.0,0.0,-160.719,44.901123,-173.66089
1765377017172,-0.71191406,-0.2319336,-0.6689453,0.061035156,0.6713867,0.0,0.0,0.0,0.0,-160.719,44.901123,-173.66089
1765377017183,-0.71191406,-0.2319336,-0.6689453,0.061035156,0.6713867,0.0,0.0,0.0,0.0,-160.7135,44.851685,-173.6554
1765377017271,-0.71191406,-0.22998047,-0.67041016,0.4272461,-0.12207031,0.0,0.0,0.0,0.0,-160.7135,44.851685,-173.6554
1765377017283,-0.71191406,-0.22998047,-0.67041016,0.4272461,-0.12207031,0.0,0.0,0.0,0.0,-160.6366,44.86267,-173.64441
1765377017371,-0.7114258,-0.23339844,-0.6699219,0.18310547,-0.36621094,0.0,0.0,0.0,0.0,-160.6366,44.86267,-173.64441
1765377017382,-0.7114258,-0.23339844,-0.6699219,0.18310547,-0.36621094,0.0,0.0,0.0,0.0,-160.60364,44.87915,-173.64441
1765377017471,-0.7109375,-0.23095703,-0.66503906,-0.24414062,0.18310547,0.0,0.0,0.0,0.0,-160.60364,44.87915,-173.64441
1765377017482,-0.7109375,-0.23095703,-0.66503906,-0.24414062,0.18310547,0.0,0.0,0.0,0.0,-160.58716,44.89563,-173.62793
1765377017570,-0.71240234,-0.2319336,-0.6689453,-0.12207031,0.061035156,0.0,0.0,0.0,0.0,-160.58716,44.89563,-173.62793
1765377017582,-0.71240234,-0.2319336,-0.6689453,-0.12207031,0.061035156,0.0,0.0,0.0,0.0,-160.57617,44.87915,-173.61145
1765377017670,-0.7104492,-0.23291016,-0.6669922,-0.061035156,-0.061035156,0.0,0.0,0.0,0.0,-160.57617,44.87915,-173.61145
1765377017682,-0.7104492,-0.23291016,-0.6669922,-0.061035156,-0.061035156,0.0,0.0,0.0,0.0,-160.57617,44.884644,-173.58948
1765377017770,-0.7114258,-0.2319336,-0.66845703,-0.18310547,0.12207031,0.0,0.0,0.0,0.0,-160.57617,44.884644,-173.58948
1765377017782,-0.7114258,-0.2319336,-0.66845703,-0.18310547,0.12207031,0.0,0.0,0.0,0.0,-160.57068,44.884644,-173.58398
1765377017870,-0.7109375,-0.23242188,-0.6665039,-0.36621094,0.7324219,0.0,0.0,0.0,0.0,-160.57068,44.884644,-173.58398
1765377017881,-0.7109375,-0.23242188,-0.6665039,-0.36621094,0.7324219,0.0,0.0,0.0,0.0,-160.58167,44.868164,-173.57849
1765377017969,-0.71240234,-0.2319336,-0.67089844,0.0,0.61035156,0.0,0.0,0.0,0.0,-160.58167,44.868164,-173.57849
1765377017981,-0.71240234,-0.2319336,-0.67089844,0.0,0.61035156,0.0,0.0,0.0,0.0,-160.58716,44.818726,-173.59497
1765377018069,-0.7104492,-0.22998047,-0.6689453,0.061035156,0.18310547,0.0,0.0,0.0,0.0,-160.58716,44.818726,-173.59497
1765377018080,-0.7104492,-0.22998047,-0.6689453,0.061035156,0.18310547,0.0,0.0,0.0,0.0,-160.5487,44.82422,-173.58398
1765377018169,-0.7109375,-0.23291016,-0.67041016,0.061035156,-0.30517578,0.0,0.0,0.0,0.0,-160.5487,44.82422,-173.58398
1765377018180,-0.7109375,-0.23291016,-0.67041016,0.061035156,-0.30517578,0.0,0.0,0.0,0.0,-160.54321,44.818726,-173.58398
1765377018268,-0.7109375,-0.23095703,-0.66748047,0.0,0.061035156,0.0,0.0,0.0,0.0,-160.54321,44.818726,-173.58398
1765377018280,-0.7109375,-0.23095703,-0.66748047,0.0,0.061035156,0.0,0.0,0.0,0.0,-160.52124,44.835205,-173.56201
1765377018368,-0.7104492,-0.2319336,-0.6694336,-0.061035156,0.0,0.0,0.0,0.0,0.0,-160.52124,44.835205,-173.56201
1765377018380,-0.7104492,-0.2319336,-0.6694336,-0.061035156,0.0,0.0,0.0,0.0,0.0,-160.51025,44.835205,-173.55652
1765377018468,-0.7109375,-0.23291016,-0.66796875,0.0,-0.061035156,0.0,0.0,0.0,0.0,-160.51025,44.835205,-173.55652
1765377018479,-0.7109375,-0.23291016,-0.66796875,0.0,-0.061035156,0.0,0.0,0.0,0.0,-160.50476,44.8407,-173.55103
1765377018568,-0.7104492,-0.23242188,-0.6665039,-0.24414062,0.061035156,0.0,0.0,0.0,0.0,-160.50476,44.8407,-173.55103
1765377018579,-0.7104492,-0.23242188,-0.6665039,-0.24414062,0.061035156,0.0,0.0,0.0,0.0,-160.50476,44.84619,-173.51807
1765377018667,-0.7114258,-0.23242188,-0.6645508,-0.30517578,0.48828125,0.0,0.0,0.0,0.0,-160.50476,44.84619,-173.51807
1765377018679,-0.7114258,-0.23242188,-0.6645508,-0.30517578,0.48828125,0.0,0.0,0.0,0.0,-160.49927,44.8407,-173.51807
1765377018767,-0.7109375,-0.23291016,-0.6689453,-0.061035156,0.7324219,0.0,0.0,0.0,0.0,-160.49927,44.8407,-173.51807
1765377018778,-0.7109375,-0.23291016,-0.6689453,-0.061035156,0.7324219,0.0,0.0,0.0,0.0,-160.50476,44.80774,-173.52356
1765377018867,-0.70996094,-0.22998047,-0.6689453,0.12207031,0.18310547,0.0,0.0,0.0,0.0,-160.50476,44.80774,-173.52356
1765377018878,-0.70996094,-0.22998047,-0.6689453,0.12207031,0.18310547,0.0,0.0,0.0,0.0,-160.4718,44.80774,-173.52356
1765377018966,-0.7104492,-0.23486328,-0.67089844,0.0,-0.061035156,0.0,0.0,0.0,0.0,-160.4718,44.80774,-173.52356
1765377018978,-0.7104492,-0.23486328,-0.67089844,0.0,-0.061035156,0.0,0.0,0.0,0.0,-160.4718,44.802246,-173.54553
1765377019066,-0.7104492,-0.23242188,-0.66748047,-0.18310547,0.18310547,0.0,0.0,0.0,0.0,-160.4718,44.802246,-173.54553
1765377019078,-0.7104492,-0.23242188,-0.66748047,-0.18310547,0.18310547,0.0,0.0,0.0,0.0,-160.45532,44.82422,-173.54004
1765377019166,-0.7104492,-0.23242188,-0.6694336,-0.061035156,0.0,0.0,0.0,0.0,0.0,-160.45532,44.82422,-173.54004
1765377019177,-0.7104492,-0.23242188,-0.6694336,-0.061035156,0.0,0.0,0.0,0.0,0.0,-160.45532,44.818726,-173.54004
1765377019265,-0.7104492,-0.23291016,-0.66845703,0.0,0.0,0.0,0.0,0.0,0.0,-160.45532,44.818726,-173.54004
1765377019277,-0.7104492,-0.23291016,-0.66845703,0.0,0.0,0.0,0.0,0.0,0.0,-160.44983,44.818726,-173.54553
1765377019365,-0.70996094,-0.23242188,-0.6665039,-0.18310547,0.0,0.0,0.0,0.0,0.0,-160.44983,44.818726,-173.54553
1765377019377,-0.70996094,-0.23242188,-0.6665039,-0.18310547,0.0,0.0,0.0,0.0,0.0,-160.44983,44.818726,-173.56201
1765377019465,-0.70996094,-0.23242188,-0.6660156,-0.12207031,0.24414062,0.0,0.0,0.0,0.0,-160.44983,44.818726,-173.56201
1765377019476,-0.70996094,-0.23242188,-0.6660156,-0.12207031,0.24414062,0.0,0.0,0.0,0.0,-160.45532,44.818726,-173.56201
1765377019565,-0.7084961,-0.23339844,-0.6645508,-0.18310547,0.79345703,0.0,0.0,0.0,0.0,-160.45532,44.818726,-173.56201
1765377019576,-0.7084961,-0.23339844,-0.6645508,-0.18310547,0.79345703,0.0,0.0,0.0,0.0,-160.46631,44.796753,-173.56201
1765377019664,-0.7084961,-0.2319336,-0.66796875,0.12207031,0.061035156,0.0,0.0,0.0,0.0,-160.46631,44.796753,-173.56201
1765377019676,-0.7084961,-0.2319336,-0.66796875,0.12207031,0.061035156,0.0,0.0,0.0,0.0,-160.45532,44.77478,-173.55652
1765377019764,-0.7104492,-0.234375,-0.6713867,0.0,0.061035156,0.0,0.0,0.0,0.0,-160.45532,44.77478,-173.55652
1765377019776,-0.7104492,-0.234375,-0.6713867,0.0,0.061035156,0.0,0.0,0.0,0.0,-160.46082,44.7583,-173.56201
1765377019864,-0.70947266,-0.23242188,-0.66796875,-0.12207031,0.061035156,0.0,0.0,0.0,0.0,-160.46082,44.7583,-173.56201
1765377019875,-0.70947266,-0.23242188,-0.66796875,-0.12207031,0.061035156,0.0,0.0,0.0,0.0,-160.44983,44.780273,-173.56201
1765377019964,-0.70996094,-0.23339844,-0.6694336,0.0,0.061035156,0.0,0.0,0.0,0.0,-160.44983,44.780273,-173.56201
1765377019975,-0.70996094,-0.23339844,-0.6694336,0.0,0.061035156,0.0,0.0,0.0,0.0,-160.46082,44.77478,-173.58398
1765377020063,-0.70996094,-0.23242188,-0.6689453,0.0,0.0,0.0,0.0,0.0,0.0,-160.46082,44.77478,-173.58398
1765377020075,-0.70996094,-0.23242188,-0.6689453,0.0,0.0,0.0,0.0,0.0,0.0,-160.44983,44.77478,-173.58398
1765377020163,-0.70996094,-0.23144531,-0.6689453,-0.12207031,0.0,0.0,0.0,0.0,0.0,-160.44983,44.77478,-173.58398
1765377020175,-0.70996094,-0.23144531,-0.6689453,-0.12207031,0.0,0.0,0.0,0.0,0.0,-160.44983,44.780273,-173.58398
1765377020263,-0.70947266,-0.23242188,-0.6665039,-0.12207031,0.061035156,0.0,0.0,0.0,0.0,-160.44983,44.780273,-173.58398
1765377020274,-0.70947266,-0.23242188,-0.6665039,-0.12207031,0.061035156,0.0,0.0,0.0,0.0,-160.46631,44.780273,-173.573
1765377020362,-0.7089844,-0.2290039,-0.6660156,-0.12207031,0.18310547,0.0,0.0,0.0,0.0,-160.46631,44.780273,-173.573
1765377020374,-0.7089844,-0.2290039,-0.6660156,-0.12207031,0.18310547,0.0,0.0,0.0,0.0,-160.48828,44.747314,-173.58398
1765377020462,-0.7080078,-0.234375,-0.6694336,0.36621094,-0.18310547,0.0,0.0,0.0,0.0,-160.48828,44.747314,-173.58398
1765377020474,-0.7080078,-0.234375,-0.6694336,0.36621094,-0.18310547,0.0,0.0,0.0,0.0,-160.48828,44.72534,-173.57849
1765377020562,-0.7089844,-0.23144531,-0.6699219,-0.061035156,0.12207031,0.0,0.0,0.0,0.0,-160.48828,44.72534,-173.57849
1765377020573,-0.7089844,-0.23144531,-0.6699219,-0.061035156,0.12207031,0.0,0.0,0.0,0.0,-160.49377,44.714355,-173.59497
1765377020662,-0.7089844,-0.23242188,-0.66796875,-0.12207031,-0.18310547,0.0,0.0,0.0,0.0,-160.49377,44.714355,-173.59497
1765377020673,-0.7089844,-0.23242188,-0.66796875,-0.12207031,-0.18310547,0.0,0.0,0.0,0.0,-160.48279,44.730835,-173.59497
1765377020761,-0.7089844,-0.23388672,-0.66845703,0.0,0.18310547,0.0,0.0,0.0,0.0,-160.48279,44.730835,-173.59497
1765377020773,-0.7089844,-0.23388672,-0.66845703,0.0,0.18310547,0.0,0.0,0.0,0.0,-160.48828,44.72534,-173.60596
1765377020861,-0.70996094,-0.2319336,-0.6694336,-0.061035156,0.0,0.0,0.0,0.0,0.0,-160.48828,44.72534,-173.60596
1765377020872,-0.70996094,-0.2319336,-0.6694336,-0.061035156,0.0,0.0,0.0,0.0,0.0,-160.48279,44.72534,-173.61145
1765377020961,-0.70947266,-0.23095703,-0.6694336,0.0,-0.061035156,0.0,0.0,0.0,0.0,-160.48279,44.72534,-173.61145
1765377020972,-0.70947266,-0.23095703,-0.6694336,0.0,-0.061035156,0.0,0.0,0.0,0.0,-160.4773,44.730835,-173.61145
1765377021060,-0.70996094,-0.23242188,-0.66845703,0.0,-0.18310547,0.0,0.0,0.0,0.0,-160.4773,44.730835,-173.61145
1765377021072,-0.70996094,-0.23242188,-0.66845703,0.0,-0.18310547,0.0,0.0,0.0,0.0,-160.4773,44.74182,-173.61694
1765377021160,-0.70996094,-0.22998047,-0.67041016,0.061035156,-0.12207031,0.0,0.0,0.0,0.0,-160.4773,44.74182,-173.61694
1765377021172,-0.70996094,-0.22998047,-0.67041016,0.061035156,-0.12207031,0.0,0.0,0.0,0.0,-160.48279,44.730835,-173.62793
1765377021260,-0.7084961,-0.23486328,-0.6689453,0.30517578,-0.18310547,0.0,0.0,0.0,0.0,-160.48279,44.730835,-173.62793
1765377021271,-0.7084961,-0.23486328,-0.6689453,0.30517578,-0.18310547,0.0,0.0,0.0,0.0,-160.4773,44.71985,-173.63892
1765377021359,-0.70996094,-0.23291016,-0.6689453,-0.24414062,0.12207031,0.0,0.0,0.0,0.0,-160.4773,44.71985,-173.63892
1765377021372,-0.70996094,-0.23291016,-0.6689453,-0.24414062,0.12207031,0.0,0.0,0.0,0.0,-160.46631,44.714355,-173.64441
1765377021459,-0.7104492,-0.2319336,-0.6689453,-0.18310547,-0.36621094,0.0,0.0,0.0,0.0,-160.46631,44.714355,-173.64441
1765377021471,-0.7104492,-0.2319336,-0.6689453,-0.18310547,-0.36621094,0.0,0.0,0.0,0.0,-160.46082,44.73633,-173.63892
1765377021559,-0.7089844,-0.23388672,-0.66796875,-0.12207031,0.061035156,0.0,0.0,0.0,0.0,-160.46082,44.73633,-173.63892
1765377021570,-0.7089844,-0.23388672,-0.66796875,-0.12207031,0.061035156,0.0,0.0,0.0,0.0,-160.4718,44.74182,-173.63892
1765377021659,-0.70996094,-0.23242188,-0.66845703,-0.12207031,0.0,0.0,0.0,0.0,0.0,-160.4718,44.74182,-173.63892
1765377021671,-0.70996094,-0.23242188,-0.66845703,-0.12207031,0.0,0.0,0.0,0.0,0.0,-160.4718,44.74182,-173.64441
1765377021758,-0.70996094,-0.23242188,-0.6699219,0.0,-0.18310547,0.0,0.0,0.0,0.0,-160.4718,44.74182,-173.64441
1765377021770,-0.70996094,-0.23242188,-0.6699219,0.0,-0.18310547,0.0,0.0,0.0,0.0,-160.4718,44.747314,-173.64441
1765377021858,-0.70996094,-0.23144531,-0.6689453,0.0,-0.12207031,0.0,0.0,0.0,0.0,-160.4718,44.747314,-173.64441
1765377021870,-0.70996094,-0.23144531,-0.6689453,0.0,-0.12207031,0.0,0.0,0.0,0.0,-160.46631,44.763794,-173.64441
1765377021958,-0.7104492,-0.23144531,-0.6713867,0.18310547,0.061035156,0.0,0.0,0.0,0.0,-160.46631,44.763794,-173.64441
1765377021969,-0.7104492,-0.23144531,-0.6713867,0.18310547,0.061035156,0.0,0.0,0.0,0.0,-160.4718,44.747314,-173.6554
1765377022058,-0.70947266,-0.2319336,-0.66845703,0.4272461,-0.36621094,0.0,0.0,0.0,0.0,-160.4718,44.747314,-173.6554
1765377022069,-0.70947266,-0.2319336,-0.66845703,0.4272461,-0.36621094,0.0,0.0,0.0,0.0,-160.4718,44.730835,-173.66638
1765377022157,-0.70996094,-0.23095703,-0.6694336,0.0,0.12207031,0.0,0.0,0.0,0.0,-160.4718,44.730835,-173.66638
1765377022169,-0.70996094,-0.23095703,-0.6694336,0.0,0.12207031,0.0,0.0,0.0,0.0,-160.43884,44.73633,-173.67188
1765377022257,-0.7109375,-0.22998047,-0.6699219,-0.061035156,-0.24414062,0.0,0.0,0.0,0.0,-160.43884,44.73633,-173.67188
1765377022268,-0.7109375,-0.22998047,-0.6699219,-0.061035156,-0.24414062,0.0,0.0,0.0,0.0,-160.43884,44.74182,-173.67188
1765377022357,-0.70947266,-0.23339844,-0.6694336,-0.12207031,0.18310547,0.0,0.0,0.0,0.0,-160.43884,44.74182,-173.67188
1765377022368,-0.70947266,-0.23339844,-0.6694336,-0.12207031,0.18310547,0.0,0.0,0.0,0.0,-160.45532,44.73633,-173.67737
1765377022457,-0.70996094,-0.23291016,-0.6694336,-0.12207031,0.061035156,0.0,0.0,0.0,0.0,-160.45532,44.73633,-173.67737
1765377022468,-0.70996094,-0.23291016,-0.6694336,-0.12207031,0.061035156,0.0,0.0,0.0,0.0,-160.46082,44.730835,-173.68286
1765377022556,-0.70947266,-0.23144531,-0.6689453,0.0,0.0,0.0,0.0,0.0,0.0,-160.46082,44.730835,-173.68286
1765377022568,-0.70947266,-0.23144531,-0.6689453,0.0,0.0,0.0,0.0,0.0,0.0,-160.45532,44.730835,-173.68835
1765377022656,-0.70947266,-0.23291016,-0.67041016,0.0,0.0,0.0,0.0,0.0,0.0,-160.45532,44.730835,-173.68835
1765377022667,-0.70947266,-0.23291016,-0.67041016,0.0,0.0,0.0,0.0,0.0,0.0,-160.46082,44.73633,-173.68835
1765377022756,-0.70947266,-0.23291016,-0.6743164,0.12207031,0.18310547,0.0,0.0,0.0,0.0,-160.46082,44.73633,-173.68835
1765377022767,-0.70947266,-0.23291016,-0.6743164,0.12207031,0.18310547,0.0,0.0,0.0,0.0,-160.4718,44.71985,-173.69934
1765377022855,-0.7104492,-0.23242188,-0.6713867,0.24414062,-0.061035156,0.0,0.0,0.0,0.0,-160.4718,44.71985,-173.69934
1765377022867,-0.7104492,-0.23242188,-0.6713867,0.24414062,-0.061035156,0.0,0.0,0.0,0.0,-160.4773,44.697876,-173.71582
1765377022955,-0.70996094,-0.23095703,-0.6694336,-0.061035156,0.36621094,0.0,0.0,0.0,0.0,-160.4773,44.697876,-173.71582
1765377022966,-0.70996094,-0.23095703,-0.6694336,-0.061035156,0.36621094,0.0,0.0,0.0,0.0,-160.45532,44.692383,-173.72131
1765377023055,-0.7089844,-0.23144531,-0.6723633,0.061035156,0.4272461,0.0,0.0,0.0,0.0,-160.45532,44.692383,-173.72131
1765377023066,-0.7089844,-0.23144531,-0.6723633,0.061035156,0.4272461,0.0,0.0,0.0,0.0,-160.46082,44.648438,-173.74878
1765377023154,-0.7084961,-0.23388672,-0.671875,0.18310547,0.12207031,0.0,0.0,0.0,0.0,-160.46082,44.648438,-173.74878
1765377023166,-0.7084961,-0.23388672,-0.671875,0.18310547,0.12207031,0.0,0.0,0.0,0.0,-160.46631,44.626465,-173.75977
1765377023254,-0.70751953,-0.2319336,-0.6660156,0.0,-0.18310547,0.48828125,0.0,0.0,0.0,-160.46631,44.626465,-173.75977
1765377023266,-0.70751953,-0.2319336,-0.6660156,0.0,-0.18310547,0.48828125,0.0,0.0,0.0,-160.4718,44.648438,-173.79272
1765377023354,-0.7080078,-0.22851562,-0.6699219,-0.36621094,0.36621094,-0.061035156,0.0,0.0,0.0,-160.4718,44.648438,-173.79272
1765377023365,-0.7080078,-0.22851562,-0.6699219,-0.36621094,0.36621094,-0.061035156,0.0,0.0,0.0,-160.49377,44.63745,-173.83667
1765377023454,-0.7089844,-0.23486328,-0.6743164,-0.12207031,0.12207031,-0.12207031,0.0,0.0,0.0,-160.49377,44.63745,-173.83667
1765377023465,-0.7089844,-0.23486328,-0.6743164,-0.12207031,0.12207031,-0.12207031,0.0,0.0,0.0,-160.52673,44.599,-173.83118
1765377023553,-0.70703125,-0.23144531,-0.67529297,0.0,0.5493164,0.0,0.0,0.0,0.0,-160.52673,44.599,-173.83118
1765377023565,-0.70703125,-0.23144531,-0.67529297,0.0,0.5493164,0.0,0.0,0.0,0.0,-160.56519,44.56604,-173.85315
1765377023653,-0.7080078,-0.23291016,-0.67529297,0.36621094,0.0,-0.12207031,0.0,0.0,0.0,-160.56519,44.56604,-173.85315
1765377023665,-0.7080078,-0.23291016,-0.67529297,0.36621094,0.0,-0.12207031,0.0,0.0,0.0,-160.57617,44.522095,-173.86963
1765377023753,-0.70654297,-0.22998047,-0.67285156,0.0,0.24414062,0.18310547,0.0,0.0,0.0,-160.57617,44.522095,-173.86963
1765377023764,-0.70654297,-0.22998047,-0.67285156,0.0,0.24414062,0.18310547,0.0,0.0,0.0,-160.54321,44.522095,-173.87512
1765377023853,-0.7080078,-0.23291016,-0.67285156,0.12207031,-0.48828125,0.0,0.0,0.0,0.0,-160.54321,44.522095,-173.87512
1765377023864,-0.7080078,-0.23291016,-0.67285156,0.12207031,-0.48828125,0.0,0.0,0.0,0.0,-160.53772,44.538574,-173.88062
1765377023952,-0.70751953,-0.23144531,-0.6723633,0.0,0.0,0.0,0.0,0.0,0.0,-160.53772,44.538574,-173.88062
1765377023964,-0.70751953,-0.23144531,-0.6723633,0.0,0.0,0.0,0.0,0.0,0.0,-160.52673,44.54956,-173.87512
1765377024052,-0.70654297,-0.23339844,-0.6713867,0.061035156,-0.061035156,0.30517578,0.0,0.0,0.0,-160.52673,44.54956,-173.87512
1765377024063,-0.70654297,-0.23339844,-0.6713867,0.061035156,-0.061035156,0.30517578,0.0,0.0,0.0,-160.51575,44.555054,-173.87512
1765377024152,-0.70654297,-0.2290039,-0.6689453,-0.12207031,0.0,0.0,0.0,0.0,0.0,-160.51575,44.555054,-173.87512
1765377024163,-0.70654297,-0.2290039,-0.6689453,-0.12207031,0.0,0.0,0.0,0.0,0.0,-160.53223,44.58252,-173.90808
1765377024251,-0.7084961,-0.23339844,-0.67285156,-0.18310547,0.18310547,-0.12207031,0.0,0.0,0.0,-160.53223,44.58252,-173.90808
1765377024263,-0.7084961,-0.23339844,-0.67285156,-0.18310547,0.18310547,-0.12207031,0.0,0.0,0.0,-160.5487,44.555054,-173.8971
1765377024351,-0.70751953,-0.23242188,-0.6777344,0.0,0.30517578,0.12207031,0.0,0.0,0.0,-160.5487,44.555054,-173.8971
1765377024363,-0.70751953,-0.23242188,-0.6777344,0.0,0.30517578,0.12207031,0.0,0.0,0.0,-160.58167,44.522095,-173.91357
1765377024451,-0.7084961,-0.23095703,-0.6743164,0.061035156,0.36621094,0.0,0.0,0.0,0.0,-160.58167,44.522095,-173.91357
1765377024462,-0.7084961,-0.23095703,-0.6743164,0.061035156,0.36621094,0.0,0.0,0.0,0.0,-160.59814,44.489136,-173.93555
1765377024551,-0.70654297,-0.2290039,-0.6723633,0.0,0.12207031,0.061035156,0.0,0.0,0.0,-160.59814,44.489136,-173.93555
1765377024562,-0.70654297,-0.2290039,-0.6723633,0.0,0.12207031,0.061035156,0.0,0.0,0.0,-160.56519,44.49463,-173.94104
1765377024650,-0.70703125,-0.2319336,-0.6713867,0.4272461,-0.91552734,0.0,0.0,0.0,0.0,-160.56519,44.49463,-173.94104
1765377024662,-0.70703125,-0.2319336,-0.6713867,0.4272461,-0.91552734,0.0,0.0,0.0,0.0,-160.54321,44.527588,-173.93005
1765377024750,-0.7089844,-0.2290039,-0.6713867,-0.061035156,-1.0986328,0.61035156,0.0,0.0,0.0,-160.54321,44.527588,-173.93005
1765377024762,-0.7089844,-0.2290039,-0.6713867,-0.061035156,-1.0986328,0.61035156,0.0,0.0,0.0,-160.54321,44.65393,-173.96301
1765377024850,-0.7104492,-0.2265625,-0.6694336,-0.4272461,-0.30517578,1.0986328,0.0,0.0,0.0,-160.54321,44.65393,-173.96301
1765377024861,-0.7104492,-0.2265625,-0.6694336,-0.4272461,-0.30517578,1.0986328,0.0,0.0,0.0,-160.59265,44.73633,-174.02893
1765377024949,-0.71728516,-0.23486328,-0.6948242,-2.746582,-0.48828125,3.1738281,0.0,0.0,0.0,-160.59265,44.73633,-174.02893
1765377024961,-0.71728516,-0.23486328,-0.6948242,-2.746582,-0.48828125,3.1738281,0.0,0.0,0.0,-160.85083,44.730835,-174.08936
1765377025049,-0.73828125,-0.2626953,-0.6582031,-10.681152,2.319336,-6.7749023,0.0,0.0,0.0,-160.85083,44.730835,-174.08936
1765377025061,-0.73828125,-0.2626953,-0.6582031,-10.681152,2.319336,-6.7749023,0.0,0.0,0.0,-161.13098,45.01648,-173.88611
1765377025149,-0.70166016,-0.20214844,-0.66845703,-6.164551,6.3476562,7.751465,0.0,0.0,0.0,-161.13098,45.01648,-173.88611
1765377025160,-0.70166016,-0.20214844,-0.66845703,-6.164551,6.3476562,7.751465,0.0,0.0,0.0,-162.72949,44.379272,-174.51782
1765377025249,-0.6894531,-0.22021484,-0.6879883,-1.0986328,0.24414062,-3.6010742,0.0,0.0,0.0,-162.72949,44.379272,-174.51782
1765377025260,-0.6894531,-0.22021484,-0.6879883,-1.0986328,0.24414062,-3.6010742,0.0,0.0,0.0,-163.22937,44.423218,-174.66064
1765377025348,-0.7114258,-0.19873047,-0.68847656,-3.0517578,2.0141602,-0.48828125,0.0,0.0,0.0,-163.22937,44.423218,-174.66064
1765377025360,-0.7114258,-0.19873047,-0.68847656,-3.0517578,2.0141602,-0.48828125,0.0,0.0,0.0,-163.19641,44.225464,-174.62769
1765377025448,-0.6821289,-0.19580078,-0.68603516,-9.155273,2.380371,-0.4272461,0.0,0.0,0.0,-163.19641,44.225464,-174.62769
1765377025460,-0.6821289,-0.19580078,-0.68603516,-9.155273,2.380371,-0.4272461,0.0,0.0,0.0,-164.12476,44.071655,-174.6936
1765377025548,-0.7006836,-0.17089844,-0.6669922,2.319336,20.812988,0.8544922,0.0,0.0,0.0,-164.12476,44.071655,-174.6936
1765377025559,-0.7006836,-0.17089844,-0.6669922,2.319336,20.812988,0.8544922,0.0,0.0,0.0,-164.68506,43.016968,-175.177
1765377025648,-0.65234375,-0.20751953,-0.76904297,12.084961,29.541016,-39.611816,0.0,0.0,0.0,-164.68506,43.016968,-175.177
1765377025659,-0.65234375,-0.20751953,-0.76904297,12.084961,29.541016,-39.611816,0.0,0.0,0.0,-162.72949,39.885864,-173.60596
1765377025747,-0.64501953,-0.24414062,-0.7128906,9.460449,37.04834,-48.034668,0.0,0.0,0.0,-162.72949,39.885864,-173.60596
1765377025759,-0.64501953,-0.24414062,-0.7128906,9.460449,37.04834,-48.034668,0.0,0.0,0.0,-159.15344,35.62317,-169.45862
1765377025847,-0.40527344,-0.18554688,-0.8022461,3.3569336,49.987793,-15.258789,0.0,0.0,0.0,-159.15344,35.62317,-169.45862
1765377025858,-0.40527344,-0.18554688,-0.8022461,3.3569336,49.987793,-15.258789,0.0,0.0,0.0,-157.53296,30.404663,-168.36548
1765377025947,-0.3466797,-0.37646484,-0.89404297,11.230469,45.59326,-15.686035,0.0,0.0,0.0,-157.53296,30.404663,-168.36548
1765377025958,-0.3466797,-0.37646484,-0.89404297,11.230469,45.59326,-15.686035,0.0,0.0,0.0,-157.41211,25.081787,-170.49683
1765377026046,-0.3955078,-0.4794922,-0.8652344,-1.7700195,16.235352,25.390625,0.0,0.0,0.0,-157.41211,25.081787,-170.49683
1765377026058,-0.3955078,-0.4794922,-0.8652344,-1.7700195,16.235352,25.390625,0.0,0.0,0.0,-157.78015,22.609863,-174.44092
1765377026146,-0.47607422,-0.39648438,-0.8847656,-3.8452148,-13.183594,9.58252,0.0,0.0,0.0,-157.78015,22.609863,-174.44092
1765377026158,-0.47607422,-0.39648438,-0.8847656,-3.8452148,-13.183594,9.58252,0.0,0.0,0.0,-158.02185,23.065796,-178.13782
1765377026246,-0.37548828,-0.25097656,-0.8198242,-17.089844,-34.118652,2.6245117,0.0,0.0,0.0,-158.02185,23.065796,-178.13782
1765377026258,-0.37548828,-0.25097656,-0.8198242,-17.089844,-34.118652,2.6245117,0.0,0.0,0.0,-159.0216,26.141968,-179.26941
1765377026346,-0.5,-0.3076172,-0.83691406,-10.620117,-14.770508,0.6713867,0.0,0.0,0.0,-159.0216,26.141968,-179.26941
1765377026357,-0.5,-0.3076172,-0.83691406,-10.620117,-14.770508,0.6713867,0.0,0.0,0.0,-159.81262,27.69104,179.97253
1765377026445,-0.515625,-0.30615234,-0.82958984,-0.24414062,-9.643555,3.0517578,0.0,0.0,0.0,-159.81262,27.69104,179.97253
1765377026457,-0.515625,-0.30615234,-0.82958984,-0.24414062,-9.643555,3.0517578,0.0,0.0,0.0,-160.4718,29.174194,179.22546
1765377026545,-0.4736328,-0.28222656,-0.82421875,1.159668,4.3945312,0.0,0.0,0.0,0.0,-160.4718,29.174194,179.22546
1765377026557,-0.4736328,-0.28222656,-0.82421875,1.159668,4.3945312,0.0,0.0,0.0,0.0,-160.19714,28.948975,178.20374
1765377026645,-0.4892578,-0.27978516,-0.8251953,-0.8544922,-1.3427734,0.91552734,0.0,0.0,0.0,-160.19714,28.948975,178.20374
1765377026656,-0.4892578,-0.27978516,-0.8251953,-0.8544922,-1.3427734,0.91552734,0.0,0.0,0.0,-160.34546,28.87207,177.3468
1765377026744,-0.4814453,-0.29101562,-0.8359375,-0.5493164,-1.2817383,-0.12207031,0.0,0.0,0.0,-160.34546,28.87207,177.3468
1765377026756,-0.4814453,-0.29101562,-0.8359375,-0.5493164,-1.2817383,-0.12207031,0.0,0.0,0.0,-160.45532,29.036865,176.66016
1765377026844,-0.4892578,-0.2919922,-0.828125,-0.24414062,0.061035156,-0.061035156,0.0,0.0,0.0,-160.45532,29.036865,176.66016
1765377026856,-0.4892578,-0.2919922,-0.828125,-0.24414062,0.061035156,-0.061035156,0.0,0.0,0.0,-160.51025,29.058838,175.98999
1765377026944,-0.48535156,-0.28857422,-0.82470703,-1.8310547,-1.8310547,1.159668,0.0,0.0,0.0,-160.51025,29.058838,175.98999
1765377026955,-0.48535156,-0.28857422,-0.82470703,-1.8310547,-1.8310547,1.159668,0.0,0.0,0.0,-160.6311,29.163208,175.31982
1765377027044,-0.49023438,-0.2783203,-0.82421875,-0.36621094,-1.0986328,0.0,0.0,0.0,0.0,-160.6311,29.163208,175.31982
1765377027055,-0.49023438,-0.2783203,-0.82421875,-0.36621094,-1.0986328,0.0,0.0,0.0,0.0,-160.73547,29.273071,174.71558
1765377027143,-0.48779297,-0.28759766,-0.82910156,0.91552734,-1.7700195,0.0,0.0,0.0,0.0,-160.73547,29.273071,174.71558
1765377027155,-0.48779297,-0.28759766,-0.82910156,0.91552734,-1.7700195,0.0,0.0,0.0,0.0,-160.67505,29.366455,174.23767
1765377027243,-0.49658203,-0.28320312,-0.82373047,1.3427734,-0.9765625,-0.7324219,0.0,0.0,0.0,-160.67505,29.366455,174.23767
1765377027255,-0.49658203,-0.28320312,-0.82373047,1.3427734,-0.9765625,-0.7324219,0.0,0.0,0.0,-160.51575,29.487305,173.84216
1765377027343,-0.49658203,-0.28710938,-0.8198242,0.9765625,0.12207031,-0.4272461,0.0,0.0,0.0,-160.51575,29.487305,173.84216
1765377027354,-0.49658203,-0.28710938,-0.8198242,0.9765625,0.12207031,-0.4272461,0.0,0.0,0.0,-160.40588,29.470825,173.47412
1765377027442,-0.49365234,-0.2915039,-0.8222656,1.5258789,-0.9765625,-0.48828125,0.0,0.0,0.0,-160.40588,29.470825,173.47412
1765377027454,-0.49365234,-0.2915039,-0.8222656,1.5258789,-0.9765625,-0.48828125,0.0,0.0,0.0,-160.25757,29.492798,173.13904
1765377027542,-0.49609375,-0.2919922,-0.8232422,0.7324219,0.24414062,-0.24414062,0.0,0.0,0.0,-160.25757,29.492798,173.13904
1765377027554,-0.49609375,-0.2919922,-0.8232422,0.7324219,0.24414062,-0.24414062,0.0,0.0,0.0,-160.12024,29.481812,172.78748
1765377027642,-0.4951172,-0.29296875,-0.81884766,0.4272461,-0.48828125,0.0,0.0,0.0,0.0,-160.12024,29.481812,172.78748
1765377027653,-0.4951172,-0.29296875,-0.81884766,0.4272461,-0.48828125,0.0,0.0,0.0,0.0,-160.04333,29.509277,172.43591
1765377027742,-0.49365234,-0.29638672,-0.8222656,0.61035156,0.061035156,-0.061035156,0.0,0.0,0.0,-160.04333,29.509277,172.43591
1765377027753,-0.49365234,-0.29638672,-0.8222656,0.61035156,0.061035156,-0.061035156,0.0,0.0,0.0,-159.98291,29.492798,172.08984
1765377027841,-0.49560547,-0.2939453,-0.81933594,0.30517578,-0.061035156,0.0,0.0,0.0,0.0,-159.98291,29.492798,172.08984
1765377027853,-0.49560547,-0.2939453,-0.81933594,0.30517578,-0.061035156,0.0,0.0,0.0,0.0,-159.93896,29.481812,171.74927
1765377027941,-0.4951172,-0.29638672,-0.8232422,0.4272461,0.12207031,0.0,0.0,0.0,0.0,-159.93896,29.481812,171.74927
1765377027952,-0.4951172,-0.29638672,-0.8232422,0.4272461,0.12207031,0.0,0.0,0.0,0.0,-159.91699,29.487305,171.43066
1765377028041,-0.49609375,-0.29736328,-0.8251953,0.6713867,0.5493164,0.0,0.0,0.0,0.0,-159.91699,29.487305,171.43066
1765377028052,-0.49609375,-0.29736328,-0.8251953,0.6713867,0.5493164,0.0,0.0,0.0,0.0,-159.88953,29.404907,171.11206
1765377028140,-0.4975586,-0.29736328,-0.82421875,1.0375977,-0.30517578,-0.36621094,0.0,0.0,0.0,-159.88953,29.404907,171.11206
1765377028152,-0.4975586,-0.29736328,-0.82421875,1.0375977,-0.30517578,-0.36621094,0.0,0.0,0.0,-159.86206,29.371948,170.82092
1765377028240,-0.49414062,-0.29589844,-0.8208008,0.4272461,0.0,-0.061035156,0.0,0.0,0.0,-159.86206,29.371948,170.82092
1765377028252,-0.49414062,-0.29589844,-0.8208008,0.4272461,0.0,-0.061035156,0.0,0.0,0.0,-159.77966,29.377441,170.58472
1765377028340,-0.4951172,-0.2993164,-0.8208008,0.18310547,-0.36621094,0.0,0.0,0.0,0.0,-159.77966,29.377441,170.58472
1765377028351,-0.4951172,-0.2993164,-0.8208008,0.18310547,-0.36621094,0.0,0.0,0.0,0.0,-159.72473,29.39392,170.34851
1765377028440,-0.4951172,-0.2998047,-0.8208008,0.24414062,-0.18310547,0.0,0.0,0.0,0.0,-159.72473,29.39392,170.34851
1765377028451,-0.4951172,-0.2998047,-0.8208008,0.24414062,-0.18310547,0.0,0.0,0.0,0.0,-159.70276,29.404907,170.09583
1765377028539,-0.49609375,-0.30029297,-0.81884766,0.18310547,0.12207031,0.0,0.0,0.0,0.0,-159.70276,29.404907,170.09583
1765377028551,-0.49609375,-0.30029297,-0.81884766,0.18310547,0.12207031,0.0,0.0,0.0,0.0,-159.65332,29.399414,169.85413
1765377028639,-0.4951172,-0.2993164,-0.8154297,-0.18310547,0.12207031,0.0,0.0,0.0,0.0,-159.65332,29.399414,169.85413
1765377028651,-0.4951172,-0.2993164,-0.8154297,-0.18310547,0.12207031,0.0,0.0,0.0,0.0,-159.64233,29.39392,169.6289
1765377028739,-0.4946289,-0.2993164,-0.8173828,-0.061035156,0.0,0.0,0.0,0.0,0.0,-159.64233,29.39392,169.6289
1765377028750,-0.4946289,-0.2993164,-0.8173828,-0.061035156,0.0,0.0,0.0,0.0,0.0,-159.62585,29.388428,169.43115
1765377028839,-0.49169922,-0.29833984,-0.8149414,-0.12207031,0.5493164,0.0,0.0,0.0,0.0,-159.62585,29.388428,169.43115
1765377028850,-0.49169922,-0.29833984,-0.8149414,-0.12207031,0.5493164,0.0,0.0,0.0,0.0,-159.62585,29.344482,169.20593
1765377028938,-0.49316406,-0.3017578,-0.8178711,0.18310547,-0.36621094,0.0,0.0,0.0,0.0,-159.62585,29.344482,169.20593
1765377028950,-0.49316406,-0.3017578,-0.8178711,0.18310547,-0.36621094,0.0,0.0,0.0,0.0,-159.59839,29.349976,169.02466
1765377029038,-0.4946289,-0.30126953,-0.8203125,0.0,-0.12207031,0.0,0.0,0.0,0.0,-159.59839,29.349976,169.02466
1765377029049,-0.4946289,-0.30126953,-0.8203125,0.0,-0.12207031,0.0,0.0,0.0,0.0,-159.5874,29.33899,168.84888
1765377029138,-0.49316406,-0.3022461,-0.8183594,0.0,-0.24414062,0.0,0.0,0.0,0.0,-159.5874,29.33899,168.84888
1765377029149,-0.49316406,-0.3022461,-0.8183594,0.0,-0.24414062,0.0,0.0,0.0,0.0,-159.56543,29.360962,168.70605
1765377029237,-0.4951172,-0.30029297,-0.8198242,0.12207031,0.0,0.0,0.0,0.0,0.0,-159.56543,29.360962,168.70605
1765377029249,-0.4951172,-0.30029297,-0.8198242,0.12207031,0.0,0.0,0.0,0.0,0.0,-159.54895,29.355469,168.56873
1765377029337,-0.4946289,-0.3022461,-0.81933594,0.0,-0.061035156,0.0,0.0,0.0,0.0,-159.54895,29.355469,168.56873
1765377029349,-0.4946289,-0.3022461,-0.81933594,0.0,-0.061035156,0.0,0.0,0.0,0.0,-159.53796,29.349976,168.44238
1765377029437,-0.4946289,-0.30126953,-0.81884766,0.0,0.061035156,0.0,0.0,0.0,0.0,-159.53796,29.349976,168.44238
1765377029448,-0.4946289,-0.30126953,-0.81884766,0.0,0.061035156,0.0,0.0,0.0,0.0,-159.51599,29.355469,168.32703
1765377029537,-0.4946289,-0.2998047,-0.81640625,-0.30517578,0.5493164,0.0,0.0,0.0,0.0,-159.51599,29.355469,168.32703
1765377029548,-0.4946289,-0.2998047,-0.81640625,-0.30517578,0.5493164,0.0,0.0,0.0,0.0,-159.5105,29.344482,168.20068
1765377029636,-0.49560547,-0.30029297,-0.8198242,0.0,0.48828125,0.0,0.0,0.0,0.0,-159.5105,29.344482,168.20068
1765377029648,-0.49560547,-0.30029297,-0.8198242,0.0,0.48828125,0.0,0.0,0.0,0.0,-159.49951,29.300537,168.06335
1765377029736,-0.49414062,-0.2993164,-0.81689453,0.0,0.12207031,0.0,0.0,0.0,0.0,-159.49951,29.300537,168.06335
1765377029747,-0.49414062,-0.2993164,-0.81689453,0.0,0.12207031,0.0,0.0,0.0,0.0,-159.45007,29.328003,167.98645
1765377029836,-0.49609375,-0.30322266,-0.81884766,0.061035156,-0.48828125,0.0,0.0,0.0,0.0,-159.45007,29.328003,167.98645
1765377029847,-0.49609375,-0.30322266,-0.81884766,0.061035156,-0.48828125,0.0,0.0,0.0,0.0,-159.4336,29.333496,167.89856
1765377029935,-0.4946289,-0.3017578,-0.81689453,-0.061035156,0.12207031,0.0,0.0,0.0,0.0,-159.4336,29.333496,167.89856
1765377029947,-0.4946289,-0.3017578,-0.81689453,-0.061035156,0.12207031,0.0,0.0,0.0,0.0,-159.41711,29.355469,167.82166
1765377030035,-0.49560547,-0.3022461,-0.8178711,0.061035156,0.0,0.0,0.0,0.0,0.0,-159.41711,29.355469,167.82166
1765377030047,-0.49560547,-0.3022461,-0.8178711,0.061035156,0.0,0.0,0.0,0.0,0.0,-159.39514,29.349976,167.72827
1765377030135,-0.4951172,-0.3022461,-0.81640625,0.0,-0.18310547,0.0,0.0,0.0,0.0,-159.39514,29.349976,167.72827
1765377030147,-0.4951172,-0.3022461,-0.81640625,0.0,-0.18310547,0.0,0.0,0.0,0.0,-159.38416,29.360962,167.65137
1765377030235,-0.4946289,-0.30371094,-0.81884766,-0.061035156,0.18310547,0.0,0.0,0.0,0.0,-159.38416,29.360962,167.65137
1765377030246,-0.4946289,-0.30371094,-0.81884766,-0.061035156,0.18310547,0.0,0.0,0.0,0.0,-159.37317,29.371948,167.60193
1765377030334,-0.49609375,-0.30371094,-0.81689453,-0.24414062,0.5493164,0.0,0.0,0.0,0.0,-159.37317,29.371948,167.60193
1765377030346,-0.49609375,-0.30371094,-0.81689453,-0.24414062,0.5493164,0.0,0.0,0.0,0.0,-159.37866,29.355469,167.53052
1765377030434,-0.49560547,-0.30078125,-0.8208008,0.061035156,0.12207031,0.0,0.0,0.0,0.0,-159.37866,29.355469,167.53052
1765377030446,-0.49560547,-0.30078125,-0.8208008,0.061035156,0.12207031,0.0,0.0,0.0,0.0,-159.36768,29.32251,167.45361
1765377030534,-0.49560547,-0.3022461,-0.8173828,0.0,0.24414062,0.0,0.0,0.0,0.0,-159.36768,29.32251,167.45361
1765377030545,-0.49560547,-0.3022461,-0.8173828,0.0,0.24414062,0.0,0.0,0.0,0.0,-159.32922,29.349976,167.39868
1765377030634,-0.49560547,-0.30371094,-0.8173828,0.061035156,-0.4272461,0.0,0.0,0.0,0.0,-159.32922,29.349976,167.39868
1765377030646,-0.49560547,-0.30371094,-0.8173828,0.061035156,-0.4272461,0.0,0.0,0.0,0.0,-159.30725,29.355469,167.34375
1765377030733,-0.49658203,-0.30322266,-0.81689453,-0.061035156,0.061035156,0.0,0.0,0.0,0.0,-159.30725,29.355469,167.34375
1765377030745,-0.49658203,-0.30322266,-0.81689453,-0.061035156,0.061035156,0.0,0.0,0.0,0.0,-159.29077,29.371948,167.31628
1765377030833,-0.49560547,-0.30371094,-0.8173828,0.0,0.061035156,0.0,0.0,0.0,0.0,-159.29077,29.371948,167.31628
1765377030844,-0.49560547,-0.30371094,-0.8173828,0.0,0.061035156,0.0,0.0,0.0,0.0,-159.27979,29.366455,167.25586
1765377030933,-0.49560547,-0.3046875,-0.81640625,0.0,-0.12207031,0.0,0.0,0.0,0.0,-159.27979,29.366455,167.25586
1765377030945,-0.49560547,-0.3046875,-0.81640625,0.0,-0.12207031,0.0,0.0,0.0,0.0,-159.2688,29.371948,167.20642
1765377031032,-0.49560547,-0.30517578,-0.8203125,0.0,0.0,0.0,0.0,0.0,0.0,-159.2688,29.371948,167.20642
1765377031044,-0.49560547,-0.30517578,-0.8203125,0.0,0.0,0.0,0.0,0.0,0.0,-159.25781,29.377441,167.15149
1765377031132,-0.4951172,-0.30615234,-0.81933594,0.0,0.4272461,0.0,0.0,0.0,0.0,-159.25781,29.377441,167.15149
1765377031144,-0.4951172,-0.30615234,-0.81933594,0.0,0.4272461,0.0,0.0,0.0,0.0,-159.25781,29.371948,167.10205
1765377031232,-0.4975586,-0.30273438,-0.8208008,0.12207031,0.0,0.0,0.0,0.0,0.0,-159.25781,29.371948,167.10205
1765377031243,-0.4975586,-0.30273438,-0.8208008,0.12207031,0.0,0.0,0.0,0.0,0.0,-159.25781,29.333496,167.03613
1765377031332,-0.49609375,-0.30273438,-0.81689453,-0.061035156,0.24414062,0.0,0.0,0.0,0.0,-159.25781,29.333496,167.03613
1765377031343,-0.49609375,-0.30273438,-0.81689453,-0.061035156,0.24414062,0.0,0.0,0.0,0.0,-159.22485,29.360962,166.99768
1765377031431,-0.49658203,-0.30517578,-0.81640625,0.0,-0.36621094,0.0,0.0,0.0,0.0,-159.22485,29.360962,166.99768
1765377031443,-0.49658203,-0.30517578,-0.81640625,0.0,-0.36621094,0.0,0.0,0.0,0.0,-159.21387,29.371948,166.94275
1765377031531,-0.49609375,-0.30517578,-0.81640625,0.0,0.061035156,0.0,0.0,0.0,0.0,-159.21387,29.371948,166.94275
1765377031543,-0.49609375,-0.30517578,-0.81640625,0.0,0.061035156,0.0,0.0,0.0,0.0,-159.20837,29.382935,166.89331
1765377031631,-0.4970703,-0.30566406,-0.81640625,0.0,0.0,0.0,0.0,0.0,0.0,-159.20837,29.382935,166.89331
1765377031642,-0.4970703,-0.30566406,-0.81640625,0.0,0.0,0.0,0.0,0.0,0.0,-159.19739,29.377441,166.84937
1765377031730,-0.4970703,-0.30566406,-0.81640625,0.0,-0.12207031,0.0,0.0,0.0,0.0,-159.19739,29.377441,166.84937
1765377031742,-0.4970703,-0.30566406,-0.81640625,0.0,-0.12207031,0.0,0.0,0.0,0.0,-159.18091,29.388428,166.8164
1765377031830,-0.49658203,-0.30517578,-0.81689453,0.0,-0.18310547,0.0,0.0,0.0,0.0,-159.18091,29.388428,166.8164
1765377031842,-0.49658203,-0.30517578,-0.81689453,0.0,-0.18310547,0.0,0.0,0.0,0.0,-159.17542,29.39392,166.79443
1765377031930,-0.4970703,-0.30664062,-0.8173828,0.12207031,0.12207031,0.0,0.0,0.0,0.0,-159.17542,29.39392,166.79443
1765377031942,-0.4970703,-0.30664062,-0.8173828,0.12207031,0.12207031,0.0,0.0,0.0,0.0,-159.18091,29.377441,166.76147
1765377032030,-0.49658203,-0.3071289,-0.8198242,0.24414062,-0.5493164,0.0,0.0,0.0,0.0,-159.18091,29.377441,166.76147
1765377032041,-0.49658203,-0.3071289,-0.8198242,0.24414062,-0.5493164,0.0,0.0,0.0,0.0,-159.17542,29.355469,166.70654
1765377032129,-0.49609375,-0.3046875,-0.8183594,-0.12207031,0.18310547,0.0,0.0,0.0,0.0,-159.17542,29.355469,166.70654
1765377032141,-0.49609375,-0.3046875,-0.8183594,-0.12207031,0.18310547,0.0,0.0,0.0,0.0,-159.15344,29.371948,166.68457
1765377032229,-0.4970703,-0.30517578,-0.81689453,-0.18310547,-0.30517578,0.0,0.0,0.0,0.0,-159.15344,29.371948,166.68457
1765377032241,-0.4970703,-0.30517578,-0.81689453,-0.18310547,-0.30517578,0.0,0.0,0.0,0.0,-159.15344,29.382935,166.6571
1765377032329,-0.49658203,-0.30566406,-0.8154297,-0.061035156,0.061035156,0.0,0.0,0.0,0.0,-159.15344,29.382935,166.6571
1765377032340,-0.49658203,-0.30566406,-0.8154297,-0.061035156,0.061035156,0.0,0.0,0.0,0.0,-159.14795,29.388428,166.62964
1765377032429,-0.49560547,-0.30566406,-0.81640625,0.0,0.0,0.0,0.0,0.0,0.0,-159.14795,29.388428,166.62964
1765377032440,-0.49560547,-0.30566406,-0.81640625,0.0,0.0,0.0,0.0,0.0,0.0,-159.13696,29.382935,166.60767
1765377032529,-0.49658203,-0.30517578,-0.8154297,-0.12207031,-0.12207031,0.0,0.0,0.0,0.0,-159.13696,29.382935,166.60767
1765377032540,-0.49658203,-0.30517578,-0.8154297,-0.12207031,-0.12207031,0.0,0.0,0.0,0.0,-159.13147,29.39392,166.5802
1765377032628,-0.49609375,-0.30566406,-0.8144531,-0.061035156,-0.061035156,0.0,0.0,0.0,0.0,-159.13147,29.39392,166.5802
1765377032640,-0.49609375,-0.30566406,-0.8144531,-0.061035156,-0.061035156,0.0,0.0,0.0,0.0,-159.13147,29.399414,166.55823
1765377032728,-0.4946289,-0.3022461,-0.8105469,0.0,0.18310547,0.0,0.0,0.0,0.0,-159.13147,29.399414,166.55823
1765377032740,-0.4946289,-0.3022461,-0.8105469,0.0,0.18310547,0.0,0.0,0.0,0.0,-159.13696,29.377441,166.54175
1765377032828,-0.49414062,-0.30908203,-0.8149414,0.24414062,-0.5493164,0.0,0.0,0.0,0.0,-159.13696,29.377441,166.54175
1765377032839,-0.49414062,-0.30908203,-0.8149414,0.24414062,-0.5493164,0.0,0.0,0.0,0.0,-159.12598,29.377441,166.53076
1765377032927,-0.49609375,-0.30615234,-0.8173828,-0.061035156,-0.061035156,0.0,0.0,0.0,0.0,-159.12598,29.377441,166.53076
1765377032939,-0.49609375,-0.30615234,-0.8173828,-0.061035156,-0.061035156,0.0,0.0,0.0,0.0,-159.11499,29.371948,166.51978
1765377033027,-0.4946289,-0.30859375,-0.81347656,-0.061035156,-0.18310547,0.0,0.0,0.0,0.0,-159.11499,29.371948,166.51978
1765377033038,-0.4946289,-0.30859375,-0.81347656,-0.061035156,-0.18310547,0.0,0.0,0.0,0.0,-159.09851,29.399414,166.53076
1765377033127,-0.4970703,-0.30664062,-0.8173828,0.0,0.0,0.0,0.0,0.0,0.0,-159.09851,29.399414,166.53076
1765377033138,-0.4970703,-0.30664062,-0.8173828,0.0,0.0,0.0,0.0,0.0,0.0,-159.09302,29.399414,166.53076
1765377033226,-0.49609375,-0.30664062,-0.81591797,0.0,0.0,0.0,0.0,0.0,0.0,-159.09302,29.399414,166.53076
1765377033238,-0.49609375,-0.30664062,-0.81591797,0.0,0.0,0.0,0.0,0.0,0.0,-159.08752,29.39392,166.53625
1765377033326,-0.49658203,-0.30664062,-0.8149414,-0.12207031,-0.061035156,0.0,0.0,0.0,0.0,-159.08752,29.39392,166.53625
1765377033338,-0.49658203,-0.30664062,-0.8149414,-0.12207031,-0.061035156,0.0,0.0,0.0,0.0,-159.08203,29.404907,166.54175
1765377033426,-0.49658203,-0.30517578,-0.81396484,-0.061035156,0.0,0.0,0.0,0.0,0.0,-159.08203,29.404907,166.54175
1765377033437,-0.49658203,-0.30517578,-0.81396484,-0.061035156,0.0,0.0,0.0,0.0,0.0,-159.08203,29.404907,166.54175
1765377033526,-0.4951172,-0.30419922,-0.8120117,-0.061035156,0.18310547,0.0,0.0,0.0,0.0,-159.08203,29.404907,166.54175
1765377033537,-0.4951172,-0.30419922,-0.8120117,-0.061035156,0.18310547,0.0,0.0,0.0,0.0,-159.08203,29.377441,166.53625
1765377033625,-0.4946289,-0.3095703,-0.8154297,0.30517578,-0.5493164,0.0,0.0,0.0,0.0,-159.08203,29.377441,166.53625
1765377033637,-0.4946289,-0.3095703,-0.8154297,0.30517578,-0.5493164,0.0,0.0,0.0,0.0,-159.06555,29.382935,166.53625
1765377033725,-0.49658203,-0.3071289,-0.81689453,-0.061035156,-0.061035156,0.0,0.0,0.0,0.0,-159.06555,29.382935,166.53625
1765377033737,-0.49658203,-0.3071289,-0.81689453,-0.061035156,-0.061035156,0.0,0.0,0.0,0.0,-159.06006,29.371948,166.53625
1765377033825,-0.49414062,-0.30859375,-0.81396484,0.0,-0.18310547,0.0,0.0,0.0,0.0,-159.06006,29.371948,166.53625
1765377033836,-0.49414062,-0.30859375,-0.81396484,0.0,-0.18310547,0.0,0.0,0.0,0.0,-159.04907,29.399414,166.54724
1765377033924,-0.4970703,-0.3076172,-0.81640625,0.0,0.0,0.0,0.0,0.0,0.0,-159.04907,29.399414,166.54724
1765377033936,-0.4970703,-0.3076172,-0.81640625,0.0,0.0,0.0,0.0,0.0,0.0,-159.04358,29.39392,166.54724
1765377034024,-0.49658203,-0.30664062,-0.8154297,0.0,-0.061035156,0.0,0.0,0.0,0.0,-159.04358,29.39392,166.54724
1765377034036,-0.49658203,-0.30664062,-0.8154297,0.0,-0.061035156,0.0,0.0,0.0,0.0,-159.03809,29.39392,166.54724
1765377034124,-0.49609375,-0.30664062,-0.81396484,-0.24414062,0.0,0.0,0.0,0.0,0.0,-159.03809,29.39392,166.54724
1765377034135,-0.49609375,-0.30664062,-0.81396484,-0.24414062,0.0,0.0,0.0,0.0,0.0,-159.0326,29.399414,166.55273
1765377034224,-0.49658203,-0.30664062,-0.81347656,-0.24414062,0.18310547,0.0,0.0,0.0,0.0,-159.0326,29.399414,166.55273
1765377034235,-0.49658203,-0.30664062,-0.81347656,-0.24414062,0.18310547,0.0,0.0,0.0,0.0,-159.03809,29.39392,166.55273
1765377034323,-0.49560547,-0.30615234,-0.81347656,-0.12207031,0.61035156,0.0,0.0,0.0,0.0,-159.03809,29.39392,166.55273
1765377034335,-0.49560547,-0.30615234,-0.81347656,-0.12207031,0.61035156,0.0,0.0,0.0,0.0,-159.04358,29.366455,166.54175
1765377034423,-0.4946289,-0.3071289,-0.8129883,0.0,-0.12207031,0.0,0.0,0.0,0.0,-159.04358,29.366455,166.54175
1765377034435,-0.4946289,-0.3071289,-0.8129883,0.0,-0.12207031,0.0,0.0,0.0,0.0,-159.0271,29.382935,166.54724
1765377034523,-0.49658203,-0.30615234,-0.81591797,-0.061035156,-0.12207031,0.0,0.0,0.0,0.0,-159.0271,29.382935,166.54724
1765377034534,-0.49658203,-0.30615234,-0.81591797,-0.061035156,-0.12207031,0.0,0.0,0.0,0.0,-159.0326,29.377441,166.54724
1765377034622,-0.4951172,-0.3071289,-0.8125,-0.12207031,0.12207031,0.0,0.0,0.0,0.0,-159.0326,29.377441,166.54724
1765377034635,-0.4951172,-0.3071289,-0.8125,-0.12207031,0.12207031,0.0,0.0,0.0,0.0,-159.0271,29.399414,166.55823
1765377034722,-0.4975586,-0.30664062,-0.8149414,0.0,0.0,0.0,0.0,0.0,0.0,-159.0271,29.399414,166.55823
1765377034734,-0.4975586,-0.30664062,-0.8149414,0.0,0.0,0.0,0.0,0.0,0.0,-159.0216,29.39392,166.55823
1765377034822,-0.4970703,-0.30664062,-0.8144531,-0.061035156,-0.061035156,0.0,0.0,0.0,0.0,-159.0216,29.39392,166.55823
1765377034834,-0.4970703,-0.30664062,-0.8144531,-0.061035156,-0.061035156,0.0,0.0,0.0,0.0,-159.0216,29.399414,166.55823
1765377034922,-0.49609375,-0.3076172,-0.81591797,-0.18310547,0.061035156,0.0,0.0,0.0,0.0,-159.0216,29.399414,166.55823
1765377034933,-0.49609375,-0.3076172,-0.81591797,-0.18310547,0.061035156,0.0,0.0,0.0,0.0,-159.0271,29.404907,166.56372
1765377035021,-0.49609375,-0.30664062,-0.8154297,-0.4272461,0.61035156,0.0,0.0,0.0,0.0,-159.0271,29.404907,166.56372
1765377035033,-0.49609375,-0.30664062,-0.8154297,-0.4272461,0.61035156,0.0,0.0,0.0,0.0,-159.04358,29.388428,166.55823
1765377035121,-0.49804688,-0.3046875,-0.81884766,-0.12207031,0.30517578,0.0,0.0,0.0,0.0,-159.04358,29.388428,166.55823
1765377035133,-0.49804688,-0.3046875,-0.81884766,-0.12207031,0.30517578,0.0,0.0,0.0,0.0,-159.06006,29.349976,166.54175
1765377035221,-0.4970703,-0.30322266,-0.81591797,-0.18310547,0.48828125,0.0,0.0,0.0,0.0,-159.06006,29.349976,166.54175
1765377035232,-0.4970703,-0.30322266,-0.81591797,-0.18310547,0.48828125,0.0,0.0,0.0,0.0,-159.05457,29.360962,166.54175
1765377035321,-0.49658203,-0.3071289,-0.81689453,0.0,-0.12207031,0.0,0.0,0.0,0.0,-159.05457,29.360962,166.54175
1765377035333,-0.49658203,-0.3071289,-0.81689453,0.0,-0.12207031,0.0,0.0,0.0,0.0,-159.06006,29.355469,166.54175
1765377035420,-0.4975586,-0.30517578,-0.81689453,0.0,0.061035156,0.0,0.0,0.0,0.0,-159.06006,29.355469,166.54175
1765377035432,-0.4975586,-0.30517578,-0.81689453,0.0,0.061035156,0.0,0.0,0.0,0.0,-159.05457,29.360962,166.54724
1765377035520,-0.49658203,-0.30615234,-0.81640625,0.0,0.0,0.0,0.0,0.0,0.0,-159.05457,29.360962,166.54724
1765377035532,-0.49658203,-0.30615234,-0.81640625,0.0,0.0,0.0,0.0,0.0,0.0,-159.04358,29.366455,166.54724
1765377035620,-0.49609375,-0.30615234,-0.81640625,0.0,-0.18310547,0.0,0.0,0.0,0.0,-159.04358,29.366455,166.54724
1765377035631,-0.49609375,-0.30615234,-0.81640625,0.0,-0.18310547,0.0,0.0,0.0,0.0,-159.03809,29.371948,166.54724
1765377035719,-0.49658203,-0.30664062,-0.8149414,-0.061035156,-0.12207031,0.0,0.0,0.0,0.0,-159.03809,29.371948,166.54724
1765377035731,-0.49658203,-0.30664062,-0.8149414,-0.061035156,-0.12207031,0.0,0.0,0.0,0.0,-159.03809,29.382935,166.55273
1765377035819,-0.49609375,-0.3046875,-0.8149414,0.0,0.0,0.0,0.0,0.0,0.0,-159.03809,29.382935,166.55273
1765377035831,-0.49609375,-0.3046875,-0.8149414,0.0,0.0,0.0,0.0,0.0,0.0,-159.04358,29.366455,166.54724
1765377035919,-0.4951172,-0.3100586,-0.81689453,0.24414062,-0.5493164,0.0,0.0,0.0,0.0,-159.04358,29.366455,166.54724
1765377035930,-0.4951172,-0.3100586,-0.81689453,0.24414062,-0.5493164,0.0,0.0,0.0,0.0,-159.0326,29.360962,166.54175
1765377036019,-0.49658203,-0.3076172,-0.8173828,0.0,0.0,0.0,0.0,0.0,0.0,-159.0326,29.360962,166.54175
1765377036030,-0.49658203,-0.3076172,-0.8173828,0.0,0.0,0.0,0.0,0.0,0.0,-159.0216,29.360962,166.54175
1765377036118,-0.49609375,-0.30859375,-0.8144531,-0.18310547,-0.36621094,0.0,0.0,0.0,0.0,-159.0216,29.360962,166.54175
1765377036130,-0.49609375,-0.30859375,-0.8144531,-0.18310547,-0.36621094,0.0,0.0,0.0,0.0,-159.01611,29.388428,166.55273
1765377036218,-0.4970703,-0.3076172,-0.81591797,0.0,0.0,0.0,0.0,0.0,0.0,-159.01611,29.388428,166.55273
1765377036230,-0.4970703,-0.3076172,-0.81591797,0.0,0.0,0.0,0.0,0.0,0.0,-159.01062,29.388428,166.55273
1765377036318,-0.49609375,-0.30664062,-0.8149414,0.0,-0.12207031,0.0,0.0,0.0,0.0,-159.01062,29.388428,166.55273
