timestamp,accX,accY,accZ,gyroX,gyroY,gyroZ,magX,magY,magZ,roll,pitch,yaw
1766903030131,-0.9711914,0.171875,-0.18310547,0.36621094,1.0375977,0.0,0.0,0.0,0.0,137.74109,75.10803,-150.30396
1766903030143,-0.9711914,0.171875,-0.18310547,0.36621094,1.0375977,0.0,0.0,0.0,0.0,137.85645,75.08057,-150.1831
1766903030232,-0.9746094,0.16992188,-0.18847656,1.4648438,0.8544922,0.0,0.0,0.0,0.0,137.85645,75.08057,-150.1831
1766903030242,-0.9746094,0.16992188,-0.18847656,1.4648438,0.8544922,0.0,0.0,0.0,0.0,138.09265,75.025635,-149.96887
1766903030331,-0.97265625,0.1772461,-0.18359375,0.8544922,2.9296875,0.5493164,0.0,0.0,0.0,138.09265,75.025635,-149.96887
1766903030342,-0.97265625,0.1772461,-0.18359375,0.8544922,2.9296875,0.5493164,0.0,0.0,0.0,138.58154,74.88281,-149.52942
1766903030431,-0.9633789,0.18945312,-0.16552734,-2.5024414,-4.5166016,-0.12207031,0.0,0.0,0.0,138.58154,74.88281,-149.52942
1766903030442,-0.9633789,0.18945312,-0.16552734,-2.5024414,-4.5166016,-0.12207031,0.0,0.0,0.0,137.98279,74.95422,-150.01282
1766903030530,-0.9873047,0.16259766,-0.20654297,-4.4555664,-8.605957,3.6621094,0.0,0.0,0.0,137.98279,74.95422,-150.01282
1766903030542,-0.9873047,0.16259766,-0.20654297,-4.4555664,-8.605957,3.6621094,0.0,0.0,0.0,135.30762,75.28931,-152.40234
1766903030630,-0.9658203,0.18603516,-0.1484375,1.5258789,-1.4648438,-0.36621094,0.0,0.0,0.0,135.30762,75.28931,-152.40234
1766903030642,-0.9658203,0.18603516,-0.1484375,1.5258789,-1.4648438,-0.36621094,0.0,0.0,0.0,133.61572,75.48157,-154.30298
1766903030730,-0.9707031,0.17285156,-0.17480469,3.0517578,2.4414062,-0.79345703,0.0,0.0,0.0,133.61572,75.48157,-154.30298
1766903030741,-0.9707031,0.17285156,-0.17480469,3.0517578,2.4414062,-0.79345703,0.0,0.0,0.0,133.797,75.547485,-154.27002
1766903030829,-0.9741211,0.17675781,-0.17822266,3.7231445,4.760742,-0.5493164,0.0,0.0,0.0,133.797,75.547485,-154.27002
1766903030841,-0.9741211,0.17675781,-0.17822266,3.7231445,4.760742,-0.5493164,0.0,0.0,0.0,135.2472,75.355225,-153.09998
1766903030929,-0.9760742,0.17578125,-0.17626953,4.1503906,-1.4038086,-0.7324219,0.0,0.0,0.0,135.2472,75.355225,-153.09998
1766903030940,-0.9760742,0.17578125,-0.17626953,4.1503906,-1.4038086,-0.7324219,0.0,0.0,0.0,136.203,75.267334,-152.42432
1766903031029,-0.9682617,0.1665039,-0.18115234,6.225586,4.8217773,-1.7700195,0.0,0.0,0.0,136.203,75.267334,-152.42432
1766903031041,-0.9682617,0.1665039,-0.18115234,6.225586,4.8217773,-1.7700195,0.0,0.0,0.0,137.55432,75.20691,-151.38611
1766903031129,-0.9716797,0.17089844,-0.18847656,0.0,4.4555664,0.6713867,0.0,0.0,0.0,137.55432,75.20691,-151.38611
1766903031140,-0.9716797,0.17089844,-0.18847656,0.0,4.4555664,0.6713867,0.0,0.0,0.0,138.74634,74.95972,-150.32043
1766903031228,-0.9663086,0.17138672,-0.19238281,-0.24414062,2.6245117,1.0375977,0.0,0.0,0.0,138.74634,74.95972,-150.32043
1766903031240,-0.9663086,0.17138672,-0.19238281,-0.24414062,2.6245117,1.0375977,0.0,0.0,0.0,138.7738,74.77295,-150.1831
1766903031328,-0.9711914,0.16748047,-0.19482422,-0.79345703,2.8076172,1.2207031,0.0,0.0,0.0,138.7738,74.77295,-150.1831
1766903031339,-0.9711914,0.16748047,-0.19482422,-0.79345703,2.8076172,1.2207031,0.0,0.0,0.0,138.87817,74.55322,-149.96887
1766903031428,-0.9638672,0.171875,-0.19824219,-2.0141602,1.0986328,1.3427734,0.0,0.0,0.0,138.87817,74.55322,-149.96887
1766903031439,-0.9638672,0.171875,-0.19824219,-2.0141602,1.0986328,1.3427734,0.0,0.0,0.0,138.67493,74.399414,-149.96887
1766903031527,-0.96435547,0.17333984,-0.20019531,-3.0517578,-0.12207031,1.0986328,0.0,0.0,0.0,138.67493,74.399414,-149.96887
1766903031539,-0.96435547,0.17333984,-0.20019531,-3.0517578,-0.12207031,1.0986328,0.0,0.0,0.0,138.16406,74.32251,-150.2655
1766903031627,-0.97216797,0.18017578,-0.19042969,-0.8544922,-1.7700195,0.8544922,0.0,0.0,0.0,138.16406,74.32251,-150.2655
1766903031639,-0.97216797,0.18017578,-0.19042969,-0.8544922,-1.7700195,0.8544922,0.0,0.0,0.0,137.67517,74.32251,-150.63354
1766903031727,-0.9692383,0.18066406,-0.19335938,-0.9765625,-2.8686523,0.48828125,0.0,0.0,0.0,137.67517,74.32251,-150.63354
1766903031738,-0.9692383,0.18066406,-0.19335938,-0.9765625,-2.8686523,0.48828125,0.0,0.0,0.0,136.98303,74.40491,-151.26526
1766903031827,-0.9794922,0.1850586,-0.20458984,0.5493164,-2.380371,0.4272461,0.0,0.0,0.0,136.98303,74.40491,-151.26526
1766903031838,-0.9794922,0.1850586,-0.20458984,0.5493164,-2.380371,0.4272461,0.0,0.0,0.0,136.47766,74.50928,-151.80359
1766903031926,-0.96533203,0.18310547,-0.1953125,4.272461,0.5493164,0.0,0.0,0.0,0.0,136.47766,74.50928,-151.80359
1766903031938,-0.96533203,0.18310547,-0.1953125,4.272461,0.5493164,0.0,0.0,0.0,0.0,136.86218,74.470825,-151.75415
1766903032026,-0.9667969,0.17919922,-0.18847656,2.2583008,-0.8544922,0.24414062,0.0,0.0,0.0,136.86218,74.470825,-151.75415
1766903032037,-0.9667969,0.17919922,-0.18847656,2.2583008,-0.8544922,0.24414062,0.0,0.0,0.0,137.13684,74.45984,-151.78711
1766903032126,-0.9682617,0.17236328,-0.21826172,-2.0141602,-0.4272461,0.91552734,0.0,0.0,0.0,137.13684,74.45984,-151.78711
1766903032137,-0.9682617,0.17236328,-0.21826172,-2.0141602,-0.4272461,0.91552734,0.0,0.0,0.0,136.48315,74.53674,-152.46826
1766903032225,-0.9736328,0.17675781,-0.171875,-2.0751953,-2.8076172,1.2817383,0.0,0.0,0.0,136.48315,74.53674,-152.46826
1766903032237,-0.9736328,0.17675781,-0.171875,-2.0751953,-2.8076172,1.2817383,0.0,0.0,0.0,136.69739,74.45984,-152.42981
1766903032325,-0.96191406,0.17773438,-0.1796875,1.159668,-0.6713867,0.61035156,0.0,0.0,0.0,136.69739,74.45984,-152.42981
1766903032337,-0.96191406,0.17773438,-0.1796875,1.159668,-0.6713867,0.61035156,0.0,0.0,0.0,135.99426,74.487305,-153.0011
1766903032425,-0.9707031,0.1796875,-0.19042969,-2.746582,1.3427734,0.5493164,0.0,0.0,0.0,135.99426,74.487305,-153.0011
1766903032436,-0.9707031,0.1796875,-0.19042969,-2.746582,1.3427734,0.5493164,0.0,0.0,0.0,136.26343,74.37744,-152.5946
1766903032524,-0.9682617,0.18261719,-0.18310547,-2.6245117,0.36621094,-0.18310547,0.0,0.0,0.0,136.26343,74.37744,-152.5946
1766903032536,-0.9682617,0.18261719,-0.18310547,-2.6245117,0.36621094,-0.18310547,0.0,0.0,0.0,136.45569,74.30603,-152.22107
1766903032624,-0.9580078,0.1796875,-0.16845703,-2.5634766,-0.4272461,-0.91552734,0.0,0.0,0.0,136.45569,74.30603,-152.22107
1766903032636,-0.9580078,0.1796875,-0.16845703,-2.5634766,-0.4272461,-0.91552734,0.0,0.0,0.0,136.99951,74.28955,-151.45752
1766903032724,-0.96972656,0.16113281,-0.19677734,-6.1035156,0.61035156,1.8310547,0.0,0.0,0.0,136.99951,74.28955,-151.45752
1766903032736,-0.96972656,0.16113281,-0.19677734,-6.1035156,0.61035156,1.8310547,0.0,0.0,0.0,135.49438,74.44885,-152.39136
1766903032824,-0.9628906,0.21142578,-0.19580078,-5.3710938,1.8310547,2.2583008,0.0,0.0,0.0,135.49438,74.44885,-152.39136
1766903032835,-0.9628906,0.21142578,-0.19580078,-5.3710938,1.8310547,2.2583008,0.0,0.0,0.0,134.62646,74.157715,-152.71545
1766903032923,-0.9550781,0.20703125,-0.20019531,3.7841797,2.5024414,-0.91552734,0.0,0.0,0.0,134.62646,74.157715,-152.71545
1766903032935,-0.9550781,0.20703125,-0.20019531,3.7841797,2.5024414,-0.91552734,0.0,0.0,0.0,135.14282,74.036865,-152.276
1766903033023,-0.96240234,0.20410156,-0.19384766,5.493164,1.6479492,-0.061035156,0.0,0.0,0.0,135.14282,74.036865,-152.276
1766903033035,-0.96240234,0.20410156,-0.19384766,5.493164,1.6479492,-0.061035156,0.0,0.0,0.0,135.74158,73.93799,-151.99036
1766903033123,-0.9638672,0.19433594,-0.20947266,8.178711,0.24414062,-1.7089844,0.0,0.0,0.0,135.74158,73.93799,-151.99036
1766903033134,-0.9638672,0.19433594,-0.20947266,8.178711,0.24414062,-1.7089844,0.0,0.0,0.0,136.19202,73.97644,-152.1222
1766903033222,-0.9736328,0.17480469,-0.19628906,7.2021484,-1.0375977,-1.159668,0.0,0.0,0.0,136.19202,73.97644,-152.1222
1766903033234,-0.9736328,0.17480469,-0.19628906,7.2021484,-1.0375977,-1.159668,0.0,0.0,0.0,137.807,74.05884,-151.41907
1766903033322,-0.96728516,0.1694336,-0.1953125,2.1362305,-1.5869141,0.61035156,0.0,0.0,0.0,137.807,74.05884,-151.41907
1766903033334,-0.96728516,0.1694336,-0.1953125,2.1362305,-1.5869141,0.61035156,0.0,0.0,0.0,137.807,74.190674,-151.8805
1766903033423,-0.9707031,0.17529297,-0.19824219,-0.061035156,-1.2207031,0.12207031,0.0,0.0,0.0,137.807,74.190674,-151.8805
1766903033433,-0.9707031,0.17529297,-0.19824219,-0.061035156,-1.2207031,0.12207031,0.0,0.0,0.0,137.5763,74.30603,-152.36389
1766903033522,-0.96875,0.17822266,-0.19628906,-4.272461,1.8310547,0.61035156,0.0,0.0,0.0,137.5763,74.30603,-152.36389
1766903033533,-0.96875,0.17822266,-0.19628906,-4.272461,1.8310547,0.61035156,0.0,0.0,0.0,137.3291,74.26758,-152.45178
1766903033621,-0.9667969,0.17773438,-0.20800781,-5.79834,3.7841797,0.4272461,0.0,0.0,0.0,137.3291,74.26758,-152.45178
1766903033633,-0.9667969,0.17773438,-0.20800781,-5.79834,3.7841797,0.4272461,0.0,0.0,0.0,137.40051,74.03137,-151.875
1766903033721,-0.96240234,0.19921875,-0.20507812,-8.666992,1.5869141,1.2207031,0.0,0.0,0.0,137.40051,74.03137,-151.875
1766903033732,-0.96240234,0.19921875,-0.20507812,-8.666992,1.5869141,1.2207031,0.0,0.0,0.0,137.72461,73.71826,-150.85876
1766903033821,-0.9589844,0.19677734,-0.1796875,-0.8544922,-6.164551,1.4038086,0.0,0.0,0.0,137.72461,73.71826,-150.85876
1766903033832,-0.9589844,0.19677734,-0.1796875,-0.8544922,-6.164551,1.4038086,0.0,0.0,0.0,136.37329,73.71826,-151.70471
1766903033920,-0.96777344,0.19189453,-0.19921875,3.112793,-2.1362305,0.061035156,0.0,0.0,0.0,136.37329,73.71826,-151.70471
1766903033932,-0.96777344,0.19189453,-0.19921875,3.112793,-2.1362305,0.061035156,0.0,0.0,0.0,135.02197,74.069824,-153.24829
1766903034020,-0.96240234,0.20898438,-0.19433594,-2.380371,0.0,2.746582,0.0,0.0,0.0,135.02197,74.069824,-153.24829
1766903034032,-0.96240234,0.20898438,-0.19433594,-2.380371,0.0,2.746582,0.0,0.0,0.0,134.89014,73.94348,-153.53394
1766903034120,-0.9746094,0.19824219,-0.15722656,2.0141602,-3.0517578,2.5634766,0.0,0.0,0.0,134.89014,73.94348,-153.53394
1766903034133,-0.9746094,0.19824219,-0.15722656,2.0141602,-3.0517578,2.5634766,0.0,0.0,0.0,133.45642,73.828125,-154.84131
1766903034221,-0.9628906,0.19238281,-0.19482422,3.4179688,4.8217773,-1.159668,0.0,0.0,0.0,133.45642,73.828125,-154.84131
1766903034231,-0.9628906,0.19238281,-0.19482422,3.4179688,4.8217773,-1.159668,0.0,0.0,0.0,133.19824,73.899536,-155.38513
1766903034322,-0.9716797,0.23583984,-0.18603516,1.7089844,1.2817383,-1.5258789,0.0,0.0,0.0,133.19824,73.899536,-155.38513
1766903034331,-0.9716797,0.23583984,-0.18603516,1.7089844,1.2817383,-1.5258789,0.0,0.0,0.0,134.69238,73.723755,-154.06677
1766903034419,-0.96240234,0.19091797,-0.1899414,0.6713867,0.6713867,-3.2348633,0.0,0.0,0.0,134.69238,73.723755,-154.06677
1766903034431,-0.96240234,0.19091797,-0.1899414,0.6713867,0.6713867,-3.2348633,0.0,0.0,0.0,135.10437,73.8501,-153.57239
1766903034519,-0.97216797,0.17236328,-0.17675781,-4.3945312,1.3427734,-2.1972656,0.0,0.0,0.0,135.10437,73.8501,-153.57239
1766903034530,-0.97216797,0.17236328,-0.17675781,-4.3945312,1.3427734,-2.1972656,0.0,0.0,0.0,136.22498,73.95996,-152.23755
1766903034618,-0.9692383,0.18945312,-0.20410156,-9.399414,0.30517578,-0.061035156,0.0,0.0,0.0,136.22498,73.95996,-152.23755
1766903034630,-0.9692383,0.18945312,-0.20410156,-9.399414,0.30517578,-0.061035156,0.0,0.0,0.0,135.28015,74.10828,-152.25952
1766903034718,-0.96777344,0.19628906,-0.17041016,-8.7890625,2.319336,-0.7324219,0.0,0.0,0.0,135.28015,74.10828,-152.25952
1766903034730,-0.96777344,0.19628906,-0.17041016,-8.7890625,2.319336,-0.7324219,0.0,0.0,0.0,135.51086,73.93799,-151.24878
1766903034818,-0.9785156,0.20410156,-0.17871094,-13.48877,-9.399414,1.3427734,0.0,0.0,0.0,135.51086,73.93799,-151.24878
1766903034829,-0.9785156,0.20410156,-0.17871094,-13.48877,-9.399414,1.3427734,0.0,0.0,0.0,133.5498,74.1687,-152.14966
1766903034918,-0.97265625,0.1928711,-0.20263672,-8.178711,-15.075684,3.112793,0.0,0.0,0.0,133.5498,74.1687,-152.14966
1766903034929,-0.97265625,0.1928711,-0.20263672,-8.178711,-15.075684,3.112793,0.0,0.0,0.0,129.35852,74.71802,-155.58289
1766903035017,-0.96484375,0.21533203,-0.09863281,2.8076172,2.0751953,-2.1362305,0.0,0.0,0.0,129.35852,74.71802,-155.58289
1766903035029,-0.96484375,0.21533203,-0.09863281,2.8076172,2.0751953,-2.1362305,0.0,0.0,0.0,126.903076,75.05859,-158.07129
1766903035117,-0.9550781,0.20410156,-0.19140625,7.507324,8.361816,-1.953125,0.0,0.0,0.0,126.903076,75.05859,-158.07129
1766903035129,-0.9550781,0.20410156,-0.19140625,7.507324,8.361816,-1.953125,0.0,0.0,0.0,128.67737,74.98169,-156.47827
1766903035217,-0.97998047,0.19580078,-0.16845703,5.859375,1.2207031,-0.8544922,0.0,0.0,0.0,128.67737,74.98169,-156.47827
1766903035228,-0.97998047,0.19580078,-0.16845703,5.859375,1.2207031,-0.8544922,0.0,0.0,0.0,132.06665,74.608154,-153.83606
1766903035316,-0.9555664,0.1977539,-0.18798828,8.178711,-1.159668,-0.061035156,0.0,0.0,0.0,132.06665,74.608154,-153.83606
1766903035328,-0.9555664,0.1977539,-0.18798828,8.178711,-1.159668,-0.061035156,0.0,0.0,0.0,132.46216,74.679565,-154.02283
1766903035416,-0.97216797,0.18847656,-0.16601562,5.92041,-8.605957,1.5869141,0.0,0.0,0.0,132.46216,74.679565,-154.02283
1766903035428,-0.97216797,0.18847656,-0.16601562,5.92041,-8.605957,1.5869141,0.0,0.0,0.0,131.68762,74.91028,-155.60486
1766903035516,-0.96728516,0.1850586,-0.16308594,7.507324,-4.760742,1.0375977,0.0,0.0,0.0,131.68762,74.91028,-155.60486
1766903035528,-0.96728516,0.1850586,-0.16308594,7.507324,-4.760742,1.0375977,0.0,0.0,0.0,129.81445,75.30029,-158.27454
1766903035616,-0.9638672,0.18603516,-0.15429688,6.8359375,2.380371,0.36621094,0.0,0.0,0.0,129.81445,75.30029,-158.27454
1766903035627,-0.9638672,0.18603516,-0.15429688,6.8359375,2.380371,0.36621094,0.0,0.0,0.0,130.08911,75.28381,-158.80737
1766903035715,-0.9736328,0.18603516,-0.16796875,3.2348633,2.5024414,0.9765625,0.0,0.0,0.0,130.08911,75.28381,-158.80737
1766903035728,-0.9736328,0.18603516,-0.16796875,3.2348633,2.5024414,0.9765625,0.0,0.0,0.0,130.45166,75.17395,-158.90076
1766903035815,-0.9692383,0.18603516,-0.16894531,-0.24414062,4.5776367,1.0986328,0.0,0.0,0.0,130.45166,75.17395,-158.90076
1766903035826,-0.9692383,0.18603516,-0.16894531,-0.24414062,4.5776367,1.0986328,0.0,0.0,0.0,131.44043,74.87732,-158.0603
1766903035915,-0.97998047,0.18164062,-0.16064453,-3.479004,1.3427734,1.4038086,0.0,0.0,0.0,131.44043,74.87732,-158.0603
1766903035926,-0.97998047,0.18164062,-0.16064453,-3.479004,1.3427734,1.4038086,0.0,0.0,0.0,131.9458,74.575195,-157.34619
1766903036014,-0.9707031,0.19238281,-0.18896484,-1.4648438,4.4555664,-1.5258789,0.0,0.0,0.0,131.9458,74.575195,-157.34619
1766903036026,-0.9707031,0.19238281,-0.18896484,-1.4648438,4.4555664,-1.5258789,0.0,0.0,0.0,132.29736,74.52576,-156.6925
1766903036114,-0.9604492,0.20117188,-0.17236328,0.9765625,7.1411133,-2.1972656,0.0,0.0,0.0,132.29736,74.52576,-156.6925
1766903036126,-0.9604492,0.20117188,-0.17236328,0.9765625,7.1411133,-2.1972656,0.0,0.0,0.0,135.28015,74.13574,-153.68774
1766903036214,-0.9638672,0.19042969,-0.19628906,-0.48828125,2.8686523,-0.9765625,0.0,0.0,0.0,135.28015,74.13574,-153.68774
1766903036225,-0.9638672,0.19042969,-0.19628906,-0.48828125,2.8686523,-0.9765625,0.0,0.0,0.0,136.24146,73.95996,-152.46826
1766903036314,-0.9658203,0.19140625,-0.19238281,-3.1738281,-0.36621094,1.159668,0.0,0.0,0.0,136.24146,73.95996,-152.46826
1766903036325,-0.9658203,0.19140625,-0.19238281,-3.1738281,-0.36621094,1.159668,0.0,0.0,0.0,136.4502,73.844604,-151.97937
1766903036413,-0.9560547,0.20166016,-0.1928711,0.48828125,0.6713867,0.91552734,0.0,0.0,0.0,136.4502,73.844604,-151.97937
1766903036425,-0.9560547,0.20166016,-0.1928711,0.48828125,0.6713867,0.91552734,0.0,0.0,0.0,136.53809,73.66333,-151.7926
1766903036513,-0.9589844,0.19726562,-0.20019531,-1.4648438,-0.36621094,1.7700195,0.0,0.0,0.0,136.53809,73.66333,-151.7926
1766903036525,-0.9589844,0.19726562,-0.20019531,-1.4648438,-0.36621094,1.7700195,0.0,0.0,0.0,136.07117,73.54797,-152.14966
1766903036614,-0.9536133,0.19482422,-0.18115234,-1.7700195,-4.211426,2.5024414,0.0,0.0,0.0,136.07117,73.54797,-152.14966
1766903036624,-0.9536133,0.19482422,-0.18115234,-1.7700195,-4.211426,2.5024414,0.0,0.0,0.0,135.42297,73.498535,-152.79785
1766903036715,-0.96728516,0.20654297,-0.17675781,2.4414062,-3.4179688,1.2817383,0.0,0.0,0.0,135.42297,73.498535,-152.79785
1766903036724,-0.96728516,0.20654297,-0.17675781,2.4414062,-3.4179688,1.2817383,0.0,0.0,0.0,133.0774,73.723755,-154.96216
1766903036812,-0.9667969,0.20507812,-0.18164062,-4.0893555,-1.8920898,2.4414062,0.0,0.0,0.0,133.0774,73.723755,-154.96216
1766903036824,-0.9667969,0.20507812,-0.18164062,-4.0893555,-1.8920898,2.4414062,0.0,0.0,0.0,131.10535,73.828125,-156.79138
1766903036912,-0.9560547,0.22021484,-0.1538086,-0.12207031,-2.6245117,1.5869141,0.0,0.0,0.0,131.10535,73.828125,-156.79138
1766903036923,-0.9560547,0.22021484,-0.1538086,-0.12207031,-2.6245117,1.5869141,0.0,0.0,0.0,130.56152,73.83362,-157.44507
1766903037012,-0.96191406,0.21679688,-0.17480469,2.9907227,0.61035156,0.0,0.0,0.0,0.0,130.56152,73.83362,-157.44507
1766903037023,-0.96191406,0.21679688,-0.17480469,2.9907227,0.61035156,0.0,0.0,0.0,0.0,129.5343,73.899536,-158.49426
1766903037111,-0.96191406,0.20898438,-0.16259766,1.7700195,-3.2348633,0.18310547,0.0,0.0,0.0,129.5343,73.899536,-158.49426
1766903037123,-0.96191406,0.20898438,-0.16259766,1.7700195,-3.2348633,0.18310547,0.0,0.0,0.0,129.73755,73.932495,-158.56018
1766903037211,-0.97021484,0.21289062,-0.17138672,1.5869141,-5.065918,-0.18310547,0.0,0.0,0.0,129.73755,73.932495,-158.56018
1766903037223,-0.97021484,0.21289062,-0.17138672,1.5869141,-5.065918,-0.18310547,0.0,0.0,0.0,128.05664,74.245605,-160.33997
1766903037311,-0.96533203,0.20947266,-0.16503906,1.5258789,-2.1972656,-0.48828125,0.0,0.0,0.0,128.05664,74.245605,-160.33997
1766903037323,-0.96533203,0.20947266,-0.16503906,1.5258789,-2.1972656,-0.48828125,0.0,0.0,0.0,127.177734,74.487305,-161.42212
1766903037410,-0.9692383,0.20996094,-0.14892578,2.9296875,2.0141602,-0.24414062,0.0,0.0,0.0,127.177734,74.487305,-161.42212
1766903037423,-0.9692383,0.20996094,-0.14892578,2.9296875,2.0141602,-0.24414062,0.0,0.0,0.0,127.24365,74.54224,-161.61438
1766903037510,-0.9555664,0.20263672,-0.1508789,0.7324219,3.6010742,-0.79345703,0.0,0.0,0.0,127.24365,74.54224,-161.61438
1766903037522,-0.9555664,0.20263672,-0.1508789,0.7324219,3.6010742,-0.79345703,0.0,0.0,0.0,127.56775,74.51477,-161.31775
1766903037610,-0.9785156,0.21289062,-0.17138672,-2.5634766,0.5493164,2.2583008,0.0,0.0,0.0,127.56775,74.51477,-161.31775
1766903037622,-0.9785156,0.21289062,-0.17138672,-2.5634766,0.5493164,2.2583008,0.0,0.0,0.0,127.13379,74.503784,-161.521
1766903037710,-0.98095703,0.21826172,-0.17285156,0.48828125,-1.3427734,1.4038086,0.0,0.0,0.0,127.13379,74.503784,-161.521
1766903037721,-0.98095703,0.21826172,-0.17285156,0.48828125,-1.3427734,1.4038086,0.0,0.0,0.0,126.364746,74.349976,-162.27356
1766903037809,-0.9560547,0.21728516,-0.1508789,8.300781,1.2207031,-2.0751953,0.0,0.0,0.0,126.364746,74.349976,-162.27356
1766903037821,-0.9560547,0.21728516,-0.1508789,8.300781,1.2207031,-2.0751953,0.0,0.0,0.0,127.61719,74.2511,-161.61438
1766903037909,-0.9716797,0.20800781,-0.15283203,8.666992,-1.7700195,-1.4038086,0.0,0.0,0.0,127.61719,74.2511,-161.61438
1766903037920,-0.9716797,0.20800781,-0.15283203,8.666992,-1.7700195,-1.4038086,0.0,0.0,0.0,128.6554,74.42139,-161.33972
1766903038009,-0.9711914,0.20166016,-0.16357422,9.155273,-3.479004,-1.4648438,0.0,0.0,0.0,128.6554,74.42139,-161.33972
1766903038020,-0.9711914,0.20166016,-0.16357422,9.155273,-3.479004,-1.4648438,0.0,0.0,0.0,129.19373,74.67407,-161.5979
1766903038108,-0.984375,0.17285156,-0.14794922,2.8686523,-2.6245117,-1.159668,0.0,0.0,0.0,129.19373,74.67407,-161.5979
1766903038120,-0.984375,0.17285156,-0.14794922,2.8686523,-2.6245117,-1.159668,0.0,0.0,0.0,129.73206,74.904785,-161.80664
1766903038208,-0.9824219,0.19384766,-0.1586914,-2.0751953,-1.953125,-0.061035156,0.0,0.0,0.0,129.73206,74.904785,-161.80664
1766903038220,-0.9824219,0.19384766,-0.1586914,-2.0751953,-1.953125,-0.061035156,0.0,0.0,0.0,129.56726,75.10803,-161.97693
1766903038308,-0.9667969,0.19580078,-0.14990234,-2.4414062,1.0375977,0.36621094,0.0,0.0,0.0,129.56726,75.10803,-161.97693
1766903038319,-0.9667969,0.19580078,-0.14990234,-2.4414062,1.0375977,0.36621094,0.0,0.0,0.0,129.75952,75.10803,-161.55396
1766903038408,-0.9785156,0.203125,-0.16210938,-3.8452148,-2.746582,0.6713867,0.0,0.0,0.0,129.75952,75.10803,-161.55396
1766903038419,-0.9785156,0.203125,-0.16210938,-3.8452148,-2.746582,0.6713867,0.0,0.0,0.0,128.87512,75.15198,-162.05933
1766903038507,-0.96533203,0.17578125,-0.13378906,-1.4648438,0.0,1.5258789,0.0,0.0,0.0,128.87512,75.15198,-162.05933
1766903038520,-0.96533203,0.17578125,-0.13378906,-1.4648438,0.0,1.5258789,0.0,0.0,0.0,127.5238,75.22888,-163.24585
1766903038607,-0.9765625,0.2446289,-0.16748047,-4.8217773,-1.5258789,1.159668,0.0,0.0,0.0,127.5238,75.22888,-163.24585
1766903038619,-0.9765625,0.2446289,-0.16748047,-4.8217773,-1.5258789,1.159668,0.0,0.0,0.0,126.309814,75.34424,-163.86108
1766903038707,-0.97802734,0.18408203,-0.1538086,-5.6152344,3.112793,2.1362305,0.0,0.0,0.0,126.309814,75.34424,-163.86108
1766903038718,-0.97802734,0.18408203,-0.1538086,-5.6152344,3.112793,2.1362305,0.0,0.0,0.0,125.79346,75.10803,-164.1742
1766903038806,-0.9614258,0.22802734,-0.14257812,1.0375977,-0.12207031,0.061035156,0.0,0.0,0.0,125.79346,75.10803,-164.1742
1766903038818,-0.9614258,0.22802734,-0.14257812,1.0375977,-0.12207031,0.061035156,0.0,0.0,0.0,126.01318,75.01465,-163.85559
1766903038906,-0.9873047,0.20898438,-0.14208984,-2.9296875,-0.36621094,-0.79345703,0.0,0.0,0.0,126.01318,75.01465,-163.85559
1766903038918,-0.9873047,0.20898438,-0.14208984,-2.9296875,-0.36621094,-0.79345703,0.0,0.0,0.0,125.617676,75.03113,-164.19067
1766903039006,-0.9501953,0.20800781,-0.14355469,4.1503906,2.8076172,0.4272461,0.0,0.0,0.0,125.617676,75.03113,-164.19067
1766903039017,-0.9501953,0.20800781,-0.14355469,4.1503906,2.8076172,0.4272461,0.0,0.0,0.0,126.03516,75.009155,-163.78967
1766903039106,-0.9760742,0.1899414,-0.14550781,1.0375977,-0.48828125,-2.0141602,0.0,0.0,0.0,126.03516,75.009155,-163.78967
1766903039117,-0.9760742,0.1899414,-0.14550781,1.0375977,-0.48828125,-2.0141602,0.0,0.0,0.0,126.57898,74.9707,-163.3722
1766903039205,-0.97558594,0.20166016,-0.18310547,2.9907227,1.8310547,-4.699707,0.0,0.0,0.0,126.57898,74.9707,-163.3722
1766903039217,-0.97558594,0.20166016,-0.18310547,2.9907227,1.8310547,-4.699707,0.0,0.0,0.0,126.54602,75.371704,-163.3722
1766903039305,-0.95996094,0.18164062,-0.083984375,-8.300781,-18.066406,0.0,0.0,0.0,0.0,126.54602,75.371704,-163.3722
1766903039316,-0.95996094,0.18164062,-0.083984375,-8.300781,-18.066406,0.0,0.0,0.0,0.0,127.0459,75.75073,-163.17444
1766903039405,-0.95166016,0.18798828,-0.10107422,-5.3100586,-4.5776367,-0.9765625,0.0,0.0,0.0,127.0459,75.75073,-163.17444
1766903039416,-0.95166016,0.18798828,-0.10107422,-5.3100586,-4.5776367,-0.9765625,0.0,0.0,0.0,122.7832,76.49231,-166.8274
1766903039505,-1.0258789,0.17529297,-0.14160156,-7.9345703,-3.0517578,1.4038086,0.0,0.0,0.0,122.7832,76.49231,-166.8274
1766903039516,-1.0258789,0.17529297,-0.14160156,-7.9345703,-3.0517578,1.4038086,0.0,0.0,0.0,120.81116,76.70105,-168.31055
1766903039604,-0.9760742,0.1821289,-0.11376953,-4.211426,0.12207031,2.5024414,0.0,0.0,0.0,120.81116,76.70105,-168.31055
1766903039616,-0.9760742,0.1821289,-0.11376953,-4.211426,0.12207031,2.5024414,0.0,0.0,0.0,120.10803,76.58569,-168.88184
1766903039704,-0.9819336,0.20166016,-0.111816406,-5.9814453,-0.24414062,4.0283203,0.0,0.0,0.0,120.10803,76.58569,-168.88184
1766903039716,-0.9819336,0.20166016,-0.111816406,-5.9814453,-0.24414062,4.0283203,0.0,0.0,0.0,119.13025,76.3385,-169.56848
1766903039804,-0.9790039,0.22167969,-0.110839844,-0.9765625,-0.6713867,2.9907227,0.0,0.0,0.0,119.13025,76.3385,-169.56848
1766903039816,-0.9790039,0.22167969,-0.110839844,-0.9765625,-0.6713867,2.9907227,0.0,0.0,0.0,118.09204,76.07483,-170.41443
1766903039903,-0.98046875,0.20361328,-0.107910156,4.1503906,3.0517578,-3.8452148,0.0,0.0,0.0,118.09204,76.07483,-170.41443
1766903039915,-0.98046875,0.20361328,-0.107910156,4.1503906,3.0517578,-3.8452148,0.0,0.0,0.0,119.295044,76.085815,-169.52454
1766903040003,-0.96533203,0.20361328,-0.107421875,2.0751953,6.286621,-3.2958984,0.0,0.0,0.0,119.295044,76.085815,-169.52454
1766903040015,-0.96533203,0.20361328,-0.107421875,2.0751953,6.286621,-3.2958984,0.0,0.0,0.0,121.8988,76.173706,-167.0581
1766903040103,-0.9819336,0.17675781,-0.11279297,-0.24414062,4.1503906,-2.0141602,0.0,0.0,0.0,121.8988,76.173706,-167.0581
1766903040114,-0.9819336,0.17675781,-0.11279297,-0.24414062,4.1503906,-2.0141602,0.0,0.0,0.0,123.82141,76.19568,-165.16846
1766903040202,-0.97216797,0.18847656,-0.114746094,-2.9296875,3.8452148,-1.0986328,0.0,0.0,0.0,123.82141,76.19568,-165.16846
1766903040214,-0.97216797,0.18847656,-0.114746094,-2.9296875,3.8452148,-1.0986328,0.0,0.0,0.0,125.37598,76.16272,-163.23486
1766903040302,-0.9711914,0.19482422,-0.119628906,-2.319336,0.30517578,0.48828125,0.0,0.0,0.0,125.37598,76.16272,-163.23486
1766903040313,-0.9711914,0.19482422,-0.119628906,-2.319336,0.30517578,0.48828125,0.0,0.0,0.0,125.200195,76.102295,-162.86682
1766903040402,-0.9707031,0.19873047,-0.1303711,-0.7324219,-0.24414062,-0.24414062,0.0,0.0,0.0,125.200195,76.102295,-162.86682
1766903040413,-0.9707031,0.19873047,-0.1303711,-0.7324219,-0.24414062,-0.24414062,0.0,0.0,0.0,124.573975,76.15173,-163.14697
1766903040501,-0.984375,0.19970703,-0.14453125,-1.7089844,-1.8310547,0.9765625,0.0,0.0,0.0,124.573975,76.15173,-163.14697
1766903040513,-0.984375,0.19970703,-0.14453125,-1.7089844,-1.8310547,0.9765625,0.0,0.0,0.0,123.79944,76.20117,-163.75671
1766903040601,-0.9863281,0.20361328,-0.13134766,0.18310547,-6.7749023,2.0751953,0.0,0.0,0.0,123.79944,76.20117,-163.75671
1766903040613,-0.9863281,0.20361328,-0.13134766,0.18310547,-6.7749023,2.0751953,0.0,0.0,0.0,122.41516,76.25061,-165.14648
1766903040701,-0.9658203,0.20898438,-0.119628906,4.333496,-5.126953,-0.18310547,0.0,0.0,0.0,122.41516,76.25061,-165.14648
1766903040712,-0.9658203,0.20898438,-0.119628906,4.333496,-5.126953,-0.18310547,0.0,0.0,0.0,121.173706,76.38245,-166.76697
1766903040801,-0.97265625,0.18896484,-0.12548828,11.291504,-2.5024414,3.479004,0.0,0.0,0.0,121.173706,76.38245,-166.76697
1766903040812,-0.97265625,0.18896484,-0.12548828,11.291504,-2.5024414,3.479004,0.0,0.0,0.0,120.36072,76.45386,-168.5028
1766903040900,-0.96240234,0.2290039,-0.123535156,3.9672852,-2.0751953,5.7373047,0.0,0.0,0.0,120.36072,76.45386,-168.5028
1766903040912,-0.96240234,0.2290039,-0.123535156,3.9672852,-2.0751953,5.7373047,0.0,0.0,0.0,119.03137,76.0968,-170.58472
1766903041000,-0.97021484,0.20703125,-0.10595703,10.559082,-3.479004,6.3476562,0.0,0.0,0.0,119.03137,76.0968,-170.58472
1766903041012,-0.97021484,0.20703125,-0.10595703,10.559082,-3.479004,6.3476562,0.0,0.0,0.0,117.90527,75.651855,-172.99622
1766903041100,-0.9770508,0.2290039,-0.1171875,16.906738,-3.6621094,2.0141602,0.0,0.0,0.0,117.90527,75.651855,-172.99622
1766903041111,-0.9770508,0.2290039,-0.1171875,16.906738,-3.6621094,2.0141602,0.0,0.0,0.0,117.27356,75.52551,-175.23193
1766903041199,-0.97265625,0.21533203,-0.107421875,15.014648,-5.2490234,1.4038086,0.0,0.0,0.0,117.27356,75.52551,-175.23193
1766903041211,-0.97265625,0.21533203,-0.107421875,15.014648,-5.2490234,1.4038086,0.0,0.0,0.0,116.537476,75.6134,-177.64343
1766903041299,-0.98828125,0.21044922,-0.10595703,10.620117,-6.5307617,2.6245117,0.0,0.0,0.0,116.537476,75.6134,-177.64343
1766903041311,-0.98828125,0.21044922,-0.10595703,10.620117,-6.5307617,2.6245117,0.0,0.0,0.0,115.48279,75.66284,179.9176
1766903041399,-0.9692383,0.21240234,-0.09667969,8.850098,-2.1972656,1.953125,0.0,0.0,0.0,115.48279,75.66284,179.9176
1766903041410,-0.9692383,0.21240234,-0.09667969,8.850098,-2.1972656,1.953125,0.0,0.0,0.0,115.0708,75.651855,178.40698
1766903041499,-0.9770508,0.21484375,-0.11230469,5.859375,0.5493164,1.0375977,0.0,0.0,0.0,115.0708,75.651855,178.40698
1766903041510,-0.9770508,0.21484375,-0.11230469,5.859375,0.5493164,1.0375977,0.0,0.0,0.0,115.043335,75.6134,177.63794
1766903041598,-0.97753906,0.21582031,-0.114746094,-0.30517578,0.36621094,1.4648438,0.0,0.0,0.0,115.043335,75.6134,177.63794
1766903041610,-0.97753906,0.21582031,-0.114746094,-0.30517578,0.36621094,1.4648438,0.0,0.0,0.0,115.26306,75.50903,177.56653
1766903041698,-0.97265625,0.22460938,-0.107421875,-2.319336,3.6010742,1.2207031,0.0,0.0,0.0,115.26306,75.50903,177.56653
1766903041710,-0.97265625,0.22460938,-0.107421875,-2.319336,3.6010742,1.2207031,0.0,0.0,0.0,116.087036,75.31677,178.46191
1766903041798,-0.9790039,0.2319336,-0.115234375,-2.9907227,2.9907227,1.159668,0.0,0.0,0.0,116.087036,75.31677,178.46191
1766903041809,-0.9790039,0.2319336,-0.115234375,-2.9907227,2.9907227,1.159668,0.0,0.0,0.0,116.45508,75.10254,179.198
1766903041897,-0.9555664,0.21972656,-0.09277344,-7.2631836,2.319336,0.4272461,0.0,0.0,0.0,116.45508,75.10254,179.198
1766903041909,-0.9555664,0.21972656,-0.09277344,-7.2631836,2.319336,0.4272461,0.0,0.0,0.0,117.06482,74.84985,-179.53857
1766903041997,-0.9614258,0.24511719,-0.09033203,-8.666992,-1.5258789,-0.36621094,0.0,0.0,0.0,117.06482,74.84985,-179.53857
1766903042009,-0.9614258,0.24511719,-0.09033203,-8.666992,-1.5258789,-0.36621094,0.0,0.0,0.0,116.29578,74.84985,-179.24744
1766903042097,-0.96777344,0.2446289,-0.096191406,-5.859375,-1.6479492,-2.0751953,0.0,0.0,0.0,116.29578,74.84985,-179.24744
1766903042109,-0.96777344,0.2446289,-0.096191406,-5.859375,-1.6479492,-2.0751953,0.0,0.0,0.0,114.96643,74.99817,-179.69788
1766903042197,-0.96533203,0.234375,-0.091308594,-6.3476562,-1.4038086,-0.7324219,0.0,0.0,0.0,114.96643,74.99817,-179.69788
1766903042208,-0.96533203,0.234375,-0.091308594,-6.3476562,-1.4038086,-0.7324219,0.0,0.0,0.0,113.878784,75.1355,179.95605
1766903042296,-0.98339844,0.23535156,-0.104003906,-5.859375,-1.4038086,-0.7324219,0.0,0.0,0.0,113.878784,75.1355,179.95605
1766903042308,-0.98339844,0.23535156,-0.104003906,-5.859375,-1.4038086,-0.7324219,0.0,0.0,0.0,112.56592,75.217896,179.3518
1766903042396,-0.9707031,0.24169922,-0.09326172,-4.8828125,0.18310547,-1.7089844,0.0,0.0,0.0,112.56592,75.217896,179.3518
1766903042407,-0.9707031,0.24169922,-0.09326172,-4.8828125,0.18310547,-1.7089844,0.0,0.0,0.0,112.50549,75.27832,179.81323
1766903042496,-0.96435547,0.23291016,-0.09033203,-2.1362305,2.319336,0.0,0.0,0.0,0.0,112.50549,75.27832,179.81323
1766903042507,-0.96435547,0.23291016,-0.09033203,-2.1362305,2.319336,0.0,0.0,0.0,0.0,112.681274,75.34973,-179.62097
1766903042596,-0.98046875,0.22216797,-0.09765625,-0.5493164,1.5869141,-0.36621094,0.0,0.0,0.0,112.681274,75.34973,-179.62097
1766903042607,-0.98046875,0.22216797,-0.09765625,-0.5493164,1.5869141,-0.36621094,0.0,0.0,0.0,113.12622,75.31128,-179.02771
1766903042695,-0.95703125,0.23291016,-0.099121094,1.4038086,0.7324219,-1.0986328,0.0,0.0,0.0,113.12622,75.31128,-179.02771
1766903042707,-0.95703125,0.23291016,-0.099121094,1.4038086,0.7324219,-1.0986328,0.0,0.0,0.0,113.29651,75.31128,-178.68164
1766903042795,-0.95654297,0.24951172,-0.08496094,-1.159668,-3.2958984,-0.061035156,0.0,0.0,0.0,113.29651,75.31128,-178.68164
1766903042806,-0.95654297,0.24951172,-0.08496094,-1.159668,-3.2958984,-0.061035156,0.0,0.0,0.0,113.43384,75.41565,-178.57727
1766903042895,-0.9760742,0.1850586,-0.083496094,4.8217773,1.8920898,-3.4179688,0.0,0.0,0.0,113.43384,75.41565,-178.57727
1766903042907,-0.9760742,0.1850586,-0.083496094,4.8217773,1.8920898,-3.4179688,0.0,0.0,0.0,113.05481,75.531006,-179.23096
1766903042994,-0.96484375,0.2607422,-0.111328125,0.9765625,-1.159668,1.8920898,0.0,0.0,0.0,113.05481,75.531006,-179.23096
1766903043006,-0.96484375,0.2607422,-0.111328125,0.9765625,-1.159668,1.8920898,0.0,0.0,0.0,112.5,75.67383,-179.48364
1766903043094,-0.97509766,0.19873047,-0.08203125,-4.5776367,0.9765625,-0.7324219,0.0,0.0,0.0,112.5,75.67383,-179.48364
1766903043105,-0.97509766,0.19873047,-0.08203125,-4.5776367,0.9765625,-0.7324219,0.0,0.0,0.0,113.83484,75.49255,-178.77502
1766903043194,-0.97314453,0.25048828,-0.10449219,5.065918,-1.159668,0.91552734,0.0,0.0,0.0,113.83484,75.49255,-178.77502
1766903043205,-0.97314453,0.25048828,-0.10449219,5.065918,-1.159668,0.91552734,0.0,0.0,0.0,113.57666,75.49805,-178.80249
1766903043293,-0.9658203,0.22265625,-0.087402344,-3.7231445,-1.0375977,-0.061035156,0.0,0.0,0.0,113.57666,75.49805,-178.80249
1766903043305,-0.9658203,0.22265625,-0.087402344,-3.7231445,-1.0375977,-0.061035156,0.0,0.0,0.0,114.46655,75.49255,-178.38501
1766903043393,-0.98291016,0.21777344,-0.09423828,9.82666,-0.30517578,-2.5634766,0.0,0.0,0.0,114.46655,75.49255,-178.38501
1766903043405,-0.98291016,0.21777344,-0.09423828,9.82666,-0.30517578,-2.5634766,0.0,0.0,0.0,114.13696,75.563965,-178.82996
1766903043493,-0.9711914,0.2211914,-0.10888672,12.756348,11.535645,-9.58252,0.0,0.0,0.0,114.13696,75.563965,-178.82996
1766903043505,-0.9711914,0.2211914,-0.10888672,12.756348,11.535645,-9.58252,0.0,0.0,0.0,117.24609,75.89905,-176.42395
1766903043592,-0.9794922,0.16210938,-0.12548828,-2.319336,5.859375,-4.8828125,0.0,0.0,0.0,117.24609,75.89905,-176.42395
1766903043604,-0.9794922,0.16210938,-0.12548828,-2.319336,5.859375,-4.8828125,0.0,0.0,0.0,123.31604,76.04736,-170.65613
1766903043692,-0.97021484,0.18603516,-0.1303711,-8.972168,4.1503906,0.7324219,0.0,0.0,0.0,123.31604,76.04736,-170.65613
1766903043704,-0.97021484,0.18603516,-0.1303711,-8.972168,4.1503906,0.7324219,0.0,0.0,0.0,124.887085,76.00342,-168.37097
1766903043792,-0.96777344,0.20263672,-0.12695312,-11.108398,2.9907227,1.8920898,0.0,0.0,0.0,124.887085,76.00342,-168.37097
1766903043804,-0.96777344,0.20263672,-0.12695312,-11.108398,2.9907227,1.8920898,0.0,0.0,0.0,124.45862,75.74524,-167.77771
1766903043892,-0.98291016,0.20361328,-0.14355469,-10.009766,2.9296875,3.112793,0.0,0.0,0.0,124.45862,75.74524,-167.77771
1766903043903,-0.98291016,0.20361328,-0.14355469,-10.009766,2.9296875,3.112793,0.0,0.0,0.0,123.14026,75.443115,-168.00293
1766903043991,-0.96191406,0.21923828,-0.13427734,-4.5776367,5.2490234,1.159668,0.0,0.0,0.0,123.14026,75.443115,-168.00293
1766903044003,-0.96191406,0.21923828,-0.13427734,-4.5776367,5.2490234,1.159668,0.0,0.0,0.0,123.67859,75.05859,-166.83838
1766903044091,-0.9707031,0.22167969,-0.14550781,-2.0751953,5.6762695,0.12207031,0.0,0.0,0.0,123.67859,75.05859,-166.83838
1766903044103,-0.9707031,0.22167969,-0.14550781,-2.0751953,5.6762695,0.12207031,0.0,0.0,0.0,124.749756,74.72351,-165.31128
1766903044192,-0.96435547,0.21972656,-0.15234375,-0.61035156,1.7089844,-0.24414062,0.0,0.0,0.0,124.749756,74.72351,-165.31128
1766903044202,-0.96435547,0.21972656,-0.15234375,-0.61035156,1.7089844,-0.24414062,0.0,0.0,0.0,125.43091,74.5697,-164.37195
1766903044291,-0.9614258,0.21679688,-0.1508789,3.90625,2.380371,-0.8544922,0.0,0.0,0.0,125.43091,74.5697,-164.37195
1766903044302,-0.9614258,0.21679688,-0.1508789,3.90625,2.380371,-0.8544922,0.0,0.0,0.0,126.54053,74.454346,-163.35571
1766903044390,-0.96777344,0.20751953,-0.15625,1.5258789,-0.18310547,0.24414062,0.0,0.0,0.0,126.54053,74.454346,-163.35571
1766903044402,-0.96777344,0.20751953,-0.15625,1.5258789,-0.18310547,0.24414062,0.0,0.0,0.0,126.79321,74.44885,-163.29529
1766903044490,-0.9658203,0.21777344,-0.15527344,2.6245117,-2.5634766,0.0,0.0,0.0,0.0,126.79321,74.44885,-163.29529
1766903044501,-0.9658203,0.21777344,-0.15527344,2.6245117,-2.5634766,0.0,0.0,0.0,0.0,126.1615,74.575195,-164.12476
1766903044590,-0.9682617,0.203125,-0.14990234,3.9672852,-0.8544922,-1.8920898,0.0,0.0,0.0,126.1615,74.575195,-164.12476
1766903044601,-0.9682617,0.203125,-0.14990234,3.9672852,-0.8544922,-1.8920898,0.0,0.0,0.0,126.2439,74.783936,-164.44885
1766903044689,-0.96875,0.19824219,-0.1508789,4.211426,-0.8544922,-2.319336,0.0,0.0,0.0,126.2439,74.783936,-164.44885
1766903044701,-0.96875,0.19824219,-0.1508789,4.211426,-0.8544922,-2.319336,0.0,0.0,0.0,126.77673,75.02014,-164.30603
1766903044789,-0.97314453,0.19335938,-0.14941406,1.0375977,-1.6479492,-0.91552734,0.0,0.0,0.0,126.77673,75.02014,-164.30603
1766903044801,-0.97314453,0.19335938,-0.14941406,1.0375977,-1.6479492,-0.91552734,0.0,0.0,0.0,126.99646,75.217896,-164.328
1766903044889,-0.97314453,0.18701172,-0.15136719,1.159668,-1.2817383,-0.18310547,0.0,0.0,0.0,126.99646,75.217896,-164.328
1766903044900,-0.97314453,0.18701172,-0.15136719,1.159668,-1.2817383,-0.18310547,0.0,0.0,0.0,127.2052,75.30029,-164.28955
1766903044988,-0.98339844,0.19482422,-0.1508789,-2.8076172,-2.2583008,0.24414062,0.0,0.0,0.0,127.2052,75.30029,-164.28955
1766903045000,-0.98339844,0.19482422,-0.1508789,-2.8076172,-2.2583008,0.24414062,0.0,0.0,0.0,126.87561,75.36621,-164.55322
1766903045088,-0.97558594,0.19921875,-0.1459961,-1.7700195,0.061035156,-0.12207031,0.0,0.0,0.0,126.87561,75.36621,-164.55322
1766903045100,-0.97558594,0.19921875,-0.1459961,-1.7700195,0.061035156,-0.12207031,0.0,0.0,0.0,126.831665,75.39368,-164.50378
1766903045188,-0.9667969,0.19628906,-0.1459961,-1.8920898,1.5869141,-0.48828125,0.0,0.0,0.0,126.831665,75.39368,-164.50378
1766903045199,-0.9667969,0.19628906,-0.1459961,-1.8920898,1.5869141,-0.48828125,0.0,0.0,0.0,127.16675,75.371704,-164.0149
1766903045288,-0.9711914,0.20117188,-0.15039062,-0.7324219,0.12207031,0.0,0.0,0.0,0.0,127.16675,75.371704,-164.0149
1766903045299,-0.9711914,0.20117188,-0.15039062,-0.7324219,0.12207031,0.0,0.0,0.0,0.0,127.386475,75.33325,-163.6908
1766903045387,-0.97216797,0.19873047,-0.15722656,0.7324219,-0.91552734,0.0,0.0,0.0,0.0,127.386475,75.33325,-163.6908
1766903045399,-0.97216797,0.19873047,-0.15722656,0.7324219,-0.91552734,0.0,0.0,0.0,0.0,127.16675,75.355225,-163.89954
1766903045487,-0.96777344,0.19433594,-0.14941406,1.3427734,0.12207031,-0.36621094,0.0,0.0,0.0,127.16675,75.355225,-163.89954
1766903045499,-0.96777344,0.19433594,-0.14941406,1.3427734,0.12207031,-0.36621094,0.0,0.0,0.0,127.63916,75.33325,-163.63037
1766903045587,-0.9741211,0.1899414,-0.16357422,0.5493164,-0.5493164,0.5493164,0.0,0.0,0.0,127.63916,75.33325,-163.63037
1766903045598,-0.9741211,0.1899414,-0.16357422,0.5493164,-0.5493164,0.5493164,0.0,0.0,0.0,127.64465,75.338745,-163.75122
1766903045686,-0.9746094,0.1953125,-0.1538086,0.9765625,0.0,0.61035156,0.0,0.0,0.0,127.64465,75.338745,-163.75122
1766903045698,-0.9746094,0.1953125,-0.1538086,0.9765625,0.0,0.61035156,0.0,0.0,0.0,127.82593,75.30029,-163.74573
1766903045786,-0.9741211,0.1899414,-0.14941406,-0.061035156,2.4414062,0.9765625,0.0,0.0,0.0,127.82593,75.30029,-163.74573
1766903045798,-0.9741211,0.1899414,-0.14941406,-0.061035156,2.4414062,0.9765625,0.0,0.0,0.0,128.34229,75.16846,-163.3722
1766903045886,-0.96728516,0.19189453,-0.15820312,0.30517578,1.2817383,2.5634766,0.0,0.0,0.0,128.34229,75.16846,-163.3722
1766903045898,-0.96728516,0.19189453,-0.15820312,0.30517578,1.2817383,2.5634766,0.0,0.0,0.0,128.77625,74.91028,-162.98767
1766903045986,-0.96533203,0.21435547,-0.16357422,-4.0283203,0.48828125,2.9296875,0.0,0.0,0.0,128.77625,74.91028,-162.98767
1766903045998,-0.96533203,0.21435547,-0.16357422,-4.0283203,0.48828125,2.9296875,0.0,0.0,0.0,128.23792,74.64661,-163.2898
1766903046085,-0.96435547,0.20507812,-0.15136719,-2.4414062,1.5869141,2.2583008,0.0,0.0,0.0,128.23792,74.64661,-163.2898
1766903046097,-0.96435547,0.20507812,-0.15136719,-2.4414062,1.5869141,2.2583008,0.0,0.0,0.0,127.65015,74.42688,-163.74573
1766903046185,-0.9682617,0.2084961,-0.1665039,-2.5634766,0.8544922,1.7089844,0.0,0.0,0.0,127.65015,74.42688,-163.74573
1766903046196,-0.9682617,0.2084961,-0.1665039,-2.5634766,0.8544922,1.7089844,0.0,0.0,0.0,126.67236,74.295044,-164.47632
1766903046285,-0.9716797,0.21289062,-0.16064453,-1.4038086,0.36621094,1.0986328,0.0,0.0,0.0,126.67236,74.295044,-164.47632
1766903046296,-0.9716797,0.21289062,-0.16064453,-1.4038086,0.36621094,1.0986328,0.0,0.0,0.0,126.45264,74.18518,-164.6576
1766903046384,-0.9682617,0.21289062,-0.15136719,0.30517578,1.8920898,1.0375977,0.0,0.0,0.0,126.45264,74.18518,-164.6576
1766903046396,-0.9682617,0.21289062,-0.15136719,0.30517578,1.8920898,1.0375977,0.0,0.0,0.0,126.61743,74.053345,-164.54773
1766903046484,-0.9736328,0.19921875,-0.16357422,-2.746582,6.8359375,0.30517578,0.0,0.0,0.0,126.61743,74.053345,-164.54773
1766903046496,-0.9736328,0.19921875,-0.16357422,-2.746582,6.8359375,0.30517578,0.0,0.0,0.0,127.803955,73.7677,-163.31177
1766903046584,-0.9614258,0.21972656,-0.17919922,-7.873535,8.666992,0.30517578,0.0,0.0,0.0,127.803955,73.7677,-163.31177
1766903046596,-0.9614258,0.21972656,-0.17919922,-7.873535,8.666992,0.30517578,0.0,0.0,0.0,129.02893,73.37219,-161.45508
1766903046684,-0.9501953,0.2397461,-0.17529297,-1.4038086,7.8125,-0.48828125,0.0,0.0,0.0,129.02893,73.37219,-161.45508
1766903046695,-0.9501953,0.2397461,-0.17529297,-1.4038086,7.8125,-0.48828125,0.0,0.0,0.0,130.45166,72.960205,-159.45557
1766903046783,-0.92626953,0.22314453,-0.17578125,-3.1738281,1.2207031,4.211426,0.0,0.0,0.0,130.45166,72.960205,-159.45557
1766903046795,-0.92626953,0.22314453,-0.17578125,-3.1738281,1.2207031,4.211426,0.0,0.0,0.0,130.56152,72.59766,-158.92273
1766903046883,-0.9326172,0.2763672,-0.17480469,-3.112793,-11.169434,13.061523,0.0,0.0,0.0,130.56152,72.59766,-158.92273
1766903046894,-0.9326172,0.2763672,-0.17480469,-3.112793,-11.169434,13.061523,0.0,0.0,0.0,127.369995,72.2406,-161.8396
1766903046983,-0.9394531,0.34472656,-0.17529297,2.1972656,-18.676758,16.540527,0.0,0.0,0.0,127.369995,72.2406,-161.8396
1766903046994,-0.9394531,0.34472656,-0.17529297,2.1972656,-18.676758,16.540527,0.0,0.0,0.0,120.27283,71.795654,-169.10156
1766903047082,-1.0136719,0.28808594,-0.15966797,17.456055,-3.7231445,3.9672852,0.0,0.0,0.0,120.27283,71.795654,-169.10156
1766903047094,-1.0136719,0.28808594,-0.15966797,17.456055,-3.7231445,3.9672852,0.0,0.0,0.0,116.30127,71.10901,-174.33655
1766903047182,-0.94140625,0.32080078,-0.1586914,3.6621094,0.61035156,-0.24414062,0.0,0.0,0.0,116.30127,71.10901,-174.33655
1766903047194,-0.94140625,0.32080078,-0.1586914,3.6621094,0.61035156,-0.24414062,0.0,0.0,0.0,116.40015,71.02661,-175.31982
1766903047283,-0.9609375,0.31298828,-0.16064453,9.887695,-0.79345703,-4.8828125,0.0,0.0,0.0,116.40015,71.02661,-175.31982
1766903047293,-0.9609375,0.31298828,-0.16064453,9.887695,-0.79345703,-4.8828125,0.0,0.0,0.0,117.76245,71.30676,-175.12207
1766903047382,-0.9453125,0.29248047,-0.15136719,20.812988,2.380371,-10.375977,0.0,0.0,0.0,117.76245,71.30676,-175.12207
1766903047394,-0.9453125,0.29248047,-0.15136719,20.812988,2.380371,-10.375977,0.0,0.0,0.0,120.15198,71.81763,-173.84766
1766903047481,-0.9584961,0.29345703,-0.19140625,16.357422,1.8920898,-8.117676,0.0,0.0,0.0,120.15198,71.81763,-173.84766
1766903047493,-0.9584961,0.29345703,-0.19140625,16.357422,1.8920898,-8.117676,0.0,0.0,0.0,123.568726,72.421875,-171.85913
1766903047581,-0.98046875,0.27392578,-0.1821289,14.526367,-1.6479492,-4.5166016,0.0,0.0,0.0,123.568726,72.421875,-171.85913
1766903047593,-0.98046875,0.27392578,-0.1821289,14.526367,-1.6479492,-4.5166016,0.0,0.0,0.0,127.073364,72.75696,-169.82117
1766903047681,-0.93652344,0.21435547,-0.1352539,18.310547,-5.432129,-6.0424805,0.0,0.0,0.0,127.073364,72.75696,-169.82117
1766903047692,-0.93652344,0.21435547,-0.1352539,18.310547,-5.432129,-6.0424805,0.0,0.0,0.0,129.3805,73.19092,-169.04114
1766903047780,-0.94433594,0.19042969,-0.1875,9.155273,-1.4648438,-10.070801,0.0,0.0,0.0,129.3805,73.19092,-169.04114
1766903047792,-0.94433594,0.19042969,-0.1875,9.155273,-1.4648438,-10.070801,0.0,0.0,0.0,130.36926,74.22363,-169.21692
1766903047880,-0.9667969,0.1875,-0.12646484,-0.7324219,-11.291504,-8.7890625,0.0,0.0,0.0,130.36926,74.22363,-169.21692
1766903047892,-0.9667969,0.1875,-0.12646484,-0.7324219,-11.291504,-8.7890625,0.0,0.0,0.0,132.45117,75.234375,-168.0249
1766903047980,-0.94677734,0.16259766,-0.09423828,7.080078,-18.432617,-10.7421875,0.0,0.0,0.0,132.45117,75.234375,-168.0249
1766903047991,-0.94677734,0.16259766,-0.09423828,7.080078,-18.432617,-10.7421875,0.0,0.0,0.0,130.61096,76.8988,-170.10681
1766903048080,-0.9946289,0.122558594,-0.10546875,1.7700195,-27.893066,-14.953613,0.0,0.0,0.0,130.61096,76.8988,-170.10681
1766903048091,-0.9946289,0.122558594,-0.10546875,1.7700195,-27.893066,-14.953613,0.0,0.0,0.0,123.67859,79.50256,-177.30286
1766903048179,-1.0180664,0.06347656,-0.0390625,-7.507324,-19.89746,-14.770508,0.0,0.0,0.0,123.67859,79.50256,-177.30286
1766903048191,-1.0180664,0.06347656,-0.0390625,-7.507324,-19.89746,-14.770508,0.0,0.0,0.0,116.103516,81.89758,174.90784
1766903048279,-1.0019531,0.05029297,-0.027832031,-11.535645,-9.338379,-18.249512,0.0,0.0,0.0,116.103516,81.89758,174.90784
1766903048291,-1.0019531,0.05029297,-0.027832031,-11.535645,-9.338379,-18.249512,0.0,0.0,0.0,110.093994,84.16626,169.26086
1766903048379,-0.9926758,0.030761719,-0.040039062,-22.155762,-4.272461,-14.770508,0.0,0.0,0.0,110.093994,84.16626,169.26086
1766903048390,-0.9926758,0.030761719,-0.040039062,-22.155762,-4.272461,-14.770508,0.0,0.0,0.0,104.57886,86.05591,165.08057
1766903048478,-1.0327148,0.044433594,-0.030273438,-2.1972656,5.79834,-7.6904297,0.0,0.0,0.0,104.57886,86.05591,165.08057
1766903048490,-1.0327148,0.044433594,-0.030273438,-2.1972656,5.79834,-7.6904297,0.0,0.0,0.0,121.937256,86.80847,-176.99524
1766903048578,-1.0205078,-0.015625,-0.09082031,1.953125,8.300781,-6.286621,0.0,0.0,0.0,121.937256,86.80847,-176.99524
1766903048590,-1.0205078,-0.015625,-0.09082031,1.953125,8.300781,-6.286621,0.0,0.0,0.0,141.16333,86.80847,-157.5
1766903048678,-1.0,-0.0068359375,-0.06347656,-2.746582,1.2207031,-6.591797,0.0,0.0,0.0,141.16333,86.80847,-157.5
1766903048690,-1.0,-0.0068359375,-0.06347656,-2.746582,1.2207031,-6.591797,0.0,0.0,0.0,159.8291,86.71509,-139.72412
1766903048777,-0.96533203,-0.0043945312,-0.056152344,7.6904297,5.6152344,-4.699707,0.0,0.0,0.0,159.8291,86.71509,-139.72412
1766903048789,-0.96533203,-0.0043945312,-0.056152344,7.6904297,5.6152344,-4.699707,0.0,0.0,0.0,173.01819,86.33606,-127.5238
1766903048877,-0.99560547,-0.034179688,-0.1328125,11.962891,9.94873,-0.9765625,0.0,0.0,0.0,173.01819,86.33606,-127.5238
1766903048889,-0.99560547,-0.034179688,-0.1328125,11.962891,9.94873,-0.9765625,0.0,0.0,0.0,177.20947,85.841675,-124.749756
1766903048977,-1.0366211,4.8828125E-4,-0.084472656,3.540039,10.803223,7.751465,0.0,0.0,0.0,177.20947,85.841675,-124.749756
1766903048988,-1.0366211,4.8828125E-4,-0.084472656,3.540039,10.803223,7.751465,0.0,0.0,0.0,175.08911,84.56726,-128.95203
1766903049077,-1.0268555,0.008300781,-0.095703125,7.6904297,9.70459,9.82666,0.0,0.0,0.0,175.08911,84.56726,-128.95203
1766903049088,-1.0268555,0.008300781,-0.095703125,7.6904297,9.70459,9.82666,0.0,0.0,0.0,168.06885,83.38623,-137.87292
1766903049176,-0.9345703,0.068359375,-0.09716797,1.159668,3.479004,14.831543,0.0,0.0,0.0,168.06885,83.38623,-137.87292
1766903049188,-0.9345703,0.068359375,-0.09716797,1.159668,3.479004,14.831543,0.0,0.0,0.0,162.52075,82.70508,-144.94812
1766903049276,-1.0341797,0.032714844,-0.07373047,2.8686523,4.5776367,9.277344,0.0,0.0,0.0,162.52075,82.70508,-144.94812
1766903049288,-1.0341797,0.032714844,-0.07373047,2.8686523,4.5776367,9.277344,0.0,0.0,0.0,153.21533,82.00195,-155.06653
1766903049376,-0.9746094,0.037597656,-0.13378906,-2.2583008,4.5776367,2.8686523,0.0,0.0,0.0,153.21533,82.00195,-155.06653
1766903049387,-0.9746094,0.037597656,-0.13378906,-2.2583008,4.5776367,2.8686523,0.0,0.0,0.0,150.53467,81.694336,-158.5492
1766903049475,-1.0107422,0.047851562,-0.09326172,-13.427734,1.0986328,0.5493164,0.0,0.0,0.0,150.53467,81.694336,-158.5492
1766903049487,-1.0107422,0.047851562,-0.09326172,-13.427734,1.0986328,0.5493164,0.0,0.0,0.0,150.84229,81.46912,-158.56567
1766903049575,-0.9868164,0.06201172,-0.12646484,-22.949219,0.30517578,-1.2207031,0.0,0.0,0.0,150.84229,81.46912,-158.56567
1766903049587,-0.9868164,0.06201172,-0.12646484,-22.949219,0.30517578,-1.2207031,0.0,0.0,0.0,149.64478,81.57349,-158.67004
1766903049675,-0.98876953,0.071777344,-0.11376953,-26.123047,2.5024414,-2.9296875,0.0,0.0,0.0,149.64478,81.57349,-158.67004
1766903049686,-0.98876953,0.071777344,-0.11376953,-26.123047,2.5024414,-2.9296875,0.0,0.0,0.0,149.90845,81.50757,-156.71448
1766903049775,-1.0,0.06640625,-0.1274414,-27.038574,0.0,-3.3569336,0.0,0.0,0.0,149.90845,81.50757,-156.71448
1766903049786,-1.0,0.06640625,-0.1274414,-27.038574,0.0,-3.3569336,0.0,0.0,0.0,149.88647,81.5625,-154.50073
1766903049874,-0.9824219,0.09667969,-0.12939453,-24.536133,0.0,-0.6713867,0.0,0.0,0.0,149.88647,81.5625,-154.50073
1766903049886,-0.9824219,0.09667969,-0.12939453,-24.536133,0.0,-0.6713867,0.0,0.0,0.0,149.47449,81.61743,-152.61658
1766903049974,-0.9848633,0.10449219,-0.123535156,-18.127441,-0.91552734,0.61035156,0.0,0.0,0.0,149.47449,81.61743,-152.61658
1766903049985,-0.9848633,0.10449219,-0.123535156,-18.127441,-0.91552734,0.61035156,0.0,0.0,0.0,147.32117,81.502075,-152.8418
1766903050074,-0.9790039,0.13085938,-0.10644531,-12.573242,-6.8359375,3.0517578,0.0,0.0,0.0,147.32117,81.502075,-152.8418
1766903050085,-0.9790039,0.13085938,-0.10644531,-12.573242,-6.8359375,3.0517578,0.0,0.0,0.0,143.06396,81.63391,-155.75317
1766903050173,-0.9916992,0.11376953,-0.10839844,-2.0751953,-4.0283203,3.7841797,0.0,0.0,0.0,143.06396,81.63391,-155.75317
1766903050185,-0.9916992,0.11376953,-0.10839844,-2.0751953,-4.0283203,3.7841797,0.0,0.0,0.0,137.84546,81.71631,-160.53223
1766903050273,-0.99853516,0.11621094,-0.091796875,4.4555664,-2.1972656,2.9296875,0.0,0.0,0.0,137.84546,81.71631,-160.53223
1766903050285,-0.99853516,0.11621094,-0.091796875,4.4555664,-2.1972656,2.9296875,0.0,0.0,0.0,134.30786,81.639404,-164.39941
1766903050373,-0.9824219,0.111328125,-0.09277344,12.023926,0.0,1.0375977,0.0,0.0,0.0,134.30786,81.639404,-164.39941
1766903050384,-0.9824219,0.111328125,-0.09277344,12.023926,0.0,1.0375977,0.0,0.0,0.0,133.04993,81.5625,-166.5747
1766903050472,-0.9863281,0.103027344,-0.08251953,18.432617,-3.3569336,-0.48828125,0.0,0.0,0.0,133.04993,81.5625,-166.5747
1766903050484,-0.9863281,0.103027344,-0.08251953,18.432617,-3.3569336,-0.48828125,0.0,0.0,0.0,132.8247,81.70532,-168.3435
1766903050572,-0.9926758,0.060546875,-0.061523438,15.319824,-5.554199,-1.7089844,0.0,0.0,0.0,132.8247,81.70532,-168.3435
1766903050584,-0.9926758,0.060546875,-0.061523438,15.319824,-5.554199,-1.7089844,0.0,0.0,0.0,132.182,82.08435,-170.78796
1766903050672,-0.99902344,0.063964844,-0.10449219,12.145996,-0.24414062,1.2817383,0.0,0.0,0.0,132.182,82.08435,-170.78796
1766903050684,-0.99902344,0.063964844,-0.10449219,12.145996,-0.24414062,1.2817383,0.0,0.0,0.0,130.63843,82.5238,-174.01794
1766903050771,-0.99121094,0.046875,-0.11621094,3.7841797,-0.48828125,4.3945312,0.0,0.0,0.0,130.63843,82.5238,-174.01794
1766903050783,-0.99121094,0.046875,-0.11621094,3.7841797,-0.48828125,4.3945312,0.0,0.0,0.0,130.4242,82.337036,-175.99548
1766903050871,-1.0141602,0.14648438,-0.10205078,7.8125,6.652832,1.0986328,0.0,0.0,0.0,130.4242,82.337036,-175.99548
1766903050883,-1.0141602,0.14648438,-0.10205078,7.8125,6.652832,1.0986328,0.0,0.0,0.0,135.0,81.91406,-173.4137
1766903050971,-0.98828125,0.09814453,-0.103515625,11.413574,6.0424805,0.7324219,0.0,0.0,0.0,135.0,81.91406,-173.4137
1766903050982,-0.98828125,0.09814453,-0.103515625,11.413574,6.0424805,0.7324219,0.0,0.0,0.0,138.03772,81.2384,-171.7218
1766903051071,-0.9838867,0.08984375,-0.119628906,4.5776367,1.0375977,0.30517578,0.0,0.0,0.0,138.03772,81.2384,-171.7218
1766903051082,-0.9838867,0.08984375,-0.119628906,4.5776367,1.0375977,0.30517578,0.0,0.0,0.0,139.9054,80.95276,-170.80444
1766903051170,-0.98583984,0.09423828,-0.1171875,-4.638672,-5.493164,-0.24414062,0.0,0.0,0.0,139.9054,80.95276,-170.80444
1766903051182,-0.98583984,0.09423828,-0.1171875,-4.638672,-5.493164,-0.24414062,0.0,0.0,0.0,140.10315,81.101074,-170.9143
1766903051270,-0.9785156,0.100097656,-0.06542969,-11.230469,-4.699707,-0.8544922,0.0,0.0,0.0,140.10315,81.101074,-170.9143
1766903051281,-0.9785156,0.100097656,-0.06542969,-11.230469,-4.699707,-0.8544922,0.0,0.0,0.0,137.92786,81.485596,-172.63916
1766903051370,-0.99316406,0.119628906,-0.08886719,-11.962891,-4.699707,-0.8544922,0.0,0.0,0.0,137.92786,81.485596,-172.63916
1766903051381,-0.99316406,0.119628906,-0.08886719,-11.962891,-4.699707,-0.8544922,0.0,0.0,0.0,133.9508,81.98547,-175.35278
1766903051469,-0.9975586,0.08984375,-0.08691406,-11.169434,-1.159668,-1.159668,0.0,0.0,0.0,133.9508,81.98547,-175.35278
1766903051481,-0.9975586,0.08984375,-0.08691406,-11.169434,-1.159668,-1.159668,0.0,0.0,0.0,130.979,82.15576,-177.24792
1766903051569,-1.003418,0.10107422,-0.1015625,-9.155273,-0.48828125,-2.380371,0.0,0.0,0.0,130.979,82.15576,-177.24792
1766903051581,-1.003418,0.10107422,-0.1015625,-9.155273,-0.48828125,-2.380371,0.0,0.0,0.0,130.18799,82.40845,-177.21497
1766903051669,-0.9951172,0.095214844,-0.087402344,-2.1362305,1.5258789,-1.0375977,0.0,0.0,0.0,130.18799,82.40845,-177.21497
1766903051681,-0.9951172,0.095214844,-0.087402344,-2.1362305,1.5258789,-1.0375977,0.0,0.0,0.0,131.28662,82.49634,-175.8966
1766903051768,-0.9863281,0.09863281,-0.083496094,3.2348633,3.4179688,-1.8920898,0.0,0.0,0.0,131.28662,82.49634,-175.8966
1766903051780,-0.9863281,0.09863281,-0.083496094,3.2348633,3.4179688,-1.8920898,0.0,0.0,0.0,133.29163,82.4469,-174.11682
1766903051868,-0.98779297,0.092285156,-0.087890625,3.2348633,3.2958984,-0.91552734,0.0,0.0,0.0,133.29163,82.4469,-174.11682
1766903051880,-0.98779297,0.092285156,-0.087890625,3.2348633,3.2958984,-0.91552734,0.0,0.0,0.0,135.18127,82.38098,-172.58972
1766903051968,-0.98339844,0.08496094,-0.10107422,2.2583008,-0.61035156,0.61035156,0.0,0.0,0.0,135.18127,82.38098,-172.58972
1766903051979,-0.98339844,0.08496094,-0.10107422,2.2583008,-0.61035156,0.61035156,0.0,0.0,0.0,135.51636,82.38098,-172.58423
1766903052068,-0.9916992,0.095214844,-0.095703125,-0.4272461,0.9765625,0.8544922,0.0,0.0,0.0,135.51636,82.38098,-172.58423
1766903052079,-0.9916992,0.095214844,-0.095703125,-0.4272461,0.9765625,0.8544922,0.0,0.0,0.0,135.04944,82.33154,-173.34778
1766903052167,-0.9819336,0.095214844,-0.08886719,1.953125,1.4038086,0.61035156,0.0,0.0,0.0,135.04944,82.33154,-173.34778
1766903052179,-0.9819336,0.095214844,-0.08886719,1.953125,1.4038086,0.61035156,0.0,0.0,0.0,135.6427,82.161255,-173.07312
1766903052267,-1.0126953,0.10205078,-0.16699219,6.4697266,13.977051,0.12207031,0.0,0.0,0.0,135.6427,82.161255,-173.07312
1766903052278,-1.0126953,0.10205078,-0.16699219,6.4697266,13.977051,0.12207031,0.0,0.0,0.0,138.3728,81.7218,-170.93079
1766903052367,-1.0097656,0.07910156,-0.09863281,9.155273,14.160156,1.2817383,0.0,0.0,0.0,138.3728,81.7218,-170.93079
1766903052378,-1.0097656,0.07910156,-0.09863281,9.155273,14.160156,1.2817383,0.0,0.0,0.0,148.56262,80.00244,-162.19116
1766903052466,-0.99658203,0.08984375,-0.17675781,3.8452148,5.065918,3.2348633,0.0,0.0,0.0,148.56262,80.00244,-162.19116
1766903052478,-0.99658203,0.08984375,-0.17675781,3.8452148,5.065918,3.2348633,0.0,0.0,0.0,149.87,79.27734,-161.09802
1766903052566,-0.98291016,0.091308594,-0.17041016,3.7841797,1.7089844,1.4038086,0.0,0.0,0.0,149.87,79.27734,-161.09802
1766903052578,-0.98291016,0.091308594,-0.17041016,3.7841797,1.7089844,1.4038086,0.0,0.0,0.0,150.57861,78.931274,-160.98267
1766903052666,-0.97314453,0.080566406,-0.15966797,-1.5869141,-9.277344,2.1972656,0.0,0.0,0.0,150.57861,78.931274,-160.98267
1766903052677,-0.97314453,0.080566406,-0.15966797,-1.5869141,-9.277344,2.1972656,0.0,0.0,0.0,148.24402,79.348755,-163.58093
1766903052765,-0.9975586,0.11425781,-0.095703125,10.925293,3.112793,-2.380371,0.0,0.0,0.0,148.24402,79.348755,-163.58093
1766903052777,-0.9975586,0.11425781,-0.095703125,10.925293,3.112793,-2.380371,0.0,0.0,0.0,148.91418,79.42566,-163.70728
1766903052865,-0.99853516,0.083496094,-0.1586914,-3.0517578,-2.6245117,0.24414062,0.0,0.0,0.0,148.91418,79.42566,-163.70728
1766903052877,-0.99853516,0.083496094,-0.1586914,-3.0517578,-2.6245117,0.24414062,0.0,0.0,0.0,147.7002,79.7937,-165.00366
1766903052965,-0.99365234,0.08642578,-0.14453125,-1.8920898,-0.91552734,0.30517578,0.0,0.0,0.0,147.7002,79.7937,-165.00366
1766903052977,-0.99365234,0.08642578,-0.14453125,-1.8920898,-0.91552734,0.30517578,0.0,0.0,0.0,147.2168,79.80469,-165.3772
1766903053065,-0.99609375,0.087402344,-0.14355469,-1.953125,0.4272461,-0.18310547,0.0,0.0,0.0,147.2168,79.80469,-165.3772
1766903053076,-0.99609375,0.087402344,-0.14355469,-1.953125,0.4272461,-0.18310547,0.0,0.0,0.0,147.96936,79.77722,-164.66858
1766903053164,-0.9868164,0.08935547,-0.14501953,-1.5869141,1.953125,-0.9765625,0.0,0.0,0.0,147.96936,79.77722,-164.66858
1766903053176,-0.9868164,0.08935547,-0.14501953,-1.5869141,1.953125,-0.9765625,0.0,0.0,0.0,149.1394,79.60144,-163.47656
1766903053265,-0.97998047,0.08935547,-0.15478516,-3.6621094,0.61035156,-0.18310547,0.0,0.0,0.0,149.1394,79.60144,-163.47656
1766903053276,-0.97998047,0.08935547,-0.15478516,-3.6621094,0.61035156,-0.18310547,0.0,0.0,0.0,149.42505,79.56299,-162.99866
1766903053364,-0.9868164,0.088378906,-0.15576172,-1.0986328,0.36621094,-0.24414062,0.0,0.0,0.0,149.42505,79.56299,-162.99866
1766903053375,-0.9868164,0.088378906,-0.15576172,-1.0986328,0.36621094,-0.24414062,0.0,0.0,0.0,149.3811,79.541016,-162.9657
1766903053463,-0.9868164,0.10205078,-0.15917969,-0.61035156,-0.6713867,-0.12207031,0.0,0.0,0.0,149.3811,79.541016,-162.9657
1766903053475,-0.9868164,0.10205078,-0.15917969,-0.61035156,-0.6713867,-0.12207031,0.0,0.0,0.0,149.55139,79.552,-162.81738
1766903053563,-0.9760742,0.09277344,-0.15478516,1.2817383,-3.540039,1.4648438,0.0,0.0,0.0,149.55139,79.552,-162.81738
1766903053575,-0.9760742,0.09277344,-0.15478516,1.2817383,-3.540039,1.4648438,0.0,0.0,0.0,148.71094,79.63989,-163.70728
1766903053663,-0.9946289,0.095703125,-0.1538086,-0.61035156,-5.1879883,1.0375977,0.0,0.0,0.0,148.71094,79.63989,-163.70728
1766903053674,-0.9946289,0.095703125,-0.1538086,-0.61035156,-5.1879883,1.0375977,0.0,0.0,0.0,147.06299,79.89807,-165.44861
1766903053762,-0.99902344,0.087890625,-0.15625,0.0,-4.4555664,0.4272461,0.0,0.0,0.0,147.06299,79.89807,-165.44861
1766903053774,-0.99902344,0.087890625,-0.15625,0.0,-4.4555664,0.4272461,0.0,0.0,0.0,145.72266,80.18921,-167.05261
1766903053862,-0.98828125,0.087402344,-0.14208984,-2.5024414,-1.159668,0.30517578,0.0,0.0,0.0,145.72266,80.18921,-167.05261
1766903053874,-0.98828125,0.087402344,-0.14208984,-2.5024414,-1.159668,0.30517578,0.0,0.0,0.0,145.3711,80.25513,-167.6239
1766903053962,-0.99316406,0.09765625,-0.14208984,-2.4414062,0.12207031,0.12207031,0.0,0.0,0.0,145.3711,80.25513,-167.6239
1766903053974,-0.99316406,0.09765625,-0.14208984,-2.4414062,0.12207031,0.12207031,0.0,0.0,0.0,145.56885,80.1947,-167.4701
1766903054062,-0.98535156,0.09277344,-0.12451172,-0.18310547,0.0,0.30517578,0.0,0.0,0.0,145.56885,80.1947,-167.4701
1766903054073,-0.98535156,0.09277344,-0.12451172,-0.18310547,0.0,0.30517578,0.0,0.0,0.0,145.25024,80.17273,-167.75574
1766903054161,-0.9819336,0.10058594,-0.122558594,2.6855469,0.61035156,0.30517578,0.0,0.0,0.0,145.25024,80.17273,-167.75574
1766903054173,-0.9819336,0.10058594,-0.122558594,2.6855469,0.61035156,0.30517578,0.0,0.0,0.0,145.72266,80.06287,-167.34375
1766903054261,-0.99560547,0.103027344,-0.13916016,0.5493164,-2.8686523,1.2817383,0.0,0.0,0.0,145.72266,80.06287,-167.34375
1766903054273,-0.99560547,0.103027344,-0.13916016,0.5493164,-2.8686523,1.2817383,0.0,0.0,0.0,144.92615,80.13428,-168.15125
1766903054361,-0.9863281,0.099121094,-0.12890625,2.8076172,-0.24414062,0.8544922,0.0,0.0,0.0,144.92615,80.13428,-168.15125
1766903054372,-0.9863281,0.099121094,-0.12890625,2.8076172,-0.24414062,0.8544922,0.0,0.0,0.0,144.43726,80.13428,-168.80493
1766903054460,-0.9897461,0.103027344,-0.13085938,2.0141602,-1.953125,0.12207031,0.0,0.0,0.0,144.43726,80.13428,-168.80493
1766903054472,-0.9897461,0.103027344,-0.13085938,2.0141602,-1.953125,0.12207031,0.0,0.0,0.0,144.33289,80.17822,-169.11804
1766903054560,-0.984375,0.092285156,-0.13183594,2.9296875,0.061035156,-0.9765625,0.0,0.0,0.0,144.33289,80.17822,-169.11804
1766903054572,-0.984375,0.092285156,-0.13183594,2.9296875,0.061035156,-0.9765625,0.0,0.0,0.0,144.42078,80.2771,-169.28833
1766903054660,-0.9970703,0.08984375,-0.13330078,3.2348633,-0.18310547,-1.8920898,0.0,0.0,0.0,144.42078,80.2771,-169.28833
1766903054671,-0.9970703,0.08984375,-0.13330078,3.2348633,-0.18310547,-1.8920898,0.0,0.0,0.0,145.42053,80.38696,-168.57971
1766903054759,-0.98876953,0.078125,-0.1274414,1.7700195,0.4272461,-1.2817383,0.0,0.0,0.0,145.42053,80.38696,-168.57971
1766903054771,-0.98876953,0.078125,-0.1274414,1.7700195,0.4272461,-1.2817383,0.0,0.0,0.0,146.76086,80.441895,-167.44263
1766903054859,-0.99658203,0.07421875,-0.12988281,-0.61035156,-0.9765625,-1.0375977,0.0,0.0,0.0,146.76086,80.441895,-167.44263
1766903054871,-0.99658203,0.07421875,-0.12988281,-0.61035156,-0.9765625,-1.0375977,0.0,0.0,0.0,147.71667,80.53528,-166.56921
1766903054959,-0.9897461,0.079589844,-0.12451172,-2.380371,-0.61035156,-0.8544922,0.0,0.0,0.0,147.71667,80.53528,-166.56921
1766903054971,-0.9897461,0.079589844,-0.12451172,-2.380371,-0.61035156,-0.8544922,0.0,0.0,0.0,147.9419,80.650635,-166.27258
1766903055059,-0.99658203,0.08154297,-0.13720703,-3.6621094,-0.12207031,-0.4272461,0.0,0.0,0.0,147.9419,80.650635,-166.27258
1766903055070,-0.99658203,0.08154297,-0.13720703,-3.6621094,-0.12207031,-0.4272461,0.0,0.0,0.0,147.94739,80.74402,-166.0968
1766903055158,-0.9921875,0.09423828,-0.12597656,-2.6245117,1.5258789,-0.30517578,0.0,0.0,0.0,147.94739,80.74402,-166.0968
1766903055170,-0.9921875,0.09423828,-0.12597656,-2.6245117,1.5258789,-0.30517578,0.0,0.0,0.0,148.1836,80.6781,-165.67932
1766903055258,-0.93652344,0.068847656,-0.14111328,1.0375977,0.4272461,-0.79345703,0.0,0.0,0.0,148.1836,80.6781,-165.67932
1766903055270,-0.93652344,0.068847656,-0.14111328,1.0375977,0.4272461,-0.79345703,0.0,0.0,0.0,148.93066,80.45288,-164.75098
1766903055358,-1.0239258,0.08203125,-0.13964844,-0.18310547,-1.8920898,0.79345703,0.0,0.0,0.0,148.93066,80.45288,-164.75098
1766903055369,-1.0239258,0.08203125,-0.13964844,-0.18310547,-1.8920898,0.79345703,0.0,0.0,0.0,147.83203,80.8374,-165.88806
1766903055457,-0.96972656,0.06591797,-0.12109375,-5.004883,-0.12207031,1.4038086,0.0,0.0,0.0,147.83203,80.8374,-165.88806
1766903055469,-0.96972656,0.06591797,-0.12109375,-5.004883,-0.12207031,1.4038086,0.0,0.0,0.0,147.2937,80.69458,-166.28906
1766903055557,-0.9921875,0.109375,-0.14941406,-7.751465,-1.5258789,9.033203,0.0,0.0,0.0,147.2937,80.69458,-166.28906
1766903055569,-0.9921875,0.109375,-0.14941406,-7.751465,-1.5258789,9.033203,0.0,0.0,0.0,144.21753,80.458374,-168.96973
1766903055657,-0.99853516,0.1274414,-0.13720703,4.8828125,-0.48828125,0.91552734,0.0,0.0,0.0,144.21753,80.458374,-168.96973
1766903055668,-0.99853516,0.1274414,-0.13720703,4.8828125,-0.48828125,0.91552734,0.0,0.0,0.0,140.85022,80.25513,-172.4469
1766903055757,-0.98535156,0.09277344,-0.123046875,-2.380371,-3.6621094,-0.6713867,0.0,0.0,0.0,140.85022,80.25513,-172.4469
1766903055768,-0.98535156,0.09277344,-0.123046875,-2.380371,-3.6621094,-0.6713867,0.0,0.0,0.0,141.13037,80.4364,-172.56226
1766903055856,-0.99560547,0.09375,-0.11669922,5.432129,-2.2583008,0.9765625,0.0,0.0,0.0,141.13037,80.4364,-172.56226
1766903055868,-0.99560547,0.09375,-0.11669922,5.432129,-2.2583008,0.9765625,0.0,0.0,0.0,139.41101,80.667114,-174.48486
1766903055956,-0.99853516,0.09472656,-0.125,-4.8217773,-4.8217773,0.4272461,0.0,0.0,0.0,139.41101,80.667114,-174.48486
1766903055968,-0.99853516,0.09472656,-0.125,-4.8217773,-4.8217773,0.4272461,0.0,0.0,0.0,138.16956,80.88135,-175.94055
1766903056056,-1.0,0.10839844,-0.11279297,-0.91552734,-2.0141602,2.319336,0.0,0.0,0.0,138.16956,80.88135,-175.94055
1766903056067,-1.0,0.10839844,-0.11279297,-0.91552734,-2.0141602,2.319336,0.0,0.0,0.0,136.34033,80.980225,-177.63794
1766903056155,-0.97216797,0.11035156,-0.091308594,1.0986328,2.4414062,-0.30517578,0.0,0.0,0.0,136.34033,80.980225,-177.63794
1766903056167,-0.97216797,0.11035156,-0.091308594,1.0986328,2.4414062,-0.30517578,0.0,0.0,0.0,136.8457,80.787964,-177.22046
1766903056255,-1.0048828,0.110839844,-0.12451172,-0.12207031,-4.5166016,0.7324219,0.0,0.0,0.0,136.8457,80.787964,-177.22046
1766903056267,-1.0048828,0.110839844,-0.12451172,-0.12207031,-4.5166016,0.7324219,0.0,0.0,0.0,135.8844,80.88684,-178.15979
1766903056355,-0.9902344,0.09863281,-0.09716797,1.0375977,-0.8544922,0.4272461,0.0,0.0,0.0,135.8844,80.88684,-178.15979
1766903056366,-0.9902344,0.09863281,-0.09716797,1.0375977,-0.8544922,0.4272461,0.0,0.0,0.0,134.8352,80.96924,-179.42322
1766903056454,-0.9873047,0.099609375,-0.095703125,1.4648438,-0.18310547,-0.48828125,0.0,0.0,0.0,134.8352,80.96924,-179.42322
1766903056466,-0.9873047,0.099609375,-0.095703125,1.4648438,-0.18310547,-0.48828125,0.0,0.0,0.0,135.1593,81.0022,-179.29138
1766903056554,-1.0126953,0.10205078,-0.12792969,4.1503906,0.4272461,-0.18310547,0.0,0.0,0.0,135.1593,81.0022,-179.29138
1766903056566,-1.0126953,0.10205078,-0.12792969,4.1503906,0.4272461,-0.18310547,0.0,0.0,0.0,135.68665,81.068115,-179.0387
1766903056654,-1.0078125,0.09375,-0.08935547,5.065918,3.2348633,-1.2207031,0.0,0.0,0.0,135.68665,81.068115,-179.0387
1766903056665,-1.0078125,0.09375,-0.08935547,5.065918,3.2348633,-1.2207031,0.0,0.0,0.0,140.04272,80.78247,-175.30884
1766903056754,-0.9741211,0.09277344,-0.12109375,2.0141602,5.004883,0.0,0.0,0.0,0.0,140.04272,80.78247,-175.30884
1766903056765,-0.9741211,0.09277344,-0.12109375,2.0141602,5.004883,0.0,0.0,0.0,0.0,141.69067,80.56824,-173.69385
1766903056853,-0.99658203,0.107421875,-0.14453125,0.4272461,8.483887,1.5258789,0.0,0.0,0.0,141.69067,80.56824,-173.69385
1766903056865,-0.99658203,0.107421875,-0.14453125,0.4272461,8.483887,1.5258789,0.0,0.0,0.0,143.81653,79.92554,-171.4801
1766903056953,-0.99121094,0.099121094,-0.15234375,-4.3945312,3.2958984,1.3427734,0.0,0.0,0.0,143.81653,79.92554,-171.4801
1766903056964,-0.99121094,0.099121094,-0.15234375,-4.3945312,3.2958984,1.3427734,0.0,0.0,0.0,144.28894,79.50806,-170.68909
1766903057053,-0.9716797,0.109375,-0.15136719,-2.6855469,2.0141602,0.48828125,0.0,0.0,0.0,144.28894,79.50806,-170.68909
1766903057064,-0.9716797,0.109375,-0.15136719,-2.6855469,2.0141602,0.48828125,0.0,0.0,0.0,144.23401,79.32678,-170.37598
1766903057152,-0.98046875,0.110839844,-0.14794922,0.61035156,3.1738281,-0.91552734,0.0,0.0,0.0,144.23401,79.32678,-170.37598
1766903057164,-0.98046875,0.110839844,-0.14794922,0.61035156,3.1738281,-0.91552734,0.0,0.0,0.0,145.25024,79.09607,-169.23889
1766903057252,-0.98828125,0.12158203,-0.16210938,2.6855469,-0.36621094,-1.159668,0.0,0.0,0.0,145.25024,79.09607,-169.23889
1766903057264,-0.98828125,0.12158203,-0.16210938,2.6855469,-0.36621094,-1.159668,0.0,0.0,0.0,146.03577,79.019165,-168.43689
1766903057352,-0.9873047,0.099121094,-0.14746094,5.6152344,2.8076172,-2.6245117,0.0,0.0,0.0,146.03577,79.019165,-168.43689
1766903057363,-0.9873047,0.099121094,-0.14746094,5.6152344,2.8076172,-2.6245117,0.0,0.0,0.0,147.7716,79.02466,-167.01965
1766903057451,-0.98583984,0.09277344,-0.16064453,2.6855469,0.36621094,-2.746582,0.0,0.0,0.0,147.7716,79.02466,-167.01965
1766903057463,-0.98583984,0.09277344,-0.16064453,2.6855469,0.36621094,-2.746582,0.0,0.0,0.0,149.36462,79.019165,-165.58594
1766903057551,-0.9926758,0.08642578,-0.17480469,-4.0893555,1.2207031,-0.18310547,0.0,0.0,0.0,149.36462,79.019165,-165.58594
1766903057563,-0.9926758,0.08642578,-0.17480469,-4.0893555,1.2207031,-0.18310547,0.0,0.0,0.0,149.71619,79.09607,-165.06958
1766903057651,-0.9897461,0.08154297,-0.16113281,-5.6762695,5.065918,-0.36621094,0.0,0.0,0.0,149.71619,79.09607,-165.06958
1766903057662,-0.9897461,0.08154297,-0.16113281,-5.6762695,5.065918,-0.36621094,0.0,0.0,0.0,150.30396,78.80493,-164.22913
1766903057750,-0.9765625,0.1015625,-0.16894531,-4.0893555,2.1362305,-1.4038086,0.0,0.0,0.0,150.30396,78.80493,-164.22913
1766903057762,-0.9765625,0.1015625,-0.16894531,-4.0893555,2.1362305,-1.4038086,0.0,0.0,0.0,151.07849,78.6676,-163.17993
1766903057850,-0.9692383,0.09814453,-0.16552734,1.2207031,0.12207031,-1.8920898,0.0,0.0,0.0,151.07849,78.6676,-163.17993
1766903057862,-0.9692383,0.09814453,-0.16552734,1.2207031,0.12207031,-1.8920898,0.0,0.0,0.0,152.07825,78.65112,-162.04285
1766903057950,-0.9868164,0.09472656,-0.16308594,0.7324219,0.5493164,-1.5258789,0.0,0.0,0.0,152.07825,78.65112,-162.04285
1766903057961,-0.9868164,0.09472656,-0.16308594,0.7324219,0.5493164,-1.5258789,0.0,0.0,0.0,153.00659,78.72803,-161.14746
1766903058050,-0.97998047,0.08691406,-0.16699219,0.30517578,-1.5869141,0.8544922,0.0,0.0,0.0,153.00659,78.72803,-161.14746
1766903058061,-0.97998047,0.08691406,-0.16699219,0.30517578,-1.5869141,0.8544922,0.0,0.0,0.0,152.80884,78.777466,-161.31775
1766903058149,-1.0019531,0.09423828,-0.19042969,-2.1362305,-2.8686523,2.746582,0.0,0.0,0.0,152.80884,78.777466,-161.31775
1766903058161,-1.0019531,0.09423828,-0.19042969,-2.1362305,-2.8686523,2.746582,0.0,0.0,0.0,151.30371,78.914795,-162.76794
1766903058249,-0.98291016,0.092285156,-0.1743164,0.061035156,2.0751953,3.1738281,0.0,0.0,0.0,151.30371,78.914795,-162.76794
1766903058260,-0.98291016,0.092285156,-0.1743164,0.061035156,2.0751953,3.1738281,0.0,0.0,0.0,150.55664,78.60718,-163.64136
1766903058349,-0.9790039,0.10058594,-0.15771484,-2.5634766,-0.91552734,2.4414062,0.0,0.0,0.0,150.55664,78.60718,-163.64136
1766903058361,-0.9790039,0.10058594,-0.15771484,-2.5634766,-0.91552734,2.4414062,0.0,0.0,0.0,150.38635,78.21167,-163.87756
1766903058449,-0.98583984,0.10253906,-0.1743164,-5.432129,-7.873535,1.0375977,0.0,0.0,0.0,150.38635,78.21167,-163.87756
1766903058460,-0.98583984,0.10253906,-0.1743164,-5.432129,-7.873535,1.0375977,0.0,0.0,0.0,148.37585,78.48633,-165.68481
1766903058548,-0.9765625,0.106933594,-0.12109375,0.0,-3.2348633,-0.7324219,0.0,0.0,0.0,148.37585,78.48633,-165.68481
1766903058560,-0.9765625,0.106933594,-0.12109375,0.0,-3.2348633,-0.7324219,0.0,0.0,0.0,147.50244,78.810425,-166.55823
1766903058648,-0.9863281,0.09765625,-0.1459961,1.4648438,-2.1972656,-1.5258789,0.0,0.0,0.0,147.50244,78.810425,-166.55823
1766903058659,-0.9863281,0.09765625,-0.1459961,1.4648438,-2.1972656,-1.5258789,0.0,0.0,0.0,147.35413,79.09607,-166.81091
1766903058748,-0.9741211,0.103027344,-0.140625,0.7324219,-0.8544922,0.7324219,0.0,0.0,0.0,147.35413,79.09607,-166.81091
1766903058759,-0.9741211,0.103027344,-0.140625,0.7324219,-0.8544922,0.7324219,0.0,0.0,0.0,146.99707,79.28833,-167.16797
1766903058847,-0.99609375,0.10253906,-0.1459961,0.91552734,-3.3569336,-1.2207031,0.0,0.0,0.0,146.99707,79.28833,-167.16797
1766903058859,-0.99609375,0.10253906,-0.1459961,0.91552734,-3.3569336,-1.2207031,0.0,0.0,0.0,146.4093,79.46411,-167.83813
1766903058947,-0.9873047,0.10498047,-0.14355469,1.0375977,-0.79345703,-0.18310547,0.0,0.0,0.0,146.4093,79.46411,-167.83813
1766903058959,-0.9873047,0.10498047,-0.14355469,1.0375977,-0.79345703,-0.18310547,0.0,0.0,0.0,145.87646,79.70032,-168.38196
1766903059047,-0.99121094,0.09667969,-0.1352539,1.2817383,-0.36621094,-0.6713867,0.0,0.0,0.0,145.87646,79.70032,-168.38196
1766903059058,-0.99121094,0.09667969,-0.1352539,1.2817383,-0.36621094,-0.6713867,0.0,0.0,0.0,146.12366,79.72778,-168.2721
1766903059146,-0.97753906,0.09814453,-0.123046875,0.61035156,0.5493164,-0.5493164,0.0,0.0,0.0,146.12366,79.72778,-168.2721
1766903059158,-0.97753906,0.09814453,-0.123046875,0.61035156,0.5493164,-0.5493164,0.0,0.0,0.0,146.60156,79.749756,-167.77222
1766903059246,-0.98583984,0.099609375,-0.13916016,0.24414062,2.4414062,0.061035156,0.0,0.0,0.0,146.60156,79.749756,-167.77222
1766903059259,-0.98583984,0.099609375,-0.13916016,0.24414062,2.4414062,0.061035156,0.0,0.0,0.0,146.85425,79.694824,-167.44812
1766903059346,-0.9765625,0.092285156,-0.15039062,-3.6010742,2.6245117,0.6713867,0.0,0.0,0.0,146.85425,79.694824,-167.44812
1766903059358,-0.9765625,0.092285156,-0.15039062,-3.6010742,2.6245117,0.6713867,0.0,0.0,0.0,147.07397,79.51355,-167.05261
1766903059445,-0.98095703,0.10253906,-0.1381836,-2.0141602,2.746582,1.2817383,0.0,0.0,0.0,147.07397,79.51355,-167.05261
1766903059457,-0.98095703,0.10253906,-0.1381836,-2.0141602,2.746582,1.2817383,0.0,0.0,0.0,147.62878,79.23889,-166.30554
1766903059545,-0.9838867,0.100097656,-0.13476562,-0.9765625,6.8359375,0.061035156,0.0,0.0,0.0,147.62878,79.23889,-166.30554
1766903059557,-0.9838867,0.100097656,-0.13476562,-0.9765625,6.8359375,0.061035156,0.0,0.0,0.0,147.453,78.95325,-166.12976
1766903059645,-0.9707031,0.09667969,-0.17773438,-2.1972656,3.112793,-0.24414062,0.0,0.0,0.0,147.453,78.95325,-166.12976
1766903059657,-0.9707031,0.09667969,-0.17773438,-2.1972656,3.112793,-0.24414062,0.0,0.0,0.0,148.19458,78.65662,-165.08057
1766903059745,-0.98828125,0.1015625,-0.17480469,-2.2583008,-2.1972656,2.746582,0.0,0.0,0.0,148.19458,78.65662,-165.08057
1766903059756,-0.98828125,0.1015625,-0.17480469,-2.2583008,-2.1972656,2.746582,0.0,0.0,0.0,147.67273,78.5907,-165.49255
1766903059844,-0.97265625,0.115234375,-0.1538086,1.2817383,2.1972656,-0.7324219,0.0,0.0,0.0,147.67273,78.5907,-165.49255
1766903059856,-0.97265625,0.115234375,-0.1538086,1.2817383,2.1972656,-0.7324219,0.0,0.0,0.0,147.16187,78.52478,-166.0199
1766903059944,-0.9765625,0.11376953,-0.16699219,4.4555664,2.380371,-0.061035156,0.0,0.0,0.0,147.16187,78.52478,-166.0199
1766903059956,-0.9765625,0.11376953,-0.16699219,4.4555664,2.380371,-0.061035156,0.0,0.0,0.0,147.27173,78.47534,-165.99243
1766903060044,-0.98339844,0.10595703,-0.17333984,2.0751953,0.5493164,0.061035156,0.0,0.0,0.0,147.27173,78.47534,-165.99243
1766903060055,-0.98339844,0.10595703,-0.17333984,2.0751953,0.5493164,0.061035156,0.0,0.0,0.0,147.71118,78.409424,-165.7727
1766903060143,-0.9482422,0.10205078,-0.14697266,5.554199,1.5258789,1.4648438,0.0,0.0,0.0,147.71118,78.409424,-165.7727
1766903060155,-0.9482422,0.10205078,-0.14697266,5.554199,1.5258789,1.4648438,0.0,0.0,0.0,148.61206,78.167725,-165.17944
1766903060243,-0.99609375,0.119140625,-0.15722656,6.0424805,-2.5024414,-0.36621094,0.0,0.0,0.0,148.61206,78.167725,-165.17944
1766903060255,-0.99609375,0.119140625,-0.15722656,6.0424805,-2.5024414,-0.36621094,0.0,0.0,0.0,148.1781,78.29956,-165.97595
1766903060343,-0.9658203,0.09667969,-0.17382812,-2.0751953,-3.6010742,0.6713867,0.0,0.0,0.0,148.1781,78.29956,-165.97595
1766903060354,-0.9658203,0.09667969,-0.17382812,-2.0751953,-3.6010742,0.6713867,0.0,0.0,0.0,146.30493,78.54126,-167.79968
1766903060443,-0.97314453,0.12011719,-0.15576172,3.3569336,-1.7700195,0.30517578,0.0,0.0,0.0,146.30493,78.54126,-167.79968
1766903060454,-0.97314453,0.12011719,-0.15576172,3.3569336,-1.7700195,0.30517578,0.0,0.0,0.0,145.5304,78.777466,-168.67859
1766903060542,-0.9873047,0.096191406,-0.15478516,0.4272461,2.380371,-0.91552734,0.0,0.0,0.0,145.5304,78.777466,-168.67859
1766903060554,-0.9873047,0.096191406,-0.15478516,0.4272461,2.380371,-0.91552734,0.0,0.0,0.0,146.07971,78.71704,-168.48083
1766903060642,-0.97802734,0.11035156,-0.15478516,1.8310547,2.4414062,-1.8920898,0.0,0.0,0.0,146.07971,78.71704,-168.48083
1766903060654,-0.97802734,0.11035156,-0.15478516,1.8310547,2.4414062,-1.8920898,0.0,0.0,0.0,147.71118,78.706055,-167.10205
1766903060742,-0.98291016,0.10888672,-0.16992188,3.8452148,1.2207031,-0.48828125,0.0,0.0,0.0,147.71118,78.706055,-167.10205
1766903060753,-0.98291016,0.10888672,-0.16992188,3.8452148,1.2207031,-0.48828125,0.0,0.0,0.0,148.3374,78.6676,-166.55273
1766903060842,-0.99121094,0.09667969,-0.16308594,1.7089844,-0.8544922,-0.061035156,0.0,0.0,0.0,148.3374,78.6676,-166.55273
1766903060853,-0.99121094,0.09667969,-0.16308594,1.7089844,-0.8544922,-0.061035156,0.0,0.0,0.0,148.45825,78.72803,-166.62964
1766903060941,-0.9902344,0.095703125,-0.15966797,2.2583008,0.36621094,-0.36621094,0.0,0.0,0.0,148.45825,78.72803,-166.62964
1766903060953,-0.9902344,0.095703125,-0.15966797,2.2583008,0.36621094,-0.36621094,0.0,0.0,0.0,148.74939,78.73352,-166.51978
1766903061041,-0.98779297,0.08984375,-0.16308594,1.3427734,3.90625,-1.6479492,0.0,0.0,0.0,148.74939,78.73352,-166.51978
1766903061052,-0.98779297,0.08984375,-0.16308594,1.3427734,3.90625,-1.6479492,0.0,0.0,0.0,150.00183,78.585205,-165.40466
1766903061141,-0.97509766,0.100097656,-0.15820312,0.18310547,5.004883,-1.7700195,0.0,0.0,0.0,150.00183,78.585205,-165.40466
1766903061152,-0.97509766,0.100097656,-0.15820312,0.18310547,5.004883,-1.7700195,0.0,0.0,0.0,152.12769,78.255615,-163.26233
1766903061240,-0.984375,0.08691406,-0.17578125,-2.380371,1.3427734,-1.2817383,0.0,0.0,0.0,152.12769,78.255615,-163.26233
1766903061252,-0.984375,0.08691406,-0.17578125,-2.380371,1.3427734,-1.2817383,0.0,0.0,0.0,152.68799,78.20068,-162.41089
1766903061340,-0.9824219,0.096191406,-0.18408203,-0.6713867,2.1972656,-1.5258789,0.0,0.0,0.0,152.68799,78.20068,-162.41089
1766903061352,-0.9824219,0.096191406,-0.18408203,-0.6713867,2.1972656,-1.5258789,0.0,0.0,0.0,153.2373,78.15674,-161.57593
1766903061440,-0.97998047,0.09667969,-0.18798828,2.1362305,3.2348633,-1.7089844,0.0,0.0,0.0,153.2373,78.15674,-161.57593
1766903061451,-0.97998047,0.09667969,-0.18798828,2.1362305,3.2348633,-1.7089844,0.0,0.0,0.0,154.57764,78.00842,-160.19165
1766903061539,-0.9794922,0.084472656,-0.19873047,1.4038086,1.5869141,-0.5493164,0.0,0.0,0.0,154.57764,78.00842,-160.19165
1766903061551,-0.9794922,0.084472656,-0.19873047,1.4038086,1.5869141,-0.5493164,0.0,0.0,0.0,155.22034,77.821655,-159.61487
1766903061639,-0.9794922,0.08496094,-0.19482422,4.0283203,0.91552734,-3.7841797,0.0,0.0,0.0,155.22034,77.821655,-159.61487
1766903061651,-0.9794922,0.08496094,-0.19482422,4.0283203,0.91552734,-3.7841797,0.0,0.0,0.0,156.9397,77.83264,-158.20312
1766903061739,-0.9741211,0.072265625,-0.19726562,1.953125,0.0,-2.0751953,0.0,0.0,0.0,156.9397,77.83264,-158.20312
1766903061750,-0.9741211,0.072265625,-0.19726562,1.953125,0.0,-2.0751953,0.0,0.0,0.0,158.74695,77.84912,-156.57715
1766903061838,-0.9746094,0.056152344,-0.18554688,-2.380371,-0.79345703,0.0,0.0,0.0,0.0,158.74695,77.84912,-156.57715
1766903061850,-0.9746094,0.056152344,-0.18554688,-2.380371,-0.79345703,0.0,0.0,0.0,0.0,159.28528,77.805176,-156.00586
1766903061938,-0.9794922,0.075683594,-0.19482422,-2.6245117,-1.5869141,0.61035156,0.0,0.0,0.0,159.28528,77.805176,-156.00586
1766903061950,-0.9794922,0.075683594,-0.19482422,-2.6245117,-1.5869141,0.61035156,0.0,0.0,0.0,158.81836,77.89856,-156.2915
1766903062038,-0.9824219,0.06982422,-0.19238281,-0.061035156,-0.4272461,0.4272461,0.0,0.0,0.0,158.81836,77.89856,-156.2915
1766903062049,-0.9824219,0.06982422,-0.19238281,-0.061035156,-0.4272461,0.4272461,0.0,0.0,0.0,158.36792,78.00842,-156.74744
1766903062138,-0.98095703,0.08105469,-0.18261719,0.5493164,0.0,-0.061035156,0.0,0.0,0.0,158.36792,78.00842,-156.74744
1766903062149,-0.98095703,0.08105469,-0.18261719,0.5493164,0.0,-0.061035156,0.0,0.0,0.0,158.47778,78.00293,-156.72546
1766903062237,-0.98583984,0.07324219,-0.18408203,0.91552734,-0.91552734,-0.7324219,0.0,0.0,0.0,158.47778,78.00293,-156.72546
1766903062249,-0.98583984,0.07324219,-0.18408203,0.91552734,-0.91552734,-0.7324219,0.0,0.0,0.0,158.37341,78.1073,-156.96716
1766903062337,-0.9902344,0.07128906,-0.19628906,-0.7324219,0.36621094,-0.30517578,0.0,0.0,0.0,158.37341,78.1073,-156.96716
1766903062348,-0.9902344,0.07128906,-0.19628906,-0.7324219,0.36621094,-0.30517578,0.0,0.0,0.0,158.36243,78.22266,-157.08801
1766903062437,-0.9794922,0.080566406,-0.1743164,-0.4272461,-0.61035156,1.5869141,0.0,0.0,0.0,158.36243,78.22266,-157.08801
1766903062448,-0.9794922,0.080566406,-0.1743164,-0.4272461,-0.61035156,1.5869141,0.0,0.0,0.0,158.31299,78.09082,-157.07153
1766903062536,-0.9902344,0.078125,-0.19628906,-4.272461,0.0,4.4555664,0.0,0.0,0.0,158.31299,78.09082,-157.07153
1766903062548,-0.9902344,0.078125,-0.19628906,-4.272461,0.0,4.4555664,0.0,0.0,0.0,156.46179,78.11279,-158.56567
1766903062636,-0.9765625,0.092285156,-0.18847656,-0.6713867,1.953125,2.746582,0.0,0.0,0.0,156.46179,78.11279,-158.56567
1766903062648,-0.9765625,0.092285156,-0.18847656,-0.6713867,1.953125,2.746582,0.0,0.0,0.0,155.1654,77.76672,-159.69177
1766903062736,-0.97998047,0.091796875,-0.19238281,-3.2348633,1.5258789,1.159668,0.0,0.0,0.0,155.1654,77.76672,-159.69177
1766903062747,-0.97998047,0.091796875,-0.19238281,-3.2348633,1.5258789,1.159668,0.0,0.0,0.0,154.53918,77.53601,-160.21362
1766903062836,-0.9716797,0.104003906,-0.19384766,-0.91552734,1.8310547,-0.48828125,0.0,0.0,0.0,154.53918,77.53601,-160.21362
1766903062847,-0.9716797,0.104003906,-0.19384766,-0.91552734,1.8310547,-0.48828125,0.0,0.0,0.0,154.56116,77.35474,-160.01587
1766903062935,-0.98046875,0.09277344,-0.19384766,-1.4648438,-1.953125,-0.8544922,0.0,0.0,0.0,154.56116,77.35474,-160.01587
1766903062948,-0.98046875,0.09277344,-0.19384766,-1.4648438,-1.953125,-0.8544922,0.0,0.0,0.0,154.63806,77.371216,-159.85657
1766903063035,-1.0014648,0.09472656,-0.18359375,0.5493164,1.4038086,-2.1362305,0.0,0.0,0.0,154.63806,77.371216,-159.85657
1766903063046,-1.0014648,0.09472656,-0.18359375,0.5493164,1.4038086,-2.1362305,0.0,0.0,0.0,155.07202,77.475586,-159.45007
1766903063135,-0.98583984,0.087890625,-0.19970703,0.24414062,-0.5493164,-1.4038086,0.0,0.0,0.0,155.07202,77.475586,-159.45007
1766903063146,-0.98583984,0.087890625,-0.19970703,0.24414062,-0.5493164,-1.4038086,0.0,0.0,0.0,155.66528,77.6239,-158.97766
1766903063234,-0.99365234,0.09277344,-0.20898438,1.8310547,1.2207031,0.0,0.0,0.0,0.0,155.66528,77.6239,-158.97766
1766903063246,-0.99365234,0.09277344,-0.20898438,1.8310547,1.2207031,0.0,0.0,0.0,0.0,155.81909,77.717285,-158.84033
1766903063334,-0.96533203,0.08642578,-0.19140625,2.4414062,3.0517578,0.91552734,0.0,0.0,0.0,155.81909,77.717285,-158.84033
1766903063346,-0.96533203,0.08642578,-0.19140625,2.4414062,3.0517578,0.91552734,0.0,0.0,0.0,156.20361,77.43164,-158.68103
1766903063434,-0.9790039,0.08935547,-0.19824219,2.746582,0.79345703,0.8544922,0.0,0.0,0.0,156.20361,77.43164,-158.68103
1766903063446,-0.9790039,0.08935547,-0.19824219,2.746582,0.79345703,0.8544922,0.0,0.0,0.0,156.09924,77.28882,-158.97766
1766903063533,-0.97802734,0.07910156,-0.19921875,1.6479492,0.5493164,0.0,0.0,0.0,0.0,156.09924,77.28882,-158.97766
1766903063545,-0.97802734,0.07910156,-0.19921875,1.6479492,0.5493164,0.0,0.0,0.0,0.0,156.32996,77.20093,-159.01062
1766903063633,-0.9838867,0.087402344,-0.19189453,2.1362305,0.30517578,-1.0375977,0.0,0.0,0.0,156.32996,77.20093,-159.01062
1766903063645,-0.9838867,0.087402344,-0.19189453,2.1362305,0.30517578,-1.0375977,0.0,0.0,0.0,156.80237,77.2229,-158.74695
1766903063733,-0.97509766,0.080566406,-0.19970703,1.953125,1.7089844,-2.6855469,0.0,0.0,0.0,156.80237,77.2229,-158.74695
1766903063744,-0.97509766,0.080566406,-0.19970703,1.953125,1.7089844,-2.6855469,0.0,0.0,0.0,157.91748,77.25586,-157.86255
1766903063833,-0.9790039,0.08203125,-0.19140625,2.2583008,0.18310547,-2.6245117,0.0,0.0,0.0,157.91748,77.25586,-157.86255
1766903063844,-0.9790039,0.08203125,-0.19140625,2.2583008,0.18310547,-2.6245117,0.0,0.0,0.0,158.99414,77.34375,-156.9342
1766903063932,-0.99365234,0.07373047,-0.19384766,1.4648438,1.4038086,-1.5258789,0.0,0.0,0.0,158.99414,77.34375,-156.9342
1766903063944,-0.99365234,0.07373047,-0.19384766,1.4648438,1.4038086,-1.5258789,0.0,0.0,0.0,159.54895,77.49756,-156.56616
1766903064033,-0.9873047,0.06591797,-0.21484375,1.0986328,2.1972656,0.24414062,0.0,0.0,0.0,159.54895,77.49756,-156.56616
1766903064044,-0.9873047,0.06591797,-0.21484375,1.0986328,2.1972656,0.24414062,0.0,0.0,0.0,159.92249,77.47009,-156.23108
1766903064132,-0.98046875,0.06542969,-0.2006836,0.0,1.8920898,1.0375977,0.0,0.0,0.0,159.92249,77.47009,-156.23108
1766903064143,-0.98046875,0.06542969,-0.2006836,0.0,1.8920898,1.0375977,0.0,0.0,0.0,160.64209,77.195435,-155.7367
1766903064231,-0.9707031,0.072753906,-0.19921875,-9.94873,-13.61084,4.272461,0.0,0.0,0.0,160.64209,77.195435,-155.7367
1766903064243,-0.9707031,0.072753906,-0.19921875,-9.94873,-13.61084,4.272461,0.0,0.0,0.0,158.59863,77.579956,-157.48352
1766903064331,-0.9790039,0.084472656,-0.16894531,-0.18310547,-0.5493164,1.5869141,0.0,0.0,0.0,158.59863,77.579956,-157.48352
1766903064343,-0.9790039,0.084472656,-0.16894531,-0.18310547,-0.5493164,1.5869141,0.0,0.0,0.0,156.18164,78.0249,-159.70825
1766903064431,-0.9848633,0.09033203,-0.19628906,-3.7231445,-3.1738281,1.2207031,0.0,0.0,0.0,156.18164,78.0249,-159.70825
1766903064442,-0.9848633,0.09033203,-0.19628906,-3.7231445,-3.1738281,1.2207031,0.0,0.0,0.0,154.9347,78.10181,-160.74097
1766903064530,-0.98876953,0.08154297,-0.19189453,-3.1738281,-3.8452148,0.24414062,0.0,0.0,0.0,154.9347,78.10181,-160.74097
1766903064542,-0.98876953,0.08154297,-0.19189453,-3.1738281,-3.8452148,0.24414062,0.0,0.0,0.0,154.14368,78.28308,-161.4331
1766903064630,-0.97998047,0.091308594,-0.17089844,-2.1362305,-2.5634766,1.3427734,0.0,0.0,0.0,154.14368,78.28308,-161.4331
1766903064642,-0.97998047,0.091308594,-0.17089844,-2.1362305,-2.5634766,1.3427734,0.0,0.0,0.0,153.20435,78.42041,-162.30103
1766903064730,-0.97558594,0.080078125,-0.17480469,-1.5869141,-0.12207031,1.5258789,0.0,0.0,0.0,153.20435,78.42041,-162.30103
1766903064741,-0.97558594,0.080078125,-0.17480469,-1.5869141,-0.12207031,1.5258789,0.0,0.0,0.0,152.17163,78.497314,-163.32825
1766903064830,-0.9824219,0.10107422,-0.16503906,0.12207031,-1.2817383,0.48828125,0.0,0.0,0.0,152.17163,78.497314,-163.32825
1766903064841,-0.9824219,0.10107422,-0.16503906,0.12207031,-1.2817383,0.48828125,0.0,0.0,0.0,151.474,78.56323,-164.04785
1766903064929,-0.9873047,0.10986328,-0.15478516,2.319336,0.0,-1.8920898,0.0,0.0,0.0,151.474,78.56323,-164.04785
1766903064941,-0.9873047,0.10986328,-0.15478516,2.319336,0.0,-1.8920898,0.0,0.0,0.0,151.00708,78.74451,-164.70154
1766903065029,-0.9638672,0.09472656,-0.14208984,3.90625,0.24414062,-1.159668,0.0,0.0,0.0,151.00708,78.74451,-164.70154
1766903065041,-0.9638672,0.09472656,-0.14208984,3.90625,0.24414062,-1.159668,0.0,0.0,0.0,151.5564,78.86536,-164.4104
1766903065129,-0.99121094,0.08984375,-0.15429688,1.2207031,-0.30517578,1.2817383,0.0,0.0,0.0,151.5564,78.86536,-164.4104
1766903065140,-0.99121094,0.08984375,-0.15429688,1.2207031,-0.30517578,1.2817383,0.0,0.0,0.0,150.9851,79.03015,-165.07507
1766903065228,-0.97265625,0.08984375,-0.14501953,2.746582,0.30517578,0.12207031,0.0,0.0,0.0,150.9851,79.03015,-165.07507
1766903065240,-0.97265625,0.08984375,-0.14501953,2.746582,0.30517578,0.12207031,0.0,0.0,0.0,150.55115,79.04114,-165.62439
1766903065328,-0.9921875,0.10449219,-0.15625,4.333496,-0.18310547,0.36621094,0.0,0.0,0.0,150.55115,79.04114,-165.62439
1766903065340,-0.9921875,0.10449219,-0.15625,4.333496,-0.18310547,0.36621094,0.0,0.0,0.0,149.73267,79.17297,-166.53625
1766903065428,-0.98828125,0.08300781,-0.15966797,5.004883,-0.061035156,-1.5869141,0.0,0.0,0.0,149.73267,79.17297,-166.53625
1766903065439,-0.98828125,0.08300781,-0.15966797,5.004883,-0.061035156,-1.5869141,0.0,0.0,0.0,150.60608,79.22241,-166.14624
1766903065528,-0.9951172,0.075683594,-0.14550781,0.0,2.6245117,3.1738281,0.0,0.0,0.0,150.60608,79.22241,-166.14624
1766903065539,-0.9951172,0.075683594,-0.14550781,0.0,2.6245117,3.1738281,0.0,0.0,0.0,151.32019,79.019165,-165.66284
1766903065627,-0.99560547,0.07080078,-0.17285156,-3.0517578,2.380371,3.2958984,0.0,0.0,0.0,151.32019,79.019165,-165.66284
1766903065639,-0.99560547,0.07080078,-0.17285156,-3.0517578,2.380371,3.2958984,0.0,0.0,0.0,150.12817,78.64014,-166.88782
1766903065727,-0.9946289,0.09667969,-0.1796875,-2.1362305,1.7089844,1.953125,0.0,0.0,0.0,150.12817,78.64014,-166.88782
1766903065739,-0.9946289,0.09667969,-0.1796875,-2.1362305,1.7089844,1.953125,0.0,0.0,0.0,150.21057,78.37097,-166.84387
1766903065827,-0.98095703,0.10839844,-0.16455078,-1.0375977,2.746582,0.9765625,0.0,0.0,0.0,150.21057,78.37097,-166.84387
1766903065838,-0.98095703,0.10839844,-0.16455078,-1.0375977,2.746582,0.9765625,0.0,0.0,0.0,150.8313,77.98645,-166.26709
1766903065926,-0.9873047,0.09423828,-0.1850586,-5.554199,-0.24414062,1.4038086,0.0,0.0,0.0,150.8313,77.98645,-166.26709
1766903065938,-0.9873047,0.09423828,-0.1850586,-5.554199,-0.24414062,1.4038086,0.0,0.0,0.0,150.23804,77.84363,-166.52527
1766903066027,-0.9785156,0.11376953,-0.17285156,-2.4414062,0.36621094,-0.30517578,0.0,0.0,0.0,150.23804,77.84363,-166.52527
1766903066038,-0.9785156,0.11376953,-0.17285156,-2.4414062,0.36621094,-0.30517578,0.0,0.0,0.0,150.44128,77.73926,-166.09131
1766903066126,-0.98046875,0.115722656,-0.19140625,-1.7700195,3.479004,-0.24414062,0.0,0.0,0.0,150.44128,77.73926,-166.09131
1766903066137,-0.98046875,0.115722656,-0.19140625,-1.7700195,3.479004,-0.24414062,0.0,0.0,0.0,150.5951,77.58545,-165.67383
1766903066226,-0.9736328,0.109375,-0.19238281,-0.6713867,4.333496,0.36621094,0.0,0.0,0.0,150.5951,77.58545,-165.67383
1766903066237,-0.9736328,0.109375,-0.19238281,-0.6713867,4.333496,0.36621094,0.0,0.0,0.0,151.03455,77.25037,-165.0531
1766903066325,-0.97998047,0.123046875,-0.20361328,0.7324219,2.6855469,-1.3427734,0.0,0.0,0.0,151.03455,77.25037,-165.0531
1766903066337,-0.97998047,0.123046875,-0.20361328,0.7324219,2.6855469,-1.3427734,0.0,0.0,0.0,151.7981,76.99219,-164.22913
1766903066425,-0.9760742,0.103027344,-0.20214844,2.8076172,-0.61035156,-3.7841797,0.0,0.0,0.0,151.7981,76.99219,-164.22913
1766903066437,-0.9760742,0.103027344,-0.20214844,2.8076172,-0.61035156,-3.7841797,0.0,0.0,0.0,152.68799,77.11304,-163.39417
1766903066525,-0.9746094,0.09716797,-0.1928711,4.0893555,0.36621094,-5.79834,0.0,0.0,0.0,152.68799,77.11304,-163.39417
1766903066536,-0.9746094,0.09716797,-0.1928711,4.0893555,0.36621094,-5.79834,0.0,0.0,0.0,154.95117,77.32178,-161.3617
1766903066625,-0.984375,0.07421875,-0.19384766,-0.7324219,-1.2817383,-6.225586,0.0,0.0,0.0,154.95117,77.32178,-161.3617
1766903066636,-0.984375,0.07421875,-0.19384766,-0.7324219,-1.2817383,-6.225586,0.0,0.0,0.0,157.36816,77.60193,-158.96118
1766903066724,-0.97558594,0.071777344,-0.19628906,-4.272461,0.24414062,-5.004883,0.0,0.0,0.0,157.36816,77.60193,-158.96118
1766903066736,-0.97558594,0.071777344,-0.19628906,-4.272461,0.24414062,-5.004883,0.0,0.0,0.0,159.45007,77.838135,-156.50024
1766903066824,-0.97314453,0.07080078,-0.19921875,-3.112793,-1.4648438,-4.272461,0.0,0.0,0.0,159.45007,77.838135,-156.50024
1766903066835,-0.97314453,0.07080078,-0.19921875,-3.112793,-1.4648438,-4.272461,0.0,0.0,0.0,161.0321,78.030396,-154.45679
1766903066924,-0.98535156,0.063964844,-0.19238281,0.8544922,-1.159668,-3.2348633,0.0,0.0,0.0,161.0321,78.030396,-154.45679
1766903066935,-0.98535156,0.063964844,-0.19238281,0.8544922,-1.159668,-3.2348633,0.0,0.0,0.0,162.6471,78.15674,-152.63855
1766903067023,-0.98828125,0.05029297,-0.22460938,-1.6479492,-3.112793,0.61035156,0.0,0.0,0.0,162.6471,78.15674,-152.63855
1766903067035,-0.98828125,0.05029297,-0.22460938,-1.6479492,-3.112793,0.61035156,0.0,0.0,0.0,162.90527,78.32703,-152.18811
1766903067123,-0.9770508,0.060546875,-0.18701172,3.6621094,0.12207031,1.7089844,0.0,0.0,0.0,162.90527,78.32703,-152.18811
1766903067135,-0.9770508,0.060546875,-0.18701172,3.6621094,0.12207031,1.7089844,0.0,0.0,0.0,163.01514,78.19519,-152.36938
1766903067223,-0.97802734,0.0703125,-0.18017578,6.0424805,-2.1972656,2.0141602,0.0,0.0,0.0,163.01514,78.19519,-152.36938
1766903067234,-0.97802734,0.0703125,-0.18017578,6.0424805,-2.1972656,2.0141602,0.0,0.0,0.0,162.77344,78.14026,-153.14941
1766903067322,-0.9873047,0.046875,-0.18261719,7.751465,-0.91552734,1.8310547,0.0,0.0,0.0,162.77344,78.14026,-153.14941
1766903067334,-0.9873047,0.046875,-0.18261719,7.751465,-0.91552734,1.8310547,0.0,0.0,0.0,162.21863,78.239136,-154.48975
1766903067422,-0.9897461,0.05078125,-0.1875,5.6762695,-0.061035156,-0.4272461,0.0,0.0,0.0,162.21863,78.239136,-154.48975
1766903067434,-0.9897461,0.05078125,-0.1875,5.6762695,-0.061035156,-0.4272461,0.0,0.0,0.0,162.58667,78.272095,-154.90173
1766903067522,-0.98095703,0.03955078,-0.18017578,4.638672,-0.18310547,-1.7089844,0.0,0.0,0.0,162.58667,78.272095,-154.90173
1766903067533,-0.98095703,0.03955078,-0.18017578,4.638672,-0.18310547,-1.7089844,0.0,0.0,0.0,164.04785,78.2666,-154.10522
1766903067622,-0.9790039,0.045410156,-0.1772461,-2.8076172,-3.0517578,-0.61035156,0.0,0.0,0.0,164.04785,78.2666,-154.10522
1766903067633,-0.9790039,0.045410156,-0.1772461,-2.8076172,-3.0517578,-0.61035156,0.0,0.0,0.0,164.85535,78.42041,-153.34167
1766903067721,-0.97753906,0.05078125,-0.1772461,-2.8686523,0.24414062,-1.0986328,0.0,0.0,0.0,164.85535,78.42041,-153.34167
1766903067733,-0.97753906,0.05078125,-0.1772461,-2.8686523,0.24414062,-1.0986328,0.0,0.0,0.0,165.24536,78.497314,-152.72644
1766903067821,-0.98339844,0.04736328,-0.17773438,-0.5493164,-0.6713867,-0.8544922,0.0,0.0,0.0,165.24536,78.497314,-152.72644
1766903067833,-0.98339844,0.04736328,-0.17773438,-0.5493164,-0.6713867,-0.8544922,0.0,0.0,0.0,165.64636,78.568726,-152.1222
1766903067921,-0.98828125,0.05029297,-0.18896484,0.12207031,-0.6713867,-0.4272461,0.0,0.0,0.0,165.64636,78.568726,-152.1222
1766903067932,-0.98828125,0.05029297,-0.18896484,0.12207031,-0.6713867,-0.4272461,0.0,0.0,0.0,165.58044,78.71704,-152.10022
1766903068020,-0.99072266,0.04638672,-0.17578125,1.6479492,-0.61035156,0.4272461,0.0,0.0,0.0,165.58044,78.71704,-152.10022
1766903068032,-0.99072266,0.04638672,-0.17578125,1.6479492,-0.61035156,0.4272461,0.0,0.0,0.0,165.67932,78.73352,-152.1112
1766903068121,-0.9902344,0.045410156,-0.18017578,-2.0141602,0.61035156,0.48828125,0.0,0.0,0.0,165.67932,78.73352,-152.1112
1766903068132,-0.9902344,0.045410156,-0.18017578,-2.0141602,0.61035156,0.48828125,0.0,0.0,0.0,165.36621,78.83789,-152.61108
1766903068220,-0.9682617,0.05078125,-0.17236328,1.5258789,1.8310547,0.79345703,0.0,0.0,0.0,165.36621,78.83789,-152.61108
1766903068231,-0.9682617,0.05078125,-0.17236328,1.5258789,1.8310547,0.79345703,0.0,0.0,0.0,165.35522,78.71704,-152.79236
1766903068320,-0.97753906,0.048339844,-0.18554688,1.4038086,4.699707,0.4272461,0.0,0.0,0.0,165.35522,78.71704,-152.79236
1766903068331,-0.97753906,0.048339844,-0.18554688,1.4038086,4.699707,0.4272461,0.0,0.0,0.0,164.86084,78.55774,-153.36365
1766903068419,-0.98046875,0.044921875,-0.19335938,0.061035156,1.5869141,1.0986328,0.0,0.0,0.0,164.86084,78.55774,-153.36365
1766903068431,-0.98046875,0.044921875,-0.19335938,0.061035156,1.5869141,1.0986328,0.0,0.0,0.0,165.0531,78.272095,-153.36914
1766903068519,-0.97802734,0.05419922,-0.19042969,0.12207031,1.0986328,0.61035156,0.0,0.0,0.0,165.0531,78.272095,-153.36914
1766903068531,-0.97802734,0.05419922,-0.19042969,0.12207031,1.0986328,0.61035156,0.0,0.0,0.0,164.83887,78.151245,-153.67126
1766903068619,-0.9838867,0.051757812,-0.19677734,-1.2817383,0.061035156,0.4272461,0.0,0.0,0.0,164.83887,78.151245,-153.67126
1766903068631,-0.9838867,0.051757812,-0.19677734,-1.2817383,0.061035156,0.4272461,0.0,0.0,0.0,164.61365,78.12378,-153.92944
1766903068718,-0.9814453,0.057617188,-0.1928711,-2.5024414,1.4648438,-0.4272461,0.0,0.0,0.0,164.61365,78.12378,-153.92944
1766903068730,-0.9814453,0.057617188,-0.1928711,-2.5024414,1.4648438,-0.4272461,0.0,0.0,0.0,164.45435,78.12927,-154.03381
1766903068818,-0.97998047,0.0625,-0.18798828,-1.5258789,0.5493164,-0.24414062,0.0,0.0,0.0,164.45435,78.12927,-154.03381
1766903068829,-0.97998047,0.0625,-0.18798828,-1.5258789,0.5493164,-0.24414062,0.0,0.0,0.0,164.71252,78.030396,-153.69873
1766903068918,-0.98046875,0.05078125,-0.20361328,-0.91552734,0.0,0.91552734,0.0,0.0,0.0,164.71252,78.030396,-153.69873
1766903068929,-0.98046875,0.05078125,-0.20361328,-0.91552734,0.0,0.91552734,0.0,0.0,0.0,164.18518,78.04138,-154.06128
1766903069017,-0.98291016,0.06933594,-0.17871094,-1.953125,-2.2583008,1.2817383,0.0,0.0,0.0,164.18518,78.04138,-154.06128
1766903069029,-0.98291016,0.06933594,-0.17871094,-1.953125,-2.2583008,1.2817383,0.0,0.0,0.0,163.63037,78.05786,-154.5282
1766903069117,-0.984375,0.06640625,-0.1928711,-1.4038086,-2.319336,1.8310547,0.0,0.0,0.0,163.63037,78.05786,-154.5282
1766903069129,-0.984375,0.06640625,-0.1928711,-1.4038086,-2.319336,1.8310547,0.0,0.0,0.0,162.46033,78.20618,-155.5719
1766903069217,-0.9873047,0.06298828,-0.20214844,-0.79345703,2.380371,1.159668,0.0,0.0,0.0,162.46033,78.20618,-155.5719
1766903069228,-0.9873047,0.06298828,-0.20214844,-0.79345703,2.380371,1.159668,0.0,0.0,0.0,161.6803,78.118286,-156.297
1766903069316,-0.98046875,0.06640625,-0.19433594,-1.8920898,0.24414062,1.4648438,0.0,0.0,0.0,161.6803,78.118286,-156.297
1766903069328,-0.98046875,0.06640625,-0.19433594,-1.8920898,0.24414062,1.4648438,0.0,0.0,0.0,161.2793,77.91504,-156.62659
1766903069416,-0.9838867,0.064453125,-0.20410156,-1.2207031,2.0141602,1.0986328,0.0,0.0,0.0,161.2793,77.91504,-156.62659
1766903069428,-0.9838867,0.064453125,-0.20410156,-1.2207031,2.0141602,1.0986328,0.0,0.0,0.0,160.92224,77.717285,-156.90674
1766903069516,-0.9819336,0.07324219,-0.20996094,-2.8686523,1.4648438,1.3427734,0.0,0.0,0.0,160.92224,77.717285,-156.90674
1766903069527,-0.9819336,0.07324219,-0.20996094,-2.8686523,1.4648438,1.3427734,0.0,0.0,0.0,160.62012,77.44263,-157.03857
1766903069616,-0.9765625,0.079589844,-0.2084961,-1.4038086,1.0375977,1.4648438,0.0,0.0,0.0,160.62012,77.44263,-157.03857
1766903069627,-0.9765625,0.079589844,-0.2084961,-1.4038086,1.0375977,1.4648438,0.0,0.0,0.0,160.30151,77.2229,-157.28027
1766903069715,-0.97802734,0.07861328,-0.2109375,-0.30517578,0.79345703,0.9765625,0.0,0.0,0.0,160.30151,77.2229,-157.28027
1766903069727,-0.97802734,0.07861328,-0.2109375,-0.30517578,0.79345703,0.9765625,0.0,0.0,0.0,159.93347,77.06909,-157.62085
1766903069815,-0.9741211,0.08203125,-0.203125,0.5493164,-0.6713867,0.5493164,0.0,0.0,0.0,159.93347,77.06909,-157.62085
1766903069827,-0.9741211,0.08203125,-0.203125,0.5493164,-0.6713867,0.5493164,0.0,0.0,0.0,159.71375,77.04712,-157.91748
1766903069915,-0.97753906,0.079589844,-0.19873047,1.2207031,-1.3427734,0.18310547,0.0,0.0,0.0,159.71375,77.04712,-157.91748
1766903069926,-0.97753906,0.079589844,-0.19873047,1.2207031,-1.3427734,0.18310547,0.0,0.0,0.0,159.47754,77.11853,-158.24158
1766903070014,-0.9814453,0.071777344,-0.19091797,2.1362305,-1.3427734,-0.12207031,0.0,0.0,0.0,159.47754,77.11853,-158.24158
1766903070026,-0.9814453,0.071777344,-0.19091797,2.1362305,-1.3427734,-0.12207031,0.0,0.0,0.0,159.60388,77.18994,-158.28003
1766903070114,-0.9848633,0.07519531,-0.20361328,-0.61035156,-2.9907227,0.061035156,0.0,0.0,0.0,159.60388,77.18994,-158.28003
1766903070126,-0.9848633,0.07519531,-0.20361328,-0.61035156,-2.9907227,0.061035156,0.0,0.0,0.0,159.43909,77.37671,-158.45032
1766903070214,-0.98095703,0.07519531,-0.19921875,0.30517578,-0.24414062,-0.30517578,0.0,0.0,0.0,159.43909,77.37671,-158.45032
1766903070225,-0.98095703,0.07519531,-0.19921875,0.30517578,-0.24414062,-0.30517578,0.0,0.0,0.0,159.57092,77.43164,-158.36792
1766903070314,-0.97998047,0.07519531,-0.19873047,-0.91552734,0.061035156,-0.12207031,0.0,0.0,0.0,159.57092,77.43164,-158.36792
1766903070325,-0.97998047,0.07519531,-0.19873047,-0.91552734,0.061035156,-0.12207031,0.0,0.0,0.0,159.69727,77.40967,-158.21411
1766903070413,-0.9794922,0.07324219,-0.1977539,0.4272461,1.3427734,-0.30517578,0.0,0.0,0.0,159.69727,77.40967,-158.21411
1766903070425,-0.9794922,0.07324219,-0.1977539,0.4272461,1.3427734,-0.30517578,0.0,0.0,0.0,159.97742,77.32727,-157.95593
1766903070513,-0.97753906,0.07421875,-0.20166016,0.4272461,1.159668,-0.24414062,0.0,0.0,0.0,159.97742,77.32727,-157.95593
1766903070525,-0.97753906,0.07421875,-0.20166016,0.4272461,1.159668,-0.24414062,0.0,0.0,0.0,160.35645,77.21741,-157.60986
1766903070613,-0.9707031,0.0703125,-0.20800781,2.0751953,1.159668,-0.48828125,0.0,0.0,0.0,160.35645,77.21741,-157.60986
1766903070624,-0.9707031,0.0703125,-0.20800781,2.0751953,1.159668,-0.48828125,0.0,0.0,0.0,160.74097,77.13501,-157.28027
1766903070712,-0.9794922,0.07421875,-0.19677734,0.61035156,-1.3427734,-0.061035156,0.0,0.0,0.0,160.74097,77.13501,-157.28027
1766903070724,-0.9794922,0.07421875,-0.19677734,0.61035156,-1.3427734,-0.061035156,0.0,0.0,0.0,161.13647,77.15149,-156.97266
1766903070812,-0.9819336,0.06933594,-0.21435547,-0.61035156,1.7089844,-0.4272461,0.0,0.0,0.0,161.13647,77.15149,-156.97266
1766903070824,-0.9819336,0.06933594,-0.21435547,-0.61035156,1.7089844,-0.4272461,0.0,0.0,0.0,161.1914,77.15698,-156.89026
1766903070912,-0.9746094,0.06933594,-0.21142578,-2.5634766,0.91552734,-0.18310547,0.0,0.0,0.0,161.1914,77.15698,-156.89026
1766903070923,-0.9746094,0.06933594,-0.21142578,-2.5634766,0.91552734,-0.18310547,0.0,0.0,0.0,161.47705,77.003174,-156.49475
1766903071011,-0.97509766,0.072753906,-0.21533203,-1.7700195,0.61035156,-0.18310547,0.0,0.0,0.0,161.47705,77.003174,-156.49475
1766903071023,-0.97509766,0.072753906,-0.21533203,-1.7700195,0.61035156,-0.18310547,0.0,0.0,0.0,161.42761,76.92627,-156.34644
1766903071111,-0.9741211,0.076660156,-0.2133789,-1.0375977,-0.12207031,0.12207031,0.0,0.0,0.0,161.42761,76.92627,-156.34644
1766903071123,-0.9741211,0.076660156,-0.2133789,-1.0375977,-0.12207031,0.12207031,0.0,0.0,0.0,161.42212,76.87683,-156.22559
1766903071211,-0.9794922,0.076660156,-0.21484375,0.36621094,0.5493164,0.36621094,0.0,0.0,0.0,161.42212,76.87683,-156.22559
1766903071222,-0.9794922,0.076660156,-0.21484375,0.36621094,0.5493164,0.36621094,0.0,0.0,0.0,161.22437,76.88782,-156.40686
1766903071311,-0.9711914,0.079589844,-0.21240234,0.9765625,0.36621094,0.061035156,0.0,0.0,0.0,161.22437,76.88782,-156.40686
1766903071322,-0.9711914,0.079589844,-0.21240234,0.9765625,0.36621094,0.061035156,0.0,0.0,0.0,161.30127,76.8219,-156.44531
1766903071410,-0.9760742,0.076171875,-0.21923828,1.2817383,0.061035156,0.30517578,0.0,0.0,0.0,161.30127,76.8219,-156.44531
1766903071422,-0.9760742,0.076171875,-0.21923828,1.2817383,0.061035156,0.30517578,0.0,0.0,0.0,160.9497,76.87683,-156.87378
1766903071510,-0.9746094,0.076171875,-0.20947266,0.91552734,0.24414062,0.12207031,0.0,0.0,0.0,160.9497,76.87683,-156.87378
1766903071522,-0.9746094,0.076171875,-0.20947266,0.91552734,0.24414062,0.12207031,0.0,0.0,0.0,160.98267,76.849365,-156.96716
1766903071610,-0.9790039,0.07470703,-0.2084961,0.5493164,-0.30517578,0.24414062,0.0,0.0,0.0,160.98267,76.849365,-156.96716
1766903071621,-0.9790039,0.07470703,-0.2084961,0.5493164,-0.30517578,0.24414062,0.0,0.0,0.0,160.7959,76.89331,-157.1814
1766903071709,-0.9824219,0.071777344,-0.20361328,0.30517578,0.18310547,-0.18310547,0.0,0.0,0.0,160.7959,76.89331,-157.1814
1766903071721,-0.9824219,0.071777344,-0.20361328,0.30517578,0.18310547,-0.18310547,0.0,0.0,0.0,160.8728,76.90979,-157.15942
1766903071809,-0.97998047,0.071777344,-0.20703125,-0.12207031,0.5493164,-0.24414062,0.0,0.0,0.0,160.8728,76.90979,-157.15942
1766903071821,-0.97998047,0.071777344,-0.20703125,-0.12207031,0.5493164,-0.24414062,0.0,0.0,0.0,161.06506,76.87683,-156.96167
1766903071909,-0.984375,0.06542969,-0.2006836,1.0375977,0.061035156,-0.6713867,0.0,0.0,0.0,161.06506,76.87683,-156.96167
1766903071921,-0.984375,0.06542969,-0.2006836,1.0375977,0.061035156,-0.6713867,0.0,0.0,0.0,161.46057,76.82739,-156.6156
1766903072009,-0.9824219,0.0703125,-0.2163086,0.5493164,-0.18310547,-0.4272461,0.0,0.0,0.0,161.46057,76.82739,-156.6156
1766903072020,-0.9824219,0.0703125,-0.2163086,0.5493164,-0.18310547,-0.4272461,0.0,0.0,0.0,161.90002,76.832886,-156.23657
1766903072108,-0.97753906,0.06542969,-0.2133789,1.2207031,0.7324219,-0.12207031,0.0,0.0,0.0,161.90002,76.832886,-156.23657
1766903072120,-0.97753906,0.06542969,-0.2133789,1.2207031,0.7324219,-0.12207031,0.0,0.0,0.0,162.31201,76.78894,-155.95093
1766903072208,-0.9785156,0.064453125,-0.21191406,0.12207031,0.18310547,0.24414062,0.0,0.0,0.0,162.31201,76.78894,-155.95093
1766903072220,-0.9785156,0.064453125,-0.21191406,0.12207031,0.18310547,0.24414062,0.0,0.0,0.0,162.54822,76.728516,-155.8136
1766903072308,-0.97509766,0.06591797,-0.21289062,-0.061035156,1.0986328,0.24414062,0.0,0.0,0.0,162.54822,76.728516,-155.8136
1766903072319,-0.97509766,0.06591797,-0.21289062,-0.061035156,1.0986328,0.24414062,0.0,0.0,0.0,162.65808,76.6626,-155.78064
1766903072407,-0.9760742,0.06738281,-0.21826172,-0.79345703,0.7324219,0.48828125,0.0,0.0,0.0,162.65808,76.6626,-155.78064
1766903072419,-0.9760742,0.06738281,-0.21826172,-0.79345703,0.7324219,0.48828125,0.0,0.0,0.0,162.59216,76.5802,-155.84106
1766903072507,-0.9736328,0.067871094,-0.22460938,-0.5493164,2.0141602,0.0,0.0,0.0,0.0,162.59216,76.5802,-155.84106
1766903072519,-0.9736328,0.067871094,-0.22460938,-0.5493164,2.0141602,0.0,0.0,0.0,0.0,162.49878,76.48132,-155.896
1766903072607,-0.9746094,0.072265625,-0.21533203,-0.9765625,0.79345703,0.30517578,0.0,0.0,0.0,162.49878,76.48132,-155.896
1766903072618,-0.9746094,0.072265625,-0.21533203,-0.9765625,0.79345703,0.30517578,0.0,0.0,0.0,162.60864,76.36597,-155.76965
1766903072706,-0.9741211,0.07373047,-0.22265625,-0.6713867,1.159668,-0.24414062,0.0,0.0,0.0,162.60864,76.36597,-155.76965
1766903072718,-0.9741211,0.07373047,-0.22265625,-0.6713867,1.159668,-0.24414062,0.0,0.0,0.0,162.45483,76.32202,-155.79163
1766903072806,-0.96972656,0.07080078,-0.22314453,-1.0986328,0.48828125,-0.48828125,0.0,0.0,0.0,162.45483,76.32202,-155.79163
1766903072818,-0.96972656,0.07080078,-0.22314453,-1.0986328,0.48828125,-0.48828125,0.0,0.0,0.0,162.61963,76.2561,-155.54443
1766903072906,-0.9765625,0.07421875,-0.23144531,-1.4038086,1.4648438,-0.36621094,0.0,0.0,0.0,162.61963,76.2561,-155.54443
1766903072918,-0.9765625,0.07421875,-0.23144531,-1.4038086,1.4648438,-0.36621094,0.0,0.0,0.0,162.72949,76.190186,-155.29175
1766903073006,-0.9682617,0.079589844,-0.22607422,-2.380371,1.3427734,0.12207031,0.0,0.0,0.0,162.72949,76.190186,-155.29175
1766903073017,-0.9682617,0.079589844,-0.22607422,-2.380371,1.3427734,0.12207031,0.0,0.0,0.0,162.75696,76.03638,-155.02808
1766903073105,-0.9716797,0.080078125,-0.22949219,-0.91552734,-0.30517578,0.48828125,0.0,0.0,0.0,162.75696,76.03638,-155.02808
1766903073117,-0.9716797,0.080078125,-0.22949219,-0.91552734,-0.30517578,0.48828125,0.0,0.0,0.0,162.35046,75.997925,-155.20935
1766903073205,-0.9765625,0.07470703,-0.22802734,0.18310547,-0.18310547,0.48828125,0.0,0.0,0.0,162.35046,75.997925,-155.20935
1766903073217,-0.9765625,0.07470703,-0.22802734,0.18310547,-0.18310547,0.48828125,0.0,0.0,0.0,162.18567,75.93201,-155.34668
1766903073305,-0.98046875,0.07470703,-0.24560547,-1.0375977,-1.2207031,0.79345703,0.0,0.0,0.0,162.18567,75.93201,-155.34668
1766903073316,-0.98046875,0.07470703,-0.24560547,-1.0375977,-1.2207031,0.79345703,0.0,0.0,0.0,161.7627,75.94299,-155.70374
1766903073404,-0.9760742,0.072265625,-0.23730469,-0.6713867,-0.61035156,-0.061035156,0.0,0.0,0.0,161.7627,75.94299,-155.70374
1766903073416,-0.9760742,0.072265625,-0.23730469,-0.6713867,-0.61035156,-0.061035156,0.0,0.0,0.0,161.74072,75.92102,-155.74768
1766903073504,-0.96972656,0.079589844,-0.22802734,-0.24414062,-1.7700195,-0.5493164,0.0,0.0,0.0,161.74072,75.92102,-155.74768
1766903073516,-0.96972656,0.079589844,-0.22802734,-0.24414062,-1.7700195,-0.5493164,0.0,0.0,0.0,161.90552,75.997925,-155.61584
1766903073604,-0.9736328,0.079589844,-0.22949219,0.4272461,-0.30517578,-0.7324219,0.0,0.0,0.0,161.90552,75.997925,-155.61584
1766903073615,-0.9736328,0.079589844,-0.22949219,0.4272461,-0.30517578,-0.7324219,0.0,0.0,0.0,162.10327,76.07483,-155.46753
1766903073703,-0.97021484,0.079589844,-0.22021484,1.7700195,-3.7231445,0.6713867,0.0,0.0,0.0,162.10327,76.07483,-155.46753
1766903073715,-0.97021484,0.079589844,-0.22021484,1.7700195,-3.7231445,0.6713867,0.0,0.0,0.0,161.7627,76.28357,-155.87402
1766903073803,-0.9692383,0.07470703,-0.22167969,4.1503906,-2.9907227,0.91552734,0.0,0.0,0.0,161.7627,76.28357,-155.87402
1766903073815,-0.9692383,0.07470703,-0.22167969,4.1503906,-2.9907227,0.91552734,0.0,0.0,0.0,161.25732,76.54175,-156.64307
1766903073903,-0.98095703,0.076171875,-0.20654297,3.4179688,-3.479004,0.6713867,0.0,0.0,0.0,161.25732,76.54175,-156.64307
1766903073915,-0.98095703,0.076171875,-0.20654297,3.4179688,-3.479004,0.6713867,0.0,0.0,0.0,160.82336,76.84387,-157.48352
1766903074003,-0.9819336,0.076171875,-0.19677734,4.699707,-2.380371,0.6713867,0.0,0.0,0.0,160.82336,76.84387,-157.48352
1766903074015,-0.9819336,0.076171875,-0.19677734,4.699707,-2.380371,0.6713867,0.0,0.0,0.0,160.49377,77.11304,-158.24707
1766903074102,-0.98291016,0.068359375,-0.19384766,4.0893555,-1.0375977,0.18310547,0.0,0.0,0.0,160.49377,77.11304,-158.24707
1766903074114,-0.98291016,0.068359375,-0.19384766,4.0893555,-1.0375977,0.18310547,0.0,0.0,0.0,160.46082,77.27783,-158.73047
1766903074202,-0.98535156,0.063964844,-0.19970703,2.5024414,1.0986328,-0.9765625,0.0,0.0,0.0,160.46082,77.27783,-158.73047
1766903074214,-0.98535156,0.063964844,-0.19970703,2.5024414,1.0986328,-0.9765625,0.0,0.0,0.0,160.99365,77.31079,-158.5492
1766903074302,-0.9760742,0.06298828,-0.19677734,-0.8544922,1.2817383,-0.9765625,0.0,0.0,0.0,160.99365,77.31079,-158.5492
1766903074313,-0.9760742,0.06298828,-0.19677734,-0.8544922,1.2817383,-0.9765625,0.0,0.0,0.0,161.74072,77.22839,-157.88452
1766903074401,-0.9794922,0.064941406,-0.19580078,-2.0751953,2.5634766,-1.2817383,0.0,0.0,0.0,161.74072,77.22839,-157.88452
1766903074413,-0.9794922,0.064941406,-0.19580078,-2.0751953,2.5634766,-1.2817383,0.0,0.0,0.0,162.1582,77.20642,-157.34619
1766903074501,-0.97753906,0.06640625,-0.20410156,-2.380371,2.6245117,-0.48828125,0.0,0.0,0.0,162.1582,77.20642,-157.34619
1766903074513,-0.97753906,0.06640625,-0.20410156,-2.380371,2.6245117,-0.48828125,0.0,0.0,0.0,162.57568,77.09656,-156.80786
1766903074601,-0.9760742,0.06298828,-0.20654297,-1.8310547,3.4179688,-0.061035156,0.0,0.0,0.0,162.57568,77.09656,-156.80786
1766903074612,-0.9760742,0.06298828,-0.20654297,-1.8310547,3.4179688,-0.061035156,0.0,0.0,0.0,162.58118,76.92078,-156.54968
1766903074701,-0.9794922,0.06298828,-0.2133789,-1.5258789,3.1738281,-0.061035156,0.0,0.0,0.0,162.58118,76.92078,-156.54968
1766903074712,-0.9794922,0.06298828,-0.2133789,-1.5258789,3.1738281,-0.061035156,0.0,0.0,0.0,162.76794,76.70105,-156.2201
1766903074800,-0.97753906,0.06640625,-0.22216797,-0.79345703,2.2583008,-0.24414062,0.0,0.0,0.0,162.76794,76.70105,-156.2201
1766903074812,-0.97753906,0.06640625,-0.22216797,-0.79345703,2.2583008,-0.24414062,0.0,0.0,0.0,163.01514,76.503296,-155.86304
1766903074900,-0.97216797,0.06982422,-0.22851562,-1.7700195,2.0141602,-0.30517578,0.0,0.0,0.0,163.01514,76.503296,-155.86304
1766903074912,-0.97216797,0.06982422,-0.22851562,-1.7700195,2.0141602,-0.30517578,0.0,0.0,0.0,163.32825,76.33301,-155.42908
1766903075000,-0.9658203,0.072265625,-0.22705078,1.7089844,0.061035156,0.061035156,0.0,0.0,0.0,163.32825,76.33301,-155.42908
1766903075011,-0.9658203,0.072265625,-0.22705078,1.7089844,0.061035156,0.061035156,0.0,0.0,0.0,163.46008,76.22864,-155.24231
1766903075100,-0.9692383,0.068359375,-0.23144531,2.319336,-0.18310547,-0.5493164,0.0,0.0,0.0,163.46008,76.22864,-155.24231
1766903075111,-0.9692383,0.068359375,-0.23144531,2.319336,-0.18310547,-0.5493164,0.0,0.0,0.0,163.77869,76.19568,-155.11047
1766903075199,-0.97558594,0.06640625,-0.2397461,1.7700195,-0.9765625,0.6713867,0.0,0.0,0.0,163.77869,76.19568,-155.11047
1766903075211,-0.97558594,0.06640625,-0.2397461,1.7700195,-0.9765625,0.6713867,0.0,0.0,0.0,163.6908,76.30554,-155.39062
1766903075299,-0.9785156,0.064941406,-0.22851562,1.0375977,-0.18310547,0.36621094,0.0,0.0,0.0,163.6908,76.30554,-155.39062
1766903075311,-0.9785156,0.064941406,-0.22851562,1.0375977,-0.18310547,0.36621094,0.0,0.0,0.0,163.72375,76.30554,-155.62134
1766903075399,-0.9741211,0.06591797,-0.22802734,-0.36621094,-0.30517578,0.61035156,0.0,0.0,0.0,163.72375,76.30554,-155.62134
1766903075410,-0.9741211,0.06591797,-0.22802734,-0.36621094,-0.30517578,0.61035156,0.0,0.0,0.0,163.62488,76.294556,-155.83557
1766903075498,-0.9785156,0.068359375,-0.2265625,-1.5258789,0.0,0.48828125,0.0,0.0,0.0,163.62488,76.294556,-155.83557
1766903075510,-0.9785156,0.068359375,-0.2265625,-1.5258789,0.0,0.48828125,0.0,0.0,0.0,163.41064,76.28357,-156.04431
1766903075598,-0.9711914,0.072753906,-0.22167969,-1.159668,0.0,0.30517578,0.0,0.0,0.0,163.41064,76.28357,-156.04431
1766903075609,-0.9711914,0.072753906,-0.22167969,-1.159668,0.0,0.30517578,0.0,0.0,0.0,163.17444,76.239624,-156.17065
1766903075698,-0.9814453,0.068847656,-0.22216797,-0.30517578,0.36621094,-0.24414062,0.0,0.0,0.0,163.17444,76.239624,-156.17065
1766903075709,-0.9814453,0.068847656,-0.22216797,-0.30517578,0.36621094,-0.24414062,0.0,0.0,0.0,163.15247,76.190186,-156.12122
1766903075798,-0.9770508,0.075683594,-0.23046875,-1.2817383,-0.7324219,0.4272461,0.0,0.0,0.0,163.15247,76.190186,-156.12122
1766903075809,-0.9770508,0.075683594,-0.23046875,-1.2817383,-0.7324219,0.4272461,0.0,0.0,0.0,163.15796,76.14624,-155.98938
1766903075897,-0.9746094,0.072265625,-0.22558594,1.159668,-0.30517578,0.061035156,0.0,0.0,0.0,163.15796,76.14624,-155.98938
1766903075909,-0.9746094,0.072265625,-0.22558594,1.159668,-0.30517578,0.061035156,0.0,0.0,0.0,163.10303,76.14075,-156.01685
1766903075997,-0.97509766,0.067871094,-0.21679688,1.5258789,-0.9765625,0.18310547,0.0,0.0,0.0,163.10303,76.14075,-156.01685
1766903076009,-0.97509766,0.067871094,-0.21679688,1.5258789,-0.9765625,0.18310547,0.0,0.0,0.0,163.16895,76.16821,-156.06628
1766903076097,-0.97802734,0.0625,-0.21972656,2.1362305,-0.61035156,-0.24414062,0.0,0.0,0.0,163.16895,76.16821,-156.06628
1766903076108,-0.97802734,0.0625,-0.21972656,2.1362305,-0.61035156,-0.24414062,0.0,0.0,0.0,163.24585,76.24512,-156.18164
1766903076197,-0.9790039,0.061035156,-0.21826172,1.3427734,-0.061035156,-0.61035156,0.0,0.0,0.0,163.24585,76.24512,-156.18164
1766903076208,-0.9790039,0.061035156,-0.21826172,1.3427734,-0.061035156,-0.61035156,0.0,0.0,0.0,163.56995,76.30005,-156.0553
1766903076296,-0.9746094,0.055664062,-0.22509766,2.5024414,1.4038086,-0.8544922,0.0,0.0,0.0,163.56995,76.30005,-156.0553
1766903076308,-0.9746094,0.055664062,-0.22509766,2.5024414,1.4038086,-0.8544922,0.0,0.0,0.0,164.13574,76.28357,-155.66528
1766903076396,-0.97558594,0.059570312,-0.21435547,-0.91552734,0.5493164,0.12207031,0.0,0.0,0.0,164.13574,76.28357,-155.66528
1766903076407,-0.97558594,0.059570312,-0.21435547,-0.91552734,0.5493164,0.12207031,0.0,0.0,0.0,164.7345,76.18469,-155.18738
1766903076496,-0.9736328,0.061523438,-0.2265625,-2.0141602,2.8076172,-0.18310547,0.0,0.0,0.0,164.7345,76.18469,-155.18738
1766903076507,-0.9736328,0.061523438,-0.2265625,-2.0141602,2.8076172,-0.18310547,0.0,0.0,0.0,164.83337,76.05286,-154.98413
1766903076595,-0.97216797,0.05859375,-0.23535156,-5.6762695,3.4179688,-0.12207031,0.0,0.0,0.0,164.83337,76.05286,-154.98413
1766903076607,-0.97216797,0.05859375,-0.23535156,-5.6762695,3.4179688,-0.12207031,0.0,0.0,0.0,164.94324,75.76172,-154.56665
1766903076695,-0.97314453,0.06347656,-0.24902344,-7.8125,4.211426,-0.5493164,0.0,0.0,0.0,164.94324,75.76172,-154.56665
1766903076707,-0.97314453,0.06347656,-0.24902344,-7.8125,4.211426,-0.5493164,0.0,0.0,0.0,164.66309,75.47058,-154.16016
1766903076795,-0.95996094,0.072265625,-0.24316406,-8.056641,3.3569336,-0.36621094,0.0,0.0,0.0,164.66309,75.47058,-154.16016
1766903076806,-0.95996094,0.072265625,-0.24316406,-8.056641,3.3569336,-0.36621094,0.0,0.0,0.0,164.69055,75.10254,-153.37463
1766903076895,-0.9633789,0.080566406,-0.24902344,-3.90625,1.6479492,1.7700195,0.0,0.0,0.0,164.69055,75.10254,-153.37463
1766903076906,-0.9633789,0.080566406,-0.24902344,-3.90625,1.6479492,1.7700195,0.0,0.0,0.0,164.17969,74.87732,-153.2373
1766903076994,-0.96240234,0.08251953,-0.25439453,-4.4555664,-0.91552734,2.380371,0.0,0.0,0.0,164.17969,74.87732,-153.2373
1766903077006,-0.96240234,0.08251953,-0.25439453,-4.4555664,-0.91552734,2.380371,0.0,0.0,0.0,162.76245,74.712524,-154.17114
1766903077094,-0.98095703,0.08935547,-0.2607422,-6.4697266,-6.1035156,5.554199,0.0,0.0,0.0,162.76245,74.712524,-154.17114
1766903077106,-0.98095703,0.08935547,-0.2607422,-6.4697266,-6.1035156,5.554199,0.0,0.0,0.0,160.3949,74.96521,-156.14868
1766903077194,-0.9663086,0.09716797,-0.23388672,-3.0517578,-3.2348633,4.760742,0.0,0.0,0.0,160.3949,74.96521,-156.14868
1766903077205,-0.9663086,0.09716797,-0.23388672,-3.0517578,-3.2348633,4.760742,0.0,0.0,0.0,157.91748,75.113525,-158.45581
1766903077293,-0.9824219,0.10986328,-0.22998047,-2.5634766,-3.0517578,4.1503906,0.0,0.0,0.0,157.91748,75.113525,-158.45581
1766903077305,-0.9824219,0.10986328,-0.22998047,-2.5634766,-3.0517578,4.1503906,0.0,0.0,0.0,155.82458,75.22339,-160.4773
1766903077393,-0.96777344,0.099609375,-0.234375,-0.79345703,0.5493164,2.380371,0.0,0.0,0.0,155.82458,75.22339,-160.4773
1766903077405,-0.96777344,0.099609375,-0.234375,-0.79345703,0.5493164,2.380371,0.0,0.0,0.0,154.59412,75.12451,-161.74072
1766903077493,-0.9550781,0.12402344,-0.22460938,-0.4272461,-1.2817383,1.3427734,0.0,0.0,0.0,154.59412,75.12451,-161.74072
1766903077504,-0.9550781,0.12402344,-0.22460938,-0.4272461,-1.2817383,1.3427734,0.0,0.0,0.0,154.16016,75.06409,-162.20215
1766903077593,-0.9682617,0.11230469,-0.23828125,0.0,-0.91552734,1.953125,0.0,0.0,0.0,154.16016,75.06409,-162.20215
1766903077604,-0.9682617,0.11230469,-0.23828125,0.0,-0.91552734,1.953125,0.0,0.0,0.0,153.1549,75.15747,-163.31177
1766903077693,-0.9682617,0.13378906,-0.2109375,-4.699707,-2.8076172,2.8686523,0.0,0.0,0.0,153.1549,75.15747,-163.31177
1766903077704,-0.9682617,0.13378906,-0.2109375,-4.699707,-2.8076172,2.8686523,0.0,0.0,0.0,151.83105,75.17395,-164.4928
1766903077792,-0.95654297,0.123535156,-0.20507812,-2.2583008,-3.6010742,1.5258789,0.0,0.0,0.0,151.83105,75.17395,-164.4928
1766903077804,-0.95654297,0.123535156,-0.20507812,-2.2583008,-3.6010742,1.5258789,0.0,0.0,0.0,149.80957,75.459595,-166.1792
1766903077892,-0.9741211,0.13769531,-0.1875,-3.540039,-6.225586,1.0375977,0.0,0.0,0.0,149.80957,75.459595,-166.1792
1766903077903,-0.9741211,0.13769531,-0.1875,-3.540039,-6.225586,1.0375977,0.0,0.0,0.0,147.99133,75.83313,-167.68982
1766903077992,-0.99902344,0.14257812,-0.20703125,-4.333496,-7.2021484,-0.7324219,0.0,0.0,0.0,147.99133,75.83313,-167.68982
1766903078003,-0.99902344,0.14257812,-0.20703125,-4.333496,-7.2021484,-0.7324219,0.0,0.0,0.0,145.64026,76.37695,-169.66736
1766903078091,-0.9916992,0.10986328,-0.14404297,4.272461,0.36621094,3.7841797,0.0,0.0,0.0,145.64026,76.37695,-169.66736
1766903078103,-0.9916992,0.10986328,-0.14404297,4.272461,0.36621094,3.7841797,0.0,0.0,0.0,144.34937,76.37146,-170.95276
1766903078191,-0.94921875,0.13574219,-0.18164062,1.953125,-0.48828125,-3.2958984,0.0,0.0,0.0,144.34937,76.37146,-170.95276
1766903078202,-0.94921875,0.13574219,-0.18164062,1.953125,-0.48828125,-3.2958984,0.0,0.0,0.0,144.66248,76.70105,-170.65613
1766903078291,-0.9975586,0.13720703,-0.18945312,0.0,0.8544922,-4.638672,0.0,0.0,0.0,144.66248,76.70105,-170.65613
1766903078302,-0.9975586,0.13720703,-0.18945312,0.0,0.8544922,-4.638672,0.0,0.0,0.0,145.47546,77.003174,-169.83215
1766903078390,-0.9580078,0.12158203,-0.18847656,1.6479492,-2.0141602,-4.699707,0.0,0.0,0.0,145.47546,77.003174,-169.83215
1766903078402,-0.9580078,0.12158203,-0.18847656,1.6479492,-2.0141602,-4.699707,0.0,0.0,0.0,146.61255,77.371216,-168.64014
1766903078490,-0.97021484,0.125,-0.17089844,3.6621094,0.18310547,-2.6245117,0.0,0.0,0.0,146.61255,77.371216,-168.64014
1766903078502,-0.97021484,0.125,-0.17089844,3.6621094,0.18310547,-2.6245117,0.0,0.0,0.0,147.96387,77.58545,-167.47559
1766903078590,-0.9736328,0.14746094,-0.16796875,-6.0424805,0.0,-2.9907227,0.0,0.0,0.0,147.96387,77.58545,-167.47559
1766903078602,-0.9736328,0.14746094,-0.16796875,-6.0424805,0.0,-2.9907227,0.0,0.0,0.0,148.21655,77.79419,-166.95923
1766903078689,-1.0458984,0.08300781,-0.17919922,-0.8544922,0.24414062,1.4648438,0.0,0.0,0.0,148.21655,77.79419,-166.95923
1766903078701,-1.0458984,0.08300781,-0.17919922,-0.8544922,0.24414062,1.4648438,0.0,0.0,0.0,147.73315,77.65686,-166.90979
1766903078789,-0.9326172,0.12402344,-0.20507812,9.887695,-5.2490234,-0.48828125,0.0,0.0,0.0,147.73315,77.65686,-166.90979
1766903078801,-0.9326172,0.12402344,-0.20507812,9.887695,-5.2490234,-0.48828125,0.0,0.0,0.0,148.57361,77.99744,-166.745
1766903078889,-1.0078125,0.07373047,-0.13964844,8.483887,-0.4272461,0.0,0.0,0.0,0.0,148.57361,77.99744,-166.745
1766903078900,-1.0078125,0.07373047,-0.13964844,8.483887,-0.4272461,0.0,0.0,0.0,0.0,149.17236,77.89856,-167.20093
1766903078989,-0.97558594,0.103515625,-0.15966797,-0.12207031,0.061035156,-3.540039,0.0,0.0,0.0,149.17236,77.89856,-167.20093
1766903079000,-0.97558594,0.103515625,-0.15966797,-0.12207031,0.061035156,-3.540039,0.0,0.0,0.0,150.7489,78.15674,-165.94849
1766903079088,-1.0126953,0.06738281,-0.16601562,-8.239746,0.7324219,-3.3569336,0.0,0.0,0.0,150.7489,78.15674,-165.94849
1766903079100,-1.0126953,0.06738281,-0.16601562,-8.239746,0.7324219,-3.3569336,0.0,0.0,0.0,151.72668,78.37097,-164.68506
1766903079188,-0.9614258,0.10986328,-0.18115234,-10.131836,0.6713867,1.4038086,0.0,0.0,0.0,151.72668,78.37097,-164.68506
1766903079199,-0.9614258,0.10986328,-0.18115234,-10.131836,0.6713867,1.4038086,0.0,0.0,0.0,152.87476,78.32703,-162.12524
1766903079288,-0.9614258,0.075683594,-0.1743164,4.5166016,0.0,-3.7841797,0.0,0.0,0.0,152.87476,78.32703,-162.12524
1766903079299,-0.9614258,0.075683594,-0.1743164,4.5166016,0.0,-3.7841797,0.0,0.0,0.0,153.03406,78.22266,-161.53748
