timestamp,accX,accY,accZ,gyroX,gyroY,gyroZ,magX,magY,magZ,roll,pitch,yaw
1766900349528,-0.9194336,-0.37353516,-0.021484375,6.4697266,0.9765625,-0.5493164,0.0,0.0,0.0,-93.5376,66.450806,176.4624
1766900349539,-0.9194336,-0.37353516,-0.021484375,6.4697266,0.9765625,-0.5493164,0.0,0.0,0.0,-93.38928,66.34094,175.62195
1766900349627,-0.9169922,-0.40039062,-0.021972656,4.3945312,2.5024414,0.48828125,0.0,0.0,0.0,-93.38928,66.34094,175.62195
1766900349639,-0.9169922,-0.40039062,-0.021972656,4.3945312,2.5024414,0.48828125,0.0,0.0,0.0,-93.482666,66.329956,175.13855
1766900349727,-0.92089844,-0.390625,-0.027832031,1.2207031,1.2207031,0.24414062,0.0,0.0,0.0,-93.482666,66.329956,175.13855
1766900349739,-0.92089844,-0.390625,-0.027832031,1.2207031,1.2207031,0.24414062,0.0,0.0,0.0,-93.73535,66.39038,174.51233
1766900349827,-0.92089844,-0.39746094,-0.026855469,2.5634766,0.12207031,0.8544922,0.0,0.0,0.0,-93.73535,66.39038,174.51233
1766900349838,-0.92089844,-0.39746094,-0.026855469,2.5634766,0.12207031,0.8544922,0.0,0.0,0.0,-93.94409,66.41235,174.1278
1766900349927,-0.9194336,-0.37060547,-0.032226562,-3.7231445,0.79345703,0.8544922,0.0,0.0,0.0,-93.94409,66.41235,174.1278
1766900349938,-0.9194336,-0.37060547,-0.032226562,-3.7231445,0.79345703,0.8544922,0.0,0.0,0.0,-94.13086,66.51123,173.92456
1766900350027,-0.92041016,-0.40576172,-0.024414062,1.2207031,-0.61035156,-0.12207031,0.0,0.0,0.0,-94.13086,66.51123,173.92456
1766900350038,-0.92041016,-0.40576172,-0.024414062,1.2207031,-0.61035156,-0.12207031,0.0,0.0,0.0,-93.88916,66.58264,174.19373
1766900350126,-0.91552734,-0.39257812,-0.027832031,1.3427734,0.0,-0.6713867,0.0,0.0,0.0,-93.88916,66.58264,174.19373
1766900350137,-0.91552734,-0.39257812,-0.027832031,1.3427734,0.0,-0.6713867,0.0,0.0,0.0,-93.66943,66.5387,174.24316
1766900350226,-0.921875,-0.39892578,-0.021484375,1.7700195,1.4038086,-0.24414062,0.0,0.0,0.0,-93.66943,66.5387,174.24316
1766900350237,-0.921875,-0.39892578,-0.021484375,1.7700195,1.4038086,-0.24414062,0.0,0.0,0.0,-93.70239,66.47827,174.0509
1766900350326,-0.92089844,-0.38720703,-0.021484375,-1.953125,4.1503906,-1.7700195,0.0,0.0,0.0,-93.70239,66.47827,174.0509
1766900350337,-0.92089844,-0.38720703,-0.021484375,-1.953125,4.1503906,-1.7700195,0.0,0.0,0.0,-94.29016,66.38489,173.29285
1766900350425,-0.92285156,-0.40429688,-0.03955078,-0.30517578,0.6713867,-0.48828125,0.0,0.0,0.0,-94.29016,66.38489,173.29285
1766900350437,-0.92285156,-0.40429688,-0.03955078,-0.30517578,0.6713867,-0.48828125,0.0,0.0,0.0,-94.77905,66.26404,172.74902
1766900350526,-0.9238281,-0.41064453,-0.03125,-0.9765625,-1.0986328,-0.18310547,0.0,0.0,0.0,-94.77905,66.26404,172.74902
1766900350536,-0.9238281,-0.41064453,-0.03125,-0.9765625,-1.0986328,-0.18310547,0.0,0.0,0.0,-94.54285,66.20361,172.9248
1766900350625,-0.9140625,-0.40478516,-0.032226562,0.5493164,-1.2207031,-0.48828125,0.0,0.0,0.0,-94.54285,66.20361,172.9248
1766900350636,-0.9140625,-0.40478516,-0.032226562,0.5493164,-1.2207031,-0.48828125,0.0,0.0,0.0,-94.2572,66.170654,173.12256
1766900350724,-0.91845703,-0.40771484,-0.030273438,0.91552734,-0.6713867,-0.7324219,0.0,0.0,0.0,-94.2572,66.170654,173.12256
1766900350736,-0.91845703,-0.40771484,-0.030273438,0.91552734,-0.6713867,-0.7324219,0.0,0.0,0.0,-93.861694,66.08826,173.43018
1766900350824,-0.9199219,-0.40527344,-0.024414062,1.2207031,-2.8686523,-0.36621094,0.0,0.0,0.0,-93.861694,66.08826,173.43018
1766900350835,-0.9199219,-0.40527344,-0.024414062,1.2207031,-2.8686523,-0.36621094,0.0,0.0,0.0,-93.26843,66.02234,174.00696
1766900350924,-0.9135742,-0.39941406,-0.014160156,-0.91552734,-1.8920898,-0.36621094,0.0,0.0,0.0,-93.26843,66.02234,174.00696
1766900350935,-0.9135742,-0.39941406,-0.014160156,-0.91552734,-1.8920898,-0.36621094,0.0,0.0,0.0,-92.66968,66.016846,174.64417
1766900351024,-0.9121094,-0.39746094,-0.0107421875,-0.18310547,-1.159668,0.6713867,0.0,0.0,0.0,-92.66968,66.016846,174.64417
1766900351035,-0.9121094,-0.39746094,-0.0107421875,-0.18310547,-1.159668,0.6713867,0.0,0.0,0.0,-92.29614,66.049805,175.05615
1766900351123,-0.91503906,-0.39697266,-0.0073242188,-0.7324219,0.12207031,1.0986328,0.0,0.0,0.0,-92.29614,66.049805,175.05615
1766900351135,-0.91503906,-0.39697266,-0.0073242188,-0.7324219,0.12207031,1.0986328,0.0,0.0,0.0,-92.22473,66.14868,175.16602
1766900351223,-0.92626953,-0.3984375,-0.012207031,-2.1972656,0.4272461,0.8544922,0.0,0.0,0.0,-92.22473,66.14868,175.16602
1766900351235,-0.92626953,-0.3984375,-0.012207031,-2.1972656,0.4272461,0.8544922,0.0,0.0,0.0,-92.46643,66.24756,174.97375
1766900351323,-0.9169922,-0.39746094,-0.016601562,-1.0375977,0.9765625,0.8544922,0.0,0.0,0.0,-92.46643,66.24756,174.97375
1766900351335,-0.9169922,-0.39746094,-0.016601562,-1.0375977,0.9765625,0.8544922,0.0,0.0,0.0,-92.82898,66.291504,174.6991
1766900351422,-0.9213867,-0.39941406,-0.012207031,-0.79345703,0.0,0.5493164,0.0,0.0,0.0,-92.82898,66.291504,174.6991
1766900351434,-0.9213867,-0.39941406,-0.012207031,-0.79345703,0.0,0.5493164,0.0,0.0,0.0,-92.960815,66.362915,174.57825
1766900351522,-0.9189453,-0.39990234,-0.015136719,-0.18310547,-0.30517578,-0.48828125,0.0,0.0,0.0,-92.960815,66.362915,174.57825
1766900351534,-0.9189453,-0.39990234,-0.015136719,-0.18310547,-0.30517578,-0.48828125,0.0,0.0,0.0,-92.8949,66.36841,174.60022
1766900351622,-0.91796875,-0.40039062,-0.016113281,0.91552734,0.30517578,-0.48828125,0.0,0.0,0.0,-92.8949,66.36841,174.60022
1766900351633,-0.91796875,-0.40039062,-0.016113281,0.91552734,0.30517578,-0.48828125,0.0,0.0,0.0,-92.79053,66.329956,174.60022
1766900351722,-0.91552734,-0.40039062,-0.016113281,0.5493164,0.4272461,-0.5493164,0.0,0.0,0.0,-92.79053,66.329956,174.60022
1766900351733,-0.91552734,-0.40039062,-0.016113281,0.5493164,0.4272461,-0.5493164,0.0,0.0,0.0,-92.7301,66.258545,174.55078
1766900351821,-0.91796875,-0.4013672,-0.018554688,0.0,0.6713867,-0.30517578,0.0,0.0,0.0,-92.7301,66.258545,174.55078
1766900351833,-0.91796875,-0.4013672,-0.018554688,0.0,0.6713867,-0.30517578,0.0,0.0,0.0,-92.82349,66.20911,174.3695
1766900351922,-0.90771484,-0.39697266,-0.01953125,0.24414062,1.7089844,-0.30517578,0.0,0.0,0.0,-92.82349,66.20911,174.3695
1766900351933,-0.90771484,-0.39697266,-0.01953125,0.24414062,1.7089844,-0.30517578,0.0,0.0,0.0,-92.977295,66.14868,174.12231
1766900352021,-0.9199219,-0.40527344,-0.016113281,-1.2207031,1.2817383,-0.6713867,0.0,0.0,0.0,-92.977295,66.14868,174.12231
1766900352032,-0.9199219,-0.40527344,-0.016113281,-1.2207031,1.2817383,-0.6713867,0.0,0.0,0.0,-93.33435,66.09375,173.76526
1766900352121,-0.92041016,-0.39990234,-0.019042969,-1.2207031,0.36621094,-1.0986328,0.0,0.0,0.0,-93.33435,66.09375,173.76526
1766900352132,-0.92041016,-0.39990234,-0.019042969,-1.2207031,0.36621094,-1.0986328,0.0,0.0,0.0,-93.499146,66.02234,173.59497
1766900352220,-0.9145508,-0.40429688,-0.025878906,0.6713867,-0.7324219,-0.24414062,0.0,0.0,0.0,-93.499146,66.02234,173.59497
1766900352232,-0.9145508,-0.40429688,-0.025878906,0.6713867,-0.7324219,-0.24414062,0.0,0.0,0.0,-93.47168,65.92346,173.59497
1766900352320,-0.91064453,-0.39257812,-0.020019531,-4.0893555,1.159668,-1.5869141,0.0,0.0,0.0,-93.47168,65.92346,173.59497
1766900352332,-0.91064453,-0.39257812,-0.020019531,-4.0893555,1.159668,-1.5869141,0.0,0.0,0.0,-93.55408,65.84656,173.60046
1766900352420,-0.92529297,-0.42529297,-0.019042969,-8.605957,3.6010742,-0.91552734,0.0,0.0,0.0,-93.55408,65.84656,173.60046
1766900352434,-0.92529297,-0.42529297,-0.019042969,-8.605957,3.6010742,-0.91552734,0.0,0.0,0.0,-95.22949,65.736694,172.59521
1766900352520,-0.9121094,-0.40722656,-0.040039062,-1.0986328,-1.3427734,-1.5258789,0.0,0.0,0.0,-95.22949,65.736694,172.59521
1766900352534,-0.9121094,-0.40722656,-0.040039062,-1.0986328,-1.3427734,-1.5258789,0.0,0.0,0.0,-95.52612,65.61035,172.55676
1766900352620,-0.91015625,-0.41210938,-0.049316406,-2.0141602,-0.7324219,-2.0141602,0.0,0.0,0.0,-95.52612,65.61035,172.55676
1766900352631,-0.91015625,-0.41210938,-0.049316406,-2.0141602,-0.7324219,-2.0141602,0.0,0.0,0.0,-95.27344,65.478516,172.86438
1766900352719,-0.91748047,-0.41748047,-0.030761719,-1.7089844,-2.6245117,-2.319336,0.0,0.0,0.0,-95.27344,65.478516,172.86438
1766900352735,-0.91748047,-0.41748047,-0.030761719,-1.7089844,-2.6245117,-2.319336,0.0,0.0,0.0,-95.18005,65.24231,173.18298
1766900352820,-0.9082031,-0.4169922,-0.040039062,-2.2583008,-3.8452148,0.24414062,0.0,0.0,0.0,-95.18005,65.24231,173.18298
1766900352831,-0.9082031,-0.4169922,-0.040039062,-2.2583008,-3.8452148,0.24414062,0.0,0.0,0.0,-94.6582,65.14343,174.0509
1766900352919,-0.9169922,-0.421875,-0.027832031,-1.5869141,-3.0517578,-0.12207031,0.0,0.0,0.0,-94.6582,65.14343,174.0509
1766900352930,-0.9169922,-0.421875,-0.027832031,-1.5869141,-3.0517578,-0.12207031,0.0,0.0,0.0,-94.14734,65.1709,174.89136
1766900353019,-0.9013672,-0.40820312,-0.029296875,-1.3427734,-3.4179688,-0.30517578,0.0,0.0,0.0,-94.14734,65.1709,174.89136
1766900353030,-0.9013672,-0.40820312,-0.029296875,-1.3427734,-3.4179688,-0.30517578,0.0,0.0,0.0,-93.49365,65.165405,175.71533
1766900353118,-0.91308594,-0.41210938,-0.0078125,-4.4555664,-2.5634766,0.36621094,0.0,0.0,0.0,-93.49365,65.165405,175.71533
1766900353130,-0.91308594,-0.41210938,-0.0078125,-4.4555664,-2.5634766,0.36621094,0.0,0.0,0.0,-93.22998,65.20386,176.3086
1766900353218,-0.90966797,-0.4169922,-0.023925781,-3.2958984,-1.8920898,1.8310547,0.0,0.0,0.0,-93.22998,65.20386,176.3086
1766900353230,-0.90966797,-0.4169922,-0.023925781,-3.2958984,-1.8920898,1.8310547,0.0,0.0,0.0,-93.169556,65.31372,176.75354
1766900353318,-0.90234375,-0.40625,-0.0068359375,-4.8828125,-0.61035156,1.0375977,0.0,0.0,0.0,-93.169556,65.31372,176.75354
1766900353329,-0.90234375,-0.40625,-0.0068359375,-4.8828125,-0.61035156,1.0375977,0.0,0.0,0.0,-93.1311,65.462036,177.08862
1766900353417,-0.89404297,-0.4033203,-0.015136719,-10.986328,7.6904297,-0.9765625,0.0,0.0,0.0,-93.1311,65.462036,177.08862
1766900353429,-0.89404297,-0.4033203,-0.015136719,-10.986328,7.6904297,-0.9765625,0.0,0.0,0.0,-93.99902,65.44556,176.75354
1766900353517,-0.92333984,-0.45996094,-0.024902344,-15.319824,12.573242,-1.7700195,0.0,0.0,0.0,-93.99902,65.44556,176.75354
1766900353530,-0.92333984,-0.45996094,-0.024902344,-15.319824,12.573242,-1.7700195,0.0,0.0,0.0,-97.630005,65.198364,174.03992
1766900353617,-0.8881836,-0.4038086,-0.080566406,2.9907227,-4.333496,-3.540039,0.0,0.0,0.0,-97.630005,65.198364,174.03992
1766900353628,-0.8881836,-0.4038086,-0.080566406,2.9907227,-4.333496,-3.540039,0.0,0.0,0.0,-98.55835,64.72046,173.19397
1766900353716,-0.92089844,-0.44140625,-0.09375,-9.643555,10.314941,-7.385254,0.0,0.0,0.0,-98.55835,64.72046,173.19397
1766900353728,-0.92089844,-0.44140625,-0.09375,-9.643555,10.314941,-7.385254,0.0,0.0,0.0,-97.88818,64.32495,173.77625
1766900353816,-0.90527344,-0.47509766,-0.022949219,-2.1362305,0.7324219,-5.004883,0.0,0.0,0.0,-97.88818,64.32495,173.77625
1766900353830,-0.90527344,-0.47509766,-0.022949219,-2.1362305,0.7324219,-5.004883,0.0,0.0,0.0,-100.59082,63.583374,172.01843
1766900353916,-0.8964844,-0.43408203,-0.099121094,5.3100586,-4.5166016,0.0,0.0,0.0,0.0,-100.59082,63.583374,172.01843
1766900353928,-0.8964844,-0.43408203,-0.099121094,5.3100586,-4.5166016,0.0,0.0,0.0,0.0,-99.036255,63.363647,172.83142
1766900354016,-0.9008789,-0.44628906,-0.061523438,4.5776367,-5.79834,-0.48828125,0.0,0.0,0.0,-99.036255,63.363647,172.83142
1766900354028,-0.9008789,-0.44628906,-0.061523438,4.5776367,-5.79834,-0.48828125,0.0,0.0,0.0,-97.805786,63.391113,173.91907
1766900354116,-0.8935547,-0.44140625,-0.036132812,-3.0517578,-5.2490234,1.4648438,0.0,0.0,0.0,-97.805786,63.391113,173.91907
1766900354127,-0.8935547,-0.44140625,-0.036132812,-3.0517578,-5.2490234,1.4648438,0.0,0.0,0.0,-96.49292,63.621826,175.15503
1766900354216,-0.86816406,-0.4375,-0.027832031,1.5258789,0.9765625,3.9672852,0.0,0.0,0.0,-96.49292,63.621826,175.15503
1766900354227,-0.86816406,-0.4375,-0.027832031,1.5258789,0.9765625,3.9672852,0.0,0.0,0.0,-95.83374,63.929443,175.9021
1766900354316,-0.90283203,-0.43603516,-0.044921875,-4.4555664,3.90625,0.0,0.0,0.0,0.0,-95.83374,63.929443,175.9021
1766900354326,-0.90283203,-0.43603516,-0.044921875,-4.4555664,3.90625,0.0,0.0,0.0,0.0,-96.657715,64.05029,175.19897
1766900354415,-0.93359375,-0.41601562,-0.04736328,-1.5258789,-5.7373047,1.7089844,0.0,0.0,0.0,-96.657715,64.05029,175.19897
1766900354426,-0.93359375,-0.41601562,-0.04736328,-1.5258789,-5.7373047,1.7089844,0.0,0.0,0.0,-96.55884,64.11072,175.67688
1766900354514,-0.8803711,-0.40478516,-0.05419922,-3.3569336,-0.61035156,-3.479004,0.0,0.0,0.0,-96.55884,64.11072,175.67688
1766900354526,-0.8803711,-0.40478516,-0.05419922,-3.3569336,-0.61035156,-3.479004,0.0,0.0,0.0,-95.67993,64.16016,176.77551
1766900354614,-0.9345703,-0.4140625,-0.03564453,-6.286621,-2.4414062,3.6010742,0.0,0.0,0.0,-95.67993,64.16016,176.77551
1766900354626,-0.9345703,-0.4140625,-0.03564453,-6.286621,-2.4414062,3.6010742,0.0,0.0,0.0,-96.465454,64.18213,176.50635
1766900354714,-0.8930664,-0.49560547,-0.0546875,-0.9765625,-4.5776367,0.91552734,0.0,0.0,0.0,-96.465454,64.18213,176.50635
1766900354725,-0.8930664,-0.49560547,-0.0546875,-0.9765625,-4.5776367,0.91552734,0.0,0.0,0.0,-95.806274,64.51721,177.96204
1766900354814,-0.89501953,-0.36376953,-0.03857422,-0.91552734,-5.432129,6.164551,0.0,0.0,0.0,-95.806274,64.51721,177.96204
1766900354825,-0.89501953,-0.36376953,-0.03857422,-0.91552734,-5.432129,6.164551,0.0,0.0,0.0,-94.88342,64.714966,178.67615
1766900354914,-0.91064453,-0.43310547,-0.046875,-1.6479492,-2.9907227,4.8828125,0.0,0.0,0.0,-94.88342,64.714966,178.67615
1766900354928,-0.91064453,-0.43310547,-0.046875,-1.6479492,-2.9907227,4.8828125,0.0,0.0,0.0,-94.784546,65.22034,179.25293
1766900355013,-0.8955078,-0.39697266,-0.04638672,-5.3100586,3.1738281,3.7841797,0.0,0.0,0.0,-94.784546,65.22034,179.25293
1766900355028,-0.8955078,-0.39697266,-0.04638672,-5.3100586,3.1738281,3.7841797,0.0,0.0,0.0,-95.224,65.59387,179.14856
1766900355113,-0.92578125,-0.40039062,-0.026855469,-10.314941,0.12207031,7.2021484,0.0,0.0,0.0,-95.224,65.59387,179.14856
1766900355128,-0.92578125,-0.40039062,-0.026855469,-10.314941,0.12207031,7.2021484,0.0,0.0,0.0,-96.84448,66.01135,178.45093
1766900355213,-0.9013672,-0.42578125,-0.040527344,-6.7749023,-0.36621094,2.1362305,0.0,0.0,0.0,-96.84448,66.01135,178.45093
1766900355224,-0.9013672,-0.42578125,-0.040527344,-6.7749023,-0.36621094,2.1362305,0.0,0.0,0.0,-97.734375,66.3739,178.45093
1766900355312,-0.9272461,-0.38671875,-0.052734375,1.2207031,-0.91552734,5.126953,0.0,0.0,0.0,-97.734375,66.3739,178.45093
1766900355323,-0.9272461,-0.38671875,-0.052734375,1.2207031,-0.91552734,5.126953,0.0,0.0,0.0,-97.838745,66.659546,178.38501
1766900355412,-0.92529297,-0.41552734,-0.041503906,7.2631836,6.286621,4.638672,0.0,0.0,0.0,-97.838745,66.659546,178.38501
1766900355423,-0.92529297,-0.41552734,-0.041503906,7.2631836,6.286621,4.638672,0.0,0.0,0.0,-98.40454,67.13745,177.28638
1766900355512,-0.93066406,-0.3461914,-0.0703125,7.3242188,3.2958984,1.2817383,0.0,0.0,0.0,-98.40454,67.13745,177.28638
1766900355524,-0.93066406,-0.3461914,-0.0703125,7.3242188,3.2958984,1.2817383,0.0,0.0,0.0,-98.05847,67.27478,176.37451
1766900355612,-0.9140625,-0.38232422,-0.03466797,2.9296875,3.1738281,1.2207031,0.0,0.0,0.0,-98.05847,67.27478,176.37451
1766900355623,-0.9140625,-0.38232422,-0.03466797,2.9296875,3.1738281,1.2207031,0.0,0.0,0.0,-99.05823,67.263794,175.07263
1766900355711,-0.92285156,-0.37646484,-0.053710938,2.6855469,1.2817383,0.30517578,0.0,0.0,0.0,-99.05823,67.263794,175.07263
1766900355722,-0.92285156,-0.37646484,-0.053710938,2.6855469,1.2817383,0.30517578,0.0,0.0,0.0,-99.02527,67.36267,174.56177
1766900355811,-0.95410156,-0.421875,-0.05419922,1.7700195,3.112793,-5.6762695,0.0,0.0,0.0,-99.02527,67.36267,174.56177
1766900355822,-0.95410156,-0.421875,-0.05419922,1.7700195,3.112793,-5.6762695,0.0,0.0,0.0,-99.244995,67.11548,174.11682
1766900355910,-0.96484375,-0.34033203,-0.032714844,-1.6479492,-4.5776367,-7.873535,0.0,0.0,0.0,-99.244995,67.11548,174.11682
1766900355923,-0.96484375,-0.34033203,-0.032714844,-1.6479492,-4.5776367,-7.873535,0.0,0.0,0.0,-98.569336,66.15967,174.51233
1766900356011,-0.8798828,-0.4140625,-0.06347656,-0.48828125,-2.1972656,-9.094238,0.0,0.0,0.0,-98.569336,66.15967,174.51233
1766900356022,-0.8798828,-0.4140625,-0.06347656,-0.48828125,-2.1972656,-9.094238,0.0,0.0,0.0,-96.49292,65.76965,176.79749
1766900356110,-0.89160156,-0.43945312,-0.05078125,2.9296875,6.286621,-5.065918,0.0,0.0,0.0,-96.49292,65.76965,176.79749
1766900356122,-0.89160156,-0.43945312,-0.05078125,2.9296875,6.286621,-5.065918,0.0,0.0,0.0,-97.091675,65.044556,175.95703
1766900356212,-0.90478516,-0.42089844,-0.053222656,4.5166016,2.319336,-0.79345703,0.0,0.0,0.0,-97.091675,65.044556,175.95703
1766900356221,-0.90478516,-0.42089844,-0.053222656,4.5166016,2.319336,-0.79345703,0.0,0.0,0.0,-97.22351,64.58313,175.2539
1766900356309,-0.9003906,-0.4375,-0.05419922,1.159668,5.9814453,2.380371,0.0,0.0,0.0,-97.22351,64.58313,175.2539
1766900356321,-0.9003906,-0.4375,-0.05419922,1.159668,5.9814453,2.380371,0.0,0.0,0.0,-97.57507,64.70947,174.42993
1766900356409,-0.9213867,-0.4194336,-0.043945312,2.2583008,2.746582,1.7700195,0.0,0.0,0.0,-97.57507,64.70947,174.42993
1766900356423,-0.9213867,-0.4194336,-0.043945312,2.2583008,2.746582,1.7700195,0.0,0.0,0.0,-98.723145,64.78638,172.94128
1766900356509,-0.88183594,-0.4169922,-0.076171875,2.1972656,0.36621094,-0.61035156,0.0,0.0,0.0,-98.723145,64.78638,172.94128
1766900356521,-0.88183594,-0.4169922,-0.076171875,2.1972656,0.36621094,-0.61035156,0.0,0.0,0.0,-98.40454,64.79736,172.88635
1766900356609,-0.9067383,-0.41796875,-0.076660156,-4.0283203,5.859375,1.159668,0.0,0.0,0.0,-98.40454,64.79736,172.88635
1766900356620,-0.9067383,-0.41796875,-0.076660156,-4.0283203,5.859375,1.159668,0.0,0.0,0.0,-99.3219,64.764404,171.98547
1766900356708,-0.91259766,-0.42089844,-0.068847656,1.0375977,2.746582,3.7841797,0.0,0.0,0.0,-99.3219,64.764404,171.98547
1766900356720,-0.91259766,-0.42089844,-0.068847656,1.0375977,2.746582,3.7841797,0.0,0.0,0.0,-100.50293,64.973145,170.8374
1766900356808,-0.91748047,-0.4033203,-0.08105469,2.0141602,1.4648438,3.1738281,0.0,0.0,0.0,-100.50293,64.973145,170.8374
1766900356820,-0.91748047,-0.4033203,-0.08105469,2.0141602,1.4648438,3.1738281,0.0,0.0,0.0,-100.618286,65.22034,170.34302
1766900356908,-0.94091797,-0.4086914,-0.079589844,0.9765625,2.2583008,2.5634766,0.0,0.0,0.0,-100.618286,65.22034,170.34302
1766900356919,-0.94091797,-0.4086914,-0.079589844,0.9765625,2.2583008,2.5634766,0.0,0.0,0.0,-100.87097,65.478516,169.82666
1766900357008,-0.90771484,-0.390625,-0.0703125,-1.6479492,-1.5869141,3.9672852,0.0,0.0,0.0,-100.87097,65.478516,169.82666
1766900357021,-0.90771484,-0.390625,-0.0703125,-1.6479492,-1.5869141,3.9672852,0.0,0.0,0.0,-101.189575,65.808105,169.53003
1766900357107,-0.8989258,-0.3852539,-0.09277344,-5.859375,-0.30517578,2.5024414,0.0,0.0,0.0,-101.189575,65.808105,169.53003
1766900357119,-0.8989258,-0.3852539,-0.09277344,-5.859375,-0.30517578,2.5024414,0.0,0.0,0.0,-101.31592,66.25305,169.59045
1766900357207,-0.91259766,-0.3876953,-0.07763672,-7.9956055,2.1972656,-1.4648438,0.0,0.0,0.0,-101.31592,66.25305,169.59045
1766900357221,-0.91259766,-0.3876953,-0.07763672,-7.9956055,2.1972656,-1.4648438,0.0,0.0,0.0,-102.32666,66.23108,169.27734
1766900357307,-0.92285156,-0.40185547,-0.087890625,-1.4648438,1.2207031,0.18310547,0.0,0.0,0.0,-102.32666,66.23108,169.27734
1766900357321,-0.92285156,-0.40185547,-0.087890625,-1.4648438,1.2207031,0.18310547,0.0,0.0,0.0,-103.0188,66.11572,169.01367
1766900357407,-0.91259766,-0.4033203,-0.08886719,2.319336,1.4038086,-1.4648438,0.0,0.0,0.0,-103.0188,66.11572,169.01367
1766900357418,-0.91259766,-0.4033203,-0.08886719,2.319336,1.4038086,-1.4648438,0.0,0.0,0.0,-103.59558,65.95093,168.43689
1766900357508,-0.9350586,-0.40478516,-0.096191406,4.272461,2.1362305,-2.1972656,0.0,0.0,0.0,-103.59558,65.95093,168.43689
1766900357519,-0.9350586,-0.40478516,-0.096191406,4.272461,2.1362305,-2.1972656,0.0,0.0,0.0,-103.11218,65.74219,168.40393
1766900357606,-0.921875,-0.37939453,-0.092285156,6.713867,-3.9672852,-1.7700195,0.0,0.0,0.0,-103.11218,65.74219,168.40393
1766900357619,-0.921875,-0.37939453,-0.092285156,6.713867,-3.9672852,-1.7700195,0.0,0.0,0.0,-102.491455,65.57739,168.49731
1766900357706,-0.9350586,-0.39794922,-0.079589844,0.48828125,-4.4555664,-2.4414062,0.0,0.0,0.0,-102.491455,65.57739,168.49731
1766900357718,-0.9350586,-0.39794922,-0.079589844,0.48828125,-4.4555664,-2.4414062,0.0,0.0,0.0,-101.44226,65.48401,169.35974
1766900357805,-0.8857422,-0.3959961,-0.072265625,0.061035156,-3.4179688,-0.79345703,0.0,0.0,0.0,-101.44226,65.48401,169.35974
1766900357817,-0.8857422,-0.3959961,-0.072265625,0.061035156,-3.4179688,-0.79345703,0.0,0.0,0.0,-99.8053,65.478516,170.96375
1766900357905,-0.93408203,-0.4165039,-0.056152344,-2.5634766,-3.90625,0.061035156,0.0,0.0,0.0,-99.8053,65.478516,170.96375
1766900357917,-0.93408203,-0.4165039,-0.056152344,-2.5634766,-3.90625,0.061035156,0.0,0.0,0.0,-99.70093,65.50049,171.41968
1766900358005,-0.9160156,-0.38183594,-0.056152344,-1.4038086,-6.286621,1.7089844,0.0,0.0,0.0,-99.70093,65.50049,171.41968
1766900358017,-0.9160156,-0.38183594,-0.056152344,-1.4038086,-6.286621,1.7089844,0.0,0.0,0.0,-98.39905,65.68176,172.86987
1766900358105,-0.91308594,-0.41210938,-0.044433594,-6.4086914,-5.065918,8.117676,0.0,0.0,0.0,-98.39905,65.68176,172.86987
1766900358116,-0.91308594,-0.41210938,-0.044433594,-6.4086914,-5.065918,8.117676,0.0,0.0,0.0,-97.99805,66.30249,173.91907
1766900358204,-0.921875,-0.33203125,-0.037109375,-12.390137,-9.521484,13.183594,0.0,0.0,0.0,-97.99805,66.30249,173.91907
1766900358216,-0.921875,-0.33203125,-0.037109375,-12.390137,-9.521484,13.183594,0.0,0.0,0.0,-97.41577,67.527466,175.3418
1766900358304,-0.9277344,-0.34326172,-0.052246094,-24.780273,-2.8076172,6.958008,0.0,0.0,0.0,-97.41577,67.527466,175.3418
1766900358315,-0.9277344,-0.34326172,-0.052246094,-24.780273,-2.8076172,6.958008,0.0,0.0,0.0,-98.305664,68.604126,176.52283
1766900358404,-0.86816406,-0.34716797,-0.06689453,-20.935059,2.9907227,-2.5634766,0.0,0.0,0.0,-98.305664,68.604126,176.52283
1766900358416,-0.86816406,-0.34716797,-0.06689453,-20.935059,2.9907227,-2.5634766,0.0,0.0,0.0,-100.54138,68.66455,176.4624
1766900358505,-0.9926758,-0.3203125,-0.122558594,-18.737793,10.253906,-12.023926,0.0,0.0,0.0,-100.54138,68.66455,176.4624
1766900358515,-0.9926758,-0.3203125,-0.122558594,-18.737793,10.253906,-12.023926,0.0,0.0,0.0,-103.84277,67.901,174.43542
1766900358604,-0.9291992,-0.49316406,-0.07421875,-25.45166,11.108398,8.972168,0.0,0.0,0.0,-103.84277,67.901,174.43542
1766900358615,-0.9291992,-0.49316406,-0.07421875,-25.45166,11.108398,8.972168,0.0,0.0,0.0,-113.90076,65.945435,169.4751
1766900358703,-0.8730469,-0.375,-0.18798828,29.968262,-24.841309,0.91552734,0.0,0.0,0.0,-113.90076,65.945435,169.4751
1766900358714,-0.8730469,-0.375,-0.18798828,29.968262,-24.841309,0.91552734,0.0,0.0,0.0,-108.94592,67.02759,172.78198
1766900358803,-0.93408203,-0.34960938,-0.14453125,-27.46582,16.296387,-1.4038086,0.0,0.0,0.0,-108.94592,67.02759,172.78198
1766900358815,-0.93408203,-0.34960938,-0.14453125,-27.46582,16.296387,-1.4038086,0.0,0.0,0.0,-108.413086,67.022095,173.35327
1766900358903,-0.91748047,-0.41064453,-0.092285156,-0.5493164,-4.272461,-3.8452148,0.0,0.0,0.0,-108.413086,67.022095,173.35327
1766900358914,-0.91748047,-0.41064453,-0.092285156,-0.5493164,-4.272461,-3.8452148,0.0,0.0,0.0,-112.51099,66.35193,170.85388
1766900359003,-0.9428711,-0.38964844,-0.16699219,22.888184,-13.183594,-6.5307617,0.0,0.0,0.0,-112.51099,66.35193,170.85388
1766900359014,-0.9428711,-0.38964844,-0.16699219,22.888184,-13.183594,-6.5307617,0.0,0.0,0.0,-106.243286,66.24756,174.96826
1766900359102,-0.9243164,-0.41357422,-0.125,-5.859375,5.432129,-4.5776367,0.0,0.0,0.0,-106.243286,66.24756,174.96826
1766900359113,-0.9243164,-0.41357422,-0.125,-5.859375,5.432129,-4.5776367,0.0,0.0,0.0,-105.9137,65.66528,175.31982
1766900359202,-0.86376953,-0.40820312,-0.08935547,15.563965,-10.620117,-3.2958984,0.0,0.0,0.0,-105.9137,65.66528,175.31982
1766900359213,-0.86376953,-0.40820312,-0.08935547,15.563965,-10.620117,-3.2958984,0.0,0.0,0.0,-104.33716,65.6488,176.45142
1766900359303,-0.92626953,-0.3725586,-0.09765625,1.0375977,1.2817383,-7.2021484,0.0,0.0,0.0,-104.33716,65.6488,176.45142
1766900359313,-0.92626953,-0.3725586,-0.09765625,1.0375977,1.2817383,-7.2021484,0.0,0.0,0.0,-101.91467,65.0061,178.01147
1766900359401,-0.88916016,-0.44628906,-0.083496094,2.0141602,0.6713867,-5.493164,0.0,0.0,0.0,-101.91467,65.0061,178.01147
1766900359413,-0.88916016,-0.44628906,-0.083496094,2.0141602,0.6713867,-5.493164,0.0,0.0,0.0,-102.453,64.385376,177.7533
1766900359501,-0.92285156,-0.39990234,-0.072265625,-2.0141602,-3.90625,-3.540039,0.0,0.0,0.0,-102.453,64.385376,177.7533
1766900359512,-0.92285156,-0.39990234,-0.072265625,-2.0141602,-3.90625,-3.540039,0.0,0.0,0.0,-101.12915,64.105225,178.75854
1766900359601,-0.9116211,-0.42382812,-0.07861328,-0.8544922,-8.239746,1.8920898,0.0,0.0,0.0,-101.12915,64.105225,178.75854
1766900359612,-0.9116211,-0.42382812,-0.07861328,-0.8544922,-8.239746,1.8920898,0.0,0.0,0.0,-100.321655,64.23706,179.87366
1766900359700,-0.92041016,-0.4428711,-0.079589844,-12.451172,-0.79345703,3.6621094,0.0,0.0,0.0,-100.321655,64.23706,179.87366
1766900359715,-0.92041016,-0.4428711,-0.079589844,-12.451172,-0.79345703,3.6621094,0.0,0.0,0.0,-99.816284,64.714966,-179.09363
1766900359801,-0.90234375,-0.375,-0.057617188,-8.300781,-3.540039,-4.272461,0.0,0.0,0.0,-99.816284,64.714966,-179.09363
1766900359812,-0.90234375,-0.375,-0.057617188,-8.300781,-3.540039,-4.272461,0.0,0.0,0.0,-100.33264,64.75891,-178.74207
1766900359900,-0.93066406,-0.3984375,-0.05517578,-16.296387,-11.474609,-0.5493164,0.0,0.0,0.0,-100.33264,64.75891,-178.74207
1766900359911,-0.93066406,-0.3984375,-0.05517578,-16.296387,-11.474609,-0.5493164,0.0,0.0,0.0,-99.77234,64.57764,-176.7865
1766900360000,-0.90234375,-0.4169922,-0.0625,-19.714355,-11.291504,3.7231445,0.0,0.0,0.0,-99.77234,64.57764,-176.7865
1766900360011,-0.90234375,-0.4169922,-0.0625,-19.714355,-11.291504,3.7231445,0.0,0.0,0.0,-99.04175,65.077515,-174.01794
1766900360100,-0.91064453,-0.3623047,-0.0625,-27.526855,-14.953613,4.5166016,0.0,0.0,0.0,-99.04175,65.077515,-174.01794
1766900360111,-0.91064453,-0.3623047,-0.0625,-27.526855,-14.953613,4.5166016,0.0,0.0,0.0,-98.410034,65.71472,-170.85388
1766900360199,-0.9067383,-0.38720703,-0.06738281,-34.240723,-15.441895,1.4038086,0.0,0.0,0.0,-98.410034,65.71472,-170.85388
1766900360211,-0.9067383,-0.38720703,-0.06738281,-34.240723,-15.441895,1.4038086,0.0,0.0,0.0,-98.5199,66.30249,-167.33826
1766900360299,-0.9121094,-0.41259766,-0.07714844,-40.893555,-15.686035,2.746582,0.0,0.0,0.0,-98.5199,66.30249,-167.33826
1766900360310,-0.9121094,-0.41259766,-0.07714844,-40.893555,-15.686035,2.746582,0.0,0.0,0.0,-98.53638,66.78589,-163.22388
1766900360399,-0.91308594,-0.4423828,-0.061523438,-34.240723,-18.249512,0.48828125,0.0,0.0,0.0,-98.53638,66.78589,-163.22388
1766900360410,-0.91308594,-0.4423828,-0.061523438,-34.240723,-18.249512,0.48828125,0.0,0.0,0.0,-98.88245,67.06604,-159.2633
1766900360498,-0.9628906,-0.48242188,-0.06640625,-23.80371,-22.338867,1.159668,0.0,0.0,0.0,-98.88245,67.06604,-159.2633
1766900360510,-0.9628906,-0.48242188,-0.06640625,-23.80371,-22.338867,1.159668,0.0,0.0,0.0,-96.95984,67.24182,-154.17664
1766900360598,-0.8701172,-0.3623047,-0.0024414062,-7.446289,-25.939941,9.765625,0.0,0.0,0.0,-96.95984,67.24182,-154.17664
1766900360609,-0.8701172,-0.3623047,-0.0024414062,-7.446289,-25.939941,9.765625,0.0,0.0,0.0,-92.856445,67.977905,-148.11218
1766900360698,-0.8886719,-0.3330078,-0.0068359375,-16.296387,-13.916016,5.7373047,0.0,0.0,0.0,-92.856445,67.977905,-148.11218
1766900360709,-0.8886719,-0.3330078,-0.0068359375,-16.296387,-13.916016,5.7373047,0.0,0.0,0.0,-89.088135,68.60962,-142.75085
1766900360798,-0.91308594,-0.36816406,0.0073242188,-24.475098,-2.319336,1.5258789,0.0,0.0,0.0,-89.088135,68.60962,-142.75085
1766900360809,-0.91308594,-0.36816406,0.0073242188,-24.475098,-2.319336,1.5258789,0.0,0.0,0.0,-89.434204,68.9447,-140.80078
1766900360897,-0.9472656,-0.37890625,0.0048828125,-20.385742,-2.319336,-1.4038086,0.0,0.0,0.0,-89.434204,68.9447,-140.80078
1766900360909,-0.9472656,-0.37890625,0.0048828125,-20.385742,-2.319336,-1.4038086,0.0,0.0,0.0,-91.137085,68.81836,-140.37231
1766900360997,-0.95214844,-0.39648438,0.041015625,-17.211914,-1.4038086,-2.1972656,0.0,0.0,0.0,-91.137085,68.81836,-140.37231
1766900361009,-0.95214844,-0.39648438,0.041015625,-17.211914,-1.4038086,-2.1972656,0.0,0.0,0.0,-92.021484,68.61511,-139.63623
1766900361097,-0.85791016,-0.3779297,-0.019042969,-2.8686523,-9.82666,0.9765625,0.0,0.0,0.0,-92.021484,68.61511,-139.63623
1766900361108,-0.85791016,-0.3779297,-0.019042969,-2.8686523,-9.82666,0.9765625,0.0,0.0,0.0,-90.60974,68.4613,-137.40051
1766900361196,-0.9116211,-0.35253906,-0.03125,-10.070801,8.117676,-4.4555664,0.0,0.0,0.0,-90.60974,68.4613,-137.40051
1766900361208,-0.9116211,-0.35253906,-0.03125,-10.070801,8.117676,-4.4555664,0.0,0.0,0.0,-91.56006,68.33496,-137.62024
1766900361296,-0.90625,-0.37890625,-0.032226562,-40.405273,3.7231445,9.887695,0.0,0.0,0.0,-91.56006,68.33496,-137.62024
1766900361308,-0.90625,-0.37890625,-0.032226562,-40.405273,3.7231445,9.887695,0.0,0.0,0.0,-94.66919,68.71948,-138.7024
1766900361396,-0.9741211,-0.3852539,-0.02734375,-13.916016,-1.4038086,2.4414062,0.0,0.0,0.0,-94.66919,68.71948,-138.7024
1766900361407,-0.9741211,-0.3852539,-0.02734375,-13.916016,-1.4038086,2.4414062,0.0,0.0,0.0,-98.14087,68.64258,-139.64722
1766900361496,-0.9116211,-0.37939453,-0.05078125,-3.6010742,2.319336,0.12207031,0.0,0.0,0.0,-98.14087,68.64258,-139.64722
1766900361507,-0.9116211,-0.37939453,-0.05078125,-3.6010742,2.319336,0.12207031,0.0,0.0,0.0,-98.55286,68.77991,-139.5758
1766900361596,-0.9433594,-0.37402344,-0.056152344,2.5024414,5.6152344,1.953125,0.0,0.0,0.0,-98.55286,68.77991,-139.5758
1766900361607,-0.9433594,-0.37402344,-0.056152344,2.5024414,5.6152344,1.953125,0.0,0.0,0.0,-99.695435,68.670044,-140.99304
1766900361696,-0.9267578,-0.36914062,-0.055664062,11.84082,4.5166016,1.0375977,0.0,0.0,0.0,-99.695435,68.670044,-140.99304
1766900361707,-0.9267578,-0.36914062,-0.055664062,11.84082,4.5166016,1.0375977,0.0,0.0,0.0,-99.93713,68.69202,-142.28394
1766900361795,-0.9140625,-0.34814453,-0.06640625,12.6953125,9.643555,0.0,0.0,0.0,0.0,-99.93713,68.69202,-142.28394
1766900361806,-0.9140625,-0.34814453,-0.06640625,12.6953125,9.643555,0.0,0.0,0.0,0.0,-100.442505,68.52173,-144.40979
1766900361894,-0.9458008,-0.34521484,-0.084472656,13.122559,8.178711,0.79345703,0.0,0.0,0.0,-100.442505,68.52173,-144.40979
1766900361908,-0.9458008,-0.34521484,-0.084472656,13.122559,8.178711,0.79345703,0.0,0.0,0.0,-101.47522,68.34595,-146.9751
1766900361994,-0.9379883,-0.36328125,-0.07910156,9.887695,8.361816,-2.5634766,0.0,0.0,0.0,-101.47522,68.34595,-146.9751
1766900362006,-0.9379883,-0.36328125,-0.07910156,9.887695,8.361816,-2.5634766,0.0,0.0,0.0,-102.32117,68.16467,-149.11743
1766900362094,-0.93310547,-0.3569336,-0.08642578,11.108398,4.8828125,-4.0283203,0.0,0.0,0.0,-102.32117,68.16467,-149.11743
1766900362106,-0.93310547,-0.3569336,-0.08642578,11.108398,4.8828125,-4.0283203,0.0,0.0,0.0,-102.57385,67.71973,-150.64453
1766900362195,-0.9267578,-0.36669922,-0.09326172,5.004883,4.8828125,-3.0517578,0.0,0.0,0.0,-102.57385,67.71973,-150.64453
1766900362206,-0.9267578,-0.36669922,-0.09326172,5.004883,4.8828125,-3.0517578,0.0,0.0,0.0,-102.595825,67.31323,-151.67175
1766900362293,-0.9213867,-0.36865234,-0.088378906,2.0751953,3.7231445,-1.7089844,0.0,0.0,0.0,-102.595825,67.31323,-151.67175
1766900362305,-0.9213867,-0.36865234,-0.088378906,2.0751953,3.7231445,-1.7089844,0.0,0.0,0.0,-103.150635,67.005615,-152.6825
1766900362393,-0.91259766,-0.37060547,-0.100097656,-2.319336,3.7231445,-1.953125,0.0,0.0,0.0,-103.150635,67.005615,-152.6825
1766900362405,-0.91259766,-0.37060547,-0.100097656,-2.319336,3.7231445,-1.953125,0.0,0.0,0.0,-103.77136,66.84082,-153.46252
1766900362493,-0.9194336,-0.39111328,-0.084472656,-0.12207031,1.6479492,-1.4648438,0.0,0.0,0.0,-103.77136,66.84082,-153.46252
1766900362504,-0.9194336,-0.39111328,-0.084472656,-0.12207031,1.6479492,-1.4648438,0.0,0.0,0.0,-104.853516,66.54968,-154.39087
1766900362593,-0.88964844,-0.37841797,-0.09667969,5.3100586,-2.2583008,0.061035156,0.0,0.0,0.0,-104.853516,66.54968,-154.39087
1766900362604,-0.88964844,-0.37841797,-0.09667969,5.3100586,-2.2583008,0.061035156,0.0,0.0,0.0,-104.194336,66.48926,-154.18762
1766900362692,-0.9057617,-0.4501953,-0.10253906,5.6762695,6.286621,-2.6855469,0.0,0.0,0.0,-104.194336,66.48926,-154.18762
1766900362704,-0.9057617,-0.4501953,-0.10253906,5.6762695,6.286621,-2.6855469,0.0,0.0,0.0,-103.91968,66.26953,-154.59412
1766900362793,-0.90283203,-0.4375,-0.084472656,20.568848,5.92041,-1.7089844,0.0,0.0,0.0,-103.91968,66.26953,-154.59412
1766900362804,-0.90283203,-0.4375,-0.084472656,20.568848,5.92041,-1.7089844,0.0,0.0,0.0,-103.75488,65.79712,-156.16516
1766900362893,-0.8979492,-0.4140625,-0.08203125,22.949219,-0.4272461,0.0,0.0,0.0,0.0,-103.75488,65.79712,-156.16516
1766900362903,-0.8979492,-0.4140625,-0.08203125,22.949219,-0.4272461,0.0,0.0,0.0,0.0,-102.20581,65.53894,-156.97266
1766900362992,-0.9428711,-0.41455078,-0.06640625,36.68213,12.390137,2.746582,0.0,0.0,0.0,-102.20581,65.53894,-156.97266
1766900363003,-0.9428711,-0.41455078,-0.06640625,36.68213,12.390137,2.746582,0.0,0.0,0.0,-100.62927,65.12695,-158.7085
1766900363091,-0.85791016,-0.41796875,-0.09375,36.499023,12.390137,-1.0375977,0.0,0.0,0.0,-100.62927,65.12695,-158.7085
1766900363103,-0.85791016,-0.41796875,-0.09375,36.499023,12.390137,-1.0375977,0.0,0.0,0.0,-99.09668,65.028076,-161.13098
1766900363191,-0.97021484,-0.34326172,-0.07519531,22.155762,9.033203,0.24414062,0.0,0.0,0.0,-99.09668,65.028076,-161.13098
1766900363203,-0.97021484,-0.34326172,-0.07519531,22.155762,9.033203,0.24414062,0.0,0.0,0.0,-98.86597,64.59961,-164.03687
1766900363291,-0.9082031,-0.4189453,-0.0546875,21.972656,1.4038086,4.5776367,0.0,0.0,0.0,-98.86597,64.59961,-164.03687
1766900363302,-0.9082031,-0.4189453,-0.0546875,21.972656,1.4038086,4.5776367,0.0,0.0,0.0,-98.585815,65.11047,-165.64636
1766900363391,-0.921875,-0.38671875,-0.08984375,21.66748,2.0751953,5.432129,0.0,0.0,0.0,-98.585815,65.11047,-165.64636
1766900363403,-0.921875,-0.38671875,-0.08984375,21.66748,2.0751953,5.432129,0.0,0.0,0.0,-96.48743,65.71472,-166.04736
1766900363490,-0.9160156,-0.36376953,-0.05029297,14.282227,7.873535,6.225586,0.0,0.0,0.0,-96.48743,65.71472,-166.04736
1766900363502,-0.9160156,-0.36376953,-0.05029297,14.282227,7.873535,6.225586,0.0,0.0,0.0,-97.1521,66.14868,-168.16772
1766900363590,-0.93408203,-0.34228516,-0.0546875,9.460449,2.2583008,6.3476562,0.0,0.0,0.0,-97.1521,66.14868,-168.16772
1766900363602,-0.93408203,-0.34228516,-0.0546875,9.460449,2.2583008,6.3476562,0.0,0.0,0.0,-96.92139,66.829834,-169.35425
1766900363690,-0.9399414,-0.3251953,-0.037109375,-3.7841797,1.2817383,6.164551,0.0,0.0,0.0,-96.92139,66.829834,-169.35425
1766900363701,-0.9399414,-0.3251953,-0.037109375,-3.7841797,1.2817383,6.164551,0.0,0.0,0.0,-97.3938,67.56592,-170.00244
1766900363789,-0.94384766,-0.375,-0.040527344,-10.253906,0.0,2.8076172,0.0,0.0,0.0,-97.3938,67.56592,-170.00244
1766900363801,-0.94384766,-0.375,-0.040527344,-10.253906,0.0,2.8076172,0.0,0.0,0.0,-98.34961,68.10425,-170.24963
1766900363889,-0.9243164,-0.375,-0.060058594,-9.643555,3.7841797,0.48828125,0.0,0.0,0.0,-98.34961,68.10425,-170.24963
1766900363901,-0.9243164,-0.375,-0.060058594,-9.643555,3.7841797,0.48828125,0.0,0.0,0.0,-99.382324,68.37891,-170.72205
1766900363989,-0.9584961,-0.3803711,-0.06201172,-8.972168,3.6621094,-2.319336,0.0,0.0,0.0,-99.382324,68.37891,-170.72205
1766900364001,-0.9584961,-0.3803711,-0.06201172,-8.972168,3.6621094,-2.319336,0.0,0.0,0.0,-100.618286,68.131714,-171.4856
1766900364089,-0.91259766,-0.36816406,-0.06298828,2.0751953,-2.4414062,-2.0141602,0.0,0.0,0.0,-100.618286,68.131714,-171.4856
1766900364100,-0.91259766,-0.36816406,-0.06298828,2.0751953,-2.4414062,-2.0141602,0.0,0.0,0.0,-100.9259,67.94495,-171.86462
1766900364189,-0.9243164,-0.38427734,-0.07714844,2.9296875,0.79345703,-3.8452148,0.0,0.0,0.0,-100.9259,67.94495,-171.86462
1766900364200,-0.9243164,-0.38427734,-0.07714844,2.9296875,0.79345703,-3.8452148,0.0,0.0,0.0,-100.184326,67.60986,-171.568
1766900364288,-0.92871094,-0.37890625,-0.04296875,-1.8310547,-0.61035156,-2.4414062,0.0,0.0,0.0,-100.184326,67.60986,-171.568
1766900364300,-0.92871094,-0.37890625,-0.04296875,-1.8310547,-0.61035156,-2.4414062,0.0,0.0,0.0,-100.22827,67.20886,-171.52954
1766900364388,-0.9160156,-0.38476562,-0.0625,2.2583008,-2.5024414,-0.30517578,0.0,0.0,0.0,-100.22827,67.20886,-171.52954
1766900364399,-0.9160156,-0.38476562,-0.0625,2.2583008,-2.5024414,-0.30517578,0.0,0.0,0.0,-99.5636,67.13196,-171.04065
1766900364489,-0.9238281,-0.37109375,-0.064453125,-0.6713867,-0.61035156,0.24414062,0.0,0.0,0.0,-99.5636,67.13196,-171.04065
1766900364499,-0.9238281,-0.37109375,-0.064453125,-0.6713867,-0.61035156,0.24414062,0.0,0.0,0.0,-99.069214,67.142944,-170.66162
1766900364588,-0.9140625,-0.39501953,-0.060546875,-2.2583008,0.48828125,0.8544922,0.0,0.0,0.0,-99.069214,67.142944,-170.66162
1766900364599,-0.9140625,-0.39501953,-0.060546875,-2.2583008,0.48828125,0.8544922,0.0,0.0,0.0,-98.948364,67.27478,-170.47485
1766900364687,-0.93115234,-0.3774414,-0.05078125,3.1738281,-0.79345703,-0.6713867,0.0,0.0,0.0,-98.948364,67.27478,-170.47485
1766900364699,-0.93115234,-0.3774414,-0.05078125,3.1738281,-0.79345703,-0.6713867,0.0,0.0,0.0,-99.01428,67.214355,-170.63416
1766900364787,-0.9291992,-0.3671875,-0.07080078,1.4648438,1.6479492,2.0751953,0.0,0.0,0.0,-99.01428,67.214355,-170.63416
1766900364798,-0.9291992,-0.3671875,-0.07080078,1.4648438,1.6479492,2.0751953,0.0,0.0,0.0,-98.481445,67.31323,-170.55176
1766900364887,-0.9355469,-0.37060547,-0.045898438,3.9672852,-0.48828125,1.7700195,0.0,0.0,0.0,-98.481445,67.31323,-170.55176
1766900364898,-0.9355469,-0.37060547,-0.045898438,3.9672852,-0.48828125,1.7700195,0.0,0.0,0.0,-98.9978,67.45056,-171.14502
1766900364986,-0.9350586,-0.35595703,-0.05126953,1.8920898,1.2207031,1.8920898,0.0,0.0,0.0,-98.9978,67.45056,-171.14502
1766900364998,-0.9350586,-0.35595703,-0.05126953,1.8920898,1.2207031,1.8920898,0.0,0.0,0.0,-98.256226,67.68677,-170.93628
1766900365086,-0.9301758,-0.39160156,-0.032226562,4.333496,0.6713867,2.1972656,0.0,0.0,0.0,-98.256226,67.68677,-170.93628
1766900365097,-0.9301758,-0.39160156,-0.032226562,4.333496,0.6713867,2.1972656,0.0,0.0,0.0,-98.39905,67.890015,-171.4032
1766900365186,-0.92626953,-0.34179688,-0.047851562,9.82666,-0.9765625,5.126953,0.0,0.0,0.0,-98.39905,67.890015,-171.4032
1766900365197,-0.92626953,-0.34179688,-0.047851562,9.82666,-0.9765625,5.126953,0.0,0.0,0.0,-97.58057,68.25256,-171.50757
1766900365285,-0.93603516,-0.3383789,-0.045410156,1.8310547,5.3100586,6.1035156,0.0,0.0,0.0,-97.58057,68.25256,-171.50757
1766900365297,-0.93603516,-0.3383789,-0.045410156,1.8310547,5.3100586,6.1035156,0.0,0.0,0.0,-97.662964,68.79639,-172.26562
1766900365386,-0.9536133,-0.34179688,-0.029296875,5.859375,1.159668,5.859375,0.0,0.0,0.0,-97.662964,68.79639,-172.26562
1766900365397,-0.9536133,-0.34179688,-0.029296875,5.859375,1.159668,5.859375,0.0,0.0,0.0,-98.89343,69.312744,-173.9685
1766900365485,-0.92822266,-0.31298828,-0.057617188,5.432129,-1.953125,4.8217773,0.0,0.0,0.0,-98.89343,69.312744,-173.9685
1766900365498,-0.92822266,-0.31298828,-0.057617188,5.432129,-1.953125,4.8217773,0.0,0.0,0.0,-97.74536,69.89502,-173.6554
1766900365585,-0.9370117,-0.34765625,-0.055664062,2.4414062,6.286621,0.6713867,0.0,0.0,0.0,-97.74536,69.89502,-173.6554
1766900365597,-0.9370117,-0.34765625,-0.055664062,2.4414062,6.286621,0.6713867,0.0,0.0,0.0,-98.44849,70.164185,-174.63318
1766900365684,-0.94970703,-0.31347656,-0.04345703,2.8686523,3.6621094,-1.3427734,0.0,0.0,0.0,-98.44849,70.164185,-174.63318
1766900365696,-0.94970703,-0.31347656,-0.04345703,2.8686523,3.6621094,-1.3427734,0.0,0.0,0.0,-99.62952,69.94446,-176.20972
1766900365784,-0.94140625,-0.32470703,-0.053710938,3.479004,2.4414062,-0.61035156,0.0,0.0,0.0,-99.62952,69.94446,-176.20972
1766900365796,-0.94140625,-0.32470703,-0.053710938,3.479004,2.4414062,-0.61035156,0.0,0.0,0.0,-99.887695,69.834595,-176.95679
1766900365884,-0.95214844,-0.33642578,-0.056640625,0.5493164,3.0517578,0.61035156,0.0,0.0,0.0,-99.887695,69.834595,-176.95679
1766900365895,-0.95214844,-0.33642578,-0.056640625,0.5493164,3.0517578,0.61035156,0.0,0.0,0.0,-100.69519,69.76868,-178.12683
1766900365984,-0.9580078,-0.32373047,-0.06298828,-2.8076172,-0.18310547,-1.953125,0.0,0.0,0.0,-100.69519,69.76868,-178.12683
1766900365995,-0.9580078,-0.32373047,-0.06298828,-2.8076172,-0.18310547,-1.953125,0.0,0.0,0.0,-100.82153,69.73572,-178.42346
1766900366083,-0.9472656,-0.33203125,-0.057128906,-5.7373047,-2.5024414,-0.30517578,0.0,0.0,0.0,-100.82153,69.73572,-178.42346
1766900366095,-0.9472656,-0.33203125,-0.057128906,-5.7373047,-2.5024414,-0.30517578,0.0,0.0,0.0,-100.56885,69.76318,-177.9126
1766900366183,-0.9355469,-0.36035156,-0.064941406,-3.90625,-1.159668,-4.3945312,0.0,0.0,0.0,-100.56885,69.76318,-177.9126
1766900366194,-0.9355469,-0.36035156,-0.064941406,-3.90625,-1.159668,-4.3945312,0.0,0.0,0.0,-100.38757,69.64783,-177.182
1766900366283,-0.9296875,-0.3540039,-0.06689453,-9.155273,1.3427734,-2.2583008,0.0,0.0,0.0,-100.38757,69.64783,-177.182
1766900366294,-0.9296875,-0.3540039,-0.06689453,-9.155273,1.3427734,-2.2583008,0.0,0.0,0.0,-100.82153,69.246826,-177.08862
1766900366382,-0.92871094,-0.38427734,-0.07519531,5.065918,-1.2817383,-3.9672852,0.0,0.0,0.0,-100.82153,69.246826,-177.08862
1766900366395,-0.92871094,-0.38427734,-0.07519531,5.065918,-1.2817383,-3.9672852,0.0,0.0,0.0,-100.81055,68.87329,-176.85242
1766900366482,-0.9321289,-0.3647461,-0.07421875,6.0424805,0.30517578,-7.2631836,0.0,0.0,0.0,-100.81055,68.87329,-176.85242
1766900366496,-0.9321289,-0.3647461,-0.07421875,6.0424805,0.30517578,-7.2631836,0.0,0.0,0.0,-99.59656,68.29651,-176.34705
1766900366582,-0.9423828,-0.31982422,-0.045898438,0.30517578,-2.319336,-3.2958984,0.0,0.0,0.0,-99.59656,68.29651,-176.34705
1766900366596,-0.9423828,-0.31982422,-0.045898438,0.30517578,-2.319336,-3.2958984,0.0,0.0,0.0,-99.18457,67.64282,-176.01746
1766900366682,-0.9223633,-0.3984375,-0.06542969,-3.4179688,1.159668,-5.3100586,0.0,0.0,0.0,-99.18457,67.64282,-176.01746
1766900366693,-0.9223633,-0.3984375,-0.06542969,-3.4179688,1.159668,-5.3100586,0.0,0.0,0.0,-98.75061,67.43408,-175.48462
1766900366781,-0.92333984,-0.36083984,-0.060058594,-3.9672852,-4.272461,-4.4555664,0.0,0.0,0.0,-98.75061,67.43408,-175.48462
1766900366796,-0.92333984,-0.36083984,-0.060058594,-3.9672852,-4.272461,-4.4555664,0.0,0.0,0.0,-98.90442,66.91223,-175.13855
1766900366882,-0.92822266,-0.38867188,-0.064453125,-13.73291,-0.5493164,-1.7700195,0.0,0.0,0.0,-98.90442,66.91223,-175.13855
1766900366893,-0.92822266,-0.38867188,-0.064453125,-13.73291,-0.5493164,-1.7700195,0.0,0.0,0.0,-98.75061,66.74194,-174.08386
1766900366981,-0.9189453,-0.40527344,-0.06738281,-6.7749023,-3.9672852,-2.4414062,0.0,0.0,0.0,-98.75061,66.74194,-174.08386
1766900366993,-0.9189453,-0.40527344,-0.06738281,-6.7749023,-3.9672852,-2.4414062,0.0,0.0,0.0,-99.574585,66.59363,-173.76526
1766900367082,-0.9082031,-0.3955078,-0.06738281,-2.6245117,-4.8828125,-2.8076172,0.0,0.0,0.0,-99.574585,66.59363,-173.76526
1766900367093,-0.9082031,-0.3955078,-0.06738281,-2.6245117,-4.8828125,-2.8076172,0.0,0.0,0.0,-98.82202,66.35742,-172.58972
1766900367180,-0.91064453,-0.40039062,-0.05126953,-8.728027,1.0986328,0.7324219,0.0,0.0,0.0,-98.82202,66.35742,-172.58972
1766900367192,-0.91064453,-0.40039062,-0.05126953,-8.728027,1.0986328,0.7324219,0.0,0.0,0.0,-99.27246,66.31897,-172.43042
1766900367280,-0.91796875,-0.41601562,-0.057617188,0.24414062,-2.4414062,2.1972656,0.0,0.0,0.0,-99.27246,66.31897,-172.43042
1766900367291,-0.91796875,-0.41601562,-0.057617188,0.24414062,-2.4414062,2.1972656,0.0,0.0,0.0,-99.607544,66.434326,-172.40845
1766900367380,-0.92089844,-0.3701172,-0.072265625,-0.8544922,-1.7700195,0.8544922,0.0,0.0,0.0,-99.607544,66.434326,-172.40845
1766900367391,-0.92089844,-0.3701172,-0.072265625,-0.8544922,-1.7700195,0.8544922,0.0,0.0,0.0,-98.71765,66.58264,-171.69434
1766900367480,-0.9165039,-0.40283203,-0.045410156,-3.8452148,0.48828125,2.8686523,0.0,0.0,0.0,-98.71765,66.58264,-171.69434
1766900367492,-0.9165039,-0.40283203,-0.045410156,-3.8452148,0.48828125,2.8686523,0.0,0.0,0.0,-99.26697,66.796875,-171.78772
1766900367579,-0.9135742,-0.3828125,-0.06201172,2.4414062,-0.9765625,2.319336,0.0,0.0,0.0,-99.26697,66.796875,-171.78772
1766900367591,-0.9135742,-0.3828125,-0.06201172,2.4414062,-0.9765625,2.319336,0.0,0.0,0.0,-98.89343,67.038574,-171.60645
1766900367679,-0.921875,-0.39013672,-0.057617188,1.0375977,2.6855469,2.0751953,0.0,0.0,0.0,-98.89343,67.038574,-171.60645
1766900367690,-0.921875,-0.39013672,-0.057617188,1.0375977,2.6855469,2.0751953,0.0,0.0,0.0,-99.157104,67.19238,-172.06238
1766900367779,-0.92626953,-0.37548828,-0.05126953,4.8828125,-0.4272461,2.380371,0.0,0.0,0.0,-99.157104,67.19238,-172.06238
1766900367790,-0.92626953,-0.37548828,-0.05126953,4.8828125,-0.4272461,2.380371,0.0,0.0,0.0,-98.94287,67.34619,-172.34802
1766900367878,-0.9165039,-0.36865234,-0.05126953,4.8828125,0.0,2.8076172,0.0,0.0,0.0,-98.94287,67.34619,-172.34802
1766900367890,-0.9165039,-0.36865234,-0.05126953,4.8828125,0.0,2.8076172,0.0,0.0,0.0,-98.62976,67.5824,-172.55127
1766900367978,-0.92871094,-0.36914062,-0.05517578,3.2958984,0.91552734,2.2583008,0.0,0.0,0.0,-98.62976,67.5824,-172.55127
1766900367990,-0.92871094,-0.36914062,-0.05517578,3.2958984,0.91552734,2.2583008,0.0,0.0,0.0,-98.42651,67.785645,-172.81494
1766900368078,-0.93310547,-0.37304688,-0.049804688,2.319336,0.18310547,1.0986328,0.0,0.0,0.0,-98.42651,67.785645,-172.81494
1766900368091,-0.93310547,-0.37304688,-0.049804688,2.319336,0.18310547,1.0986328,0.0,0.0,0.0,-98.272705,67.93945,-173.0072
1766900368178,-0.9301758,-0.35986328,-0.040039062,2.5024414,-0.4272461,0.5493164,0.0,0.0,0.0,-98.272705,67.93945,-173.0072
1766900368191,-0.9301758,-0.35986328,-0.040039062,2.5024414,-0.4272461,0.5493164,0.0,0.0,0.0,-98.201294,67.994385,-173.20496
1766900368277,-0.93603516,-0.359375,-0.045898438,-1.6479492,1.0375977,-0.18310547,0.0,0.0,0.0,-98.201294,67.994385,-173.20496
1766900368289,-0.93603516,-0.359375,-0.045898438,-1.6479492,1.0375977,-0.18310547,0.0,0.0,0.0,-98.01453,68.010864,-173.21045
1766900368377,-0.93310547,-0.36328125,-0.044921875,-0.6713867,0.18310547,-0.4272461,0.0,0.0,0.0,-98.01453,68.010864,-173.21045
1766900368388,-0.93310547,-0.36328125,-0.044921875,-0.6713867,0.18310547,-0.4272461,0.0,0.0,0.0,-98.12439,67.994385,-173.28735
1766900368477,-0.9370117,-0.36376953,-0.05078125,0.12207031,0.12207031,0.6713867,0.0,0.0,0.0,-98.12439,67.994385,-173.28735
1766900368488,-0.9370117,-0.36376953,-0.05078125,0.12207031,0.12207031,0.6713867,0.0,0.0,0.0,-98.09143,68.03284,-173.29285
1766900368577,-0.9316406,-0.3647461,-0.047851562,0.4272461,0.9765625,0.36621094,0.0,0.0,0.0,-98.09143,68.03284,-173.29285
1766900368588,-0.9316406,-0.3647461,-0.047851562,0.4272461,0.9765625,0.36621094,0.0,0.0,0.0,-98.05847,68.10425,-173.33679
1766900368676,-0.93652344,-0.36376953,-0.045898438,1.2207031,0.9765625,-0.061035156,0.0,0.0,0.0,-98.05847,68.10425,-173.33679
1766900368688,-0.93652344,-0.36376953,-0.045898438,1.2207031,0.9765625,-0.061035156,0.0,0.0,0.0,-98.151855,68.098755,-173.59497
1766900368776,-0.92871094,-0.3569336,-0.048828125,2.0751953,0.0,0.24414062,0.0,0.0,0.0,-98.151855,68.098755,-173.59497
1766900368787,-0.92871094,-0.3569336,-0.048828125,2.0751953,0.0,0.24414062,0.0,0.0,0.0,-97.9541,68.12622,-173.69385
1766900368876,-0.93652344,-0.35986328,-0.045410156,1.0986328,1.0375977,-0.12207031,0.0,0.0,0.0,-97.9541,68.12622,-173.69385
1766900368888,-0.93652344,-0.35986328,-0.045410156,1.0986328,1.0375977,-0.12207031,0.0,0.0,0.0,-98.0365,68.12073,-173.9685
1766900368975,-0.93408203,-0.3564453,-0.05126953,0.61035156,0.48828125,-0.12207031,0.0,0.0,0.0,-98.0365,68.12073,-173.9685
1766900368987,-0.93408203,-0.3564453,-0.05126953,0.61035156,0.48828125,-0.12207031,0.0,0.0,0.0,-97.8772,68.12622,-174.00696
1766900369078,-0.93310547,-0.35839844,-0.046875,0.9765625,-0.4272461,-0.5493164,0.0,0.0,0.0,-97.8772,68.12622,-174.00696
1766900369087,-0.93310547,-0.35839844,-0.046875,0.9765625,-0.4272461,-0.5493164,0.0,0.0,0.0,-97.86072,68.131714,-174.07288
1766900369175,-0.9272461,-0.36669922,-0.057617188,-0.4272461,-0.12207031,-1.2207031,0.0,0.0,0.0,-97.86072,68.131714,-174.07288
1766900369189,-0.9272461,-0.36669922,-0.057617188,-0.4272461,-0.12207031,-1.2207031,0.0,0.0,0.0,-97.74536,68.0603,-174.02893
1766900369275,-0.9326172,-0.37890625,-0.046875,-2.0751953,0.30517578,-1.5258789,0.0,0.0,0.0,-97.74536,68.0603,-174.02893
1766900369286,-0.9326172,-0.37890625,-0.046875,-2.0751953,0.30517578,-1.5258789,0.0,0.0,0.0,-97.89917,67.91748,-174.07837
1766900369375,-0.9194336,-0.37841797,-0.059570312,0.9765625,-0.7324219,-2.0751953,0.0,0.0,0.0,-97.89917,67.91748,-174.07837
1766900369386,-0.9194336,-0.37841797,-0.059570312,0.9765625,-0.7324219,-2.0751953,0.0,0.0,0.0,-97.38281,67.752686,-173.6554
1766900369475,-0.9272461,-0.38232422,-0.045410156,1.159668,0.061035156,-1.4038086,0.0,0.0,0.0,-97.38281,67.752686,-173.6554
1766900369486,-0.9272461,-0.38232422,-0.045410156,1.159668,0.061035156,-1.4038086,0.0,0.0,0.0,-97.46521,67.54944,-173.75427
1766900369574,-0.9199219,-0.37158203,-0.052246094,0.7324219,0.18310547,-0.061035156,0.0,0.0,0.0,-97.46521,67.54944,-173.75427
1766900369585,-0.9199219,-0.37158203,-0.052246094,0.7324219,0.18310547,-0.061035156,0.0,0.0,0.0,-97.03125,67.49451,-173.50159
1766900369674,-0.9326172,-0.37451172,-0.038085938,0.12207031,0.91552734,0.0,0.0,0.0,0.0,-97.03125,67.49451,-173.50159
1766900369685,-0.9326172,-0.37451172,-0.038085938,0.12207031,0.91552734,0.0,0.0,0.0,0.0,-97.38281,67.47803,-173.84766
1766900369774,-0.9189453,-0.3798828,-0.049804688,1.0986328,0.79345703,-0.6713867,0.0,0.0,0.0,-97.38281,67.47803,-173.84766
1766900369785,-0.9189453,-0.3798828,-0.049804688,1.0986328,0.79345703,-0.6713867,0.0,0.0,0.0,-97.25098,67.46155,-173.90808
1766900369873,-0.93066406,-0.38476562,-0.03955078,0.30517578,1.4038086,-1.4648438,0.0,0.0,0.0,-97.25098,67.46155,-173.90808
1766900369885,-0.93066406,-0.38476562,-0.03955078,0.30517578,1.4038086,-1.4648438,0.0,0.0,0.0,-97.4762,67.30774,-174.25415
1766900369973,-0.91552734,-0.3798828,-0.05126953,0.7324219,-0.30517578,-1.0375977,0.0,0.0,0.0,-97.4762,67.30774,-174.25415
1766900369985,-0.91552734,-0.3798828,-0.05126953,0.7324219,-0.30517578,-1.0375977,0.0,0.0,0.0,-97.20154,67.19238,-174.18823
1766900370072,-0.92626953,-0.39892578,-0.041015625,-3.112793,0.36621094,-1.2207031,0.0,0.0,0.0,-97.20154,67.19238,-174.18823
1766900370084,-0.92626953,-0.39892578,-0.041015625,-3.112793,0.36621094,-1.2207031,0.0,0.0,0.0,-97.53662,67.06604,-174.35852
1766900370172,-0.91552734,-0.39160156,-0.05517578,-1.8310547,-1.7700195,-0.7324219,0.0,0.0,0.0,-97.53662,67.06604,-174.35852
1766900370184,-0.91552734,-0.39160156,-0.05517578,-1.8310547,-1.7700195,-0.7324219,0.0,0.0,0.0,-97.15759,66.96716,-173.8916
1766900370272,-0.9199219,-0.39794922,-0.044433594,-0.79345703,-1.5258789,-0.18310547,0.0,0.0,0.0,-97.15759,66.96716,-173.8916
1766900370283,-0.9199219,-0.39794922,-0.044433594,-0.79345703,-1.5258789,-0.18310547,0.0,0.0,0.0,-97.13562,66.90674,-173.6554
1766900370372,-0.9189453,-0.3935547,-0.047851562,-1.4648438,0.5493164,0.061035156,0.0,0.0,0.0,-97.13562,66.90674,-173.6554
1766900370383,-0.9189453,-0.3935547,-0.047851562,-1.4648438,0.5493164,0.061035156,0.0,0.0,0.0,-96.81152,66.884766,-173.28735
1766900370471,-0.91845703,-0.39746094,-0.04296875,1.7089844,-1.3427734,0.4272461,0.0,0.0,0.0,-96.81152,66.884766,-173.28735
1766900370483,-0.91845703,-0.39746094,-0.04296875,1.7089844,-1.3427734,0.4272461,0.0,0.0,0.0,-96.882935,66.89575,-173.3258
1766900370571,-0.91503906,-0.39013672,-0.045410156,0.91552734,2.6245117,1.0986328,0.0,0.0,0.0,-96.882935,66.89575,-173.3258
1766900370583,-0.91503906,-0.39013672,-0.045410156,0.91552734,2.6245117,1.0986328,0.0,0.0,0.0,-96.76758,66.92871,-173.41919
1766900370671,-0.9223633,-0.39013672,-0.043945312,2.4414062,2.5024414,1.5869141,0.0,0.0,0.0,-96.76758,66.92871,-173.41919
1766900370682,-0.9223633,-0.39013672,-0.043945312,2.4414062,2.5024414,1.5869141,0.0,0.0,0.0,-97.27844,66.98364,-174.20471
1766900370771,-0.9316406,-0.38232422,-0.051757812,2.0141602,2.0751953,2.0751953,0.0,0.0,0.0,-97.27844,66.98364,-174.20471
1766900370782,-0.9316406,-0.38232422,-0.051757812,2.0141602,2.0751953,2.0751953,0.0,0.0,0.0,-97.5531,67.10449,-174.88037
1766900370870,-0.93408203,-0.3725586,-0.046875,-0.24414062,0.5493164,2.2583008,0.0,0.0,0.0,-97.5531,67.10449,-174.88037
1766900370882,-0.93408203,-0.3725586,-0.046875,-0.24414062,0.5493164,2.2583008,0.0,0.0,0.0,-97.77832,67.30774,-175.44617
1766900370970,-0.9248047,-0.36572266,-0.05126953,-0.18310547,-1.8920898,2.1972656,0.0,0.0,0.0,-97.77832,67.30774,-175.44617
1766900370981,-0.9248047,-0.36572266,-0.05126953,-0.18310547,-1.8920898,2.1972656,0.0,0.0,0.0,-97.6355,67.560425,-175.43518
1766900371070,-0.92822266,-0.37060547,-0.044921875,-2.5634766,-0.30517578,2.0141602,0.0,0.0,0.0,-97.6355,67.560425,-175.43518
1766900371081,-0.92822266,-0.37060547,-0.044921875,-2.5634766,-0.30517578,2.0141602,0.0,0.0,0.0,-97.52014,67.77466,-175.17151
1766900371169,-0.9267578,-0.36669922,-0.044433594,-1.159668,-0.91552734,1.159668,0.0,0.0,0.0,-97.52014,67.77466,-175.17151
1766900371181,-0.9267578,-0.36669922,-0.044433594,-1.159668,-0.91552734,1.159668,0.0,0.0,0.0,-97.41577,67.961426,-174.9408
1766900371270,-0.9272461,-0.36132812,-0.04296875,-1.0986328,0.61035156,1.3427734,0.0,0.0,0.0,-97.41577,67.961426,-174.9408
1766900371280,-0.9272461,-0.36132812,-0.04296875,-1.0986328,0.61035156,1.3427734,0.0,0.0,0.0,-97.54761,68.082275,-174.96826
1766900371371,-0.9301758,-0.35742188,-0.046875,0.48828125,0.48828125,0.61035156,0.0,0.0,0.0,-97.54761,68.082275,-174.96826
1766900371380,-0.9301758,-0.35742188,-0.046875,0.48828125,0.48828125,0.61035156,0.0,0.0,0.0,-97.662964,68.19763,-175.15503
1766900371468,-0.9345703,-0.35791016,-0.04638672,0.6713867,0.4272461,-0.24414062,0.0,0.0,0.0,-97.662964,68.19763,-175.15503
1766900371480,-0.9345703,-0.35791016,-0.04638672,0.6713867,0.4272461,-0.24414062,0.0,0.0,0.0,-97.73987,68.219604,-175.3363
1766900371568,-0.9355469,-0.35839844,-0.04638672,0.30517578,0.7324219,-0.4272461,0.0,0.0,0.0,-97.73987,68.219604,-175.3363
1766900371580,-0.9355469,-0.35839844,-0.04638672,0.30517578,0.7324219,-0.4272461,0.0,0.0,0.0,-97.750854,68.19214,-175.46265
1766900371668,-0.9291992,-0.35986328,-0.044921875,-0.61035156,0.061035156,-0.5493164,0.0,0.0,0.0,-97.750854,68.19214,-175.46265
1766900371683,-0.9291992,-0.35986328,-0.044921875,-0.61035156,0.061035156,-0.5493164,0.0,0.0,0.0,-97.767334,68.15369,-175.56702
1766900371769,-0.92871094,-0.36279297,-0.04638672,0.4272461,-0.6713867,-0.61035156,0.0,0.0,0.0,-97.767334,68.15369,-175.56702
1766900371780,-0.92871094,-0.36279297,-0.04638672,0.4272461,-0.6713867,-0.61035156,0.0,0.0,0.0,-97.82776,68.098755,-175.6604
1766900371868,-0.9316406,-0.36572266,-0.04638672,-1.159668,0.61035156,-0.79345703,0.0,0.0,0.0,-97.82776,68.098755,-175.6604
1766900371883,-0.9316406,-0.36572266,-0.04638672,-1.159668,0.61035156,-0.79345703,0.0,0.0,0.0,-97.838745,68.02185,-175.67139
1766900371967,-0.92871094,-0.3696289,-0.046875,-1.159668,-0.061035156,-0.61035156,0.0,0.0,0.0,-97.838745,68.02185,-175.67139
1766900371979,-0.92871094,-0.3696289,-0.046875,-1.159668,-0.061035156,-0.61035156,0.0,0.0,0.0,-97.84424,67.977905,-175.62195
1766900372067,-0.9277344,-0.3701172,-0.048828125,-0.61035156,-0.30517578,-0.4272461,0.0,0.0,0.0,-97.84424,67.977905,-175.62195
1766900372078,-0.9277344,-0.3701172,-0.048828125,-0.61035156,-0.30517578,-0.4272461,0.0,0.0,0.0,-97.86072,67.92847,-175.61646
1766900372167,-0.9296875,-0.37451172,-0.052246094,-1.2817383,0.24414062,-0.36621094,0.0,0.0,0.0,-97.86072,67.92847,-175.61646
1766900372178,-0.9296875,-0.37451172,-0.052246094,-1.2817383,0.24414062,-0.36621094,0.0,0.0,0.0,-97.926636,67.89551,-175.62744
1766900372266,-0.9277344,-0.3696289,-0.05029297,-0.8544922,-1.5869141,0.0,0.0,0.0,0.0,-97.926636,67.89551,-175.62744
1766900372278,-0.9277344,-0.3696289,-0.05029297,-0.8544922,-1.5869141,0.0,0.0,0.0,0.0,-97.7948,67.87903,-175.40771
1766900372366,-0.9296875,-0.37060547,-0.048828125,-3.112793,-0.91552734,0.12207031,0.0,0.0,0.0,-97.7948,67.87903,-175.40771
1766900372378,-0.9296875,-0.37060547,-0.048828125,-3.112793,-0.91552734,0.12207031,0.0,0.0,0.0,-97.646484,67.89551,-175.03418
1766900372466,-0.93115234,-0.37646484,-0.051757812,-3.0517578,-2.5634766,0.4272461,0.0,0.0,0.0,-97.646484,67.89551,-175.03418
1766900372478,-0.93115234,-0.37646484,-0.051757812,-3.0517578,-2.5634766,0.4272461,0.0,0.0,0.0,-97.50366,67.93945,-174.56726
1766900372566,-0.9316406,-0.37451172,-0.04248047,-4.4555664,-1.6479492,-1.0375977,0.0,0.0,0.0,-97.50366,67.93945,-174.56726
1766900372577,-0.9316406,-0.37451172,-0.04248047,-4.4555664,-1.6479492,-1.0375977,0.0,0.0,0.0,-97.4707,67.873535,-174.1278
1766900372665,-0.9482422,-0.3515625,-0.03466797,-7.385254,-3.4179688,-0.61035156,0.0,0.0,0.0,-97.4707,67.873535,-174.1278
1766900372678,-0.9482422,-0.3515625,-0.03466797,-7.385254,-3.4179688,-0.61035156,0.0,0.0,0.0,-97.21802,67.785645,-173.32031
1766900372765,-0.9213867,-0.3486328,-0.06640625,-15.380859,-3.6010742,0.79345703,0.0,0.0,0.0,-97.21802,67.785645,-173.32031
1766900372778,-0.9213867,-0.3486328,-0.06640625,-15.380859,-3.6010742,0.79345703,0.0,0.0,0.0,-97.00928,67.98889,-172.14478
1766900372865,-0.9707031,-0.3881836,-0.017089844,-16.784668,-6.713867,0.24414062,0.0,0.0,0.0,-97.00928,67.98889,-172.14478
1766900372876,-0.9707031,-0.3881836,-0.017089844,-16.784668,-6.713867,0.24414062,0.0,0.0,0.0,-98.50891,68.08777,-171.5625
1766900372964,-0.9140625,-0.3305664,-0.06591797,-17.211914,-7.1411133,3.90625,0.0,0.0,0.0,-98.50891,68.08777,-171.5625
1766900372976,-0.9140625,-0.3305664,-0.06591797,-17.211914,-7.1411133,3.90625,0.0,0.0,0.0,-97.229004,68.428345,-168.89832
1766900373064,-0.9458008,-0.38085938,-0.028808594,-24.475098,-8.605957,0.0,0.0,0.0,0.0,-97.229004,68.428345,-168.89832
1766900373076,-0.9458008,-0.38085938,-0.028808594,-24.475098,-8.605957,0.0,0.0,0.0,0.0,-98.32214,68.67554,-167.36023
1766900373164,-0.9404297,-0.3569336,-0.04248047,-23.498535,-15.014648,-0.4272461,0.0,0.0,0.0,-98.32214,68.67554,-167.36023
1766900373176,-0.9404297,-0.3569336,-0.04248047,-23.498535,-15.014648,-0.4272461,0.0,0.0,0.0,-96.48193,68.79089,-163.24585
1766900373264,-0.92089844,-0.35791016,-0.040039062,-20.874023,-16.113281,-0.36621094,0.0,0.0,0.0,-96.48193,68.79089,-163.24585
1766900373275,-0.92089844,-0.35791016,-0.040039062,-20.874023,-16.113281,-0.36621094,0.0,0.0,0.0,-94.86145,68.89526,-159.0216
1766900373363,-0.92626953,-0.3647461,-0.023925781,-28.564453,-11.901855,-0.36621094,0.0,0.0,0.0,-94.86145,68.89526,-159.0216
1766900373375,-0.92626953,-0.3647461,-0.023925781,-28.564453,-11.901855,-0.36621094,0.0,0.0,0.0,-93.99353,68.97766,-155.28625
1766900373463,-0.94384766,-0.3408203,-0.014160156,-30.578613,-13.427734,-2.8686523,0.0,0.0,0.0,-93.99353,68.97766,-155.28625
1766900373474,-0.94384766,-0.3408203,-0.014160156,-30.578613,-13.427734,-2.8686523,0.0,0.0,0.0,-93.499146,68.8678,-151.65527
1766900373563,-0.92041016,-0.36279297,-0.023925781,-26.367188,-11.413574,0.5493164,0.0,0.0,0.0,-93.499146,68.8678,-151.65527
1766900373574,-0.92041016,-0.36279297,-0.023925781,-26.367188,-11.413574,0.5493164,0.0,0.0,0.0,-92.98828,68.85681,-148.13416
1766900373663,-0.9145508,-0.3388672,-0.036132812,-26.733398,-9.521484,2.380371,0.0,0.0,0.0,-92.98828,68.85681,-148.13416
1766900373675,-0.9145508,-0.3388672,-0.036132812,-26.733398,-9.521484,2.380371,0.0,0.0,0.0,-93.010254,69.054565,-145.25574
1766900373763,-0.9345703,-0.35205078,-0.037109375,-29.35791,-6.3476562,2.8686523,0.0,0.0,0.0,-93.010254,69.054565,-145.25574
1766900373776,-0.9345703,-0.35205078,-0.037109375,-29.35791,-6.3476562,2.8686523,0.0,0.0,0.0,-94.086914,69.367676,-143.29468
1766900373862,-0.95996094,-0.34716797,-0.022460938,-30.517578,-10.559082,0.48828125,0.0,0.0,0.0,-94.086914,69.367676,-143.29468
1766900373873,-0.95996094,-0.34716797,-0.022460938,-30.517578,-10.559082,0.48828125,0.0,0.0,0.0,-95.05371,69.58191,-141.1029
1766900373962,-0.9394531,-0.35742188,-0.030761719,-31.00586,-15.258789,2.0141602,0.0,0.0,0.0,-95.05371,69.58191,-141.1029
1766900373973,-0.9394531,-0.35742188,-0.030761719,-31.00586,-15.258789,2.0141602,0.0,0.0,0.0,-94.23523,69.81262,-137.03247
1766900374061,-0.9350586,-0.3798828,-0.02734375,-22.338867,-15.014648,2.746582,0.0,0.0,0.0,-94.23523,69.81262,-137.03247
1766900374073,-0.9350586,-0.3798828,-0.02734375,-22.338867,-15.014648,2.746582,0.0,0.0,0.0,-92.98279,70.09827,-132.70935
1766900374163,-0.9165039,-0.32910156,-0.0053710938,-18.188477,-10.009766,3.8452148,0.0,0.0,0.0,-92.98279,70.09827,-132.70935
1766900374176,-0.9165039,-0.32910156,-0.0053710938,-18.188477,-10.009766,3.8452148,0.0,0.0,0.0,-91.483154,70.29053,-128.96301
1766900374261,-0.9477539,-0.40966797,0.017089844,-10.009766,-7.6293945,1.7700195,0.0,0.0,0.0,-91.483154,70.29053,-128.96301
1766900374272,-0.9477539,-0.40966797,0.017089844,-10.009766,-7.6293945,1.7700195,0.0,0.0,0.0,-90.17578,70.493774,-125.94177
1766900374361,-0.9169922,-0.3251953,0.015136719,0.4272461,-10.803223,2.4414062,0.0,0.0,0.0,-90.17578,70.493774,-125.94177
1766900374372,-0.9169922,-0.3251953,0.015136719,0.4272461,-10.803223,2.4414062,0.0,0.0,0.0,-87.9126,70.493774,-123.20618
1766900374461,-0.94091797,-0.35205078,0.036621094,-1.0986328,-3.2348633,2.319336,0.0,0.0,0.0,-87.9126,70.493774,-123.20618
1766900374473,-0.94091797,-0.35205078,0.036621094,-1.0986328,-3.2348633,2.319336,0.0,0.0,0.0,-86.121826,70.653076,-121.294556
1766900374560,-0.9482422,-0.3100586,0.057128906,4.333496,-6.652832,-0.9765625,0.0,0.0,0.0,-86.121826,70.653076,-121.294556
1766900374572,-0.9482422,-0.3100586,0.057128906,4.333496,-6.652832,-0.9765625,0.0,0.0,0.0,-84.48486,70.58716,-120.01465
1766900374660,-0.9404297,-0.32421875,0.037109375,-5.432129,-4.272461,0.18310547,0.0,0.0,0.0,-84.48486,70.58716,-120.01465
1766900374671,-0.9404297,-0.32421875,0.037109375,-5.432129,-4.272461,0.18310547,0.0,0.0,0.0,-82.43591,70.510254,-117.98218
1766900374760,-0.9433594,-0.3334961,0.053222656,-5.7373047,-7.080078,-0.7324219,0.0,0.0,0.0,-82.43591,70.510254,-117.98218
1766900374771,-0.9433594,-0.3334961,0.053222656,-5.7373047,-7.080078,-0.7324219,0.0,0.0,0.0,-81.77673,70.46631,-116.72974
1766900374859,-0.93408203,-0.3334961,0.061523438,-12.207031,-4.272461,0.0,0.0,0.0,0.0,-81.77673,70.46631,-116.72974
1766900374871,-0.93408203,-0.3334961,0.061523438,-12.207031,-4.272461,0.0,0.0,0.0,0.0,-80.95825,70.339966,-115.05432
1766900374959,-0.9472656,-0.32177734,0.0625,-15.136719,-6.3476562,1.6479492,0.0,0.0,0.0,-80.95825,70.339966,-115.05432
1766900374971,-0.9472656,-0.32177734,0.0625,-15.136719,-6.3476562,1.6479492,0.0,0.0,0.0,-80.36499,70.27954,-113.18115
1766900375059,-0.94873047,-0.3486328,0.063964844,-18.554688,-2.4414062,0.91552734,0.0,0.0,0.0,-80.36499,70.27954,-113.18115
1766900375070,-0.94873047,-0.3486328,0.063964844,-18.554688,-2.4414062,0.91552734,0.0,0.0,0.0,-80.617676,70.35095,-111.7749
1766900375158,-0.90722656,-0.3491211,0.040527344,-13.122559,-1.7089844,0.0,0.0,0.0,0.0,-80.617676,70.35095,-111.7749
1766900375171,-0.90722656,-0.3491211,0.040527344,-13.122559,-1.7089844,0.0,0.0,0.0,0.0,-81.051636,70.35095,-110.68176
1766900375258,-0.9477539,-0.36621094,0.04296875,-15.808105,4.333496,1.4038086,0.0,0.0,0.0,-81.051636,70.35095,-110.68176
1766900375271,-0.9477539,-0.36621094,0.04296875,-15.808105,4.333496,1.4038086,0.0,0.0,0.0,-83.0072,70.356445,-111.31348
1766900375358,-0.92529297,-0.37304688,0.030273438,-9.338379,-0.18310547,0.061035156,0.0,0.0,0.0,-83.0072,70.356445,-111.31348
1766900375369,-0.92529297,-0.37304688,0.030273438,-9.338379,-0.18310547,0.061035156,0.0,0.0,0.0,-84.732056,70.41138,-111.90674
1766900375457,-0.95458984,-0.3647461,0.0234375,-7.6904297,3.7231445,-1.6479492,0.0,0.0,0.0,-84.732056,70.41138,-111.90674
1766900375470,-0.95458984,-0.3647461,0.0234375,-7.6904297,3.7231445,-1.6479492,0.0,0.0,0.0,-86.1438,70.19165,-112.61536
1766900375557,-0.9296875,-0.35791016,0.005859375,-2.5634766,1.8310547,-1.159668,0.0,0.0,0.0,-86.1438,70.19165,-112.61536
1766900375569,-0.9296875,-0.35791016,0.005859375,-2.5634766,1.8310547,-1.159668,0.0,0.0,0.0,-87.07764,69.96094,-113.19214
1766900375657,-0.9482422,-0.359375,0.0068359375,0.18310547,2.1972656,-0.5493164,0.0,0.0,0.0,-87.07764,69.96094,-113.19214
1766900375669,-0.9482422,-0.359375,0.0068359375,0.18310547,2.1972656,-0.5493164,0.0,0.0,0.0,-87.94556,69.82361,-113.95569
1766900375757,-0.93066406,-0.3149414,0.017089844,1.5258789,2.8686523,2.0141602,0.0,0.0,0.0,-87.94556,69.82361,-113.95569
1766900375768,-0.93066406,-0.3149414,0.017089844,1.5258789,2.8686523,2.0141602,0.0,0.0,0.0,-88.50586,69.851074,-114.70276
1766900375857,-0.9501953,-0.33496094,0.011230469,2.9296875,3.90625,1.7089844,0.0,0.0,0.0,-88.50586,69.851074,-114.70276
1766900375868,-0.9501953,-0.33496094,0.011230469,2.9296875,3.90625,1.7089844,0.0,0.0,0.0,-89.04419,70.026855,-115.598145
1766900375956,-0.95214844,-0.33544922,-0.0029296875,3.7231445,3.90625,0.91552734,0.0,0.0,0.0,-89.04419,70.026855,-115.598145
1766900375968,-0.95214844,-0.33544922,-0.0029296875,3.7231445,3.90625,0.91552734,0.0,0.0,0.0,-89.39026,70.235596,-116.54297
1766900376056,-0.94970703,-0.32470703,0.0078125,4.0283203,3.9672852,0.0,0.0,0.0,0.0,-89.39026,70.235596,-116.54297
1766900376067,-0.94970703,-0.32470703,0.0078125,4.0283203,3.9672852,0.0,0.0,0.0,0.0,-90.2417,70.30701,-117.86133
1766900376156,-0.9506836,-0.32763672,0.012207031,2.2583008,3.2348633,0.24414062,0.0,0.0,0.0,-90.2417,70.30701,-117.86133
1766900376167,-0.9506836,-0.32763672,0.012207031,2.2583008,3.2348633,0.24414062,0.0,0.0,0.0,-90.68115,70.35095,-118.81714
1766900376256,-0.9428711,-0.32373047,0.0146484375,3.7231445,-2.0141602,-0.6713867,0.0,0.0,0.0,-90.68115,70.35095,-118.81714
1766900376267,-0.9428711,-0.32373047,0.0146484375,3.7231445,-2.0141602,-0.6713867,0.0,0.0,0.0,-90.33508,70.35095,-118.99841
1766900376355,-0.9355469,-0.33447266,-0.0063476562,0.8544922,1.3427734,-1.8920898,0.0,0.0,0.0,-90.33508,70.35095,-118.99841
1766900376366,-0.9355469,-0.33447266,-0.0063476562,0.8544922,1.3427734,-1.8920898,0.0,0.0,0.0,-89.868164,70.25757,-118.899536
1766900376457,-0.96777344,-0.33447266,-0.001953125,2.380371,1.953125,-2.5024414,0.0,0.0,0.0,-89.868164,70.25757,-118.899536
1766900376466,-0.96777344,-0.33447266,-0.001953125,2.380371,1.953125,-2.5024414,0.0,0.0,0.0,-90.14282,70.05432,-119.470825
1766900376558,-0.9326172,-0.33935547,-0.0068359375,8.972168,-0.7324219,-3.6621094,0.0,0.0,0.0,-90.14282,70.05432,-119.470825
1766900376566,-0.9326172,-0.33935547,-0.0068359375,8.972168,-0.7324219,-3.6621094,0.0,0.0,0.0,-89.46716,69.7522,-119.40491
1766900376655,-0.92333984,-0.3779297,0.013183594,13.61084,7.873535,-4.8217773,0.0,0.0,0.0,-89.46716,69.7522,-119.40491
1766900376666,-0.92333984,-0.3779297,0.013183594,13.61084,7.873535,-4.8217773,0.0,0.0,0.0,-89.45068,69.32922,-120.580444
1766900376754,-0.9423828,-0.36279297,-0.001953125,15.563965,7.385254,-4.699707,0.0,0.0,0.0,-89.45068,69.32922,-120.580444
1766900376765,-0.9423828,-0.36279297,-0.001953125,15.563965,7.385254,-4.699707,0.0,0.0,0.0,-90.00549,68.7854,-122.93701
1766900376854,-0.9248047,-0.38330078,-0.0087890625,15.319824,6.652832,-3.0517578,0.0,0.0,0.0,-90.00549,68.7854,-122.93701
1766900376865,-0.9248047,-0.38330078,-0.0087890625,15.319824,6.652832,-3.0517578,0.0,0.0,0.0,-90.1593,68.43933,-124.88159
1766900376954,-0.9213867,-0.36132812,-0.001953125,18.127441,2.746582,-3.9672852,0.0,0.0,0.0,-90.1593,68.43933,-124.88159
1766900376965,-0.9213867,-0.36132812,-0.001953125,18.127441,2.746582,-3.9672852,0.0,0.0,0.0,-89.8407,68.010864,-126.364746
1766900377053,-0.9169922,-0.3828125,0.008300781,15.930176,6.591797,-0.061035156,0.0,0.0,0.0,-89.8407,68.010864,-126.364746
1766900377065,-0.9169922,-0.3828125,0.008300781,15.930176,6.591797,-0.061035156,0.0,0.0,0.0,-89.41223,67.840576,-127.6886
1766900377153,-0.9223633,-0.3515625,0.0043945312,16.845703,5.9814453,2.0141602,0.0,0.0,0.0,-89.41223,67.840576,-127.6886
1766900377164,-0.9223633,-0.3515625,0.0043945312,16.845703,5.9814453,2.0141602,0.0,0.0,0.0,-89.25293,67.96692,-129.375
1766900377253,-0.91552734,-0.35058594,-0.015625,6.225586,13.61084,2.1362305,0.0,0.0,0.0,-89.25293,67.96692,-129.375
1766900377264,-0.91552734,-0.35058594,-0.015625,6.225586,13.61084,2.1362305,0.0,0.0,0.0,-90.58777,68.236084,-132.1051
1766900377352,-0.9584961,-0.39160156,0.022460938,8.850098,4.5776367,-2.5634766,0.0,0.0,0.0,-90.58777,68.236084,-132.1051
1766900377364,-0.9584961,-0.39160156,0.022460938,8.850098,4.5776367,-2.5634766,0.0,0.0,0.0,-92.48291,68.1427,-134.92859
1766900377452,-0.90185547,-0.36279297,-0.0034179688,8.239746,4.272461,-3.3569336,0.0,0.0,0.0,-92.48291,68.1427,-134.92859
1766900377465,-0.90185547,-0.36279297,-0.0034179688,8.239746,4.272461,-3.3569336,0.0,0.0,0.0,-91.988525,67.78015,-135.71411
1766900377552,-0.9189453,-0.3930664,-0.029296875,3.6621094,7.1411133,-2.6245117,0.0,0.0,0.0,-91.988525,67.78015,-135.71411
1766900377563,-0.9189453,-0.3930664,-0.029296875,3.6621094,7.1411133,-2.6245117,0.0,0.0,0.0,-92.86194,67.43408,-137.4115
1766900377652,-0.93896484,-0.40673828,-0.018554688,6.225586,5.3710938,-1.3427734,0.0,0.0,0.0,-92.86194,67.43408,-137.4115
1766900377663,-0.93896484,-0.40673828,-0.018554688,6.225586,5.3710938,-1.3427734,0.0,0.0,0.0,-93.966064,67.159424,-139.2572
1766900377751,-0.9199219,-0.38183594,-0.03125,10.803223,3.540039,0.061035156,0.0,0.0,0.0,-93.966064,67.159424,-139.2572
1766900377763,-0.9199219,-0.38183594,-0.03125,10.803223,3.540039,0.061035156,0.0,0.0,0.0,-93.76282,67.06604,-140.24048
1766900377851,-0.92626953,-0.3828125,-0.017578125,8.300781,5.554199,0.61035156,0.0,0.0,0.0,-93.76282,67.06604,-140.24048
1766900377862,-0.92626953,-0.3828125,-0.017578125,8.300781,5.554199,0.61035156,0.0,0.0,0.0,-94.141846,67.04956,-141.6687
1766900377951,-0.92822266,-0.3774414,-0.040527344,8.056641,3.8452148,-0.18310547,0.0,0.0,0.0,-94.141846,67.04956,-141.6687
1766900377962,-0.92822266,-0.3774414,-0.040527344,8.056641,3.8452148,-0.18310547,0.0,0.0,0.0,-94.16931,67.04407,-142.70691
1766900378051,-0.94433594,-0.3930664,-0.029785156,7.385254,2.746582,0.7324219,0.0,0.0,0.0,-94.16931,67.04407,-142.70691
1766900378062,-0.94433594,-0.3930664,-0.029785156,7.385254,2.746582,0.7324219,0.0,0.0,0.0,-94.22424,67.03308,-143.56934
1766900378150,-0.92578125,-0.35839844,-0.033203125,7.3242188,-0.36621094,1.7089844,0.0,0.0,0.0,-94.22424,67.03308,-143.56934
1766900378162,-0.92578125,-0.35839844,-0.033203125,7.3242188,-0.36621094,1.7089844,0.0,0.0,0.0,-93.87268,67.1814,-143.99231
1766900378251,-0.9399414,-0.3569336,-0.032714844,0.36621094,1.2207031,2.5024414,0.0,0.0,0.0,-93.87268,67.1814,-143.99231
1766900378261,-0.9399414,-0.3569336,-0.032714844,0.36621094,1.2207031,2.5024414,0.0,0.0,0.0,-93.707886,67.42859,-144.1626
1766900378350,-0.9316406,-0.35986328,-0.026855469,1.2817383,-1.3427734,1.159668,0.0,0.0,0.0,-93.707886,67.42859,-144.1626
1766900378361,-0.9316406,-0.35986328,-0.026855469,1.2817383,-1.3427734,1.159668,0.0,0.0,0.0,-93.444214,67.69226,-144.0033
1766900378449,-0.9375,-0.3671875,-0.009765625,-2.4414062,-0.8544922,-0.24414062,0.0,0.0,0.0,-93.444214,67.69226,-144.0033
1766900378461,-0.9375,-0.3671875,-0.009765625,-2.4414062,-0.8544922,-0.24414062,0.0,0.0,0.0,-93.33435,67.78015,-143.88245
1766900378549,-0.91845703,-0.35791016,-0.024902344,-1.3427734,-1.0986328,0.24414062,0.0,0.0,0.0,-93.33435,67.78015,-143.88245
1766900378561,-0.91845703,-0.35791016,-0.024902344,-1.3427734,-1.0986328,0.24414062,0.0,0.0,0.0,-93.22449,67.785645,-143.66821
1766900378649,-0.9272461,-0.37304688,-0.016601562,-4.1503906,0.79345703,1.3427734,0.0,0.0,0.0,-93.22449,67.785645,-143.66821
1766900378663,-0.9272461,-0.37304688,-0.016601562,-4.1503906,0.79345703,1.3427734,0.0,0.0,0.0,-93.68042,67.89551,-143.77258
1766900378749,-0.9296875,-0.37158203,-0.023925781,-2.8076172,0.18310547,1.7089844,0.0,0.0,0.0,-93.68042,67.89551,-143.77258
1766900378760,-0.9296875,-0.37158203,-0.023925781,-2.8076172,0.18310547,1.7089844,0.0,0.0,0.0,-94.02649,68.0603,-143.89343
1766900378848,-0.9243164,-0.37548828,-0.027832031,-1.4038086,-0.61035156,1.4648438,0.0,0.0,0.0,-94.02649,68.0603,-143.89343
1766900378860,-0.9243164,-0.37548828,-0.027832031,-1.4038086,-0.61035156,1.4648438,0.0,0.0,0.0,-94.20227,68.21411,-143.90991
1766900378949,-0.93408203,-0.37158203,-0.025878906,-2.1972656,1.6479492,1.5869141,0.0,0.0,0.0,-94.20227,68.21411,-143.90991
1766900378960,-0.93408203,-0.37158203,-0.025878906,-2.1972656,1.6479492,1.5869141,0.0,0.0,0.0,-94.48242,68.32947,-144.0857
1766900379049,-0.9301758,-0.36523438,-0.026855469,-1.2817383,1.0375977,0.9765625,0.0,0.0,0.0,-94.48242,68.32947,-144.0857
1766900379059,-0.9301758,-0.36523438,-0.026855469,-1.2817383,1.0375977,0.9765625,0.0,0.0,0.0,-94.954834,68.428345,-144.49768
1766900379148,-0.93115234,-0.36767578,-0.03173828,-2.380371,2.1362305,0.12207031,0.0,0.0,0.0,-94.954834,68.428345,-144.49768
1766900379159,-0.93115234,-0.36767578,-0.03173828,-2.380371,2.1362305,0.12207031,0.0,0.0,0.0,-95.5426,68.43933,-145.047
1766900379248,-0.92822266,-0.3647461,-0.03515625,-2.6855469,2.4414062,-0.61035156,0.0,0.0,0.0,-95.5426,68.43933,-145.047
1766900379259,-0.92822266,-0.3647461,-0.03515625,-2.6855469,2.4414062,-0.61035156,0.0,0.0,0.0,-96.21277,68.3844,-145.7666
1766900379347,-0.9291992,-0.3647461,-0.041015625,-0.8544922,3.0517578,-0.12207031,0.0,0.0,0.0,-96.21277,68.3844,-145.7666
1766900379359,-0.9291992,-0.3647461,-0.041015625,-0.8544922,3.0517578,-0.12207031,0.0,0.0,0.0,-97.10266,68.31848,-146.68945
1766900379447,-0.9370117,-0.359375,-0.041015625,-0.48828125,2.8076172,0.6713867,0.0,0.0,0.0,-97.10266,68.31848,-146.68945
1766900379458,-0.9370117,-0.359375,-0.041015625,-0.48828125,2.8076172,0.6713867,0.0,0.0,0.0,-97.822266,68.291016,-147.5354
1766900379547,-0.93359375,-0.36132812,-0.052246094,2.6855469,1.159668,0.5493164,0.0,0.0,0.0,-97.822266,68.291016,-147.5354
1766900379558,-0.93359375,-0.36132812,-0.052246094,2.6855469,1.159668,0.5493164,0.0,0.0,0.0,-97.976074,68.340454,-147.96936
1766900379646,-0.9316406,-0.36132812,-0.05419922,2.5024414,0.48828125,0.24414062,0.0,0.0,0.0,-97.976074,68.340454,-147.96936
1766900379658,-0.9316406,-0.36132812,-0.05419922,2.5024414,0.48828125,0.24414062,0.0,0.0,0.0,-97.98157,68.37341,-148.28247
1766900379746,-0.9399414,-0.37402344,-0.04345703,1.4648438,1.2207031,0.0,0.0,0.0,0.0,-97.98157,68.37341,-148.28247
1766900379757,-0.9399414,-0.37402344,-0.04345703,1.4648438,1.2207031,0.0,0.0,0.0,0.0,-98.05298,68.37891,-148.55164
1766900379846,-0.9243164,-0.3540039,-0.064453125,4.333496,-1.0986328,-0.4272461,0.0,0.0,0.0,-98.05298,68.37891,-148.55164
1766900379857,-0.9243164,-0.3540039,-0.064453125,4.333496,-1.0986328,-0.4272461,0.0,0.0,0.0,-97.23999,68.36792,-148.19458
1766900379945,-0.93310547,-0.36083984,-0.04296875,0.8544922,2.8686523,-1.7700195,0.0,0.0,0.0,-97.23999,68.36792,-148.19458
1766900379957,-0.93310547,-0.36083984,-0.04296875,0.8544922,2.8686523,-1.7700195,0.0,0.0,0.0,-97.61902,68.25256,-148.656
1766900380045,-0.93603516,-0.3647461,-0.056640625,1.6479492,0.30517578,-1.4038086,0.0,0.0,0.0,-97.61902,68.25256,-148.656
1766900380057,-0.93603516,-0.3647461,-0.056640625,1.6479492,0.30517578,-1.4038086,0.0,0.0,0.0,-97.371826,68.1427,-148.62854
1766900380146,-0.93066406,-0.3642578,-0.049804688,1.0986328,0.18310547,-0.9765625,0.0,0.0,0.0,-97.371826,68.1427,-148.62854
1766900380156,-0.93066406,-0.3642578,-0.049804688,1.0986328,0.18310547,-0.9765625,0.0,0.0,0.0,-97.421265,68.04382,-148.77136
1766900380245,-0.9272461,-0.36328125,-0.045898438,1.4648438,-2.746582,0.30517578,0.0,0.0,0.0,-97.421265,68.04382,-148.77136
1766900380257,-0.9272461,-0.36328125,-0.045898438,1.4648438,-2.746582,0.30517578,0.0,0.0,0.0,-97.20703,68.02734,-148.61206
1766900380344,-0.93652344,-0.36279297,-0.03466797,0.0,-2.0141602,0.48828125,0.0,0.0,0.0,-97.20703,68.02734,-148.61206
1766900380356,-0.93652344,-0.36279297,-0.03466797,0.0,-2.0141602,0.48828125,0.0,0.0,0.0,-96.65222,68.07678,-148.06274
1766900380445,-0.92822266,-0.36083984,-0.036621094,-0.4272461,-3.112793,0.0,0.0,0.0,0.0,-96.65222,68.07678,-148.06274
1766900380456,-0.92822266,-0.36083984,-0.036621094,-0.4272461,-3.112793,0.0,0.0,0.0,0.0,-95.85571,68.15369,-147.25525
1766900380545,-0.9291992,-0.36865234,-0.026367188,-1.0986328,-2.1362305,-0.12207031,0.0,0.0,0.0,-95.85571,68.15369,-147.25525
1766900380556,-0.9291992,-0.36865234,-0.026367188,-1.0986328,-2.1362305,-0.12207031,0.0,0.0,0.0,-95.36133,68.17566,-146.61255
1766900380644,-0.9199219,-0.36767578,-0.026855469,-1.4648438,-1.5869141,-0.18310547,0.0,0.0,0.0,-95.36133,68.17566,-146.61255
1766900380655,-0.9199219,-0.36767578,-0.026855469,-1.4648438,-1.5869141,-0.18310547,0.0,0.0,0.0,-94.954834,68.17566,-146.10718
1766900380744,-0.9223633,-0.37548828,-0.025878906,-2.380371,-0.30517578,-0.18310547,0.0,0.0,0.0,-94.954834,68.17566,-146.10718
1766900380755,-0.9223633,-0.37548828,-0.025878906,-2.380371,-0.30517578,-0.18310547,0.0,0.0,0.0,-95.04822,68.131714,-146.04126
1766900380843,-0.92041016,-0.3725586,-0.033203125,0.0,-0.8544922,0.12207031,0.0,0.0,0.0,-95.04822,68.131714,-146.04126
1766900380854,-0.92041016,-0.3725586,-0.033203125,0.0,-0.8544922,0.12207031,0.0,0.0,0.0,-94.69116,68.1427,-145.67871
1766900380943,-0.92822266,-0.36914062,-0.020996094,0.18310547,-0.30517578,0.30517578,0.0,0.0,0.0,-94.69116,68.1427,-145.67871
1766900380954,-0.92822266,-0.36914062,-0.020996094,0.18310547,-0.30517578,0.30517578,0.0,0.0,0.0,-94.63074,68.14819,-145.65674
1766900381042,-0.93603516,-0.36865234,-0.022949219,0.36621094,0.8544922,0.30517578,0.0,0.0,0.0,-94.63074,68.14819,-145.65674
1766900381056,-0.93603516,-0.36865234,-0.022949219,0.36621094,0.8544922,0.30517578,0.0,0.0,0.0,-94.575806,68.14819,-145.70618
1766900381142,-0.92822266,-0.36816406,-0.030761719,-1.7089844,2.380371,1.4038086,0.0,0.0,0.0,-94.575806,68.14819,-145.70618
1766900381154,-0.92822266,-0.36816406,-0.030761719,-1.7089844,2.380371,1.4038086,0.0,0.0,0.0,-94.680176,68.25806,-145.89844
1766900381242,-0.9370117,-0.36767578,-0.036621094,0.061035156,0.30517578,0.7324219,0.0,0.0,0.0,-94.680176,68.25806,-145.89844
1766900381253,-0.9370117,-0.36767578,-0.036621094,0.061035156,0.30517578,0.7324219,0.0,0.0,0.0,-94.94385,68.35144,-146.21704
1766900381342,-0.93603516,-0.35107422,-0.045898438,-1.7089844,3.90625,0.8544922,0.0,0.0,0.0,-94.94385,68.35144,-146.21704
1766900381357,-0.93603516,-0.35107422,-0.045898438,-1.7089844,3.90625,0.8544922,0.0,0.0,0.0,-95.42175,68.42285,-146.77185
1766900381442,-0.92578125,-0.36035156,-0.02734375,-2.319336,2.9296875,-0.061035156,0.0,0.0,0.0,-95.42175,68.42285,-146.77185
1766900381453,-0.92578125,-0.36035156,-0.02734375,-2.319336,2.9296875,-0.061035156,0.0,0.0,0.0,-97.01477,68.42285,-148.11768
1766900381542,-0.9277344,-0.3569336,-0.05078125,-1.4648438,2.5634766,0.061035156,0.0,0.0,0.0,-97.01477,68.42285,-148.11768
1766900381553,-0.9277344,-0.3569336,-0.05078125,-1.4648438,2.5634766,0.061035156,0.0,0.0,0.0,-97.1521,68.41736,-148.3429
1766900381641,-0.9350586,-0.36132812,-0.044433594,-1.953125,0.30517578,-0.18310547,0.0,0.0,0.0,-97.1521,68.41736,-148.3429
1766900381652,-0.9350586,-0.36132812,-0.044433594,-1.953125,0.30517578,-0.18310547,0.0,0.0,0.0,-97.61902,68.411865,-148.656
1766900381741,-0.9375,-0.3779297,-0.043945312,1.5258789,1.0986328,0.4272461,0.0,0.0,0.0,-97.61902,68.411865,-148.656
1766900381752,-0.9375,-0.3779297,-0.043945312,1.5258789,1.0986328,0.4272461,0.0,0.0,0.0,-97.68494,68.428345,-148.78235
1766900381841,-0.93066406,-0.35498047,-0.044921875,4.1503906,-1.3427734,-0.48828125,0.0,0.0,0.0,-97.68494,68.428345,-148.78235
1766900381852,-0.93066406,-0.35498047,-0.044921875,4.1503906,-1.3427734,-0.48828125,0.0,0.0,0.0,-97.20154,68.3844,-148.71643
1766900381940,-0.9326172,-0.35986328,-0.045898438,0.061035156,-0.36621094,-0.36621094,0.0,0.0,0.0,-97.20154,68.3844,-148.71643
1766900381952,-0.9326172,-0.35986328,-0.045898438,0.061035156,-0.36621094,-0.36621094,0.0,0.0,0.0,-96.74011,68.32947,-148.4143
1766900382040,-0.93408203,-0.36132812,-0.041015625,-0.61035156,-0.79345703,-0.4272461,0.0,0.0,0.0,-96.74011,68.32947,-148.4143
1766900382051,-0.93408203,-0.36132812,-0.041015625,-0.61035156,-0.79345703,-0.4272461,0.0,0.0,0.0,-96.6687,68.302,-148.30994
1766900382140,-0.9321289,-0.36865234,-0.046875,-4.1503906,-0.061035156,-1.159668,0.0,0.0,0.0,-96.6687,68.302,-148.30994
1766900382151,-0.9321289,-0.36865234,-0.046875,-4.1503906,-0.061035156,-1.159668,0.0,0.0,0.0,-96.63574,68.26355,-148.06274
1766900382239,-0.9326172,-0.36279297,-0.049804688,-0.5493164,1.0375977,-1.6479492,0.0,0.0,0.0,-96.63574,68.26355,-148.06274
1766900382251,-0.9326172,-0.36279297,-0.049804688,-0.5493164,1.0375977,-1.6479492,0.0,0.0,0.0,-96.91589,68.10425,-148.12866
1766900382339,-0.9291992,-0.3852539,-0.03466797,-4.8828125,2.4414062,0.061035156,0.0,0.0,0.0,-96.91589,68.10425,-148.12866
1766900382351,-0.9291992,-0.3852539,-0.03466797,-4.8828125,2.4414062,0.061035156,0.0,0.0,0.0,-97.805786,67.95044,-148.70544
1766900382439,-0.91552734,-0.3725586,-0.047851562,2.8686523,-0.7324219,1.6479492,0.0,0.0,0.0,-97.805786,67.95044,-148.70544
1766900382452,-0.91552734,-0.3725586,-0.047851562,2.8686523,-0.7324219,1.6479492,0.0,0.0,0.0,-97.56409,68.07678,-148.71094
1766900382538,-0.9296875,-0.3491211,-0.045410156,-0.24414062,1.5258789,3.4179688,0.0,0.0,0.0,-97.56409,68.07678,-148.71094
1766900382550,-0.9296875,-0.3491211,-0.045410156,-0.24414062,1.5258789,3.4179688,0.0,0.0,0.0,-97.75635,68.302,-149.1449
1766900382638,-0.9370117,-0.359375,-0.044921875,0.0,-0.4272461,3.9672852,0.0,0.0,0.0,-97.75635,68.302,-149.1449
1766900382650,-0.9370117,-0.359375,-0.044921875,0.0,-0.4272461,3.9672852,0.0,0.0,0.0,-98.080444,68.65906,-149.51294
1766900382738,-0.9277344,-0.35205078,-0.05126953,1.5258789,0.79345703,5.126953,0.0,0.0,0.0,-98.080444,68.65906,-149.51294
1766900382750,-0.9277344,-0.35205078,-0.05126953,1.5258789,0.79345703,5.126953,0.0,0.0,0.0,-98.09143,69.09302,-149.67773
1766900382838,-0.9472656,-0.34521484,-0.038085938,-2.380371,0.61035156,2.8686523,0.0,0.0,0.0,-98.09143,69.09302,-149.67773
1766900382849,-0.9472656,-0.34521484,-0.038085938,-2.380371,0.61035156,2.8686523,0.0,0.0,0.0,-98.53088,69.48303,-150.1886
1766900382937,-0.9433594,-0.33251953,-0.05078125,-1.0986328,-2.6245117,1.5869141,0.0,0.0,0.0,-98.53088,69.48303,-150.1886
1766900382949,-0.9433594,-0.33251953,-0.05078125,-1.0986328,-2.6245117,1.5869141,0.0,0.0,0.0,-98.29468,69.70276,-149.89746
1766900383037,-0.94140625,-0.33935547,-0.043945312,-1.4648438,-0.36621094,0.12207031,0.0,0.0,0.0,-98.29468,69.70276,-149.89746
1766900383049,-0.94140625,-0.33935547,-0.043945312,-1.4648438,-0.36621094,0.12207031,0.0,0.0,0.0,-97.976074,69.801636,-149.42505
1766900383137,-0.9379883,-0.3256836,-0.04736328,-1.0375977,-1.5258789,0.18310547,0.0,0.0,0.0,-97.976074,69.801636,-149.42505
1766900383148,-0.9379883,-0.3256836,-0.04736328,-1.0375977,-1.5258789,0.18310547,0.0,0.0,0.0,-97.65747,69.834595,-149.04602
1766900383237,-0.95654297,-0.34716797,-0.03955078,-5.126953,0.9765625,-0.61035156,0.0,0.0,0.0,-97.65747,69.834595,-149.04602
1766900383248,-0.95654297,-0.34716797,-0.03955078,-5.126953,0.9765625,-0.61035156,0.0,0.0,0.0,-97.94861,69.834595,-148.89221
1766900383336,-0.94433594,-0.33984375,-0.049316406,-2.0751953,-0.48828125,0.4272461,0.0,0.0,0.0,-97.94861,69.834595,-148.89221
1766900383348,-0.94433594,-0.33984375,-0.049316406,-2.0751953,-0.48828125,0.4272461,0.0,0.0,0.0,-97.767334,69.84009,-148.50769
1766900383436,-0.9316406,-0.32910156,-0.03466797,-3.7841797,0.48828125,-0.18310547,0.0,0.0,0.0,-97.767334,69.84009,-148.50769
1766900383448,-0.9316406,-0.32910156,-0.03466797,-3.7841797,0.48828125,-0.18310547,0.0,0.0,0.0,-98.34961,69.87854,-148.80432
1766900383536,-0.9345703,-0.32958984,-0.045898438,-6.4697266,2.319336,0.30517578,0.0,0.0,0.0,-98.34961,69.87854,-148.80432
1766900383548,-0.9345703,-0.32958984,-0.045898438,-6.4697266,2.319336,0.30517578,0.0,0.0,0.0,-99.107666,69.86206,-149.21631
1766900383636,-0.9301758,-0.30371094,-0.053710938,-6.958008,1.2207031,0.7324219,0.0,0.0,0.0,-99.107666,69.86206,-149.21631
1766900383647,-0.9301758,-0.30371094,-0.053710938,-6.958008,1.2207031,0.7324219,0.0,0.0,0.0,-100.10742,69.87305,-149.76013
1766900383735,-0.9741211,-0.35302734,-0.0703125,-10.009766,0.4272461,-0.5493164,0.0,0.0,0.0,-100.10742,69.87305,-149.76013
1766900383747,-0.9741211,-0.35302734,-0.0703125,-10.009766,0.4272461,-0.5493164,0.0,0.0,0.0,-100.99182,69.94446,-149.88098
1766900383836,-0.9272461,-0.328125,-0.07324219,-7.080078,-1.953125,-0.91552734,0.0,0.0,0.0,-100.99182,69.94446,-149.88098
1766900383847,-0.9272461,-0.328125,-0.07324219,-7.080078,-1.953125,-0.91552734,0.0,0.0,0.0,-101.640015,69.851074,-149.71619
1766900383935,-0.95166016,-0.36669922,-0.057128906,-5.432129,1.159668,1.2817383,0.0,0.0,0.0,-101.640015,69.851074,-149.71619
1766900383946,-0.95166016,-0.36669922,-0.057128906,-5.432129,1.159668,1.2817383,0.0,0.0,0.0,-102.387085,69.88403,-149.84802
1766900384034,-0.91064453,-0.31933594,-0.08300781,6.958008,-1.8920898,-0.6713867,0.0,0.0,0.0,-102.387085,69.88403,-149.84802
1766900384046,-0.91064453,-0.31933594,-0.08300781,6.958008,-1.8920898,-0.6713867,0.0,0.0,0.0,-101.70044,69.88953,-149.47998
1766900384134,-0.9614258,-0.32763672,-0.07470703,-2.8076172,4.8828125,-1.5258789,0.0,0.0,0.0,-101.70044,69.88953,-149.47998
1766900384146,-0.9614258,-0.32763672,-0.07470703,-2.8076172,4.8828125,-1.5258789,0.0,0.0,0.0,-102.09595,69.67529,-150.05676
1766900384234,-0.9394531,-0.3408203,-0.080566406,4.760742,-1.2207031,-1.2817383,0.0,0.0,0.0,-102.09595,69.67529,-150.05676
1766900384245,-0.9394531,-0.3408203,-0.080566406,4.760742,-1.2207031,-1.2817383,0.0,0.0,0.0,-102.32117,69.54895,-150.40833
1766900384334,-0.92626953,-0.33984375,-0.080566406,-0.48828125,3.9672852,-1.3427734,0.0,0.0,0.0,-102.32117,69.54895,-150.40833
1766900384345,-0.92626953,-0.33984375,-0.080566406,-0.48828125,3.9672852,-1.3427734,0.0,0.0,0.0,-102.15637,69.40613,-150.47974
1766900384433,-0.93359375,-0.36523438,-0.07714844,7.751465,-1.6479492,-2.380371,0.0,0.0,0.0,-102.15637,69.40613,-150.47974
1766900384445,-0.93359375,-0.36523438,-0.07714844,7.751465,-1.6479492,-2.380371,0.0,0.0,0.0,-102.161865,69.21387,-150.80933
1766900384533,-0.92529297,-0.35058594,-0.07128906,8.056641,1.4038086,-3.112793,0.0,0.0,0.0,-102.161865,69.21387,-150.80933
1766900384545,-0.92529297,-0.35058594,-0.07128906,8.056641,1.4038086,-3.112793,0.0,0.0,0.0,-101.17859,68.90625,-150.62256
1766900384633,-0.9511719,-0.3540039,-0.05517578,10.803223,0.36621094,-1.2817383,0.0,0.0,0.0,-101.17859,68.90625,-150.62256
1766900384644,-0.9511719,-0.3540039,-0.05517578,10.803223,0.36621094,-1.2817383,0.0,0.0,0.0,-100.53589,68.637085,-150.81482
1766900384732,-0.93115234,-0.3544922,-0.061523438,10.864258,-1.0375977,-1.4038086,0.0,0.0,0.0,-100.53589,68.637085,-150.81482
1766900384744,-0.93115234,-0.3544922,-0.061523438,10.864258,-1.0375977,-1.4038086,0.0,0.0,0.0,-98.915405,68.59314,-150.32043
1766900384832,-0.9326172,-0.3408203,-0.04638672,5.065918,1.5869141,-1.8920898,0.0,0.0,0.0,-98.915405,68.59314,-150.32043
1766900384845,-0.9326172,-0.3408203,-0.04638672,5.065918,1.5869141,-1.8920898,0.0,0.0,0.0,-98.26721,68.4613,-150.45776
1766900384932,-0.93359375,-0.35351562,-0.052246094,1.7700195,-0.6713867,0.18310547,0.0,0.0,0.0,-98.26721,68.4613,-150.45776
1766900384945,-0.93359375,-0.35351562,-0.052246094,1.7700195,-0.6713867,0.18310547,0.0,0.0,0.0,-97.83325,68.444824,-150.4248
1766900385032,-0.9145508,-0.36865234,-0.041015625,0.12207031,1.2207031,-0.30517578,0.0,0.0,0.0,-97.83325,68.444824,-150.4248
1766900385043,-0.9145508,-0.36865234,-0.041015625,0.12207031,1.2207031,-0.30517578,0.0,0.0,0.0,-98.239746,68.428345,-150.82031
1766900385131,-0.92285156,-0.3623047,-0.0546875,-1.5258789,2.1972656,-0.61035156,0.0,0.0,0.0,-98.239746,68.428345,-150.82031
1766900385143,-0.92285156,-0.3623047,-0.0546875,-1.5258789,2.1972656,-0.61035156,0.0,0.0,0.0,-98.239746,68.31299,-150.9137
1766900385231,-0.9316406,-0.37695312,-0.045410156,-1.5258789,2.6245117,-0.48828125,0.0,0.0,0.0,-98.239746,68.31299,-150.9137
1766900385242,-0.9316406,-0.37695312,-0.045410156,-1.5258789,2.6245117,-0.48828125,0.0,0.0,0.0,-99.31641,68.19214,-151.85303
1766900385334,-0.9321289,-0.38623047,-0.055664062,0.30517578,2.2583008,-0.5493164,0.0,0.0,0.0,-99.31641,68.19214,-151.85303
1766900385342,-0.9321289,-0.38623047,-0.055664062,0.30517578,2.2583008,-0.5493164,0.0,0.0,0.0,-99.645996,68.13721,-152.38586
1766900385430,-0.93603516,-0.3828125,-0.047851562,2.5634766,-1.8310547,-0.61035156,0.0,0.0,0.0,-99.645996,68.13721,-152.38586
1766900385442,-0.93603516,-0.3828125,-0.047851562,2.5634766,-1.8310547,-0.61035156,0.0,0.0,0.0,-99.41528,68.02734,-152.5177
1766900385530,-0.92333984,-0.3642578,-0.046875,6.713867,-3.6010742,-1.2207031,0.0,0.0,0.0,-99.41528,68.02734,-152.5177
1766900385542,-0.92333984,-0.3642578,-0.046875,6.713867,-3.6010742,-1.2207031,0.0,0.0,0.0,-98.32214,67.901,-151.99036
1766900385630,-0.92871094,-0.38183594,-0.044921875,2.746582,0.36621094,-1.8920898,0.0,0.0,0.0,-98.32214,67.901,-151.99036
1766900385643,-0.92871094,-0.38183594,-0.044921875,2.746582,0.36621094,-1.8920898,0.0,0.0,0.0,-97.38281,67.7417,-151.49597
1766900385730,-0.91796875,-0.36865234,-0.041015625,5.9814453,-1.2817383,-2.1972656,0.0,0.0,0.0,-97.38281,67.7417,-151.49597
1766900385741,-0.91796875,-0.36865234,-0.041015625,5.9814453,-1.2817383,-2.1972656,0.0,0.0,0.0,-96.54785,67.52197,-151.18286
1766900385829,-0.9243164,-0.36572266,-0.03857422,1.0986328,3.0517578,-1.2817383,0.0,0.0,0.0,-96.54785,67.52197,-151.18286
1766900385843,-0.9243164,-0.36572266,-0.03857422,1.0986328,3.0517578,-1.2817383,0.0,0.0,0.0,-96.41052,67.351685,-151.43005
1766900385929,-0.9277344,-0.3857422,-0.03125,4.5166016,0.36621094,-0.24414062,0.0,0.0,0.0,-96.41052,67.351685,-151.43005
1766900385941,-0.9277344,-0.3857422,-0.03125,4.5166016,0.36621094,-0.24414062,0.0,0.0,0.0,-96.5863,67.27478,-151.96289
1766900386029,-0.9199219,-0.3881836,-0.041992188,6.164551,1.7089844,-0.5493164,0.0,0.0,0.0,-96.5863,67.27478,-151.96289
1766900386040,-0.9199219,-0.3881836,-0.041992188,6.164551,1.7089844,-0.5493164,0.0,0.0,0.0,-96.15234,67.230835,-152.21008
1766900386129,-0.9213867,-0.375,-0.033691406,6.7749023,2.9907227,-0.12207031,0.0,0.0,0.0,-96.15234,67.230835,-152.21008
1766900386140,-0.9213867,-0.375,-0.033691406,6.7749023,2.9907227,-0.12207031,0.0,0.0,0.0,-96.015015,67.159424,-152.79236
1766900386228,-0.93408203,-0.37939453,-0.03955078,6.1035156,2.2583008,-0.061035156,0.0,0.0,0.0,-96.015015,67.159424,-152.79236
1766900386240,-0.93408203,-0.37939453,-0.03955078,6.1035156,2.2583008,-0.061035156,0.0,0.0,0.0,-95.877686,67.142944,-153.35815
1766900386328,-0.9199219,-0.38623047,-0.04248047,6.225586,2.1362305,-0.061035156,0.0,0.0,0.0,-95.877686,67.142944,-153.35815
1766900386340,-0.9199219,-0.38623047,-0.04248047,6.225586,2.1362305,-0.061035156,0.0,0.0,0.0,-95.63599,67.14844,-153.8031
1766900386428,-0.91845703,-0.3779297,-0.04296875,5.554199,2.380371,-0.30517578,0.0,0.0,0.0,-95.63599,67.14844,-153.8031
1766900386440,-0.91845703,-0.3779297,-0.04296875,5.554199,2.380371,-0.30517578,0.0,0.0,0.0,-95.625,67.08801,-154.4513
1766900386528,-0.9243164,-0.37890625,-0.03857422,2.9907227,3.1738281,0.18310547,0.0,0.0,0.0,-95.625,67.08801,-154.4513
1766900386539,-0.9243164,-0.37890625,-0.03857422,2.9907227,3.1738281,0.18310547,0.0,0.0,0.0,-95.95459,67.04956,-155.2533
1766900386627,-0.92871094,-0.38085938,-0.0390625,2.5024414,1.4038086,-0.18310547,0.0,0.0,0.0,-95.95459,67.04956,-155.2533
1766900386639,-0.92871094,-0.38085938,-0.0390625,2.5024414,1.4038086,-0.18310547,0.0,0.0,0.0,-96.135864,67.03308,-155.78064
1766900386728,-0.9238281,-0.38232422,-0.0390625,0.91552734,-0.36621094,0.061035156,0.0,0.0,0.0,-96.135864,67.03308,-155.78064
1766900386738,-0.9238281,-0.38232422,-0.0390625,0.91552734,-0.36621094,0.061035156,0.0,0.0,0.0,-96.031494,67.02759,-155.87952
1766900386827,-0.92285156,-0.38867188,-0.040527344,-0.061035156,-1.159668,0.24414062,0.0,0.0,0.0,-96.031494,67.02759,-155.87952
1766900386838,-0.92285156,-0.38867188,-0.040527344,-0.061035156,-1.159668,0.24414062,0.0,0.0,0.0,-95.83374,67.04956,-155.7312
1766900386927,-0.92041016,-0.3828125,-0.03466797,-2.1362305,-0.61035156,1.0986328,0.0,0.0,0.0,-95.83374,67.04956,-155.7312
1766900386938,-0.92041016,-0.3828125,-0.03466797,-2.1362305,-0.61035156,1.0986328,0.0,0.0,0.0,-95.60303,67.15393,-155.46204
1766900387026,-0.9189453,-0.37890625,-0.033203125,-2.1972656,-0.48828125,0.4272461,0.0,0.0,0.0,-95.60303,67.15393,-155.46204
1766900387038,-0.9189453,-0.37890625,-0.033203125,-2.1972656,-0.48828125,0.4272461,0.0,0.0,0.0,-95.65796,67.21985,-155.36865
1766900387126,-0.9238281,-0.38671875,-0.034179688,-2.0751953,-0.61035156,0.0,0.0,0.0,0.0,-95.65796,67.21985,-155.36865
1766900387137,-0.9238281,-0.38671875,-0.034179688,-2.0751953,-0.61035156,0.0,0.0,0.0,0.0,-95.806274,67.230835,-155.31921
1766900387226,-0.9238281,-0.37939453,-0.036132812,-1.2207031,-0.48828125,0.12207031,0.0,0.0,0.0,-95.806274,67.230835,-155.31921
1766900387237,-0.9238281,-0.37939453,-0.036132812,-1.2207031,-0.48828125,0.12207031,0.0,0.0,0.0,-95.65796,67.24182,-155.07751
1766900387325,-0.921875,-0.38134766,-0.038085938,-0.5493164,-0.36621094,0.5493164,0.0,0.0,0.0,-95.65796,67.24182,-155.07751
1766900387338,-0.921875,-0.38134766,-0.038085938,-0.5493164,-0.36621094,0.5493164,0.0,0.0,0.0,-95.59204,67.28577,-154.96765
1766900387425,-0.9277344,-0.38085938,-0.03515625,-0.12207031,0.91552734,0.5493164,0.0,0.0,0.0,-95.59204,67.28577,-154.96765
1766900387437,-0.9277344,-0.38085938,-0.03515625,-0.12207031,0.91552734,0.5493164,0.0,0.0,0.0,-95.67993,67.335205,-155.07751
1766900387525,-0.92529297,-0.3803711,-0.029296875,0.79345703,0.5493164,0.24414062,0.0,0.0,0.0,-95.67993,67.335205,-155.07751
1766900387537,-0.92529297,-0.3803711,-0.029296875,0.79345703,0.5493164,0.24414062,0.0,0.0,0.0,-95.8667,67.36267,-155.35767
1766900387624,-0.93896484,-0.3671875,-0.026367188,-1.2817383,-0.30517578,-0.12207031,0.0,0.0,0.0,-95.8667,67.36267,-155.35767
1766900387636,-0.93896484,-0.3671875,-0.026367188,-1.2817383,-0.30517578,-0.12207031,0.0,0.0,0.0,-95.81177,67.3407,-155.34668
1766900387724,-0.91845703,-0.3696289,-0.03857422,-3.9672852,-0.8544922,0.24414062,0.0,0.0,0.0,-95.81177,67.3407,-155.34668
1766900387736,-0.91845703,-0.3696289,-0.03857422,-3.9672852,-0.8544922,0.24414062,0.0,0.0,0.0,-95.39978,67.38464,-154.77539
1766900387824,-0.92871094,-0.39013672,-0.041015625,1.2817383,-3.3569336,-0.36621094,0.0,0.0,0.0,-95.39978,67.38464,-154.77539
1766900387836,-0.92871094,-0.39013672,-0.041015625,1.2817383,-3.3569336,-0.36621094,0.0,0.0,0.0,-95.31189,67.37915,-154.46777
1766900387924,-0.9169922,-0.3828125,-0.027832031,1.4038086,-3.9672852,-0.9765625,0.0,0.0,0.0,-95.31189,67.37915,-154.46777
1766900387935,-0.9169922,-0.3828125,-0.027832031,1.4038086,-3.9672852,-0.9765625,0.0,0.0,0.0,-94.37805,67.32971,-153.55042
1766900388024,-0.90966797,-0.3774414,-0.028808594,2.2583008,-3.112793,0.0,0.0,0.0,0.0,-94.37805,67.32971,-153.55042
1766900388035,-0.90966797,-0.3774414,-0.028808594,2.2583008,-3.112793,0.0,0.0,0.0,0.0,-93.652954,67.29126,-152.88574
1766900388123,-0.9145508,-0.38134766,-0.024414062,2.380371,1.0375977,0.18310547,0.0,0.0,0.0,-93.652954,67.29126,-152.88574
1766900388135,-0.9145508,-0.38134766,-0.024414062,2.380371,1.0375977,0.18310547,0.0,0.0,0.0,-93.515625,67.28577,-152.86377
1766900388223,-0.93115234,-0.38720703,-0.015625,0.91552734,3.4179688,-0.18310547,0.0,0.0,0.0,-93.515625,67.28577,-152.86377
1766900388236,-0.93115234,-0.38720703,-0.015625,0.91552734,3.4179688,-0.18310547,0.0,0.0,0.0,-93.83972,67.23633,-153.38013
1766900388323,-0.92333984,-0.37695312,-0.022949219,2.380371,1.6479492,-0.061035156,0.0,0.0,0.0,-93.83972,67.23633,-153.38013
1766900388334,-0.92333984,-0.37695312,-0.022949219,2.380371,1.6479492,-0.061035156,0.0,0.0,0.0,-93.9386,67.20337,-153.79211
1766900388423,-0.9345703,-0.3798828,-0.018066406,1.0375977,0.91552734,0.18310547,0.0,0.0,0.0,-93.9386,67.20337,-153.79211
1766900388434,-0.9345703,-0.3798828,-0.018066406,1.0375977,0.91552734,0.18310547,0.0,0.0,0.0,-94.15283,67.21985,-154.2041
1766900388522,-0.9277344,-0.3774414,-0.020019531,0.0,0.061035156,1.159668,0.0,0.0,0.0,-94.15283,67.21985,-154.2041
1766900388537,-0.9277344,-0.3774414,-0.020019531,0.0,0.061035156,1.159668,0.0,0.0,0.0,-93.99353,67.302246,-154.2041
1766900388622,-0.92626953,-0.3725586,-0.018554688,-0.18310547,-1.8920898,1.4648438,0.0,0.0,0.0,-93.99353,67.302246,-154.2041
1766900388633,-0.92626953,-0.3725586,-0.018554688,-0.18310547,-1.8920898,1.4648438,0.0,0.0,0.0,-93.79578,67.45056,-154.08325
1766900388722,-0.9267578,-0.37548828,-0.018066406,-1.3427734,-0.91552734,1.4648438,0.0,0.0,0.0,-93.79578,67.45056,-154.08325
1766900388734,-0.9267578,-0.37548828,-0.018066406,-1.3427734,-0.91552734,1.4648438,0.0,0.0,0.0,-93.482666,67.59338,-153.73718
1766900388821,-0.92822266,-0.37695312,-0.018066406,-1.6479492,-0.5493164,1.0375977,0.0,0.0,0.0,-93.482666,67.59338,-153.73718
1766900388833,-0.92822266,-0.37695312,-0.018066406,-1.6479492,-0.5493164,1.0375977,0.0,0.0,0.0,-93.32886,67.736206,-153.50098
1766900388922,-0.921875,-0.37939453,-0.01953125,-1.2817383,-0.12207031,0.30517578,0.0,0.0,0.0,-93.32886,67.736206,-153.50098
1766900388932,-0.921875,-0.37939453,-0.01953125,-1.2817383,-0.12207031,0.30517578,0.0,0.0,0.0,-93.33435,67.79663,-153.4021
1766900389021,-0.9267578,-0.38232422,-0.022949219,-0.5493164,0.5493164,0.36621094,0.0,0.0,0.0,-93.33435,67.79663,-153.4021
1766900389032,-0.9267578,-0.38232422,-0.022949219,-0.5493164,0.5493164,0.36621094,0.0,0.0,0.0,-93.52661,67.79663,-153.57239
1766900389121,-0.9267578,-0.37939453,-0.017089844,0.24414062,1.0986328,0.61035156,0.0,0.0,0.0,-93.52661,67.79663,-153.57239
1766900389132,-0.9267578,-0.37939453,-0.017089844,0.24414062,1.0986328,0.61035156,0.0,0.0,0.0,-93.70239,67.8186,-153.86902
1766900389220,-0.921875,-0.3701172,-0.0234375,0.79345703,1.3427734,0.48828125,0.0,0.0,0.0,-93.70239,67.8186,-153.86902
1766900389232,-0.921875,-0.3701172,-0.0234375,0.79345703,1.3427734,0.48828125,0.0,0.0,0.0,-93.7738,67.8186,-154.14368
1766900389321,-0.93066406,-0.37158203,-0.016113281,1.0986328,1.8310547,0.6713867,0.0,0.0,0.0,-93.7738,67.8186,-154.14368
1766900389332,-0.93066406,-0.37158203,-0.016113281,1.0986328,1.8310547,0.6713867,0.0,0.0,0.0,-94.20776,67.840576,-154.75891
1766900389420,-0.93603516,-0.3647461,-0.024414062,-0.8544922,1.4038086,0.5493164,0.0,0.0,0.0,-94.20776,67.840576,-154.75891
1766900389432,-0.93603516,-0.3647461,-0.024414062,-0.8544922,1.4038086,0.5493164,0.0,0.0,0.0,-94.25171,67.88452,-154.98413
1766900389519,-0.9291992,-0.37548828,-0.020019531,-0.6713867,-0.12207031,0.6713867,0.0,0.0,0.0,-94.25171,67.88452,-154.98413
1766900389532,-0.9291992,-0.37548828,-0.020019531,-0.6713867,-0.12207031,0.6713867,0.0,0.0,0.0,-94.520874,67.96692,-155.26978
1766900389619,-0.9267578,-0.36669922,-0.028808594,-1.953125,0.91552734,0.4272461,0.0,0.0,0.0,-94.520874,67.96692,-155.26978
1766900389631,-0.9267578,-0.36669922,-0.028808594,-1.953125,0.91552734,0.4272461,0.0,0.0,0.0,-94.5813,67.99988,-155.3247
1766900389719,-0.93066406,-0.37060547,-0.028808594,-1.5869141,0.18310547,0.79345703,0.0,0.0,0.0,-94.5813,67.99988,-155.3247
1766900389731,-0.93066406,-0.37060547,-0.028808594,-1.5869141,0.18310547,0.79345703,0.0,0.0,0.0,-94.92737,68.0603,-155.55542
1766900389819,-0.9301758,-0.37060547,-0.028808594,-3.3569336,0.7324219,1.0375977,0.0,0.0,0.0,-94.92737,68.0603,-155.55542
1766900389831,-0.9301758,-0.37060547,-0.028808594,-3.3569336,0.7324219,1.0375977,0.0,0.0,0.0,-95.251465,68.13721,-155.71472
1766900389918,-0.9345703,-0.3647461,-0.03466797,-4.5166016,-0.4272461,0.18310547,0.0,0.0,0.0,-95.251465,68.13721,-155.71472
1766900389930,-0.9345703,-0.3647461,-0.03466797,-4.5166016,-0.4272461,0.18310547,0.0,0.0,0.0,-95.47119,68.170166,-155.6543
1766900390018,-0.9272461,-0.36083984,-0.037597656,-5.432129,-1.0375977,0.79345703,0.0,0.0,0.0,-95.47119,68.170166,-155.6543
1766900390030,-0.9272461,-0.36083984,-0.037597656,-5.432129,-1.0375977,0.79345703,0.0,0.0,0.0,-95.66345,68.236084,-155.39062
1766900390118,-0.9291992,-0.3647461,-0.037109375,-2.746582,-2.380371,0.91552734,0.0,0.0,0.0,-95.66345,68.236084,-155.39062
1766900390129,-0.9291992,-0.3647461,-0.037109375,-2.746582,-2.380371,0.91552734,0.0,0.0,0.0,-95.652466,68.32947,-154.97314
1766900390217,-0.9291992,-0.36669922,-0.036132812,-2.9907227,-0.61035156,0.8544922,0.0,0.0,0.0,-95.652466,68.32947,-154.97314
1766900390229,-0.9291992,-0.36669922,-0.036132812,-2.9907227,-0.61035156,0.8544922,0.0,0.0,0.0,-95.53162,68.42285,-154.5282
1766900390317,-0.9291992,-0.3564453,-0.03564453,-0.91552734,-0.9765625,1.6479492,0.0,0.0,0.0,-95.53162,68.42285,-154.5282
1766900390328,-0.9291992,-0.3564453,-0.03564453,-0.91552734,-0.9765625,1.6479492,0.0,0.0,0.0,-95.460205,68.549194,-154.33594
1766900390417,-0.93408203,-0.36816406,-0.032226562,-0.30517578,0.9765625,2.1972656,0.0,0.0,0.0,-95.460205,68.549194,-154.33594
1766900390428,-0.93408203,-0.36816406,-0.032226562,-0.30517578,0.9765625,2.1972656,0.0,0.0,0.0,-95.80078,68.73047,-154.55566
1766900390516,-0.9394531,-0.36035156,-0.040039062,1.6479492,0.79345703,1.159668,0.0,0.0,0.0,-95.80078,68.73047,-154.55566
1766900390530,-0.9394531,-0.36035156,-0.040039062,1.6479492,0.79345703,1.159668,0.0,0.0,0.0,-95.83923,68.862305,-154.78638
1766900390616,-0.93408203,-0.3544922,-0.032714844,2.0141602,-0.5493164,0.12207031,0.0,0.0,0.0,-95.83923,68.862305,-154.78638
1766900390628,-0.93408203,-0.3544922,-0.032714844,2.0141602,-0.5493164,0.12207031,0.0,0.0,0.0,-95.82825,68.878784,-155.03357
1766900390716,-0.93310547,-0.3486328,-0.03515625,1.7089844,-0.30517578,0.30517578,0.0,0.0,0.0,-95.82825,68.878784,-155.03357
1766900390727,-0.93310547,-0.3486328,-0.03515625,1.7089844,-0.30517578,0.30517578,0.0,0.0,0.0,-95.65796,68.8678,-155.08301
1766900390816,-0.9375,-0.35302734,-0.030273438,1.2207031,0.79345703,0.5493164,0.0,0.0,0.0,-95.65796,68.8678,-155.08301
1766900390828,-0.9375,-0.35302734,-0.030273438,1.2207031,0.79345703,0.5493164,0.0,0.0,0.0,-95.63049,68.92822,-155.22583
1766900390918,-0.93310547,-0.35205078,-0.03515625,0.48828125,0.24414062,0.061035156,0.0,0.0,0.0,-95.63049,68.92822,-155.22583
1766900390927,-0.93310547,-0.35205078,-0.03515625,0.48828125,0.24414062,0.061035156,0.0,0.0,0.0,-95.48767,68.97217,-155.22583
1766900391015,-0.9399414,-0.3491211,-0.028808594,0.91552734,0.4272461,0.30517578,0.0,0.0,0.0,-95.48767,68.97217,-155.22583
1766900391027,-0.9399414,-0.3491211,-0.028808594,0.91552734,0.4272461,0.30517578,0.0,0.0,0.0,-95.60852,68.99414,-155.46753
1766900391115,-0.93603516,-0.35009766,-0.030273438,-0.79345703,0.12207031,0.061035156,0.0,0.0,0.0,-95.60852,68.99414,-155.46753
1766900391126,-0.93603516,-0.35009766,-0.030273438,-0.79345703,0.12207031,0.061035156,0.0,0.0,0.0,-95.548096,69.01611,-155.45105
1766900391215,-0.93652344,-0.35253906,-0.03125,-0.4272461,-0.61035156,0.12207031,0.0,0.0,0.0,-95.548096,69.01611,-155.45105
1766900391226,-0.93652344,-0.35253906,-0.03125,-0.4272461,-0.61035156,0.12207031,0.0,0.0,0.0,-95.476685,69.038086,-155.38513
1766900391314,-0.9321289,-0.35595703,-0.028808594,0.24414062,-0.12207031,0.5493164,0.0,0.0,0.0,-95.476685,69.038086,-155.38513
1766900391326,-0.9321289,-0.35595703,-0.028808594,0.24414062,-0.12207031,0.5493164,0.0,0.0,0.0,-95.39978,69.06006,-155.30273
1766900391414,-0.93359375,-0.35302734,-0.032226562,-1.8310547,0.0,0.30517578,0.0,0.0,0.0,-95.39978,69.06006,-155.30273
1766900391426,-0.93359375,-0.35302734,-0.032226562,-1.8310547,0.0,0.30517578,0.0,0.0,0.0,-95.284424,69.12048,-155.23682
1766900391514,-0.9321289,-0.35839844,-0.028808594,-0.91552734,-0.12207031,0.30517578,0.0,0.0,0.0,-95.284424,69.12048,-155.23682
1766900391525,-0.9321289,-0.35839844,-0.028808594,-0.91552734,-0.12207031,0.30517578,0.0,0.0,0.0,-95.355835,69.14795,-155.23132
1766900391614,-0.93896484,-0.35009766,-0.030273438,0.36621094,1.0986328,0.91552734,0.0,0.0,0.0,-95.355835,69.14795,-155.23132
1766900391625,-0.93896484,-0.35009766,-0.030273438,0.36621094,1.0986328,0.91552734,0.0,0.0,0.0,-95.44922,69.18091,-155.39612
1766900391713,-0.94140625,-0.328125,-0.029785156,-5.432129,0.18310547,3.1738281,0.0,0.0,0.0,-95.44922,69.18091,-155.39612
1766900391725,-0.94140625,-0.328125,-0.029785156,-5.432129,0.18310547,3.1738281,0.0,0.0,0.0,-95.789795,69.37866,-155.63232
1766900391813,-0.953125,-0.3046875,-0.03466797,-17.456055,-0.91552734,6.8359375,0.0,0.0,0.0,-95.789795,69.37866,-155.63232
1766900391824,-0.953125,-0.3046875,-0.03466797,-17.456055,-0.91552734,6.8359375,0.0,0.0,0.0,-96.71814,69.87854,-155.58838
1766900391913,-0.9477539,-0.32373047,-0.041015625,-32.165527,-9.277344,2.8686523,0.0,0.0,0.0,-96.71814,69.87854,-155.58838
1766900391925,-0.9477539,-0.32373047,-0.041015625,-32.165527,-9.277344,2.8686523,0.0,0.0,0.0,-98.12439,70.73547,-154.32495
1766900392013,-0.93359375,-0.34570312,-0.053710938,-25.57373,-8.850098,-2.8076172,0.0,0.0,0.0,-98.12439,70.73547,-154.32495
1766900392024,-0.93359375,-0.34570312,-0.053710938,-25.57373,-8.850098,-2.8076172,0.0,0.0,0.0,-97.86621,70.86182,-151.05652
1766900392112,-0.9707031,-0.3310547,-0.05419922,-17.63916,-8.666992,2.1972656,0.0,0.0,0.0,-97.86621,70.86182,-151.05652
1766900392124,-0.9707031,-0.3310547,-0.05419922,-17.63916,-8.666992,2.1972656,0.0,0.0,0.0,-97.662964,70.7959,-148.65051
1766900392212,-0.92578125,-0.3388672,-0.04248047,-11.962891,-7.6293945,3.8452148,0.0,0.0,0.0,-97.662964,70.7959,-148.65051
1766900392223,-0.92578125,-0.3388672,-0.04248047,-11.962891,-7.6293945,3.8452148,0.0,0.0,0.0,-96.899414,71.23535,-146.2555
1766900392311,-0.9511719,-0.3251953,-0.0390625,-4.699707,-5.493164,3.2348633,0.0,0.0,0.0,-96.899414,71.23535,-146.2555
1766900392323,-0.9511719,-0.3251953,-0.0390625,-4.699707,-5.493164,3.2348633,0.0,0.0,0.0,-95.99304,71.49902,-144.41528
1766900392411,-0.9550781,-0.30322266,-0.023925781,-1.953125,-6.713867,1.0986328,0.0,0.0,0.0,-95.99304,71.49902,-144.41528
1766900392424,-0.9550781,-0.30322266,-0.023925781,-1.953125,-6.713867,1.0986328,0.0,0.0,0.0,-94.65271,71.72974,-142.64099
1766900392511,-0.94628906,-0.30419922,-0.008300781,-4.699707,-3.6621094,-0.8544922,0.0,0.0,0.0,-94.65271,71.72974,-142.64099
1766900392522,-0.94628906,-0.30419922,-0.008300781,-4.699707,-3.6621094,-0.8544922,0.0,0.0,0.0,-93.43872,71.81213,-140.98206
1766900392611,-0.9663086,-0.29296875,-0.0107421875,-1.953125,-8.178711,-2.1362305,0.0,0.0,0.0,-93.43872,71.81213,-140.98206
1766900392622,-0.9663086,-0.29296875,-0.0107421875,-1.953125,-8.178711,-2.1362305,0.0,0.0,0.0,-91.900635,71.54846,-138.99353
1766900392710,-0.9291992,-0.3696289,9.765625E-4,4.0283203,-5.554199,-7.2631836,0.0,0.0,0.0,-91.900635,71.54846,-138.99353
1766900392722,-0.9291992,-0.3696289,9.765625E-4,4.0283203,-5.554199,-7.2631836,0.0,0.0,0.0,-89.642944,71.136475,-136.59851
1766900392810,-0.94628906,-0.3256836,0.018554688,12.023926,-2.0751953,-4.0893555,0.0,0.0,0.0,-89.642944,71.136475,-136.59851
1766900392822,-0.94628906,-0.3256836,0.018554688,12.023926,-2.0751953,-4.0893555,0.0,0.0,0.0,-87.69287,70.38391,-135.37903
1766900392910,-0.93603516,-0.3408203,0.033203125,10.253906,0.0,-3.4179688,0.0,0.0,0.0,-87.69287,70.38391,-135.37903
1766900392924,-0.93603516,-0.3408203,0.033203125,10.253906,0.0,-3.4179688,0.0,0.0,0.0,-86.23718,69.94995,-134.89014
1766900393009,-0.9379883,-0.3251953,0.027832031,4.8217773,-0.9765625,-3.479004,0.0,0.0,0.0,-86.23718,69.94995,-134.89014
1766900393024,-0.9379883,-0.3251953,0.027832031,4.8217773,-0.9765625,-3.479004,0.0,0.0,0.0,-85.177,69.642334,-134.81873
1766900393109,-0.9350586,-0.36523438,0.053710938,5.6762695,2.6855469,-5.7373047,0.0,0.0,0.0,-85.177,69.642334,-134.81873
1766900393124,-0.9350586,-0.36523438,0.053710938,5.6762695,2.6855469,-5.7373047,0.0,0.0,0.0,-85.649414,69.23035,-135.75806
1766900393210,-0.9404297,-0.34179688,0.03125,8.178711,0.061035156,-2.319336,0.0,0.0,0.0,-85.649414,69.23035,-135.75806
1766900393220,-0.9404297,-0.34179688,0.03125,8.178711,0.061035156,-2.319336,0.0,0.0,0.0,-84.92432,68.80188,-136.07117
1766900393309,-0.93115234,-0.3623047,0.05517578,1.5869141,-1.6479492,-1.0986328,0.0,0.0,0.0,-84.92432,68.80188,-136.07117
1766900393320,-0.93115234,-0.3623047,0.05517578,1.5869141,-1.6479492,-1.0986328,0.0,0.0,0.0,-84.50134,68.77991,-136.25244
1766900393408,-0.9272461,-0.37109375,0.0029296875,-0.061035156,0.8544922,-0.8544922,0.0,0.0,0.0,-84.50134,68.77991,-136.25244
1766900393420,-0.9272461,-0.37109375,0.0029296875,-0.061035156,0.8544922,-0.8544922,0.0,0.0,0.0,-83.92456,68.59314,-135.85693
1766900393508,-0.9277344,-0.37548828,0.044433594,1.2207031,4.333496,1.2207031,0.0,0.0,0.0,-83.92456,68.59314,-135.85693
1766900393520,-0.9277344,-0.37548828,0.044433594,1.2207031,4.333496,1.2207031,0.0,0.0,0.0,-85.00122,68.620605,-136.86768
1766900393608,-0.9433594,-0.3486328,0.028320312,3.90625,0.9765625,-0.8544922,0.0,0.0,0.0,-85.00122,68.620605,-136.86768
1766900393619,-0.9433594,-0.3486328,0.028320312,3.90625,0.9765625,-0.8544922,0.0,0.0,0.0,-85.06714,68.6261,-137.43896
1766900393708,-0.9326172,-0.36816406,0.036621094,-0.7324219,2.0751953,0.36621094,0.0,0.0,0.0,-85.06714,68.6261,-137.43896
1766900393719,-0.9326172,-0.36816406,0.036621094,-0.7324219,2.0751953,0.36621094,0.0,0.0,0.0,-85.440674,68.708496,-137.98279
1766900393808,-0.9375,-0.3515625,0.03515625,2.0751953,-2.0751953,2.0751953,0.0,0.0,0.0,-85.440674,68.708496,-137.98279
1766900393819,-0.9375,-0.3515625,0.03515625,2.0751953,-2.0751953,2.0751953,0.0,0.0,0.0,-85.24841,68.75244,-138.08167
1766900393907,-0.93652344,-0.3564453,0.044433594,0.7324219,0.5493164,0.91552734,0.0,0.0,0.0,-85.24841,68.75244,-138.08167
1766900393918,-0.93652344,-0.3564453,0.044433594,0.7324219,0.5493164,0.91552734,0.0,0.0,0.0,-84.990234,68.862305,-137.98828
1766900394007,-0.9404297,-0.34521484,0.03857422,2.5634766,-0.4272461,2.4414062,0.0,0.0,0.0,-84.990234,68.862305,-137.98828
1766900394019,-0.9404297,-0.34521484,0.03857422,2.5634766,-0.4272461,2.4414062,0.0,0.0,0.0,-84.46289,69.087524,-137.8125
1766900394106,-0.9345703,-0.34814453,0.044921875,-2.0141602,0.4272461,1.159668,0.0,0.0,0.0,-84.46289,69.087524,-137.8125
1766900394118,-0.9345703,-0.34814453,0.044921875,-2.0141602,0.4272461,1.159668,0.0,0.0,0.0,-84.35852,69.23584,-137.69165
1766900394206,-0.93408203,-0.3540039,0.0390625,-0.061035156,-2.1972656,-0.48828125,0.0,0.0,0.0,-84.35852,69.23584,-137.69165
1766900394218,-0.93408203,-0.3540039,0.0390625,-0.061035156,-2.1972656,-0.48828125,0.0,0.0,0.0,-84.105835,69.23584,-137.45544
1766900394306,-0.9370117,-0.35546875,0.0390625,-0.18310547,0.9765625,-1.5869141,0.0,0.0,0.0,-84.105835,69.23584,-137.45544
1766900394318,-0.9370117,-0.35546875,0.0390625,-0.18310547,0.9765625,-1.5869141,0.0,0.0,0.0,-83.90808,69.12048,-137.31812
1766900394406,-0.9291992,-0.35986328,0.044921875,2.9907227,0.79345703,-1.3427734,0.0,0.0,0.0,-83.90808,69.12048,-137.31812
1766900394417,-0.9291992,-0.35986328,0.044921875,2.9907227,0.79345703,-1.3427734,0.0,0.0,0.0,-83.913574,68.99414,-137.54333
1766900394505,-0.92529297,-0.36621094,0.038085938,6.591797,2.4414062,-0.91552734,0.0,0.0,0.0,-83.913574,68.99414,-137.54333
1766900394517,-0.92529297,-0.36621094,0.038085938,6.591797,2.4414062,-0.91552734,0.0,0.0,0.0,-83.83667,68.89526,-138.06519
1766900394605,-0.9370117,-0.35107422,0.04296875,9.033203,5.6762695,-0.9765625,0.0,0.0,0.0,-83.83667,68.89526,-138.06519
1766900394616,-0.9370117,-0.35107422,0.04296875,9.033203,5.6762695,-0.9765625,0.0,0.0,0.0,-84.105835,68.80188,-139.32312
1766900394705,-0.93066406,-0.35595703,0.03466797,8.911133,4.0893555,-0.8544922,0.0,0.0,0.0,-84.105835,68.80188,-139.32312
1766900394716,-0.93066406,-0.35595703,0.03466797,8.911133,4.0893555,-0.8544922,0.0,0.0,0.0,-84.24866,68.79639,-140.4657
1766900394805,-0.9448242,-0.36279297,0.03125,6.4697266,8.422852,-0.30517578,0.0,0.0,0.0,-84.24866,68.79639,-140.4657
1766900394816,-0.9448242,-0.36279297,0.03125,6.4697266,8.422852,-0.30517578,0.0,0.0,0.0,-85.182495,68.829346,-142.30591
1766900394904,-0.94140625,-0.3544922,0.03173828,10.7421875,1.8310547,-0.79345703,0.0,0.0,0.0,-85.182495,68.829346,-142.30591
1766900394916,-0.94140625,-0.3544922,0.03173828,10.7421875,1.8310547,-0.79345703,0.0,0.0,0.0,-85.374756,68.80188,-143.58032
1766900395004,-0.94384766,-0.34179688,0.017578125,5.3100586,2.6245117,-0.79345703,0.0,0.0,0.0,-85.374756,68.80188,-143.58032
1766900395016,-0.94384766,-0.34179688,0.017578125,5.3100586,2.6245117,-0.79345703,0.0,0.0,0.0,-84.95178,68.757935,-144.04724
1766900395104,-0.94091797,-0.36279297,0.041992188,5.126953,2.746582,-1.8310547,0.0,0.0,0.0,-84.95178,68.757935,-144.04724
1766900395118,-0.94091797,-0.36279297,0.041992188,5.126953,2.746582,-1.8310547,0.0,0.0,0.0,-85.286865,68.71399,-144.90967
1766900395204,-0.91503906,-0.35888672,0.024902344,7.385254,2.0141602,0.18310547,0.0,0.0,0.0,-85.286865,68.71399,-144.90967
1766900395218,-0.91503906,-0.35888672,0.024902344,7.385254,2.0141602,0.18310547,0.0,0.0,0.0,-84.89685,68.64807,-145.2887
1766900395303,-0.9448242,-0.3564453,0.043945312,5.6762695,3.2958984,0.5493164,0.0,0.0,0.0,-84.89685,68.64807,-145.2887
1766900395318,-0.9448242,-0.3564453,0.043945312,5.6762695,3.2958984,0.5493164,0.0,0.0,0.0,-85.286865,68.708496,-146.39282
1766900395403,-0.92041016,-0.34277344,0.025390625,3.2348633,2.8686523,-0.7324219,0.0,0.0,0.0,-85.286865,68.708496,-146.39282
1766900395414,-0.92041016,-0.34277344,0.025390625,3.2348633,2.8686523,-0.7324219,0.0,0.0,0.0,-85.14404,68.741455,-146.84326
1766900395503,-0.9345703,-0.36035156,0.030273438,0.0,5.554199,-1.5869141,0.0,0.0,0.0,-85.14404,68.741455,-146.84326
1766900395517,-0.9345703,-0.36035156,0.030273438,0.0,5.554199,-1.5869141,0.0,0.0,0.0,-86.14929,68.708496,-148.0133
1766900395602,-0.9404297,-0.3491211,0.025878906,0.36621094,2.1362305,-1.4038086,0.0,0.0,0.0,-86.14929,68.708496,-148.0133
1766900395614,-0.9404297,-0.3491211,0.025878906,0.36621094,2.1362305,-1.4038086,0.0,0.0,0.0,-87.039185,68.58215,-149.09546
1766900395702,-0.9370117,-0.3647461,0.0234375,-0.9765625,2.5024414,-1.2207031,0.0,0.0,0.0,-87.039185,68.58215,-149.09546
1766900395714,-0.9370117,-0.3647461,0.0234375,-0.9765625,2.5024414,-1.2207031,0.0,0.0,0.0,-87.544556,68.4668,-149.72168
1766900395802,-0.9291992,-0.36572266,0.020019531,2.1972656,0.12207031,-1.5258789,0.0,0.0,0.0,-87.544556,68.4668,-149.72168
1766900395813,-0.9291992,-0.36572266,0.020019531,2.1972656,0.12207031,-1.5258789,0.0,0.0,0.0,-87.57202,68.33496,-150.00183
1766900395902,-0.92041016,-0.3720703,0.016601562,4.3945312,1.8310547,-0.5493164,0.0,0.0,0.0,-87.57202,68.33496,-150.00183
1766900395913,-0.92041016,-0.3720703,0.016601562,4.3945312,1.8310547,-0.5493164,0.0,0.0,0.0,-87.385254,68.23059,-150.2655
1766900396001,-0.9291992,-0.36083984,0.021484375,3.0517578,0.91552734,-1.8310547,0.0,0.0,0.0,-87.385254,68.23059,-150.2655
1766900396012,-0.9291992,-0.36083984,0.021484375,3.0517578,0.91552734,-1.8310547,0.0,0.0,0.0,-87.48413,68.082275,-150.8258
1766900396101,-0.9345703,-0.3618164,0.0146484375,-0.79345703,1.2207031,-2.8686523,0.0,0.0,0.0,-87.48413,68.082275,-150.8258
1766900396112,-0.9345703,-0.3618164,0.0146484375,-0.79345703,1.2207031,-2.8686523,0.0,0.0,0.0,-87.50061,67.840576,-151.04004
1766900396201,-0.9355469,-0.3647461,0.014160156,-3.2348633,-4.211426,-2.0141602,0.0,0.0,0.0,-87.50061,67.840576,-151.04004
1766900396212,-0.9355469,-0.3647461,0.014160156,-3.2348633,-4.211426,-2.0141602,0.0,0.0,0.0,-87.5116,67.59888,-150.92468
1766900396300,-0.921875,-0.3984375,0.016601562,-0.7324219,-0.9765625,-2.746582,0.0,0.0,0.0,-87.5116,67.59888,-150.92468
1766900396312,-0.921875,-0.3984375,0.016601562,-0.7324219,-0.9765625,-2.746582,0.0,0.0,0.0,-87.264404,67.3407,-150.43579
1766900396400,-0.9248047,-0.375,0.019042969,3.6621094,-2.5024414,-2.746582,0.0,0.0,0.0,-87.264404,67.3407,-150.43579
1766900396412,-0.9248047,-0.375,0.019042969,3.6621094,-2.5024414,-2.746582,0.0,0.0,0.0,-86.80847,67.04956,-150.17212
1766900396500,-0.91845703,-0.39404297,0.024902344,0.12207031,-0.48828125,-0.5493164,0.0,0.0,0.0,-86.80847,67.04956,-150.17212
1766900396511,-0.91845703,-0.39404297,0.024902344,0.12207031,-0.48828125,-0.5493164,0.0,0.0,0.0,-86.347046,66.917725,-149.80408
1766900396599,-0.9165039,-0.38916016,0.0234375,2.2583008,0.8544922,-0.7324219,0.0,0.0,0.0,-86.347046,66.917725,-149.80408
1766900396611,-0.9165039,-0.38916016,0.0234375,2.2583008,0.8544922,-0.7324219,0.0,0.0,0.0,-86.259155,66.87378,-149.90295
1766900396699,-0.92871094,-0.36865234,0.020507812,-2.5024414,-0.12207031,0.0,0.0,0.0,0.0,-86.259155,66.87378,-149.90295
1766900396711,-0.92871094,-0.36865234,0.020507812,-2.5024414,-0.12207031,0.0,0.0,0.0,0.0,-86.363525,66.80237,-150.06226
1766900396799,-0.92529297,-0.39892578,0.03466797,-3.7231445,-0.12207031,0.7324219,0.0,0.0,0.0,-86.363525,66.80237,-150.06226
1766900396811,-0.92529297,-0.39892578,0.03466797,-3.7231445,-0.12207031,0.7324219,0.0,0.0,0.0,-86.781006,66.884766,-150.12268
1766900396899,-0.91064453,-0.3935547,0.015625,0.24414062,-1.0375977,1.0375977,0.0,0.0,0.0,-86.781006,66.884766,-150.12268
1766900396910,-0.91064453,-0.3935547,0.015625,0.24414062,-1.0375977,1.0375977,0.0,0.0,0.0,-86.63818,66.96716,-149.93042
1766900396998,-0.91503906,-0.40429688,0.033691406,1.6479492,-0.30517578,0.0,0.0,0.0,0.0,-86.63818,66.96716,-149.93042
1766900397014,-0.91503906,-0.40429688,0.033691406,1.6479492,-0.30517578,0.0,0.0,0.0,0.0,-86.55029,66.97815,-149.93042
1766900397098,-0.9160156,-0.3876953,0.025390625,4.0283203,2.8686523,-0.12207031,0.0,0.0,0.0,-86.55029,66.97815,-149.93042
1766900397109,-0.9160156,-0.3876953,0.025390625,4.0283203,2.8686523,-0.12207031,0.0,0.0,0.0,-86.33057,66.901245,-150.13916
1766900397198,-0.9248047,-0.39160156,0.024902344,4.0893555,1.5258789,-0.6713867,0.0,0.0,0.0,-86.33057,66.901245,-150.13916
1766900397209,-0.9248047,-0.39160156,0.024902344,4.0893555,1.5258789,-0.6713867,0.0,0.0,0.0,-86.44043,66.87378,-150.76538
1766900397297,-0.9272461,-0.37939453,0.02734375,2.9296875,1.4038086,-1.0986328,0.0,0.0,0.0,-86.44043,66.87378,-150.76538
1766900397309,-0.9272461,-0.37939453,0.02734375,2.9296875,1.4038086,-1.0986328,0.0,0.0,0.0,-86.34155,66.7749,-151.11145
1766900397398,-0.92089844,-0.3857422,0.026855469,-1.7089844,-0.79345703,-0.79345703,0.0,0.0,0.0,-86.34155,66.7749,-151.11145
1766900397409,-0.92089844,-0.3857422,0.026855469,-1.7089844,-0.79345703,-0.79345703,0.0,0.0,0.0,-86.24817,66.74194,-151.14441
1766900397497,-0.91845703,-0.3955078,0.029296875,-1.4648438,-1.2817383,-1.159668,0.0,0.0,0.0,-86.24817,66.74194,-151.14441
1766900397509,-0.91845703,-0.3955078,0.029296875,-1.4648438,-1.2817383,-1.159668,0.0,0.0,0.0,-86.171265,66.659546,-150.88623
1766900397597,-0.9160156,-0.40039062,0.03125,-0.18310547,-0.30517578,-1.5258789,0.0,0.0,0.0,-86.171265,66.659546,-150.88623
1766900397608,-0.9160156,-0.40039062,0.03125,-0.18310547,-0.30517578,-1.5258789,0.0,0.0,0.0,-86.05591,66.52771,-150.70496
1766900397697,-0.90966797,-0.3959961,0.03466797,1.5869141,1.953125,-1.5869141,0.0,0.0,0.0,-86.05591,66.52771,-150.70496
1766900397708,-0.90966797,-0.3959961,0.03466797,1.5869141,1.953125,-1.5869141,0.0,0.0,0.0,-86.00098,66.379395,-150.76538
1766900397798,-0.92333984,-0.40283203,0.032226562,1.5869141,-0.12207031,-2.5024414,0.0,0.0,0.0,-86.00098,66.379395,-150.76538
1766900397808,-0.92333984,-0.40283203,0.032226562,1.5869141,-0.12207031,-2.5024414,0.0,0.0,0.0,-86.017456,66.225586,-150.9906
1766900397896,-0.91748047,-0.4008789,0.028320312,-0.4272461,0.30517578,-2.746582,0.0,0.0,0.0,-86.017456,66.225586,-150.9906
1766900397907,-0.91748047,-0.4008789,0.028320312,-0.4272461,0.30517578,-2.746582,0.0,0.0,0.0,-85.78674,65.95642,-150.89172
1766900397996,-0.90722656,-0.41064453,0.033691406,-1.4038086,-0.6713867,-1.4648438,0.0,0.0,0.0,-85.78674,65.95642,-150.89172
1766900398007,-0.90722656,-0.41064453,0.033691406,-1.4038086,-0.6713867,-1.4648438,0.0,0.0,0.0,-85.825195,65.75867,-150.83679
1766900398096,-0.9116211,-0.40820312,0.029785156,-0.36621094,0.4272461,-0.48828125,0.0,0.0,0.0,-85.825195,65.75867,-150.83679
1766900398107,-0.9116211,-0.40820312,0.029785156,-0.36621094,0.4272461,-0.48828125,0.0,0.0,0.0,-85.90759,65.6543,-150.89722
1766900398195,-0.90625,-0.42138672,0.030273438,-0.61035156,0.48828125,-0.24414062,0.0,0.0,0.0,-85.90759,65.6543,-150.89722
