timestamp,accX,accY,accZ,gyroX,gyroY,gyroZ,magX,magY,magZ,roll,pitch,yaw
1770517720916,-0.94091797,-0.3178711,-0.11279297,0.12207031,-2.0751953,0.6713867,0.0,0.0,0.0,-110.69275,69.938965,-6.5148926
1770517720994,-0.9404297,-0.31689453,-0.11279297,-0.061035156,-2.5634766,1.2207031,11806.0,2225.0,1743.0,-110.69275,69.938965,-6.5148926
1770517721004,-0.9404297,-0.31689453,-0.11279297,-0.061035156,-2.5634766,1.2207031,11806.0,2225.0,1743.0,-110.08301,70.05432,-6.0479736
1770517721016,-0.9404297,-0.31689453,-0.11279297,-0.061035156,-2.5634766,1.2207031,0.0,0.0,0.0,-110.08301,70.05432,-6.0479736
1770517721094,-0.94189453,-0.3227539,-0.10546875,0.24414062,-0.8544922,0.61035156,11549.0,2320.0,1970.0,-110.08301,70.05432,-6.0479736
1770517721104,-0.94189453,-0.3227539,-0.10546875,0.24414062,-0.8544922,0.61035156,11549.0,2320.0,1970.0,-109.6051,70.164185,-5.690918
1770517721115,-0.94189453,-0.3227539,-0.10546875,0.24414062,-0.8544922,0.61035156,0.0,0.0,0.0,-109.6051,70.164185,-5.690918
1770517721195,-0.94189453,-0.3173828,-0.10205078,0.61035156,-1.2817383,1.0986328,11473.0,2317.0,2042.0,-109.6051,70.164185,-5.690918
1770517721204,-0.94189453,-0.3173828,-0.10205078,0.61035156,-1.2817383,1.0986328,11473.0,2317.0,2042.0,-109.26453,70.285034,-5.4437256
1770517721216,-0.94189453,-0.3173828,-0.10205078,0.61035156,-1.2817383,1.0986328,0.0,0.0,0.0,-109.26453,70.285034,-5.4437256
1770517721292,-0.9477539,-0.31933594,-0.103515625,-0.30517578,-1.3427734,1.2207031,11623.0,2283.0,1865.0,-109.26453,70.285034,-5.4437256
1770517721303,-0.9477539,-0.31933594,-0.103515625,-0.30517578,-1.3427734,1.2207031,11623.0,2283.0,1865.0,-108.94043,70.40588,-5.218506
1770517721315,-0.9477539,-0.31933594,-0.103515625,-0.30517578,-1.3427734,1.2207031,0.0,0.0,0.0,-108.94043,70.40588,-5.218506
1770517721391,-0.9423828,-0.31982422,-0.099609375,0.9765625,-0.12207031,0.18310547,11429.0,2349.0,2059.0,-108.94043,70.40588,-5.218506
1770517721403,-0.9423828,-0.31982422,-0.099609375,0.9765625,-0.12207031,0.18310547,11429.0,2349.0,2059.0,-108.66028,70.45532,-5.119629
1770517721415,-0.9423828,-0.31982422,-0.099609375,0.9765625,-0.12207031,0.18310547,0.0,0.0,0.0,-108.66028,70.45532,-5.119629
1770517721491,-0.9433594,-0.3178711,-0.096191406,0.48828125,0.36621094,0.061035156,11645.0,2255.0,1809.0,-108.66028,70.45532,-5.119629
1770517721502,-0.9433594,-0.3178711,-0.096191406,0.48828125,0.36621094,0.061035156,11645.0,2255.0,1809.0,-108.583374,70.444336,-5.196533
1770517721514,-0.9433594,-0.3178711,-0.096191406,0.48828125,0.36621094,0.061035156,0.0,0.0,0.0,-108.583374,70.444336,-5.196533
1770517721591,-0.9472656,-0.32128906,-0.10058594,-0.12207031,0.91552734,0.0,11673.0,2232.0,1687.0,-108.583374,70.444336,-5.196533
1770517721602,-0.9472656,-0.32128906,-0.10058594,-0.12207031,0.91552734,0.0,11673.0,2232.0,1687.0,-108.59985,70.42236,-5.355835
1770517721614,-0.9472656,-0.32128906,-0.10058594,-0.12207031,0.91552734,0.0,0.0,0.0,0.0,-108.59985,70.42236,-5.355835
1770517721690,-0.9428711,-0.31933594,-0.103027344,-1.4038086,2.9907227,-0.48828125,11652.0,2236.0,1761.0,-108.59985,70.42236,-5.355835
1770517721702,-0.9428711,-0.31933594,-0.103027344,-1.4038086,2.9907227,-0.48828125,11652.0,2236.0,1761.0,-109.11621,70.3125,-5.9436035
1770517721713,-0.9428711,-0.31933594,-0.103027344,-1.4038086,2.9907227,-0.48828125,0.0,0.0,0.0,-109.11621,70.3125,-5.9436035
1770517721790,-0.9433594,-0.32421875,-0.109375,-2.9296875,3.7841797,-0.30517578,11632.0,2258.0,1803.0,-109.11621,70.3125,-5.9436035
1770517721802,-0.9433594,-0.32421875,-0.109375,-2.9296875,3.7841797,-0.30517578,11632.0,2258.0,1803.0,-110.09949,70.12024,-6.932373
1770517721814,-0.9433594,-0.32421875,-0.109375,-2.9296875,3.7841797,-0.30517578,0.0,0.0,0.0,-110.09949,70.12024,-6.932373
1770517721890,-0.93603516,-0.3227539,-0.11035156,-1.8310547,3.479004,-0.7324219,11717.0,2248.0,1793.0,-110.09949,70.12024,-6.932373
1770517721901,-0.93603516,-0.3227539,-0.11035156,-1.8310547,3.479004,-0.7324219,11717.0,2248.0,1793.0,-110.99487,69.9884,-7.7838135
1770517721918,-0.93603516,-0.3227539,-0.11035156,-1.8310547,3.479004,-0.7324219,0.0,0.0,0.0,-110.99487,69.9884,-7.7838135
1770517721989,-0.9423828,-0.31884766,-0.119140625,-1.5258789,2.0751953,-0.12207031,11734.0,2261.0,1826.0,-110.99487,69.9884,-7.7838135
1770517722001,-0.9423828,-0.31884766,-0.119140625,-1.5258789,2.0751953,-0.12207031,11734.0,2261.0,1826.0,-111.555176,69.88953,-8.410034
1770517722013,-0.9423828,-0.31884766,-0.119140625,-1.5258789,2.0751953,-0.12207031,0.0,0.0,0.0,-111.555176,69.88953,-8.410034
1770517722089,-0.94433594,-0.32617188,-0.122558594,-1.6479492,3.0517578,-0.61035156,11753.0,2286.0,1889.0,-111.555176,69.88953,-8.410034
1770517722101,-0.94433594,-0.32617188,-0.122558594,-1.6479492,3.0517578,-0.61035156,11753.0,2286.0,1889.0,-112.23633,69.72473,-9.173584
1770517722112,-0.94433594,-0.32617188,-0.122558594,-1.6479492,3.0517578,-0.61035156,0.0,0.0,0.0,-112.23633,69.72473,-9.173584
1770517722189,-0.93652344,-0.3251953,-0.118652344,0.48828125,1.0986328,-0.61035156,11768.0,2292.0,1900.0,-112.23633,69.72473,-9.173584
1770517722200,-0.93652344,-0.3251953,-0.118652344,0.48828125,1.0986328,-0.61035156,11768.0,2292.0,1900.0,-112.576904,69.576416,-9.689941
1770517722212,-0.93652344,-0.3251953,-0.118652344,0.48828125,1.0986328,-0.61035156,0.0,0.0,0.0,-112.576904,69.576416,-9.689941
1770517722289,-0.93652344,-0.31835938,-0.10888672,4.211426,-4.638672,0.5493164,11807.0,2297.0,1842.0,-112.576904,69.576416,-9.689941
1770517722300,-0.93652344,-0.31835938,-0.10888672,4.211426,-4.638672,0.5493164,11807.0,2297.0,1842.0,-111.85181,69.6698,-9.255981
1770517722313,-0.93652344,-0.31835938,-0.10888672,4.211426,-4.638672,0.5493164,0.0,0.0,0.0,-111.85181,69.6698,-9.255981
1770517722388,-0.94140625,-0.32958984,-0.123535156,3.479004,-13.305664,4.0893555,11777.0,2293.0,1895.0,-111.85181,69.6698,-9.255981
1770517722400,-0.94140625,-0.32958984,-0.123535156,3.479004,-13.305664,4.0893555,11777.0,2293.0,1895.0,-108.583374,70.30701,-6.4874268
1770517722415,-0.94140625,-0.32958984,-0.123535156,3.479004,-13.305664,4.0893555,0.0,0.0,0.0,-108.583374,70.30701,-6.4874268
1770517722488,-0.94677734,-0.31640625,-0.09277344,1.2207031,-2.4414062,1.5869141,11751.0,2260.0,1723.0,-108.583374,70.30701,-6.4874268
1770517722499,-0.94677734,-0.31640625,-0.09277344,1.2207031,-2.4414062,1.5869141,11751.0,2260.0,1723.0,-107.177124,70.64209,-5.185547
1770517722511,-0.94677734,-0.31640625,-0.09277344,1.2207031,-2.4414062,1.5869141,0.0,0.0,0.0,-107.177124,70.64209,-5.185547
1770517722588,-0.94970703,-0.31982422,-0.08496094,1.6479492,-3.3569336,1.5869141,11777.0,2221.0,1563.0,-107.177124,70.64209,-5.185547
1770517722600,-0.94970703,-0.31982422,-0.08496094,1.6479492,-3.3569336,1.5869141,11777.0,2221.0,1563.0,-106.517944,70.80139,-4.6691895
1770517722611,-0.94970703,-0.31982422,-0.08496094,1.6479492,-3.3569336,1.5869141,0.0,0.0,0.0,-106.517944,70.80139,-4.6691895
1770517722687,-0.9448242,-0.31640625,-0.07861328,0.061035156,-1.3427734,0.7324219,11761.0,2196.0,1465.0,-106.517944,70.80139,-4.6691895
1770517722699,-0.9448242,-0.31640625,-0.07861328,0.061035156,-1.3427734,0.7324219,11761.0,2196.0,1465.0,-105.89722,70.9552,-4.125366
1770517722714,-0.9448242,-0.31640625,-0.07861328,0.061035156,-1.3427734,0.7324219,0.0,0.0,0.0,-105.89722,70.9552,-4.125366
1770517722787,-0.9379883,-0.31201172,-0.08642578,-0.79345703,0.30517578,-0.24414062,11754.0,2188.0,1445.0,-105.89722,70.9552,-4.125366
1770517722799,-0.9379883,-0.31201172,-0.08642578,-0.79345703,0.30517578,-0.24414062,11754.0,2188.0,1445.0,-105.66101,70.97717,-3.949585
1770517722811,-0.9379883,-0.31201172,-0.08642578,-0.79345703,0.30517578,-0.24414062,0.0,0.0,0.0,-105.66101,70.97717,-3.949585
1770517722887,-0.9506836,-0.31445312,-0.08105469,0.18310547,2.4414062,-1.3427734,11730.0,2183.0,1437.0,-105.66101,70.97717,-3.949585
1770517722898,-0.9506836,-0.31445312,-0.08105469,0.18310547,2.4414062,-1.3427734,11730.0,2183.0,1437.0,-106.01807,70.806885,-4.4439697
1770517722910,-0.9506836,-0.31445312,-0.08105469,0.18310547,2.4414062,-1.3427734,0.0,0.0,0.0,-106.01807,70.806885,-4.4439697
1770517722987,-0.94091797,-0.32128906,-0.083984375,0.12207031,0.8544922,-0.7324219,11727.0,2200.0,1467.0,-106.01807,70.806885,-4.4439697
1770517722998,-0.94091797,-0.32128906,-0.083984375,0.12207031,0.8544922,-0.7324219,11727.0,2200.0,1467.0,-105.97412,70.686035,-4.65271
1770517723010,-0.94091797,-0.32128906,-0.083984375,0.12207031,0.8544922,-0.7324219,0.0,0.0,0.0,-105.97412,70.686035,-4.65271
1770517723086,-0.94628906,-0.32128906,-0.08203125,-1.159668,1.6479492,-0.18310547,11711.0,2187.0,1479.0,-105.97412,70.686035,-4.65271
1770517723098,-0.94628906,-0.32128906,-0.08203125,-1.159668,1.6479492,-0.18310547,11711.0,2187.0,1479.0,-106.204834,70.598145,-4.954834
1770517723111,-0.94628906,-0.32128906,-0.08203125,-1.159668,1.6479492,-0.18310547,0.0,0.0,0.0,-106.204834,70.598145,-4.954834
1770517723186,-0.94384766,-0.3154297,-0.083984375,-1.4648438,2.0751953,0.0,11736.0,2198.0,1424.0,-106.204834,70.598145,-4.954834
1770517723197,-0.94384766,-0.3154297,-0.083984375,-1.4648438,2.0751953,0.0,11736.0,2198.0,1424.0,-106.75964,70.52124,-5.553589
1770517723210,-0.94384766,-0.3154297,-0.083984375,-1.4648438,2.0751953,0.0,0.0,0.0,0.0,-106.75964,70.52124,-5.553589
1770517723286,-0.9423828,-0.31933594,-0.0859375,0.8544922,0.61035156,0.061035156,11752.0,2206.0,1438.0,-106.75964,70.52124,-5.553589
1770517723297,-0.9423828,-0.31933594,-0.0859375,0.8544922,0.61035156,0.061035156,11752.0,2206.0,1438.0,-106.85852,70.52673,-5.7843018
1770517723309,-0.9423828,-0.31933594,-0.0859375,0.8544922,0.61035156,0.061035156,0.0,0.0,0.0,-106.85852,70.52673,-5.7843018
1770517723385,-0.9458008,-0.3203125,-0.08935547,0.30517578,0.0,0.24414062,11758.0,2204.0,1434.0,-106.85852,70.52673,-5.7843018
1770517723397,-0.9458008,-0.3203125,-0.08935547,0.30517578,0.0,0.24414062,11758.0,2204.0,1434.0,-106.743164,70.52673,-5.8776855
1770517723408,-0.9458008,-0.3203125,-0.08935547,0.30517578,0.0,0.24414062,0.0,0.0,0.0,-106.743164,70.52673,-5.8776855
1770517723485,-0.94140625,-0.3227539,-0.08544922,0.5493164,-0.12207031,0.0,11750.0,2192.0,1453.0,-106.743164,70.52673,-5.8776855
1770517723497,-0.94140625,-0.3227539,-0.08544922,0.5493164,-0.12207031,0.0,11750.0,2192.0,1453.0,-106.45752,70.53223,-5.8007812
1770517723508,-0.94140625,-0.3227539,-0.08544922,0.5493164,-0.12207031,0.0,0.0,0.0,0.0,-106.45752,70.53223,-5.8007812
1770517723585,-0.9423828,-0.32373047,-0.080078125,0.0,-0.91552734,0.18310547,11767.0,2191.0,1435.0,-106.45752,70.53223,-5.8007812
1770517723596,-0.9423828,-0.32373047,-0.080078125,0.0,-0.91552734,0.18310547,11767.0,2191.0,1435.0,-106.171875,70.54321,-5.6689453
1770517723608,-0.9423828,-0.32373047,-0.080078125,0.0,-0.91552734,0.18310547,0.0,0.0,0.0,-106.171875,70.54321,-5.6689453
1770517723685,-0.9404297,-0.32226562,-0.078125,-0.61035156,-1.4648438,0.6713867,11733.0,2211.0,1511.0,-106.171875,70.54321,-5.6689453
1770517723696,-0.9404297,-0.32226562,-0.078125,-0.61035156,-1.4648438,0.6713867,11733.0,2211.0,1511.0,-105.71594,70.60364,-5.3009033
1770517723709,-0.9404297,-0.32226562,-0.078125,-0.61035156,-1.4648438,0.6713867,0.0,0.0,0.0,-105.71594,70.60364,-5.3009033
1770517723784,-0.94384766,-0.3256836,-0.07910156,-0.18310547,-0.91552734,0.24414062,11753.0,2208.0,1443.0,-105.71594,70.60364,-5.3009033
1770517723796,-0.94384766,-0.3256836,-0.07910156,-0.18310547,-0.91552734,0.24414062,11753.0,2208.0,1443.0,-105.30945,70.69702,-4.927368
1770517723808,-0.94384766,-0.3256836,-0.07910156,-0.18310547,-0.91552734,0.24414062,0.0,0.0,0.0,-105.30945,70.69702,-4.927368
1770517723884,-0.94921875,-0.31982422,-0.07763672,-0.79345703,-0.9765625,0.79345703,11747.0,2190.0,1392.0,-105.30945,70.69702,-4.927368
1770517723895,-0.94921875,-0.31982422,-0.07763672,-0.79345703,-0.9765625,0.79345703,11747.0,2190.0,1392.0,-105.05676,70.75195,-4.7076416
1770517723908,-0.94921875,-0.31982422,-0.07763672,-0.79345703,-0.9765625,0.79345703,0.0,0.0,0.0,-105.05676,70.75195,-4.7076416
1770517723984,-0.9477539,-0.32373047,-0.07421875,-0.12207031,-0.4272461,0.18310547,11777.0,2174.0,1354.0,-105.05676,70.75195,-4.7076416
1770517723995,-0.9477539,-0.32373047,-0.07421875,-0.12207031,-0.4272461,0.18310547,11777.0,2174.0,1354.0,-104.91943,70.773926,-4.6362305
1770517724007,-0.9477539,-0.32373047,-0.07421875,-0.12207031,-0.4272461,0.18310547,0.0,0.0,0.0,-104.91943,70.773926,-4.6362305
1770517724083,-0.94091797,-0.32128906,-0.072265625,-0.36621094,-0.30517578,0.12207031,11786.0,2185.0,1336.0,-104.91943,70.773926,-4.6362305
1770517724095,-0.94091797,-0.32128906,-0.072265625,-0.36621094,-0.30517578,0.12207031,11786.0,2185.0,1336.0,-104.72168,70.790405,-4.526367
1770517724106,-0.94091797,-0.32128906,-0.072265625,-0.36621094,-0.30517578,0.12207031,0.0,0.0,0.0,-104.72168,70.790405,-4.526367
1770517724183,-0.94677734,-0.32177734,-0.072753906,-0.79345703,-1.0375977,0.48828125,11796.0,2189.0,1333.0,-104.72168,70.790405,-4.526367
1770517724195,-0.94677734,-0.32177734,-0.072753906,-0.79345703,-1.0375977,0.48828125,11796.0,2189.0,1333.0,-104.47998,70.83435,-4.32312
1770517724206,-0.94677734,-0.32177734,-0.072753906,-0.79345703,-1.0375977,0.48828125,0.0,0.0,0.0,-104.47998,70.83435,-4.32312
1770517724283,-0.9477539,-0.32128906,-0.067871094,-0.79345703,-1.3427734,0.36621094,11781.0,2190.0,1307.0,-104.47998,70.83435,-4.32312
1770517724294,-0.9477539,-0.32128906,-0.067871094,-0.79345703,-1.3427734,0.36621094,11781.0,2190.0,1307.0,-104.11743,70.878296,-4.0045166
1770517724307,-0.9477539,-0.32128906,-0.067871094,-0.79345703,-1.3427734,0.36621094,0.0,0.0,0.0,-104.11743,70.878296,-4.0045166
1770517724382,-0.9477539,-0.31933594,-0.063964844,-1.0986328,-1.4648438,0.5493164,11780.0,2180.0,1313.0,-104.11743,70.878296,-4.0045166
1770517724394,-0.9477539,-0.31933594,-0.063964844,-1.0986328,-1.4648438,0.5493164,11780.0,2180.0,1313.0,-103.69995,70.94971,-3.6035156
1770517724405,-0.9477539,-0.31933594,-0.063964844,-1.0986328,-1.4648438,0.5493164,0.0,0.0,0.0,-103.69995,70.94971,-3.6035156
1770517724482,-0.9477539,-0.31640625,-0.061035156,-1.0986328,-0.61035156,0.30517578,11736.0,2208.0,1339.0,-103.69995,70.94971,-3.6035156
1770517724494,-0.9477539,-0.31640625,-0.061035156,-1.0986328,-0.61035156,0.30517578,11736.0,2208.0,1339.0,-103.44177,70.99365,-3.3618164
1770517724505,-0.9477539,-0.31640625,-0.061035156,-1.0986328,-0.61035156,0.30517578,0.0,0.0,0.0,-103.44177,70.99365,-3.3618164
1770517724582,-0.9477539,-0.31640625,-0.060546875,-0.61035156,-0.5493164,0.12207031,11726.0,2213.0,1371.0,-103.44177,70.99365,-3.3618164
1770517724593,-0.9477539,-0.31640625,-0.060546875,-0.61035156,-0.5493164,0.12207031,11726.0,2213.0,1371.0,-103.23303,71.02112,-3.1915283
1770517724605,-0.9477539,-0.31640625,-0.060546875,-0.61035156,-0.5493164,0.12207031,0.0,0.0,0.0,-103.23303,71.02112,-3.1915283
1770517724682,-0.94628906,-0.31591797,-0.060546875,-0.30517578,1.159668,0.0,11735.0,2224.0,1337.0,-103.23303,71.02112,-3.1915283
1770517724693,-0.94628906,-0.31591797,-0.060546875,-0.30517578,1.159668,0.0,11735.0,2224.0,1337.0,-103.19458,71.01013,-3.2574463
1770517724706,-0.94628906,-0.31591797,-0.060546875,-0.30517578,1.159668,0.0,0.0,0.0,0.0,-103.19458,71.01013,-3.2574463
1770517724781,-0.9477539,-0.31347656,-0.06298828,-0.30517578,1.953125,-0.24414062,11748.0,2209.0,1313.0,-103.19458,71.01013,-3.2574463
1770517724793,-0.9477539,-0.31347656,-0.06298828,-0.30517578,1.953125,-0.24414062,11748.0,2209.0,1313.0,-103.480225,70.97717,-3.6914062
1770517724805,-0.9477539,-0.31347656,-0.06298828,-0.30517578,1.953125,-0.24414062,0.0,0.0,0.0,-103.480225,70.97717,-3.6914062
1770517724882,-0.9472656,-0.3173828,-0.06982422,0.61035156,1.4038086,0.24414062,11774.0,2226.0,1295.0,-103.480225,70.97717,-3.6914062
1770517724893,-0.9472656,-0.3173828,-0.06982422,0.61035156,1.4038086,0.24414062,11774.0,2226.0,1295.0,-103.69446,70.9552,-4.119873
1770517724904,-0.9472656,-0.3173828,-0.06982422,0.61035156,1.4038086,0.24414062,0.0,0.0,0.0,-103.69446,70.9552,-4.119873
1770517724981,-0.9477539,-0.31640625,-0.06640625,0.4272461,1.5869141,0.4272461,11768.0,2230.0,1335.0,-103.69446,70.9552,-4.119873
1770517724992,-0.9477539,-0.31640625,-0.06640625,0.4272461,1.5869141,0.4272461,11768.0,2230.0,1335.0,-103.90869,70.944214,-4.5648193
1770517725004,-0.9477539,-0.31640625,-0.06640625,0.4272461,1.5869141,0.4272461,0.0,0.0,0.0,-103.90869,70.944214,-4.5648193
1770517725081,-0.94921875,-0.3173828,-0.068847656,-0.36621094,1.8310547,0.30517578,11808.0,2227.0,1333.0,-103.90869,70.944214,-4.5648193
1770517725092,-0.94921875,-0.3173828,-0.068847656,-0.36621094,1.8310547,0.30517578,11808.0,2227.0,1333.0,-104.298706,70.927734,-5.1470947
1770517725107,-0.94921875,-0.3173828,-0.068847656,-0.36621094,1.8310547,0.30517578,0.0,0.0,0.0,-104.298706,70.927734,-5.1470947
1770517725180,-0.94677734,-0.31640625,-0.07128906,-0.061035156,2.2583008,-0.18310547,11856.0,2208.0,1293.0,-104.298706,70.927734,-5.1470947
1770517725192,-0.94677734,-0.31640625,-0.07128906,-0.061035156,2.2583008,-0.18310547,11856.0,2208.0,1293.0,-104.765625,70.86731,-5.795288
1770517725203,-0.94677734,-0.31640625,-0.07128906,-0.061035156,2.2583008,-0.18310547,0.0,0.0,0.0,-104.765625,70.86731,-5.795288
1770517725280,-0.94384766,-0.31640625,-0.075683594,-0.18310547,2.319336,-0.5493164,11769.0,2253.0,1447.0,-104.765625,70.86731,-5.795288
1770517725291,-0.94384766,-0.31640625,-0.075683594,-0.18310547,2.319336,-0.5493164,11769.0,2253.0,1447.0,-105.216064,70.76294,-6.454468
1770517725303,-0.94384766,-0.31640625,-0.075683594,-0.18310547,2.319336,-0.5493164,0.0,0.0,0.0,-105.216064,70.76294,-6.454468
1770517725380,-0.9453125,-0.31835938,-0.079589844,-0.24414062,2.5634766,-0.5493164,11712.0,2277.0,1540.0,-105.216064,70.76294,-6.454468
1770517725391,-0.9453125,-0.31835938,-0.079589844,-0.24414062,2.5634766,-0.5493164,11712.0,2277.0,1540.0,-105.66101,70.65857,-7.0806885
1770517725406,-0.9453125,-0.31835938,-0.079589844,-0.24414062,2.5634766,-0.5493164,0.0,0.0,0.0,-105.66101,70.65857,-7.0806885
1770517725479,-0.9458008,-0.32177734,-0.08691406,-2.0751953,4.0893555,-0.4272461,11703.0,2283.0,1571.0,-105.66101,70.65857,-7.0806885
1770517725491,-0.9458008,-0.32177734,-0.08691406,-2.0751953,4.0893555,-0.4272461,11703.0,2283.0,1571.0,-106.605835,70.50476,-8.12439
1770517725502,-0.9458008,-0.32177734,-0.08691406,-2.0751953,4.0893555,-0.4272461,0.0,0.0,0.0,-106.605835,70.50476,-8.12439
1770517725579,-0.94189453,-0.32128906,-0.09375,-2.2583008,4.5166016,-0.79345703,11748.0,2277.0,1589.0,-106.605835,70.50476,-8.12439
1770517725590,-0.94189453,-0.32128906,-0.09375,-2.2583008,4.5166016,-0.79345703,11748.0,2277.0,1589.0,-107.75391,70.30151,-9.316406
1770517725604,-0.94189453,-0.32128906,-0.09375,-2.2583008,4.5166016,-0.79345703,0.0,0.0,0.0,-107.75391,70.30151,-9.316406
1770517725679,-0.9379883,-0.32128906,-0.104003906,-4.272461,5.9814453,-1.0986328,11756.0,2325.0,1641.0,-107.75391,70.30151,-9.316406
1770517725690,-0.9379883,-0.32128906,-0.104003906,-4.272461,5.9814453,-1.0986328,11756.0,2325.0,1641.0,-109.21509,70.03784,-10.750122
1770517725702,-0.9379883,-0.32128906,-0.104003906,-4.272461,5.9814453,-1.0986328,0.0,0.0,0.0,-109.21509,70.03784,-10.750122
1770517725778,-0.94189453,-0.3227539,-0.11279297,-3.9672852,4.0283203,-0.48828125,11918.0,2308.0,1580.0,-109.21509,70.03784,-10.750122
1770517725790,-0.94189453,-0.3227539,-0.11279297,-3.9672852,4.0283203,-0.48828125,11918.0,2308.0,1580.0,-110.65979,69.74121,-12.150879
1770517725801,-0.94189453,-0.3227539,-0.11279297,-3.9672852,4.0283203,-0.48828125,0.0,0.0,0.0,-110.65979,69.74121,-12.150879
1770517725878,-0.9399414,-0.3310547,-0.12011719,-1.159668,3.2348633,-0.91552734,12051.0,2318.0,1516.0,-110.65979,69.74121,-12.150879
1770517725890,-0.9399414,-0.3310547,-0.12011719,-1.159668,3.2348633,-0.91552734,12051.0,2318.0,1516.0,-111.47827,69.537964,-12.996826
1770517725901,-0.9399414,-0.3310547,-0.12011719,-1.159668,3.2348633,-0.91552734,0.0,0.0,0.0,-111.47827,69.537964,-12.996826
1770517725978,-0.93408203,-0.3256836,-0.12890625,-1.2817383,3.0517578,-0.30517578,12107.0,2338.0,1494.0,-111.47827,69.537964,-12.996826
1770517725989,-0.93408203,-0.3256836,-0.12890625,-1.2817383,3.0517578,-0.30517578,12107.0,2338.0,1494.0,-112.197876,69.36218,-13.765869
1770517726001,-0.93408203,-0.3256836,-0.12890625,-1.2817383,3.0517578,-0.30517578,0.0,0.0,0.0,-112.197876,69.36218,-13.765869
1770517726077,-0.93359375,-0.32714844,-0.13330078,-1.5869141,2.6245117,0.0,12123.0,2356.0,1515.0,-112.197876,69.36218,-13.765869
1770517726089,-0.93359375,-0.32714844,-0.13330078,-1.5869141,2.6245117,0.0,12123.0,2356.0,1515.0,-112.961426,69.21387,-14.573364
1770517726101,-0.93359375,-0.32714844,-0.13330078,-1.5869141,2.6245117,0.0,0.0,0.0,0.0,-112.961426,69.21387,-14.573364
1770517726177,-0.9370117,-0.32958984,-0.1381836,-0.79345703,2.8686523,-0.24414062,12135.0,2379.0,1560.0,-112.961426,69.21387,-14.573364
1770517726189,-0.9370117,-0.32958984,-0.1381836,-0.79345703,2.8686523,-0.24414062,12135.0,2379.0,1560.0,-113.68103,69.04907,-15.391846
1770517726200,-0.9370117,-0.32958984,-0.1381836,-0.79345703,2.8686523,-0.24414062,0.0,0.0,0.0,-113.68103,69.04907,-15.391846
1770517726277,-0.9345703,-0.32910156,-0.14257812,-0.4272461,1.8920898,0.0,12120.0,2396.0,1654.0,-113.68103,69.04907,-15.391846
1770517726289,-0.9345703,-0.32910156,-0.14257812,-0.4272461,1.8920898,0.0,12120.0,2396.0,1654.0,-114.104004,68.95569,-15.930176
1770517726301,-0.9345703,-0.32910156,-0.14257812,-0.4272461,1.8920898,0.0,0.0,0.0,0.0,-114.104004,68.95569,-15.930176
1770517726377,-0.93652344,-0.33154297,-0.14208984,0.18310547,1.6479492,-0.24414062,12136.0,2415.0,1663.0,-114.104004,68.95569,-15.930176
1770517726388,-0.93652344,-0.33154297,-0.14208984,0.18310547,1.6479492,-0.24414062,12136.0,2415.0,1663.0,-114.39514,68.8678,-16.369629
1770517726403,-0.93652344,-0.33154297,-0.14208984,0.18310547,1.6479492,-0.24414062,0.0,0.0,0.0,-114.39514,68.8678,-16.369629
1770517726476,-0.9326172,-0.33251953,-0.13964844,0.91552734,0.79345703,-0.36621094,12162.0,2408.0,1639.0,-114.39514,68.8678,-16.369629
1770517726488,-0.9326172,-0.33251953,-0.13964844,0.91552734,0.79345703,-0.36621094,12162.0,2408.0,1639.0,-114.521484,68.774414,-16.68274
1770517726502,-0.9326172,-0.33251953,-0.13964844,0.91552734,0.79345703,-0.36621094,0.0,0.0,0.0,-114.521484,68.774414,-16.68274
1770517726576,-0.9316406,-0.3334961,-0.14208984,1.3427734,-1.2817383,0.36621094,12178.0,2406.0,1579.0,-114.521484,68.774414,-16.68274
1770517726588,-0.9316406,-0.3334961,-0.14208984,1.3427734,-1.2817383,0.36621094,12178.0,2406.0,1579.0,-114.18091,68.79639,-16.56189
1770517726603,-0.9316406,-0.3334961,-0.14208984,1.3427734,-1.2817383,0.36621094,0.0,0.0,0.0,-114.18091,68.79639,-16.56189
1770517726676,-0.93847656,-0.3330078,-0.1381836,0.30517578,-0.61035156,0.48828125,12178.0,2407.0,1608.0,-114.18091,68.79639,-16.56189
1770517726687,-0.93847656,-0.3330078,-0.1381836,0.30517578,-0.61035156,0.48828125,12178.0,2407.0,1608.0,-113.92822,68.845825,-16.452026
1770517726699,-0.93847656,-0.3330078,-0.1381836,0.30517578,-0.61035156,0.48828125,0.0,0.0,0.0,-113.92822,68.845825,-16.452026
1770517726776,-0.93310547,-0.3305664,-0.14013672,0.91552734,-0.7324219,0.6713867,12163.0,2414.0,1568.0,-113.92822,68.845825,-16.452026
1770517726787,-0.93310547,-0.3305664,-0.14013672,0.91552734,-0.7324219,0.6713867,12163.0,2414.0,1568.0,-113.63159,68.966675,-16.281738
1770517726799,-0.93310547,-0.3305664,-0.14013672,0.91552734,-0.7324219,0.6713867,0.0,0.0,0.0,-113.63159,68.966675,-16.281738
1770517726875,-0.9355469,-0.32861328,-0.13427734,0.061035156,-1.4648438,0.79345703,12147.0,2415.0,1569.0,-113.63159,68.966675,-16.281738
1770517726887,-0.9355469,-0.32861328,-0.13427734,0.061035156,-1.4648438,0.79345703,12147.0,2415.0,1569.0,-113.31848,69.054565,-16.078491
1770517726899,-0.9355469,-0.32861328,-0.13427734,0.061035156,-1.4648438,0.79345703,0.0,0.0,0.0,-113.31848,69.054565,-16.078491
1770517726975,-0.93896484,-0.33007812,-0.13427734,-0.30517578,-0.79345703,0.4272461,12158.0,2398.0,1554.0,-113.31848,69.054565,-16.078491
1770517726987,-0.93896484,-0.33007812,-0.13427734,-0.30517578,-0.79345703,0.4272461,12158.0,2398.0,1554.0,-113.02185,69.13696,-15.836792
1770517727008,-0.93896484,-0.33007812,-0.13427734,-0.30517578,-0.79345703,0.4272461,0.0,0.0,0.0,-113.02185,69.13696,-15.836792
1770517727075,-0.93408203,-0.33154297,-0.13476562,0.061035156,-0.79345703,0.061035156,12162.0,2401.0,1525.0,-113.02185,69.13696,-15.836792
1770517727086,-0.93408203,-0.33154297,-0.13476562,0.061035156,-0.79345703,0.061035156,12162.0,2401.0,1525.0,-112.7417,69.20288,-15.57312
1770517727097,-0.93408203,-0.33154297,-0.13476562,0.061035156,-0.79345703,0.061035156,0.0,0.0,0.0,-112.7417,69.20288,-15.57312
1770517727174,-0.9355469,-0.32910156,-0.13183594,-0.30517578,-0.6713867,0.12207031,12164.0,2409.0,1466.0,-112.7417,69.20288,-15.57312
1770517727186,-0.9355469,-0.32910156,-0.13183594,-0.30517578,-0.6713867,0.12207031,12164.0,2409.0,1466.0,-112.52197,69.208374,-15.413818
1770517727198,-0.9355469,-0.32910156,-0.13183594,-0.30517578,-0.6713867,0.12207031,0.0,0.0,0.0,-112.52197,69.208374,-15.413818
1770517727274,-0.9355469,-0.33007812,-0.1303711,0.48828125,-0.4272461,0.24414062,12140.0,2418.0,1480.0,-112.52197,69.208374,-15.413818
1770517727286,-0.9355469,-0.33007812,-0.1303711,0.48828125,-0.4272461,0.24414062,12140.0,2418.0,1480.0,-112.32971,69.23584,-15.276489
1770517727297,-0.9355469,-0.33007812,-0.1303711,0.48828125,-0.4272461,0.24414062,0.0,0.0,0.0,-112.32971,69.23584,-15.276489
1770517727374,-0.9350586,-0.33251953,-0.12646484,1.0375977,-0.9765625,0.6713867,12154.0,2395.0,1480.0,-112.32971,69.23584,-15.276489
1770517727385,-0.9350586,-0.33251953,-0.12646484,1.0375977,-0.9765625,0.6713867,12154.0,2395.0,1480.0,-112.02759,69.296265,-15.128174
1770517727399,-0.9350586,-0.33251953,-0.12646484,1.0375977,-0.9765625,0.6713867,0.0,0.0,0.0,-112.02759,69.296265,-15.128174
1770517727473,-0.93603516,-0.32861328,-0.12109375,1.0375977,-0.6713867,0.61035156,12159.0,2383.0,1456.0,-112.02759,69.296265,-15.128174
1770517727485,-0.93603516,-0.32861328,-0.12109375,1.0375977,-0.6713867,0.61035156,12159.0,2383.0,1456.0,-111.64856,69.37866,-14.924927
1770517727501,-0.93603516,-0.32861328,-0.12109375,1.0375977,-0.6713867,0.61035156,0.0,0.0,0.0,-111.64856,69.37866,-14.924927
1770517727573,-0.9370117,-0.32958984,-0.11816406,0.61035156,0.30517578,0.4272461,12104.0,2404.0,1491.0,-111.64856,69.37866,-14.924927
1770517727585,-0.9370117,-0.32958984,-0.11816406,0.61035156,0.30517578,0.4272461,12104.0,2404.0,1491.0,-111.434326,69.43359,-14.891968
1770517727600,-0.9370117,-0.32958984,-0.11816406,0.61035156,0.30517578,0.4272461,0.0,0.0,0.0,-111.434326,69.43359,-14.891968
1770517727673,-0.93847656,-0.32910156,-0.115234375,0.61035156,0.0,0.61035156,12127.0,2375.0,1446.0,-111.434326,69.43359,-14.891968
1770517727686,-0.93847656,-0.32910156,-0.115234375,0.61035156,0.0,0.61035156,12127.0,2375.0,1446.0,-111.329956,69.43359,-15.001831
1770517727696,-0.93847656,-0.32910156,-0.115234375,0.61035156,0.0,0.61035156,0.0,0.0,0.0,-111.329956,69.43359,-15.001831
1770517727773,-0.94091797,-0.3330078,-0.11621094,0.6713867,0.6713867,0.24414062,12124.0,2388.0,1437.0,-111.329956,69.43359,-15.001831
1770517727784,-0.94091797,-0.3330078,-0.11621094,0.6713867,0.6713867,0.24414062,12124.0,2388.0,1437.0,-111.297,69.4281,-15.199585
1770517727795,-0.94091797,-0.3330078,-0.11621094,0.6713867,0.6713867,0.24414062,0.0,0.0,0.0,-111.297,69.4281,-15.199585
1770517727872,-0.9355469,-0.32910156,-0.119628906,-0.6713867,2.0751953,0.061035156,12130.0,2389.0,1420.0,-111.297,69.4281,-15.199585
1770517727884,-0.9355469,-0.32910156,-0.119628906,-0.6713867,2.0751953,0.061035156,12130.0,2389.0,1420.0,-111.43982,69.400635,-15.523682
1770517727895,-0.9355469,-0.32910156,-0.119628906,-0.6713867,2.0751953,0.061035156,0.0,0.0,0.0,-111.43982,69.400635,-15.523682
1770517727972,-0.9399414,-0.32910156,-0.12646484,-3.7841797,5.7373047,-0.5493164,12123.0,2366.0,1425.0,-111.43982,69.400635,-15.523682
1770517727983,-0.9399414,-0.32910156,-0.12646484,-3.7841797,5.7373047,-0.5493164,12123.0,2366.0,1425.0,-112.53296,69.208374,-16.605835
1770517727997,-0.9399414,-0.32910156,-0.12646484,-3.7841797,5.7373047,-0.5493164,0.0,0.0,0.0,-112.53296,69.208374,-16.605835
1770517728072,-0.93847656,-0.32958984,-0.1303711,-2.319336,2.8686523,-0.5493164,12092.0,2397.0,1512.0,-112.53296,69.208374,-16.605835
1770517728083,-0.93847656,-0.32958984,-0.1303711,-2.319336,2.8686523,-0.5493164,12092.0,2397.0,1512.0,-113.66455,68.97217,-17.731934
1770517728095,-0.93847656,-0.32958984,-0.1303711,-2.319336,2.8686523,-0.5493164,0.0,0.0,0.0,-113.66455,68.97217,-17.731934
1770517728171,-0.93408203,-0.328125,-0.13427734,-1.5869141,1.8920898,-0.18310547,12154.0,2426.0,1539.0,-113.66455,68.97217,-17.731934
1770517728183,-0.93408203,-0.328125,-0.13427734,-1.5869141,1.8920898,-0.18310547,12154.0,2426.0,1539.0,-114.20288,68.85681,-18.319702
1770517728200,-0.93408203,-0.328125,-0.13427734,-1.5869141,1.8920898,-0.18310547,0.0,0.0,0.0,-114.20288,68.85681,-18.319702
1770517728271,-0.93652344,-0.3305664,-0.14257812,-1.0986328,1.4648438,-0.30517578,12197.0,2434.0,1520.0,-114.20288,68.85681,-18.319702
1770517728283,-0.93652344,-0.3305664,-0.14257812,-1.0986328,1.4648438,-0.30517578,12197.0,2434.0,1520.0,-114.51599,68.77991,-18.71521
1770517728296,-0.93652344,-0.3305664,-0.14257812,-1.0986328,1.4648438,-0.30517578,0.0,0.0,0.0,-114.51599,68.77991,-18.71521
1770517728371,-0.93408203,-0.33251953,-0.1459961,0.24414062,1.7700195,-0.30517578,12224.0,2433.0,1540.0,-114.51599,68.77991,-18.71521
1770517728382,-0.93408203,-0.33251953,-0.1459961,0.24414062,1.7700195,-0.30517578,12224.0,2433.0,1540.0,-114.79614,68.67554,-19.121704
1770517728402,-0.93408203,-0.33251953,-0.1459961,0.24414062,1.7700195,-0.30517578,0.0,0.0,0.0,-114.79614,68.67554,-19.121704
1770517728471,-0.93115234,-0.3330078,-0.14208984,0.5493164,0.4272461,0.24414062,12161.0,2469.0,1638.0,-114.79614,68.67554,-19.121704
1770517728483,-0.93115234,-0.3330078,-0.14208984,0.5493164,0.4272461,0.24414062,12161.0,2469.0,1638.0,-114.97742,68.59863,-19.49524
1770517728495,-0.93115234,-0.3330078,-0.14208984,0.5493164,0.4272461,0.24414062,0.0,0.0,0.0,-114.97742,68.59863,-19.49524
1770517728570,-0.93652344,-0.33154297,-0.1352539,-0.8544922,-0.24414062,0.5493164,12185.0,2472.0,1647.0,-114.97742,68.59863,-19.49524
1770517728582,-0.93652344,-0.33154297,-0.1352539,-0.8544922,-0.24414062,0.5493164,12185.0,2472.0,1647.0,-115.03784,68.59863,-19.682007
1770517728594,-0.93652344,-0.33154297,-0.1352539,-0.8544922,-0.24414062,0.5493164,0.0,0.0,0.0,-115.03784,68.59863,-19.682007
1770517728670,-0.93310547,-0.33398438,-0.14648438,0.061035156,-1.6479492,1.0375977,12226.0,2441.0,1567.0,-115.03784,68.59863,-19.682007
1770517728682,-0.93310547,-0.33398438,-0.14648438,0.061035156,-1.6479492,1.0375977,12226.0,2441.0,1567.0,-114.60388,68.76892,-19.352417
1770517728694,-0.93310547,-0.33398438,-0.14648438,0.061035156,-1.6479492,1.0375977,0.0,0.0,0.0,-114.60388,68.76892,-19.352417
1770517728770,-0.93652344,-0.32861328,-0.13769531,0.0,-1.8920898,0.6713867,12234.0,2432.0,1563.0,-114.60388,68.76892,-19.352417
1770517728781,-0.93652344,-0.32861328,-0.13769531,0.0,-1.8920898,0.6713867,12234.0,2432.0,1563.0,-114.2688,68.90076,-19.06128
1770517728796,-0.93652344,-0.32861328,-0.13769531,0.0,-1.8920898,0.6713867,0.0,0.0,0.0,-114.2688,68.90076,-19.06128
1770517728869,-0.9375,-0.3305664,-0.1352539,0.061035156,-1.4038086,0.5493164,12216.0,2429.0,1529.0,-114.2688,68.90076,-19.06128
1770517728881,-0.9375,-0.3305664,-0.1352539,0.061035156,-1.4038086,0.5493164,12216.0,2429.0,1529.0,-113.878784,69.00513,-18.742676
1770517728897,-0.9375,-0.3305664,-0.1352539,0.061035156,-1.4038086,0.5493164,0.0,0.0,0.0,-113.878784,69.00513,-18.742676
1770517728969,-0.9345703,-0.33007812,-0.13427734,0.61035156,-1.0986328,0.30517578,12221.0,2423.0,1493.0,-113.878784,69.00513,-18.742676
1770517728981,-0.9345703,-0.33007812,-0.13427734,0.61035156,-1.0986328,0.30517578,12221.0,2423.0,1493.0,-113.49426,69.1095,-18.429565
1770517729001,-0.9345703,-0.33007812,-0.13427734,0.61035156,-1.0986328,0.30517578,0.0,0.0,0.0,-113.49426,69.1095,-18.429565
1770517729069,-0.93603516,-0.3256836,-0.12792969,0.5493164,-1.8920898,0.8544922,12183.0,2449.0,1508.0,-113.49426,69.1095,-18.429565
1770517729080,-0.93603516,-0.3256836,-0.12792969,0.5493164,-1.8920898,0.8544922,12183.0,2449.0,1508.0,-113.082275,69.20288,-18.127441
1770517729092,-0.93603516,-0.3256836,-0.12792969,0.5493164,-1.8920898,0.8544922,0.0,0.0,0.0,-113.082275,69.20288,-18.127441
1770517729169,-0.93896484,-0.32666016,-0.12792969,0.8544922,-1.953125,0.9765625,12191.0,2429.0,1461.0,-113.082275,69.20288,-18.127441
1770517729180,-0.93896484,-0.32666016,-0.12792969,0.8544922,-1.953125,0.9765625,12191.0,2429.0,1461.0,-112.48901,69.367676,-17.666016
1770517729195,-0.93896484,-0.32666016,-0.12792969,0.8544922,-1.953125,0.9765625,0.0,0.0,0.0,-112.48901,69.367676,-17.666016
1770517729268,-0.9399414,-0.32470703,-0.119140625,1.0375977,-1.8310547,0.9765625,12182.0,2413.0,1433.0,-112.48901,69.367676,-17.666016
1770517729280,-0.9399414,-0.32470703,-0.119140625,1.0375977,-1.8310547,0.9765625,12182.0,2413.0,1433.0,-111.989136,69.505005,-17.314453
1770517729299,-0.9399414,-0.32470703,-0.119140625,1.0375977,-1.8310547,0.9765625,0.0,0.0,0.0,-111.989136,69.505005,-17.314453
1770517729368,-0.9399414,-0.32373047,-0.11767578,1.0986328,-1.7089844,0.8544922,12158.0,2419.0,1433.0,-111.989136,69.505005,-17.314453
1770517729379,-0.9399414,-0.32373047,-0.11767578,1.0986328,-1.7089844,0.8544922,12158.0,2419.0,1433.0,-111.40686,69.65332,-16.913452
1770517729391,-0.9399414,-0.32373047,-0.11767578,1.0986328,-1.7089844,0.8544922,0.0,0.0,0.0,-111.40686,69.65332,-16.913452
1770517729468,-0.94140625,-0.32226562,-0.10986328,0.0,-1.2207031,0.7324219,12185.0,2393.0,1380.0,-111.40686,69.65332,-16.913452
1770517729480,-0.94140625,-0.32226562,-0.10986328,0.0,-1.2207031,0.7324219,12185.0,2393.0,1380.0,-110.8905,69.77417,-16.572876
1770517729491,-0.94140625,-0.32226562,-0.10986328,0.0,-1.2207031,0.7324219,0.0,0.0,0.0,-110.8905,69.77417,-16.572876
1770517729567,-0.94140625,-0.32177734,-0.104003906,-0.61035156,-1.4648438,0.79345703,12182.0,2395.0,1369.0,-110.8905,69.77417,-16.572876
1770517729579,-0.94140625,-0.32177734,-0.104003906,-0.61035156,-1.4648438,0.79345703,12182.0,2395.0,1369.0,-110.56641,69.8291,-16.391602
1770517729590,-0.94140625,-0.32177734,-0.104003906,-0.61035156,-1.4648438,0.79345703,0.0,0.0,0.0,-110.56641,69.8291,-16.391602
1770517729667,-0.94433594,-0.32714844,-0.107910156,-0.061035156,-0.4272461,0.12207031,12182.0,2369.0,1336.0,-110.56641,69.8291,-16.391602
1770517729679,-0.94433594,-0.32714844,-0.107910156,-0.061035156,-0.4272461,0.12207031,12182.0,2369.0,1336.0,-110.25879,69.88953,-16.188354
1770517729692,-0.94433594,-0.32714844,-0.107910156,-0.061035156,-0.4272461,0.12207031,0.0,0.0,0.0,-110.25879,69.88953,-16.188354
1770517729767,-0.94140625,-0.32373047,-0.103515625,-0.36621094,-1.0375977,0.4272461,12209.0,2392.0,1312.0,-110.25879,69.88953,-16.188354
1770517729778,-0.94140625,-0.32373047,-0.103515625,-0.36621094,-1.0375977,0.4272461,12209.0,2392.0,1312.0,-109.940186,69.93347,-15.979614
1770517729791,-0.94140625,-0.32373047,-0.103515625,-0.36621094,-1.0375977,0.4272461,0.0,0.0,0.0,-109.940186,69.93347,-15.979614
1770517729866,-0.9404297,-0.3232422,-0.103515625,-1.4038086,-0.36621094,0.36621094,12154.0,2396.0,1322.0,-109.940186,69.93347,-15.979614
1770517729878,-0.9404297,-0.3232422,-0.103515625,-1.4038086,-0.36621094,0.36621094,12154.0,2396.0,1322.0,-109.819336,69.971924,-15.875244
1770517729889,-0.9404297,-0.3232422,-0.103515625,-1.4038086,-0.36621094,0.36621094,0.0,0.0,0.0,-109.819336,69.971924,-15.875244
1770517729966,-0.9423828,-0.32617188,-0.10595703,-0.6713867,0.18310547,0.0,12146.0,2404.0,1346.0,-109.819336,69.971924,-15.875244
1770517729978,-0.9423828,-0.32617188,-0.10595703,-0.6713867,0.18310547,0.0,12146.0,2404.0,1346.0,-109.77539,69.96094,-15.897217
1770517729989,-0.9423828,-0.32617188,-0.10595703,-0.6713867,0.18310547,0.0,0.0,0.0,0.0,-109.77539,69.96094,-15.897217
1770517730067,-0.9404297,-0.32421875,-0.107421875,-1.4648438,-0.061035156,0.12207031,12134.0,2412.0,1352.0,-109.77539,69.96094,-15.897217
1770517730077,-0.9404297,-0.32421875,-0.107421875,-1.4648438,-0.061035156,0.12207031,12134.0,2412.0,1352.0,-109.75891,69.96643,-15.908203
1770517730089,-0.9404297,-0.32421875,-0.107421875,-1.4648438,-0.061035156,0.12207031,0.0,0.0,0.0,-109.75891,69.96643,-15.908203
1770517730166,-0.9428711,-0.3251953,-0.10986328,-1.2207031,0.061035156,0.0,12163.0,2403.0,1340.0,-109.75891,69.96643,-15.908203
1770517730177,-0.9428711,-0.3251953,-0.10986328,-1.2207031,0.061035156,0.0,12163.0,2403.0,1340.0,-109.73694,69.96643,-15.864258
1770517730189,-0.9428711,-0.3251953,-0.10986328,-1.2207031,0.061035156,0.0,0.0,0.0,0.0,-109.73694,69.96643,-15.864258
1770517730265,-0.94091797,-0.32373047,-0.10839844,0.0,0.30517578,0.0,12199.0,2393.0,1319.0,-109.73694,69.96643,-15.864258
1770517730277,-0.94091797,-0.32373047,-0.10839844,0.0,0.30517578,0.0,12199.0,2393.0,1319.0,-109.73694,69.94995,-15.935669
1770517730288,-0.94091797,-0.32373047,-0.10839844,0.0,0.30517578,0.0,0.0,0.0,0.0,-109.73694,69.94995,-15.935669
1770517730365,-0.94091797,-0.32470703,-0.106933594,-0.061035156,0.36621094,0.0,12188.0,2387.0,1310.0,-109.73694,69.94995,-15.935669
1770517730377,-0.94091797,-0.32470703,-0.106933594,-0.061035156,0.36621094,0.0,12188.0,2387.0,1310.0,-109.714966,69.93347,-16.029053
1770517730388,-0.94091797,-0.32470703,-0.106933594,-0.061035156,0.36621094,0.0,0.0,0.0,0.0,-109.714966,69.93347,-16.029053
1770517730465,-0.9399414,-0.3251953,-0.10888672,1.5258789,0.6713867,0.0,12189.0,2394.0,1301.0,-109.714966,69.93347,-16.029053
1770517730476,-0.9399414,-0.3251953,-0.10888672,1.5258789,0.6713867,0.0,12189.0,2394.0,1301.0,-109.79187,69.89502,-16.281738
1770517730489,-0.9399414,-0.3251953,-0.10888672,1.5258789,0.6713867,0.0,0.0,0.0,0.0,-109.79187,69.89502,-16.281738
1770517730564,-0.9379883,-0.3227539,-0.10986328,0.8544922,0.12207031,0.24414062,12185.0,2377.0,1300.0,-109.79187,69.89502,-16.281738
1770517730576,-0.9379883,-0.3227539,-0.10986328,0.8544922,0.12207031,0.24414062,12185.0,2377.0,1300.0,-109.714966,69.9115,-16.369629
1770517730588,-0.9379883,-0.3227539,-0.10986328,0.8544922,0.12207031,0.24414062,0.0,0.0,0.0,-109.714966,69.9115,-16.369629
1770517730664,-0.9423828,-0.3256836,-0.107910156,0.9765625,0.061035156,0.24414062,12210.0,2384.0,1293.0,-109.714966,69.9115,-16.369629
1770517730676,-0.9423828,-0.3256836,-0.107910156,0.9765625,0.061035156,0.24414062,12210.0,2384.0,1293.0,-109.59412,69.91699,-16.45752
1770517730687,-0.9423828,-0.3256836,-0.107910156,0.9765625,0.061035156,0.24414062,0.0,0.0,0.0,-109.59412,69.91699,-16.45752
1770517730764,-0.9423828,-0.3251953,-0.10546875,1.0375977,0.30517578,0.0,12248.0,2381.0,1263.0,-109.59412,69.91699,-16.45752
1770517730775,-0.9423828,-0.3251953,-0.10546875,1.0375977,0.30517578,0.0,12248.0,2381.0,1263.0,-109.42932,69.91699,-16.506958
1770517730788,-0.9423828,-0.3251953,-0.10546875,1.0375977,0.30517578,0.0,0.0,0.0,0.0,-109.42932,69.91699,-16.506958
1770517730864,-0.9394531,-0.32666016,-0.103515625,0.61035156,0.4272461,0.061035156,12250.0,2371.0,1273.0,-109.42932,69.91699,-16.506958
1770517730875,-0.9394531,-0.32666016,-0.103515625,0.61035156,0.4272461,0.061035156,12250.0,2371.0,1273.0,-109.313965,69.92798,-16.556396
1770517730890,-0.9394531,-0.32666016,-0.103515625,0.61035156,0.4272461,0.061035156,0.0,0.0,0.0,-109.313965,69.92798,-16.556396
1770517730963,-0.9399414,-0.32910156,-0.10546875,-1.3427734,1.7700195,-0.36621094,12243.0,2368.0,1219.0,-109.313965,69.92798,-16.556396
1770517730975,-0.9399414,-0.32910156,-0.10546875,-1.3427734,1.7700195,-0.36621094,12243.0,2368.0,1219.0,-109.45679,69.86755,-16.820068
1770517730986,-0.9399414,-0.32910156,-0.10546875,-1.3427734,1.7700195,-0.36621094,0.0,0.0,0.0,-109.45679,69.86755,-16.820068
1770517731063,-0.9399414,-0.32177734,-0.11621094,-3.2348633,4.8828125,-0.12207031,12234.0,2381.0,1226.0,-109.45679,69.86755,-16.820068
1770517731075,-0.9399414,-0.32177734,-0.11621094,-3.2348633,4.8828125,-0.12207031,12234.0,2381.0,1226.0,-110.45105,69.74121,-17.74292
1770517731088,-0.9399414,-0.32177734,-0.11621094,-3.2348633,4.8828125,-0.12207031,0.0,0.0,0.0,-110.45105,69.74121,-17.74292
1770517731163,-0.9433594,-0.31298828,-0.123535156,-0.12207031,4.699707,-1.159668,12255.0,2393.0,1264.0,-110.45105,69.74121,-17.74292
1770517731174,-0.9433594,-0.31298828,-0.123535156,-0.12207031,4.699707,-1.159668,12255.0,2393.0,1264.0,-111.780396,69.49402,-19.094238
1770517731188,-0.9433594,-0.31298828,-0.123535156,-0.12207031,4.699707,-1.159668,0.0,0.0,0.0,-111.780396,69.49402,-19.094238
1770517731263,-0.9404297,-0.32861328,-0.12988281,2.9907227,3.6621094,-1.0986328,12275.0,2431.0,1330.0,-111.780396,69.49402,-19.094238
1770517731274,-0.9404297,-0.32861328,-0.12988281,2.9907227,3.6621094,-1.0986328,12275.0,2431.0,1330.0,-112.20886,69.263306,-19.951172
1770517731285,-0.9404297,-0.32861328,-0.12988281,2.9907227,3.6621094,-1.0986328,0.0,0.0,0.0,-112.20886,69.263306,-19.951172
1770517731362,-0.9375,-0.33203125,-0.125,3.0517578,3.7841797,-0.61035156,12296.0,2441.0,1313.0,-112.20886,69.263306,-19.951172
1770517731374,-0.9375,-0.33203125,-0.125,3.0517578,3.7841797,-0.61035156,12296.0,2441.0,1313.0,-112.6593,69.01062,-20.928955
1770517731389,-0.9375,-0.33203125,-0.125,3.0517578,3.7841797,-0.61035156,0.0,0.0,0.0,-112.6593,69.01062,-20.928955
1770517731462,-0.9370117,-0.32958984,-0.12060547,0.61035156,2.5634766,0.30517578,12322.0,2425.0,1349.0,-112.6593,69.01062,-20.928955
1770517731473,-0.9370117,-0.32958984,-0.12060547,0.61035156,2.5634766,0.30517578,12322.0,2425.0,1349.0,-113.21411,68.845825,-21.87378
1770517731485,-0.9370117,-0.32958984,-0.12060547,0.61035156,2.5634766,0.30517578,0.0,0.0,0.0,-113.21411,68.845825,-21.87378
1770517731562,-0.93310547,-0.3388672,-0.13720703,0.061035156,2.9296875,0.36621094,12242.0,2475.0,1504.0,-113.21411,68.845825,-21.87378
1770517731573,-0.93310547,-0.3388672,-0.13720703,0.061035156,2.9296875,0.36621094,12242.0,2475.0,1504.0,-113.52173,68.83484,-22.439575
1770517731585,-0.93310547,-0.3388672,-0.13720703,0.061035156,2.9296875,0.36621094,0.0,0.0,0.0,-113.52173,68.83484,-22.439575
1770517731661,-0.93066406,-0.33251953,-0.13378906,-0.8544922,0.79345703,0.6713867,12344.0,2432.0,1384.0,-113.52173,68.83484,-22.439575
1770517731673,-0.93066406,-0.33251953,-0.13378906,-0.8544922,0.79345703,0.6713867,12344.0,2432.0,1384.0,-113.89526,68.80737,-22.944946
1770517731685,-0.93066406,-0.33251953,-0.13378906,-0.8544922,0.79345703,0.6713867,0.0,0.0,0.0,-113.89526,68.80737,-22.944946
1770517731761,-0.93896484,-0.33154297,-0.13916016,-2.6245117,0.12207031,0.7324219,12396.0,2421.0,1347.0,-113.89526,68.80737,-22.944946
1770517731773,-0.93896484,-0.33154297,-0.13916016,-2.6245117,0.12207031,0.7324219,12396.0,2421.0,1347.0,-114.14795,68.829346,-23.208618
1770517731784,-0.93896484,-0.33154297,-0.13916016,-2.6245117,0.12207031,0.7324219,0.0,0.0,0.0,-114.14795,68.829346,-23.208618
1770517731861,-0.93408203,-0.32958984,-0.1381836,-0.9765625,0.0,-0.12207031,12409.0,2432.0,1366.0,-114.14795,68.829346,-23.208618
1770517731872,-0.93408203,-0.32958984,-0.1381836,-0.9765625,0.0,-0.12207031,12409.0,2432.0,1366.0,-114.22485,68.845825,-23.252563
1770517731884,-0.93408203,-0.32958984,-0.1381836,-0.9765625,0.0,-0.12207031,0.0,0.0,0.0,-114.22485,68.845825,-23.252563
1770517731960,-0.9350586,-0.328125,-0.13769531,-0.48828125,-0.30517578,-0.18310547,12401.0,2441.0,1384.0,-114.22485,68.845825,-23.252563
1770517731979,-0.9350586,-0.328125,-0.13769531,-0.48828125,-0.30517578,-0.18310547,12401.0,2441.0,1384.0,-114.16443,68.829346,-23.219604
1770517731984,-0.9350586,-0.328125,-0.13769531,-0.48828125,-0.30517578,-0.18310547,0.0,0.0,0.0,-114.16443,68.829346,-23.219604
1770517732060,-0.93603516,-0.32958984,-0.13427734,0.5493164,-1.5258789,0.36621094,12400.0,2436.0,1370.0,-114.16443,68.829346,-23.219604
1770517732072,-0.93603516,-0.32958984,-0.13427734,0.5493164,-1.5258789,0.36621094,12400.0,2436.0,1370.0,-113.81836,68.878784,-22.972412
1770517732083,-0.93603516,-0.32958984,-0.13427734,0.5493164,-1.5258789,0.36621094,0.0,0.0,0.0,-113.81836,68.878784,-22.972412
1770517732160,-0.9370117,-0.3305664,-0.123046875,1.4038086,-4.5776367,1.159668,12377.0,2453.0,1382.0,-113.81836,68.878784,-22.972412
1770517732171,-0.9370117,-0.3305664,-0.123046875,1.4038086,-4.5776367,1.159668,12377.0,2453.0,1382.0,-113.05481,69.04358,-22.384644
1770517732183,-0.9370117,-0.3305664,-0.123046875,1.4038086,-4.5776367,1.159668,0.0,0.0,0.0,-113.05481,69.04358,-22.384644
1770517732260,-0.94628906,-0.3334961,-0.12939453,2.6855469,-14.343262,3.8452148,12374.0,2430.0,1331.0,-113.05481,69.04358,-22.384644
1770517732271,-0.94628906,-0.3334961,-0.12939453,2.6855469,-14.343262,3.8452148,12374.0,2430.0,1331.0,-110.05554,69.730225,-19.676514
1770517732283,-0.94628906,-0.3334961,-0.12939453,2.6855469,-14.343262,3.8452148,0.0,0.0,0.0,-110.05554,69.730225,-19.676514
1770517732359,-0.9399414,-0.32470703,-0.09033203,-0.12207031,-3.479004,1.5258789,12281.0,2455.0,1318.0,-110.05554,69.730225,-19.676514
1770517732371,-0.9399414,-0.32470703,-0.09033203,-0.12207031,-3.479004,1.5258789,12281.0,2455.0,1318.0,-108.12744,70.21362,-17.671509
1770517732383,-0.9399414,-0.32470703,-0.09033203,-0.12207031,-3.479004,1.5258789,0.0,0.0,0.0,-108.12744,70.21362,-17.671509
1770517732459,-0.9506836,-0.328125,-0.09765625,0.30517578,-3.8452148,1.5869141,12231.0,2424.0,1222.0,-108.12744,70.21362,-17.671509
1770517732471,-0.9506836,-0.328125,-0.09765625,0.30517578,-3.8452148,1.5869141,12231.0,2424.0,1222.0,-107.62207,70.30151,-17.29248
1770517732484,-0.9506836,-0.328125,-0.09765625,0.30517578,-3.8452148,1.5869141,0.0,0.0,0.0,-107.62207,70.30151,-17.29248
1770517732559,-0.94189453,-0.32080078,-0.084472656,-0.36621094,-0.12207031,0.36621094,12252.0,2402.0,1121.0,-107.62207,70.30151,-17.29248
1770517732570,-0.94189453,-0.32080078,-0.084472656,-0.36621094,-0.12207031,0.36621094,12252.0,2402.0,1121.0,-107.08374,70.43884,-16.809082
1770517732583,-0.94189453,-0.32080078,-0.084472656,-0.36621094,-0.12207031,0.36621094,0.0,0.0,0.0,-107.08374,70.43884,-16.809082
1770517732658,-0.9433594,-0.3203125,-0.09082031,0.24414062,0.9765625,-0.12207031,12243.0,2400.0,1116.0,-107.08374,70.43884,-16.809082
1770517732670,-0.9433594,-0.3203125,-0.09082031,0.24414062,0.9765625,-0.12207031,12243.0,2400.0,1116.0,-107.01782,70.43884,-16.85852
1770517732681,-0.9433594,-0.3203125,-0.09082031,0.24414062,0.9765625,-0.12207031,0.0,0.0,0.0,-107.01782,70.43884,-16.85852
1770517732758,-0.94189453,-0.31884766,-0.087402344,1.159668,0.5493164,-0.79345703,12267.0,2375.0,1084.0,-107.01782,70.43884,-16.85852
1770517732770,-0.94189453,-0.31884766,-0.087402344,1.159668,0.5493164,-0.79345703,12267.0,2375.0,1084.0,-106.9574,70.3949,-16.99585
1770517732782,-0.94189453,-0.31884766,-0.087402344,1.159668,0.5493164,-0.79345703,0.0,0.0,0.0,-106.9574,70.3949,-16.99585
1770517732858,-0.94433594,-0.328125,-0.08496094,0.24414062,1.159668,-0.4272461,12264.0,2371.0,1048.0,-106.9574,70.3949,-16.99585
1770517732870,-0.94433594,-0.328125,-0.08496094,0.24414062,1.159668,-0.4272461,12264.0,2371.0,1048.0,-106.92444,70.29602,-17.193604
1770517732881,-0.94433594,-0.328125,-0.08496094,0.24414062,1.159668,-0.4272461,0.0,0.0,0.0,-106.92444,70.29602,-17.193604
1770517732958,-0.93310547,-0.32714844,-0.088378906,-3.1738281,0.91552734,0.36621094,12274.0,2377.0,1034.0,-106.92444,70.29602,-17.193604
1770517732969,-0.93310547,-0.32714844,-0.088378906,-3.1738281,0.91552734,0.36621094,12274.0,2377.0,1034.0,-107.14966,70.24109,-17.479248
1770517732980,-0.93310547,-0.32714844,-0.088378906,-3.1738281,0.91552734,0.36621094,0.0,0.0,0.0,-107.14966,70.24109,-17.479248
1770517733057,-0.9453125,-0.3227539,-0.09033203,-3.6621094,-0.4272461,1.4038086,12262.0,2383.0,1047.0,-107.14966,70.24109,-17.479248
1770517733069,-0.9453125,-0.3227539,-0.09033203,-3.6621094,-0.4272461,1.4038086,12262.0,2383.0,1047.0,-107.41333,70.33447,-17.578125
1770517733080,-0.9453125,-0.3227539,-0.09033203,-3.6621094,-0.4272461,1.4038086,0.0,0.0,0.0,-107.41333,70.33447,-17.578125
1770517733157,-0.94628906,-0.32128906,-0.09277344,-2.1972656,-0.61035156,0.8544922,12257.0,2407.0,1116.0,-107.41333,70.33447,-17.578125
1770517733168,-0.94628906,-0.32128906,-0.09277344,-2.1972656,-0.61035156,0.8544922,12257.0,2407.0,1116.0,-107.57263,70.40039,-17.600098
1770517733181,-0.94628906,-0.32128906,-0.09277344,-2.1972656,-0.61035156,0.8544922,0.0,0.0,0.0,-107.57263,70.40039,-17.600098
1770517733257,-0.9453125,-0.3203125,-0.095214844,-0.18310547,-0.5493164,0.5493164,12262.0,2411.0,1091.0,-107.57263,70.40039,-17.600098
1770517733269,-0.9453125,-0.3203125,-0.095214844,-0.18310547,-0.5493164,0.5493164,12262.0,2411.0,1091.0,-107.473755,70.50476,-17.479248
1770517733280,-0.9453125,-0.3203125,-0.095214844,-0.18310547,-0.5493164,0.5493164,0.0,0.0,0.0,-107.473755,70.50476,-17.479248
1770517733356,-0.94628906,-0.31689453,-0.091308594,2.2583008,-0.36621094,0.0,12272.0,2416.0,1123.0,-107.473755,70.50476,-17.479248
1770517733368,-0.94628906,-0.31689453,-0.091308594,2.2583008,-0.36621094,0.0,12272.0,2416.0,1123.0,-107.30347,70.54321,-17.440796
1770517733383,-0.94628906,-0.31689453,-0.091308594,2.2583008,-0.36621094,0.0,0.0,0.0,0.0,-107.30347,70.54321,-17.440796
1770517733456,-0.9423828,-0.3178711,-0.087890625,2.4414062,-1.0375977,0.61035156,12254.0,2415.0,1132.0,-107.30347,70.54321,-17.440796
1770517733468,-0.9423828,-0.3178711,-0.087890625,2.4414062,-1.0375977,0.61035156,12254.0,2415.0,1132.0,-106.89697,70.62012,-17.270508
1770517733488,-0.9423828,-0.3178711,-0.087890625,2.4414062,-1.0375977,0.61035156,0.0,0.0,0.0,-106.89697,70.62012,-17.270508
1770517733556,-0.9477539,-0.32177734,-0.08251953,2.0141602,-1.0986328,0.6713867,12259.0,2399.0,1097.0,-106.89697,70.62012,-17.270508
1770517733567,-0.9477539,-0.32177734,-0.08251953,2.0141602,-1.0986328,0.6713867,12259.0,2399.0,1097.0,-106.413574,70.69702,-17.10022
1770517733579,-0.9477539,-0.32177734,-0.08251953,2.0141602,-1.0986328,0.6713867,0.0,0.0,0.0,-106.413574,70.69702,-17.10022
1770517733656,-0.9423828,-0.31933594,-0.076171875,1.2207031,-1.0986328,0.7324219,12227.0,2408.0,1129.0,-106.413574,70.69702,-17.10022
1770517733667,-0.9423828,-0.31933594,-0.076171875,1.2207031,-1.0986328,0.7324219,12227.0,2408.0,1129.0,-105.86975,70.78491,-16.831055
1770517733679,-0.9423828,-0.31933594,-0.076171875,1.2207031,-1.0986328,0.7324219,0.0,0.0,0.0,-105.86975,70.78491,-16.831055
1770517733756,-0.9482422,-0.31884766,-0.07519531,0.0,-1.159668,0.5493164,12274.0,2371.0,1040.0,-105.86975,70.78491,-16.831055
1770517733767,-0.9482422,-0.31884766,-0.07519531,0.0,-1.159668,0.5493164,12274.0,2371.0,1040.0,-105.45776,70.86731,-16.56189
1770517733779,-0.9482422,-0.31884766,-0.07519531,0.0,-1.159668,0.5493164,0.0,0.0,0.0,-105.45776,70.86731,-16.56189
1770517733855,-0.9477539,-0.3178711,-0.072265625,-0.61035156,-0.79345703,0.18310547,12275.0,2373.0,1028.0,-105.45776,70.86731,-16.56189
1770517733867,-0.9477539,-0.3178711,-0.072265625,-0.61035156,-0.79345703,0.18310547,12275.0,2373.0,1028.0,-105.1062,70.894775,-16.314697
1770517733879,-0.9477539,-0.3178711,-0.072265625,-0.61035156,-0.79345703,0.18310547,0.0,0.0,0.0,-105.1062,70.894775,-16.314697
1770517733955,-0.9477539,-0.31640625,-0.07324219,-1.0986328,-0.48828125,0.24414062,12275.0,2346.0,993.0,-105.1062,70.894775,-16.314697
1770517733966,-0.9477539,-0.31640625,-0.07324219,-1.0986328,-0.48828125,0.24414062,12275.0,2346.0,993.0,-104.886475,70.93323,-16.12793
1770517733978,-0.9477539,-0.31640625,-0.07324219,-1.0986328,-0.48828125,0.24414062,0.0,0.0,0.0,-104.886475,70.93323,-16.12793
1770517734055,-0.9482422,-0.31396484,-0.072753906,-0.36621094,0.0,0.30517578,12260.0,2360.0,1014.0,-104.886475,70.93323,-16.12793
1770517734066,-0.9482422,-0.31396484,-0.072753906,-0.36621094,0.0,0.30517578,12260.0,2360.0,1014.0,-104.79309,70.96069,-16.09497
1770517734078,-0.9482422,-0.31396484,-0.072753906,-0.36621094,0.0,0.30517578,0.0,0.0,0.0,-104.79309,70.96069,-16.09497
1770517734154,-0.9472656,-0.3154297,-0.07080078,0.48828125,0.0,0.24414062,12265.0,2368.0,1028.0,-104.79309,70.96069,-16.09497
1770517734166,-0.9472656,-0.3154297,-0.07080078,0.48828125,0.0,0.24414062,12265.0,2368.0,1028.0,-104.65576,70.99365,-16.105957
1770517734177,-0.9472656,-0.3154297,-0.07080078,0.48828125,0.0,0.24414062,0.0,0.0,0.0,-104.65576,70.99365,-16.105957
1770517734254,-0.9482422,-0.31591797,-0.071777344,0.7324219,0.061035156,0.36621094,12258.0,2370.0,1007.0,-104.65576,70.99365,-16.105957
1770517734265,-0.9482422,-0.31591797,-0.071777344,0.7324219,0.061035156,0.36621094,12258.0,2370.0,1007.0,-104.51294,71.02112,-16.155396
1770517734288,-0.9482422,-0.31591797,-0.071777344,0.7324219,0.061035156,0.36621094,0.0,0.0,0.0,-104.51294,71.02112,-16.155396
1770517734354,-0.9501953,-0.31396484,-0.068847656,0.48828125,0.7324219,-0.061035156,12279.0,2348.0,970.0,-104.51294,71.02112,-16.155396
1770517734365,-0.9501953,-0.31396484,-0.068847656,0.48828125,0.7324219,-0.061035156,12279.0,2348.0,970.0,-104.44702,71.015625,-16.325684
1770517734382,-0.9501953,-0.31396484,-0.068847656,0.48828125,0.7324219,-0.061035156,0.0,0.0,0.0,-104.44702,71.015625,-16.325684
1770517734453,-0.9472656,-0.31640625,-0.072753906,0.48828125,0.79345703,0.0,12278.0,2354.0,961.0,-104.44702,71.015625,-16.325684
1770517734465,-0.9472656,-0.31640625,-0.072753906,0.48828125,0.79345703,0.0,12278.0,2354.0,961.0,-104.39758,71.015625,-16.490479
1770517734476,-0.9472656,-0.31640625,-0.072753906,0.48828125,0.79345703,0.0,0.0,0.0,0.0,-104.39758,71.015625,-16.490479
1770517734553,-0.9472656,-0.31640625,-0.068847656,-0.24414062,0.79345703,0.12207031,12290.0,2349.0,939.0,-104.39758,71.015625,-16.490479
1770517734565,-0.9472656,-0.31640625,-0.068847656,-0.24414062,0.79345703,0.12207031,12290.0,2349.0,939.0,-104.468994,70.999146,-16.721191
1770517734576,-0.9472656,-0.31640625,-0.068847656,-0.24414062,0.79345703,0.12207031,0.0,0.0,0.0,-104.468994,70.999146,-16.721191
1770517734653,-0.9477539,-0.3149414,-0.06738281,-0.8544922,1.2207031,-0.18310547,12287.0,2330.0,957.0,-104.468994,70.999146,-16.721191
1770517734664,-0.9477539,-0.3149414,-0.06738281,-0.8544922,1.2207031,-0.18310547,12287.0,2330.0,957.0,-104.61182,70.97168,-17.001343
1770517734676,-0.9477539,-0.3149414,-0.06738281,-0.8544922,1.2207031,-0.18310547,0.0,0.0,0.0,-104.61182,70.97168,-17.001343
1770517734752,-0.9433594,-0.3149414,-0.068847656,-0.7324219,2.0751953,-0.79345703,12298.0,2334.0,956.0,-104.61182,70.97168,-17.001343
1770517734764,-0.9433594,-0.3149414,-0.068847656,-0.7324219,2.0751953,-0.79345703,12298.0,2334.0,956.0,-104.89746,70.911255,-17.374878
1770517734775,-0.9433594,-0.3149414,-0.068847656,-0.7324219,2.0751953,-0.79345703,0.0,0.0,0.0,-104.89746,70.911255,-17.374878
1770517734852,-0.9482422,-0.31396484,-0.07128906,-1.0986328,0.79345703,0.0,12310.0,2350.0,969.0,-104.89746,70.911255,-17.374878
1770517734864,-0.9482422,-0.31396484,-0.07128906,-1.0986328,0.79345703,0.0,12310.0,2350.0,969.0,-105.216064,70.83435,-17.803345
1770517734876,-0.9482422,-0.31396484,-0.07128906,-1.0986328,0.79345703,0.0,0.0,0.0,0.0,-105.216064,70.83435,-17.803345
1770517734952,-0.94970703,-0.31689453,-0.076171875,-0.48828125,0.6713867,-0.061035156,12312.0,2339.0,959.0,-105.216064,70.83435,-17.803345
1770517734963,-0.94970703,-0.31689453,-0.076171875,-0.48828125,0.6713867,-0.061035156,12312.0,2339.0,959.0,-105.28198,70.823364,-17.979126
1770517734975,-0.94970703,-0.31689453,-0.076171875,-0.48828125,0.6713867,-0.061035156,0.0,0.0,0.0,-105.28198,70.823364,-17.979126
1770517735051,-0.94628906,-0.3178711,-0.076171875,-0.24414062,1.2817383,0.0,12340.0,2364.0,977.0,-105.28198,70.823364,-17.979126
1770517735063,-0.94628906,-0.3178711,-0.076171875,-0.24414062,1.2817383,0.0,12340.0,2364.0,977.0,-105.45776,70.790405,-18.286743
1770517735074,-0.94628906,-0.3178711,-0.076171875,-0.24414062,1.2817383,0.0,0.0,0.0,0.0,-105.45776,70.790405,-18.286743
1770517735151,-0.9453125,-0.3178711,-0.079589844,-0.12207031,1.5869141,-0.36621094,12292.0,2372.0,1020.0,-105.45776,70.790405,-18.286743
1770517735163,-0.9453125,-0.3178711,-0.079589844,-0.12207031,1.5869141,-0.36621094,12292.0,2372.0,1020.0,-105.704956,70.73547,-18.682251
1770517735174,-0.9453125,-0.3178711,-0.079589844,-0.12207031,1.5869141,-0.36621094,0.0,0.0,0.0,-105.704956,70.73547,-18.682251
1770517735251,-0.94384766,-0.31884766,-0.078125,-0.91552734,1.7089844,0.0,12277.0,2391.0,1031.0,-105.704956,70.73547,-18.682251
1770517735263,-0.94384766,-0.31884766,-0.078125,-0.91552734,1.7089844,0.0,12277.0,2391.0,1031.0,-106.01257,70.67505,-19.127197
1770517735275,-0.94384766,-0.31884766,-0.078125,-0.91552734,1.7089844,0.0,0.0,0.0,0.0,-106.01257,70.67505,-19.127197
1770517735351,-0.9458008,-0.32128906,-0.08496094,-1.2817383,-0.12207031,0.5493164,12279.0,2392.0,1054.0,-106.01257,70.67505,-19.127197
1770517735362,-0.9458008,-0.32128906,-0.08496094,-1.2817383,-0.12207031,0.5493164,12279.0,2392.0,1054.0,-106.11694,70.64758,-19.37439
1770517735374,-0.9458008,-0.32128906,-0.08496094,-1.2817383,-0.12207031,0.5493164,0.0,0.0,0.0,-106.11694,70.64758,-19.37439
1770517735450,-0.94433594,-0.32128906,-0.083496094,-0.61035156,1.6479492,-0.36621094,12300.0,2409.0,1063.0,-106.11694,70.64758,-19.37439
1770517735462,-0.94433594,-0.32128906,-0.083496094,-0.61035156,1.6479492,-0.36621094,12300.0,2409.0,1063.0,-106.32019,70.60913,-19.621582
1770517735474,-0.94433594,-0.32128906,-0.083496094,-0.61035156,1.6479492,-0.36621094,0.0,0.0,0.0,-106.32019,70.60913,-19.621582
1770517735550,-0.9433594,-0.32080078,-0.09277344,-0.7324219,2.5024414,-1.0375977,12323.0,2387.0,1052.0,-106.32019,70.60913,-19.621582
1770517735562,-0.9433594,-0.32080078,-0.09277344,-0.7324219,2.5024414,-1.0375977,12323.0,2387.0,1052.0,-106.589355,70.49927,-20.011597
1770517735573,-0.9433594,-0.32080078,-0.09277344,-0.7324219,2.5024414,-1.0375977,0.0,0.0,0.0,-106.589355,70.49927,-20.011597
1770517735650,-0.9453125,-0.32080078,-0.08886719,-0.7324219,0.8544922,-0.91552734,12345.0,2395.0,1031.0,-106.589355,70.49927,-20.011597
1770517735661,-0.9453125,-0.32080078,-0.08886719,-0.7324219,0.8544922,-0.91552734,12345.0,2395.0,1031.0,-107.05078,70.31799,-20.533447
1770517735677,-0.9453125,-0.32080078,-0.08886719,-0.7324219,0.8544922,-0.91552734,0.0,0.0,0.0,-107.05078,70.31799,-20.533447
1770517735750,-0.94433594,-0.33007812,-0.09472656,0.12207031,1.4648438,-1.2207031,12335.0,2381.0,1048.0,-107.05078,70.31799,-20.533447
1770517735761,-0.94433594,-0.33007812,-0.09472656,0.12207031,1.4648438,-1.2207031,12335.0,2381.0,1048.0,-107.17163,70.17517,-20.775146
1770517735776,-0.94433594,-0.33007812,-0.09472656,0.12207031,1.4648438,-1.2207031,0.0,0.0,0.0,-107.17163,70.17517,-20.775146
1770517735849,-0.9379883,-0.3256836,-0.09472656,-0.8544922,0.061035156,-0.30517578,12343.0,2398.0,1041.0,-107.17163,70.17517,-20.775146
1770517735861,-0.9379883,-0.3256836,-0.09472656,-0.8544922,0.061035156,-0.30517578,12343.0,2398.0,1041.0,-107.22107,70.076294,-20.88501
1770517735873,-0.9379883,-0.3256836,-0.09472656,-0.8544922,0.061035156,-0.30517578,0.0,0.0,0.0,-107.22107,70.076294,-20.88501
1770517735949,-0.9394531,-0.32763672,-0.09375,-0.79345703,0.12207031,0.0,12327.0,2412.0,1083.0,-107.22107,70.076294,-20.88501
1770517735960,-0.9394531,-0.32763672,-0.09375,-0.79345703,0.12207031,0.0,12327.0,2412.0,1083.0,-107.23755,70.04883,-20.912476
1770517735972,-0.9394531,-0.32763672,-0.09375,-0.79345703,0.12207031,0.0,0.0,0.0,0.0,-107.23755,70.04883,-20.912476
1770517736049,-0.94384766,-0.32861328,-0.096191406,-0.6713867,0.48828125,0.0,12344.0,2400.0,1078.0,-107.23755,70.04883,-20.912476
1770517736060,-0.94384766,-0.32861328,-0.096191406,-0.6713867,0.48828125,0.0,12344.0,2400.0,1078.0,-107.232056,70.04883,-20.950928
1770517736073,-0.94384766,-0.32861328,-0.096191406,-0.6713867,0.48828125,0.0,0.0,0.0,0.0,-107.232056,70.04883,-20.950928
1770517736148,-0.94091797,-0.32470703,-0.09472656,0.061035156,0.91552734,-0.18310547,12353.0,2411.0,1057.0,-107.232056,70.04883,-20.950928
1770517736160,-0.94091797,-0.32470703,-0.09472656,0.061035156,0.91552734,-0.18310547,12353.0,2411.0,1057.0,-107.38037,69.99939,-21.165161
1770517736172,-0.94091797,-0.32470703,-0.09472656,0.061035156,0.91552734,-0.18310547,0.0,0.0,0.0,-107.38037,69.99939,-21.165161
1770517736248,-0.9428711,-0.328125,-0.09375,-0.36621094,1.2817383,-0.4272461,12356.0,2420.0,1056.0,-107.38037,69.99939,-21.165161
1770517736260,-0.9428711,-0.328125,-0.09375,-0.36621094,1.2817383,-0.4272461,12356.0,2420.0,1056.0,-107.6001,69.88953,-21.533203
1770517736271,-0.9428711,-0.328125,-0.09375,-0.36621094,1.2817383,-0.4272461,0.0,0.0,0.0,-107.6001,69.88953,-21.533203
1770517736348,-0.94091797,-0.3310547,-0.099609375,0.36621094,1.0986328,-0.30517578,12360.0,2426.0,1078.0,-107.6001,69.88953,-21.533203
1770517736359,-0.94091797,-0.3310547,-0.099609375,0.36621094,1.0986328,-0.30517578,12360.0,2426.0,1078.0,-107.65503,69.84558,-21.741943
1770517736381,-0.94091797,-0.3310547,-0.099609375,0.36621094,1.0986328,-0.30517578,0.0,0.0,0.0,-107.65503,69.84558,-21.741943
1770517736447,-0.9399414,-0.3330078,-0.096191406,0.18310547,0.24414062,0.0,12343.0,2417.0,1094.0,-107.65503,69.84558,-21.741943
1770517736459,-0.9399414,-0.3330078,-0.096191406,0.18310547,0.24414062,0.0,12343.0,2417.0,1094.0,-107.61658,69.801636,-21.87378
1770517736472,-0.9399414,-0.3330078,-0.096191406,0.18310547,0.24414062,0.0,0.0,0.0,0.0,-107.61658,69.801636,-21.87378
1770517736547,-0.94189453,-0.33398438,-0.09814453,-0.91552734,0.30517578,0.12207031,12345.0,2431.0,1055.0,-107.61658,69.801636,-21.87378
1770517736559,-0.94189453,-0.33398438,-0.09814453,-0.91552734,0.30517578,0.12207031,12345.0,2431.0,1055.0,-107.611084,69.77966,-21.967163
1770517736570,-0.94189453,-0.33398438,-0.09814453,-0.91552734,0.30517578,0.12207031,0.0,0.0,0.0,-107.611084,69.77966,-21.967163
1770517736647,-0.9404297,-0.33447266,-0.10546875,0.36621094,3.3569336,-0.6713867,12318.0,2466.0,1126.0,-107.611084,69.77966,-21.967163
1770517736659,-0.9404297,-0.33447266,-0.10546875,0.36621094,3.3569336,-0.6713867,12318.0,2466.0,1126.0,-107.995605,69.680786,-22.439575
1770517736671,-0.9404297,-0.33447266,-0.10546875,0.36621094,3.3569336,-0.6713867,0.0,0.0,0.0,-107.995605,69.680786,-22.439575
1770517736747,-0.9370117,-0.33447266,-0.115234375,1.2817383,4.1503906,-0.61035156,12377.0,2440.0,1070.0,-107.995605,69.680786,-22.439575
1770517736758,-0.9370117,-0.33447266,-0.115234375,1.2817383,4.1503906,-0.61035156,12377.0,2440.0,1070.0,-108.60535,69.51599,-23.302002
1770517736770,-0.9370117,-0.33447266,-0.115234375,1.2817383,4.1503906,-0.61035156,0.0,0.0,0.0,-108.60535,69.51599,-23.302002
1770517736847,-0.9345703,-0.33935547,-0.119140625,-0.18310547,6.225586,-0.7324219,12390.0,2434.0,1066.0,-108.60535,69.51599,-23.302002
1770517736858,-0.9345703,-0.33935547,-0.119140625,-0.18310547,6.225586,-0.7324219,12390.0,2434.0,1066.0,-109.72595,69.28528,-24.63684
1770517736870,-0.9345703,-0.33935547,-0.119140625,-0.18310547,6.225586,-0.7324219,0.0,0.0,0.0,-109.72595,69.28528,-24.63684
1770517736946,-0.93310547,-0.3383789,-0.12451172,0.8544922,6.225586,-0.91552734,12421.0,2427.0,1107.0,-109.72595,69.28528,-24.63684
1770517736958,-0.93310547,-0.3383789,-0.12451172,0.8544922,6.225586,-0.91552734,12421.0,2427.0,1107.0,-111.09375,68.97766,-26.224365
1770517736969,-0.93310547,-0.3383789,-0.12451172,0.8544922,6.225586,-0.91552734,0.0,0.0,0.0,-111.09375,68.97766,-26.224365
1770517737046,-0.9291992,-0.33496094,-0.12402344,0.36621094,4.1503906,-0.12207031,12447.0,2458.0,1167.0,-111.09375,68.97766,-26.224365
1770517737057,-0.9291992,-0.33496094,-0.12402344,0.36621094,4.1503906,-0.12207031,12447.0,2458.0,1167.0,-111.98364,68.75244,-27.443848
1770517737071,-0.9291992,-0.33496094,-0.12402344,0.36621094,4.1503906,-0.12207031,0.0,0.0,0.0,-111.98364,68.75244,-27.443848
1770517737146,-0.9370117,-0.33984375,-0.13134766,0.36621094,2.746582,-0.061035156,12452.0,2498.0,1209.0,-111.98364,68.75244,-27.443848
1770517737157,-0.9370117,-0.33984375,-0.13134766,0.36621094,2.746582,-0.061035156,12452.0,2498.0,1209.0,-112.5824,68.53821,-28.449097
1770517737171,-0.9370117,-0.33984375,-0.13134766,0.36621094,2.746582,-0.061035156,0.0,0.0,0.0,-112.5824,68.53821,-28.449097
1770517737245,-0.93603516,-0.3461914,-0.13232422,1.3427734,2.1972656,-0.12207031,12524.0,2482.0,1165.0,-112.5824,68.53821,-28.449097
1770517737257,-0.93603516,-0.3461914,-0.13232422,1.3427734,2.1972656,-0.12207031,12524.0,2482.0,1165.0,-113.00537,68.40637,-29.20166
1770517737269,-0.93603516,-0.3461914,-0.13232422,1.3427734,2.1972656,-0.12207031,0.0,0.0,0.0,-113.00537,68.40637,-29.20166
1770517737345,-0.9267578,-0.33984375,-0.13232422,0.4272461,0.9765625,0.48828125,12520.0,2482.0,1182.0,-113.00537,68.40637,-29.20166
1770517737356,-0.9267578,-0.33984375,-0.13232422,0.4272461,0.9765625,0.48828125,12520.0,2482.0,1182.0,-113.15369,68.35693,-29.61914
1770517737369,-0.9267578,-0.33984375,-0.13232422,0.4272461,0.9765625,0.48828125,0.0,0.0,0.0,-113.15369,68.35693,-29.61914
1770517737445,-0.92822266,-0.33935547,-0.13378906,-0.8544922,0.5493164,0.6713867,12545.0,2489.0,1196.0,-113.15369,68.35693,-29.61914
1770517737456,-0.92822266,-0.33935547,-0.13378906,-0.8544922,0.5493164,0.6713867,12545.0,2489.0,1196.0,-113.31848,68.34595,-29.954224
1770517737468,-0.92822266,-0.33935547,-0.13378906,-0.8544922,0.5493164,0.6713867,0.0,0.0,0.0,-113.31848,68.34595,-29.954224
1770517737544,-0.93066406,-0.34179688,-0.13671875,-0.36621094,0.061035156,0.48828125,12553.0,2495.0,1213.0,-113.31848,68.34595,-29.954224
1770517737556,-0.93066406,-0.34179688,-0.13671875,-0.36621094,0.061035156,0.48828125,12553.0,2495.0,1213.0,-113.34595,68.36792,-30.135498
1770517737567,-0.93066406,-0.34179688,-0.13671875,-0.36621094,0.061035156,0.48828125,0.0,0.0,0.0,-113.34595,68.36792,-30.135498
1770517737644,-0.9321289,-0.33984375,-0.13916016,-0.61035156,0.6713867,0.48828125,12565.0,2481.0,1169.0,-113.34595,68.36792,-30.135498
1770517737656,-0.9321289,-0.33984375,-0.13916016,-0.61035156,0.6713867,0.48828125,12565.0,2481.0,1169.0,-113.40637,68.395386,-30.26184
1770517737668,-0.9321289,-0.33984375,-0.13916016,-0.61035156,0.6713867,0.48828125,0.0,0.0,0.0,-113.40637,68.395386,-30.26184
1770517737744,-0.9316406,-0.34033203,-0.140625,0.12207031,0.36621094,0.30517578,12577.0,2504.0,1163.0,-113.40637,68.395386,-30.26184
1770517737755,-0.9316406,-0.34033203,-0.140625,0.12207031,0.36621094,0.30517578,12577.0,2504.0,1163.0,-113.49426,68.395386,-30.470581
1770517737767,-0.9316406,-0.34033203,-0.140625,0.12207031,0.36621094,0.30517578,0.0,0.0,0.0,-113.49426,68.395386,-30.470581
1770517737844,-0.9301758,-0.33984375,-0.1352539,-0.061035156,-0.5493164,0.48828125,12582.0,2515.0,1161.0,-113.49426,68.395386,-30.470581
1770517737855,-0.9301758,-0.33984375,-0.1352539,-0.061035156,-0.5493164,0.48828125,12582.0,2515.0,1161.0,-113.395386,68.41736,-30.481567
1770517737866,-0.9301758,-0.33984375,-0.1352539,-0.061035156,-0.5493164,0.48828125,0.0,0.0,0.0,-113.395386,68.41736,-30.481567
1770517737943,-0.9316406,-0.33740234,-0.13671875,0.18310547,-1.4038086,0.6713867,12577.0,2517.0,1163.0,-113.395386,68.41736,-30.481567
1770517737955,-0.9316406,-0.33740234,-0.13671875,0.18310547,-1.4038086,0.6713867,12577.0,2517.0,1163.0,-112.977905,68.52722,-30.19043
1770517737966,-0.9316406,-0.33740234,-0.13671875,0.18310547,-1.4038086,0.6713867,0.0,0.0,0.0,-112.977905,68.52722,-30.19043
1770517738043,-0.92871094,-0.34277344,-0.13867188,0.30517578,0.18310547,0.24414062,12551.0,2509.0,1200.0,-112.977905,68.52722,-30.19043
1770517738054,-0.92871094,-0.34277344,-0.13867188,0.30517578,0.18310547,0.24414062,12551.0,2509.0,1200.0,-112.840576,68.61511,-30.091553
1770517738075,-0.92871094,-0.34277344,-0.13867188,0.30517578,0.18310547,0.24414062,0.0,0.0,0.0,-112.840576,68.61511,-30.091553
1770517738143,-0.93310547,-0.3359375,-0.13769531,-1.4648438,-0.4272461,0.91552734,12536.0,2488.0,1171.0,-112.840576,68.61511,-30.091553
1770517738155,-0.93310547,-0.3359375,-0.13769531,-1.4648438,-0.4272461,0.91552734,12536.0,2488.0,1171.0,-112.8186,68.71948,-30.025635
1770517738165,-0.93310547,-0.3359375,-0.13769531,-1.4648438,-0.4272461,0.91552734,0.0,0.0,0.0,-112.8186,68.71948,-30.025635
1770517738242,-0.9350586,-0.3359375,-0.13330078,-1.7700195,0.061035156,0.5493164,12553.0,2497.0,1167.0,-112.8186,68.71948,-30.025635
1770517738255,-0.9350586,-0.3359375,-0.13330078,-1.7700195,0.061035156,0.5493164,12553.0,2497.0,1167.0,-112.98889,68.757935,-30.119019
1770517738266,-0.9350586,-0.3359375,-0.13330078,-1.7700195,0.061035156,0.5493164,0.0,0.0,0.0,-112.98889,68.757935,-30.119019
1770517738342,-0.9316406,-0.33544922,-0.13378906,-0.8544922,-0.30517578,0.18310547,12570.0,2510.0,1140.0,-112.98889,68.757935,-30.119019
1770517738354,-0.9316406,-0.33544922,-0.13378906,-0.8544922,-0.30517578,0.18310547,12570.0,2510.0,1140.0,-112.92297,68.79089,-30.06958
1770517738366,-0.9316406,-0.33544922,-0.13378906,-0.8544922,-0.30517578,0.18310547,0.0,0.0,0.0,-112.92297,68.79089,-30.06958
1770517738442,-0.93310547,-0.3330078,-0.13232422,-0.24414062,-1.0375977,0.48828125,12572.0,2506.0,1141.0,-112.92297,68.79089,-30.06958
1770517738453,-0.93310547,-0.3330078,-0.13232422,-0.24414062,-1.0375977,0.48828125,12572.0,2506.0,1141.0,-112.67578,68.85132,-29.87732
1770517738465,-0.93310547,-0.3330078,-0.13232422,-0.24414062,-1.0375977,0.48828125,0.0,0.0,0.0,-112.67578,68.85132,-29.87732
1770517738541,-0.93652344,-0.33496094,-0.12939453,0.12207031,-0.79345703,0.4272461,12574.0,2503.0,1130.0,-112.67578,68.85132,-29.87732
1770517738553,-0.93652344,-0.33496094,-0.12939453,0.12207031,-0.79345703,0.4272461,12574.0,2503.0,1130.0,-112.423096,68.88977,-29.734497
1770517738565,-0.93652344,-0.33496094,-0.12939453,0.12207031,-0.79345703,0.4272461,0.0,0.0,0.0,-112.423096,68.88977,-29.734497
1770517738641,-0.9355469,-0.33251953,-0.1274414,0.12207031,-0.8544922,0.6713867,12556.0,2514.0,1136.0,-112.423096,68.88977,-29.734497
1770517738653,-0.9355469,-0.33251953,-0.1274414,0.12207031,-0.8544922,0.6713867,12556.0,2514.0,1136.0,-112.159424,68.98865,-29.553223
1770517738674,-0.9355469,-0.33251953,-0.1274414,0.12207031,-0.8544922,0.6713867,0.0,0.0,0.0,-112.159424,68.98865,-29.553223
1770517738741,-0.93603516,-0.3305664,-0.122558594,0.30517578,-0.30517578,0.7324219,12548.0,2504.0,1129.0,-112.159424,68.98865,-29.553223
1770517738752,-0.93603516,-0.3305664,-0.122558594,0.30517578,-0.30517578,0.7324219,12548.0,2504.0,1129.0,-112.04956,69.054565,-29.54773
1770517738764,-0.93603516,-0.3305664,-0.122558594,0.30517578,-0.30517578,0.7324219,0.0,0.0,0.0,-112.04956,69.054565,-29.54773
1770517738841,-0.9375,-0.33007812,-0.123046875,0.79345703,-0.061035156,0.6713867,12537.0,2501.0,1120.0,-112.04956,69.054565,-29.54773
1770517738852,-0.9375,-0.33007812,-0.123046875,0.79345703,-0.061035156,0.6713867,12537.0,2501.0,1120.0,-111.813354,69.142456,-29.492798
1770517738864,-0.9375,-0.33007812,-0.123046875,0.79345703,-0.061035156,0.6713867,0.0,0.0,0.0,-111.813354,69.142456,-29.492798
1770517738940,-0.9379883,-0.32714844,-0.1171875,0.48828125,0.30517578,0.8544922,12538.0,2493.0,1100.0,-111.813354,69.142456,-29.492798
1770517738952,-0.9379883,-0.32714844,-0.1171875,0.48828125,0.30517578,0.8544922,12538.0,2493.0,1100.0,-111.73096,69.20288,-29.608154
1770517738963,-0.9379883,-0.32714844,-0.1171875,0.48828125,0.30517578,0.8544922,0.0,0.0,0.0,-111.73096,69.20288,-29.608154
1770517739040,-0.93847656,-0.32714844,-0.11669922,1.0375977,-0.48828125,1.2207031,12545.0,2474.0,1103.0,-111.73096,69.20288,-29.608154
1770517739052,-0.93847656,-0.32714844,-0.11669922,1.0375977,-0.48828125,1.2207031,12545.0,2474.0,1103.0,-111.54419,69.279785,-29.663086
1770517739063,-0.93847656,-0.32714844,-0.11669922,1.0375977,-0.48828125,1.2207031,0.0,0.0,0.0,-111.54419,69.279785,-29.663086
1770517739140,-0.9404297,-0.33154297,-0.11621094,1.159668,-0.36621094,0.6713867,12543.0,2485.0,1088.0,-111.54419,69.279785,-29.663086
1770517739151,-0.9404297,-0.33154297,-0.11621094,1.159668,-0.36621094,0.6713867,12543.0,2485.0,1088.0,-111.258545,69.37317,-29.646606
1770517739163,-0.9404297,-0.33154297,-0.11621094,1.159668,-0.36621094,0.6713867,0.0,0.0,0.0,-111.258545,69.37317,-29.646606
1770517739239,-0.9370117,-0.32958984,-0.115234375,0.48828125,-0.30517578,0.36621094,12547.0,2472.0,1052.0,-111.258545,69.37317,-29.646606
1770517739251,-0.9370117,-0.32958984,-0.115234375,0.48828125,-0.30517578,0.36621094,12547.0,2472.0,1052.0,-110.99487,69.4281,-29.580688
1770517739262,-0.9370117,-0.32958984,-0.115234375,0.48828125,-0.30517578,0.36621094,0.0,0.0,0.0,-110.99487,69.4281,-29.580688
1770517739339,-0.9394531,-0.33007812,-0.11425781,-0.7324219,0.12207031,0.30517578,12576.0,2445.0,1018.0,-110.99487,69.4281,-29.580688
1770517739351,-0.9394531,-0.33007812,-0.11425781,-0.7324219,0.12207031,0.30517578,12576.0,2445.0,1018.0,-110.945435,69.43359,-29.630127
1770517739362,-0.9394531,-0.33007812,-0.11425781,-0.7324219,0.12207031,0.30517578,0.0,0.0,0.0,-110.945435,69.43359,-29.630127
1770517739439,-0.9404297,-0.32958984,-0.115234375,-0.12207031,0.24414062,0.0,12553.0,2457.0,1033.0,-110.945435,69.43359,-29.630127
1770517739450,-0.9404297,-0.32958984,-0.115234375,-0.12207031,0.24414062,0.0,12553.0,2457.0,1033.0,-110.90149,69.4281,-29.690552
1770517739462,-0.9404297,-0.32958984,-0.115234375,-0.12207031,0.24414062,0.0,0.0,0.0,0.0,-110.90149,69.4281,-29.690552
1770517739539,-0.9370117,-0.32763672,-0.11425781,-0.36621094,0.30517578,0.36621094,12557.0,2445.0,1032.0,-110.90149,69.4281,-29.690552
1770517739550,-0.9370117,-0.32763672,-0.11425781,-0.36621094,0.30517578,0.36621094,12557.0,2445.0,1032.0,-110.90149,69.43909,-29.789429
1770517739561,-0.9370117,-0.32763672,-0.11425781,-0.36621094,0.30517578,0.36621094,0.0,0.0,0.0,-110.90149,69.43909,-29.789429
1770517739638,-0.9394531,-0.33154297,-0.115234375,-0.8544922,0.4272461,0.4272461,12562.0,2459.0,1022.0,-110.90149,69.43909,-29.789429
1770517739650,-0.9394531,-0.33154297,-0.115234375,-0.8544922,0.4272461,0.4272461,12562.0,2459.0,1022.0,-111.01135,69.45557,-29.96521
1770517739662,-0.9394531,-0.33154297,-0.115234375,-0.8544922,0.4272461,0.4272461,0.0,0.0,0.0,-111.01135,69.45557,-29.96521
1770517739738,-0.94140625,-0.32958984,-0.123535156,-1.5869141,1.0375977,1.0375977,12562.0,2463.0,1016.0,-111.01135,69.45557,-29.96521
1770517739749,-0.94140625,-0.32958984,-0.123535156,-1.5869141,1.0375977,1.0375977,12562.0,2463.0,1016.0,-111.18164,69.505005,-30.15747
1770517739761,-0.94140625,-0.32958984,-0.123535156,-1.5869141,1.0375977,1.0375977,0.0,0.0,0.0,-111.18164,69.505005,-30.15747
1770517739838,-0.9448242,-0.32470703,-0.12695312,-1.2207031,2.8076172,0.61035156,12547.0,2483.0,1055.0,-111.18164,69.505005,-30.15747
1770517739849,-0.9448242,-0.32470703,-0.12695312,-1.2207031,2.8076172,0.61035156,12547.0,2483.0,1055.0,-112.022095,69.45007,-30.970459
1770517739862,-0.9448242,-0.32470703,-0.12695312,-1.2207031,2.8076172,0.61035156,0.0,0.0,0.0,-112.022095,69.45007,-30.970459
1770517739937,-0.9458008,-0.32373047,-0.1274414,2.1362305,4.211426,-1.4038086,12559.0,2473.0,1093.0,-112.022095,69.45007,-30.970459
1770517739949,-0.9458008,-0.32373047,-0.1274414,2.1362305,4.211426,-1.4038086,12559.0,2473.0,1093.0,-112.77466,69.25781,-31.937256
1770517739960,-0.9458008,-0.32373047,-0.1274414,2.1362305,4.211426,-1.4038086,0.0,0.0,0.0,-112.77466,69.25781,-31.937256
1770517740038,-0.9321289,-0.3305664,-0.12890625,3.7841797,4.5166016,-1.4648438,12599.0,2478.0,1097.0,-112.77466,69.25781,-31.937256
1770517740049,-0.9321289,-0.3305664,-0.12890625,3.7841797,4.5166016,-1.4648438,12599.0,2478.0,1097.0,-113.15369,69.01611,-32.799683
1770517740060,-0.9321289,-0.3305664,-0.12890625,3.7841797,4.5166016,-1.4648438,0.0,0.0,0.0,-113.15369,69.01611,-32.799683
1770517740137,-0.93408203,-0.33203125,-0.13427734,2.1362305,3.7841797,-0.4272461,12622.0,2467.0,1089.0,-113.15369,69.01611,-32.799683
1770517740148,-0.93408203,-0.33203125,-0.13427734,2.1362305,3.7841797,-0.4272461,12622.0,2467.0,1089.0,-113.549194,68.7854,-33.684082
1770517740169,-0.93408203,-0.33203125,-0.13427734,2.1362305,3.7841797,-0.4272461,0.0,0.0,0.0,-113.549194,68.7854,-33.684082
1770517740236,-0.9345703,-0.33398438,-0.13476562,-0.30517578,3.7231445,-0.061035156,12629.0,2464.0,1119.0,-113.549194,68.7854,-33.684082
1770517740248,-0.9345703,-0.33398438,-0.13476562,-0.30517578,3.7231445,-0.061035156,12629.0,2464.0,1119.0,-114.246826,68.59863,-34.711304
1770517740261,-0.9345703,-0.33398438,-0.13476562,-0.30517578,3.7231445,-0.061035156,0.0,0.0,0.0,-114.246826,68.59863,-34.711304
1770517740336,-0.9321289,-0.33642578,-0.14208984,-0.5493164,2.6245117,0.12207031,12658.0,2447.0,1107.0,-114.246826,68.59863,-34.711304
1770517740348,-0.9321289,-0.33642578,-0.14208984,-0.5493164,2.6245117,0.12207031,12658.0,2447.0,1107.0,-114.818115,68.48877,-35.474854
1770517740368,-0.9321289,-0.33642578,-0.14208984,-0.5493164,2.6245117,0.12207031,0.0,0.0,0.0,-114.818115,68.48877,-35.474854
1770517740436,-0.93310547,-0.33447266,-0.14111328,-1.5869141,1.2207031,-0.061035156,12674.0,2460.0,1145.0,-114.818115,68.48877,-35.474854
1770517740447,-0.93310547,-0.33447266,-0.14111328,-1.5869141,1.2207031,-0.061035156,12674.0,2460.0,1145.0,-115.252075,68.40637,-35.996704
1770517740461,-0.93310547,-0.33447266,-0.14111328,-1.5869141,1.2207031,-0.061035156,0.0,0.0,0.0,-115.252075,68.40637,-35.996704
1770517740536,-0.9321289,-0.33447266,-0.14550781,-2.2583008,0.79345703,-0.48828125,12689.0,2474.0,1167.0,-115.252075,68.40637,-35.996704
1770517740547,-0.9321289,-0.33447266,-0.14550781,-2.2583008,0.79345703,-0.48828125,12689.0,2474.0,1167.0,-115.48828,68.35693,-36.210938
1770517740559,-0.9321289,-0.33447266,-0.14550781,-2.2583008,0.79345703,-0.48828125,0.0,0.0,0.0,-115.48828,68.35693,-36.210938
1770517740635,-0.92871094,-0.33691406,-0.1508789,-1.2207031,-0.6713867,-0.30517578,12667.0,2484.0,1221.0,-115.48828,68.35693,-36.210938
1770517740647,-0.92871094,-0.33691406,-0.1508789,-1.2207031,-0.6713867,-0.30517578,12667.0,2484.0,1221.0,-115.48279,68.307495,-36.210938
1770517740658,-0.92871094,-0.33691406,-0.1508789,-1.2207031,-0.6713867,-0.30517578,0.0,0.0,0.0,-115.48279,68.307495,-36.210938
1770517740735,-0.9296875,-0.3359375,-0.15185547,-1.953125,-0.61035156,0.0,12652.0,2503.0,1257.0,-115.48279,68.307495,-36.210938
1770517740746,-0.9296875,-0.3359375,-0.15185547,-1.953125,-0.61035156,0.0,12652.0,2503.0,1257.0,-115.3949,68.307495,-36.07361
1770517740758,-0.9296875,-0.3359375,-0.15185547,-1.953125,-0.61035156,0.0,0.0,0.0,0.0,-115.3949,68.307495,-36.07361
1770517740835,-0.9296875,-0.33544922,-0.15966797,0.79345703,0.061035156,-0.24414062,12650.0,2518.0,1249.0,-115.3949,68.307495,-36.07361
1770517740846,-0.9296875,-0.33544922,-0.15966797,0.79345703,0.061035156,-0.24414062,12650.0,2518.0,1249.0,-115.30701,68.35144,-35.90332
1770517740858,-0.9296875,-0.33544922,-0.15966797,0.79345703,0.061035156,-0.24414062,0.0,0.0,0.0,-115.30701,68.35144,-35.90332
1770517740934,-0.9291992,-0.33544922,-0.15820312,1.5258789,-0.36621094,0.48828125,12662.0,2507.0,1204.0,-115.30701,68.35144,-35.90332
1770517740946,-0.9291992,-0.33544922,-0.15820312,1.5258789,-0.36621094,0.48828125,12662.0,2507.0,1204.0,-115.09277,68.42285,-35.771484
1770517740958,-0.9291992,-0.33544922,-0.15820312,1.5258789,-0.36621094,0.48828125,0.0,0.0,0.0,-115.09277,68.42285,-35.771484
1770517741034,-0.9316406,-0.3383789,-0.14697266,2.380371,-0.5493164,0.61035156,12686.0,2515.0,1162.0,-115.09277,68.42285,-35.771484
1770517741046,-0.9316406,-0.3383789,-0.14697266,2.380371,-0.5493164,0.61035156,12686.0,2515.0,1162.0,-114.84558,68.444824,-35.804443
1770517741057,-0.9316406,-0.3383789,-0.14697266,2.380371,-0.5493164,0.61035156,0.0,0.0,0.0,-114.84558,68.444824,-35.804443
1770517741135,-0.93115234,-0.3383789,-0.14404297,2.4414062,0.18310547,0.36621094,12695.0,2508.0,1128.0,-114.84558,68.444824,-35.804443
1770517741145,-0.93115234,-0.3383789,-0.14404297,2.4414062,0.18310547,0.36621094,12695.0,2508.0,1128.0,-114.505005,68.49426,-35.776978
1770517741157,-0.93115234,-0.3383789,-0.14404297,2.4414062,0.18310547,0.36621094,0.0,0.0,0.0,-114.505005,68.49426,-35.776978
1770517741233,-0.93066406,-0.3383789,-0.14404297,2.1362305,-0.6713867,0.7324219,12708.0,2495.0,1133.0,-114.505005,68.49426,-35.776978
1770517741245,-0.93066406,-0.3383789,-0.14404297,2.1362305,-0.6713867,0.7324219,12708.0,2495.0,1133.0,-114.208374,68.56018,-35.760498
1770517741257,-0.93066406,-0.3383789,-0.14404297,2.1362305,-0.6713867,0.7324219,0.0,0.0,0.0,-114.208374,68.56018,-35.760498
1770517741333,-0.9326172,-0.33691406,-0.14013672,1.0375977,-0.6713867,0.79345703,12713.0,2494.0,1090.0,-114.208374,68.56018,-35.760498
1770517741345,-0.9326172,-0.33691406,-0.14013672,1.0375977,-0.6713867,0.79345703,12713.0,2494.0,1090.0,-113.845825,68.6261,-35.6781
1770517741357,-0.9326172,-0.33691406,-0.14013672,1.0375977,-0.6713867,0.79345703,0.0,0.0,0.0,-113.845825,68.6261,-35.6781
1770517741433,-0.93115234,-0.33642578,-0.13574219,1.0375977,-1.4038086,1.0986328,12706.0,2472.0,1076.0,-113.845825,68.6261,-35.6781
1770517741444,-0.93115234,-0.33642578,-0.13574219,1.0375977,-1.4038086,1.0986328,12706.0,2472.0,1076.0,-113.52722,68.73047,-35.55725
1770517741456,-0.93115234,-0.33642578,-0.13574219,1.0375977,-1.4038086,1.0986328,0.0,0.0,0.0,-113.52722,68.73047,-35.55725
1770517741533,-0.93408203,-0.33691406,-0.13134766,0.79345703,-1.7089844,1.0375977,12687.0,2473.0,1038.0,-113.52722,68.73047,-35.55725
1770517741544,-0.93408203,-0.33691406,-0.13134766,0.79345703,-1.7089844,1.0375977,12687.0,2473.0,1038.0,-113.065796,68.87329,-35.26062
1770517741557,-0.93408203,-0.33691406,-0.13134766,0.79345703,-1.7089844,1.0375977,0.0,0.0,0.0,-113.065796,68.87329,-35.26062
1770517741632,-0.9355469,-0.33203125,-0.13085938,1.7700195,-1.2207031,0.061035156,12696.0,2475.0,1038.0,-113.065796,68.87329,-35.26062
1770517741644,-0.9355469,-0.33203125,-0.13085938,1.7700195,-1.2207031,0.061035156,12696.0,2475.0,1038.0,-112.49451,68.98865,-34.870605
1770517741656,-0.9355469,-0.33203125,-0.13085938,1.7700195,-1.2207031,0.061035156,0.0,0.0,0.0,-112.49451,68.98865,-34.870605
1770517741732,-0.93896484,-0.33398438,-0.12402344,0.9765625,0.8544922,-0.12207031,12692.0,2453.0,1032.0,-112.49451,68.98865,-34.870605
1770517741744,-0.93896484,-0.33398438,-0.12402344,0.9765625,0.8544922,-0.12207031,12692.0,2453.0,1032.0,-112.159424,68.983154,-34.77722
1770517741762,-0.93896484,-0.33398438,-0.12402344,0.9765625,0.8544922,-0.12207031,0.0,0.0,0.0,-112.159424,68.983154,-34.77722
1770517741832,-0.93652344,-0.32714844,-0.122558594,0.30517578,0.18310547,0.5493164,12670.0,2458.0,1056.0,-112.159424,68.983154,-34.77722
1770517741843,-0.93652344,-0.32714844,-0.122558594,0.30517578,0.18310547,0.5493164,12670.0,2458.0,1056.0,-112.15393,68.92273,-35.00244
1770517741856,-0.93652344,-0.32714844,-0.122558594,0.30517578,0.18310547,0.5493164,0.0,0.0,0.0,-112.15393,68.92273,-35.00244
1770517741931,-0.9350586,-0.33398438,-0.12939453,-0.4272461,2.0141602,0.18310547,12704.0,2434.0,985.0,-112.15393,68.92273,-35.00244
1770517741943,-0.9350586,-0.33398438,-0.12939453,-0.4272461,2.0141602,0.18310547,12704.0,2434.0,985.0,-112.28577,68.933716,-35.266113
1770517741960,-0.9350586,-0.33398438,-0.12939453,-0.4272461,2.0141602,0.18310547,0.0,0.0,0.0,-112.28577,68.933716,-35.266113
1770517742031,-0.93652344,-0.3310547,-0.125,-0.7324219,2.9296875,0.0,12714.0,2438.0,964.0,-112.28577,68.933716,-35.266113
1770517742043,-0.93652344,-0.3310547,-0.125,-0.7324219,2.9296875,0.0,12714.0,2438.0,964.0,-112.961426,68.829346,-35.996704
1770517742054,-0.93652344,-0.3310547,-0.125,-0.7324219,2.9296875,0.0,0.0,0.0,0.0,-112.961426,68.829346,-35.996704
1770517742131,-0.93847656,-0.3330078,-0.12988281,-1.2207031,1.7700195,0.48828125,12733.0,2431.0,972.0,-112.961426,68.829346,-35.996704
1770517742142,-0.93847656,-0.3330078,-0.12988281,-1.2207031,1.7700195,0.48828125,12733.0,2431.0,972.0,-113.516235,68.741455,-36.68335
1770517742163,-0.93847656,-0.3330078,-0.12988281,-1.2207031,1.7700195,0.48828125,0.0,0.0,0.0,-113.516235,68.741455,-36.68335
1770517742231,-0.9301758,-0.33251953,-0.1303711,-0.061035156,1.8310547,0.0,12755.0,2440.0,1045.0,-113.516235,68.741455,-36.68335
1770517742242,-0.9301758,-0.33251953,-0.1303711,-0.061035156,1.8310547,0.0,12755.0,2440.0,1045.0,-113.84033,68.69202,-37.183228
1770517742255,-0.9301758,-0.33251953,-0.1303711,-0.061035156,1.8310547,0.0,0.0,0.0,0.0,-113.84033,68.69202,-37.183228
1770517742330,-0.93408203,-0.3310547,-0.13427734,-0.91552734,0.8544922,0.48828125,12765.0,2441.0,1021.0,-113.84033,68.69202,-37.183228
1770517742342,-0.93408203,-0.3310547,-0.13427734,-0.91552734,0.8544922,0.48828125,12765.0,2441.0,1021.0,-114.071045,68.65906,-37.55127
1770517742354,-0.93408203,-0.3310547,-0.13427734,-0.91552734,0.8544922,0.48828125,0.0,0.0,0.0,-114.071045,68.65906,-37.55127
1770517742430,-0.93408203,-0.33007812,-0.13085938,0.5493164,-1.2817383,0.79345703,12757.0,2457.0,1083.0,-114.071045,68.65906,-37.55127
1770517742442,-0.93408203,-0.33007812,-0.13085938,0.5493164,-1.2817383,0.79345703,12757.0,2457.0,1083.0,-113.92273,68.724976,-37.573242
1770517742453,-0.93408203,-0.33007812,-0.13085938,0.5493164,-1.2817383,0.79345703,0.0,0.0,0.0,-113.92273,68.724976,-37.573242
1770517742530,-0.9350586,-0.33251953,-0.1352539,-0.36621094,-1.2207031,1.0375977,12778.0,2454.0,1019.0,-113.92273,68.724976,-37.573242
1770517742541,-0.9350586,-0.33251953,-0.1352539,-0.36621094,-1.2207031,1.0375977,12778.0,2454.0,1019.0,-113.57666,68.85681,-37.364502
1770517742553,-0.9350586,-0.33251953,-0.1352539,-0.36621094,-1.2207031,1.0375977,0.0,0.0,0.0,-113.57666,68.85681,-37.364502
1770517742629,-0.9375,-0.3310547,-0.13085938,-0.48828125,-1.7700195,0.79345703,12771.0,2452.0,998.0,-113.57666,68.85681,-37.364502
1770517742641,-0.9375,-0.3310547,-0.13085938,-0.48828125,-1.7700195,0.79345703,12771.0,2452.0,998.0,-113.19763,68.99414,-37.056885
1770517742652,-0.9375,-0.3310547,-0.13085938,-0.48828125,-1.7700195,0.79345703,0.0,0.0,0.0,-113.19763,68.99414,-37.056885
1770517742729,-0.93603516,-0.3310547,-0.1303711,1.0375977,-1.2207031,0.12207031,12767.0,2445.0,1000.0,-113.19763,68.99414,-37.056885
1770517742741,-0.93603516,-0.3310547,-0.1303711,1.0375977,-1.2207031,0.12207031,12767.0,2445.0,1000.0,-112.78015,69.11499,-36.66687
1770517742752,-0.93603516,-0.3310547,-0.1303711,1.0375977,-1.2207031,0.12207031,0.0,0.0,0.0,-112.78015,69.11499,-36.66687
1770517742829,-0.9350586,-0.32861328,-0.12841797,-1.0375977,-2.4414062,0.8544922,12753.0,2446.0,995.0,-112.78015,69.11499,-36.66687
1770517742840,-0.9350586,-0.32861328,-0.12841797,-1.0375977,-2.4414062,0.8544922,12753.0,2446.0,995.0,-112.23633,69.28528,-36.090088
1770517742852,-0.9350586,-0.32861328,-0.12841797,-1.0375977,-2.4414062,0.8544922,0.0,0.0,0.0,-112.23633,69.28528,-36.090088
1770517742929,-0.93847656,-0.32617188,-0.122558594,-0.8544922,-1.0986328,0.36621094,12736.0,2450.0,972.0,-112.23633,69.28528,-36.090088
1770517742940,-0.93847656,-0.32617188,-0.122558594,-0.8544922,-1.0986328,0.36621094,12736.0,2450.0,972.0,-111.96716,69.36218,-35.804443
1770517742955,-0.93847656,-0.32617188,-0.122558594,-0.8544922,-1.0986328,0.36621094,0.0,0.0,0.0,-111.96716,69.36218,-35.804443
1770517743028,-0.9379883,-0.32910156,-0.123535156,-0.9765625,-0.36621094,0.24414062,12733.0,2438.0,954.0,-111.96716,69.36218,-35.804443
1770517743040,-0.9379883,-0.32910156,-0.123535156,-0.9765625,-0.36621094,0.24414062,12733.0,2438.0,954.0,-111.79138,69.417114,-35.628662
1770517743051,-0.9379883,-0.32910156,-0.123535156,-0.9765625,-0.36621094,0.24414062,0.0,0.0,0.0,-111.79138,69.417114,-35.628662
1770517743128,-0.9394531,-0.33251953,-0.12890625,-1.159668,0.24414062,-0.24414062,12708.0,2444.0,953.0,-111.79138,69.417114,-35.628662
1770517743139,-0.9394531,-0.33251953,-0.12890625,-1.159668,0.24414062,-0.24414062,12708.0,2444.0,953.0,-111.76941,69.4281,-35.568237
1770517743151,-0.9394531,-0.33251953,-0.12890625,-1.159668,0.24414062,-0.24414062,0.0,0.0,0.0,-111.76941,69.4281,-35.568237
1770517743228,-0.9355469,-0.33496094,-0.13330078,-2.1362305,2.0751953,-0.79345703,12707.0,2462.0,959.0,-111.76941,69.4281,-35.568237
1770517743239,-0.9355469,-0.33496094,-0.13330078,-2.1362305,2.0751953,-0.79345703,12707.0,2462.0,959.0,-112.05505,69.30725,-35.809937
1770517743251,-0.9355469,-0.33496094,-0.13330078,-2.1362305,2.0751953,-0.79345703,0.0,0.0,0.0,-112.05505,69.30725,-35.809937
1770517743327,-0.93310547,-0.33251953,-0.13769531,-3.6010742,3.4179688,-0.36621094,12719.0,2462.0,936.0,-112.05505,69.30725,-35.809937
1770517743339,-0.93310547,-0.33251953,-0.13769531,-3.6010742,3.4179688,-0.36621094,12719.0,2462.0,936.0,-112.92297,69.12048,-36.49109
1770517743351,-0.93310547,-0.33251953,-0.13769531,-3.6010742,3.4179688,-0.36621094,0.0,0.0,0.0,-112.92297,69.12048,-36.49109
1770517743427,-0.9326172,-0.3330078,-0.14257812,-2.9296875,2.8686523,-0.18310547,12718.0,2475.0,1004.0,-112.92297,69.12048,-36.49109
1770517743439,-0.9326172,-0.3330078,-0.14257812,-2.9296875,2.8686523,-0.18310547,12718.0,2475.0,1004.0,-113.950195,68.933716,-37.320557
1770517743450,-0.9326172,-0.3330078,-0.14257812,-2.9296875,2.8686523,-0.18310547,0.0,0.0,0.0,-113.950195,68.933716,-37.320557
1770517743527,-0.93115234,-0.33007812,-0.1430664,-1.953125,1.2207031,0.48828125,12736.0,2495.0,1057.0,-113.950195,68.933716,-37.320557
1770517743538,-0.93115234,-0.33007812,-0.1430664,-1.953125,1.2207031,0.48828125,12736.0,2495.0,1057.0,-114.49951,68.85681,-37.803955
1770517743550,-0.93115234,-0.33007812,-0.1430664,-1.953125,1.2207031,0.48828125,0.0,0.0,0.0,-114.49951,68.85681,-37.803955
1770517743626,-0.93359375,-0.32861328,-0.14648438,-3.3569336,0.061035156,1.6479492,12757.0,2500.0,1090.0,-114.49951,68.85681,-37.803955
1770517743638,-0.93359375,-0.32861328,-0.14648438,-3.3569336,0.061035156,1.6479492,12757.0,2500.0,1090.0,-114.8291,68.92273,-38.067627
1770517743650,-0.93359375,-0.32861328,-0.14648438,-3.3569336,0.061035156,1.6479492,0.0,0.0,0.0,-114.8291,68.92273,-38.067627
1770517743726,-0.9399414,-0.32470703,-0.14111328,-3.3569336,-0.30517578,1.953125,12764.0,2498.0,1104.0,-114.8291,68.92273,-38.067627
1770517743738,-0.9399414,-0.32470703,-0.14111328,-3.3569336,-0.30517578,1.953125,12764.0,2498.0,1104.0,-115.285034,69.00513,-38.397217
1770517743749,-0.9399414,-0.32470703,-0.14111328,-3.3569336,-0.30517578,1.953125,0.0,0.0,0.0,-115.285034,69.00513,-38.397217
1770517743826,-0.93847656,-0.3251953,-0.14160156,-1.3427734,0.9765625,1.6479492,12766.0,2495.0,1113.0,-115.285034,69.00513,-38.397217
1770517743838,-0.93847656,-0.3251953,-0.14160156,-1.3427734,0.9765625,1.6479492,12766.0,2495.0,1113.0,-115.70801,69.104004,-38.82019
1770517743849,-0.93847656,-0.3251953,-0.14160156,-1.3427734,0.9765625,1.6479492,0.0,0.0,0.0,-115.70801,69.104004,-38.82019
1770517743926,-0.9394531,-0.32226562,-0.14404297,-1.6479492,3.0517578,1.3427734,12770.0,2493.0,1130.0,-115.70801,69.104004,-38.82019
1770517743938,-0.9394531,-0.32226562,-0.14404297,-1.6479492,3.0517578,1.3427734,12770.0,2493.0,1130.0,-116.40564,69.12598,-39.572754
1770517743949,-0.9394531,-0.32226562,-0.14404297,-1.6479492,3.0517578,1.3427734,0.0,0.0,0.0,-116.40564,69.12598,-39.572754
1770517744025,-0.94091797,-0.3227539,-0.13964844,-3.540039,1.7089844,0.9765625,12805.0,2503.0,1163.0,-116.40564,69.12598,-39.572754
1770517744037,-0.94091797,-0.3227539,-0.13964844,-3.540039,1.7089844,0.9765625,12805.0,2503.0,1163.0,-117.19116,69.12598,-40.369263
1770517744048,-0.94091797,-0.3227539,-0.13964844,-3.540039,1.7089844,0.9765625,0.0,0.0,0.0,-117.19116,69.12598,-40.369263
1770517744125,-0.9350586,-0.31689453,-0.14208984,-5.3710938,2.0141602,-0.30517578,12832.0,2496.0,1190.0,-117.19116,69.12598,-40.369263
1770517744137,-0.9350586,-0.31689453,-0.14208984,-5.3710938,2.0141602,-0.30517578,12832.0,2496.0,1190.0,-117.86133,69.06555,-40.891113
1770517744148,-0.9350586,-0.31689453,-0.14208984,-5.3710938,2.0141602,-0.30517578,0.0,0.0,0.0,-117.86133,69.06555,-40.891113
1770517744225,-0.9501953,-0.32128906,-0.15332031,-6.8969727,2.0141602,-1.159668,12819.0,2502.0,1298.0,-117.86133,69.06555,-40.891113
1770517744236,-0.9501953,-0.32128906,-0.15332031,-6.8969727,2.0141602,-1.159668,12819.0,2502.0,1298.0,-118.49304,68.92822,-41.220703
1770517744248,-0.9501953,-0.32128906,-0.15332031,-6.8969727,2.0141602,-1.159668,0.0,0.0,0.0,-118.49304,68.92822,-41.220703
1770517744324,-0.93408203,-0.30273438,-0.15966797,-4.5166016,0.9765625,-0.91552734,12837.0,2523.0,1307.0,-118.49304,68.92822,-41.220703
1770517744336,-0.93408203,-0.30273438,-0.15966797,-4.5166016,0.9765625,-0.91552734,12837.0,2523.0,1307.0,-119.17969,68.79089,-41.51184
1770517744347,-0.93408203,-0.30273438,-0.15966797,-4.5166016,0.9765625,-0.91552734,0.0,0.0,0.0,-119.17969,68.79089,-41.51184
1770517744424,-0.93359375,-0.3149414,-0.16552734,-0.12207031,0.5493164,-1.6479492,12858.0,2587.0,1317.0,-119.17969,68.79089,-41.51184
1770517744436,-0.93359375,-0.3149414,-0.16552734,-0.12207031,0.5493164,-1.6479492,12858.0,2587.0,1317.0,-119.15222,68.69751,-41.45691
1770517744448,-0.93359375,-0.3149414,-0.16552734,-0.12207031,0.5493164,-1.6479492,0.0,0.0,0.0,-119.15222,68.69751,-41.45691
1770517744524,-0.94091797,-0.3071289,-0.15185547,-0.7324219,-3.3569336,1.6479492,12830.0,2641.0,1369.0,-119.15222,68.69751,-41.45691
1770517744535,-0.94091797,-0.3071289,-0.15185547,-0.7324219,-3.3569336,1.6479492,12830.0,2641.0,1369.0,-118.71826,68.74695,-41.19873
1770517744547,-0.94091797,-0.3071289,-0.15185547,-0.7324219,-3.3569336,1.6479492,0.0,0.0,0.0,-118.71826,68.74695,-41.19873
1770517744623,-0.93603516,-0.30322266,-0.14404297,3.8452148,-8.117676,3.4179688,12852.0,2635.0,1326.0,-118.71826,68.74695,-41.19873
1770517744635,-0.93603516,-0.30322266,-0.14404297,3.8452148,-8.117676,3.4179688,12852.0,2635.0,1326.0,-117.38342,69.24133,-40.160522
1770517744646,-0.93603516,-0.30322266,-0.14404297,3.8452148,-8.117676,3.4179688,0.0,0.0,0.0,-117.38342,69.24133,-40.160522
1770517744723,-0.94873047,-0.31640625,-0.12109375,9.643555,-6.652832,2.6855469,12828.0,2615.0,1318.0,-117.38342,69.24133,-40.160522
1770517744736,-0.94873047,-0.31640625,-0.12109375,9.643555,-6.652832,2.6855469,12828.0,2615.0,1318.0,-115.548706,69.73572,-38.979492
1770517744746,-0.94873047,-0.31640625,-0.12109375,9.643555,-6.652832,2.6855469,0.0,0.0,0.0,-115.548706,69.73572,-38.979492
1770517744823,-0.9501953,-0.31396484,-0.125,5.7373047,-4.5776367,2.319336,12805.0,2577.0,1192.0,-115.548706,69.73572,-38.979492
1770517744834,-0.9501953,-0.31396484,-0.125,5.7373047,-4.5776367,2.319336,12805.0,2577.0,1192.0,-113.098755,70.27954,-37.337036
1770517744847,-0.9501953,-0.31396484,-0.125,5.7373047,-4.5776367,2.319336,0.0,0.0,0.0,-113.098755,70.27954,-37.337036
1770517744923,-0.9501953,-0.31884766,-0.09472656,3.540039,-10.192871,2.1972656,12771.0,2532.0,1076.0,-113.098755,70.27954,-37.337036
1770517744934,-0.9501953,-0.31884766,-0.09472656,3.540039,-10.192871,2.1972656,12771.0,2532.0,1076.0,-110.93445,70.773926,-35.568237
1770517744946,-0.9501953,-0.31884766,-0.09472656,3.540039,-10.192871,2.1972656,0.0,0.0,0.0,-110.93445,70.773926,-35.568237
1770517745022,-0.94189453,-0.31640625,-0.109375,-0.9765625,-4.4555664,0.8544922,12737.0,2508.0,988.0,-110.93445,70.773926,-35.568237
1770517745034,-0.94189453,-0.31640625,-0.109375,-0.9765625,-4.4555664,0.8544922,12737.0,2508.0,988.0,-107.649536,71.38367,-32.44812
1770517745046,-0.94189453,-0.31640625,-0.109375,-0.9765625,-4.4555664,0.8544922,0.0,0.0,0.0,-107.649536,71.38367,-32.44812
1770517745122,-0.93115234,-0.30664062,-0.07080078,-2.1972656,3.7231445,-0.24414062,12665.0,2472.0,833.0,-107.649536,71.38367,-32.44812
1770517745135,-0.93115234,-0.30664062,-0.07080078,-2.1972656,3.7231445,-0.24414062,12665.0,2472.0,833.0,-107.52869,71.45508,-32.13501
1770517745148,-0.93115234,-0.30664062,-0.07080078,-2.1972656,3.7231445,-0.24414062,0.0,0.0,0.0,-107.52869,71.45508,-32.13501
1770517745222,-0.95654297,-0.30664062,-0.084472656,-5.6152344,-0.12207031,3.0517578,12668.0,2450.0,824.0,-107.52869,71.45508,-32.13501
1770517745233,-0.95654297,-0.30664062,-0.084472656,-5.6152344,-0.12207031,3.0517578,12668.0,2450.0,824.0,-108.45154,71.49902,-32.95349
1770517745245,-0.95654297,-0.30664062,-0.084472656,-5.6152344,-0.12207031,3.0517578,0.0,0.0,0.0,-108.45154,71.49902,-32.95349
1770517745321,-0.9501953,-0.30664062,-0.088378906,-8.483887,1.7089844,-0.4272461,12676.0,2478.0,836.0,-108.45154,71.49902,-32.95349
1770517745333,-0.9501953,-0.30664062,-0.088378906,-8.483887,1.7089844,-0.4272461,12676.0,2478.0,836.0,-109.59412,71.520996,-33.5907
1770517745344,-0.9501953,-0.30664062,-0.088378906,-8.483887,1.7089844,-0.4272461,0.0,0.0,0.0,-109.59412,71.520996,-33.5907
1770517745421,-0.9477539,-0.30859375,-0.10546875,-9.277344,-7.1411133,-1.159668,12713.0,2501.0,897.0,-109.59412,71.520996,-33.5907
1770517745433,-0.9477539,-0.30859375,-0.10546875,-9.277344,-7.1411133,-1.159668,12713.0,2501.0,897.0,-109.06128,71.55945,-32.475586
1770517745447,-0.9477539,-0.30859375,-0.10546875,-9.277344,-7.1411133,-1.159668,0.0,0.0,0.0,-109.06128,71.55945,-32.475586
1770517745521,-0.9555664,-0.28515625,-0.09277344,-7.446289,1.2207031,-3.9672852,12720.0,2512.0,902.0,-109.06128,71.55945,-32.475586
1770517745532,-0.9555664,-0.28515625,-0.09277344,-7.446289,1.2207031,-3.9672852,12720.0,2512.0,902.0,-108.92944,71.32324,-31.50879
1770517745544,-0.9555664,-0.28515625,-0.09277344,-7.446289,1.2207031,-3.9672852,0.0,0.0,0.0,-108.92944,71.32324,-31.50879
1770517745621,-0.9477539,-0.30029297,-0.10498047,-5.126953,1.6479492,-2.9907227,12697.0,2548.0,911.0,-108.92944,71.32324,-31.50879
1770517745632,-0.9477539,-0.30029297,-0.10498047,-5.126953,1.6479492,-2.9907227,12697.0,2548.0,911.0,-109.26453,70.99365,-31.35498
1770517745644,-0.9477539,-0.30029297,-0.10498047,-5.126953,1.6479492,-2.9907227,0.0,0.0,0.0,-109.26453,70.99365,-31.35498
1770517745720,-0.9506836,-0.29296875,-0.114746094,-3.1738281,3.9672852,-1.3427734,12675.0,2583.0,936.0,-109.26453,70.99365,-31.35498
1770517745732,-0.9506836,-0.29296875,-0.114746094,-3.1738281,3.9672852,-1.3427734,12675.0,2583.0,936.0,-110.36316,70.686035,-32.041626
1770517745743,-0.9506836,-0.29296875,-0.114746094,-3.1738281,3.9672852,-1.3427734,0.0,0.0,0.0,-110.36316,70.686035,-32.041626
1770517745820,-0.94384766,-0.29833984,-0.12646484,1.3427734,6.164551,-1.2207031,12688.0,2636.0,956.0,-110.36316,70.686035,-32.041626
1770517745832,-0.94384766,-0.29833984,-0.12646484,1.3427734,6.164551,-1.2207031,12688.0,2636.0,956.0,-111.56067,70.460815,-33.233643
1770517745843,-0.94384766,-0.29833984,-0.12646484,1.3427734,6.164551,-1.2207031,0.0,0.0,0.0,-111.56067,70.460815,-33.233643
1770517745920,-0.9555664,-0.30859375,-0.15429688,-2.5024414,13.244629,-1.8310547,12668.0,2665.0,1009.0,-111.56067,70.460815,-33.233643
1770517745931,-0.9555664,-0.30859375,-0.15429688,-2.5024414,13.244629,-1.8310547,12668.0,2665.0,1009.0,-113.76892,69.922485,-35.71106
1770517745942,-0.9555664,-0.30859375,-0.15429688,-2.5024414,13.244629,-1.8310547,0.0,0.0,0.0,-113.76892,69.922485,-35.71106
1770517746019,-0.93310547,-0.3334961,-0.13671875,2.9296875,7.9956055,-0.8544922,12680.0,2701.0,1123.0,-113.76892,69.922485,-35.71106
1770517746031,-0.93310547,-0.3334961,-0.13671875,2.9296875,7.9956055,-0.8544922,12680.0,2701.0,1123.0,-116.482544,69.29077,-38.737793
1770517746042,-0.93310547,-0.3334961,-0.13671875,2.9296875,7.9956055,-0.8544922,0.0,0.0,0.0,-116.482544,69.29077,-38.737793
1770517746119,-0.91748047,-0.31689453,-0.14501953,4.699707,-2.4414062,3.112793,12766.0,2721.0,1182.0,-116.482544,69.29077,-38.737793
1770517746131,-0.91748047,-0.31689453,-0.14501953,4.699707,-2.4414062,3.112793,12766.0,2721.0,1182.0,-116.345215,69.40613,-39.23767
1770517746142,-0.91748047,-0.31689453,-0.14501953,4.699707,-2.4414062,3.112793,0.0,0.0,0.0,-116.345215,69.40613,-39.23767
1770517746219,-0.9277344,-0.32177734,-0.12597656,1.7089844,-15.197754,6.5307617,12773.0,2727.0,1219.0,-116.345215,69.40613,-39.23767
1770517746230,-0.9277344,-0.32177734,-0.12597656,1.7089844,-15.197754,6.5307617,12773.0,2727.0,1219.0,-114.23035,70.20813,-37.496338
1770517746243,-0.9277344,-0.32177734,-0.12597656,1.7089844,-15.197754,6.5307617,0.0,0.0,0.0,-114.23035,70.20813,-37.496338
1770517746319,-0.92529297,-0.31103516,-0.12597656,2.4414062,-10.803223,2.1972656,12832.0,2678.0,1122.0,-114.23035,70.20813,-37.496338
1770517746330,-0.92529297,-0.31103516,-0.12597656,2.4414062,-10.803223,2.1972656,12832.0,2678.0,1122.0,-110.29175,71.136475,-33.607178
1770517746341,-0.92529297,-0.31103516,-0.12597656,2.4414062,-10.803223,2.1972656,0.0,0.0,0.0,-110.29175,71.136475,-33.607178
1770517746418,-0.9243164,-0.3154297,-0.09814453,1.8920898,0.4272461,-1.4038086,12817.0,2614.0,926.0,-110.29175,71.136475,-33.607178
1770517746430,-0.9243164,-0.3154297,-0.09814453,1.8920898,0.4272461,-1.4038086,12817.0,2614.0,926.0,-109.193115,71.207886,-32.60742
1770517746441,-0.9243164,-0.3154297,-0.09814453,1.8920898,0.4272461,-1.4038086,0.0,0.0,0.0,-109.193115,71.207886,-32.60742
1770517746518,-0.94091797,-0.32128906,-0.104003906,-0.4272461,0.30517578,-1.5258789,12814.0,2582.0,849.0,-109.193115,71.207886,-32.60742
1770517746529,-0.94091797,-0.32128906,-0.104003906,-0.4272461,0.30517578,-1.5258789,12814.0,2582.0,849.0,-108.90198,71.048584,-32.409668
1770517746541,-0.94091797,-0.32128906,-0.104003906,-0.4272461,0.30517578,-1.5258789,0.0,0.0,0.0,-108.90198,71.048584,-32.409668
1770517746618,-0.92871094,-0.30419922,-0.08642578,-1.0375977,1.7089844,-1.7089844,12796.0,2592.0,813.0,-108.90198,71.048584,-32.409668
1770517746629,-0.92871094,-0.30419922,-0.08642578,-1.0375977,1.7089844,-1.7089844,12796.0,2592.0,813.0,-108.81409,70.93872,-32.27234
1770517746641,-0.92871094,-0.30419922,-0.08642578,-1.0375977,1.7089844,-1.7089844,0.0,0.0,0.0,-108.81409,70.93872,-32.27234
1770517746717,-0.95458984,-0.3154297,-0.08984375,-2.4414062,-3.479004,0.18310547,12792.0,2588.0,788.0,-108.81409,70.93872,-32.27234
1770517746729,-0.95458984,-0.3154297,-0.08984375,-2.4414062,-3.479004,0.18310547,12792.0,2588.0,788.0,-108.12744,70.96619,-31.574707
1770517746740,-0.95458984,-0.3154297,-0.08984375,-2.4414062,-3.479004,0.18310547,0.0,0.0,0.0,-108.12744,70.96619,-31.574707
1770517746817,-0.9458008,-0.30273438,-0.06982422,-0.4272461,-0.061035156,-1.6479492,12753.0,2614.0,800.0,-108.12744,70.96619,-31.574707
1770517746829,-0.9458008,-0.30273438,-0.06982422,-0.4272461,-0.061035156,-1.6479492,12753.0,2614.0,800.0,-107.490234,70.99365,-30.888062
1770517746841,-0.9458008,-0.30273438,-0.06982422,-0.4272461,-0.061035156,-1.6479492,0.0,0.0,0.0,-107.490234,70.99365,-30.888062
1770517746917,-0.9589844,-0.31933594,-0.08300781,0.61035156,-0.91552734,-1.4038086,12746.0,2612.0,750.0,-107.490234,70.99365,-30.888062
1770517746928,-0.9589844,-0.31933594,-0.08300781,0.61035156,-0.91552734,-1.4038086,12746.0,2612.0,750.0,-106.84204,70.878296,-30.470581
1770517746941,-0.9589844,-0.31933594,-0.08300781,0.61035156,-0.91552734,-1.4038086,0.0,0.0,0.0,-106.84204,70.878296,-30.470581
1770517747017,-0.9526367,-0.32177734,-0.080078125,-0.18310547,0.061035156,-1.5258789,12728.0,2634.0,760.0,-106.84204,70.878296,-30.470581
1770517747028,-0.9526367,-0.32177734,-0.080078125,-0.18310547,0.061035156,-1.5258789,12728.0,2634.0,760.0,-106.49048,70.76843,-30.250854
1770517747039,-0.9526367,-0.32177734,-0.080078125,-0.18310547,0.061035156,-1.5258789,0.0,0.0,0.0,-106.49048,70.76843,-30.250854
1770517747116,-0.94189453,-0.32128906,-0.07128906,-1.3427734,-0.36621094,-0.48828125,12707.0,2633.0,745.0,-106.49048,70.76843,-30.250854
1770517747128,-0.94189453,-0.32128906,-0.07128906,-1.3427734,-0.36621094,-0.48828125,12707.0,2633.0,745.0,-106.19385,70.69153,-30.091553
1770517747139,-0.94189453,-0.32128906,-0.07128906,-1.3427734,-0.36621094,-0.48828125,0.0,0.0,0.0,-106.19385,70.69153,-30.091553
1770517747216,-0.9370117,-0.32226562,-0.08203125,0.18310547,4.0893555,-1.8310547,12692.0,2646.0,753.0,-106.19385,70.69153,-30.091553
1770517747228,-0.9370117,-0.32226562,-0.08203125,0.18310547,4.0893555,-1.8310547,12692.0,2646.0,753.0,-106.517944,70.52124,-30.629883
1770517747239,-0.9370117,-0.32226562,-0.08203125,0.18310547,4.0893555,-1.8310547,0.0,0.0,0.0,-106.517944,70.52124,-30.629883
1770517747316,-0.9482422,-0.3330078,-0.099121094,-0.24414062,4.0893555,-2.1972656,12709.0,2631.0,722.0,-106.517944,70.52124,-30.629883
1770517747327,-0.9482422,-0.3330078,-0.099121094,-0.24414062,4.0893555,-2.1972656,12709.0,2631.0,722.0,-107.15515,70.235596,-31.547241
1770517747339,-0.9482422,-0.3330078,-0.099121094,-0.24414062,4.0893555,-2.1972656,0.0,0.0,0.0,-107.15515,70.235596,-31.547241
1770517747415,-0.94628906,-0.35302734,-0.1352539,-14.831543,19.714355,-6.0424805,12748.0,2662.0,707.0,-107.15515,70.235596,-31.547241
1770517747427,-0.94628906,-0.35302734,-0.1352539,-14.831543,19.714355,-6.0424805,12748.0,2662.0,707.0,-110.841064,69.279785,-35.024414
1770517747438,-0.94628906,-0.35302734,-0.1352539,-14.831543,19.714355,-6.0424805,0.0,0.0,0.0,-110.841064,69.279785,-35.024414
1770517747515,-0.93603516,-0.3334961,-0.13085938,-11.84082,4.5776367,-1.5258789,12801.0,2723.0,799.0,-110.841064,69.279785,-35.024414
1770517747527,-0.93603516,-0.3334961,-0.13085938,-11.84082,4.5776367,-1.5258789,12801.0,2723.0,799.0,-114.104004,68.49426,-37.58972
1770517747538,-0.93603516,-0.3334961,-0.13085938,-11.84082,4.5776367,-1.5258789,0.0,0.0,0.0,-114.104004,68.49426,-37.58972
1770517747615,-0.9350586,-0.34228516,-0.13476562,-6.4086914,-1.2207031,-1.0986328,12873.0,2853.0,926.0,-114.104004,68.49426,-37.58972
1770517747626,-0.9350586,-0.34228516,-0.13476562,-6.4086914,-1.2207031,-1.0986328,12873.0,2853.0,926.0,-115.21912,68.236084,-38.10608
1770517747638,-0.9350586,-0.34228516,-0.13476562,-6.4086914,-1.2207031,-1.0986328,0.0,0.0,0.0,-115.21912,68.236084,-38.10608
1770517747715,-0.9379883,-0.34326172,-0.14794922,-2.6245117,-29.968262,6.958008,12911.0,2927.0,1008.0,-115.21912,68.236084,-38.10608
1770517747726,-0.9379883,-0.34326172,-0.14794922,-2.6245117,-29.968262,6.958008,12911.0,2927.0,1008.0,-112.126465,69.11499,-34.77173
1770517747738,-0.9379883,-0.34326172,-0.14794922,-2.6245117,-29.968262,6.958008,0.0,0.0,0.0,-112.126465,69.11499,-34.77173
1770517747814,-0.9301758,-0.32958984,-0.140625,-6.225586,4.333496,1.0986328,12880.0,2940.0,940.0,-112.126465,69.11499,-34.77173
1770517747826,-0.9301758,-0.32958984,-0.140625,-6.225586,4.333496,1.0986328,12880.0,2940.0,940.0,-109.852295,69.79614,-31.90979
1770517747838,-0.9301758,-0.32958984,-0.140625,-6.225586,4.333496,1.0986328,0.0,0.0,0.0,-109.852295,69.79614,-31.90979
1770517747914,-0.9355469,-0.31835938,-0.13378906,-1.5869141,11.108398,-0.5493164,12858.0,2928.0,845.0,-109.852295,69.79614,-31.90979
1770517747925,-0.9355469,-0.31835938,-0.13378906,-1.5869141,11.108398,-0.5493164,12858.0,2928.0,845.0,-112.44507,69.47754,-34.282837
1770517747937,-0.9355469,-0.31835938,-0.13378906,-1.5869141,11.108398,-0.5493164,0.0,0.0,0.0,-112.44507,69.47754,-34.282837
1770517748015,-0.9272461,-0.31933594,-0.14208984,-0.4272461,10.131836,-0.4272461,12916.0,2917.0,894.0,-112.44507,69.47754,-34.282837
1770517748025,-0.9272461,-0.31933594,-0.14208984,-0.4272461,10.131836,-0.4272461,12916.0,2917.0,894.0,-114.86755,69.0271,-36.914062
1770517748039,-0.9272461,-0.31933594,-0.14208984,-0.4272461,10.131836,-0.4272461,0.0,0.0,0.0,-114.86755,69.0271,-36.914062
1770517748113,-0.9321289,-0.3251953,-0.15820312,3.1738281,9.887695,-0.7324219,12977.0,2934.0,967.0,-114.86755,69.0271,-36.914062
1770517748125,-0.9321289,-0.3251953,-0.15820312,3.1738281,9.887695,-0.7324219,12977.0,2934.0,967.0,-116.77368,68.57117,-39.259644
1770517748136,-0.9321289,-0.3251953,-0.15820312,3.1738281,9.887695,-0.7324219,0.0,0.0,0.0,-116.77368,68.57117,-39.259644
1770517748213,-0.9248047,-0.33935547,-0.17626953,4.8217773,7.2021484,-0.4272461,13038.0,2955.0,1067.0,-116.77368,68.57117,-39.259644
1770517748225,-0.9248047,-0.33935547,-0.17626953,4.8217773,7.2021484,-0.4272461,13038.0,2955.0,1067.0,-118.25134,68.02185,-41.61621
1770517748237,-0.9248047,-0.33935547,-0.17626953,4.8217773,7.2021484,-0.4272461,0.0,0.0,0.0,-118.25134,68.02185,-41.61621
1770517748313,-0.9248047,-0.33789062,-0.171875,4.5776367,2.380371,0.48828125,13112.0,2941.0,1093.0,-118.25134,68.02185,-41.61621
1770517748324,-0.9248047,-0.33789062,-0.171875,4.5776367,2.380371,0.48828125,13112.0,2941.0,1093.0,-118.89404,67.71973,-43.027954
1770517748337,-0.9248047,-0.33789062,-0.171875,4.5776367,2.380371,0.48828125,0.0,0.0,0.0,-118.89404,67.71973,-43.027954
1770517748413,-0.9267578,-0.33642578,-0.16699219,4.5166016,-2.319336,1.5258789,13143.0,2946.0,1085.0,-118.89404,67.71973,-43.027954
1770517748424,-0.9267578,-0.33642578,-0.16699219,4.5166016,-2.319336,1.5258789,13143.0,2946.0,1085.0,-118.46008,67.79114,-43.236694
1770517748442,-0.9267578,-0.33642578,-0.16699219,4.5166016,-2.319336,1.5258789,0.0,0.0,0.0,-118.46008,67.79114,-43.236694
1770517748512,-0.93066406,-0.34033203,-0.16503906,3.8452148,-2.8076172,1.2207031,13135.0,2948.0,1110.0,-118.46008,67.79114,-43.236694
1770517748524,-0.93066406,-0.34033203,-0.16503906,3.8452148,-2.8076172,1.2207031,13135.0,2948.0,1110.0,-117.55371,68.02185,-42.857666
1770517748543,-0.93066406,-0.34033203,-0.16503906,3.8452148,-2.8076172,1.2207031,0.0,0.0,0.0,-117.55371,68.02185,-42.857666
1770517748612,-0.92578125,-0.33935547,-0.15771484,2.746582,-3.479004,1.2817383,13158.0,2899.0,1034.0,-117.55371,68.02185,-42.857666
1770517748623,-0.92578125,-0.33935547,-0.15771484,2.746582,-3.479004,1.2817383,13158.0,2899.0,1034.0,-116.54846,68.25256,-42.27539
1770517748635,-0.92578125,-0.33935547,-0.15771484,2.746582,-3.479004,1.2817383,0.0,0.0,0.0,-116.54846,68.25256,-42.27539
1770517748712,-0.9296875,-0.33642578,-0.14794922,1.3427734,-4.0283203,0.91552734,13129.0,2883.0,1001.0,-116.54846,68.25256,-42.27539
1770517748723,-0.9296875,-0.33642578,-0.14794922,1.3427734,-4.0283203,0.91552734,13129.0,2883.0,1001.0,-115.565186,68.48328,-41.533813
1770517748737,-0.9296875,-0.33642578,-0.14794922,1.3427734,-4.0283203,0.91552734,0.0,0.0,0.0,-115.565186,68.48328,-41.533813
1770517748811,-0.9291992,-0.33447266,-0.14111328,0.6713867,-4.4555664,0.36621094,13109.0,2870.0,964.0,-115.565186,68.48328,-41.533813
1770517748823,-0.9291992,-0.33447266,-0.14111328,0.6713867,-4.4555664,0.36621094,13109.0,2870.0,964.0,-114.37866,68.69202,-40.512085
1770517748834,-0.9291992,-0.33447266,-0.14111328,0.6713867,-4.4555664,0.36621094,0.0,0.0,0.0,-114.37866,68.69202,-40.512085
1770517748911,-0.93359375,-0.33544922,-0.13574219,-0.4272461,-3.2958984,0.0,13072.0,2862.0,896.0,-114.37866,68.69202,-40.512085
1770517748923,-0.93359375,-0.33544922,-0.13574219,-0.4272461,-3.2958984,0.0,13072.0,2862.0,896.0,-113.35144,68.85132,-39.5343
1770517748934,-0.93359375,-0.33544922,-0.13574219,-0.4272461,-3.2958984,0.0,0.0,0.0,0.0,-113.35144,68.85132,-39.5343
1770517749011,-0.9379883,-0.32421875,-0.13378906,0.8544922,-0.7324219,0.36621094,13036.0,2864.0,859.0,-113.35144,68.85132,-39.5343
1770517749022,-0.9379883,-0.32421875,-0.13378906,0.8544922,-0.7324219,0.36621094,13036.0,2864.0,859.0,-112.73071,68.9447,-38.984985
1770517749035,-0.9379883,-0.32421875,-0.13378906,0.8544922,-0.7324219,0.36621094,0.0,0.0,0.0,-112.73071,68.9447,-38.984985
1770517749111,-0.94140625,-0.3251953,-0.140625,5.065918,2.380371,-0.36621094,12993.0,2848.0,869.0,-112.73071,68.9447,-38.984985
1770517749122,-0.94140625,-0.3251953,-0.140625,5.065918,2.380371,-0.36621094,12993.0,2848.0,869.0,-112.59888,68.90625,-39.276123
1770517749134,-0.94140625,-0.3251953,-0.140625,5.065918,2.380371,-0.36621094,0.0,0.0,0.0,-112.59888,68.90625,-39.276123
1770517749210,-0.94091797,-0.33447266,-0.14697266,8.117676,6.958008,-1.7700195,12985.0,2853.0,875.0,-112.59888,68.90625,-39.276123
1770517749222,-0.94091797,-0.33447266,-0.14697266,8.117676,6.958008,-1.7700195,12985.0,2853.0,875.0,-112.78015,68.59863,-40.33081
1770517749234,-0.94091797,-0.33447266,-0.14697266,8.117676,6.958008,-1.7700195,0.0,0.0,0.0,-112.78015,68.59863,-40.33081
1770517749310,-0.9350586,-0.34423828,-0.13867188,4.8217773,10.314941,-0.9765625,13020.0,2840.0,794.0,-112.78015,68.59863,-40.33081
1770517749321,-0.9350586,-0.34423828,-0.13867188,4.8217773,10.314941,-0.9765625,13020.0,2840.0,794.0,-114.054565,68.15369,-42.45117
1770517749334,-0.9350586,-0.34423828,-0.13867188,4.8217773,10.314941,-0.9765625,0.0,0.0,0.0,-114.054565,68.15369,-42.45117
1770517749410,-0.9272461,-0.3408203,-0.13867188,2.6855469,4.0283203,1.159668,13060.0,2816.0,815.0,-114.054565,68.15369,-42.45117
1770517749421,-0.9272461,-0.3408203,-0.13867188,2.6855469,4.0283203,1.159668,13060.0,2816.0,815.0,-115.20813,67.92297,-44.25293
1770517749434,-0.9272461,-0.3408203,-0.13867188,2.6855469,4.0283203,1.159668,0.0,0.0,0.0,-115.20813,67.92297,-44.25293
1770517749509,-0.9355469,-0.34033203,-0.13427734,1.8920898,-2.1362305,2.6855469,13126.0,2829.0,793.0,-115.20813,67.92297,-44.25293
1770517749521,-0.9355469,-0.34033203,-0.13427734,1.8920898,-2.1362305,2.6855469,13126.0,2829.0,793.0,-115.4718,67.9834,-45.010986
1770517749533,-0.9355469,-0.34033203,-0.13427734,1.8920898,-2.1362305,2.6855469,0.0,0.0,0.0,-115.4718,67.9834,-45.010986
1770517749609,-0.9296875,-0.33496094,-0.140625,0.9765625,-3.2348633,1.8310547,13151.0,2868.0,788.0,-115.4718,67.9834,-45.010986
1770517749621,-0.9296875,-0.33496094,-0.140625,0.9765625,-3.2348633,1.8310547,13151.0,2868.0,788.0,-114.58191,68.33496,-44.544067
1770517749633,-0.9296875,-0.33496094,-0.140625,0.9765625,-3.2348633,1.8310547,0.0,0.0,0.0,-114.58191,68.33496,-44.544067
1770517749709,-0.9355469,-0.33691406,-0.13623047,-0.9765625,-1.4648438,0.12207031,13164.0,2839.0,755.0,-114.58191,68.33496,-44.544067
1770517749720,-0.9355469,-0.33691406,-0.13623047,-0.9765625,-1.4648438,0.12207031,13164.0,2839.0,755.0,-114.071045,68.51074,-44.154053
1770517749732,-0.9355469,-0.33691406,-0.13623047,-0.9765625,-1.4648438,0.12207031,0.0,0.0,0.0,-114.071045,68.51074,-44.154053
1770517749809,-0.9326172,-0.33642578,-0.13623047,-1.159668,-2.6855469,-0.30517578,13141.0,2834.0,759.0,-114.071045,68.51074,-44.154053
1770517749820,-0.9326172,-0.33642578,-0.13623047,-1.159668,-2.6855469,-0.30517578,13141.0,2834.0,759.0,-113.48328,68.58765,-43.604736
1770517749831,-0.9326172,-0.33642578,-0.13623047,-1.159668,-2.6855469,-0.30517578,0.0,0.0,0.0,-113.48328,68.58765,-43.604736
1770517749908,-0.9345703,-0.33496094,-0.12841797,-1.2817383,-3.2348633,-0.18310547,13148.0,2844.0,722.0,-113.48328,68.58765,-43.604736
1770517749920,-0.9345703,-0.33496094,-0.12841797,-1.2817383,-3.2348633,-0.18310547,13148.0,2844.0,722.0,-112.79114,68.670044,-42.86316
1770517749931,-0.9345703,-0.33496094,-0.12841797,-1.2817383,-3.2348633,-0.18310547,0.0,0.0,0.0,-112.79114,68.670044,-42.86316
1770517750008,-0.93652344,-0.33642578,-0.12695312,-1.7089844,-3.0517578,-0.12207031,13114.0,2850.0,713.0,-112.79114,68.670044,-42.86316
1770517750020,-0.93652344,-0.33642578,-0.12695312,-1.7089844,-3.0517578,-0.12207031,13114.0,2850.0,713.0,-112.05505,68.7854,-42.01172
1770517750031,-0.93652344,-0.33642578,-0.12695312,-1.7089844,-3.0517578,-0.12207031,0.0,0.0,0.0,-112.05505,68.7854,-42.01172
1770517750108,-0.93603516,-0.33496094,-0.12402344,-1.159668,-1.953125,0.0,13101.0,2847.0,677.0,-112.05505,68.7854,-42.01172
1770517750119,-0.93603516,-0.33496094,-0.12402344,-1.159668,-1.953125,0.0,13101.0,2847.0,677.0,-111.483765,68.85681,-41.358032
1770517750132,-0.93603516,-0.33496094,-0.12402344,-1.159668,-1.953125,0.0,0.0,0.0,0.0,-111.483765,68.85681,-41.358032
1770517750208,-0.9350586,-0.34277344,-0.12109375,-0.24414062,-0.18310547,-0.18310547,13076.0,2847.0,681.0,-111.483765,68.85681,-41.358032
1770517750219,-0.9350586,-0.34277344,-0.12109375,-0.24414062,-0.18310547,-0.18310547,13076.0,2847.0,681.0,-111.275024,68.90625,-41.09436
1770517750230,-0.9350586,-0.34277344,-0.12109375,-0.24414062,-0.18310547,-0.18310547,0.0,0.0,0.0,-111.275024,68.90625,-41.09436
1770517750307,-0.9345703,-0.33935547,-0.11328125,-1.5258789,-1.3427734,0.24414062,13046.0,2869.0,659.0,-111.275024,68.90625,-41.09436
1770517750319,-0.9345703,-0.33935547,-0.11328125,-1.5258789,-1.3427734,0.24414062,13046.0,2869.0,659.0,-111.18164,68.92822,-40.98999
1770517750336,-0.9345703,-0.33935547,-0.11328125,-1.5258789,-1.3427734,0.24414062,0.0,0.0,0.0,-111.18164,68.92822,-40.98999
1770517750407,-0.9326172,-0.34423828,-0.11035156,-2.1362305,-0.91552734,-0.48828125,13054.0,2872.0,641.0,-111.18164,68.92822,-40.98999
1770517750419,-0.9326172,-0.34423828,-0.11035156,-2.1362305,-0.91552734,-0.48828125,13054.0,2872.0,641.0,-110.93994,68.950195,-40.70984
1770517750430,-0.9326172,-0.34423828,-0.11035156,-2.1362305,-0.91552734,-0.48828125,0.0,0.0,0.0,-110.93994,68.950195,-40.70984
1770517750507,-0.9345703,-0.34423828,-0.111816406,-2.9296875,-1.8920898,-0.5493164,13061.0,2886.0,656.0,-110.93994,68.950195,-40.70984
1770517750518,-0.9345703,-0.34423828,-0.111816406,-2.9296875,-1.8920898,-0.5493164,13061.0,2886.0,656.0,-110.5719,68.933716,-40.22644
1770517750530,-0.9345703,-0.34423828,-0.111816406,-2.9296875,-1.8920898,-0.5493164,0.0,0.0,0.0,-110.5719,68.933716,-40.22644
1770517750606,-0.93310547,-0.34521484,-0.11328125,-4.333496,-1.5258789,-0.6713867,13062.0,2874.0,667.0,-110.5719,68.933716,-40.22644
1770517750618,-0.93310547,-0.34521484,-0.11328125,-4.333496,-1.5258789,-0.6713867,13062.0,2874.0,667.0,-110.35217,68.90076,-39.770508
1770517750629,-0.93310547,-0.34521484,-0.11328125,-4.333496,-1.5258789,-0.6713867,0.0,0.0,0.0,-110.35217,68.90076,-39.770508
1770517750706,-0.9345703,-0.34960938,-0.114746094,-4.0893555,-1.7089844,-0.61035156,13049.0,2914.0,673.0,-110.35217,68.90076,-39.770508
1770517750717,-0.9345703,-0.34960938,-0.114746094,-4.0893555,-1.7089844,-0.61035156,13049.0,2914.0,673.0,-110.0885,68.88428,-39.23767
1770517750729,-0.9345703,-0.34960938,-0.114746094,-4.0893555,-1.7089844,-0.61035156,0.0,0.0,0.0,-110.0885,68.88428,-39.23767
1770517750806,-0.93115234,-0.34765625,-0.10888672,-5.79834,-2.1972656,0.0,13018.0,2922.0,668.0,-110.0885,68.88428,-39.23767
1770517750817,-0.93115234,-0.34765625,-0.10888672,-5.79834,-2.1972656,0.0,13018.0,2922.0,668.0,-109.96216,68.89526,-38.721313
1770517750830,-0.93115234,-0.34765625,-0.10888672,-5.79834,-2.1972656,0.0,0.0,0.0,0.0,-109.96216,68.89526,-38.721313
1770517750905,-0.9291992,-0.3491211,-0.109375,-6.7749023,-2.5634766,0.36621094,12984.0,2948.0,684.0,-109.96216,68.89526,-38.721313
1770517750917,-0.9291992,-0.3491211,-0.109375,-6.7749023,-2.5634766,0.36621094,12984.0,2948.0,684.0,-109.86328,68.966675,-38.12256
1770517750928,-0.9291992,-0.3491211,-0.109375,-6.7749023,-2.5634766,0.36621094,0.0,0.0,0.0,-109.86328,68.966675,-38.12256
1770517751005,-0.93896484,-0.34326172,-0.11425781,-4.8217773,-3.112793,-0.12207031,12965.0,2969.0,703.0,-109.86328,68.966675,-38.12256
1770517751016,-0.93896484,-0.34326172,-0.11425781,-4.8217773,-3.112793,-0.12207031,12965.0,2969.0,703.0,-109.506226,69.054565,-37.287598
1770517751028,-0.93896484,-0.34326172,-0.11425781,-4.8217773,-3.112793,-0.12207031,0.0,0.0,0.0,-109.506226,69.054565,-37.287598
1770517751105,-0.93310547,-0.34765625,-0.11035156,-4.1503906,-1.4038086,-0.18310547,12952.0,3001.0,711.0,-109.506226,69.054565,-37.287598
1770517751116,-0.93310547,-0.34765625,-0.11035156,-4.1503906,-1.4038086,-0.18310547,12952.0,3001.0,711.0,-109.34143,69.04358,-36.776733
1770517751128,-0.93310547,-0.34765625,-0.11035156,-4.1503906,-1.4038086,-0.18310547,0.0,0.0,0.0,-109.34143,69.04358,-36.776733
1770517751204,-0.93408203,-0.3466797,-0.11425781,-5.1879883,-0.7324219,0.30517578,12936.0,3004.0,720.0,-109.34143,69.04358,-36.776733
1770517751216,-0.93408203,-0.3466797,-0.11425781,-5.1879883,-0.7324219,0.30517578,12936.0,3004.0,720.0,-109.56116,69.06006,-36.63391
1770517751227,-0.93408203,-0.3466797,-0.11425781,-5.1879883,-0.7324219,0.30517578,0.0,0.0,0.0,-109.56116,69.06006,-36.63391
1770517751304,-0.93408203,-0.34033203,-0.12207031,-5.493164,-1.3427734,0.9765625,12886.0,3031.0,739.0,-109.56116,69.06006,-36.63391
1770517751316,-0.93408203,-0.34033203,-0.12207031,-5.493164,-1.3427734,0.9765625,12886.0,3031.0,739.0,-109.79187,69.158936,-36.414185
1770517751327,-0.93408203,-0.34033203,-0.12207031,-5.493164,-1.3427734,0.9765625,0.0,0.0,0.0,-109.79187,69.158936,-36.414185
1770517751404,-0.93603516,-0.3413086,-0.119140625,-3.540039,-1.953125,0.79345703,12853.0,3048.0,794.0,-109.79187,69.158936,-36.414185
1770517751415,-0.93603516,-0.3413086,-0.119140625,-3.540039,-1.953125,0.79345703,12853.0,3048.0,794.0,-109.70398,69.263306,-35.980225
1770517751427,-0.93603516,-0.3413086,-0.119140625,-3.540039,-1.953125,0.79345703,0.0,0.0,0.0,-109.70398,69.263306,-35.980225
