timestamp,accX,accY,accZ,gyroX,gyroY,gyroZ,magX,magY,magZ,roll,pitch,yaw
1768998069372,-0.9526367,0.068847656,-0.28564453,0.0,0.061035156,0.0,0.0,0.0,0.0,167.76123,72.2406,-135.30762
1768998069384,-0.9526367,0.068847656,-0.28564453,0.0,0.061035156,0.0,0.0,0.0,0.0,167.60742,72.26807,-135.35706
1768998069472,-0.95751953,0.07128906,-0.28955078,-1.2817383,0.61035156,0.0,0.0,0.0,0.0,167.60742,72.26807,-135.35706
1768998069484,-0.95751953,0.07128906,-0.28955078,-1.2817383,0.61035156,0.0,0.0,0.0,0.0,167.4591,72.284546,-135.41199
1768998069573,-0.9589844,0.067871094,-0.28808594,0.12207031,-0.12207031,-0.36621094,0.0,0.0,0.0,167.4591,72.284546,-135.41199
1768998069584,-0.9589844,0.067871094,-0.28808594,0.12207031,-0.12207031,-0.36621094,0.0,0.0,0.0,167.39319,72.31201,-135.401
1768998069671,-0.95996094,0.07080078,-0.28857422,0.0,0.12207031,-0.30517578,0.0,0.0,0.0,167.39319,72.31201,-135.401
1768998069683,-0.95996094,0.07080078,-0.28857422,0.0,0.12207031,-0.30517578,0.0,0.0,0.0,167.48108,72.317505,-135.29114
1768998069771,-0.95654297,0.06933594,-0.28466797,0.30517578,-0.24414062,-0.30517578,0.0,0.0,0.0,167.48108,72.317505,-135.29114
1768998069783,-0.95654297,0.06933594,-0.28466797,0.30517578,-0.24414062,-0.30517578,0.0,0.0,0.0,167.56897,72.350464,-135.20874
1768998069871,-0.9584961,0.06933594,-0.28759766,0.0,-1.2207031,-0.18310547,0.0,0.0,0.0,167.56897,72.350464,-135.20874
1768998069883,-0.9584961,0.06933594,-0.28759766,0.0,-1.2207031,-0.18310547,0.0,0.0,0.0,167.58545,72.43286,-135.19775
1768998069971,-0.9580078,0.06640625,-0.28710938,0.12207031,-0.8544922,0.0,0.0,0.0,0.0,167.58545,72.43286,-135.19775
1768998069982,-0.9580078,0.06640625,-0.28710938,0.12207031,-0.8544922,0.0,0.0,0.0,0.0,167.7008,72.49878,-135.18677
1768998070071,-0.95947266,0.06591797,-0.29003906,0.12207031,-0.6713867,0.0,0.0,0.0,0.0,167.7008,72.49878,-135.18677
1768998070082,-0.95947266,0.06591797,-0.29003906,0.12207031,-0.6713867,0.0,0.0,0.0,0.0,167.72278,72.53174,-135.17578
1768998070170,-0.95947266,0.063964844,-0.29052734,0.061035156,-1.0986328,0.061035156,0.0,0.0,0.0,167.72278,72.53174,-135.17578
1768998070182,-0.95947266,0.063964844,-0.29052734,0.061035156,-1.0986328,0.061035156,0.0,0.0,0.0,167.76672,72.58118,-135.18677
1768998070270,-0.96191406,0.06542969,-0.28271484,-0.6713867,-0.91552734,-0.12207031,0.0,0.0,0.0,167.76672,72.58118,-135.18677
1768998070281,-0.96191406,0.06542969,-0.28271484,-0.6713867,-0.91552734,-0.12207031,0.0,0.0,0.0,167.81067,72.663574,-135.15381
1768998070370,-0.9614258,0.064453125,-0.28271484,0.0,-1.0986328,-0.24414062,0.0,0.0,0.0,167.81067,72.663574,-135.15381
1768998070381,-0.9614258,0.064453125,-0.28271484,0.0,-1.0986328,-0.24414062,0.0,0.0,0.0,167.84912,72.75696,-135.12634
1768998070469,-0.96191406,0.06298828,-0.27929688,0.79345703,-0.48828125,-0.61035156,0.0,0.0,0.0,167.84912,72.75696,-135.12634
1768998070481,-0.96191406,0.06298828,-0.27929688,0.79345703,-0.48828125,-0.61035156,0.0,0.0,0.0,168.01941,72.83386,-134.9945
1768998070569,-0.96435547,0.06298828,-0.28271484,0.061035156,0.12207031,-0.48828125,0.0,0.0,0.0,168.01941,72.83386,-134.9945
1768998070580,-0.96435547,0.06298828,-0.28271484,0.061035156,0.12207031,-0.48828125,0.0,0.0,0.0,168.20068,72.86682,-134.81873
1768998070669,-0.9628906,0.06298828,-0.28466797,1.6479492,2.0141602,-0.8544922,0.0,0.0,0.0,168.20068,72.86682,-134.81873
1768998070680,-0.9628906,0.06298828,-0.28466797,1.6479492,2.0141602,-0.8544922,0.0,0.0,0.0,168.56873,72.78992,-134.51111
1768998070768,-0.96484375,0.05908203,-0.28808594,-0.4272461,1.7089844,0.0,0.0,0.0,0.0,168.56873,72.78992,-134.51111
1768998070780,-0.96484375,0.05908203,-0.28808594,-0.4272461,1.7089844,0.0,0.0,0.0,0.0,168.77747,72.65808,-134.2749
1768998070868,-0.9609375,0.060546875,-0.28808594,0.061035156,1.5258789,0.48828125,0.0,0.0,0.0,168.77747,72.65808,-134.2749
1768998070880,-0.9609375,0.060546875,-0.28808594,0.061035156,1.5258789,0.48828125,0.0,0.0,0.0,168.88184,72.493286,-134.1925
1768998070968,-0.9560547,0.060546875,-0.28515625,0.36621094,1.2817383,0.36621094,0.0,0.0,0.0,168.88184,72.493286,-134.1925
1768998070979,-0.9560547,0.060546875,-0.28515625,0.36621094,1.2817383,0.36621094,0.0,0.0,0.0,168.82141,72.36145,-134.21997
1768998071067,-0.95947266,0.06298828,-0.29052734,0.12207031,1.4648438,0.4272461,0.0,0.0,0.0,168.82141,72.36145,-134.21997
1768998071079,-0.95947266,0.06298828,-0.29052734,0.12207031,1.4648438,0.4272461,0.0,0.0,0.0,168.6731,72.25159,-134.32434
1768998071167,-0.9584961,0.0625,-0.2944336,-0.061035156,2.0141602,0.30517578,0.0,0.0,0.0,168.6731,72.25159,-134.32434
1768998071179,-0.9584961,0.0625,-0.2944336,-0.061035156,2.0141602,0.30517578,0.0,0.0,0.0,168.59619,72.09778,-134.3573
1768998071267,-0.95214844,0.06347656,-0.29492188,-0.61035156,1.6479492,0.48828125,0.0,0.0,0.0,168.59619,72.09778,-134.3573
1768998071279,-0.95214844,0.06347656,-0.29492188,-0.61035156,1.6479492,0.48828125,0.0,0.0,0.0,168.57422,71.94397,-134.3628
1768998071367,-0.95703125,0.06298828,-0.29736328,0.9765625,1.159668,-0.12207031,0.0,0.0,0.0,168.57422,71.94397,-134.3628
1768998071378,-0.95703125,0.06298828,-0.29736328,0.9765625,1.159668,-0.12207031,0.0,0.0,0.0,168.54675,71.87256,-134.37927
1768998071466,-0.95654297,0.06542969,-0.29589844,0.0,1.7089844,-0.6713867,0.0,0.0,0.0,168.54675,71.87256,-134.37927
1768998071478,-0.95654297,0.06542969,-0.29589844,0.0,1.7089844,-0.6713867,0.0,0.0,0.0,168.7555,71.76819,-134.22546
1768998071566,-0.94628906,0.064941406,-0.2993164,2.746582,2.0751953,-0.4272461,0.0,0.0,0.0,168.7555,71.76819,-134.22546
1768998071577,-0.94628906,0.064941406,-0.2993164,2.746582,2.0751953,-0.4272461,0.0,0.0,0.0,169.16748,71.641846,-133.98376
1768998071666,-0.9501953,0.061523438,-0.30566406,2.8686523,-0.12207031,0.12207031,0.0,0.0,0.0,169.16748,71.641846,-133.98376
1768998071677,-0.9501953,0.061523438,-0.30566406,2.8686523,-0.12207031,0.12207031,0.0,0.0,0.0,169.40918,71.56494,-133.97278
1768998071765,-0.95751953,0.0625,-0.30517578,4.272461,0.12207031,0.7324219,0.0,0.0,0.0,169.40918,71.56494,-133.97278
1768998071777,-0.95751953,0.0625,-0.30517578,4.272461,0.12207031,0.7324219,0.0,0.0,0.0,169.3103,71.6803,-134.28589
1768998071865,-0.94873047,0.05908203,-0.30664062,3.2958984,1.6479492,1.0375977,0.0,0.0,0.0,169.3103,71.6803,-134.28589
1768998071877,-0.94873047,0.05908203,-0.30664062,3.2958984,1.6479492,1.0375977,0.0,0.0,0.0,169.30481,71.63635,-134.5935
1768998071965,-0.9550781,0.05810547,-0.30859375,-0.12207031,-1.3427734,2.0751953,0.0,0.0,0.0,169.30481,71.63635,-134.5935
1768998071976,-0.9550781,0.05810547,-0.30859375,-0.12207031,-1.3427734,2.0751953,0.0,0.0,0.0,169.09058,71.51001,-134.95056
1768998072065,-0.9477539,0.064941406,-0.2939453,1.4648438,-2.9907227,1.5258789,0.0,0.0,0.0,169.09058,71.51001,-134.95056
1768998072076,-0.9477539,0.064941406,-0.2939453,1.4648438,-2.9907227,1.5258789,0.0,0.0,0.0,168.7445,71.72974,-135.51636
1768998072164,-0.94921875,0.060058594,-0.30371094,1.4648438,-0.8544922,1.4648438,0.0,0.0,0.0,168.7445,71.72974,-135.51636
1768998072176,-0.94921875,0.060058594,-0.30371094,1.4648438,-0.8544922,1.4648438,0.0,0.0,0.0,168.79395,71.78467,-135.84045
1768998072264,-0.94921875,0.06542969,-0.30371094,2.6245117,-0.061035156,0.8544922,0.0,0.0,0.0,168.79395,71.78467,-135.84045
1768998072276,-0.94921875,0.06542969,-0.30371094,2.6245117,-0.061035156,0.8544922,0.0,0.0,0.0,168.47534,71.795654,-136.32935
1768998072364,-0.9589844,0.0703125,-0.31396484,3.6010742,-0.30517578,1.159668,0.0,0.0,0.0,168.47534,71.795654,-136.32935
1768998072376,-0.9589844,0.0703125,-0.31396484,3.6010742,-0.30517578,1.159668,0.0,0.0,0.0,168.68958,71.69678,-136.45569
1768998072463,-0.9482422,0.0703125,-0.3071289,6.1035156,0.9765625,1.953125,0.0,0.0,0.0,168.68958,71.69678,-136.45569
1768998072475,-0.9482422,0.0703125,-0.3071289,6.1035156,0.9765625,1.953125,0.0,0.0,0.0,168.72253,71.59241,-136.87866
1768998072563,-0.9458008,0.06347656,-0.30273438,9.094238,1.0375977,1.4038086,0.0,0.0,0.0,168.72253,71.59241,-136.87866
1768998072575,-0.9458008,0.06347656,-0.30273438,9.094238,1.0375977,1.4038086,0.0,0.0,0.0,168.84888,71.48804,-137.43896
1768998072664,-0.953125,0.060546875,-0.30859375,5.126953,-1.2817383,1.5258789,0.0,0.0,0.0,168.84888,71.48804,-137.43896
1768998072674,-0.953125,0.060546875,-0.30859375,5.126953,-1.2817383,1.5258789,0.0,0.0,0.0,169.00818,71.47156,-137.86743
1768998072763,-0.9477539,0.07080078,-0.3022461,2.1362305,-2.8686523,-0.061035156,0.0,0.0,0.0,169.00818,71.47156,-137.86743
1768998072774,-0.9477539,0.07080078,-0.3022461,2.1362305,-2.8686523,-0.061035156,0.0,0.0,0.0,168.78845,71.71875,-138.19702
1768998072863,-0.9448242,0.061035156,-0.29345703,17.333984,2.9296875,-2.9907227,0.0,0.0,0.0,168.78845,71.71875,-138.19702
1768998072874,-0.9448242,0.061035156,-0.29345703,17.333984,2.9296875,-2.9907227,0.0,0.0,0.0,169.82666,71.82312,-137.818
1768998072962,-0.953125,0.0703125,-0.3100586,6.164551,1.7089844,-1.159668,0.0,0.0,0.0,169.82666,71.82312,-137.818
1768998072973,-0.953125,0.0703125,-0.3100586,6.164551,1.7089844,-1.159668,0.0,0.0,0.0,169.6289,71.92749,-138.00476
1768998073062,-0.94873047,0.061035156,-0.31884766,2.8686523,-0.4272461,-1.2207031,0.0,0.0,0.0,169.6289,71.92749,-138.00476
1768998073073,-0.94873047,0.061035156,-0.31884766,2.8686523,-0.4272461,-1.2207031,0.0,0.0,0.0,170.354,71.83411,-137.45544
1768998073161,-0.9506836,0.047851562,-0.2998047,3.4179688,1.3427734,-2.1362305,0.0,0.0,0.0,170.354,71.83411,-137.45544
1768998073173,-0.9506836,0.047851562,-0.2998047,3.4179688,1.3427734,-2.1362305,0.0,0.0,0.0,170.89783,71.779175,-136.9226
1768998073261,-0.95214844,0.045898438,-0.2993164,-0.48828125,1.159668,-1.8920898,0.0,0.0,0.0,170.89783,71.779175,-136.9226
1768998073277,-0.95214844,0.045898438,-0.2993164,-0.48828125,1.159668,-1.8920898,0.0,0.0,0.0,172.24915,71.641846,-135.77454
1768998073361,-0.9536133,0.040039062,-0.3173828,-5.859375,-0.24414062,-1.0375977,0.0,0.0,0.0,172.24915,71.641846,-135.77454
1768998073372,-0.9536133,0.040039062,-0.3173828,-5.859375,-0.24414062,-1.0375977,0.0,0.0,0.0,171.83716,71.72974,-135.48889
1768998073461,-0.953125,0.051757812,-0.3076172,1.4648438,3.540039,-2.6855469,0.0,0.0,0.0,171.83716,71.72974,-135.48889
1768998073476,-0.953125,0.051757812,-0.3076172,1.4648438,3.540039,-2.6855469,0.0,0.0,0.0,171.76025,71.69678,-134.93408
1768998073561,-0.9526367,0.048339844,-0.31054688,-1.4648438,3.8452148,-2.5634766,0.0,0.0,0.0,171.76025,71.69678,-134.93408
1768998073572,-0.9526367,0.048339844,-0.31054688,-1.4648438,3.8452148,-2.5634766,0.0,0.0,0.0,172.35901,71.433105,-134.04968
1768998073661,-0.9375,0.04296875,-0.3095703,-2.5024414,2.8076172,-1.5258789,0.0,0.0,0.0,172.35901,71.433105,-134.04968
1768998073672,-0.9375,0.04296875,-0.3095703,-2.5024414,2.8076172,-1.5258789,0.0,0.0,0.0,172.89185,71.13098,-133.2312
1768998073761,-0.95166016,0.046875,-0.3227539,1.2817383,3.2958984,-2.1362305,0.0,0.0,0.0,172.89185,71.13098,-133.2312
1768998073771,-0.95166016,0.046875,-0.3227539,1.2817383,3.2958984,-2.1362305,0.0,0.0,0.0,172.98523,70.90027,-132.74231
1768998073859,-0.95214844,0.05029297,-0.3256836,-1.8920898,2.0141602,-0.91552734,0.0,0.0,0.0,172.98523,70.90027,-132.74231
1768998073871,-0.95214844,0.05029297,-0.3256836,-1.8920898,2.0141602,-0.91552734,0.0,0.0,0.0,173.34229,70.686035,-132.28638
1768998073959,-0.9423828,0.03857422,-0.33007812,-0.91552734,2.6855469,-0.7324219,0.0,0.0,0.0,173.34229,70.686035,-132.28638
1768998073971,-0.9423828,0.03857422,-0.33007812,-0.91552734,2.6855469,-0.7324219,0.0,0.0,0.0,173.76526,70.42786,-131.89636
1768998074059,-0.94433594,0.03515625,-0.33496094,-0.24414062,1.2817383,0.0,0.0,0.0,0.0,173.76526,70.42786,-131.89636
1768998074071,-0.94433594,0.03515625,-0.33496094,-0.24414062,1.2817383,0.0,0.0,0.0,0.0,173.96301,70.21912,-131.72058
1768998074159,-0.9472656,0.041503906,-0.35791016,-2.319336,2.1972656,0.30517578,0.0,0.0,0.0,173.96301,70.21912,-131.72058
1768998074170,-0.9472656,0.041503906,-0.35791016,-2.319336,2.1972656,0.30517578,0.0,0.0,0.0,173.94653,70.04883,-131.63818
1768998074258,-0.9301758,0.037597656,-0.3540039,-0.24414062,4.0893555,0.061035156,0.0,0.0,0.0,173.94653,70.04883,-131.63818
1768998074270,-0.9301758,0.037597656,-0.3540039,-0.24414062,4.0893555,0.061035156,0.0,0.0,0.0,173.76526,69.69177,-131.63818
1768998074358,-0.92871094,0.048828125,-0.35742188,-9.70459,7.2631836,2.319336,0.0,0.0,0.0,173.76526,69.69177,-131.63818
1768998074369,-0.92871094,0.048828125,-0.35742188,-9.70459,7.2631836,2.319336,0.0,0.0,0.0,172.99622,69.12598,-131.83044
1768998074458,-0.94091797,0.06542969,-0.39208984,-0.9765625,8.7890625,-0.8544922,0.0,0.0,0.0,172.99622,69.12598,-131.83044
1768998074469,-0.94091797,0.06542969,-0.39208984,-0.9765625,8.7890625,-0.8544922,0.0,0.0,0.0,173.54004,68.186646,-131.48438
1768998074557,-0.9135742,0.037109375,-0.36621094,2.6855469,4.3945312,1.0375977,0.0,0.0,0.0,173.54004,68.186646,-131.48438
1768998074569,-0.9135742,0.037109375,-0.36621094,2.6855469,4.3945312,1.0375977,0.0,0.0,0.0,173.37524,67.857056,-131.53381
1768998074657,-0.9194336,0.07421875,-0.37548828,-4.8828125,2.6855469,2.2583008,0.0,0.0,0.0,173.37524,67.857056,-131.53381
1768998074670,-0.9194336,0.07421875,-0.37548828,-4.8828125,2.6855469,2.2583008,0.0,0.0,0.0,171.44165,67.69226,-132.57751
1768998074757,-0.92285156,0.052734375,-0.3720703,-4.8828125,1.3427734,3.112793,0.0,0.0,0.0,171.44165,67.69226,-132.57751
1768998074768,-0.92285156,0.052734375,-0.3720703,-4.8828125,1.3427734,3.112793,0.0,0.0,0.0,170.50232,67.51099,-133.22571
1768998074857,-0.9135742,0.060546875,-0.37353516,-2.5024414,-0.30517578,3.540039,0.0,0.0,0.0,170.50232,67.51099,-133.22571
1768998074868,-0.9135742,0.060546875,-0.37353516,-2.5024414,-0.30517578,3.540039,0.0,0.0,0.0,168.84888,67.40662,-134.20898
1768998074957,-0.9243164,0.09423828,-0.37597656,-15.625,-4.1503906,2.8076172,0.0,0.0,0.0,168.84888,67.40662,-134.20898
1768998074968,-0.9243164,0.09423828,-0.37597656,-15.625,-4.1503906,2.8076172,0.0,0.0,0.0,167.07458,67.648315,-135.08789
1768998075056,-0.9296875,0.09863281,-0.35546875,-5.493164,0.36621094,0.061035156,0.0,0.0,0.0,167.07458,67.648315,-135.08789
1768998075067,-0.9296875,0.09863281,-0.35546875,-5.493164,0.36621094,0.061035156,0.0,0.0,0.0,165.82214,67.7417,-135.52734
1768998075156,-0.9399414,0.13183594,-0.37841797,-11.169434,0.4272461,-0.061035156,0.0,0.0,0.0,165.82214,67.7417,-135.52734
1768998075167,-0.9399414,0.13183594,-0.37841797,-11.169434,0.4272461,-0.061035156,0.0,0.0,0.0,164.87183,67.8241,-135.68665
1768998075255,-0.93359375,0.11279297,-0.3647461,-3.112793,0.12207031,-2.1972656,0.0,0.0,0.0,164.87183,67.8241,-135.68665
1768998075267,-0.93359375,0.11279297,-0.3647461,-3.112793,0.12207031,-2.1972656,0.0,0.0,0.0,165.19592,67.83508,-135.36255
1768998075355,-0.9301758,0.103515625,-0.36132812,2.0141602,-1.3427734,-2.319336,0.0,0.0,0.0,165.19592,67.83508,-135.36255
1768998075367,-0.9301758,0.103515625,-0.36132812,2.0141602,-1.3427734,-2.319336,0.0,0.0,0.0,165.75623,67.97241,-135.06592
1768998075455,-0.92041016,0.09716797,-0.36132812,0.61035156,-1.6479492,-1.2817383,0.0,0.0,0.0,165.75623,67.97241,-135.06592
1768998075467,-0.92041016,0.09716797,-0.36132812,0.61035156,-1.6479492,-1.2817383,0.0,0.0,0.0,166.22314,68.12622,-134.92859
1768998075555,-0.92871094,0.099609375,-0.34375,1.0986328,-0.91552734,-0.79345703,0.0,0.0,0.0,166.22314,68.12622,-134.92859
1768998075566,-0.92871094,0.099609375,-0.34375,1.0986328,-0.91552734,-0.79345703,0.0,0.0,0.0,166.54175,68.28552,-134.95056
1768998075654,-0.92871094,0.07763672,-0.35107422,8.422852,-0.36621094,-0.5493164,0.0,0.0,0.0,166.54175,68.28552,-134.95056
1768998075666,-0.92871094,0.07763672,-0.35107422,8.422852,-0.36621094,-0.5493164,0.0,0.0,0.0,167.04712,68.40637,-135.11536
1768998075754,-0.92822266,0.072265625,-0.3515625,6.4086914,-0.48828125,-1.0375977,0.0,0.0,0.0,167.04712,68.40637,-135.11536
1768998075766,-0.92822266,0.072265625,-0.3515625,6.4086914,-0.48828125,-1.0375977,0.0,0.0,0.0,167.64038,68.50525,-135.12634
1768998075854,-0.9370117,0.092285156,-0.36328125,-1.159668,-1.8920898,0.48828125,0.0,0.0,0.0,167.64038,68.50525,-135.12634
1768998075865,-0.9370117,0.092285156,-0.36328125,-1.159668,-1.8920898,0.48828125,0.0,0.0,0.0,167.7832,68.65906,-135.1593
1768998075954,-0.94189453,0.091796875,-0.34570312,-1.5258789,0.12207031,-0.061035156,0.0,0.0,0.0,167.7832,68.65906,-135.1593
1768998075965,-0.94189453,0.091796875,-0.34570312,-1.5258789,0.12207031,-0.061035156,0.0,0.0,0.0,167.83264,68.757935,-135.34058
1768998076054,-0.91845703,0.04248047,-0.33789062,8.361816,3.6621094,-0.7324219,0.0,0.0,0.0,167.83264,68.757935,-135.34058
1768998076065,-0.91845703,0.04248047,-0.33789062,8.361816,3.6621094,-0.7324219,0.0,0.0,0.0,168.39294,68.64807,-135.19775
1768998076153,-0.9482422,0.09472656,-0.36865234,8.300781,3.6621094,-0.7324219,0.0,0.0,0.0,168.39294,68.64807,-135.19775
1768998076164,-0.9482422,0.09472656,-0.36865234,8.300781,3.6621094,-0.7324219,0.0,0.0,0.0,169.14551,68.5437,-134.58252
1768998076253,-0.93359375,0.064453125,-0.36914062,-9.521484,0.30517578,1.3427734,0.0,0.0,0.0,169.14551,68.5437,-134.58252
1768998076264,-0.93359375,0.064453125,-0.36914062,-9.521484,0.30517578,1.3427734,0.0,0.0,0.0,169.29932,68.15918,-134.7638
1768998076352,-0.9267578,0.06933594,-0.35351562,-1.6479492,-0.061035156,4.0283203,0.0,0.0,0.0,169.29932,68.15918,-134.7638
1768998076364,-0.9267578,0.06933594,-0.35351562,-1.6479492,-0.061035156,4.0283203,0.0,0.0,0.0,168.49731,68.219604,-135.23071
1768998076452,-0.9370117,0.076660156,-0.3388672,0.7324219,-1.2817383,1.2817383,0.0,0.0,0.0,168.49731,68.219604,-135.23071
1768998076464,-0.9370117,0.076660156,-0.3388672,0.7324219,-1.2817383,1.2817383,0.0,0.0,0.0,167.28333,68.28552,-136.23596
1768998076552,-0.9428711,0.096191406,-0.3618164,-2.4414062,-0.24414062,-1.4648438,0.0,0.0,0.0,167.28333,68.28552,-136.23596
1768998076563,-0.9428711,0.096191406,-0.3618164,-2.4414062,-0.24414062,-1.4648438,0.0,0.0,0.0,166.77795,68.42285,-136.43921
1768998076651,-0.9291992,0.07910156,-0.3623047,-7.8125,-0.18310547,-1.0986328,0.0,0.0,0.0,166.77795,68.42285,-136.43921
1768998076663,-0.9291992,0.07910156,-0.3623047,-7.8125,-0.18310547,-1.0986328,0.0,0.0,0.0,166.94824,68.47229,-135.99976
1768998076752,-0.9277344,0.08984375,-0.34716797,-1.8920898,2.8076172,-0.9765625,0.0,0.0,0.0,166.94824,68.47229,-135.99976
1768998076763,-0.9277344,0.08984375,-0.34716797,-1.8920898,2.8076172,-0.9765625,0.0,0.0,0.0,166.9812,68.37891,-135.49438
1768998076851,-0.9326172,0.099609375,-0.36035156,0.5493164,3.0517578,0.79345703,0.0,0.0,0.0,166.9812,68.37891,-135.49438
1768998076863,-0.9326172,0.099609375,-0.36035156,0.5493164,3.0517578,0.79345703,0.0,0.0,0.0,166.23413,68.219604,-135.73059
1768998076951,-0.93359375,0.107421875,-0.36035156,-4.1503906,0.7324219,3.90625,0.0,0.0,0.0,166.23413,68.219604,-135.73059
1768998076962,-0.93359375,0.107421875,-0.36035156,-4.1503906,0.7324219,3.90625,0.0,0.0,0.0,165.0476,68.010864,-136.64795
1768998077050,-0.9223633,0.12109375,-0.359375,0.9765625,2.0141602,0.7324219,0.0,0.0,0.0,165.0476,68.010864,-136.64795
1768998077062,-0.9223633,0.12109375,-0.359375,0.9765625,2.0141602,0.7324219,0.0,0.0,0.0,164.05334,67.8186,-137.4884
1768998077150,-0.9223633,0.107910156,-0.3491211,-2.0141602,0.24414062,-0.7324219,0.0,0.0,0.0,164.05334,67.8186,-137.4884
1768998077161,-0.9223633,0.107910156,-0.3491211,-2.0141602,0.24414062,-0.7324219,0.0,0.0,0.0,164.0918,67.83508,-137.58728
1768998077250,-0.9272461,0.12158203,-0.359375,-2.0751953,0.7324219,-1.4038086,0.0,0.0,0.0,164.0918,67.83508,-137.58728
1768998077261,-0.9272461,0.12158203,-0.359375,-2.0751953,0.7324219,-1.4038086,0.0,0.0,0.0,164.32251,67.87903,-137.44446
1768998077350,-0.93359375,0.09472656,-0.35546875,0.12207031,0.5493164,-2.746582,0.0,0.0,0.0,164.32251,67.87903,-137.44446
1768998077361,-0.93359375,0.09472656,-0.35546875,0.12207031,0.5493164,-2.746582,0.0,0.0,0.0,164.91028,67.873535,-136.98853
1768998077449,-0.9111328,0.110839844,-0.3647461,-0.9765625,1.2817383,-3.8452148,0.0,0.0,0.0,164.91028,67.873535,-136.98853
1768998077461,-0.9111328,0.110839844,-0.3647461,-0.9765625,1.2817383,-3.8452148,0.0,0.0,0.0,165.10803,68.04382,-136.43921
1768998077549,-0.92529297,0.09375,-0.359375,0.9765625,1.8920898,-6.225586,0.0,0.0,0.0,165.10803,68.04382,-136.43921
1768998077560,-0.92529297,0.09375,-0.359375,0.9765625,1.8920898,-6.225586,0.0,0.0,0.0,166.51978,68.04382,-135.19775
1768998077649,-0.93847656,0.08496094,-0.38134766,0.4272461,-0.30517578,-4.5166016,0.0,0.0,0.0,166.51978,68.04382,-135.19775
1768998077660,-0.93847656,0.08496094,-0.38134766,0.4272461,-0.30517578,-4.5166016,0.0,0.0,0.0,167.83264,68.12622,-133.90686
1768998077748,-0.9375,0.07080078,-0.37939453,-0.12207031,0.6713867,-2.746582,0.0,0.0,0.0,167.83264,68.12622,-133.90686
1768998077760,-0.9375,0.07080078,-0.37939453,-0.12207031,0.6713867,-2.746582,0.0,0.0,0.0,169.04663,68.14819,-132.88513
1768998077848,-0.9301758,0.06933594,-0.3852539,-0.30517578,1.3427734,-1.159668,0.0,0.0,0.0,169.04663,68.14819,-132.88513
1768998077860,-0.9301758,0.06933594,-0.3852539,-0.30517578,1.3427734,-1.159668,0.0,0.0,0.0,169.68384,68.082275,-132.36877
1768998077948,-0.9121094,0.06689453,-0.38232422,-1.2207031,-2.0751953,2.319336,0.0,0.0,0.0,169.68384,68.082275,-132.36877
1768998077959,-0.9121094,0.06689453,-0.38232422,-1.2207031,-2.0751953,2.319336,0.0,0.0,0.0,169.96948,68.00537,-132.28088
1768998078047,-0.9189453,0.056640625,-0.37060547,1.7700195,0.36621094,3.112793,0.0,0.0,0.0,169.96948,68.00537,-132.28088
1768998078059,-0.9189453,0.056640625,-0.37060547,1.7700195,0.36621094,3.112793,0.0,0.0,0.0,169.40918,67.93945,-133.09937
1768998078147,-0.94189453,0.044433594,-0.3647461,-5.859375,-0.24414062,2.6245117,0.0,0.0,0.0,169.40918,67.93945,-133.09937
1768998078159,-0.94189453,0.044433594,-0.3647461,-5.859375,-0.24414062,2.6245117,0.0,0.0,0.0,168.39294,67.8241,-133.98376
1768998078247,-0.9350586,0.06738281,-0.31933594,-12.573242,-5.554199,-0.36621094,0.0,0.0,0.0,168.39294,67.8241,-133.98376
1768998078258,-0.9350586,0.06738281,-0.31933594,-12.573242,-5.554199,-0.36621094,0.0,0.0,0.0,167.11304,68.26904,-134.2804
1768998078347,-0.9189453,0.14257812,-0.37109375,-15.50293,-6.286621,2.1362305,0.0,0.0,0.0,167.11304,68.26904,-134.2804
1768998078358,-0.9189453,0.14257812,-0.37109375,-15.50293,-6.286621,2.1362305,0.0,0.0,0.0,164.58069,68.56018,-134.68689
1768998078446,-0.94140625,0.09326172,-0.34228516,6.164551,-4.9438477,-1.6479492,0.0,0.0,0.0,164.58069,68.56018,-134.68689
1768998078458,-0.94140625,0.09326172,-0.34228516,6.164551,-4.9438477,-1.6479492,0.0,0.0,0.0,165.03113,69.11499,-134.7638
1768998078546,-0.9458008,0.08251953,-0.33398438,13.85498,-4.333496,-4.211426,0.0,0.0,0.0,165.03113,69.11499,-134.7638
1768998078558,-0.9458008,0.08251953,-0.33398438,13.85498,-4.333496,-4.211426,0.0,0.0,0.0,166.08032,69.697266,-134.54956
1768998078646,-0.9394531,0.08691406,-0.3334961,15.808105,-4.272461,-1.953125,0.0,0.0,0.0,166.08032,69.697266,-134.54956
1768998078658,-0.9394531,0.08691406,-0.3334961,15.808105,-4.272461,-1.953125,0.0,0.0,0.0,167.547,69.98291,-134.20349
1768998078745,-0.92626953,0.10205078,-0.3125,16.174316,-2.4414062,-1.953125,0.0,0.0,0.0,167.547,69.98291,-134.20349
1768998078757,-0.92626953,0.10205078,-0.3125,16.174316,-2.4414062,-1.953125,0.0,0.0,0.0,168.95874,70.41687,-134.26392
1768998078845,-0.9589844,0.063964844,-0.31103516,27.648926,0.0,3.6621094,0.0,0.0,0.0,168.95874,70.41687,-134.26392
1768998078857,-0.9589844,0.063964844,-0.31103516,27.648926,0.0,3.6621094,0.0,0.0,0.0,170.80444,70.52124,-134.87366
1768998078945,-0.95410156,0.03564453,-0.34228516,19.042969,-2.8076172,4.333496,0.0,0.0,0.0,170.80444,70.52124,-134.87366
1768998078957,-0.95410156,0.03564453,-0.34228516,19.042969,-2.8076172,4.333496,0.0,0.0,0.0,171.67786,70.58716,-136.06018
1768998079045,-0.93310547,0.021972656,-0.29833984,4.760742,-0.79345703,4.1503906,0.0,0.0,0.0,171.67786,70.58716,-136.06018
1768998079056,-0.93310547,0.021972656,-0.29833984,4.760742,-0.79345703,4.1503906,0.0,0.0,0.0,171.71082,70.75745,-137.05994
1768998079145,-0.9628906,0.028808594,-0.32666016,-4.0893555,-3.7231445,4.4555664,0.0,0.0,0.0,171.71082,70.75745,-137.05994
1768998079156,-0.9628906,0.028808594,-0.32666016,-4.0893555,-3.7231445,4.4555664,0.0,0.0,0.0,170.6726,70.90027,-137.76855
1768998079244,-0.9423828,0.057617188,-0.31152344,-11.59668,-3.112793,5.9814453,0.0,0.0,0.0,170.6726,70.90027,-137.76855
1768998079256,-0.9423828,0.057617188,-0.31152344,-11.59668,-3.112793,5.9814453,0.0,0.0,0.0,168.09631,71.257324,-139.1803
1768998079344,-0.9511719,0.091308594,-0.30810547,-11.352539,-1.6479492,3.7841797,0.0,0.0,0.0,168.09631,71.257324,-139.1803
1768998079355,-0.9511719,0.091308594,-0.30810547,-11.352539,-1.6479492,3.7841797,0.0,0.0,0.0,165.47058,71.312256,-140.48218
1768998079444,-0.93603516,0.103027344,-0.3125,-20.263672,-0.5493164,7.2021484,0.0,0.0,0.0,165.47058,71.312256,-140.48218
1768998079455,-0.93603516,0.103027344,-0.3125,-20.263672,-0.5493164,7.2021484,0.0,0.0,0.0,163.54248,71.119995,-141.24023
1768998079543,-0.92871094,0.10839844,-0.29003906,-6.652832,-0.8544922,3.112793,0.0,0.0,0.0,163.54248,71.119995,-141.24023
1768998079555,-0.92871094,0.10839844,-0.29003906,-6.652832,-0.8544922,3.112793,0.0,0.0,0.0,161.21887,71.14746,-142.52014
1768998079643,-0.9477539,0.11279297,-0.30517578,-16.235352,-3.479004,3.0517578,0.0,0.0,0.0,161.21887,71.14746,-142.52014
1768998079654,-0.9477539,0.11279297,-0.30517578,-16.235352,-3.479004,3.0517578,0.0,0.0,0.0,159.48853,71.19141,-143.48694
1768998079743,-0.9770508,0.1303711,-0.31054688,-7.9956055,-3.540039,4.211426,0.0,0.0,0.0,159.48853,71.19141,-143.48694
1768998079754,-0.9770508,0.1303711,-0.31054688,-7.9956055,-3.540039,4.211426,0.0,0.0,0.0,157.39014,71.21338,-144.68445
1768998079842,-0.95947266,0.13183594,-0.28955078,-6.0424805,-4.5776367,4.4555664,0.0,0.0,0.0,157.39014,71.21338,-144.68445
1768998079854,-0.95947266,0.13183594,-0.28955078,-6.0424805,-4.5776367,4.4555664,0.0,0.0,0.0,155.90149,71.152954,-145.83252
1768998079942,-0.9536133,0.14257812,-0.2631836,-0.9765625,-3.2348633,0.18310547,0.0,0.0,0.0,155.90149,71.152954,-145.83252
1768998079954,-0.9536133,0.14257812,-0.2631836,-0.9765625,-3.2348633,0.18310547,0.0,0.0,0.0,154.11621,71.47705,-147.20581
1768998080042,-0.9633789,0.13867188,-0.27246094,1.2207031,-2.6245117,-2.5024414,0.0,0.0,0.0,154.11621,71.47705,-147.20581
1768998080053,-0.9633789,0.13867188,-0.27246094,1.2207031,-2.6245117,-2.5024414,0.0,0.0,0.0,153.61084,71.8396,-147.52441
1768998080142,-0.95996094,0.15332031,-0.2763672,4.8217773,-4.8828125,-4.638672,0.0,0.0,0.0,153.61084,71.8396,-147.52441
1768998080153,-0.95996094,0.15332031,-0.2763672,4.8217773,-4.8828125,-4.638672,0.0,0.0,0.0,154.08875,72.3999,-147.17285
1768998080241,-0.9711914,0.10644531,-0.2548828,3.6010742,-1.4648438,-5.92041,0.0,0.0,0.0,154.08875,72.3999,-147.17285
1768998080253,-0.9711914,0.10644531,-0.2548828,3.6010742,-1.4648438,-5.92041,0.0,0.0,0.0,155.80261,72.784424,-146.15662
1768998080341,-0.9584961,0.1303711,-0.2578125,-3.3569336,-2.8686523,-6.164551,0.0,0.0,0.0,155.80261,72.784424,-146.15662
1768998080352,-0.9584961,0.1303711,-0.2578125,-3.3569336,-2.8686523,-6.164551,0.0,0.0,0.0,156.43982,73.377686,-145.06897
1768998080441,-0.9770508,0.09667969,-0.24414062,-2.746582,0.5493164,-5.3710938,0.0,0.0,0.0,156.43982,73.377686,-145.06897
1768998080452,-0.9770508,0.09667969,-0.24414062,-2.746582,0.5493164,-5.3710938,0.0,0.0,0.0,158.07129,73.71277,-143.28918
1768998080540,-0.9736328,0.115722656,-0.25634766,-5.7373047,1.4038086,-4.760742,0.0,0.0,0.0,158.07129,73.71277,-143.28918
1768998080552,-0.9736328,0.115722656,-0.25634766,-5.7373047,1.4038086,-4.760742,0.0,0.0,0.0,159.07654,73.77869,-141.71814
1768998080640,-0.9633789,0.109375,-0.24804688,-5.1879883,2.0141602,-4.699707,0.0,0.0,0.0,159.07654,73.77869,-141.71814
1768998080652,-0.9633789,0.109375,-0.24804688,-5.1879883,2.0141602,-4.699707,0.0,0.0,0.0,159.9939,73.82263,-140.20752
1768998080740,-0.9633789,0.10986328,-0.25439453,-2.5634766,1.7700195,-3.9672852,0.0,0.0,0.0,159.9939,73.82263,-140.20752
1768998080752,-0.9633789,0.10986328,-0.25439453,-2.5634766,1.7700195,-3.9672852,0.0,0.0,0.0,160.9552,73.78418,-138.80676
1768998080840,-0.95166016,0.111328125,-0.265625,0.61035156,2.0141602,-1.2207031,0.0,0.0,0.0,160.9552,73.78418,-138.80676
1768998080851,-0.95166016,0.111328125,-0.265625,0.61035156,2.0141602,-1.2207031,0.0,0.0,0.0,161.44958,73.70178,-137.99927
1768998080939,-0.9511719,0.13134766,-0.27539062,-3.0517578,-2.6245117,4.1503906,0.0,0.0,0.0,161.44958,73.70178,-137.99927
1768998080951,-0.9511719,0.13134766,-0.27539062,-3.0517578,-2.6245117,4.1503906,0.0,0.0,0.0,160.65308,73.635864,-138.8562
1768998081039,-0.9550781,0.12988281,-0.25683594,2.0751953,-2.9296875,7.6293945,0.0,0.0,0.0,160.65308,73.635864,-138.8562
1768998081051,-0.9550781,0.12988281,-0.25683594,2.0751953,-2.9296875,7.6293945,0.0,0.0,0.0,158.65906,73.55347,-141.28967
1768998081139,-0.9604492,0.14208984,-0.2602539,7.1411133,-3.3569336,9.521484,0.0,0.0,0.0,158.65906,73.55347,-141.28967
1768998081150,-0.9604492,0.14208984,-0.2602539,7.1411133,-3.3569336,9.521484,0.0,0.0,0.0,156.44531,73.4436,-144.44275
1768998081239,-0.9501953,0.14501953,-0.2529297,12.023926,-2.9907227,11.108398,0.0,0.0,0.0,156.44531,73.4436,-144.44275
1768998081250,-0.9501953,0.14501953,-0.2529297,12.023926,-2.9907227,11.108398,0.0,0.0,0.0,153.81409,73.22388,-148.28247
1768998081338,-0.9682617,0.125,-0.24707031,12.084961,-3.8452148,10.681152,0.0,0.0,0.0,153.81409,73.22388,-148.28247
1768998081350,-0.9682617,0.125,-0.24707031,12.084961,-3.8452148,10.681152,0.0,0.0,0.0,150.92468,73.01514,-152.45728
1768998081438,-0.98291016,0.09716797,-0.24707031,14.282227,-0.8544922,5.126953,0.0,0.0,0.0,150.92468,73.01514,-152.45728
1768998081450,-0.98291016,0.09716797,-0.24707031,14.282227,-0.8544922,5.126953,0.0,0.0,0.0,149.66125,72.83386,-155.05554
1768998081538,-0.99853516,0.088378906,-0.2680664,9.155273,-1.6479492,0.36621094,0.0,0.0,0.0,149.66125,72.83386,-155.05554
1768998081549,-0.99853516,0.088378906,-0.2680664,9.155273,-1.6479492,0.36621094,0.0,0.0,0.0,150.31494,72.93823,-155.46204
1768998081637,-0.96484375,0.1015625,-0.2607422,18.676758,-2.1362305,-3.7231445,0.0,0.0,0.0,150.31494,72.93823,-155.46204
1768998081649,-0.96484375,0.1015625,-0.2607422,18.676758,-2.1362305,-3.7231445,0.0,0.0,0.0,152.1991,73.15796,-154.42932
1768998081737,-0.9814453,0.11669922,-0.2548828,16.723633,-4.5166016,-6.164551,0.0,0.0,0.0,152.1991,73.15796,-154.42932
1768998081749,-0.9814453,0.11669922,-0.2548828,16.723633,-4.5166016,-6.164551,0.0,0.0,0.0,154.5282,73.72925,-153.23181
1768998081838,-0.98291016,0.08154297,-0.24951172,21.54541,-7.873535,-5.9814453,0.0,0.0,0.0,154.5282,73.72925,-153.23181
1768998081848,-0.98291016,0.08154297,-0.24951172,21.54541,-7.873535,-5.9814453,0.0,0.0,0.0,158.60962,74.39392,-151.01257
1768998081936,-0.9692383,0.092285156,-0.234375,28.930664,-0.8544922,-6.164551,0.0,0.0,0.0,158.60962,74.39392,-151.01257
1768998081948,-0.9692383,0.092285156,-0.234375,28.930664,-0.8544922,-6.164551,0.0,0.0,0.0,162.54822,75.03113,-148.84827
1768998082036,-0.96240234,0.05908203,-0.23925781,26.794434,-1.7700195,-5.2490234,0.0,0.0,0.0,162.54822,75.03113,-148.84827
1768998082048,-0.96240234,0.05908203,-0.23925781,26.794434,-1.7700195,-5.2490234,0.0,0.0,0.0,166.70105,75.234375,-146.8927
1768998082136,-0.9692383,0.0703125,-0.23876953,23.80371,-3.479004,-0.36621094,0.0,0.0,0.0,166.70105,75.234375,-146.8927
1768998082147,-0.9692383,0.0703125,-0.23876953,23.80371,-3.479004,-0.36621094,0.0,0.0,0.0,170.09033,75.59143,-145.48096
1768998082236,-0.9604492,0.013183594,-0.21435547,21.972656,-4.8217773,0.61035156,0.0,0.0,0.0,170.09033,75.59143,-145.48096
1768998082247,-0.9604492,0.013183594,-0.21435547,21.972656,-4.8217773,0.61035156,0.0,0.0,0.0,171.98547,75.88257,-145.55237
1768998082335,-0.97314453,0.03955078,-0.24951172,23.620605,-6.958008,-0.5493164,0.0,0.0,0.0,171.98547,75.88257,-145.55237
1768998082347,-0.97314453,0.03955078,-0.24951172,23.620605,-6.958008,-0.5493164,0.0,0.0,0.0,173.32031,76.57471,-145.62378
1768998082435,-0.98291016,0.03564453,-0.23632812,20.385742,-5.004883,2.5024414,0.0,0.0,0.0,173.32031,76.57471,-145.62378
1768998082446,-0.98291016,0.03564453,-0.23632812,20.385742,-5.004883,2.5024414,0.0,0.0,0.0,174.81995,77.003174,-145.6018
1768998082535,-0.98535156,0.05419922,-0.22753906,10.681152,-3.479004,5.004883,0.0,0.0,0.0,174.81995,77.003174,-145.6018
1768998082546,-0.98535156,0.05419922,-0.22753906,10.681152,-3.479004,5.004883,0.0,0.0,0.0,173.96301,77.34375,-147.23877
1768998082634,-0.98095703,0.045410156,-0.22607422,7.446289,0.91552734,4.9438477,0.0,0.0,0.0,173.96301,77.34375,-147.23877
1768998082646,-0.98095703,0.045410156,-0.22607422,7.446289,0.91552734,4.9438477,0.0,0.0,0.0,172.96875,77.22839,-148.75488
1768998082734,-0.97558594,0.037597656,-0.22753906,1.5869141,4.3945312,6.3476562,0.0,0.0,0.0,172.96875,77.22839,-148.75488
1768998082746,-0.97558594,0.037597656,-0.22753906,1.5869141,4.3945312,6.3476562,0.0,0.0,0.0,171.11755,76.79443,-150.46875
1768998082834,-0.9560547,0.075683594,-0.23388672,-6.8969727,3.7841797,6.652832,0.0,0.0,0.0,171.11755,76.79443,-150.46875
1768998082845,-0.9560547,0.075683594,-0.23388672,-6.8969727,3.7841797,6.652832,0.0,0.0,0.0,168.1128,76.18469,-152.37488
1768998082934,-0.98876953,0.068359375,-0.2290039,-16.113281,-5.9814453,8.178711,0.0,0.0,0.0,168.1128,76.18469,-152.37488
1768998082945,-0.98876953,0.068359375,-0.2290039,-16.113281,-5.9814453,8.178711,0.0,0.0,0.0,164.11926,76.11328,-154.7699
1768998083033,-0.9785156,0.072753906,-0.21533203,-9.765625,-4.1503906,2.6855469,0.0,0.0,0.0,164.11926,76.11328,-154.7699
1768998083045,-0.9785156,0.072753906,-0.21533203,-9.765625,-4.1503906,2.6855469,0.0,0.0,0.0,160.0653,76.44287,-156.91772
1768998083133,-0.97314453,0.067871094,-0.20117188,-8.300781,-2.1362305,-0.7324219,0.0,0.0,0.0,160.0653,76.44287,-156.91772
1768998083145,-0.97314453,0.067871094,-0.20117188,-8.300781,-2.1362305,-0.7324219,0.0,0.0,0.0,159.03809,76.640625,-156.64307
1768998083234,-0.9765625,0.06689453,-0.19384766,-2.9907227,-0.8544922,-3.9672852,0.0,0.0,0.0,159.03809,76.640625,-156.64307
1768998083244,-0.9765625,0.06689453,-0.19384766,-2.9907227,-0.8544922,-3.9672852,0.0,0.0,0.0,159.5105,76.865845,-155.10498
1768998083333,-1.0004883,0.079589844,-0.2133789,0.0,-3.2348633,-4.8217773,0.0,0.0,0.0,159.5105,76.865845,-155.10498
1768998083344,-1.0004883,0.079589844,-0.2133789,0.0,-3.2348633,-4.8217773,0.0,0.0,0.0,160.40039,77.25037,-153.35815
1768998083432,-0.97998047,0.071777344,-0.20458984,-3.4179688,-4.3945312,-3.112793,0.0,0.0,0.0,160.40039,77.25037,-153.35815
1768998083444,-0.97998047,0.071777344,-0.20458984,-3.4179688,-4.3945312,-3.112793,0.0,0.0,0.0,161.77917,77.700806,-151.66626
1768998083533,-0.9790039,0.05908203,-0.1772461,2.8686523,-0.9765625,-1.5869141,0.0,0.0,0.0,161.77917,77.700806,-151.66626
1768998083544,-0.9790039,0.05908203,-0.1772461,2.8686523,-0.9765625,-1.5869141,0.0,0.0,0.0,163.2843,77.95349,-150.19958
1768998083632,-0.98095703,0.04736328,-0.17919922,2.4414062,-3.1738281,0.0,0.0,0.0,0.0,163.2843,77.95349,-150.19958
1768998083643,-0.98095703,0.04736328,-0.17919922,2.4414062,-3.1738281,0.0,0.0,0.0,0.0,163.52051,78.19519,-149.89197
1768998083731,-0.98876953,0.03515625,-0.1796875,-2.9296875,-3.540039,1.2207031,0.0,0.0,0.0,163.52051,78.19519,-149.89197
1768998083744,-0.98876953,0.03515625,-0.1796875,-2.9296875,-3.540039,1.2207031,0.0,0.0,0.0,163.2074,78.51929,-150.06226
1768998083832,-0.9970703,0.024902344,-0.16699219,4.3945312,-2.746582,-3.2348633,0.0,0.0,0.0,163.2074,78.51929,-150.06226
1768998083842,-0.9970703,0.024902344,-0.16699219,4.3945312,-2.746582,-3.2348633,0.0,0.0,0.0,163.83362,78.881836,-149.26025
1768998083931,-0.98828125,9.765625E-4,-0.16113281,0.12207031,-1.3427734,-5.126953,0.0,0.0,0.0,163.83362,78.881836,-149.26025
1768998083942,-0.98828125,9.765625E-4,-0.16113281,0.12207031,-1.3427734,-5.126953,0.0,0.0,0.0,165.92651,79.19495,-146.74988
1768998084031,-0.99121094,-0.016113281,-0.16015625,-10.192871,0.24414062,-5.065918,0.0,0.0,0.0,165.92651,79.19495,-146.74988
1768998084042,-0.99121094,-0.016113281,-0.16015625,-10.192871,0.24414062,-5.065918,0.0,0.0,0.0,168.61267,79.48059,-143.15186
1768998084130,-0.9790039,-9.765625E-4,-0.16308594,-17.089844,2.2583008,-3.540039,0.0,0.0,0.0,168.61267,79.48059,-143.15186
1768998084142,-0.9790039,-9.765625E-4,-0.16308594,-17.089844,2.2583008,-3.540039,0.0,0.0,0.0,170.34851,79.50806,-139.69116
1768998084230,-0.9921875,0.009277344,-0.1743164,-22.033691,5.3100586,-1.0375977,0.0,0.0,0.0,170.34851,79.50806,-139.69116
1768998084242,-0.9921875,0.009277344,-0.1743164,-22.033691,5.3100586,-1.0375977,0.0,0.0,0.0,170.38147,79.30481,-137.43896
1768998084330,-0.9614258,0.06738281,-0.19335938,-26.97754,2.5024414,3.112793,0.0,0.0,0.0,170.38147,79.30481,-137.43896
1768998084341,-0.9614258,0.06738281,-0.19335938,-26.97754,2.5024414,3.112793,0.0,0.0,0.0,168.64563,78.65662,-136.98303
1768998084429,-0.9345703,0.15527344,-0.20703125,-17.456055,2.4414062,8.850098,0.0,0.0,0.0,168.64563,78.65662,-136.98303
1768998084441,-0.9345703,0.15527344,-0.20703125,-17.456055,2.4414062,8.850098,0.0,0.0,0.0,162.89429,78.30505,-140.3778
1768998084529,-0.98046875,0.10546875,-0.20800781,-9.521484,4.4555664,7.751465,0.0,0.0,0.0,162.89429,78.30505,-140.3778
1768998084541,-0.98046875,0.10546875,-0.20800781,-9.521484,4.4555664,7.751465,0.0,0.0,0.0,157.36267,77.60742,-145.10193
1768998084629,-0.9580078,0.13378906,-0.20410156,-19.28711,4.272461,4.211426,0.0,0.0,0.0,157.36267,77.60742,-145.10193
1768998084640,-0.9580078,0.13378906,-0.20410156,-19.28711,4.272461,4.211426,0.0,0.0,0.0,152.23206,76.94275,-148.49121
1768998084729,-0.98291016,0.11230469,-0.20117188,-4.8828125,1.2817383,-1.3427734,0.0,0.0,0.0,152.23206,76.94275,-148.49121
1768998084740,-0.98291016,0.11230469,-0.20117188,-4.8828125,1.2817383,-1.3427734,0.0,0.0,0.0,151.53992,76.8219,-148.76587
1768998084828,-0.9736328,0.13867188,-0.2133789,-14.953613,1.5258789,1.7700195,0.0,0.0,0.0,151.53992,76.8219,-148.76587
1768998084840,-0.9736328,0.13867188,-0.2133789,-14.953613,1.5258789,1.7700195,0.0,0.0,0.0,151.29272,76.45935,-148.45825
1768998084928,-0.9614258,0.13134766,-0.2084961,-1.953125,0.30517578,-2.319336,0.0,0.0,0.0,151.29272,76.45935,-148.45825
1768998084939,-0.9614258,0.13134766,-0.2084961,-1.953125,0.30517578,-2.319336,0.0,0.0,0.0,152.12769,76.239624,-147.62329
1768998085028,-0.96728516,0.1328125,-0.24121094,10.009766,1.159668,-4.4555664,0.0,0.0,0.0,152.12769,76.239624,-147.62329
1768998085039,-0.96728516,0.1328125,-0.24121094,10.009766,1.159668,-4.4555664,0.0,0.0,0.0,154.07227,76.21216,-146.44775
1768998085127,-0.9897461,0.107421875,-0.22802734,17.944336,1.0375977,-1.5869141,0.0,0.0,0.0,154.07227,76.21216,-146.44775
1768998085139,-0.9897461,0.107421875,-0.22802734,17.944336,1.0375977,-1.5869141,0.0,0.0,0.0,157.10999,76.173706,-145.14038
1768998085227,-0.9716797,0.096191406,-0.23339844,12.329102,1.4648438,1.8920898,0.0,0.0,0.0,157.10999,76.173706,-145.14038
1768998085238,-0.9716797,0.096191406,-0.23339844,12.329102,1.4648438,1.8920898,0.0,0.0,0.0,157.9779,75.997925,-145.67871
1768998085327,-0.98779297,-0.05419922,-0.18261719,6.286621,2.1972656,11.413574,0.0,0.0,0.0,157.9779,75.997925,-145.67871
1768998085338,-0.98779297,-0.05419922,-0.18261719,6.286621,2.1972656,11.413574,0.0,0.0,0.0,158.6206,75.6958,-146.93115
1768998085426,-0.9501953,0.10986328,-0.22949219,-8.544922,-3.9672852,-4.0283203,0.0,0.0,0.0,158.6206,75.6958,-146.93115
1768998085438,-0.9501953,0.10986328,-0.22949219,-8.544922,-3.9672852,-4.0283203,0.0,0.0,0.0,158.56567,75.84412,-146.94763
1768998085526,-0.96533203,0.09375,-0.22851562,-14.892578,-4.5166016,-6.286621,0.0,0.0,0.0,158.56567,75.84412,-146.94763
1768998085538,-0.96533203,0.09375,-0.22851562,-14.892578,-4.5166016,-6.286621,0.0,0.0,0.0,160.66406,76.32202,-144.3988
1768998085626,-0.9716797,0.07080078,-0.19873047,-0.9765625,2.5024414,-6.164551,0.0,0.0,0.0,160.66406,76.32202,-144.3988
1768998085638,-0.9716797,0.07080078,-0.19873047,-0.9765625,2.5024414,-6.164551,0.0,0.0,0.0,162.30652,76.712036,-142.42126
1768998085726,-0.98583984,0.068847656,-0.2084961,-2.9296875,2.9296875,-6.4697266,0.0,0.0,0.0,162.30652,76.712036,-142.42126
1768998085738,-0.98583984,0.068847656,-0.2084961,-2.9296875,2.9296875,-6.4697266,0.0,0.0,0.0,164.61365,76.76697,-139.91089
1768998085825,-0.9995117,0.05419922,-0.21972656,-2.8686523,6.164551,-2.0751953,0.0,0.0,0.0,164.61365,76.76697,-139.91089
1768998085837,-0.9995117,0.05419922,-0.21972656,-2.8686523,6.164551,-2.0751953,0.0,0.0,0.0,167.32178,76.3385,-137.13684
1768998085925,-0.97021484,0.03955078,-0.22851562,-4.333496,7.9956055,-3.7231445,0.0,0.0,0.0,167.32178,76.3385,-137.13684
1768998085936,-0.97021484,0.03955078,-0.22851562,-4.333496,7.9956055,-3.7231445,0.0,0.0,0.0,168.39294,75.76721,-135.79651
1768998086025,-1.0102539,-0.022949219,-0.25195312,-3.2348633,6.3476562,3.3569336,0.0,0.0,0.0,168.39294,75.76721,-135.79651
1768998086036,-1.0102539,-0.022949219,-0.25195312,-3.2348633,6.3476562,3.3569336,0.0,0.0,0.0,169.91455,74.98718,-134.25293
1768998086124,-0.93359375,0.08496094,-0.25390625,-17.822266,-0.12207031,-3.7231445,0.0,0.0,0.0,169.91455,74.98718,-134.25293
1768998086136,-0.93359375,0.08496094,-0.25390625,-17.822266,-0.12207031,-3.7231445,0.0,0.0,0.0,169.90356,75.04761,-132.62695
1768998086225,-0.9609375,0.046875,-0.3100586,-6.286621,-4.3945312,3.4179688,0.0,0.0,0.0,169.90356,75.04761,-132.62695
1768998086236,-0.9609375,0.046875,-0.3100586,-6.286621,-4.3945312,3.4179688,0.0,0.0,0.0,169.83765,74.94324,-132.2644
1768998086324,-0.95410156,0.052246094,-0.25048828,2.5634766,-1.7700195,0.5493164,0.0,0.0,0.0,169.83765,74.94324,-132.2644
1768998086335,-0.95410156,0.052246094,-0.25048828,2.5634766,-1.7700195,0.5493164,0.0,0.0,0.0,169.02466,75.00366,-133.0774
1768998086423,-0.96875,0.057128906,-0.2524414,5.79834,4.760742,2.5634766,0.0,0.0,0.0,169.02466,75.00366,-133.0774
1768998086435,-0.96875,0.057128906,-0.2524414,5.79834,4.760742,2.5634766,0.0,0.0,0.0,168.85986,74.91028,-133.69263
1768998086523,-0.9863281,0.09277344,-0.26611328,-6.8359375,3.2348633,5.004883,0.0,0.0,0.0,168.85986,74.91028,-133.69263
1768998086535,-0.9863281,0.09277344,-0.26611328,-6.8359375,3.2348633,5.004883,0.0,0.0,0.0,168.12927,74.08081,-134.69238
1768998086623,-0.9692383,0.04345703,-0.27490234,-10.925293,2.6245117,3.6010742,0.0,0.0,0.0,168.12927,74.08081,-134.69238
1768998086635,-0.9692383,0.04345703,-0.27490234,-10.925293,2.6245117,3.6010742,0.0,0.0,0.0,167.36572,73.47656,-135.59326
1768998086723,-0.9536133,0.057128906,-0.25878906,-3.90625,3.6621094,-0.91552734,0.0,0.0,0.0,167.36572,73.47656,-135.59326
1768998086734,-0.9536133,0.057128906,-0.25878906,-3.90625,3.6621094,-0.91552734,0.0,0.0,0.0,166.70105,73.13049,-135.66467
1768998086822,-0.9614258,0.07519531,-0.29345703,-3.8452148,1.3427734,-2.5634766,0.0,0.0,0.0,166.70105,73.13049,-135.66467
1768998086834,-0.9614258,0.07519531,-0.29345703,-3.8452148,1.3427734,-2.5634766,0.0,0.0,0.0,166.60767,73.081055,-135.2472
1768998086922,-0.9584961,0.06689453,-0.28173828,-3.112793,0.5493164,-4.3945312,0.0,0.0,0.0,166.60767,73.081055,-135.2472
1768998086934,-0.9584961,0.06689453,-0.28173828,-3.112793,0.5493164,-4.3945312,0.0,0.0,0.0,167.44812,73.125,-134.09363
1768998087022,-0.9604492,0.06640625,-0.28759766,-7.3242188,-2.9907227,-2.9907227,0.0,0.0,0.0,167.44812,73.125,-134.09363
1768998087034,-0.9604492,0.06640625,-0.28759766,-7.3242188,-2.9907227,-2.9907227,0.0,0.0,0.0,168.07983,73.33374,-133.1543
1768998087121,-0.96191406,0.0546875,-0.28955078,-4.0283203,-0.91552734,-3.2348633,0.0,0.0,0.0,168.07983,73.33374,-133.1543
1768998087133,-0.96191406,0.0546875,-0.28955078,-4.0283203,-0.91552734,-3.2348633,0.0,0.0,0.0,169.26636,73.361206,-131.9458
1768998087221,-0.9667969,0.045898438,-0.29589844,-5.92041,-0.30517578,-0.6713867,0.0,0.0,0.0,169.26636,73.361206,-131.9458
1768998087233,-0.9667969,0.045898438,-0.29589844,-5.92041,-0.30517578,-0.6713867,0.0,0.0,0.0,169.50256,73.35022,-131.43494
1768998087321,-0.95458984,0.05126953,-0.29589844,-3.4179688,-0.79345703,-1.0986328,0.0,0.0,0.0,169.50256,73.35022,-131.43494
1768998087332,-0.95458984,0.05126953,-0.29589844,-3.4179688,-0.79345703,-1.0986328,0.0,0.0,0.0,169.53552,73.29529,-131.21521
1768998087421,-0.9741211,0.056640625,-0.28808594,-3.0517578,-2.9296875,-1.0986328,0.0,0.0,0.0,169.53552,73.29529,-131.21521
1768998087432,-0.9741211,0.056640625,-0.28808594,-3.0517578,-2.9296875,-1.0986328,0.0,0.0,0.0,169.53552,73.43262,-131.08887
1768998087520,-0.9638672,0.053710938,-0.2709961,-3.3569336,-0.8544922,-0.48828125,0.0,0.0,0.0,169.53552,73.43262,-131.08887
1768998087532,-0.9638672,0.053710938,-0.2709961,-3.3569336,-0.8544922,-0.48828125,0.0,0.0,0.0,169.45862,73.55347,-131.07788
1768998087620,-0.9658203,0.056152344,-0.27929688,-5.065918,0.12207031,0.12207031,0.0,0.0,0.0,169.45862,73.55347,-131.07788
1768998087632,-0.9658203,0.056152344,-0.27929688,-5.065918,0.12207031,0.12207031,0.0,0.0,0.0,169.26086,73.515015,-131.13281
1768998087720,-0.9638672,0.061523438,-0.28222656,-3.9672852,-0.6713867,0.79345703,0.0,0.0,0.0,169.26086,73.515015,-131.13281
1768998087731,-0.9638672,0.061523438,-0.28222656,-3.9672852,-0.6713867,0.79345703,0.0,0.0,0.0,168.8269,73.515015,-131.4624
1768998087819,-0.95654297,0.053222656,-0.28173828,0.0,2.0751953,-0.61035156,0.0,0.0,0.0,168.8269,73.515015,-131.4624
1768998087831,-0.95654297,0.053222656,-0.28173828,0.0,2.0751953,-0.61035156,0.0,0.0,0.0,168.83789,73.38867,-131.60522
1768998087919,-0.9682617,0.052246094,-0.29345703,-0.18310547,-1.8310547,0.6713867,0.0,0.0,0.0,168.83789,73.38867,-131.60522
1768998087931,-0.9682617,0.052246094,-0.29345703,-0.18310547,-1.8310547,0.6713867,0.0,0.0,0.0,168.76099,73.33374,-131.84692
1768998088019,-0.9663086,0.06201172,-0.29003906,-0.36621094,-3.2348633,1.5869141,0.0,0.0,0.0,168.76099,73.33374,-131.84692
1768998088030,-0.9663086,0.06201172,-0.29003906,-0.36621094,-3.2348633,1.5869141,0.0,0.0,0.0,168.53577,73.465576,-132.37976
1768998088118,-0.9638672,0.051757812,-0.26953125,0.79345703,-0.18310547,1.159668,0.0,0.0,0.0,168.53577,73.465576,-132.37976
1768998088130,-0.9638672,0.051757812,-0.26953125,0.79345703,-0.18310547,1.159668,0.0,0.0,0.0,168.00842,73.62488,-133.0774
1768998088218,-0.9692383,0.061523438,-0.2607422,-0.48828125,1.3427734,0.9765625,0.0,0.0,0.0,168.00842,73.62488,-133.0774
1768998088230,-0.9692383,0.061523438,-0.2607422,-0.48828125,1.3427734,0.9765625,0.0,0.0,0.0,167.52502,73.56995,-133.66516
1768998088318,-0.96728516,0.06738281,-0.27490234,-2.6245117,-0.061035156,1.5869141,0.0,0.0,0.0,167.52502,73.56995,-133.66516
1768998088330,-0.96728516,0.06738281,-0.27490234,-2.6245117,-0.061035156,1.5869141,0.0,0.0,0.0,167.31079,73.498535,-133.99475
1768998088418,-0.953125,0.0625,-0.26513672,-1.2817383,-0.24414062,1.3427734,0.0,0.0,0.0,167.31079,73.498535,-133.99475
1768998088429,-0.953125,0.0625,-0.26513672,-1.2817383,-0.24414062,1.3427734,0.0,0.0,0.0,166.745,73.482056,-134.58801
1768998088517,-0.97021484,0.06738281,-0.27783203,-1.2817383,-0.61035156,1.2207031,0.0,0.0,0.0,166.745,73.482056,-134.58801
1768998088529,-0.97021484,0.06738281,-0.27783203,-1.2817383,-0.61035156,1.2207031,0.0,0.0,0.0,166.20667,73.498535,-135.14282
1768998088617,-0.9658203,0.075683594,-0.27978516,-0.48828125,-0.48828125,0.7324219,0.0,0.0,0.0,166.20667,73.498535,-135.14282
1768998088629,-0.9658203,0.075683594,-0.27978516,-0.48828125,-0.48828125,0.7324219,0.0,0.0,0.0,165.75623,73.50952,-135.60425
1768998088717,-0.96435547,0.06738281,-0.27441406,-0.5493164,-1.5869141,0.8544922,0.0,0.0,0.0,165.75623,73.50952,-135.60425
1768998088729,-0.96435547,0.06738281,-0.27441406,-0.5493164,-1.5869141,0.8544922,0.0,0.0,0.0,165.60791,73.515015,-135.95032
1768998088816,-0.96533203,0.071777344,-0.27294922,-0.12207031,-0.7324219,0.7324219,0.0,0.0,0.0,165.60791,73.515015,-135.95032
1768998088828,-0.96533203,0.071777344,-0.27294922,-0.12207031,-0.7324219,0.7324219,0.0,0.0,0.0,165.36621,73.586426,-136.34583
1768998088916,-0.9628906,0.078125,-0.27392578,-0.5493164,0.061035156,0.9765625,0.0,0.0,0.0,165.36621,73.586426,-136.34583
1768998088928,-0.9628906,0.078125,-0.27392578,-0.5493164,0.061035156,0.9765625,0.0,0.0,0.0,165.2124,73.55896,-136.66992
1768998089016,-0.9614258,0.075683594,-0.2734375,0.36621094,0.061035156,0.36621094,0.0,0.0,0.0,165.2124,73.55896,-136.66992
1768998089027,-0.9614258,0.075683594,-0.2734375,0.36621094,0.061035156,0.36621094,0.0,0.0,0.0,165.07507,73.50403,-136.93909
1768998089116,-0.9614258,0.076660156,-0.2734375,0.061035156,-0.4272461,0.6713867,0.0,0.0,0.0,165.07507,73.50403,-136.93909
1768998089127,-0.9614258,0.076660156,-0.2734375,0.061035156,-0.4272461,0.6713867,0.0,0.0,0.0,164.93225,73.50403,-137.20276
1768998089215,-0.95751953,0.075683594,-0.28320312,-0.9765625,-1.159668,0.4272461,0.0,0.0,0.0,164.93225,73.50403,-137.20276
1768998089227,-0.95751953,0.075683594,-0.28320312,-0.9765625,-1.159668,0.4272461,0.0,0.0,0.0,164.88281,73.482056,-137.4115
1768998089315,-0.95751953,0.076171875,-0.27246094,-0.12207031,-0.4272461,0.0,0.0,0.0,0.0,164.88281,73.482056,-137.4115
1768998089327,-0.95751953,0.076171875,-0.27246094,-0.12207031,-0.4272461,0.0,0.0,0.0,0.0,164.86084,73.48755,-137.51587
1768998089415,-0.9604492,0.07861328,-0.26611328,-0.61035156,-0.48828125,0.18310547,0.0,0.0,0.0,164.86084,73.48755,-137.51587
1768998089426,-0.9604492,0.07861328,-0.26611328,-0.61035156,-0.48828125,0.18310547,0.0,0.0,0.0,164.67407,73.53699,-137.74658
1768998089514,-0.97021484,0.07714844,-0.26513672,-1.3427734,-1.953125,0.6713867,0.0,0.0,0.0,164.67407,73.53699,-137.74658
1768998089526,-0.97021484,0.07714844,-0.26513672,-1.3427734,-1.953125,0.6713867,0.0,0.0,0.0,164.44885,73.62488,-138.00476
1768998089614,-0.9682617,0.079589844,-0.265625,-2.9907227,-1.8920898,0.61035156,0.0,0.0,0.0,164.44885,73.62488,-138.00476
1768998089626,-0.9682617,0.079589844,-0.265625,-2.9907227,-1.8920898,0.61035156,0.0,0.0,0.0,163.81714,73.82263,-138.51562
1768998089714,-0.9609375,0.07763672,-0.2607422,-1.8310547,0.30517578,0.0,0.0,0.0,0.0,163.81714,73.82263,-138.51562
1768998089725,-0.9609375,0.07763672,-0.2607422,-1.8310547,0.30517578,0.0,0.0,0.0,0.0,163.67432,73.83911,-138.57056
1768998089814,-0.9682617,0.076171875,-0.25585938,-1.7089844,0.5493164,0.061035156,0.0,0.0,0.0,163.67432,73.83911,-138.57056
1768998089825,-0.9682617,0.076171875,-0.25585938,-1.7089844,0.5493164,0.061035156,0.0,0.0,0.0,163.46558,73.83362,-138.63098
1768998089913,-0.96777344,0.08544922,-0.2758789,-1.8310547,0.91552734,0.0,0.0,0.0,0.0,163.46558,73.83362,-138.63098
1768998089925,-0.96777344,0.08544922,-0.2758789,-1.8310547,0.91552734,0.0,0.0,0.0,0.0,163.31177,73.78418,-138.64197
1768998090013,-0.9682617,0.076660156,-0.27148438,-0.91552734,0.61035156,0.0,0.0,0.0,0.0,163.31177,73.78418,-138.64197
1768998090025,-0.9682617,0.076660156,-0.27148438,-0.91552734,0.61035156,0.0,0.0,0.0,0.0,163.32825,73.69629,-138.59253
1768998090113,-0.96484375,0.083496094,-0.2709961,-0.30517578,0.48828125,0.0,0.0,0.0,0.0,163.32825,73.69629,-138.59253
1768998090124,-0.96484375,0.083496094,-0.2709961,-0.30517578,0.48828125,0.0,0.0,0.0,0.0,163.41614,73.6084,-138.50464
1768998090212,-0.96191406,0.080078125,-0.2685547,-1.8920898,1.3427734,0.18310547,0.0,0.0,0.0,163.41614,73.6084,-138.50464
1768998090224,-0.96191406,0.080078125,-0.2685547,-1.8920898,1.3427734,0.18310547,0.0,0.0,0.0,163.52051,73.50403,-138.40576
1768998090312,-0.96240234,0.08251953,-0.27490234,-1.5869141,0.91552734,0.6713867,0.0,0.0,0.0,163.52051,73.50403,-138.40576
1768998090324,-0.96240234,0.08251953,-0.27490234,-1.5869141,0.91552734,0.6713867,0.0,0.0,0.0,163.54797,73.3667,-138.36731
1768998090412,-0.95996094,0.087402344,-0.27978516,-0.6713867,0.48828125,0.6713867,0.0,0.0,0.0,163.54797,73.3667,-138.36731
1768998090424,-0.95996094,0.087402344,-0.27978516,-0.6713867,0.48828125,0.6713867,0.0,0.0,0.0,163.50403,73.2074,-138.42224
1768998090512,-0.9614258,0.084472656,-0.27978516,-1.4038086,-1.4648438,1.0986328,0.0,0.0,0.0,163.50403,73.2074,-138.42224
1768998090523,-0.9614258,0.084472656,-0.27978516,-1.4038086,-1.4648438,1.0986328,0.0,0.0,0.0,163.33374,73.16345,-138.65845
1768998090611,-0.9628906,0.083984375,-0.28808594,0.61035156,-0.4272461,0.48828125,0.0,0.0,0.0,163.33374,73.16345,-138.65845
1768998090623,-0.9628906,0.083984375,-0.28808594,0.61035156,-0.4272461,0.48828125,0.0,0.0,0.0,163.15796,73.14148,-138.89465
1768998090711,-0.9614258,0.088378906,-0.28466797,2.5024414,0.79345703,0.24414062,0.0,0.0,0.0,163.15796,73.14148,-138.89465
1768998090722,-0.9614258,0.088378906,-0.28466797,2.5024414,0.79345703,0.24414062,0.0,0.0,0.0,162.99866,73.11951,-139.1748
1768998090811,-0.95947266,0.08544922,-0.28173828,0.4272461,1.2817383,-0.18310547,0.0,0.0,0.0,162.99866,73.11951,-139.1748
1768998090822,-0.95947266,0.08544922,-0.28173828,0.4272461,1.2817383,-0.18310547,0.0,0.0,0.0,162.99866,73.08655,-139.28467
1768998090911,-0.95410156,0.08105469,-0.2705078,0.30517578,-1.2207031,0.061035156,0.0,0.0,0.0,162.99866,73.08655,-139.28467
1768998090922,-0.95410156,0.08105469,-0.2705078,0.30517578,-1.2207031,0.061035156,0.0,0.0,0.0,163.09204,73.0426,-139.25171
1768998091010,-0.96240234,0.088378906,-0.27929688,-2.746582,-3.479004,0.8544922,0.0,0.0,0.0,163.09204,73.0426,-139.25171
1768998091022,-0.96240234,0.088378906,-0.27929688,-2.746582,-3.479004,0.8544922,0.0,0.0,0.0,162.54822,73.30078,-139.68567
1768998091110,-0.95996094,0.092285156,-0.27197266,1.4648438,0.0,0.0,0.0,0.0,0.0,162.54822,73.30078,-139.68567
1768998091121,-0.95996094,0.092285156,-0.27197266,1.4648438,0.0,0.0,0.0,0.0,0.0,162.44385,73.32825,-139.823
1768998091210,-0.95751953,0.09033203,-0.26757812,0.6713867,-0.18310547,0.18310547,0.0,0.0,0.0,162.44385,73.32825,-139.823
1768998091221,-0.95751953,0.09033203,-0.26757812,0.6713867,-0.18310547,0.18310547,0.0,0.0,0.0,162.16919,73.3667,-140.08118
1768998091309,-0.96484375,0.091308594,-0.26464844,1.5869141,-0.061035156,0.0,0.0,0.0,0.0,162.16919,73.3667,-140.08118
1768998091321,-0.96484375,0.091308594,-0.26464844,1.5869141,-0.061035156,0.0,0.0,0.0,0.0,162.03186,73.427124,-140.28442
1768998091409,-0.9604492,0.0859375,-0.26171875,1.0986328,1.5258789,-0.30517578,0.0,0.0,0.0,162.03186,73.427124,-140.28442
1768998091421,-0.9604492,0.0859375,-0.26171875,1.0986328,1.5258789,-0.30517578,0.0,0.0,0.0,162.27356,73.33923,-140.17456
1768998091509,-0.9628906,0.091796875,-0.265625,-0.061035156,0.9765625,-0.24414062,0.0,0.0,0.0,162.27356,73.33923,-140.17456
1768998091521,-0.9628906,0.091796875,-0.265625,-0.061035156,0.9765625,-0.24414062,0.0,0.0,0.0,162.49329,73.24585,-140.02075
1768998091608,-0.95654297,0.083984375,-0.26171875,-1.0375977,0.30517578,0.30517578,0.0,0.0,0.0,162.49329,73.24585,-140.02075
1768998091620,-0.95654297,0.083984375,-0.26171875,-1.0375977,0.30517578,0.30517578,0.0,0.0,0.0,162.4768,73.24036,-140.0592
1768998091708,-0.96875,0.08984375,-0.26953125,0.4272461,0.9765625,-0.061035156,0.0,0.0,0.0,162.4768,73.24036,-140.0592
1768998091720,-0.96875,0.08984375,-0.26953125,0.4272461,0.9765625,-0.061035156,0.0,0.0,0.0,162.18567,73.256836,-140.23499
1768998091808,-0.96191406,0.08984375,-0.27392578,-0.061035156,1.0375977,0.0,0.0,0.0,0.0,162.18567,73.256836,-140.23499
1768998091819,-0.96191406,0.08984375,-0.27392578,-0.061035156,1.0375977,0.0,0.0,0.0,0.0,162.30103,73.152466,-140.11963
1768998091907,-0.96240234,0.09033203,-0.27294922,-0.48828125,0.9765625,0.30517578,0.0,0.0,0.0,162.30103,73.152466,-140.11963
1768998091919,-0.96240234,0.09033203,-0.27294922,-0.48828125,0.9765625,0.30517578,0.0,0.0,0.0,162.29553,73.048096,-140.11414
1768998092007,-0.9609375,0.09082031,-0.28320312,-1.8310547,0.6713867,0.61035156,0.0,0.0,0.0,162.29553,73.048096,-140.11414
1768998092019,-0.9609375,0.09082031,-0.28320312,-1.8310547,0.6713867,0.61035156,0.0,0.0,0.0,162.1582,72.98767,-140.224
1768998092107,-0.9506836,0.092285156,-0.27978516,-2.0141602,2.2583008,0.7324219,0.0,0.0,0.0,162.1582,72.98767,-140.224
1768998092119,-0.9506836,0.092285156,-0.27978516,-2.0141602,2.2583008,0.7324219,0.0,0.0,0.0,162.19666,72.77893,-140.16357
1768998092207,-0.9580078,0.09423828,-0.29345703,0.91552734,2.9296875,0.0,0.0,0.0,0.0,162.19666,72.77893,-140.16357
1768998092218,-0.9580078,0.09423828,-0.29345703,0.91552734,2.9296875,0.0,0.0,0.0,0.0,162.323,72.53723,-140.03723
1768998092306,-0.95410156,0.096191406,-0.2915039,-1.4038086,2.6245117,0.4272461,0.0,0.0,0.0,162.323,72.53723,-140.03723
1768998092318,-0.95410156,0.096191406,-0.2915039,-1.4038086,2.6245117,0.4272461,0.0,0.0,0.0,162.61963,72.22412,-139.83398
1768998092406,-0.9584961,0.09667969,-0.29882812,-1.3427734,0.91552734,0.4272461,0.0,0.0,0.0,162.61963,72.22412,-139.83398
1768998092418,-0.9584961,0.09667969,-0.29882812,-1.3427734,0.91552734,0.4272461,0.0,0.0,0.0,162.73499,72.00989,-139.7406
1768998092506,-0.94433594,0.095214844,-0.28466797,0.0,-1.5258789,0.61035156,0.0,0.0,0.0,162.73499,72.00989,-139.7406
1768998092517,-0.94433594,0.095214844,-0.28466797,0.0,-1.5258789,0.61035156,0.0,0.0,0.0,162.82837,71.93298,-139.7406
1768998092606,-0.9526367,0.09277344,-0.30029297,4.211426,-1.5869141,0.30517578,0.0,0.0,0.0,162.82837,71.93298,-139.7406
1768998092617,-0.9526367,0.09277344,-0.30029297,4.211426,-1.5869141,0.30517578,0.0,0.0,0.0,162.58667,72.00989,-140.11963
1768998092705,-0.9550781,0.09277344,-0.30371094,2.746582,-2.8686523,0.9765625,0.0,0.0,0.0,162.58667,72.00989,-140.11963
1768998092717,-0.9550781,0.09277344,-0.30371094,2.746582,-2.8686523,0.9765625,0.0,0.0,0.0,162.57568,72.04285,-140.33936
1768998092805,-0.92578125,0.103027344,-0.26171875,2.319336,-0.12207031,-0.7324219,0.0,0.0,0.0,162.57568,72.04285,-140.33936
1768998092817,-0.92578125,0.103027344,-0.26171875,2.319336,-0.12207031,-0.7324219,0.0,0.0,0.0,161.81213,72.29553,-140.91064
1768998092905,-0.9609375,0.10107422,-0.29101562,3.6010742,2.319336,-0.9765625,0.0,0.0,0.0,161.81213,72.29553,-140.91064
1768998092916,-0.9609375,0.10107422,-0.29101562,3.6010742,2.319336,-0.9765625,0.0,0.0,0.0,161.73523,72.35596,-140.97656
1768998093004,-0.95654297,0.09472656,-0.28808594,-2.4414062,0.36621094,0.6713867,0.0,0.0,0.0,161.73523,72.35596,-140.97656
1768998093016,-0.95654297,0.09472656,-0.28808594,-2.4414062,0.36621094,0.6713867,0.0,0.0,0.0,161.62537,72.333984,-141.08093
1768998093104,-0.9506836,0.099609375,-0.28808594,-0.4272461,0.24414062,0.91552734,0.0,0.0,0.0,161.62537,72.333984,-141.08093
1768998093115,-0.9506836,0.099609375,-0.28808594,-0.4272461,0.24414062,0.91552734,0.0,0.0,0.0,161.38916,72.36145,-141.22925
1768998093204,-0.9584961,0.10058594,-0.29052734,0.0,-0.5493164,0.61035156,0.0,0.0,0.0,161.38916,72.36145,-141.22925
1768998093215,-0.9584961,0.10058594,-0.29052734,0.0,-0.5493164,0.61035156,0.0,0.0,0.0,161.09253,72.33948,-141.5149
1768998093303,-0.9560547,0.099609375,-0.28027344,-0.9765625,-2.2583008,1.2207031,0.0,0.0,0.0,161.09253,72.33948,-141.5149
1768998093315,-0.9560547,0.099609375,-0.28027344,-0.9765625,-2.2583008,1.2207031,0.0,0.0,0.0,160.65308,72.43286,-141.94336
1768998093403,-0.96191406,0.10498047,-0.29101562,-0.30517578,-0.36621094,0.24414062,0.0,0.0,0.0,160.65308,72.43286,-141.94336
1768998093415,-0.96191406,0.10498047,-0.29101562,-0.30517578,-0.36621094,0.24414062,0.0,0.0,0.0,160.43335,72.47131,-142.16309
1768998093503,-0.95166016,0.10107422,-0.27246094,-3.479004,-1.0375977,0.6713867,0.0,0.0,0.0,160.43335,72.47131,-142.16309
1768998093514,-0.95166016,0.10107422,-0.27246094,-3.479004,-1.0375977,0.6713867,0.0,0.0,0.0,160.60913,72.454834,-142.11914
1768998093603,-0.94677734,0.103027344,-0.28076172,-0.7324219,-0.79345703,0.061035156,0.0,0.0,0.0,160.60913,72.454834,-142.11914
1768998093614,-0.94677734,0.103027344,-0.28076172,-0.7324219,-0.79345703,0.061035156,0.0,0.0,0.0,160.41138,72.493286,-142.27295
1768998093702,-0.9472656,0.10449219,-0.27685547,-1.4038086,-1.2817383,0.36621094,0.0,0.0,0.0,160.41138,72.493286,-142.27295
1768998093715,-0.9472656,0.10449219,-0.27685547,-1.4038086,-1.2817383,0.36621094,0.0,0.0,0.0,160.03784,72.6416,-142.58606
1768998093802,-0.9633789,0.110839844,-0.26708984,0.0,-0.61035156,-1.8310547,0.0,0.0,0.0,160.03784,72.6416,-142.58606
1768998093813,-0.9633789,0.110839844,-0.26708984,0.0,-0.61035156,-1.8310547,0.0,0.0,0.0,159.63684,72.86133,-142.8717
1768998093902,-0.9707031,0.103515625,-0.2631836,-3.4179688,-4.0893555,-1.3427734,0.0,0.0,0.0,159.63684,72.86133,-142.8717
1768998093913,-0.9707031,0.103515625,-0.2631836,-3.4179688,-4.0893555,-1.3427734,0.0,0.0,0.0,159.77966,73.11951,-142.69043
1768998094001,-0.96728516,0.103027344,-0.26708984,-6.5307617,-3.6621094,-0.30517578,0.0,0.0,0.0,159.77966,73.11951,-142.69043
1768998094013,-0.96728516,0.103027344,-0.26708984,-6.5307617,-3.6621094,-0.30517578,0.0,0.0,0.0,159.84009,73.38867,-142.44324
1768998094101,-0.9614258,0.09765625,-0.2548828,-2.6855469,-1.953125,0.061035156,0.0,0.0,0.0,159.84009,73.38867,-142.44324
1768998094113,-0.9614258,0.09765625,-0.2548828,-2.6855469,-1.953125,0.061035156,0.0,0.0,0.0,159.30176,73.55896,-142.66846
1768998094201,-0.9506836,0.10498047,-0.25927734,-2.0141602,3.112793,0.12207031,0.0,0.0,0.0,159.30176,73.55896,-142.66846
1768998094212,-0.9506836,0.10498047,-0.25927734,-2.0141602,3.112793,0.12207031,0.0,0.0,0.0,159.2633,73.498535,-142.61353
1768998094301,-0.9555664,0.104003906,-0.2524414,-0.24414062,0.36621094,0.24414062,0.0,0.0,0.0,159.2633,73.498535,-142.61353
1768998094312,-0.9555664,0.104003906,-0.2524414,-0.24414062,0.36621094,0.24414062,0.0,0.0,0.0,158.96118,73.4491,-142.78381
1768998094400,-0.9692383,0.103515625,-0.25830078,-0.91552734,0.24414062,-0.18310547,0.0,0.0,0.0,158.96118,73.4491,-142.78381
1768998094412,-0.9692383,0.103515625,-0.25830078,-0.91552734,0.24414062,-0.18310547,0.0,0.0,0.0,158.67004,73.531494,-143.031
1768998094500,-0.9658203,0.103515625,-0.26708984,0.8544922,0.79345703,-0.4272461,0.0,0.0,0.0,158.67004,73.531494,-143.031
1768998094512,-0.9658203,0.103515625,-0.26708984,0.8544922,0.79345703,-0.4272461,0.0,0.0,0.0,158.92822,73.48755,-142.82776
1768998094600,-0.96191406,0.10107422,-0.2578125,2.5634766,1.2817383,-0.4272461,0.0,0.0,0.0,158.92822,73.48755,-142.82776
1768998094611,-0.96191406,0.10107422,-0.2578125,2.5634766,1.2817383,-0.4272461,0.0,0.0,0.0,159.54346,73.31726,-142.43774
1768998094699,-0.9638672,0.10253906,-0.2758789,2.8686523,5.065918,-1.2817383,0.0,0.0,0.0,159.54346,73.31726,-142.43774
1768998094711,-0.9638672,0.10253906,-0.2758789,2.8686523,5.065918,-1.2817383,0.0,0.0,0.0,160.1532,73.11401,-141.95435
1768998094799,-0.96191406,0.09082031,-0.27783203,3.9672852,5.3100586,-2.1362305,0.0,0.0,0.0,160.1532,73.11401,-141.95435
1768998094811,-0.96191406,0.09082031,-0.27783203,3.9672852,5.3100586,-2.1362305,0.0,0.0,0.0,161.70776,72.60315,-140.7074
1768998094899,-0.9550781,0.09277344,-0.29101562,-1.6479492,3.0517578,-1.8310547,0.0,0.0,0.0,161.70776,72.60315,-140.7074
1768998094910,-0.9550781,0.09277344,-0.29101562,-1.6479492,3.0517578,-1.8310547,0.0,0.0,0.0,162.68555,72.27905,-139.72961
1768998094999,-0.95166016,0.087890625,-0.29052734,-1.0375977,1.7089844,-1.7700195,0.0,0.0,0.0,162.68555,72.27905,-139.72961
1768998095011,-0.95166016,0.087890625,-0.29052734,-1.0375977,1.7089844,-1.7700195,0.0,0.0,0.0,163.29529,72.125244,-138.97156
1768998095099,-0.95214844,0.08886719,-0.29541016,-1.953125,1.0375977,-1.2817383,0.0,0.0,0.0,163.29529,72.125244,-138.97156
1768998095110,-0.95214844,0.08886719,-0.29541016,-1.953125,1.0375977,-1.2817383,0.0,0.0,0.0,163.67981,72.08679,-138.48267
1768998095198,-0.95654297,0.08496094,-0.3071289,0.61035156,0.8544922,-1.159668,0.0,0.0,0.0,163.67981,72.08679,-138.48267
1768998095210,-0.95654297,0.08496094,-0.3071289,0.61035156,0.8544922,-1.159668,0.0,0.0,0.0,164.14673,72.004395,-138.02124
1768998095298,-0.9560547,0.080078125,-0.30078125,2.4414062,0.36621094,-1.4648438,0.0,0.0,0.0,164.14673,72.004395,-138.02124
1768998095309,-0.9560547,0.080078125,-0.30078125,2.4414062,0.36621094,-1.4648438,0.0,0.0,0.0,164.80042,71.96045,-137.58179
1768998095397,-0.9536133,0.07519531,-0.30322266,2.2583008,0.61035156,-0.7324219,0.0,0.0,0.0,164.80042,71.96045,-137.58179
1768998095409,-0.9536133,0.07519531,-0.30322266,2.2583008,0.61035156,-0.7324219,0.0,0.0,0.0,165.52002,71.88904,-137.15881
1768998095497,-0.9526367,0.07519531,-0.30126953,1.4038086,-1.0986328,-0.061035156,0.0,0.0,0.0,165.52002,71.88904,-137.15881
1768998095509,-0.9526367,0.07519531,-0.30126953,1.4038086,-1.0986328,-0.061035156,0.0,0.0,0.0,165.73425,71.916504,-137.13135
1768998095597,-0.9555664,0.07421875,-0.29638672,0.6713867,-1.2817383,0.12207031,0.0,0.0,0.0,165.73425,71.916504,-137.13135
1768998095608,-0.9555664,0.07421875,-0.29638672,0.6713867,-1.2817383,0.12207031,0.0,0.0,0.0,165.96497,71.97693,-137.13684
1768998095697,-0.9448242,0.07519531,-0.29345703,0.0,0.18310547,0.30517578,0.0,0.0,0.0,165.96497,71.97693,-137.13684
1768998095708,-0.9448242,0.07519531,-0.29345703,0.0,0.18310547,0.30517578,0.0,0.0,0.0,166.04736,71.954956,-137.12585
1768998095796,-0.9477539,0.07324219,-0.3076172,-0.5493164,-1.0986328,0.4272461,0.0,0.0,0.0,166.04736,71.954956,-137.12585
1768998095808,-0.9477539,0.07324219,-0.3076172,-0.5493164,-1.0986328,0.4272461,0.0,0.0,0.0,166.09131,71.92749,-137.12036
1768998095896,-0.9604492,0.07714844,-0.30566406,-3.0517578,-2.1362305,0.4272461,0.0,0.0,0.0,166.09131,71.92749,-137.12036
1768998095908,-0.9604492,0.07714844,-0.30566406,-3.0517578,-2.1362305,0.4272461,0.0,0.0,0.0,165.74524,72.07031,-137.3346
1768998095996,-0.95410156,0.08154297,-0.29492188,-1.2817383,-2.5634766,0.61035156,0.0,0.0,0.0,165.74524,72.07031,-137.3346
1768998096007,-0.95410156,0.08154297,-0.29492188,-1.2817383,-2.5634766,0.61035156,0.0,0.0,0.0,165.58594,72.20215,-137.4884
1768998096095,-0.95654297,0.08300781,-0.2861328,0.0,-0.61035156,0.12207031,0.0,0.0,0.0,165.58594,72.20215,-137.4884
1768998096107,-0.95654297,0.08300781,-0.2861328,0.0,-0.61035156,0.12207031,0.0,0.0,0.0,165.26184,72.29004,-137.72461
1768998096195,-0.9526367,0.076171875,-0.2890625,-0.9765625,-0.61035156,0.30517578,0.0,0.0,0.0,165.26184,72.29004,-137.72461
1768998096207,-0.9526367,0.076171875,-0.2890625,-0.9765625,-0.61035156,0.30517578,0.0,0.0,0.0,164.92676,72.37244,-137.93335
1768998096295,-0.9609375,0.088378906,-0.28710938,-1.953125,-0.12207031,-0.30517578,0.0,0.0,0.0,164.92676,72.37244,-137.93335
1768998096306,-0.9609375,0.088378906,-0.28710938,-1.953125,-0.12207031,-0.30517578,0.0,0.0,0.0,164.76196,72.41089,-138.03223
1768998096395,-0.9584961,0.08300781,-0.2788086,-1.5869141,-0.91552734,-0.30517578,0.0,0.0,0.0,164.76196,72.41089,-138.03223
1768998096406,-0.9584961,0.08300781,-0.2788086,-1.5869141,-0.91552734,-0.30517578,0.0,0.0,0.0,164.77295,72.44385,-137.94983
1768998096494,-0.9580078,0.07910156,-0.29003906,-1.4648438,-2.0751953,0.18310547,0.0,0.0,0.0,164.77295,72.44385,-137.94983
1768998096506,-0.9580078,0.07910156,-0.29003906,-1.4648438,-2.0751953,0.18310547,0.0,0.0,0.0,164.66309,72.52075,-137.99377
1768998096594,-0.9350586,0.07861328,-0.26220703,0.9765625,-0.48828125,0.0,0.0,0.0,0.0,164.66309,72.52075,-137.99377
1768998096606,-0.9350586,0.07861328,-0.26220703,0.9765625,-0.48828125,0.0,0.0,0.0,0.0,164.42688,72.68005,-138.20251
1768998096694,-0.96191406,0.08642578,-0.2553711,2.4414062,-0.24414062,-0.79345703,0.0,0.0,0.0,164.42688,72.68005,-138.20251
1768998096706,-0.96191406,0.08642578,-0.2553711,2.4414062,-0.24414062,-0.79345703,0.0,0.0,0.0,164.17969,72.91626,-138.50464
1768998096793,-0.96435547,0.07861328,-0.28271484,-0.24414062,-0.36621094,-0.24414062,0.0,0.0,0.0,164.17969,72.91626,-138.50464
1768998096805,-0.96435547,0.07861328,-0.28271484,-0.24414062,-0.36621094,-0.24414062,0.0,0.0,0.0,164.43787,73.00415,-138.38928
1768998096893,-0.9580078,0.07714844,-0.27441406,-0.91552734,-0.4272461,-0.12207031,0.0,0.0,0.0,164.43787,73.00415,-138.38928
1768998096905,-0.9580078,0.07714844,-0.27441406,-0.91552734,-0.4272461,-0.12207031,0.0,0.0,0.0,164.69604,73.0426,-138.20251
1768998096993,-0.9604492,0.071777344,-0.28173828,-0.36621094,-0.7324219,0.0,0.0,0.0,0.0,164.69604,73.0426,-138.20251
1768998097004,-0.9604492,0.071777344,-0.28173828,-0.36621094,-0.7324219,0.0,0.0,0.0,0.0,164.9762,73.0426,-138.0597
1768998097093,-0.9614258,0.07519531,-0.27294922,-0.12207031,-0.4272461,-0.24414062,0.0,0.0,0.0,164.9762,73.0426,-138.0597
1768998097105,-0.9614258,0.07519531,-0.27294922,-0.12207031,-0.4272461,-0.24414062,0.0,0.0,0.0,164.91028,73.11951,-138.08716
1768998097192,-0.9628906,0.07470703,-0.28076172,-1.4648438,-0.36621094,0.48828125,0.0,0.0,0.0,164.91028,73.11951,-138.08716
1768998097204,-0.9628906,0.07470703,-0.28076172,-1.4648438,-0.36621094,0.48828125,0.0,0.0,0.0,164.85535,73.11951,-138.08167
1768998097293,-0.9658203,0.07763672,-0.27294922,-2.2583008,-0.4272461,0.5493164,0.0,0.0,0.0,164.85535,73.11951,-138.08167
1768998097304,-0.9658203,0.07763672,-0.27294922,-2.2583008,-0.4272461,0.5493164,0.0,0.0,0.0,164.70703,73.125,-138.15857
1768998097392,-0.9604492,0.07714844,-0.27685547,-0.5493164,-0.9765625,0.61035156,0.0,0.0,0.0,164.70703,73.125,-138.15857
1768998097403,-0.9604492,0.07714844,-0.27685547,-0.5493164,-0.9765625,0.61035156,0.0,0.0,0.0,164.75098,73.11401,-138.14209
1768998097492,-0.96777344,0.07763672,-0.2788086,0.18310547,-1.0375977,0.061035156,0.0,0.0,0.0,164.75098,73.11401,-138.14209
1768998097503,-0.96777344,0.07763672,-0.2788086,0.18310547,-1.0375977,0.061035156,0.0,0.0,0.0,164.6466,73.16345,-138.27393
1768998097591,-0.9614258,0.07373047,-0.27148438,1.4648438,0.5493164,-0.30517578,0.0,0.0,0.0,164.6466,73.16345,-138.27393
1768998097603,-0.9614258,0.07373047,-0.27148438,1.4648438,0.5493164,-0.30517578,0.0,0.0,0.0,164.76746,73.15796,-138.20251
1768998097691,-0.95751953,0.07470703,-0.27148438,2.746582,2.319336,-0.79345703,0.0,0.0,0.0,164.76746,73.15796,-138.20251
1768998097702,-0.95751953,0.07470703,-0.27148438,2.746582,2.319336,-0.79345703,0.0,0.0,0.0,165.00366,73.064575,-138.01575
1768998097791,-0.9633789,0.075683594,-0.2841797,-1.159668,-0.4272461,0.0,0.0,0.0,0.0,165.00366,73.064575,-138.01575
1768998097802,-0.9633789,0.075683594,-0.2841797,-1.159668,-0.4272461,0.0,0.0,0.0,0.0,164.98169,73.03162,-137.92786
1768998097890,-0.9658203,0.079589844,-0.28320312,-2.380371,-1.8310547,0.6713867,0.0,0.0,0.0,164.98169,73.03162,-137.92786
1768998097902,-0.9658203,0.079589844,-0.28320312,-2.380371,-1.8310547,0.6713867,0.0,0.0,0.0,164.8114,73.05359,-138.01025
1768998097990,-0.9589844,0.07910156,-0.27294922,-1.159668,-0.24414062,0.30517578,0.0,0.0,0.0,164.8114,73.05359,-138.01025
1768998098005,-0.9589844,0.07910156,-0.27294922,-1.159668,-0.24414062,0.30517578,0.0,0.0,0.0,164.4928,73.13049,-138.219
1768998098090,-0.96484375,0.08251953,-0.2758789,-0.48828125,0.36621094,0.24414062,0.0,0.0,0.0,164.4928,73.13049,-138.219
1768998098102,-0.96484375,0.08251953,-0.2758789,-0.48828125,0.36621094,0.24414062,0.0,0.0,0.0,164.32251,73.10852,-138.28491
1768998098189,-0.9628906,0.08300781,-0.27685547,-0.24414062,-0.24414062,0.61035156,0.0,0.0,0.0,164.32251,73.10852,-138.28491
1768998098201,-0.9628906,0.08300781,-0.27685547,-0.24414062,-0.24414062,0.61035156,0.0,0.0,0.0,164.20715,73.05908,-138.38928
1768998098289,-0.96435547,0.08203125,-0.27148438,-0.24414062,0.0,0.5493164,0.0,0.0,0.0,164.20715,73.05908,-138.38928
1768998098301,-0.96435547,0.08203125,-0.27148438,-0.24414062,0.0,0.5493164,0.0,0.0,0.0,163.87756,73.09204,-138.67493
1768998098389,-0.9472656,0.07470703,-0.25878906,3.6010742,5.3100586,-1.2207031,0.0,0.0,0.0,163.87756,73.09204,-138.67493
1768998098400,-0.9472656,0.07470703,-0.25878906,3.6010742,5.3100586,-1.2207031,0.0,0.0,0.0,163.99292,72.960205,-138.58704
1768998098489,-0.9765625,0.09423828,-0.29052734,-4.699707,-1.159668,0.6713867,0.0,0.0,0.0,163.99292,72.960205,-138.58704
1768998098500,-0.9765625,0.09423828,-0.29052734,-4.699707,-1.159668,0.6713867,0.0,0.0,0.0,164.04236,72.81738,-138.4497
1768998098588,-0.9609375,0.08886719,-0.2841797,-0.8544922,1.0375977,-0.18310547,0.0,0.0,0.0,164.04236,72.81738,-138.4497
1768998098600,-0.9609375,0.08886719,-0.2841797,-0.8544922,1.0375977,-0.18310547,0.0,0.0,0.0,164.52026,72.70203,-138.10913
1768998098688,-0.95166016,0.083984375,-0.27978516,1.6479492,1.0986328,-0.91552734,0.0,0.0,0.0,164.52026,72.70203,-138.10913
1768998098699,-0.95166016,0.083984375,-0.27978516,1.6479492,1.0986328,-0.91552734,0.0,0.0,0.0,164.86084,72.61963,-137.83447
1768998098788,-0.96240234,0.07128906,-0.28857422,6.286621,1.7089844,-2.319336,0.0,0.0,0.0,164.86084,72.61963,-137.83447
1768998098799,-0.96240234,0.07128906,-0.28857422,6.286621,1.7089844,-2.319336,0.0,0.0,0.0,165.6134,72.5647,-137.35107
1768998098887,-0.95996094,0.06591797,-0.29003906,1.4038086,-0.30517578,-1.5869141,0.0,0.0,0.0,165.6134,72.5647,-137.35107
1768998098899,-0.95996094,0.06591797,-0.29003906,1.4038086,-0.30517578,-1.5869141,0.0,0.0,0.0,166.39343,72.5647,-136.79626
1768998098987,-0.9609375,0.06689453,-0.2836914,-2.380371,-0.061035156,-1.0375977,0.0,0.0,0.0,166.39343,72.5647,-136.79626
1768998098999,-0.9609375,0.06689453,-0.2836914,-2.380371,-0.061035156,-1.0375977,0.0,0.0,0.0,166.90979,72.58667,-136.27441
1768998099087,-0.95166016,0.06689453,-0.2866211,-1.3427734,2.0141602,-0.61035156,0.0,0.0,0.0,166.90979,72.58667,-136.27441
1768998099098,-0.95166016,0.06689453,-0.2866211,-1.3427734,2.0141602,-0.61035156,0.0,0.0,0.0,167.17346,72.509766,-135.82397
1768998099186,-0.9560547,0.07128906,-0.2890625,-4.0283203,1.2817383,-0.30517578,0.0,0.0,0.0,167.17346,72.509766,-135.82397
1768998099198,-0.9560547,0.07128906,-0.2890625,-4.0283203,1.2817383,-0.30517578,0.0,0.0,0.0,167.25037,72.388916,-135.57129
1768998099286,-0.96435547,0.07861328,-0.29003906,-3.479004,-1.2207031,0.30517578,0.0,0.0,0.0,167.25037,72.388916,-135.57129
1768998099298,-0.96435547,0.07861328,-0.29003906,-3.479004,-1.2207031,0.30517578,0.0,0.0,0.0,166.95374,72.36145,-135.57678
1768998099386,-0.9633789,0.07373047,-0.28173828,-3.479004,-0.7324219,0.48828125,0.0,0.0,0.0,166.95374,72.36145,-135.57678
1768998099397,-0.9633789,0.07373047,-0.28173828,-3.479004,-0.7324219,0.48828125,0.0,0.0,0.0,166.7395,72.39441,-135.67566
1768998099486,-0.95458984,0.07324219,-0.28564453,-1.2817383,-0.9765625,0.0,0.0,0.0,0.0,166.7395,72.39441,-135.67566
1768998099497,-0.95458984,0.07324219,-0.28564453,-1.2817383,-0.9765625,0.0,0.0,0.0,0.0,166.59119,72.405396,-135.71411
1768998099585,-0.9560547,0.0703125,-0.28515625,1.8920898,-0.12207031,-0.4272461,0.0,0.0,0.0,166.59119,72.405396,-135.71411
1768998099597,-0.9560547,0.0703125,-0.28515625,1.8920898,-0.12207031,-0.4272461,0.0,0.0,0.0,166.63513,72.454834,-135.74158
1768998099685,-0.9526367,0.0703125,-0.28857422,3.112793,0.12207031,0.0,0.0,0.0,0.0,166.63513,72.454834,-135.74158
1768998099696,-0.9526367,0.0703125,-0.28857422,3.112793,0.12207031,0.0,0.0,0.0,0.0,166.70654,72.4823,-135.802
1768998099785,-0.9609375,0.06982422,-0.29052734,1.3427734,-1.0375977,0.7324219,0.0,0.0,0.0,166.70654,72.4823,-135.802
1768998099796,-0.9609375,0.06982422,-0.29052734,1.3427734,-1.0375977,0.7324219,0.0,0.0,0.0,166.55823,72.53174,-136.07117
1768998099884,-0.95751953,0.06738281,-0.29248047,3.7231445,0.18310547,0.0,0.0,0.0,0.0,166.55823,72.53174,-136.07117
1768998099896,-0.95751953,0.06738281,-0.29248047,3.7231445,0.18310547,0.0,0.0,0.0,0.0,166.71204,72.542725,-136.15356
1768998099984,-0.9633789,0.06640625,-0.29589844,0.9765625,-0.18310547,0.0,0.0,0.0,0.0,166.71204,72.542725,-136.15356
1768998099996,-0.9633789,0.06640625,-0.29589844,0.9765625,-0.18310547,0.0,0.0,0.0,0.0,166.72302,72.5647,-136.19202
1768998100084,-0.9628906,0.068359375,-0.2861328,-0.24414062,0.061035156,0.36621094,0.0,0.0,0.0,166.72302,72.5647,-136.19202
1768998100095,-0.9628906,0.068359375,-0.2861328,-0.24414062,0.061035156,0.36621094,0.0,0.0,0.0,166.79443,72.526245,-136.16455
1768998100184,-0.9560547,0.068847656,-0.28955078,0.30517578,0.061035156,0.30517578,0.0,0.0,0.0,166.79443,72.526245,-136.16455
1768998100195,-0.9560547,0.068847656,-0.28955078,0.30517578,0.061035156,0.30517578,0.0,0.0,0.0,166.6571,72.493286,-136.26343
1768998100283,-0.95751953,0.07128906,-0.29248047,0.061035156,0.12207031,0.79345703,0.0,0.0,0.0,166.6571,72.493286,-136.26343
1768998100295,-0.95751953,0.07128906,-0.29248047,0.061035156,0.12207031,0.79345703,0.0,0.0,0.0,166.51428,72.44934,-136.37329
1768998100383,-0.95703125,0.072753906,-0.2919922,-0.4272461,0.0,0.79345703,0.0,0.0,0.0,166.51428,72.44934,-136.37329
1768998100394,-0.95703125,0.072753906,-0.2919922,-0.4272461,0.0,0.79345703,0.0,0.0,0.0,166.1847,72.43286,-136.64795
1768998100483,-0.95996094,0.076660156,-0.29003906,-0.61035156,0.0,0.7324219,0.0,0.0,0.0,166.1847,72.43286,-136.64795
1768998100494,-0.95996094,0.076660156,-0.29003906,-0.61035156,0.0,0.7324219,0.0,0.0,0.0,165.89355,72.41638,-136.88416
1768998100582,-0.95703125,0.080078125,-0.28808594,1.159668,1.8920898,0.24414062,0.0,0.0,0.0,165.89355,72.41638,-136.88416
1768998100594,-0.95703125,0.080078125,-0.28808594,1.159668,1.8920898,0.24414062,0.0,0.0,0.0,165.82214,72.317505,-136.98303
1768998100682,-0.95654297,0.07910156,-0.28955078,-0.061035156,0.7324219,0.24414062,0.0,0.0,0.0,165.82214,72.317505,-136.98303
1768998100694,-0.95654297,0.07910156,-0.28955078,-0.061035156,0.7324219,0.24414062,0.0,0.0,0.0,165.76172,72.23511,-137.03247
1768998100782,-0.95996094,0.079589844,-0.29541016,1.0375977,1.5869141,0.24414062,0.0,0.0,0.0,165.76172,72.23511,-137.03247
1768998100793,-0.95996094,0.079589844,-0.29541016,1.0375977,1.5869141,0.24414062,0.0,0.0,0.0,165.7782,72.13623,-137.07642
1768998100882,-0.9501953,0.075683594,-0.2939453,2.0751953,1.2207031,0.061035156,0.0,0.0,0.0,165.7782,72.13623,-137.07642
1768998100893,-0.9501953,0.075683594,-0.2939453,2.0751953,1.2207031,0.061035156,0.0,0.0,0.0,165.83313,72.00989,-137.07642
1768998100981,-0.94873047,0.078125,-0.2998047,1.6479492,0.79345703,0.4272461,0.0,0.0,0.0,165.83313,72.00989,-137.07642
1768998100993,-0.94873047,0.078125,-0.2998047,1.6479492,0.79345703,0.4272461,0.0,0.0,0.0,165.7782,71.96045,-137.1643
1768998101081,-0.95410156,0.08251953,-0.28857422,0.6713867,0.8544922,0.7324219,0.0,0.0,0.0,165.7782,71.96045,-137.1643
1768998101093,-0.95410156,0.08251953,-0.28857422,0.6713867,0.8544922,0.7324219,0.0,0.0,0.0,165.42114,71.97693,-137.52136
1768998101181,-0.9580078,0.08642578,-0.2993164,1.4038086,1.2207031,0.48828125,0.0,0.0,0.0,165.42114,71.97693,-137.52136
1768998101192,-0.9580078,0.08642578,-0.2993164,1.4038086,1.2207031,0.48828125,0.0,0.0,0.0,165.34424,71.87805,-137.71362
1768998101281,-0.9584961,0.079589844,-0.2939453,2.1362305,0.36621094,0.36621094,0.0,0.0,0.0,165.34424,71.87805,-137.71362
1768998101293,-0.9584961,0.079589844,-0.2939453,2.1362305,0.36621094,0.36621094,0.0,0.0,0.0,165.59692,71.78467,-137.7356
1768998101380,-0.95410156,0.084472656,-0.29638672,0.8544922,0.4272461,-0.12207031,0.0,0.0,0.0,165.59692,71.78467,-137.7356
1768998101392,-0.95410156,0.084472656,-0.29638672,0.8544922,0.4272461,-0.12207031,0.0,0.0,0.0,165.83862,71.72974,-137.75208
1768998101480,-0.9536133,0.07861328,-0.29736328,1.8310547,-0.18310547,-0.061035156,0.0,0.0,0.0,165.83862,71.72974,-137.75208
1768998101492,-0.9536133,0.07861328,-0.29736328,1.8310547,-0.18310547,-0.061035156,0.0,0.0,0.0,166.11328,71.72424,-137.65869
1768998101580,-0.94677734,0.07421875,-0.2944336,0.12207031,0.0,-0.18310547,0.0,0.0,0.0,166.11328,71.72424,-137.65869
1768998101591,-0.94677734,0.07421875,-0.2944336,0.12207031,0.0,-0.18310547,0.0,0.0,0.0,166.09131,71.76819,-137.6532
1768998101679,-0.9560547,0.075683594,-0.29589844,-0.6713867,-0.48828125,-0.18310547,0.0,0.0,0.0,166.09131,71.76819,-137.6532
1768998101691,-0.9560547,0.075683594,-0.29589844,-0.6713867,-0.48828125,-0.18310547,0.0,0.0,0.0,165.99243,71.81763,-137.59827
1768998101779,-0.9506836,0.076171875,-0.28173828,-2.380371,-1.2817383,0.48828125,0.0,0.0,0.0,165.99243,71.81763,-137.59827
1768998101791,-0.9506836,0.076171875,-0.28173828,-2.380371,-1.2817383,0.48828125,0.0,0.0,0.0,165.56946,71.97693,-137.76855
1768998101879,-0.9580078,0.08251953,-0.29052734,-0.9765625,0.79345703,0.61035156,0.0,0.0,0.0,165.56946,71.97693,-137.76855
1768998101890,-0.9580078,0.08251953,-0.29052734,-0.9765625,0.79345703,0.61035156,0.0,0.0,0.0,165.07507,72.00989,-137.98828
1768998101979,-0.95996094,0.08300781,-0.2939453,-1.8310547,0.24414062,2.0141602,0.0,0.0,0.0,165.07507,72.00989,-137.98828
1768998101990,-0.95996094,0.08300781,-0.2939453,-1.8310547,0.24414062,2.0141602,0.0,0.0,0.0,164.63013,71.93298,-138.28491
1768998102078,-0.94433594,0.09375,-0.28857422,-1.2817383,0.5493164,1.8920898,0.0,0.0,0.0,164.63013,71.93298,-138.28491
1768998102090,-0.94433594,0.09375,-0.28857422,-1.2817383,0.5493164,1.8920898,0.0,0.0,0.0,164.19067,71.82312,-138.7024
1768998102178,-0.9584961,0.104003906,-0.29052734,2.2583008,-1.6479492,0.91552734,0.0,0.0,0.0,164.19067,71.82312,-138.7024
1768998102189,-0.9584961,0.104003906,-0.29052734,2.2583008,-1.6479492,0.91552734,0.0,0.0,0.0,163.70728,71.88904,-139.29565
1768998102278,-0.95996094,0.08496094,-0.28564453,3.6621094,-2.5024414,-1.3427734,0.0,0.0,0.0,163.70728,71.88904,-139.29565
1768998102289,-0.95996094,0.08496094,-0.28564453,3.6621094,-2.5024414,-1.3427734,0.0,0.0,0.0,163.99841,72.180176,-139.51538
1768998102377,-0.96777344,0.092285156,-0.27734375,2.9296875,-2.8686523,-1.6479492,0.0,0.0,0.0,163.99841,72.180176,-139.51538
1768998102389,-0.96777344,0.092285156,-0.27734375,2.9296875,-2.8686523,-1.6479492,0.0,0.0,0.0,164.88281,72.37793,-139.11987
1768998102477,-0.95751953,0.076171875,-0.27783203,-0.79345703,-0.24414062,-0.8544922,0.0,0.0,0.0,164.88281,72.37793,-139.11987
1768998102489,-0.95751953,0.076171875,-0.27783203,-0.79345703,-0.24414062,-0.8544922,0.0,0.0,0.0,165.75073,72.57568,-138.64746
1768998102577,-0.9628906,0.080078125,-0.2783203,1.3427734,1.159668,-0.6713867,0.0,0.0,0.0,165.75073,72.57568,-138.64746
1768998102588,-0.9628906,0.080078125,-0.2783203,1.3427734,1.159668,-0.6713867,0.0,0.0,0.0,165.97595,72.57568,-138.40576
1768998102677,-0.97216797,0.08105469,-0.28515625,-1.2207031,2.9296875,0.0,0.0,0.0,0.0,165.97595,72.57568,-138.40576
1768998102688,-0.97216797,0.08105469,-0.28515625,-1.2207031,2.9296875,0.0,0.0,0.0,0.0,166.16821,72.37793,-138.11462
1768998102776,-0.95166016,0.06347656,-0.2919922,-0.30517578,2.8076172,-1.5258789,0.0,0.0,0.0,166.16821,72.37793,-138.11462
1768998102788,-0.95166016,0.06347656,-0.2919922,-0.30517578,2.8076172,-1.5258789,0.0,0.0,0.0,167.33826,72.02637,-137.14783
1768998102876,-0.9555664,0.064941406,-0.3046875,-1.5869141,-0.12207031,-0.8544922,0.0,0.0,0.0,167.33826,72.02637,-137.14783
1768998102888,-0.9555664,0.064941406,-0.3046875,-1.5869141,-0.12207031,-0.8544922,0.0,0.0,0.0,167.52502,71.82312,-136.72485
1768998102976,-0.9472656,0.061523438,-0.30078125,-5.2490234,-0.9765625,-1.0375977,0.0,0.0,0.0,167.52502,71.82312,-136.72485
1768998102987,-0.9472656,0.061523438,-0.30078125,-5.2490234,-0.9765625,-1.0375977,0.0,0.0,0.0,167.3822,71.91101,-136.40076
1768998103075,-0.94091797,0.049804688,-0.2944336,2.4414062,2.8076172,-0.79345703,0.0,0.0,0.0,167.3822,71.91101,-136.40076
1768998103087,-0.94091797,0.049804688,-0.2944336,2.4414062,2.8076172,-0.79345703,0.0,0.0,0.0,167.25037,72.00989,-136.08215
1768998103175,-0.96435547,0.079589844,-0.30859375,1.8920898,0.9765625,-1.0986328,0.0,0.0,0.0,167.25037,72.00989,-136.08215
1768998103187,-0.96435547,0.079589844,-0.30859375,1.8920898,0.9765625,-1.0986328,0.0,0.0,0.0,166.77246,71.971436,-136.1206
1768998103275,-0.9482422,0.072265625,-0.2998047,0.91552734,0.61035156,0.12207031,0.0,0.0,0.0,166.77246,71.971436,-136.1206
1768998103286,-0.9482422,0.072265625,-0.2998047,0.91552734,0.61035156,0.12207031,0.0,0.0,0.0,166.96472,71.94946,-135.95032
1768998103375,-0.9584961,0.080078125,-0.30908203,3.479004,-1.4038086,-0.12207031,0.0,0.0,0.0,166.96472,71.94946,-135.95032
1768998103386,-0.9584961,0.080078125,-0.30908203,3.479004,-1.4038086,-0.12207031,0.0,0.0,0.0,167.00317,71.987915,-136.08215
1768998103474,-0.95947266,0.06689453,-0.30810547,2.8076172,-1.159668,-0.9765625,0.0,0.0,0.0,167.00317,71.987915,-136.08215
1768998103486,-0.95947266,0.06689453,-0.30810547,2.8076172,-1.159668,-0.9765625,0.0,0.0,0.0,167.72278,72.05383,-135.92834
1768998103574,-0.96435547,0.06542969,-0.2998047,-1.0375977,-1.4038086,-0.12207031,0.0,0.0,0.0,167.72278,72.05383,-135.92834
1768998103585,-0.96435547,0.06542969,-0.2998047,-1.0375977,-1.4038086,-0.12207031,0.0,0.0,0.0,168.5028,72.05383,-135.59326
1768998103674,-0.9482422,0.057128906,-0.28955078,-0.36621094,0.8544922,-0.4272461,0.0,0.0,0.0,168.5028,72.05383,-135.59326
1768998103685,-0.9482422,0.057128906,-0.28955078,-0.36621094,0.8544922,-0.4272461,0.0,0.0,0.0,169.18396,71.98242,-135.21423
1768998103773,-0.96240234,0.049804688,-0.29345703,0.61035156,0.6713867,0.36621094,0.0,0.0,0.0,169.18396,71.98242,-135.21423
1768998103785,-0.96240234,0.049804688,-0.29345703,0.61035156,0.6713867,0.36621094,0.0,0.0,0.0,169.44214,71.922,-134.98901
1768998103873,-0.953125,0.064941406,-0.30126953,-6.713867,-0.18310547,2.0141602,0.0,0.0,0.0,169.44214,71.922,-134.98901
1768998103885,-0.953125,0.064941406,-0.30126953,-6.713867,-0.18310547,2.0141602,0.0,0.0,0.0,168.70605,71.87805,-135.35706
1768998103973,-0.95214844,0.07519531,-0.30859375,-5.004883,0.79345703,-0.36621094,0.0,0.0,0.0,168.70605,71.87805,-135.35706
1768998103984,-0.95214844,0.07519531,-0.30859375,-5.004883,0.79345703,-0.36621094,0.0,0.0,0.0,168.5907,71.79016,-135.14282
1768998104073,-0.9580078,0.07519531,-0.31689453,-3.90625,-1.4648438,-0.18310547,0.0,0.0,0.0,168.5907,71.79016,-135.14282
1768998104084,-0.9580078,0.07519531,-0.31689453,-3.90625,-1.4648438,-0.18310547,0.0,0.0,0.0,168.68958,71.71875,-134.81323
1768998104172,-0.96728516,0.055664062,-0.28759766,-0.5493164,-1.2207031,-1.0986328,0.0,0.0,0.0,168.68958,71.71875,-134.81323
1768998104184,-0.96728516,0.055664062,-0.28759766,-0.5493164,-1.2207031,-1.0986328,0.0,0.0,0.0,168.81042,71.779175,-134.61548
1768998104272,-0.9501953,0.06542969,-0.3227539,-1.953125,-0.61035156,1.6479492,0.0,0.0,0.0,168.81042,71.779175,-134.61548
1768998104283,-0.9501953,0.06542969,-0.3227539,-1.953125,-0.61035156,1.6479492,0.0,0.0,0.0,168.21167,71.83411,-135.03845
1768998104372,-0.95166016,0.064453125,-0.30078125,-0.91552734,0.0,0.5493164,0.0,0.0,0.0,168.21167,71.83411,-135.03845
1768998104383,-0.95166016,0.064453125,-0.30078125,-0.91552734,0.0,0.5493164,0.0,0.0,0.0,168.09631,71.68579,-135.20874
1768998104471,-0.953125,0.072753906,-0.30664062,-3.112793,-1.953125,2.380371,0.0,0.0,0.0,168.09631,71.68579,-135.20874
1768998104483,-0.953125,0.072753906,-0.30664062,-3.112793,-1.953125,2.380371,0.0,0.0,0.0,167.69531,71.75171,-135.60974
1768998104571,-0.953125,0.07324219,-0.30078125,-1.4648438,-1.0375977,1.3427734,0.0,0.0,0.0,167.69531,71.75171,-135.60974
1768998104582,-0.953125,0.07324219,-0.30078125,-1.4648438,-1.0375977,1.3427734,0.0,0.0,0.0,167.16248,71.779175,-136.15356
1768998104671,-0.95654297,0.072265625,-0.296875,-0.12207031,-1.3427734,0.48828125,0.0,0.0,0.0,167.16248,71.779175,-136.15356
1768998104682,-0.95654297,0.072265625,-0.296875,-0.12207031,-1.3427734,0.48828125,0.0,0.0,0.0,167.16248,71.86157,-136.2854
1768998104770,-0.95996094,0.07080078,-0.29492188,-0.061035156,-0.9765625,-0.061035156,0.0,0.0,0.0,167.16248,71.86157,-136.2854
1768998104782,-0.95996094,0.07080078,-0.29492188,-0.061035156,-0.9765625,-0.061035156,0.0,0.0,0.0,167.146,71.94397,-136.40076
1768998104870,-0.9550781,0.0625,-0.29248047,1.8310547,-0.4272461,-0.6713867,0.0,0.0,0.0,167.146,71.94397,-136.40076
1768998104882,-0.9550781,0.0625,-0.29248047,1.8310547,-0.4272461,-0.6713867,0.0,0.0,0.0,167.5415,71.97693,-136.17554
1768998104970,-0.9560547,0.0625,-0.2993164,1.0986328,-0.4272461,-1.0986328,0.0,0.0,0.0,167.5415,71.97693,-136.17554
1768998104981,-0.9560547,0.0625,-0.2993164,1.0986328,-0.4272461,-1.0986328,0.0,0.0,0.0,167.66785,72.07031,-135.98328
1768998105069,-0.95996094,0.0625,-0.3017578,0.4272461,-1.0986328,-0.79345703,0.0,0.0,0.0,167.66785,72.07031,-135.98328
1768998105081,-0.95996094,0.0625,-0.3017578,0.4272461,-1.0986328,-0.79345703,0.0,0.0,0.0,167.89307,72.15271,-135.70312
1768998105169,-0.95947266,0.06738281,-0.2944336,-0.6713867,-0.7324219,-0.61035156,0.0,0.0,0.0,167.89307,72.15271,-135.70312
1768998105181,-0.95947266,0.06738281,-0.2944336,-0.6713867,-0.7324219,-0.61035156,0.0,0.0,0.0,168.05786,72.21863,-135.46692
1768998105269,-0.9584961,0.061035156,-0.29833984,-0.12207031,0.0,-0.36621094,0.0,0.0,0.0,168.05786,72.21863,-135.46692
1768998105281,-0.9584961,0.061035156,-0.29833984,-0.12207031,0.0,-0.36621094,0.0,0.0,0.0,168.36548,72.21863,-135.21423
1768998105369,-0.95947266,0.06542969,-0.29785156,1.2207031,1.2817383,-0.8544922,0.0,0.0,0.0,168.36548,72.21863,-135.21423
1768998105380,-0.95947266,0.06542969,-0.29785156,1.2207031,1.2817383,-0.8544922,0.0,0.0,0.0,168.7445,72.14722,-134.89014
1768998105468,-0.9584961,0.06347656,-0.296875,-0.7324219,-0.36621094,0.36621094,0.0,0.0,0.0,168.7445,72.14722,-134.89014
1768998105480,-0.9584961,0.06347656,-0.296875,-0.7324219,-0.36621094,0.36621094,0.0,0.0,0.0,168.79395,72.0813,-134.81323
1768998105568,-0.9506836,0.061035156,-0.2993164,-0.8544922,-0.30517578,0.79345703,0.0,0.0,0.0,168.79395,72.0813,-134.81323
1768998105580,-0.9506836,0.061035156,-0.2993164,-0.8544922,-0.30517578,0.79345703,0.0,0.0,0.0,168.95325,72.01538,-134.73083
1768998105668,-0.9609375,0.057617188,-0.30810547,-1.5258789,-0.36621094,0.36621094,0.0,0.0,0.0,168.95325,72.01538,-134.73083
1768998105679,-0.9609375,0.057617188,-0.30810547,-1.5258789,-0.36621094,0.36621094,0.0,0.0,0.0,168.75,71.9989,-134.8352
1768998105767,-0.95703125,0.06689453,-0.30273438,-2.4414062,-1.2207031,0.9765625,0.0,0.0,0.0,168.75,71.9989,-134.8352
1768998105779,-0.95703125,0.06689453,-0.30273438,-2.4414062,-1.2207031,0.9765625,0.0,0.0,0.0,168.52478,71.987915,-134.93408
1768998105868,-0.9536133,0.06347656,-0.2944336,-2.380371,-0.24414062,0.5493164,0.0,0.0,0.0,168.52478,71.987915,-134.93408
1768998105879,-0.9536133,0.06347656,-0.2944336,-2.380371,-0.24414062,0.5493164,0.0,0.0,0.0,168.21167,72.004395,-135.08789
1768998105967,-0.95410156,0.06933594,-0.296875,-1.8310547,-0.061035156,0.7324219,0.0,0.0,0.0,168.21167,72.004395,-135.08789
1768998105978,-0.95410156,0.06933594,-0.296875,-1.8310547,-0.061035156,0.7324219,0.0,0.0,0.0,167.8711,72.03186,-135.26917
1768998106067,-0.95751953,0.06982422,-0.28759766,-0.12207031,-0.91552734,-0.12207031,0.0,0.0,0.0,167.8711,72.03186,-135.26917
1768998106078,-0.95751953,0.06982422,-0.28759766,-0.12207031,-0.91552734,-0.12207031,0.0,0.0,0.0,167.87659,72.020874,-135.27466
1768998106167,-0.953125,0.07470703,-0.29101562,2.1972656,-0.79345703,0.18310547,0.0,0.0,0.0,167.87659,72.020874,-135.27466
1768998106179,-0.953125,0.07470703,-0.29101562,2.1972656,-0.79345703,0.18310547,0.0,0.0,0.0,167.61292,72.1582,-135.51636
1768998106266,-0.9555664,0.06542969,-0.29003906,1.4038086,-0.6713867,0.12207031,0.0,0.0,0.0,167.61292,72.1582,-135.51636
1768998106277,-0.9555664,0.06542969,-0.29003906,1.4038086,-0.6713867,0.12207031,0.0,0.0,0.0,167.55798,72.25708,-135.67566
1768998106366,-0.9658203,0.063964844,-0.29833984,0.36621094,-0.18310547,-0.5493164,0.0,0.0,0.0,167.55798,72.25708,-135.67566
1768998106377,-0.9658203,0.063964844,-0.29833984,0.36621094,-0.18310547,-0.5493164,0.0,0.0,0.0,167.67334,72.301025,-135.51636
1768998106465,-0.9604492,0.06689453,-0.29541016,-1.159668,-0.5493164,-0.24414062,0.0,0.0,0.0,167.67334,72.301025,-135.51636
1768998106477,-0.9604492,0.06689453,-0.29541016,-1.159668,-0.5493164,-0.24414062,0.0,0.0,0.0,167.75024,72.29553,-135.35156
1768998106566,-0.9589844,0.07373047,-0.29589844,-0.48828125,-0.5493164,-0.9765625,0.0,0.0,0.0,167.75024,72.29553,-135.35156
1768998106577,-0.9589844,0.07373047,-0.29589844,-0.48828125,-0.5493164,-0.9765625,0.0,0.0,0.0,168.04688,72.30652,-135.0
1768998106665,-0.953125,0.05859375,-0.28759766,1.5258789,0.0,0.18310547,0.0,0.0,0.0,168.04688,72.30652,-135.0
1768998106676,-0.953125,0.05859375,-0.28759766,1.5258789,0.0,0.18310547,0.0,0.0,0.0,168.15674,72.333984,-134.93408
1768998106765,-0.95996094,0.06640625,-0.29345703,1.8310547,0.5493164,-0.30517578,0.0,0.0,0.0,168.15674,72.333984,-134.93408
1768998106776,-0.95996094,0.06640625,-0.29345703,1.8310547,0.5493164,-0.30517578,0.0,0.0,0.0,168.22815,72.34497,-134.9176
1768998106864,-0.96484375,0.060058594,-0.29003906,2.319336,-0.79345703,0.48828125,0.0,0.0,0.0,168.22815,72.34497,-134.9176
1768998106876,-0.96484375,0.060058594,-0.29003906,2.319336,-0.79345703,0.48828125,0.0,0.0,0.0,168.6731,72.25708,-134.71436
1768998106964,-0.95654297,0.06933594,-0.296875,2.1362305,1.0375977,-0.18310547,0.0,0.0,0.0,168.6731,72.25708,-134.71436
1768998106976,-0.95654297,0.06933594,-0.296875,2.1362305,1.0375977,-0.18310547,0.0,0.0,0.0,168.5028,72.31201,-134.86267
1768998107064,-0.96533203,0.05810547,-0.30322266,-3.112793,0.24414062,0.8544922,0.0,0.0,0.0,168.5028,72.31201,-134.86267
1768998107076,-0.96533203,0.05810547,-0.30322266,-3.112793,0.24414062,0.8544922,0.0,0.0,0.0,168.68408,72.19116,-134.68689
1768998107163,-0.95214844,0.07080078,-0.296875,-1.4648438,1.3427734,0.91552734,0.0,0.0,0.0,168.68408,72.19116,-134.68689
1768998107175,-0.95214844,0.07080078,-0.296875,-1.4648438,1.3427734,0.91552734,0.0,0.0,0.0,168.49731,72.09778,-134.74731
1768998107263,-0.9536133,0.06201172,-0.29003906,1.7089844,1.2207031,0.8544922,0.0,0.0,0.0,168.49731,72.09778,-134.74731
1768998107275,-0.9536133,0.06201172,-0.29003906,1.7089844,1.2207031,0.8544922,0.0,0.0,0.0,168.2666,71.94397,-134.97803
1768998107363,-0.9580078,0.06591797,-0.31591797,0.5493164,2.1972656,1.2207031,0.0,0.0,0.0,168.2666,71.94397,-134.97803
1768998107374,-0.9580078,0.06591797,-0.31591797,0.5493164,2.1972656,1.2207031,0.0,0.0,0.0,167.85461,71.8396,-135.37903
1768998107462,-0.9506836,0.06591797,-0.30517578,0.61035156,2.1362305,0.61035156,0.0,0.0,0.0,167.85461,71.8396,-135.37903
1768998107474,-0.9506836,0.06591797,-0.30517578,0.61035156,2.1362305,0.61035156,0.0,0.0,0.0,167.75024,71.63086,-135.53284
1768998107562,-0.94970703,0.071777344,-0.3100586,1.953125,1.4648438,0.61035156,0.0,0.0,0.0,167.75024,71.63086,-135.53284
1768998107574,-0.94970703,0.071777344,-0.3100586,1.953125,1.4648438,0.61035156,0.0,0.0,0.0,167.68433,71.45508,-135.63171
1768998107662,-0.9550781,0.080566406,-0.31152344,3.540039,2.0141602,0.18310547,0.0,0.0,0.0,167.68433,71.45508,-135.63171
1768998107674,-0.9550781,0.080566406,-0.31152344,3.540039,2.0141602,0.18310547,0.0,0.0,0.0,167.49207,71.3562,-135.93384
1768998107762,-0.95214844,0.06640625,-0.3178711,0.79345703,0.0,0.30517578,0.0,0.0,0.0,167.49207,71.3562,-135.93384
1768998107773,-0.95214844,0.06640625,-0.3178711,0.79345703,0.0,0.30517578,0.0,0.0,0.0,167.71179,71.25183,-135.8899
1768998107861,-0.9477539,0.07421875,-0.31591797,-0.12207031,-0.18310547,-0.061035156,0.0,0.0,0.0,167.71179,71.25183,-135.8899
1768998107873,-0.9477539,0.07421875,-0.31591797,-0.12207031,-0.18310547,-0.061035156,0.0,0.0,0.0,167.7008,71.25183,-135.92834
1768998107961,-0.94873047,0.072753906,-0.2998047,-1.4648438,-4.0893555,0.9765625,0.0,0.0,0.0,167.7008,71.25183,-135.92834
1768998107972,-0.94873047,0.072753906,-0.2998047,-1.4648438,-4.0893555,0.9765625,0.0,0.0,0.0,167.35474,71.48804,-136.23047
1768998108061,-0.9584961,0.071777344,-0.30664062,-1.4648438,-2.9296875,0.8544922,0.0,0.0,0.0,167.35474,71.48804,-136.23047
1768998108072,-0.9584961,0.071777344,-0.30664062,-1.4648438,-2.9296875,0.8544922,0.0,0.0,0.0,166.99219,71.75171,-136.64795
1768998108161,-0.9555664,0.07470703,-0.30078125,-3.6010742,-3.2958984,0.6713867,0.0,0.0,0.0,166.99219,71.75171,-136.64795
1768998108172,-0.9555664,0.07470703,-0.30078125,-3.6010742,-3.2958984,0.6713867,0.0,0.0,0.0,166.44836,72.020874,-136.97205
1768998108261,-0.9614258,0.08154297,-0.28320312,-1.0986328,-2.746582,-0.6713867,0.0,0.0,0.0,166.44836,72.020874,-136.97205
1768998108273,-0.9614258,0.08154297,-0.28320312,-1.0986328,-2.746582,-0.6713867,0.0,0.0,0.0,165.95398,72.32849,-137.24121
1768998108360,-0.9589844,0.07324219,-0.2709961,1.5869141,-0.9765625,-0.91552734,0.0,0.0,0.0,165.95398,72.32849,-137.24121
1768998108372,-0.9589844,0.07324219,-0.2709961,1.5869141,-0.9765625,-0.91552734,0.0,0.0,0.0,166.00891,72.526245,-137.13135
1768998108460,-0.9614258,0.076660156,-0.2685547,-0.18310547,-0.91552734,-1.0375977,0.0,0.0,0.0,166.00891,72.526245,-137.13135
1768998108471,-0.9614258,0.076660156,-0.2685547,-0.18310547,-0.91552734,-1.0375977,0.0,0.0,0.0,165.87158,72.69653,-137.1643
1768998108559,-0.9584961,0.07080078,-0.25732422,0.79345703,0.061035156,-1.4038086,0.0,0.0,0.0,165.87158,72.69653,-137.1643
1768998108571,-0.9584961,0.07080078,-0.25732422,0.79345703,0.061035156,-1.4038086,0.0,0.0,0.0,165.82764,72.85034,-137.06543
1768998108659,-0.9633789,0.07080078,-0.27392578,-0.36621094,-0.18310547,-0.8544922,0.0,0.0,0.0,165.82764,72.85034,-137.06543
1768998108670,-0.9633789,0.07080078,-0.27392578,-0.36621094,-0.18310547,-0.8544922,0.0,0.0,0.0,165.92651,72.93274,-136.82922
1768998108759,-0.9560547,0.076660156,-0.26708984,0.18310547,0.24414062,-0.61035156,0.0,0.0,0.0,165.92651,72.93274,-136.82922
1768998108770,-0.9560547,0.076660156,-0.26708984,0.18310547,0.24414062,-0.61035156,0.0,0.0,0.0,165.7727,73.048096,-136.8457
1768998108858,-0.9770508,0.078125,-0.27246094,0.061035156,-1.2817383,-0.8544922,0.0,0.0,0.0,165.7727,73.048096,-136.8457
1768998108870,-0.9770508,0.078125,-0.27246094,0.061035156,-1.2817383,-0.8544922,0.0,0.0,0.0,165.80566,73.168945,-136.7633
1768998108958,-0.9584961,0.06738281,-0.2734375,-1.4038086,-0.61035156,0.4272461,0.0,0.0,0.0,165.80566,73.168945,-136.7633
1768998108970,-0.9584961,0.06738281,-0.2734375,-1.4038086,-0.61035156,0.4272461,0.0,0.0,0.0,166.08032,73.14148,-136.58752
1768998109058,-0.95214844,0.0625,-0.2734375,1.8920898,0.4272461,0.18310547,0.0,0.0,0.0,166.08032,73.14148,-136.58752
1768998109069,-0.95214844,0.0625,-0.2734375,1.8920898,0.4272461,0.18310547,0.0,0.0,0.0,166.33301,73.11951,-136.49963
1768998109157,-0.9614258,0.063964844,-0.28271484,1.4038086,0.24414062,0.6713867,0.0,0.0,0.0,166.33301,73.11951,-136.49963
1768998109169,-0.9614258,0.063964844,-0.28271484,1.4038086,0.24414062,0.6713867,0.0,0.0,0.0,166.47034,73.048096,-136.55457
1768998109257,-0.9589844,0.072753906,-0.27929688,1.8310547,1.2207031,0.061035156,0.0,0.0,0.0,166.47034,73.048096,-136.55457
1768998109269,-0.9589844,0.072753906,-0.27929688,1.8310547,1.2207031,0.061035156,0.0,0.0,0.0,166.31104,73.00415,-136.70837
1768998109357,-0.9692383,0.071777344,-0.28271484,-1.2817383,0.79345703,0.36621094,0.0,0.0,0.0,166.31104,73.00415,-136.70837
1768998109369,-0.9692383,0.071777344,-0.28271484,-1.2817383,0.79345703,0.36621094,0.0,0.0,0.0,166.344,72.888794,-136.67542
1768998109457,-0.96191406,0.071777344,-0.27392578,-1.7700195,-0.061035156,0.5493164,0.0,0.0,0.0,166.344,72.888794,-136.67542
1768998109468,-0.96191406,0.071777344,-0.27392578,-1.7700195,-0.061035156,0.5493164,0.0,0.0,0.0,166.21216,72.82837,-136.6864
1768998109556,-0.9580078,0.071777344,-0.28173828,-0.8544922,1.159668,0.0,0.0,0.0,0.0,166.21216,72.82837,-136.6864
1768998109568,-0.9580078,0.071777344,-0.28173828,-0.8544922,1.159668,0.0,0.0,0.0,0.0,166.14075,72.8009,-136.66992
1768998109656,-0.96728516,0.076660156,-0.28125,-0.8544922,1.5258789,0.30517578,0.0,0.0,0.0,166.14075,72.8009,-136.66992
1768998109667,-0.96728516,0.076660156,-0.28125,-0.8544922,1.5258789,0.30517578,0.0,0.0,0.0,165.99243,72.66907,-136.67542
1768998109756,-0.9614258,0.07519531,-0.2861328,-0.91552734,1.7089844,0.5493164,0.0,0.0,0.0,165.99243,72.66907,-136.67542
1768998109767,-0.9614258,0.07519531,-0.2861328,-0.91552734,1.7089844,0.5493164,0.0,0.0,0.0,166.08032,72.438354,-136.56006
1768998109855,-0.953125,0.07714844,-0.29638672,1.6479492,1.8920898,0.5493164,0.0,0.0,0.0,166.08032,72.438354,-136.56006
1768998109867,-0.953125,0.07714844,-0.29638672,1.6479492,1.8920898,0.5493164,0.0,0.0,0.0,166.24512,72.17468,-136.49963
1768998109956,-0.9560547,0.072265625,-0.3100586,1.2817383,2.0141602,0.5493164,0.0,0.0,0.0,166.24512,72.17468,-136.49963
1768998109967,-0.9560547,0.072265625,-0.3100586,1.2817383,2.0141602,0.5493164,0.0,0.0,0.0,166.26709,71.96045,-136.55457
1768998110055,-0.9511719,0.07373047,-0.30078125,2.0751953,-1.7700195,1.6479492,0.0,0.0,0.0,166.26709,71.96045,-136.55457
1768998110066,-0.9511719,0.07373047,-0.30078125,2.0751953,-1.7700195,1.6479492,0.0,0.0,0.0,166.1737,71.900024,-136.87317
1768998110155,-0.95751953,0.075683594,-0.30371094,0.48828125,-1.2817383,1.4038086,0.0,0.0,0.0,166.1737,71.900024,-136.87317
1768998110166,-0.95751953,0.075683594,-0.30371094,0.48828125,-1.2817383,1.4038086,0.0,0.0,0.0,165.92102,71.94946,-137.32361
1768998110254,-0.95458984,0.075683594,-0.28710938,0.8544922,-1.3427734,1.2817383,0.0,0.0,0.0,165.92102,71.94946,-137.32361
1768998110266,-0.95458984,0.075683594,-0.28710938,0.8544922,-1.3427734,1.2817383,0.0,0.0,0.0,165.70679,71.987915,-137.70813
1768998110354,-0.9550781,0.079589844,-0.29101562,-0.30517578,-0.61035156,0.6713867,0.0,0.0,0.0,165.70679,71.987915,-137.70813
1768998110366,-0.9550781,0.079589844,-0.29101562,-0.30517578,-0.61035156,0.6713867,0.0,0.0,0.0,165.07507,72.108765,-138.24097
1768998110454,-0.9609375,0.083496094,-0.28955078,-1.2817383,-1.3427734,0.4272461,0.0,0.0,0.0,165.07507,72.108765,-138.24097
1768998110466,-0.9609375,0.083496094,-0.28955078,-1.2817383,-1.3427734,0.4272461,0.0,0.0,0.0,164.73999,72.19116,-138.4552
1768998110554,-0.9580078,0.08886719,-0.29248047,-0.18310547,2.0141602,-0.7324219,0.0,0.0,0.0,164.73999,72.19116,-138.4552
1768998110565,-0.9580078,0.08886719,-0.29248047,-0.18310547,2.0141602,-0.7324219,0.0,0.0,0.0,164.61365,72.19116,-138.4552
1768998110653,-0.95996094,0.084472656,-0.2915039,-0.9765625,-0.6713867,-0.4272461,0.0,0.0,0.0,164.61365,72.19116,-138.4552
1768998110665,-0.95996094,0.084472656,-0.2915039,-0.9765625,-0.6713867,-0.4272461,0.0,0.0,0.0,164.68506,72.196655,-138.32886
1768998110753,-0.9584961,0.087402344,-0.28466797,-2.5024414,-1.3427734,0.30517578,0.0,0.0,0.0,164.68506,72.196655,-138.32886
1768998110765,-0.9584961,0.087402344,-0.28466797,-2.5024414,-1.3427734,0.30517578,0.0,0.0,0.0,164.5752,72.29004,-138.35083
1768998110853,-0.95703125,0.08496094,-0.28271484,0.0,-0.30517578,-0.48828125,0.0,0.0,0.0,164.5752,72.29004,-138.35083
1768998110864,-0.95703125,0.08496094,-0.28271484,0.0,-0.30517578,-0.48828125,0.0,0.0,0.0,164.35547,72.37244,-138.4497
1768998110952,-0.9589844,0.08544922,-0.2866211,0.24414062,-0.061035156,-0.18310547,0.0,0.0,0.0,164.35547,72.37244,-138.4497
1768998110964,-0.9589844,0.08544922,-0.2866211,0.24414062,-0.061035156,-0.18310547,0.0,0.0,0.0,164.36646,72.39441,-138.41125
1768998111052,-0.9589844,0.084472656,-0.2866211,0.8544922,-0.24414062,-0.36621094,0.0,0.0,0.0,164.36646,72.39441,-138.41125
1768998111064,-0.9589844,0.084472656,-0.2866211,0.8544922,-0.24414062,-0.36621094,0.0,0.0,0.0,164.51477,72.38342,-138.31787
1768998111152,-0.95410156,0.08105469,-0.2836914,1.7089844,1.0986328,-0.5493164,0.0,0.0,0.0,164.51477,72.38342,-138.31787
1768998111163,-0.95410156,0.08105469,-0.2836914,1.7089844,1.0986328,-0.5493164,0.0,0.0,0.0,164.66309,72.39441,-138.24097
1768998111252,-0.95996094,0.07861328,-0.28759766,1.8310547,0.0,-0.4272461,0.0,0.0,0.0,164.66309,72.39441,-138.24097
1768998111263,-0.95996094,0.07861328,-0.28759766,1.8310547,0.0,-0.4272461,0.0,0.0,0.0,164.8883,72.37793,-138.10913
1768998111351,-0.9511719,0.079589844,-0.2861328,-0.12207031,0.4272461,-0.48828125,0.0,0.0,0.0,164.8883,72.37793,-138.10913
1768998111363,-0.9511719,0.079589844,-0.2861328,-0.12207031,0.4272461,-0.48828125,0.0,0.0,0.0,165.19043,72.333984,-137.8949
1768998111451,-0.9526367,0.07714844,-0.2836914,0.7324219,0.8544922,-0.8544922,0.0,0.0,0.0,165.19043,72.333984,-137.8949
1768998111462,-0.9526367,0.07714844,-0.2836914,0.7324219,0.8544922,-0.8544922,0.0,0.0,0.0,165.44312,72.301025,-137.68066
1768998111551,-0.95996094,0.07861328,-0.29003906,-1.8310547,-0.8544922,0.30517578,0.0,0.0,0.0,165.44312,72.301025,-137.68066
1768998111563,-0.95996094,0.07861328,-0.29003906,-1.8310547,-0.8544922,0.30517578,0.0,0.0,0.0,165.49805,72.34497,-137.59277
1768998111650,-0.9604492,0.079589844,-0.2890625,-1.4038086,-1.4038086,0.61035156,0.0,0.0,0.0,165.49805,72.34497,-137.59277
1768998111662,-0.9604492,0.079589844,-0.2890625,-1.4038086,-1.4038086,0.61035156,0.0,0.0,0.0,165.3003,72.421875,-137.74109
1768998111750,-0.9560547,0.080078125,-0.28564453,-0.18310547,0.0,0.18310547,0.0,0.0,0.0,165.3003,72.421875,-137.74109
1768998111762,-0.9560547,0.080078125,-0.28564453,-0.18310547,0.0,0.18310547,0.0,0.0,0.0,165.14648,72.46582,-137.86743
1768998111850,-0.95947266,0.07910156,-0.2890625,-0.5493164,-0.36621094,0.4272461,0.0,0.0,0.0,165.14648,72.46582,-137.86743
1768998111861,-0.95947266,0.07910156,-0.2890625,-0.5493164,-0.36621094,0.4272461,0.0,0.0,0.0,165.04211,72.47131,-137.98279
1768998111949,-0.95996094,0.080566406,-0.28955078,-0.061035156,-0.4272461,0.18310547,0.0,0.0,0.0,165.04211,72.47131,-137.98279
1768998111961,-0.95996094,0.080566406,-0.28955078,-0.061035156,-0.4272461,0.18310547,0.0,0.0,0.0,164.9762,72.47681,-138.04321
1768998112049,-0.9550781,0.07861328,-0.29003906,3.7231445,0.4272461,-0.48828125,0.0,0.0,0.0,164.9762,72.47681,-138.04321
1768998112061,-0.9550781,0.07861328,-0.29003906,3.7231445,0.4272461,-0.48828125,0.0,0.0,0.0,165.14099,72.44934,-137.92786
1768998112149,-0.9584961,0.07861328,-0.29052734,2.380371,0.18310547,-0.7324219,0.0,0.0,0.0,165.14099,72.44934,-137.92786
1768998112160,-0.9584961,0.07861328,-0.29052734,2.380371,0.18310547,-0.7324219,0.0,0.0,0.0,165.17944,72.493286,-137.90588
1768998112249,-0.9609375,0.07910156,-0.28564453,0.5493164,-0.9765625,-0.12207031,0.0,0.0,0.0,165.17944,72.493286,-137.90588
1768998112260,-0.9609375,0.07910156,-0.28564453,0.5493164,-0.9765625,-0.12207031,0.0,0.0,0.0,165.30579,72.54822,-137.83447
1768998112348,-0.9550781,0.07763672,-0.27783203,1.5258789,-0.8544922,-0.30517578,0.0,0.0,0.0,165.30579,72.54822,-137.83447
1768998112360,-0.9550781,0.07763672,-0.27783203,1.5258789,-0.8544922,-0.30517578,0.0,0.0,0.0,165.23438,72.65808,-137.90588
1768998112448,-0.96240234,0.080566406,-0.27978516,1.5869141,0.6713867,-0.48828125,0.0,0.0,0.0,165.23438,72.65808,-137.90588
1768998112459,-0.96240234,0.080566406,-0.27978516,1.5869141,0.6713867,-0.48828125,0.0,0.0,0.0,165.20691,72.68555,-137.90039
1768998112548,-0.96240234,0.07910156,-0.28808594,1.159668,0.5493164,-0.24414062,0.0,0.0,0.0,165.20691,72.68555,-137.90039
1768998112560,-0.96240234,0.07910156,-0.28808594,1.159668,0.5493164,-0.24414062,0.0,0.0,0.0,165.28381,72.65259,-137.818
1768998112648,-0.95703125,0.07861328,-0.28515625,0.4272461,0.18310547,-0.36621094,0.0,0.0,0.0,165.28381,72.65259,-137.818
1768998112660,-0.95703125,0.07861328,-0.28515625,0.4272461,0.18310547,-0.36621094,0.0,0.0,0.0,165.47058,72.58667,-137.64221
1768998112747,-0.95996094,0.07373047,-0.2861328,0.91552734,-0.30517578,-0.5493164,0.0,0.0,0.0,165.47058,72.58667,-137.64221
1768998112759,-0.95996094,0.07373047,-0.2861328,0.91552734,-0.30517578,-0.5493164,0.0,0.0,0.0,165.68481,72.59766,-137.4884
1768998112847,-0.9584961,0.075683594,-0.2783203,-0.9765625,-0.4272461,-0.6713867,0.0,0.0,0.0,165.68481,72.59766,-137.4884
1768998112858,-0.9584961,0.075683594,-0.2783203,-0.9765625,-0.4272461,-0.6713867,0.0,0.0,0.0,166.10779,72.57019,-137.1643
1768998112947,-0.95703125,0.072265625,-0.27783203,0.36621094,0.61035156,-1.4648438,0.0,0.0,0.0,166.10779,72.57019,-137.1643
1768998112958,-0.95703125,0.072265625,-0.27783203,0.36621094,0.61035156,-1.4648438,0.0,0.0,0.0,166.47583,72.60315,-136.77429
1768998113046,-0.9589844,0.07080078,-0.2783203,-2.4414062,1.2207031,-0.9765625,0.0,0.0,0.0,166.47583,72.60315,-136.77429
1768998113058,-0.9589844,0.07080078,-0.2783203,-2.4414062,1.2207031,-0.9765625,0.0,0.0,0.0,166.87683,72.5647,-136.3623
1768998113146,-0.96533203,0.06591797,-0.2841797,-1.4038086,1.159668,-0.6713867,0.0,0.0,0.0,166.87683,72.5647,-136.3623
1768998113158,-0.96533203,0.06591797,-0.2841797,-1.4038086,1.159668,-0.6713867,0.0,0.0,0.0,167.28333,72.52075,-135.8844
1768998113246,-0.95751953,0.064941406,-0.28515625,-1.159668,1.5258789,-0.48828125,0.0,0.0,0.0,167.28333,72.52075,-135.8844
1768998113257,-0.95751953,0.064941406,-0.28515625,-1.159668,1.5258789,-0.48828125,0.0,0.0,0.0,167.57996,72.41089,-135.50537
1768998113345,-0.95458984,0.064941406,-0.29296875,-0.24414062,2.0141602,-0.36621094,0.0,0.0,0.0,167.57996,72.41089,-135.50537
1768998113357,-0.95458984,0.064941406,-0.29296875,-0.24414062,2.0141602,-0.36621094,0.0,0.0,0.0,167.7832,72.29553,-135.2417
1768998113445,-0.94970703,0.06347656,-0.296875,0.0,1.6479492,0.18310547,0.0,0.0,0.0,167.7832,72.29553,-135.2417
1768998113457,-0.94970703,0.06347656,-0.296875,0.0,1.6479492,0.18310547,0.0,0.0,0.0,167.90405,72.108765,-135.10437
1768998113545,-0.9555664,0.064453125,-0.29296875,0.7324219,0.91552734,0.61035156,0.0,0.0,0.0,167.90405,72.108765,-135.10437
1768998113556,-0.9555664,0.064453125,-0.29296875,0.7324219,0.91552734,0.61035156,0.0,0.0,0.0,167.8656,72.04285,-135.2417
1768998113645,-0.9555664,0.061035156,-0.30078125,0.12207031,1.5258789,0.79345703,0.0,0.0,0.0,167.8656,72.04285,-135.2417
1768998113656,-0.9555664,0.061035156,-0.30078125,0.12207031,1.5258789,0.79345703,0.0,0.0,0.0,167.88208,71.89453,-135.25818
1768998113744,-0.9550781,0.06689453,-0.30566406,0.061035156,0.9765625,1.0986328,0.0,0.0,0.0,167.88208,71.89453,-135.25818
1768998113756,-0.9550781,0.06689453,-0.30566406,0.061035156,0.9765625,1.0986328,0.0,0.0,0.0,167.72278,71.746216,-135.43396
1768998113844,-0.953125,0.06982422,-0.30371094,-0.8544922,0.9765625,0.79345703,0.0,0.0,0.0,167.72278,71.746216,-135.43396
1768998113856,-0.953125,0.06982422,-0.30371094,-0.8544922,0.9765625,0.79345703,0.0,0.0,0.0,167.66235,71.60339,-135.53833
1768998113944,-0.95214844,0.06591797,-0.29589844,0.79345703,0.18310547,0.36621094,0.0,0.0,0.0,167.66235,71.60339,-135.53833
1768998113955,-0.95214844,0.06591797,-0.29589844,0.79345703,0.18310547,0.36621094,0.0,0.0,0.0,167.7887,71.52649,-135.54932
1768998114043,-0.95214844,0.068847656,-0.30419922,0.8544922,0.12207031,0.061035156,0.0,0.0,0.0,167.7887,71.52649,-135.54932
1768998114055,-0.95214844,0.068847656,-0.30419922,0.8544922,0.12207031,0.061035156,0.0,0.0,0.0,167.76123,71.52649,-135.60425
1768998114143,-0.9536133,0.068359375,-0.31201172,-0.12207031,0.30517578,0.061035156,0.0,0.0,0.0,167.76123,71.52649,-135.60425
1768998114155,-0.9536133,0.068359375,-0.31201172,-0.12207031,0.30517578,0.061035156,0.0,0.0,0.0,167.66785,71.5155,-135.66467
1768998114243,-0.9501953,0.07080078,-0.3149414,0.18310547,-1.0375977,-0.18310547,0.0,0.0,0.0,167.66785,71.5155,-135.66467
1768998114255,-0.9501953,0.07080078,-0.3149414,0.18310547,-1.0375977,-0.18310547,0.0,0.0,0.0,167.83813,71.49902,-135.5603
1768998114343,-0.95751953,0.067871094,-0.31640625,-0.48828125,-0.48828125,-0.12207031,0.0,0.0,0.0,167.83813,71.49902,-135.5603
1768998114354,-0.95751953,0.067871094,-0.31640625,-0.48828125,-0.48828125,-0.12207031,0.0,0.0,0.0,167.89856,71.55945,-135.51636
1768998114442,-0.94921875,0.06933594,-0.30859375,0.18310547,-0.12207031,-0.18310547,0.0,0.0,0.0,167.89856,71.55945,-135.51636
1768998114454,-0.94921875,0.06933594,-0.30859375,0.18310547,-0.12207031,-0.18310547,0.0,0.0,0.0,168.06335,71.52649,-135.38452
1768998114542,-0.95410156,0.06689453,-0.30615234,0.91552734,-0.30517578,-0.18310547,0.0,0.0,0.0,168.06335,71.52649,-135.38452
1768998114554,-0.95410156,0.06689453,-0.30615234,0.91552734,-0.30517578,-0.18310547,0.0,0.0,0.0,168.09631,71.55945,-135.401
1768998114642,-0.9526367,0.06933594,-0.30517578,1.2817383,-0.5493164,-0.12207031,0.0,0.0,0.0,168.09631,71.55945,-135.401
1768998114654,-0.9526367,0.06933594,-0.30517578,1.2817383,-0.5493164,-0.12207031,0.0,0.0,0.0,168.22815,71.586914,-135.35156
1768998114742,-0.9511719,0.063964844,-0.30273438,1.0986328,-0.12207031,-0.30517578,0.0,0.0,0.0,168.22815,71.586914,-135.35156
1768998114753,-0.9511719,0.063964844,-0.30273438,1.0986328,-0.12207031,-0.30517578,0.0,0.0,0.0,168.33252,71.60339,-135.32959
1768998114841,-0.9555664,0.063964844,-0.3071289,0.48828125,-0.5493164,-0.18310547,0.0,0.0,0.0,168.33252,71.60339,-135.32959
1768998114853,-0.9555664,0.063964844,-0.3071289,0.48828125,-0.5493164,-0.18310547,0.0,0.0,0.0,168.41492,71.64734,-135.28015
1768998114941,-0.9584961,0.0703125,-0.30322266,2.319336,0.5493164,-0.79345703,0.0,0.0,0.0,168.41492,71.64734,-135.28015
1768998114952,-0.9584961,0.0703125,-0.30322266,2.319336,0.5493164,-0.79345703,0.0,0.0,0.0,168.64563,71.65283,-135.12085
1768998115041,-0.9555664,0.06591797,-0.30517578,-0.5493164,-0.61035156,-0.30517578,0.0,0.0,0.0,168.64563,71.65283,-135.12085
1768998115052,-0.9555664,0.06591797,-0.30517578,-0.5493164,-0.61035156,-0.30517578,0.0,0.0,0.0,168.65662,71.6803,-135.04944
1768998115141,-0.9580078,0.06542969,-0.29589844,-1.6479492,-0.91552734,0.061035156,0.0,0.0,0.0,168.65662,71.6803,-135.04944
1768998115152,-0.9580078,0.06542969,-0.29589844,-1.6479492,-0.91552734,0.061035156,0.0,0.0,0.0,168.6676,71.746216,-134.9945
1768998115240,-0.95214844,0.064941406,-0.29345703,-0.91552734,-0.6713867,-0.36621094,0.0,0.0,0.0,168.6676,71.746216,-134.9945
1768998115251,-0.95214844,0.064941406,-0.29345703,-0.91552734,-0.6713867,-0.36621094,0.0,0.0,0.0,168.60168,71.81763,-134.95056
1768998115340,-0.95947266,0.067871094,-0.2993164,-0.4272461,0.0,-0.61035156,0.0,0.0,0.0,168.60168,71.81763,-134.95056
1768998115351,-0.95947266,0.067871094,-0.2993164,-0.4272461,0.0,-0.61035156,0.0,0.0,0.0,168.70605,71.86157,-134.78577
1768998115439,-0.95703125,0.06298828,-0.29638672,0.12207031,-0.7324219,-0.4272461,0.0,0.0,0.0,168.70605,71.86157,-134.78577
1768998115451,-0.95703125,0.06298828,-0.29638672,0.12207031,-0.7324219,-0.4272461,0.0,0.0,0.0,168.92029,71.883545,-134.58801
1768998115539,-0.95703125,0.060546875,-0.29882812,2.0141602,-0.24414062,-0.36621094,0.0,0.0,0.0,168.92029,71.883545,-134.58801
1768998115551,-0.95703125,0.060546875,-0.29882812,2.0141602,-0.24414062,-0.36621094,0.0,0.0,0.0,169.00818,71.94397,-134.52759
1768998115639,-0.95654297,0.057617188,-0.29736328,2.4414062,0.8544922,-0.18310547,0.0,0.0,0.0,169.00818,71.94397,-134.52759
1768998115650,-0.95654297,0.057617188,-0.29736328,2.4414062,0.8544922,-0.18310547,0.0,0.0,0.0,169.16748,71.971436,-134.51111
1768998115739,-0.95751953,0.059570312,-0.2944336,-0.061035156,0.24414062,-0.061035156,0.0,0.0,0.0,169.16748,71.971436,-134.51111
1768998115750,-0.95751953,0.059570312,-0.2944336,-0.061035156,0.24414062,-0.061035156,0.0,0.0,0.0,169.27185,71.971436,-134.47266
1768998115838,-0.95996094,0.057617188,-0.29736328,-0.061035156,0.24414062,0.0,0.0,0.0,0.0,169.27185,71.971436,-134.47266
1768998115850,-0.95996094,0.057617188,-0.29736328,-0.061035156,0.24414062,0.0,0.0,0.0,0.0,169.28833,71.98242,-134.45618
1768998115938,-0.95410156,0.060546875,-0.29003906,0.12207031,0.4272461,-0.36621094,0.0,0.0,0.0,169.28833,71.98242,-134.45618
1768998115950,-0.95410156,0.060546875,-0.29003906,0.12207031,0.4272461,-0.36621094,0.0,0.0,0.0,169.21692,72.03186,-134.40674
1768998116038,-0.9506836,0.05859375,-0.29296875,0.91552734,1.0375977,-0.30517578,0.0,0.0,0.0,169.21692,72.03186,-134.40674
1768998116049,-0.9506836,0.05859375,-0.29296875,0.91552734,1.0375977,-0.30517578,0.0,0.0,0.0,169.22241,72.00989,-134.32983
1768998116137,-0.95458984,0.056152344,-0.29492188,1.159668,0.61035156,0.18310547,0.0,0.0,0.0,169.22241,72.00989,-134.32983
1768998116149,-0.95458984,0.056152344,-0.29492188,1.159668,0.61035156,0.18310547,0.0,0.0,0.0,169.13452,71.9989,-134.42322
1768998116237,-0.95458984,0.06201172,-0.30029297,-0.18310547,-1.4038086,0.7324219,0.0,0.0,0.0,169.13452,71.9989,-134.42322
1768998116249,-0.95458984,0.06201172,-0.30029297,-0.18310547,-1.4038086,0.7324219,0.0,0.0,0.0,168.89832,72.04834,-134.65393
1768998116337,-0.9506836,0.0625,-0.29345703,2.380371,1.0375977,0.30517578,0.0,0.0,0.0,168.89832,72.04834,-134.65393
1768998116348,-0.9506836,0.0625,-0.29345703,2.380371,1.0375977,0.30517578,0.0,0.0,0.0,168.79395,72.075806,-134.89014
1768998116437,-0.9584961,0.0625,-0.30029297,0.18310547,-0.30517578,0.48828125,0.0,0.0,0.0,168.79395,72.075806,-134.89014
1768998116448,-0.9584961,0.0625,-0.30029297,0.18310547,-0.30517578,0.48828125,0.0,0.0,0.0,168.64014,72.075806,-135.15381
1768998116536,-0.95751953,0.06298828,-0.29003906,0.36621094,0.0,0.91552734,0.0,0.0,0.0,168.64014,72.075806,-135.15381
1768998116548,-0.95751953,0.06298828,-0.29003906,0.36621094,0.0,0.91552734,0.0,0.0,0.0,168.5083,72.075806,-135.35156
1768998116636,-0.9550781,0.06298828,-0.28808594,-0.061035156,0.61035156,0.061035156,0.0,0.0,0.0,168.5083,72.075806,-135.35156
1768998116647,-0.9550781,0.06298828,-0.28808594,-0.061035156,0.61035156,0.061035156,0.0,0.0,0.0,168.25562,72.09778,-135.54382
1768998116736,-0.95996094,0.06982422,-0.29296875,0.0,0.0,-0.30517578,0.0,0.0,0.0,168.25562,72.09778,-135.54382
1768998116747,-0.95996094,0.06982422,-0.29296875,0.0,0.0,-0.30517578,0.0,0.0,0.0,168.04138,72.1582,-135.61523
1768998116835,-0.9638672,0.06738281,-0.2939453,-0.9765625,0.12207031,0.0,0.0,0.0,0.0,168.04138,72.1582,-135.61523
1768998116847,-0.9638672,0.06738281,-0.2939453,-0.9765625,0.12207031,0.0,0.0,0.0,0.0,168.0304,72.1637,-135.58777
1768998116935,-0.9536133,0.06591797,-0.29101562,-0.30517578,0.48828125,0.0,0.0,0.0,0.0,168.0304,72.1637,-135.58777
1768998116947,-0.9536133,0.06591797,-0.29101562,-0.30517578,0.48828125,0.0,0.0,0.0,0.0,168.12927,72.125244,-135.49438
1768998117035,-0.95654297,0.06591797,-0.2944336,1.0986328,0.30517578,0.12207031,0.0,0.0,0.0,168.12927,72.125244,-135.49438
1768998117047,-0.95654297,0.06591797,-0.2944336,1.0986328,0.30517578,0.12207031,0.0,0.0,0.0,168.12378,72.108765,-135.53833
1768998117135,-0.95458984,0.06591797,-0.29296875,-0.24414062,0.6713867,0.24414062,0.0,0.0,0.0,168.12378,72.108765,-135.53833
1768998117146,-0.95458984,0.06591797,-0.29296875,-0.24414062,0.6713867,0.24414062,0.0,0.0,0.0,168.24463,72.04285,-135.52185
1768998117234,-0.9550781,0.06640625,-0.29492188,1.0986328,0.8544922,-0.061035156,0.0,0.0,0.0,168.24463,72.04285,-135.52185
1768998117246,-0.9550781,0.06640625,-0.29492188,1.0986328,0.8544922,-0.061035156,0.0,0.0,0.0,168.30505,71.9989,-135.51636
1768998117334,-0.953125,0.06591797,-0.2939453,-0.6713867,0.18310547,0.4272461,0.0,0.0,0.0,168.30505,71.9989,-135.51636
1768998117345,-0.953125,0.06591797,-0.2939453,-0.6713867,0.18310547,0.4272461,0.0,0.0,0.0,168.22815,71.971436,-135.61523
1768998117434,-0.95458984,0.06591797,-0.2993164,0.61035156,0.4272461,0.18310547,0.0,0.0,0.0,168.22815,71.971436,-135.61523
1768998117445,-0.95458984,0.06591797,-0.2993164,0.61035156,0.4272461,0.18310547,0.0,0.0,0.0,168.23914,71.954956,-135.6372
1768998117533,-0.9536133,0.064453125,-0.3017578,0.61035156,-0.36621094,0.12207031,0.0,0.0,0.0,168.23914,71.954956,-135.6372
1768998117545,-0.9536133,0.064453125,-0.3017578,0.61035156,-0.36621094,0.12207031,0.0,0.0,0.0,168.20068,71.954956,-135.70312
1768998117633,-0.95458984,0.064941406,-0.30029297,0.18310547,-0.4272461,0.18310547,0.0,0.0,0.0,168.20068,71.954956,-135.70312
1768998117644,-0.95458984,0.064941406,-0.30029297,0.18310547,-0.4272461,0.18310547,0.0,0.0,0.0,168.1128,71.99341,-135.79102
1768998117733,-0.9555664,0.06640625,-0.30273438,0.0,-1.0375977,0.18310547,0.0,0.0,0.0,168.1128,71.99341,-135.79102
1768998117744,-0.9555664,0.06640625,-0.30273438,0.0,-1.0375977,0.18310547,0.0,0.0,0.0,168.05237,72.04834,-135.86792
1768998117832,-0.9555664,0.06347656,-0.30371094,-0.8544922,-1.5869141,0.24414062,0.0,0.0,0.0,168.05237,72.04834,-135.86792
1768998117844,-0.9555664,0.06347656,-0.30371094,-0.8544922,-1.5869141,0.24414062,0.0,0.0,0.0,168.16223,72.10327,-135.86792
1768998117932,-0.95458984,0.06640625,-0.29345703,-0.36621094,-0.91552734,-0.061035156,0.0,0.0,0.0,168.16223,72.10327,-135.86792
1768998117944,-0.95458984,0.06640625,-0.29345703,-0.36621094,-0.91552734,-0.061035156,0.0,0.0,0.0,168.16223,72.180176,-135.86243
1768998118032,-0.95947266,0.06298828,-0.2915039,-0.9765625,-0.9765625,0.0,0.0,0.0,0.0,168.16223,72.180176,-135.86243
1768998118043,-0.95947266,0.06298828,-0.2915039,-0.9765625,-0.9765625,0.0,0.0,0.0,0.0,168.1842,72.25159,-135.84595
1768998118132,-0.9628906,0.06640625,-0.29052734,-1.3427734,-0.30517578,-0.36621094,0.0,0.0,0.0,168.1842,72.25159,-135.84595
1768998118143,-0.9628906,0.06640625,-0.29052734,-1.3427734,-0.30517578,-0.36621094,0.0,0.0,0.0,168.16772,72.29553,-135.76355
1768998118231,-0.9555664,0.06591797,-0.28710938,-0.91552734,0.48828125,-0.4272461,0.0,0.0,0.0,168.16772,72.29553,-135.76355
1768998118243,-0.9555664,0.06591797,-0.28710938,-0.91552734,0.48828125,-0.4272461,0.0,0.0,0.0,168.35999,72.27905,-135.51636
1768998118331,-0.9584961,0.064941406,-0.29492188,-0.79345703,0.79345703,-0.30517578,0.0,0.0,0.0,168.35999,72.27905,-135.51636
1768998118343,-0.9584961,0.064941406,-0.29492188,-0.79345703,0.79345703,-0.30517578,0.0,0.0,0.0,168.32153,72.284546,-135.44495
1768998118431,-0.95996094,0.0625,-0.296875,-1.0375977,0.18310547,0.0,0.0,0.0,0.0,168.32153,72.284546,-135.44495
1768998118442,-0.95996094,0.0625,-0.296875,-1.0375977,0.18310547,0.0,0.0,0.0,0.0,168.36548,72.21863,-135.3241
