timestamp,accX,accY,accZ,gyroX,gyroY,gyroZ,magX,magY,magZ,roll,pitch,yaw
1770512459212,-0.98583984,0.2368164,-0.068847656,6.1035156,-8.544922,7.1411133,3541.0,4405.0,4240.0,95.69641,75.009155,131.74255
1770512459224,-0.98583984,0.2368164,-0.068847656,6.1035156,-8.544922,7.1411133,3541.0,4405.0,4240.0,95.49866,74.77844,131.18225
1770512459235,-0.98583984,0.2368164,-0.068847656,6.1035156,-8.544922,7.1411133,0.0,0.0,0.0,95.49866,74.77844,131.18225
1770512459312,-0.9658203,0.32763672,0.037109375,-0.79345703,-8.728027,-0.24414062,3549.0,4355.0,4188.0,95.49866,74.77844,131.18225
1770512459323,-0.9658203,0.32763672,0.037109375,-0.79345703,-8.728027,-0.24414062,3549.0,4355.0,4188.0,88.00598,74.020386,125.27161
1770512459338,-0.9658203,0.32763672,0.037109375,-0.79345703,-8.728027,-0.24414062,0.0,0.0,0.0,88.00598,74.020386,125.27161
1770512459413,-0.9682617,0.19726562,0.028320312,28.503418,7.446289,-7.6904297,3446.0,4436.0,4234.0,88.00598,74.020386,125.27161
1770512459423,-0.9682617,0.19726562,0.028320312,28.503418,7.446289,-7.6904297,3446.0,4436.0,4234.0,93.36182,74.712524,127.56775
1770512459434,-0.9682617,0.19726562,0.028320312,28.503418,7.446289,-7.6904297,0.0,0.0,0.0,93.36182,74.712524,127.56775
1770512459512,-0.9760742,0.2866211,-0.02734375,5.554199,4.638672,-2.0751953,3455.0,4447.0,4217.0,93.36182,74.712524,127.56775
1770512459523,-0.9760742,0.2866211,-0.02734375,5.554199,4.638672,-2.0751953,3455.0,4447.0,4217.0,96.74011,74.937744,130.55054
1770512459535,-0.9760742,0.2866211,-0.02734375,5.554199,4.638672,-2.0751953,0.0,0.0,0.0,96.74011,74.937744,130.55054
1770512459612,-0.9501953,0.23730469,-0.011230469,20.446777,3.0517578,-5.554199,3471.0,4274.0,4108.0,96.74011,74.937744,130.55054
1770512459622,-0.9501953,0.23730469,-0.011230469,20.446777,3.0517578,-5.554199,3471.0,4274.0,4108.0,99.97009,75.4541,132.13257
1770512459634,-0.9501953,0.23730469,-0.011230469,20.446777,3.0517578,-5.554199,0.0,0.0,0.0,99.97009,75.4541,132.13257
1770512459711,-0.9355469,0.23535156,-0.020507812,5.126953,-0.36621094,-0.18310547,3492.0,4225.0,4088.0,99.97009,75.4541,132.13257
1770512459722,-0.9355469,0.23535156,-0.020507812,5.126953,-0.36621094,-0.18310547,3492.0,4225.0,4088.0,100.876465,75.60242,132.63794
1770512459734,-0.9355469,0.23535156,-0.020507812,5.126953,-0.36621094,-0.18310547,0.0,0.0,0.0,100.876465,75.60242,132.63794
1770512459810,-0.9946289,0.2524414,-0.05078125,1.0986328,-8.972168,0.5493164,3487.0,4215.0,4026.0,100.876465,75.60242,132.63794
1770512459822,-0.9946289,0.2524414,-0.05078125,1.0986328,-8.972168,0.5493164,3487.0,4215.0,4026.0,98.16284,75.62439,130.00671
1770512459833,-0.9946289,0.2524414,-0.05078125,1.0986328,-8.972168,0.5493164,0.0,0.0,0.0,98.16284,75.62439,130.00671
1770512459910,-0.9628906,0.2397461,0.0078125,1.0375977,-2.1972656,0.36621094,3473.0,4200.0,4015.0,98.16284,75.62439,130.00671
1770512459922,-0.9628906,0.2397461,0.0078125,1.0375977,-2.1972656,0.36621094,3473.0,4200.0,4015.0,96.09192,75.64636,128.21045
1770512459933,-0.9628906,0.2397461,0.0078125,1.0375977,-2.1972656,0.36621094,0.0,0.0,0.0,96.09192,75.64636,128.21045
1770512460010,-0.97021484,0.23925781,-0.014160156,-5.1879883,0.061035156,1.7700195,3441.0,4202.0,3902.0,96.09192,75.64636,128.21045
1770512460022,-0.97021484,0.23925781,-0.014160156,-5.1879883,0.061035156,1.7700195,3441.0,4202.0,3902.0,94.97131,75.48157,127.803955
1770512460034,-0.97021484,0.23925781,-0.014160156,-5.1879883,0.061035156,1.7700195,0.0,0.0,0.0,94.97131,75.48157,127.803955
1770512460110,-0.99072266,0.2446289,-0.023925781,-2.9907227,2.9296875,0.61035156,3441.0,4198.0,3913.0,94.97131,75.48157,127.803955
1770512460121,-0.99072266,0.2446289,-0.023925781,-2.9907227,2.9296875,0.61035156,3441.0,4198.0,3913.0,95.44922,75.38818,128.93555
1770512460132,-0.99072266,0.2446289,-0.023925781,-2.9907227,2.9296875,0.61035156,0.0,0.0,0.0,95.44922,75.38818,128.93555
1770512460209,-0.9814453,0.2548828,-0.013183594,-7.3242188,-2.0141602,1.6479492,3458.0,4200.0,3965.0,95.44922,75.38818,128.93555
1770512460221,-0.9814453,0.2548828,-0.013183594,-7.3242188,-2.0141602,1.6479492,3458.0,4200.0,3965.0,95.43823,75.322266,129.68811
1770512460232,-0.9814453,0.2548828,-0.013183594,-7.3242188,-2.0141602,1.6479492,0.0,0.0,0.0,95.43823,75.322266,129.68811
1770512460309,-0.9824219,0.25732422,-0.03955078,-9.033203,-1.5258789,2.380371,3464.0,4198.0,3986.0,95.43823,75.322266,129.68811
1770512460322,-0.9824219,0.25732422,-0.03955078,-9.033203,-1.5258789,2.380371,3464.0,4198.0,3986.0,91.59851,74.92676,127.43042
1770512460332,-0.9824219,0.25732422,-0.03955078,-9.033203,-1.5258789,2.380371,0.0,0.0,0.0,91.59851,74.92676,127.43042
1770512460409,-0.9663086,0.2578125,-0.0029296875,-8.178711,3.8452148,1.0986328,3444.0,4196.0,4010.0,91.59851,74.92676,127.43042
1770512460420,-0.9663086,0.2578125,-0.0029296875,-8.178711,3.8452148,1.0986328,3444.0,4196.0,4010.0,92.64221,74.8938,129.01794
1770512460433,-0.9663086,0.2578125,-0.0029296875,-8.178711,3.8452148,1.0986328,0.0,0.0,0.0,92.64221,74.8938,129.01794
1770512460509,-0.97314453,0.2626953,-0.008300781,-5.2490234,7.446289,1.0375977,3424.0,4221.0,4024.0,92.64221,74.8938,129.01794
1770512460520,-0.97314453,0.2626953,-0.008300781,-5.2490234,7.446289,1.0375977,3424.0,4221.0,4024.0,93.933105,74.712524,131.1383
1770512460533,-0.97314453,0.2626953,-0.008300781,-5.2490234,7.446289,1.0375977,0.0,0.0,0.0,93.933105,74.712524,131.1383
1770512460608,-1.0390625,0.20654297,-0.030761719,-2.5634766,14.099121,-10.131836,3458.0,4201.0,4126.0,93.933105,74.712524,131.1383
1770512460620,-1.0390625,0.20654297,-0.030761719,-2.5634766,14.099121,-10.131836,3458.0,4201.0,4126.0,97.88818,75.05859,135.58228
1770512460631,-1.0390625,0.20654297,-0.030761719,-2.5634766,14.099121,-10.131836,0.0,0.0,0.0,97.88818,75.05859,135.58228
1770512460708,-0.94384766,0.12792969,-0.061523438,-3.90625,22.949219,-16.479492,3465.0,4210.0,4185.0,97.88818,75.05859,135.58228
1770512460719,-0.94384766,0.12792969,-0.061523438,-3.90625,22.949219,-16.479492,3465.0,4210.0,4185.0,107.34192,76.30005,145.42603
1770512460732,-0.94384766,0.12792969,-0.061523438,-3.90625,22.949219,-16.479492,0.0,0.0,0.0,107.34192,76.30005,145.42603
1770512460808,-0.9667969,0.22802734,-0.12841797,-26.794434,4.3945312,1.4038086,3471.0,4226.0,4241.0,107.34192,76.30005,145.42603
1770512460819,-0.9667969,0.22802734,-0.12841797,-26.794434,4.3945312,1.4038086,3471.0,4226.0,4241.0,113.065796,76.65161,152.80334
1770512460831,-0.9667969,0.22802734,-0.12841797,-26.794434,4.3945312,1.4038086,0.0,0.0,0.0,113.065796,76.65161,152.80334
1770512460908,-0.9526367,0.25927734,-0.083496094,-11.535645,-1.5258789,4.211426,3475.0,4116.0,4319.0,113.065796,76.65161,152.80334
1770512460919,-0.9526367,0.25927734,-0.083496094,-11.535645,-1.5258789,4.211426,3475.0,4116.0,4319.0,110.599365,76.28906,152.38586
1770512460930,-0.9526367,0.25927734,-0.083496094,-11.535645,-1.5258789,4.211426,0.0,0.0,0.0,110.599365,76.28906,152.38586
1770512461007,-0.9399414,0.25634766,-0.053710938,-15.075684,-4.1503906,9.216309,3503.0,4118.0,4374.0,110.599365,76.28906,152.38586
1770512461019,-0.9399414,0.25634766,-0.053710938,-15.075684,-4.1503906,9.216309,3503.0,4118.0,4374.0,107.08923,75.60242,150.29297
1770512461030,-0.9399414,0.25634766,-0.053710938,-15.075684,-4.1503906,9.216309,0.0,0.0,0.0,107.08923,75.60242,150.29297
1770512461107,-0.9692383,0.29541016,-0.080078125,-6.713867,-1.8920898,9.643555,3501.0,4111.0,4446.0,107.08923,75.60242,150.29297
1770512461119,-0.9692383,0.29541016,-0.080078125,-6.713867,-1.8920898,9.643555,3501.0,4111.0,4446.0,103.55713,74.65759,147.75513
1770512461130,-0.9692383,0.29541016,-0.080078125,-6.713867,-1.8920898,9.643555,0.0,0.0,0.0,103.55713,74.65759,147.75513
1770512461207,-0.95410156,0.30664062,-0.07080078,9.70459,-3.7231445,8.056641,3534.0,4118.0,4497.0,103.55713,74.65759,147.75513
1770512461218,-0.95410156,0.30664062,-0.07080078,9.70459,-3.7231445,8.056641,3534.0,4118.0,4497.0,102.31018,73.828125,145.94238
1770512461230,-0.95410156,0.30664062,-0.07080078,9.70459,-3.7231445,8.056641,0.0,0.0,0.0,102.31018,73.828125,145.94238
1770512461306,-0.94433594,0.31640625,-0.05859375,27.09961,-8.911133,5.6762695,3575.0,4070.0,4515.0,102.31018,73.828125,145.94238
1770512461318,-0.94433594,0.31640625,-0.05859375,27.09961,-8.911133,5.6762695,3575.0,4070.0,4515.0,101.20056,73.14697,142.8772
1770512461331,-0.94433594,0.31640625,-0.05859375,27.09961,-8.911133,5.6762695,0.0,0.0,0.0,101.20056,73.14697,142.8772
1770512461406,-0.94628906,0.31152344,-0.03466797,35.461426,-13.183594,4.333496,3595.0,4024.0,4498.0,101.20056,73.14697,142.8772
1770512461418,-0.94628906,0.31152344,-0.03466797,35.461426,-13.183594,4.333496,3595.0,4024.0,4498.0,100.60181,72.52075,139.14734
1770512461429,-0.94628906,0.31152344,-0.03466797,35.461426,-13.183594,4.333496,0.0,0.0,0.0,100.60181,72.52075,139.14734
1770512461506,-0.94384766,0.35888672,-0.061523438,32.226562,-3.112793,5.432129,3578.0,3970.0,4353.0,100.60181,72.52075,139.14734
1770512461517,-0.94384766,0.35888672,-0.061523438,32.226562,-3.112793,5.432129,3578.0,3970.0,4353.0,100.618286,72.05383,135.62622
1770512461529,-0.94384766,0.35888672,-0.061523438,32.226562,-3.112793,5.432129,0.0,0.0,0.0,100.618286,72.05383,135.62622
1770512461606,-0.9614258,0.33154297,-0.052246094,8.422852,-2.1972656,2.6245117,3581.0,3906.0,4209.0,100.618286,72.05383,135.62622
1770512461617,-0.9614258,0.33154297,-0.052246094,8.422852,-2.1972656,2.6245117,3581.0,3906.0,4209.0,102.75513,71.51001,135.8899
1770512461628,-0.9614258,0.33154297,-0.052246094,8.422852,-2.1972656,2.6245117,0.0,0.0,0.0,102.75513,71.51001,135.8899
1770512461705,-0.9272461,0.37353516,-0.06738281,-16.601562,0.8544922,2.0141602,3582.0,3852.0,4152.0,102.75513,71.51001,135.8899
1770512461717,-0.9272461,0.37353516,-0.06738281,-16.601562,0.8544922,2.0141602,3582.0,3852.0,4152.0,100.00305,71.23535,134.26392
1770512461728,-0.9272461,0.37353516,-0.06738281,-16.601562,0.8544922,2.0141602,0.0,0.0,0.0,100.00305,71.23535,134.26392
1770512461805,-0.90185547,0.41601562,-0.0014648438,-3.112793,-0.6713867,0.24414062,3591.0,3817.0,4132.0,100.00305,71.23535,134.26392
1770512461816,-0.90185547,0.41601562,-0.0014648438,-3.112793,-0.6713867,0.24414062,3591.0,3817.0,4132.0,100.38757,71.103516,135.63171
1770512461828,-0.90185547,0.41601562,-0.0014648438,-3.112793,-0.6713867,0.24414062,0.0,0.0,0.0,100.38757,71.103516,135.63171
1770512461905,-0.8745117,0.41601562,-0.015136719,4.699707,-13.549805,2.0141602,3589.0,3859.0,4159.0,100.38757,71.103516,135.63171
1770512461916,-0.8745117,0.41601562,-0.015136719,4.699707,-13.549805,2.0141602,3589.0,3859.0,4159.0,97.89917,70.78491,133.1488
1770512461928,-0.8745117,0.41601562,-0.015136719,4.699707,-13.549805,2.0141602,0.0,0.0,0.0,97.89917,70.78491,133.1488
1770512462005,-0.9628906,0.3154297,-0.03466797,9.277344,-2.1972656,3.7231445,3584.0,3875.0,4157.0,97.89917,70.78491,133.1488
1770512462016,-0.9628906,0.3154297,-0.03466797,9.277344,-2.1972656,3.7231445,3584.0,3875.0,4157.0,96.00403,70.268555,130.27588
1770512462027,-0.9628906,0.3154297,-0.03466797,9.277344,-2.1972656,3.7231445,0.0,0.0,0.0,96.00403,70.268555,130.27588
1770512462104,-1.0375977,0.26123047,0.015625,-8.605957,17.089844,-0.48828125,3567.0,3836.0,4123.0,96.00403,70.268555,130.27588
1770512462116,-1.0375977,0.26123047,0.015625,-8.605957,17.089844,-0.48828125,3567.0,3836.0,4123.0,96.97632,69.49402,132.59949
1770512462127,-1.0375977,0.26123047,0.015625,-8.605957,17.089844,-0.48828125,0.0,0.0,0.0,96.97632,69.49402,132.59949
1770512462204,-1.0019531,0.25683594,-0.14208984,-17.578125,-9.216309,-12.939453,3594.0,3793.0,4150.0,96.97632,69.49402,132.59949
1770512462215,-1.0019531,0.25683594,-0.14208984,-17.578125,-9.216309,-12.939453,3594.0,3793.0,4150.0,99.14612,70.40588,136.09863
1770512462228,-1.0019531,0.25683594,-0.14208984,-17.578125,-9.216309,-12.939453,0.0,0.0,0.0,99.14612,70.40588,136.09863
1770512462304,-0.9785156,0.2524414,-0.024414062,13.73291,2.9907227,-12.573242,3649.0,3512.0,4075.0,99.14612,70.40588,136.09863
1770512462315,-0.9785156,0.2524414,-0.024414062,13.73291,2.9907227,-12.573242,3649.0,3512.0,4075.0,95.57556,71.51001,134.23645
1770512462328,-0.9785156,0.2524414,-0.024414062,13.73291,2.9907227,-12.573242,0.0,0.0,0.0,95.57556,71.51001,134.23645
1770512462403,-0.9868164,0.23339844,-0.08300781,4.3945312,6.591797,-8.178711,3617.0,3433.0,3944.0,95.57556,71.51001,134.23645
1770512462415,-0.9868164,0.23339844,-0.08300781,4.3945312,6.591797,-8.178711,3617.0,3433.0,3944.0,99.678955,72.94922,137.10938
1770512462426,-0.9868164,0.23339844,-0.08300781,4.3945312,6.591797,-8.178711,0.0,0.0,0.0,99.678955,72.94922,137.10938
1770512462503,-0.98583984,0.18896484,-0.07080078,25.20752,-2.0141602,-10.070801,3584.0,3446.0,3916.0,99.678955,72.94922,137.10938
1770512462515,-0.98583984,0.18896484,-0.07080078,25.20752,-2.0141602,-10.070801,3584.0,3446.0,3916.0,102.996826,73.99841,139.14734
1770512462526,-0.98583984,0.18896484,-0.07080078,25.20752,-2.0141602,-10.070801,0.0,0.0,0.0,102.996826,73.99841,139.14734
1770512462603,-0.9614258,0.23242188,-0.048339844,22.399902,-3.1738281,-11.535645,3567.0,3469.0,3833.0,102.996826,73.99841,139.14734
1770512462614,-0.9614258,0.23242188,-0.048339844,22.399902,-3.1738281,-11.535645,3567.0,3469.0,3833.0,104.902954,75.250854,139.39453
1770512462626,-0.9614258,0.23242188,-0.048339844,22.399902,-3.1738281,-11.535645,0.0,0.0,0.0,104.902954,75.250854,139.39453
1770512462702,-0.9711914,0.22998047,-0.051757812,26.306152,0.8544922,-8.361816,3536.0,3444.0,3737.0,104.902954,75.250854,139.39453
1770512462714,-0.9711914,0.22998047,-0.051757812,26.306152,0.8544922,-8.361816,3536.0,3444.0,3737.0,109.54468,76.39343,141.27869
1770512462725,-0.9711914,0.22998047,-0.051757812,26.306152,0.8544922,-8.361816,0.0,0.0,0.0,109.54468,76.39343,141.27869
1770512462802,-0.9667969,0.18701172,-0.06298828,8.850098,2.9907227,0.36621094,3504.0,3421.0,3586.0,109.54468,76.39343,141.27869
1770512462814,-0.9667969,0.18701172,-0.06298828,8.850098,2.9907227,0.36621094,3504.0,3421.0,3586.0,110.20935,76.77246,141.30066
1770512462825,-0.9667969,0.18701172,-0.06298828,8.850098,2.9907227,0.36621094,0.0,0.0,0.0,110.20935,76.77246,141.30066
1770512462902,-0.97753906,0.17236328,-0.07080078,-26.550293,5.065918,3.479004,3495.0,3404.0,3507.0,110.20935,76.77246,141.30066
1770512462913,-0.97753906,0.17236328,-0.07080078,-26.550293,5.065918,3.479004,3495.0,3404.0,3507.0,111.89575,76.4978,143.81104
1770512462925,-0.97753906,0.17236328,-0.07080078,-26.550293,5.065918,3.479004,0.0,0.0,0.0,111.89575,76.4978,143.81104
1770512463002,-0.96484375,0.28466797,-0.09082031,-22.888184,9.765625,3.6621094,3500.0,3401.0,3534.0,111.89575,76.4978,143.81104
1770512463013,-0.96484375,0.28466797,-0.09082031,-22.888184,9.765625,3.6621094,3500.0,3401.0,3534.0,110.92346,75.72327,146.42578
1770512463032,-0.96484375,0.28466797,-0.09082031,-22.888184,9.765625,3.6621094,0.0,0.0,0.0,110.92346,75.72327,146.42578
1770512463101,-0.9589844,0.26367188,-0.09326172,0.7324219,8.178711,1.8920898,3534.0,3445.0,3714.0,110.92346,75.72327,146.42578
1770512463114,-0.9589844,0.26367188,-0.09326172,0.7324219,8.178711,1.8920898,3534.0,3445.0,3714.0,112.27478,75.33325,149.04053
1770512463124,-0.9589844,0.26367188,-0.09326172,0.7324219,8.178711,1.8920898,0.0,0.0,0.0,112.27478,75.33325,149.04053
1770512463201,-0.97314453,0.21826172,-0.09472656,-10.559082,-0.30517578,-3.540039,3567.0,3494.0,3882.0,112.27478,75.33325,149.04053
1770512463213,-0.97314453,0.21826172,-0.09472656,-10.559082,-0.30517578,-3.540039,3567.0,3494.0,3882.0,113.20862,75.24536,150.2655
1770512463225,-0.97314453,0.21826172,-0.09472656,-10.559082,-0.30517578,-3.540039,0.0,0.0,0.0,113.20862,75.24536,150.2655
1770512463301,-0.9614258,0.29296875,-0.099609375,-22.033691,-2.6855469,-3.0517578,3555.0,3497.0,3934.0,113.20862,75.24536,150.2655
1770512463315,-0.9614258,0.29296875,-0.099609375,-22.033691,-2.6855469,-3.0517578,3555.0,3497.0,3934.0,111.7749,75.66284,150.52368
1770512463324,-0.9614258,0.29296875,-0.099609375,-22.033691,-2.6855469,-3.0517578,0.0,0.0,0.0,111.7749,75.66284,150.52368
1770512463400,-0.93359375,0.17822266,-0.09277344,5.859375,-3.3569336,-5.6152344,3547.0,3516.0,3928.0,111.7749,75.66284,150.52368
1770512463412,-0.93359375,0.17822266,-0.09277344,5.859375,-3.3569336,-5.6152344,3547.0,3516.0,3928.0,111.52222,76.102295,150.44678
1770512463423,-0.93359375,0.17822266,-0.09277344,5.859375,-3.3569336,-5.6152344,0.0,0.0,0.0,111.52222,76.102295,150.44678
1770512463500,-0.9482422,0.28466797,-0.05517578,3.1738281,-3.540039,-1.2817383,3539.0,3546.0,3930.0,111.52222,76.102295,150.44678
1770512463512,-0.9482422,0.28466797,-0.05517578,3.1738281,-3.540039,-1.2817383,3539.0,3546.0,3930.0,108.28125,76.2616,148.16162
1770512463523,-0.9482422,0.28466797,-0.05517578,3.1738281,-3.540039,-1.2817383,0.0,0.0,0.0,108.28125,76.2616,148.16162
1770512463601,-0.9790039,0.1977539,-0.063964844,1.8310547,-7.873535,6.713867,3508.0,3589.0,3904.0,108.28125,76.2616,148.16162
1770512463612,-0.9790039,0.1977539,-0.063964844,1.8310547,-7.873535,6.713867,3508.0,3589.0,3904.0,106.76514,75.87158,145.39856
1770512463623,-0.9790039,0.1977539,-0.063964844,1.8310547,-7.873535,6.713867,0.0,0.0,0.0,106.76514,75.87158,145.39856
1770512463700,-0.9897461,0.25976562,-0.052246094,17.150879,-10.009766,4.4555664,3513.0,3559.0,3832.0,106.76514,75.87158,145.39856
1770512463711,-0.9897461,0.25976562,-0.052246094,17.150879,-10.009766,4.4555664,3513.0,3559.0,3832.0,103.150635,75.739746,141.1029
1770512463723,-0.9897461,0.25976562,-0.052246094,17.150879,-10.009766,4.4555664,0.0,0.0,0.0,103.150635,75.739746,141.1029
1770512463799,-0.9399414,0.28027344,-0.043945312,12.145996,-8.239746,10.498047,3508.0,3497.0,3721.0,103.150635,75.739746,141.1029
1770512463811,-0.9399414,0.28027344,-0.043945312,12.145996,-8.239746,10.498047,3508.0,3497.0,3721.0,100.67322,75.11902,136.99951
1770512463823,-0.9399414,0.28027344,-0.043945312,12.145996,-8.239746,10.498047,0.0,0.0,0.0,100.67322,75.11902,136.99951
1770512463899,-0.9819336,0.35595703,-0.036621094,24.169922,0.61035156,7.2021484,3516.0,3410.0,3594.0,100.67322,75.11902,136.99951
1770512463911,-0.9819336,0.35595703,-0.036621094,24.169922,0.61035156,7.2021484,3516.0,3410.0,3594.0,101.013794,74.24011,135.63171
1770512463922,-0.9819336,0.35595703,-0.036621094,24.169922,0.61035156,7.2021484,0.0,0.0,0.0,101.013794,74.24011,135.63171
1770512463999,-1.0009766,0.25097656,-0.044921875,8.544922,-3.3569336,8.117676,3526.0,3353.0,3616.0,101.013794,74.24011,135.63171
1770512464010,-1.0009766,0.25097656,-0.044921875,8.544922,-3.3569336,8.117676,3526.0,3353.0,3616.0,101.42578,73.465576,134.39575
1770512464022,-1.0009766,0.25097656,-0.044921875,8.544922,-3.3569336,8.117676,0.0,0.0,0.0,101.42578,73.465576,134.39575
1770512464099,-0.9291992,0.35742188,-0.056640625,6.0424805,2.1972656,5.6152344,3541.0,3286.0,3601.0,101.42578,73.465576,134.39575
1770512464110,-0.9291992,0.35742188,-0.056640625,6.0424805,2.1972656,5.6152344,3541.0,3286.0,3601.0,101.85425,72.59216,135.10986
1770512464123,-0.9291992,0.35742188,-0.056640625,6.0424805,2.1972656,5.6152344,0.0,0.0,0.0,101.85425,72.59216,135.10986
1770512464198,-0.92626953,0.31933594,-0.067871094,-0.5493164,10.131836,2.5024414,3575.0,3256.0,3613.0,101.85425,72.59216,135.10986
1770512464210,-0.92626953,0.31933594,-0.067871094,-0.5493164,10.131836,2.5024414,3575.0,3256.0,3613.0,104.2218,71.91101,137.40051
1770512464221,-0.92626953,0.31933594,-0.067871094,-0.5493164,10.131836,2.5024414,0.0,0.0,0.0,104.2218,71.91101,137.40051
1770512464298,-0.93310547,0.36669922,-0.07714844,-15.991211,8.483887,1.953125,3594.0,3239.0,3627.0,104.2218,71.91101,137.40051
1770512464309,-0.93310547,0.36669922,-0.07714844,-15.991211,8.483887,1.953125,3594.0,3239.0,3627.0,105.40283,71.433105,140.24597
1770512464321,-0.93310547,0.36669922,-0.07714844,-15.991211,8.483887,1.953125,0.0,0.0,0.0,105.40283,71.433105,140.24597
1770512464398,-0.98535156,0.39404297,-0.06738281,-31.799316,22.033691,10.375977,3615.0,3235.0,3786.0,105.40283,71.433105,140.24597
1770512464409,-0.98535156,0.39404297,-0.06738281,-31.799316,22.033691,10.375977,3615.0,3235.0,3786.0,107.53967,70.27405,145.03601
1770512464421,-0.98535156,0.39404297,-0.06738281,-31.799316,22.033691,10.375977,0.0,0.0,0.0,107.53967,70.27405,145.03601
1770512464497,-0.9116211,0.25927734,-0.13330078,-15.50293,8.728027,-0.7324219,3659.0,3246.0,4014.0,107.53967,70.27405,145.03601
1770512464509,-0.9116211,0.25927734,-0.13330078,-15.50293,8.728027,-0.7324219,3659.0,3246.0,4014.0,107.79785,69.609375,147.32666
1770512464520,-0.9116211,0.25927734,-0.13330078,-15.50293,8.728027,-0.7324219,0.0,0.0,0.0,107.79785,69.609375,147.32666
1770512464597,-0.8847656,0.41455078,-0.15917969,-38.085938,-15.930176,2.319336,3706.0,3260.0,4191.0,107.79785,69.609375,147.32666
1770512464608,-0.8847656,0.41455078,-0.15917969,-38.085938,-15.930176,2.319336,3706.0,3260.0,4191.0,103.07922,69.89502,145.73914
1770512464620,-0.8847656,0.41455078,-0.15917969,-38.085938,-15.930176,2.319336,0.0,0.0,0.0,103.07922,69.89502,145.73914
1770512464697,-0.9614258,0.30908203,-0.0234375,7.507324,3.9672852,3.6621094,3696.0,3283.0,4210.0,103.07922,69.89502,145.73914
1770512464708,-0.9614258,0.30908203,-0.0234375,7.507324,3.9672852,3.6621094,3696.0,3283.0,4210.0,102.282715,69.3457,145.72266
1770512464720,-0.9614258,0.30908203,-0.0234375,7.507324,3.9672852,3.6621094,0.0,0.0,0.0,102.282715,69.3457,145.72266
1770512464797,-0.9550781,0.2421875,-0.09423828,-11.657715,1.7700195,-8.666992,3669.0,3314.0,4296.0,102.282715,69.3457,145.72266
1770512464808,-0.9550781,0.2421875,-0.09423828,-11.657715,1.7700195,-8.666992,3669.0,3314.0,4296.0,104.01306,70.235596,147.30469
1770512464819,-0.9550781,0.2421875,-0.09423828,-11.657715,1.7700195,-8.666992,0.0,0.0,0.0,104.01306,70.235596,147.30469
1770512464896,-0.9536133,0.34570312,-0.08496094,-13.427734,-9.277344,-8.361816,3694.0,3105.0,4147.0,104.01306,70.235596,147.30469
1770512464908,-0.9536133,0.34570312,-0.08496094,-13.427734,-9.277344,-8.361816,3694.0,3105.0,4147.0,98.87695,70.93323,145.01953
1770512464920,-0.9536133,0.34570312,-0.08496094,-13.427734,-9.277344,-8.361816,0.0,0.0,0.0,98.87695,70.93323,145.01953
1770512464996,-0.9692383,0.27978516,-0.06689453,4.1503906,-7.3242188,-12.451172,3689.0,3107.0,4146.0,98.87695,70.93323,145.01953
1770512465007,-0.9692383,0.27978516,-0.06689453,4.1503906,-7.3242188,-12.451172,3689.0,3107.0,4146.0,98.44849,72.03186,144.10217
1770512465019,-0.9692383,0.27978516,-0.06689453,4.1503906,-7.3242188,-12.451172,0.0,0.0,0.0,98.44849,72.03186,144.10217
1770512465096,-0.97265625,0.23730469,-0.056640625,7.6293945,-10.437012,-14.038086,3632.0,3173.0,4088.0,98.44849,72.03186,144.10217
1770512465107,-0.97265625,0.23730469,-0.056640625,7.6293945,-10.437012,-14.038086,3632.0,3173.0,4088.0,96.60828,73.38867,141.41052
1770512465119,-0.97265625,0.23730469,-0.056640625,7.6293945,-10.437012,-14.038086,0.0,0.0,0.0,96.60828,73.38867,141.41052
1770512465195,-1.0366211,0.2993164,-0.0546875,7.2021484,-6.713867,0.9765625,3553.0,3202.0,3965.0,96.60828,73.38867,141.41052
1770512465207,-1.0366211,0.2993164,-0.0546875,7.2021484,-6.713867,0.9765625,3553.0,3202.0,3965.0,95.41626,74.278564,138.9386
1770512465218,-1.0366211,0.2993164,-0.0546875,7.2021484,-6.713867,0.9765625,0.0,0.0,0.0,95.41626,74.278564,138.9386
1770512465295,-0.9902344,0.25927734,-0.06591797,24.414062,-0.12207031,-12.268066,3496.0,3225.0,3780.0,95.41626,74.278564,138.9386
1770512465307,-0.9902344,0.25927734,-0.06591797,24.414062,-0.12207031,-12.268066,3496.0,3225.0,3780.0,93.878174,74.712524,136.06018
1770512465319,-0.9902344,0.25927734,-0.06591797,24.414062,-0.12207031,-12.268066,0.0,0.0,0.0,93.878174,74.712524,136.06018
1770512465395,-0.9716797,0.25097656,0.009277344,28.686523,-13.122559,-4.4555664,3477.0,3230.0,3615.0,93.878174,74.712524,136.06018
1770512465406,-0.9716797,0.25097656,0.009277344,28.686523,-13.122559,-4.4555664,3477.0,3230.0,3615.0,93.70239,75.38269,133.50037
1770512465421,-0.9716797,0.25097656,0.009277344,28.686523,-13.122559,-4.4555664,0.0,0.0,0.0,93.70239,75.38269,133.50037
1770512465494,-0.98535156,0.18945312,0.0,8.056641,-4.0283203,-5.3710938,3440.0,3212.0,3515.0,93.70239,75.38269,133.50037
1770512465506,-0.98535156,0.18945312,0.0,8.056641,-4.0283203,-5.3710938,3440.0,3212.0,3515.0,93.24646,76.08032,130.33081
1770512465517,-0.98535156,0.18945312,0.0,8.056641,-4.0283203,-5.3710938,0.0,0.0,0.0,93.24646,76.08032,130.33081
1770512465594,-0.9458008,0.2783203,9.765625E-4,20.690918,3.6621094,-6.164551,3402.0,3189.0,3334.0,93.24646,76.08032,130.33081
1770512465606,-0.9458008,0.2783203,9.765625E-4,20.690918,3.6621094,-6.164551,3402.0,3189.0,3334.0,94.35608,76.36047,131.16577
1770512465618,-0.9458008,0.2783203,9.765625E-4,20.690918,3.6621094,-6.164551,0.0,0.0,0.0,94.35608,76.36047,131.16577
1770512465694,-0.9975586,0.18896484,0.060546875,4.4555664,-8.972168,3.6010742,3396.0,3164.0,3261.0,94.35608,76.36047,131.16577
1770512465706,-0.9975586,0.18896484,0.060546875,4.4555664,-8.972168,3.6010742,3396.0,3164.0,3261.0,94.559326,76.431885,129.81995
1770512465719,-0.9975586,0.18896484,0.060546875,4.4555664,-8.972168,3.6010742,0.0,0.0,0.0,94.559326,76.431885,129.81995
1770512465794,-0.9746094,0.24316406,-0.020996094,-1.8310547,9.70459,1.0986328,3384.0,3127.0,3194.0,94.559326,76.431885,129.81995
1770512465805,-0.9746094,0.24316406,-0.020996094,-1.8310547,9.70459,1.0986328,3384.0,3127.0,3194.0,93.76831,76.1792,129.50134
1770512465818,-0.9746094,0.24316406,-0.020996094,-1.8310547,9.70459,1.0986328,0.0,0.0,0.0,93.76831,76.1792,129.50134
1770512465893,-0.9916992,0.22705078,-0.020996094,0.79345703,6.164551,-0.7324219,3395.0,3120.0,3135.0,93.76831,76.1792,129.50134
1770512465906,-0.9916992,0.22705078,-0.020996094,0.79345703,6.164551,-0.7324219,3395.0,3120.0,3135.0,96.44348,76.03088,132.49512
1770512465917,-0.9916992,0.22705078,-0.020996094,0.79345703,6.164551,-0.7324219,0.0,0.0,0.0,96.44348,76.03088,132.49512
1770512465993,-0.9663086,0.22070312,0.013183594,3.0517578,1.6479492,-2.6855469,3385.0,3148.0,3216.0,96.44348,76.03088,132.49512
1770512466005,-0.9663086,0.22070312,0.013183594,3.0517578,1.6479492,-2.6855469,3385.0,3148.0,3216.0,98.2782,76.190186,134.41223
1770512466017,-0.9663086,0.22070312,0.013183594,3.0517578,1.6479492,-2.6855469,0.0,0.0,0.0,98.2782,76.190186,134.41223
1770512466093,-0.9902344,0.22949219,-0.04248047,-3.90625,2.4414062,-2.9296875,3414.0,3128.0,3314.0,98.2782,76.190186,134.41223
1770512466104,-0.9902344,0.22949219,-0.04248047,-3.90625,2.4414062,-2.9296875,3414.0,3128.0,3314.0,98.93738,76.56372,135.35156
1770512466118,-0.9902344,0.22949219,-0.04248047,-3.90625,2.4414062,-2.9296875,0.0,0.0,0.0,98.93738,76.56372,135.35156
1770512466192,-0.96435547,0.24169922,-0.029296875,-2.5024414,-0.61035156,-1.6479492,3410.0,3146.0,3321.0,98.93738,76.56372,135.35156
1770512466204,-0.96435547,0.24169922,-0.029296875,-2.5024414,-0.61035156,-1.6479492,3410.0,3146.0,3321.0,99.486694,76.80542,136.38428
1770512466215,-0.96435547,0.24169922,-0.029296875,-2.5024414,-0.61035156,-1.6479492,0.0,0.0,0.0,99.486694,76.80542,136.38428
1770512466292,-0.9560547,0.21728516,-0.01171875,7.8125,-1.4038086,-2.4414062,3408.0,3169.0,3311.0,99.486694,76.80542,136.38428
1770512466304,-0.9560547,0.21728516,-0.01171875,7.8125,-1.4038086,-2.4414062,3408.0,3169.0,3311.0,98.360596,76.8988,135.46692
1770512466315,-0.9560547,0.21728516,-0.01171875,7.8125,-1.4038086,-2.4414062,0.0,0.0,0.0,98.360596,76.8988,135.46692
1770512466392,-1.003418,0.21191406,-0.076660156,4.8217773,4.1503906,-1.3427734,3389.0,3183.0,3343.0,98.360596,76.8988,135.46692
1770512466404,-1.003418,0.21191406,-0.076660156,4.8217773,4.1503906,-1.3427734,3389.0,3183.0,3343.0,98.73413,77.091064,135.32959
1770512466418,-1.003418,0.21191406,-0.076660156,4.8217773,4.1503906,-1.3427734,0.0,0.0,0.0,98.73413,77.091064,135.32959
1770512466492,-1.0053711,0.24804688,-0.046875,2.4414062,-2.0141602,-1.0375977,3384.0,3189.0,3291.0,98.73413,77.091064,135.32959
1770512466503,-1.0053711,0.24804688,-0.046875,2.4414062,-2.0141602,-1.0375977,3384.0,3189.0,3291.0,101.87073,77.21741,137.99377
1770512466516,-1.0053711,0.24804688,-0.046875,2.4414062,-2.0141602,-1.0375977,0.0,0.0,0.0,101.87073,77.21741,137.99377
1770512466592,-0.95458984,0.17285156,0.0068359375,10.620117,10.070801,-1.6479492,3397.0,3175.0,3305.0,101.87073,77.21741,137.99377
1770512466603,-0.95458984,0.17285156,0.0068359375,10.620117,10.070801,-1.6479492,3397.0,3175.0,3305.0,103.52417,77.22839,139.35059
1770512466616,-0.95458984,0.17285156,0.0068359375,10.620117,10.070801,-1.6479492,0.0,0.0,0.0,103.52417,77.22839,139.35059
1770512466691,-0.9580078,0.17138672,-0.06689453,-14.343262,9.94873,3.7841797,3407.0,3162.0,3282.0,103.52417,77.22839,139.35059
1770512466703,-0.9580078,0.17138672,-0.06689453,-14.343262,9.94873,3.7841797,3407.0,3162.0,3282.0,107.24304,76.88782,143.89343
1770512466714,-0.9580078,0.17138672,-0.06689453,-14.343262,9.94873,3.7841797,0.0,0.0,0.0,107.24304,76.88782,143.89343
1770512466791,-0.98779297,0.23925781,-0.08251953,-22.888184,0.061035156,8.911133,3440.0,3164.0,3450.0,107.24304,76.88782,143.89343
1770512466802,-0.98779297,0.23925781,-0.08251953,-22.888184,0.061035156,8.911133,3440.0,3164.0,3450.0,106.605835,76.23413,145.2832
1770512466814,-0.98779297,0.23925781,-0.08251953,-22.888184,0.061035156,8.911133,0.0,0.0,0.0,106.605835,76.23413,145.2832
1770512466891,-0.95214844,0.23925781,-0.049316406,-18.371582,3.540039,5.79834,3475.0,3167.0,3499.0,106.605835,76.23413,145.2832
1770512466902,-0.95214844,0.23925781,-0.049316406,-18.371582,3.540039,5.79834,3475.0,3167.0,3499.0,104.50745,75.5365,145.17334
1770512466913,-0.95214844,0.23925781,-0.049316406,-18.371582,3.540039,5.79834,0.0,0.0,0.0,104.50745,75.5365,145.17334
1770512466990,-0.95751953,0.24902344,-0.072265625,-12.756348,4.0283203,1.4038086,3504.0,3178.0,3546.0,104.50745,75.5365,145.17334
1770512467002,-0.95751953,0.24902344,-0.072265625,-12.756348,4.0283203,1.4038086,3504.0,3178.0,3546.0,103.96362,75.04761,146.37085
1770512467013,-0.95751953,0.24902344,-0.072265625,-12.756348,4.0283203,1.4038086,0.0,0.0,0.0,103.96362,75.04761,146.37085
1770512467090,-0.9760742,0.26708984,-0.10107422,-13.73291,-7.2631836,5.79834,3489.0,3219.0,3706.0,103.96362,75.04761,146.37085
1770512467101,-0.9760742,0.26708984,-0.10107422,-13.73291,-7.2631836,5.79834,3489.0,3219.0,3706.0,102.79907,74.88281,146.21704
1770512467113,-0.9760742,0.26708984,-0.10107422,-13.73291,-7.2631836,5.79834,0.0,0.0,0.0,102.79907,74.88281,146.21704
1770512467190,-0.9746094,0.3334961,-0.03564453,3.0517578,-12.817383,-1.2207031,3495.0,3253.0,3812.0,102.79907,74.88281,146.21704
1770512467201,-0.9746094,0.3334961,-0.03564453,3.0517578,-12.817383,-1.2207031,3495.0,3253.0,3812.0,96.86096,74.55322,141.2622
1770512467215,-0.9746094,0.3334961,-0.03564453,3.0517578,-12.817383,-1.2207031,0.0,0.0,0.0,96.86096,74.55322,141.2622
1770512467289,-0.9658203,0.2602539,0.0024414062,14.282227,-6.5307617,-5.3100586,3507.0,3248.0,3752.0,96.86096,74.55322,141.2622
1770512467301,-0.9658203,0.2602539,0.0024414062,14.282227,-6.5307617,-5.3100586,3507.0,3248.0,3752.0,95.64148,75.097046,138.18604
1770512467312,-0.9658203,0.2602539,0.0024414062,14.282227,-6.5307617,-5.3100586,0.0,0.0,0.0,95.64148,75.097046,138.18604
1770512467389,-0.9663086,0.26367188,-0.018066406,16.723633,-0.48828125,-6.3476562,3470.0,3230.0,3658.0,95.64148,75.097046,138.18604
1770512467401,-0.9663086,0.26367188,-0.018066406,16.723633,-0.48828125,-6.3476562,3470.0,3230.0,3658.0,95.998535,75.56946,136.98303
1770512467412,-0.9663086,0.26367188,-0.018066406,16.723633,-0.48828125,-6.3476562,0.0,0.0,0.0,95.998535,75.56946,136.98303
1770512467489,-0.9746094,0.24023438,-0.03955078,27.46582,-2.9296875,-10.070801,3456.0,3216.0,3548.0,95.998535,75.56946,136.98303
1770512467500,-0.9746094,0.24023438,-0.03955078,27.46582,-2.9296875,-10.070801,3456.0,3216.0,3548.0,98.272705,76.44287,136.67542
1770512467512,-0.9746094,0.24023438,-0.03955078,27.46582,-2.9296875,-10.070801,0.0,0.0,0.0,98.272705,76.44287,136.67542
1770512467589,-0.97802734,0.21777344,-0.04248047,26.916504,-2.0141602,-7.2021484,3430.0,3185.0,3434.0,98.272705,76.44287,136.67542
1770512467600,-0.97802734,0.21777344,-0.04248047,26.916504,-2.0141602,-7.2021484,3430.0,3185.0,3434.0,100.58533,77.27783,136.24146
1770512467612,-0.97802734,0.21777344,-0.04248047,26.916504,-2.0141602,-7.2021484,0.0,0.0,0.0,100.58533,77.27783,136.24146
1770512467688,-0.9736328,0.19189453,-0.020996094,21.78955,-3.7231445,-4.699707,3404.0,3159.0,3232.0,100.58533,77.27783,136.24146
1770512467700,-0.9736328,0.19189453,-0.020996094,21.78955,-3.7231445,-4.699707,3404.0,3159.0,3232.0,101.57959,77.79968,135.09888
1770512467717,-0.9736328,0.19189453,-0.020996094,21.78955,-3.7231445,-4.699707,0.0,0.0,0.0,101.57959,77.79968,135.09888
1770512467788,-0.9873047,0.1772461,-0.03173828,11.169434,-1.2817383,-3.8452148,3377.0,3143.0,3174.0,101.57959,77.79968,135.09888
1770512467799,-0.9873047,0.1772461,-0.03173828,11.169434,-1.2817383,-3.8452148,3377.0,3143.0,3174.0,102.27173,78.272095,134.5221
1770512467811,-0.9873047,0.1772461,-0.03173828,11.169434,-1.2817383,-3.8452148,0.0,0.0,0.0,102.27173,78.272095,134.5221
1770512467888,-0.98291016,0.18652344,-0.03466797,4.333496,-0.6713867,-2.746582,3359.0,3116.0,3094.0,102.27173,78.272095,134.5221
1770512467899,-0.98291016,0.18652344,-0.03466797,4.333496,-0.6713867,-2.746582,3359.0,3116.0,3094.0,102.51892,78.62366,134.48914
1770512467911,-0.98291016,0.18652344,-0.03466797,4.333496,-0.6713867,-2.746582,0.0,0.0,0.0,102.51892,78.62366,134.48914
1770512467987,-0.9765625,0.1743164,-0.03125,-2.319336,-1.2207031,-1.6479492,3361.0,3095.0,2993.0,102.51892,78.62366,134.48914
1770512467999,-0.9765625,0.1743164,-0.03125,-2.319336,-1.2207031,-1.6479492,3361.0,3095.0,2993.0,102.28821,78.87634,134.49463
1770512468010,-0.9765625,0.1743164,-0.03125,-2.319336,-1.2207031,-1.6479492,0.0,0.0,0.0,102.28821,78.87634,134.49463
1770512468087,-0.9824219,0.1850586,-0.034179688,-12.817383,2.1362305,1.4648438,3348.0,3099.0,2964.0,102.28821,78.87634,134.49463
1770512468099,-0.9824219,0.1850586,-0.034179688,-12.817383,2.1362305,1.4648438,3348.0,3099.0,2964.0,101.39282,78.85437,134.82422
1770512468110,-0.9824219,0.1850586,-0.034179688,-12.817383,2.1362305,1.4648438,0.0,0.0,0.0,101.39282,78.85437,134.82422
1770512468187,-0.98339844,0.1928711,-0.03955078,-11.169434,3.6621094,1.0986328,3290.0,3150.0,3003.0,101.39282,78.85437,134.82422
1770512468199,-0.98339844,0.1928711,-0.03955078,-11.169434,3.6621094,1.0986328,3290.0,3150.0,3003.0,101.24451,78.62915,136.25793
1770512468211,-0.98339844,0.1928711,-0.03955078,-11.169434,3.6621094,1.0986328,0.0,0.0,0.0,101.24451,78.62915,136.25793
1770512468287,-0.984375,0.20361328,-0.041015625,-14.404297,5.126953,2.9907227,3334.0,3144.0,3089.0,101.24451,78.62915,136.25793
1770512468298,-0.984375,0.20361328,-0.041015625,-14.404297,5.126953,2.9907227,3334.0,3144.0,3089.0,101.63452,78.27759,138.3783
1770512468310,-0.984375,0.20361328,-0.041015625,-14.404297,5.126953,2.9907227,0.0,0.0,0.0,101.63452,78.27759,138.3783
1770512468386,-0.9848633,0.21435547,-0.049316406,-12.878418,2.746582,3.112793,3361.0,3183.0,3171.0,101.63452,78.27759,138.3783
1770512468398,-0.9848633,0.21435547,-0.049316406,-12.878418,2.746582,3.112793,3361.0,3183.0,3171.0,101.91467,77.926025,139.99329
1770512468414,-0.9848633,0.21435547,-0.049316406,-12.878418,2.746582,3.112793,0.0,0.0,0.0,101.91467,77.926025,139.99329
1770512468486,-0.9785156,0.21533203,-0.037597656,-5.3100586,2.0751953,1.4648438,3364.0,3201.0,3289.0,101.91467,77.926025,139.99329
1770512468498,-0.9785156,0.21533203,-0.037597656,-5.3100586,2.0751953,1.4648438,3364.0,3201.0,3289.0,102.23877,77.64038,141.17981
1770512468509,-0.9785156,0.21533203,-0.037597656,-5.3100586,2.0751953,1.4648438,0.0,0.0,0.0,102.23877,77.64038,141.17981
1770512468586,-0.9814453,0.22363281,-0.045898438,0.6713867,2.0141602,0.18310547,3340.0,3243.0,3268.0,102.23877,77.64038,141.17981
1770512468597,-0.9814453,0.22363281,-0.045898438,0.6713867,2.0141602,0.18310547,3340.0,3243.0,3268.0,102.59033,77.48657,141.84448
1770512468609,-0.9814453,0.22363281,-0.045898438,0.6713867,2.0141602,0.18310547,0.0,0.0,0.0,102.59033,77.48657,141.84448
1770512468686,-0.9765625,0.21972656,-0.049804688,6.3476562,1.4648438,-0.4272461,3400.0,3224.0,3347.0,102.59033,77.48657,141.84448
1770512468697,-0.9765625,0.21972656,-0.049804688,6.3476562,1.4648438,-0.4272461,3400.0,3224.0,3347.0,103.656006,77.40967,142.56409
1770512468709,-0.9765625,0.21972656,-0.049804688,6.3476562,1.4648438,-0.4272461,0.0,0.0,0.0,103.656006,77.40967,142.56409
1770512468785,-0.9765625,0.20605469,-0.052734375,9.155273,-0.12207031,-1.2817383,3422.0,3190.0,3366.0,103.656006,77.40967,142.56409
1770512468797,-0.9765625,0.20605469,-0.052734375,9.155273,-0.12207031,-1.2817383,3422.0,3190.0,3366.0,105.15015,77.47009,143.1903
1770512468808,-0.9765625,0.20605469,-0.052734375,9.155273,-0.12207031,-1.2817383,0.0,0.0,0.0,105.15015,77.47009,143.1903
1770512468885,-0.97802734,0.21142578,-0.052734375,8.422852,-2.9907227,-1.2207031,3401.0,3189.0,3386.0,105.15015,77.47009,143.1903
1770512468896,-0.97802734,0.21142578,-0.052734375,8.422852,-2.9907227,-1.2207031,3401.0,3189.0,3386.0,105.65552,77.56348,143.01453
1770512468908,-0.97802734,0.21142578,-0.052734375,8.422852,-2.9907227,-1.2207031,0.0,0.0,0.0,105.65552,77.56348,143.01453
1770512468985,-0.984375,0.20605469,-0.04736328,6.164551,-0.61035156,-1.8920898,3401.0,3179.0,3360.0,105.65552,77.56348,143.01453
1770512468996,-0.984375,0.20605469,-0.04736328,6.164551,-0.61035156,-1.8920898,3401.0,3179.0,3360.0,105.84778,77.76123,142.56409
1770512469008,-0.984375,0.20605469,-0.04736328,6.164551,-0.61035156,-1.8920898,0.0,0.0,0.0,105.84778,77.76123,142.56409
1770512469085,-0.9863281,0.21289062,-0.03466797,7.2631836,6.164551,-3.3569336,3398.0,3169.0,3292.0,105.84778,77.76123,142.56409
1770512469096,-0.9863281,0.21289062,-0.03466797,7.2631836,6.164551,-3.3569336,3398.0,3169.0,3292.0,107.72095,77.87109,144.14062
1770512469109,-0.9863281,0.21289062,-0.03466797,7.2631836,6.164551,-3.3569336,0.0,0.0,0.0,107.72095,77.87109,144.14062
1770512469184,-0.9458008,0.17675781,-0.06689453,1.2817383,8.605957,-3.479004,3394.0,3154.0,3289.0,107.72095,77.87109,144.14062
1770512469196,-0.9458008,0.17675781,-0.06689453,1.2817383,8.605957,-3.479004,3394.0,3154.0,3289.0,111.659546,77.942505,147.96936
1770512469208,-0.9458008,0.17675781,-0.06689453,1.2817383,8.605957,-3.479004,0.0,0.0,0.0,111.659546,77.942505,147.96936
1770512469284,-0.98583984,0.15234375,-0.10058594,-14.404297,3.90625,1.0375977,3403.0,3157.0,3279.0,111.659546,77.942505,147.96936
1770512469296,-0.98583984,0.15234375,-0.10058594,-14.404297,3.90625,1.0375977,3403.0,3157.0,3279.0,113.620605,77.88208,150.79834
1770512469311,-0.98583984,0.15234375,-0.10058594,-14.404297,3.90625,1.0375977,0.0,0.0,0.0,113.620605,77.88208,150.79834
1770512469384,-0.9921875,0.19335938,-0.096191406,-14.343262,-2.9296875,2.6245117,3416.0,3183.0,3346.0,113.620605,77.88208,150.79834
1770512469396,-0.9921875,0.19335938,-0.096191406,-14.343262,-2.9296875,2.6245117,3416.0,3183.0,3346.0,111.67053,77.64038,150.93567
1770512469406,-0.9921875,0.19335938,-0.096191406,-14.343262,-2.9296875,2.6245117,0.0,0.0,0.0,111.67053,77.64038,150.93567
1770512469483,-0.98046875,0.21142578,-0.07519531,-15.380859,-0.30517578,2.5024414,3450.0,3111.0,3343.0,111.67053,77.64038,150.93567
1770512469495,-0.98046875,0.21142578,-0.07519531,-15.380859,-0.30517578,2.5024414,3450.0,3111.0,3343.0,108.97888,77.48108,149.7821
1770512469506,-0.98046875,0.21142578,-0.07519531,-15.380859,-0.30517578,2.5024414,0.0,0.0,0.0,108.97888,77.48108,149.7821
1770512469583,-0.98046875,0.21826172,-0.06738281,-10.009766,-0.7324219,1.2817383,3459.0,3100.0,3403.0,108.97888,77.48108,149.7821
1770512469595,-0.98046875,0.21826172,-0.06738281,-10.009766,-0.7324219,1.2817383,3459.0,3100.0,3403.0,107.41333,77.31079,149.33167
1770512469606,-0.98046875,0.21826172,-0.06738281,-10.009766,-0.7324219,1.2817383,0.0,0.0,0.0,107.41333,77.31079,149.33167
1770512469683,-0.9794922,0.21191406,-0.05126953,-7.5683594,-1.3427734,0.48828125,3469.0,3133.0,3456.0,107.41333,77.31079,149.33167
1770512469694,-0.9794922,0.21191406,-0.05126953,-7.5683594,-1.3427734,0.48828125,3469.0,3133.0,3456.0,106.32019,77.23389,148.80981
1770512469707,-0.9794922,0.21191406,-0.05126953,-7.5683594,-1.3427734,0.48828125,0.0,0.0,0.0,106.32019,77.23389,148.80981
1770512469782,-0.9765625,0.22314453,-0.059570312,-2.1972656,-0.91552734,-0.12207031,3461.0,3154.0,3513.0,106.32019,77.23389,148.80981
1770512469794,-0.9765625,0.22314453,-0.059570312,-2.1972656,-0.91552734,-0.12207031,3461.0,3154.0,3513.0,105.9137,77.28882,148.49121
1770512469806,-0.9765625,0.22314453,-0.059570312,-2.1972656,-0.91552734,-0.12207031,0.0,0.0,0.0,105.9137,77.28882,148.49121
1770512469882,-0.9824219,0.22070312,-0.05859375,4.699707,-1.4038086,-1.5258789,3452.0,3157.0,3448.0,105.9137,77.28882,148.49121
1770512469894,-0.9824219,0.22070312,-0.05859375,4.699707,-1.4038086,-1.5258789,3452.0,3157.0,3448.0,105.672,77.36572,147.92542
1770512469905,-0.9824219,0.22070312,-0.05859375,4.699707,-1.4038086,-1.5258789,0.0,0.0,0.0,105.672,77.36572,147.92542
1770512469982,-0.9794922,0.21289062,-0.056640625,6.958008,0.4272461,-2.319336,3460.0,3156.0,3437.0,105.672,77.36572,147.92542
1770512469993,-0.9794922,0.21289062,-0.056640625,6.958008,0.4272461,-2.319336,3460.0,3156.0,3437.0,105.88074,77.51953,147.48596
1770512470005,-0.9794922,0.21289062,-0.056640625,6.958008,0.4272461,-2.319336,0.0,0.0,0.0,105.88074,77.51953,147.48596
1770512470082,-0.94970703,0.18798828,-0.06347656,7.6904297,0.30517578,-1.5869141,3457.0,3155.0,3440.0,105.88074,77.51953,147.48596
1770512470093,-0.94970703,0.18798828,-0.06347656,7.6904297,0.30517578,-1.5869141,3457.0,3155.0,3440.0,106.831055,77.67334,147.64526
1770512470108,-0.94970703,0.18798828,-0.06347656,7.6904297,0.30517578,-1.5869141,0.0,0.0,0.0,106.831055,77.67334,147.64526
1770512470181,-1.0429688,0.22216797,-0.103027344,-6.0424805,-12.6953125,8.728027,3445.0,3146.0,3394.0,106.831055,77.67334,147.64526
1770512470193,-1.0429688,0.22216797,-0.103027344,-6.0424805,-12.6953125,8.728027,3445.0,3146.0,3394.0,105.46875,77.50305,145.46448
1770512470204,-1.0429688,0.22216797,-0.103027344,-6.0424805,-12.6953125,8.728027,0.0,0.0,0.0,105.46875,77.50305,145.46448
1770512470281,-0.9560547,0.26123047,0.025390625,20.751953,-0.7324219,-4.3945312,3440.0,3127.0,3363.0,105.46875,77.50305,145.46448
1770512470292,-0.9560547,0.26123047,0.025390625,20.751953,-0.7324219,-4.3945312,3440.0,3127.0,3363.0,99.66797,77.387695,139.823
1770512470305,-0.9560547,0.26123047,0.025390625,20.751953,-0.7324219,-4.3945312,0.0,0.0,0.0,99.66797,77.387695,139.823
1770512470381,-0.9511719,0.19140625,-0.05419922,6.4086914,4.1503906,2.5024414,3426.0,3122.0,3352.0,99.66797,77.387695,139.823
1770512470392,-0.9511719,0.19140625,-0.05419922,6.4086914,4.1503906,2.5024414,3426.0,3122.0,3352.0,104.58984,77.72827,142.58606
1770512470405,-0.9511719,0.19140625,-0.05419922,6.4086914,4.1503906,2.5024414,0.0,0.0,0.0,104.58984,77.72827,142.58606
1770512470481,-0.9926758,0.21240234,-0.048339844,17.76123,-2.8686523,-3.90625,3399.0,3105.0,3238.0,104.58984,77.72827,142.58606
1770512470492,-0.9926758,0.21240234,-0.048339844,17.76123,-2.8686523,-3.90625,3399.0,3105.0,3238.0,102.64526,77.53052,140.36133
1770512470504,-0.9926758,0.21240234,-0.048339844,17.76123,-2.8686523,-3.90625,0.0,0.0,0.0,102.64526,77.53052,140.36133
1770512470580,-0.98876953,0.18896484,-0.034179688,3.6621094,-0.18310547,-0.4272461,3414.0,3087.0,3191.0,102.64526,77.53052,140.36133
1770512470592,-0.98876953,0.18896484,-0.034179688,3.6621094,-0.18310547,-0.4272461,3414.0,3087.0,3191.0,104.40857,77.805176,140.65247
1770512470604,-0.98876953,0.18896484,-0.034179688,3.6621094,-0.18310547,-0.4272461,0.0,0.0,0.0,104.40857,77.805176,140.65247
1770512470680,-0.94873047,0.18310547,-0.04638672,6.7749023,1.5869141,-0.12207031,3401.0,3070.0,3180.0,104.40857,77.805176,140.65247
1770512470692,-0.94873047,0.18310547,-0.04638672,6.7749023,1.5869141,-0.12207031,3401.0,3070.0,3180.0,104.63928,77.79968,140.60852
1770512470703,-0.94873047,0.18310547,-0.04638672,6.7749023,1.5869141,-0.12207031,0.0,0.0,0.0,104.63928,77.79968,140.60852
1770512470780,-1.0078125,0.21191406,-0.068359375,-3.6621094,-5.859375,-1.4648438,3390.0,3066.0,3161.0,104.63928,77.79968,140.60852
1770512470791,-1.0078125,0.21191406,-0.068359375,-3.6621094,-5.859375,-1.4648438,3390.0,3066.0,3161.0,103.36487,77.838135,139.37805
1770512470803,-1.0078125,0.21191406,-0.068359375,-3.6621094,-5.859375,-1.4648438,0.0,0.0,0.0,103.36487,77.838135,139.37805
1770512470879,-0.98095703,0.18066406,-0.017089844,3.0517578,-0.36621094,-2.9296875,3387.0,3038.0,3152.0,103.36487,77.838135,139.37805
1770512470891,-0.98095703,0.18066406,-0.017089844,3.0517578,-0.36621094,-2.9296875,3387.0,3038.0,3152.0,104.02405,78.21716,139.64722
1770512470902,-0.98095703,0.18066406,-0.017089844,3.0517578,-0.36621094,-2.9296875,0.0,0.0,0.0,104.02405,78.21716,139.64722
1770512470979,-0.9921875,0.19580078,-0.056152344,-0.18310547,-1.0986328,-1.8310547,3378.0,3041.0,3135.0,104.02405,78.21716,139.64722
1770512470991,-0.9921875,0.19580078,-0.056152344,-0.18310547,-1.0986328,-1.8310547,3378.0,3041.0,3135.0,104.08447,78.4314,139.91638
1770512471005,-0.9921875,0.19580078,-0.056152344,-0.18310547,-1.0986328,-1.8310547,0.0,0.0,0.0,104.08447,78.4314,139.91638
1770512471079,-0.98095703,0.19189453,-0.03515625,-2.4414062,0.61035156,-0.18310547,3360.0,3053.0,3096.0,104.08447,78.4314,139.91638
1770512471090,-0.98095703,0.19189453,-0.03515625,-2.4414062,0.61035156,-0.18310547,3360.0,3053.0,3096.0,103.69446,78.513794,139.8999
1770512471106,-0.98095703,0.19189453,-0.03515625,-2.4414062,0.61035156,-0.18310547,0.0,0.0,0.0,103.69446,78.513794,139.8999
1770512471179,-0.9819336,0.18603516,-0.049804688,-0.5493164,1.953125,-0.24414062,3363.0,3059.0,3035.0,103.69446,78.513794,139.8999
1770512471190,-0.9819336,0.18603516,-0.049804688,-0.5493164,1.953125,-0.24414062,3363.0,3059.0,3035.0,104.122925,78.513794,140.61401
1770512471202,-0.9819336,0.18603516,-0.049804688,-0.5493164,1.953125,-0.24414062,0.0,0.0,0.0,104.122925,78.513794,140.61401
1770512471278,-0.9819336,0.19335938,-0.056152344,1.159668,2.0141602,-0.30517578,3362.0,3054.0,3032.0,104.122925,78.513794,140.61401
1770512471290,-0.9819336,0.19335938,-0.056152344,1.159668,2.0141602,-0.30517578,3362.0,3054.0,3032.0,104.92493,78.48633,141.5863
1770512471301,-0.9819336,0.19335938,-0.056152344,1.159668,2.0141602,-0.30517578,0.0,0.0,0.0,104.92493,78.48633,141.5863
1770512471378,-0.9741211,0.19677734,-0.049804688,0.5493164,0.7324219,0.36621094,3370.0,3060.0,3092.0,104.92493,78.48633,141.5863
1770512471389,-0.9741211,0.19677734,-0.049804688,0.5493164,0.7324219,0.36621094,3370.0,3060.0,3092.0,105.34241,78.40393,142.1521
1770512471401,-0.9741211,0.19677734,-0.049804688,0.5493164,0.7324219,0.36621094,0.0,0.0,0.0,105.34241,78.40393,142.1521
1770512471478,-0.9790039,0.19238281,-0.05029297,0.12207031,-1.5258789,0.48828125,3392.0,3064.0,3147.0,105.34241,78.40393,142.1521
1770512471489,-0.9790039,0.19238281,-0.05029297,0.12207031,-1.5258789,0.48828125,3392.0,3064.0,3147.0,105.24353,78.359985,142.04224
1770512471502,-0.9790039,0.19238281,-0.05029297,0.12207031,-1.5258789,0.48828125,0.0,0.0,0.0,105.24353,78.359985,142.04224
1770512471577,-0.9873047,0.19433594,-0.056152344,-0.12207031,0.0,0.24414062,3372.0,3044.0,3104.0,105.24353,78.359985,142.04224
1770512471589,-0.9873047,0.19433594,-0.056152344,-0.12207031,0.0,0.24414062,3372.0,3044.0,3104.0,105.15015,78.35449,141.93787
1770512471608,-0.9873047,0.19433594,-0.056152344,-0.12207031,0.0,0.24414062,0.0,0.0,0.0,105.15015,78.35449,141.93787
1770512471677,-0.99072266,0.203125,-0.048339844,1.2817383,-1.2817383,-0.36621094,3401.0,3044.0,3155.0,105.15015,78.35449,141.93787
1770512471689,-0.99072266,0.203125,-0.048339844,1.2817383,-1.2817383,-0.36621094,3401.0,3044.0,3155.0,105.1062,78.33801,142.00378
1770512471700,-0.99072266,0.203125,-0.048339844,1.2817383,-1.2817383,-0.36621094,0.0,0.0,0.0,105.1062,78.33801,142.00378
1770512471777,-0.984375,0.19726562,-0.0625,-1.4038086,-0.8544922,0.18310547,3378.0,3052.0,3113.0,105.1062,78.33801,142.00378
1770512471788,-0.984375,0.19726562,-0.0625,-1.4038086,-0.8544922,0.18310547,3378.0,3052.0,3113.0,104.15588,78.38196,141.13037
1770512471808,-0.984375,0.19726562,-0.0625,-1.4038086,-0.8544922,0.18310547,0.0,0.0,0.0,104.15588,78.38196,141.13037
1770512471877,-0.9921875,0.20800781,-0.033203125,-7.6904297,-3.7841797,2.319336,3396.0,3030.0,3169.0,104.15588,78.38196,141.13037
1770512471888,-0.9921875,0.20800781,-0.033203125,-7.6904297,-3.7841797,2.319336,3396.0,3030.0,3169.0,104.27124,78.272095,141.61926
1770512471901,-0.9921875,0.20800781,-0.033203125,-7.6904297,-3.7841797,2.319336,0.0,0.0,0.0,104.27124,78.272095,141.61926
1770512471977,-0.9814453,0.21777344,-0.05419922,-7.2631836,1.7700195,1.8920898,3403.0,3049.0,3145.0,104.27124,78.272095,141.61926
1770512471988,-0.9814453,0.21777344,-0.05419922,-7.2631836,1.7700195,1.8920898,3403.0,3049.0,3145.0,99.470215,77.96997,138.219
1770512472008,-0.9814453,0.21777344,-0.05419922,-7.2631836,1.7700195,1.8920898,0.0,0.0,0.0,99.470215,77.96997,138.219
1770512472076,-1.0,0.17871094,-0.021484375,-2.8076172,8.056641,-2.746582,3400.0,3041.0,3156.0,99.470215,77.96997,138.219
1770512472088,-1.0,0.17871094,-0.021484375,-2.8076172,8.056641,-2.746582,3400.0,3041.0,3156.0,103.36487,78.09082,141.94885
1770512472102,-1.0,0.17871094,-0.021484375,-2.8076172,8.056641,-2.746582,0.0,0.0,0.0,103.36487,78.09082,141.94885
1770512472176,-0.98046875,0.118652344,-0.057617188,-5.92041,14.099121,-5.7373047,3392.0,3045.0,3139.0,103.36487,78.09082,141.94885
1770512472187,-0.98046875,0.118652344,-0.057617188,-5.92041,14.099121,-5.7373047,3392.0,3045.0,3139.0,109.51172,78.25012,148.78235
1770512472199,-0.98046875,0.118652344,-0.057617188,-5.92041,14.099121,-5.7373047,0.0,0.0,0.0,109.51172,78.25012,148.78235
1770512472275,-1.0019531,0.16015625,-0.10839844,-13.916016,5.79834,-2.2583008,3420.0,3054.0,3271.0,109.51172,78.25012,148.78235
1770512472287,-1.0019531,0.16015625,-0.10839844,-13.916016,5.79834,-2.2583008,3420.0,3054.0,3271.0,114.64783,78.27759,155.28625
1770512472298,-1.0019531,0.16015625,-0.10839844,-13.916016,5.79834,-2.2583008,0.0,0.0,0.0,114.64783,78.27759,155.28625
1770512472375,-0.9604492,0.21191406,-0.08691406,-13.671875,-7.2021484,3.9672852,3461.0,2982.0,3315.0,114.64783,78.27759,155.28625
1770512472387,-0.9604492,0.21191406,-0.08691406,-13.671875,-7.2021484,3.9672852,3461.0,2982.0,3315.0,111.47827,78.17322,153.81409
1770512472399,-0.9604492,0.21191406,-0.08691406,-13.671875,-7.2021484,3.9672852,0.0,0.0,0.0,111.47827,78.17322,153.81409
1770512472475,-0.9863281,0.24414062,-0.08642578,-9.094238,-18.432617,4.760742,3474.0,3005.0,3334.0,111.47827,78.17322,153.81409
1770512472486,-0.9863281,0.24414062,-0.08642578,-9.094238,-18.432617,4.760742,3474.0,3005.0,3334.0,103.27698,78.20618,146.0907
1770512472500,-0.9863281,0.24414062,-0.08642578,-9.094238,-18.432617,4.760742,0.0,0.0,0.0,103.27698,78.20618,146.0907
1770512472575,-0.984375,0.20019531,0.025390625,0.6713867,-13.61084,1.2207031,3444.0,3034.0,3330.0,103.27698,78.20618,146.0907
1770512472586,-0.984375,0.20019531,0.025390625,0.6713867,-13.61084,1.2207031,3444.0,3034.0,3330.0,96.90491,78.12378,139.24622
1770512472599,-0.984375,0.20019531,0.025390625,0.6713867,-13.61084,1.2207031,0.0,0.0,0.0,96.90491,78.12378,139.24622
1770512472674,-0.9995117,0.2548828,-0.024902344,-9.216309,1.159668,2.0751953,3410.0,3037.0,3160.0,96.90491,78.12378,139.24622
1770512472686,-0.9995117,0.2548828,-0.024902344,-9.216309,1.159668,2.0751953,3410.0,3037.0,3160.0,93.66943,77.89856,136.5326
1770512472697,-0.9995117,0.2548828,-0.024902344,-9.216309,1.159668,2.0751953,0.0,0.0,0.0,93.66943,77.89856,136.5326
1770512472774,-1.0332031,0.2607422,-0.06982422,0.8544922,2.0141602,4.699707,3384.0,3042.0,3151.0,93.66943,77.89856,136.5326
1770512472786,-1.0332031,0.2607422,-0.06982422,0.8544922,2.0141602,4.699707,3384.0,3042.0,3151.0,94.454956,77.47009,137.21924
1770512472797,-1.0332031,0.2607422,-0.06982422,0.8544922,2.0141602,4.699707,0.0,0.0,0.0,94.454956,77.47009,137.21924
1770512472874,-0.95996094,0.25341797,-0.0234375,-10.681152,0.79345703,15.197754,3410.0,3021.0,3157.0,94.454956,77.47009,137.21924
1770512472885,-0.95996094,0.25341797,-0.0234375,-10.681152,0.79345703,15.197754,3410.0,3021.0,3157.0,94.70215,76.23413,137.62573
1770512472907,-0.95996094,0.25341797,-0.0234375,-10.681152,0.79345703,15.197754,0.0,0.0,0.0,94.70215,76.23413,137.62573
1770512472974,-0.9511719,0.28125,0.012207031,9.70459,2.5024414,5.126953,3458.0,2979.0,3270.0,94.70215,76.23413,137.62573
1770512472985,-0.9511719,0.28125,0.012207031,9.70459,2.5024414,5.126953,3458.0,2979.0,3270.0,94.92737,75.17944,137.53235
1770512472996,-0.9511719,0.28125,0.012207031,9.70459,2.5024414,5.126953,0.0,0.0,0.0,94.92737,75.17944,137.53235
1770512473073,-0.94384766,0.26904297,0.0063476562,13.61084,6.652832,0.061035156,3493.0,2963.0,3378.0,94.92737,75.17944,137.53235
1770512473085,-0.94384766,0.26904297,0.0063476562,13.61084,6.652832,0.061035156,3493.0,2963.0,3378.0,98.706665,74.72351,139.95483
1770512473096,-0.94384766,0.26904297,0.0063476562,13.61084,6.652832,0.061035156,0.0,0.0,0.0,98.706665,74.72351,139.95483
1770512473173,-0.9501953,0.26757812,-0.032226562,13.000488,-2.746582,-0.7324219,3515.0,2917.0,3384.0,98.706665,74.72351,139.95483
1770512473184,-0.9501953,0.26757812,-0.032226562,13.000488,-2.746582,-0.7324219,3515.0,2917.0,3384.0,99.98108,74.696045,139.91638
1770512473196,-0.9501953,0.26757812,-0.032226562,13.000488,-2.746582,-0.7324219,0.0,0.0,0.0,99.98108,74.696045,139.91638
1770512473273,-0.9609375,0.24316406,-0.033691406,12.207031,-7.1411133,-0.8544922,3477.0,2933.0,3456.0,99.98108,74.696045,139.91638
1770512473284,-0.9609375,0.24316406,-0.033691406,12.207031,-7.1411133,-0.8544922,3477.0,2933.0,3456.0,98.69568,74.816895,137.30713
1770512473296,-0.9609375,0.24316406,-0.033691406,12.207031,-7.1411133,-0.8544922,0.0,0.0,0.0,98.69568,74.816895,137.30713
1770512473372,-0.9609375,0.25195312,-0.014160156,12.084961,-8.544922,-1.4038086,3455.0,2899.0,3380.0,98.69568,74.816895,137.30713
1770512473384,-0.9609375,0.25195312,-0.014160156,12.084961,-8.544922,-1.4038086,3455.0,2899.0,3380.0,97.01477,75.02014,134.49463
1770512473395,-0.9609375,0.25195312,-0.014160156,12.084961,-8.544922,-1.4038086,0.0,0.0,0.0,97.01477,75.02014,134.49463
1770512473472,-0.9604492,0.30273438,-0.015136719,12.817383,-11.779785,1.7700195,3450.0,2888.0,3216.0,97.01477,75.02014,134.49463
1770512473484,-0.9604492,0.30273438,-0.015136719,12.817383,-11.779785,1.7700195,3450.0,2888.0,3216.0,94.38904,75.113525,130.73181
1770512473495,-0.9604492,0.30273438,-0.015136719,12.817383,-11.779785,1.7700195,0.0,0.0,0.0,94.38904,75.113525,130.73181
1770512473572,-0.9213867,0.328125,0.0029296875,22.460938,-10.314941,13.793945,3409.0,2859.0,3114.0,94.38904,75.113525,130.73181
1770512473583,-0.9213867,0.328125,0.0029296875,22.460938,-10.314941,13.793945,3409.0,2859.0,3114.0,91.77429,74.21265,126.276855
1770512473597,-0.9213867,0.328125,0.0029296875,22.460938,-10.314941,13.793945,0.0,0.0,0.0,91.77429,74.21265,126.276855
1770512473672,-0.9941406,0.26513672,0.0043945312,27.770996,0.4272461,8.422852,3426.0,2775.0,2929.0,91.77429,74.21265,126.276855
1770512473683,-0.9941406,0.26513672,0.0043945312,27.770996,0.4272461,8.422852,3426.0,2775.0,2929.0,93.07617,72.86682,125.50232
1770512473694,-0.9941406,0.26513672,0.0043945312,27.770996,0.4272461,8.422852,0.0,0.0,0.0,93.07617,72.86682,125.50232
1770512473772,-0.9902344,0.23632812,-0.001953125,5.1879883,-5.79834,4.8217773,3487.0,2652.0,2887.0,93.07617,72.86682,125.50232
1770512473783,-0.9902344,0.23632812,-0.001953125,5.1879883,-5.79834,4.8217773,3487.0,2652.0,2887.0,92.839966,72.22412,124.315796
1770512473794,-0.9902344,0.23632812,-0.001953125,5.1879883,-5.79834,4.8217773,0.0,0.0,0.0,92.839966,72.22412,124.315796
1770512473871,-0.9741211,0.23828125,0.0053710938,8.911133,-0.6713867,-5.3710938,3500.0,2566.0,2868.0,92.839966,72.22412,124.315796
1770512473883,-0.9741211,0.23828125,0.0053710938,8.911133,-0.6713867,-5.3710938,3500.0,2566.0,2868.0,92.86743,72.630615,123.75549
1770512473894,-0.9741211,0.23828125,0.0053710938,8.911133,-0.6713867,-5.3710938,0.0,0.0,0.0,92.86743,72.630615,123.75549
1770512473971,-1.0102539,0.24853516,-0.036621094,4.211426,-0.30517578,-9.399414,3496.0,2522.0,2771.0,92.86743,72.630615,123.75549
1770512473983,-1.0102539,0.24853516,-0.036621094,4.211426,-0.30517578,-9.399414,3496.0,2522.0,2771.0,93.444214,73.635864,124.17297
1770512473996,-1.0102539,0.24853516,-0.036621094,4.211426,-0.30517578,-9.399414,0.0,0.0,0.0,93.444214,73.635864,124.17297
1770512474070,-0.9760742,0.23291016,-0.017578125,-9.399414,1.159668,-7.080078,3499.0,2534.0,2738.0,93.444214,73.635864,124.17297
1770512474082,-0.9760742,0.23291016,-0.017578125,-9.399414,1.159668,-7.080078,3499.0,2534.0,2738.0,92.96631,74.53674,124.61792
1770512474104,-0.9760742,0.23291016,-0.017578125,-9.399414,1.159668,-7.080078,0.0,0.0,0.0,92.96631,74.53674,124.61792
1770512474170,-0.98535156,0.2211914,-0.012207031,-4.8217773,6.0424805,-9.399414,3468.0,2558.0,2718.0,92.96631,74.53674,124.61792
1770512474182,-0.98535156,0.2211914,-0.012207031,-4.8217773,6.0424805,-9.399414,3468.0,2558.0,2718.0,94.07593,75.371704,127.00195
1770512474194,-0.98535156,0.2211914,-0.012207031,-4.8217773,6.0424805,-9.399414,0.0,0.0,0.0,94.07593,75.371704,127.00195
1770512474270,-0.9765625,0.24023438,-0.029785156,-6.7749023,0.24414062,-7.1411133,3443.0,2597.0,2733.0,94.07593,75.371704,127.00195
1770512474282,-0.9765625,0.24023438,-0.029785156,-6.7749023,0.24414062,-7.1411133,3443.0,2597.0,2733.0,94.31213,76.24512,128.23792
1770512474296,-0.9765625,0.24023438,-0.029785156,-6.7749023,0.24414062,-7.1411133,0.0,0.0,0.0,94.31213,76.24512,128.23792
1770512474370,-0.96533203,0.21679688,-0.023925781,3.8452148,2.6245117,-8.666992,3435.0,2662.0,2726.0,94.31213,76.24512,128.23792
1770512474381,-0.96533203,0.21679688,-0.023925781,3.8452148,2.6245117,-8.666992,3435.0,2662.0,2726.0,95.37781,77.03613,129.50684
1770512474398,-0.96533203,0.21679688,-0.023925781,3.8452148,2.6245117,-8.666992,0.0,0.0,0.0,95.37781,77.03613,129.50684
1770512474469,-0.9794922,0.20166016,-0.026855469,1.0986328,1.8920898,-6.4086914,3416.0,2718.0,2671.0,95.37781,77.03613,129.50684
1770512474481,-0.9794922,0.20166016,-0.026855469,1.0986328,1.8920898,-6.4086914,3416.0,2718.0,2671.0,96.81152,77.73926,130.85815
1770512474492,-0.9794922,0.20166016,-0.026855469,1.0986328,1.8920898,-6.4086914,0.0,0.0,0.0,96.81152,77.73926,130.85815
1770512474569,-0.9716797,0.20214844,-0.018066406,-0.36621094,1.2817383,-4.699707,3380.0,2752.0,2697.0,96.81152,77.73926,130.85815
1770512474581,-0.9716797,0.20214844,-0.018066406,-0.36621094,1.2817383,-4.699707,3380.0,2752.0,2697.0,98.28369,78.239136,132.44019
1770512474592,-0.9716797,0.20214844,-0.018066406,-0.36621094,1.2817383,-4.699707,0.0,0.0,0.0,98.28369,78.239136,132.44019
1770512474669,-0.9765625,0.20263672,-0.021484375,-1.8920898,1.0986328,-2.9296875,3377.0,2769.0,2720.0,98.28369,78.239136,132.44019
1770512474680,-0.9765625,0.20263672,-0.021484375,-1.8920898,1.0986328,-2.9296875,3377.0,2769.0,2720.0,98.95935,78.552246,133.42346
1770512474692,-0.9765625,0.20263672,-0.021484375,-1.8920898,1.0986328,-2.9296875,0.0,0.0,0.0,98.95935,78.552246,133.42346
1770512474769,-0.97998047,0.20605469,-0.03125,-5.92041,2.319336,-1.6479492,3382.0,2781.0,2737.0,98.95935,78.552246,133.42346
1770512474780,-0.97998047,0.20605469,-0.03125,-5.92041,2.319336,-1.6479492,3382.0,2781.0,2737.0,98.87695,78.68408,134.00024
1770512474792,-0.97998047,0.20605469,-0.03125,-5.92041,2.319336,-1.6479492,0.0,0.0,0.0,98.87695,78.68408,134.00024
1770512474868,-0.9785156,0.21044922,-0.033203125,-5.065918,2.0141602,-2.0751953,3377.0,2814.0,2753.0,98.87695,78.68408,134.00024
1770512474880,-0.9785156,0.21044922,-0.033203125,-5.065918,2.0141602,-2.0751953,3377.0,2814.0,2753.0,99.72839,78.81592,135.46143
1770512474891,-0.9785156,0.21044922,-0.033203125,-5.065918,2.0141602,-2.0751953,0.0,0.0,0.0,99.72839,78.81592,135.46143
1770512474968,-0.9790039,0.21386719,-0.025878906,-7.2631836,1.7700195,0.79345703,3364.0,2847.0,2748.0,99.72839,78.81592,135.46143
1770512474979,-0.9790039,0.21386719,-0.025878906,-7.2631836,1.7700195,0.79345703,3364.0,2847.0,2748.0,100.23926,78.78845,136.59302
1770512474991,-0.9790039,0.21386719,-0.025878906,-7.2631836,1.7700195,0.79345703,0.0,0.0,0.0,100.23926,78.78845,136.59302
1770512475068,-0.97314453,0.21728516,-0.032714844,-8.666992,2.0751953,2.6855469,3391.0,2855.0,2763.0,100.23926,78.78845,136.59302
1770512475079,-0.97314453,0.21728516,-0.032714844,-8.666992,2.0751953,2.6855469,3391.0,2855.0,2763.0,99.81079,78.447876,137.19177
1770512475091,-0.97314453,0.21728516,-0.032714844,-8.666992,2.0751953,2.6855469,0.0,0.0,0.0,99.81079,78.447876,137.19177
1770512475167,-0.99316406,0.22998047,-0.048339844,-6.8969727,2.5634766,1.3427734,3374.0,2880.0,2818.0,99.81079,78.447876,137.19177
1770512475179,-0.99316406,0.22998047,-0.048339844,-6.8969727,2.5634766,1.3427734,3374.0,2880.0,2818.0,99.84924,78.134766,137.98828
1770512475190,-0.99316406,0.22998047,-0.048339844,-6.8969727,2.5634766,1.3427734,0.0,0.0,0.0,99.84924,78.134766,137.98828
1770512475267,-0.9765625,0.22021484,-0.024902344,-4.211426,1.5258789,1.7700195,3398.0,2891.0,2851.0,99.84924,78.134766,137.98828
1770512475279,-0.9765625,0.22021484,-0.024902344,-4.211426,1.5258789,1.7700195,3398.0,2891.0,2851.0,100.10193,77.805176,138.96057
1770512475290,-0.9765625,0.22021484,-0.024902344,-4.211426,1.5258789,1.7700195,0.0,0.0,0.0,100.10193,77.805176,138.96057
1770512475367,-0.98535156,0.22753906,-0.04248047,-7.2021484,2.5634766,2.1362305,3415.0,2886.0,2964.0,100.10193,77.805176,138.96057
1770512475378,-0.98535156,0.22753906,-0.04248047,-7.2021484,2.5634766,2.1362305,3415.0,2886.0,2964.0,99.766846,77.55798,139.1748
1770512475390,-0.98535156,0.22753906,-0.04248047,-7.2021484,2.5634766,2.1362305,0.0,0.0,0.0,99.766846,77.55798,139.1748
1770512475467,-0.97998047,0.22363281,-0.0390625,-2.746582,3.3569336,1.2207031,3420.0,2914.0,3005.0,99.766846,77.55798,139.1748
1770512475478,-0.97998047,0.22363281,-0.0390625,-2.746582,3.3569336,1.2207031,3420.0,2914.0,3005.0,101.23901,77.32727,140.9491
1770512475489,-0.97998047,0.22363281,-0.0390625,-2.746582,3.3569336,1.2207031,0.0,0.0,0.0,101.23901,77.32727,140.9491
1770512475566,-0.9736328,0.2241211,-0.041992188,0.4272461,0.061035156,0.24414062,3420.0,2910.0,3077.0,101.23901,77.32727,140.9491
1770512475578,-0.9736328,0.2241211,-0.041992188,0.4272461,0.061035156,0.24414062,3420.0,2910.0,3077.0,101.53015,77.178955,141.41602
1770512475589,-0.9736328,0.2241211,-0.041992188,0.4272461,0.061035156,0.24414062,0.0,0.0,0.0,101.53015,77.178955,141.41602
1770512475666,-0.9785156,0.22021484,-0.041992188,-0.48828125,-0.12207031,0.5493164,3429.0,2896.0,3141.0,101.53015,77.178955,141.41602
1770512475677,-0.9785156,0.22021484,-0.041992188,-0.48828125,-0.12207031,0.5493164,3429.0,2896.0,3141.0,101.33789,77.08557,141.24023
1770512475689,-0.9785156,0.22021484,-0.041992188,-0.48828125,-0.12207031,0.5493164,0.0,0.0,0.0,101.33789,77.08557,141.24023
1770512475766,-0.97998047,0.21191406,-0.043945312,0.30517578,0.8544922,-1.0986328,3433.0,2900.0,3077.0,101.33789,77.08557,141.24023
1770512475777,-0.97998047,0.21191406,-0.043945312,0.30517578,0.8544922,-1.0986328,3433.0,2900.0,3077.0,101.45325,77.091064,141.31165
1770512475789,-0.97998047,0.21191406,-0.043945312,0.30517578,0.8544922,-1.0986328,0.0,0.0,0.0,101.45325,77.091064,141.31165
1770512475865,-0.9824219,0.20947266,-0.04296875,-0.48828125,1.7700195,-1.8920898,3440.0,2912.0,3139.0,101.45325,77.091064,141.31165
1770512475877,-0.9824219,0.20947266,-0.04296875,-0.48828125,1.7700195,-1.8920898,3440.0,2912.0,3139.0,102.42554,77.24487,142.10266
1770512475888,-0.9824219,0.20947266,-0.04296875,-0.48828125,1.7700195,-1.8920898,0.0,0.0,0.0,102.42554,77.24487,142.10266
1770512475965,-0.9746094,0.21289062,-0.045898438,-0.24414062,1.4648438,-1.5869141,3442.0,2914.0,3109.0,102.42554,77.24487,142.10266
1770512475977,-0.9746094,0.21289062,-0.045898438,-0.24414062,1.4648438,-1.5869141,3442.0,2914.0,3109.0,103.6615,77.41516,143.1903
1770512475988,-0.9746094,0.21289062,-0.045898438,-0.24414062,1.4648438,-1.5869141,0.0,0.0,0.0,103.6615,77.41516,143.1903
1770512476065,-0.9824219,0.21191406,-0.053710938,1.7700195,1.2817383,-0.6713867,3439.0,2905.0,3124.0,103.6615,77.41516,143.1903
1770512476076,-0.9824219,0.21191406,-0.053710938,1.7700195,1.2817383,-0.6713867,3439.0,2905.0,3124.0,104.694214,77.48108,144.06921
1770512476088,-0.9824219,0.21191406,-0.053710938,1.7700195,1.2817383,-0.6713867,0.0,0.0,0.0,104.694214,77.48108,144.06921
1770512476165,-0.97558594,0.20751953,-0.056152344,0.9765625,0.061035156,0.24414062,3432.0,2917.0,3108.0,104.694214,77.48108,144.06921
1770512476176,-0.97558594,0.20751953,-0.056152344,0.9765625,0.061035156,0.24414062,3432.0,2917.0,3108.0,104.71069,77.47009,143.99231
1770512476187,-0.97558594,0.20751953,-0.056152344,0.9765625,0.061035156,0.24414062,0.0,0.0,0.0,104.71069,77.47009,143.99231
1770512476264,-0.9951172,0.18945312,-0.072265625,4.760742,3.1738281,-1.8310547,3422.0,2924.0,3128.0,104.71069,77.47009,143.99231
1770512476276,-0.9951172,0.18945312,-0.072265625,4.760742,3.1738281,-1.8310547,3422.0,2924.0,3128.0,106.36963,77.508545,145.23376
1770512476287,-0.9951172,0.18945312,-0.072265625,4.760742,3.1738281,-1.8310547,0.0,0.0,0.0,106.36963,77.508545,145.23376
1770512476364,-0.9897461,0.17333984,-0.06982422,4.211426,5.554199,-4.699707,3443.0,2922.0,3074.0,106.36963,77.508545,145.23376
1770512476376,-0.9897461,0.17333984,-0.06982422,4.211426,5.554199,-4.699707,3443.0,2922.0,3074.0,109.69849,77.75574,148.07373
1770512476387,-0.9897461,0.17333984,-0.06982422,4.211426,5.554199,-4.699707,0.0,0.0,0.0,109.69849,77.75574,148.07373
1770512476464,-0.9790039,0.19824219,-0.056640625,-4.333496,0.24414062,-2.380371,3447.0,2924.0,3155.0,109.69849,77.75574,148.07373
1770512476475,-0.9790039,0.19824219,-0.056640625,-4.333496,0.24414062,-2.380371,3447.0,2924.0,3155.0,111.829834,78.00293,150.41931
1770512476487,-0.9790039,0.19824219,-0.056640625,-4.333496,0.24414062,-2.380371,0.0,0.0,0.0,111.829834,78.00293,150.41931
1770512476563,-0.9609375,0.21142578,-0.059570312,-13.244629,-8.422852,1.3427734,3436.0,2917.0,3206.0,111.829834,78.00293,150.41931
1770512476575,-0.9609375,0.21142578,-0.059570312,-13.244629,-8.422852,1.3427734,3436.0,2917.0,3206.0,107.53967,78.21167,147.02454
1770512476586,-0.9609375,0.21142578,-0.059570312,-13.244629,-8.422852,1.3427734,0.0,0.0,0.0,107.53967,78.21167,147.02454
1770512476663,-0.9741211,0.2109375,-0.037109375,-2.6855469,-1.5869141,1.4038086,3436.0,2938.0,3153.0,107.53967,78.21167,147.02454
1770512476675,-0.9741211,0.2109375,-0.037109375,-2.6855469,-1.5869141,1.4038086,3436.0,2938.0,3153.0,104.94141,78.079834,144.92615
1770512476686,-0.9741211,0.2109375,-0.037109375,-2.6855469,-1.5869141,1.4038086,0.0,0.0,0.0,104.94141,78.079834,144.92615
1770512476763,-0.97265625,0.21142578,-0.044921875,-1.5258789,1.159668,1.8920898,3433.0,2934.0,3138.0,104.94141,78.079834,144.92615
1770512476775,-0.97265625,0.21142578,-0.044921875,-1.5258789,1.159668,1.8920898,3433.0,2934.0,3138.0,104.644775,77.86011,144.76135
1770512476789,-0.97265625,0.21142578,-0.044921875,-1.5258789,1.159668,1.8920898,0.0,0.0,0.0,104.644775,77.86011,144.76135
1770512476863,-0.97753906,0.2211914,-0.041503906,1.5258789,1.4648438,0.4272461,3446.0,2929.0,3162.0,104.644775,77.86011,144.76135
1770512476874,-0.97753906,0.2211914,-0.041503906,1.5258789,1.4648438,0.4272461,3446.0,2929.0,3162.0,106.05652,77.65137,145.99731
1770512476886,-0.97753906,0.2211914,-0.041503906,1.5258789,1.4648438,0.4272461,0.0,0.0,0.0,106.05652,77.65137,145.99731
1770512476962,-0.9921875,0.21679688,-0.056152344,-12.512207,-16.784668,4.1503906,3459.0,2934.0,3160.0,106.05652,77.65137,145.99731
1770512476974,-0.9921875,0.21679688,-0.056152344,-12.512207,-16.784668,4.1503906,3459.0,2934.0,3160.0,99.55261,77.547,140.03723
1770512476985,-0.9921875,0.21679688,-0.056152344,-12.512207,-16.784668,4.1503906,0.0,0.0,0.0,99.55261,77.547,140.03723
1770512477062,-0.9824219,0.2163086,-0.02734375,2.8076172,-0.6713867,-0.30517578,3437.0,2917.0,3103.0,99.55261,77.547,140.03723
1770512477074,-0.9824219,0.2163086,-0.02734375,2.8076172,-0.6713867,-0.30517578,3437.0,2917.0,3103.0,97.90466,77.525024,138.18054
1770512477085,-0.9824219,0.2163086,-0.02734375,2.8076172,-0.6713867,-0.30517578,0.0,0.0,0.0,97.90466,77.525024,138.18054
1770512477162,-0.9633789,0.2084961,-0.03955078,10.192871,5.2490234,-3.112793,3429.0,2920.0,3087.0,97.90466,77.525024,138.18054
1770512477173,-0.9633789,0.2084961,-0.03955078,10.192871,5.2490234,-3.112793,3429.0,2920.0,3087.0,99.678955,77.645874,139.24072
1770512477185,-0.9633789,0.2084961,-0.03955078,10.192871,5.2490234,-3.112793,0.0,0.0,0.0,99.678955,77.645874,139.24072
1770512477262,-0.97021484,0.20214844,-0.032226562,4.5776367,-2.8076172,0.0,3425.0,2909.0,3041.0,99.678955,77.645874,139.24072
1770512477273,-0.97021484,0.20214844,-0.032226562,4.5776367,-2.8076172,0.0,3425.0,2909.0,3041.0,102.50244,77.74475,141.09192
1770512477285,-0.97021484,0.20214844,-0.032226562,4.5776367,-2.8076172,0.0,0.0,0.0,0.0,102.50244,77.74475,141.09192
1770512477361,-0.98339844,0.20507812,-0.048339844,8.728027,-0.36621094,-0.24414062,3439.0,2902.0,3042.0,102.50244,77.74475,141.09192
1770512477373,-0.98339844,0.20507812,-0.048339844,8.728027,-0.36621094,-0.24414062,3439.0,2902.0,3042.0,102.491455,77.77222,140.35583
1770512477384,-0.98339844,0.20507812,-0.048339844,8.728027,-0.36621094,-0.24414062,0.0,0.0,0.0,102.491455,77.77222,140.35583
1770512477461,-0.9667969,0.22753906,-0.04296875,8.422852,0.24414062,2.0141602,3423.0,2901.0,3038.0,102.491455,77.77222,140.35583
1770512477472,-0.9667969,0.22753906,-0.04296875,8.422852,0.24414062,2.0141602,3423.0,2901.0,3038.0,102.87048,77.645874,140.05371
1770512477484,-0.9667969,0.22753906,-0.04296875,8.422852,0.24414062,2.0141602,0.0,0.0,0.0,102.87048,77.645874,140.05371
1770512477561,-0.98583984,0.2163086,-0.047851562,4.1503906,0.0,5.1879883,3437.0,2865.0,2966.0,102.87048,77.645874,140.05371
1770512477572,-0.98583984,0.2163086,-0.047851562,4.1503906,0.0,5.1879883,3437.0,2865.0,2966.0,102.821045,77.20093,139.46594
1770512477584,-0.98583984,0.2163086,-0.047851562,4.1503906,0.0,5.1879883,0.0,0.0,0.0,102.821045,77.20093,139.46594
1770512477661,-0.9819336,0.19677734,-0.04248047,1.7700195,-0.5493164,2.380371,3442.0,2834.0,2982.0,102.821045,77.20093,139.46594
1770512477672,-0.9819336,0.19677734,-0.04248047,1.7700195,-0.5493164,2.380371,3442.0,2834.0,2982.0,103.11218,76.832886,139.55933
1770512477684,-0.9819336,0.19677734,-0.04248047,1.7700195,-0.5493164,2.380371,0.0,0.0,0.0,103.11218,76.832886,139.55933
1770512477760,-0.9868164,0.19824219,-0.04248047,-1.0375977,0.79345703,-1.0375977,3459.0,2795.0,2973.0,103.11218,76.832886,139.55933
1770512477772,-0.9868164,0.19824219,-0.04248047,-1.0375977,0.79345703,-1.0375977,3459.0,2795.0,2973.0,103.271484,76.8219,139.88892
1770512477783,-0.9868164,0.19824219,-0.04248047,-1.0375977,0.79345703,-1.0375977,0.0,0.0,0.0,103.271484,76.8219,139.88892
1770512477860,-0.9716797,0.18652344,-0.05126953,-4.8828125,0.7324219,-2.8076172,3468.0,2795.0,2992.0,103.271484,76.8219,139.88892
1770512477871,-0.9716797,0.18652344,-0.05126953,-4.8828125,0.7324219,-2.8076172,3468.0,2795.0,2992.0,103.43628,77.17346,140.48218
1770512477883,-0.9716797,0.18652344,-0.05126953,-4.8828125,0.7324219,-2.8076172,0.0,0.0,0.0,103.43628,77.17346,140.48218
1770512477960,-0.99072266,0.22216797,-0.060058594,-9.82666,0.0,1.0986328,3462.0,2799.0,3056.0,103.43628,77.17346,140.48218
1770512477971,-0.99072266,0.22216797,-0.060058594,-9.82666,0.0,1.0986328,3462.0,2799.0,3056.0,101.37085,77.283325,139.69666
1770512477982,-0.99072266,0.22216797,-0.060058594,-9.82666,0.0,1.0986328,0.0,0.0,0.0,101.37085,77.283325,139.69666
1770512478060,-0.9526367,0.2446289,-0.023925781,2.380371,-7.2631836,-1.953125,3428.0,2839.0,2988.0,101.37085,77.283325,139.69666
1770512478071,-0.9526367,0.2446289,-0.023925781,2.380371,-7.2631836,-1.953125,3428.0,2839.0,2988.0,100.2063,77.48108,138.75732
1770512478082,-0.9526367,0.2446289,-0.023925781,2.380371,-7.2631836,-1.953125,0.0,0.0,0.0,100.2063,77.48108,138.75732
1770512478159,-0.9628906,0.2211914,-0.034179688,12.023926,-8.361816,-1.159668,3409.0,2856.0,3046.0,100.2063,77.48108,138.75732
1770512478171,-0.9628906,0.2211914,-0.034179688,12.023926,-8.361816,-1.159668,3409.0,2856.0,3046.0,96.42151,77.79419,134.07166
1770512478182,-0.9628906,0.2211914,-0.034179688,12.023926,-8.361816,-1.159668,0.0,0.0,0.0,96.42151,77.79419,134.07166
1770512478259,-0.98779297,0.17871094,-0.008300781,3.479004,-7.019043,2.5024414,3391.0,2867.0,2902.0,96.42151,77.79419,134.07166
1770512478270,-0.98779297,0.17871094,-0.008300781,3.479004,-7.019043,2.5024414,3391.0,2867.0,2902.0,94.58679,77.87109,130.84167
1770512478282,-0.98779297,0.17871094,-0.008300781,3.479004,-7.019043,2.5024414,0.0,0.0,0.0,94.58679,77.87109,130.84167
1770512478358,-0.99316406,0.2084961,0.0087890625,-4.0283203,-3.90625,0.6713867,3372.0,2827.0,2766.0,94.58679,77.87109,130.84167
1770512478370,-0.99316406,0.2084961,0.0087890625,-4.0283203,-3.90625,0.6713867,3372.0,2827.0,2766.0,91.56006,77.67883,128.10059
1770512478381,-0.99316406,0.2084961,0.0087890625,-4.0283203,-3.90625,0.6713867,0.0,0.0,0.0,91.56006,77.67883,128.10059
1770512478458,-1.0009766,0.18164062,0.016113281,-4.1503906,1.2207031,-0.8544922,3368.0,2817.0,2691.0,91.56006,77.67883,128.10059
1770512478470,-1.0009766,0.18164062,0.016113281,-4.1503906,1.2207031,-0.8544922,3368.0,2817.0,2691.0,90.043945,77.684326,126.903076
1770512478482,-1.0009766,0.18164062,0.016113281,-4.1503906,1.2207031,-0.8544922,0.0,0.0,0.0,90.043945,77.684326,126.903076
1770512478558,-0.9663086,0.22167969,0.009765625,-15.563965,2.380371,-1.4648438,3363.0,2814.0,2677.0,90.043945,77.684326,126.903076
1770512478570,-0.9663086,0.22167969,0.009765625,-15.563965,2.380371,-1.4648438,3363.0,2814.0,2677.0,89.44519,77.76123,127.79846
1770512478583,-0.9663086,0.22167969,0.009765625,-15.563965,2.380371,-1.4648438,0.0,0.0,0.0,89.44519,77.76123,127.79846
1770512478658,-0.99072266,0.24609375,-9.765625E-4,-7.751465,-2.5024414,-1.8310547,3364.0,2851.0,2705.0,89.44519,77.76123,127.79846
1770512478669,-0.99072266,0.24609375,-9.765625E-4,-7.751465,-2.5024414,-1.8310547,3364.0,2851.0,2705.0,88.8739,77.975464,128.172
1770512478682,-0.99072266,0.24609375,-9.765625E-4,-7.751465,-2.5024414,-1.8310547,0.0,0.0,0.0,88.8739,77.975464,128.172
1770512478757,-0.97509766,0.18701172,0.028808594,15.014648,0.24414062,-0.7324219,3371.0,2874.0,2751.0,88.8739,77.975464,128.172
1770512478769,-0.97509766,0.18701172,0.028808594,15.014648,0.24414062,-0.7324219,3371.0,2874.0,2751.0,88.791504,78.05237,127.32605
1770512478781,-0.97509766,0.18701172,0.028808594,15.014648,0.24414062,-0.7324219,0.0,0.0,0.0,88.791504,78.05237,127.32605
1770512478857,-0.9472656,0.26611328,-0.010253906,-16.296387,-3.2348633,10.437012,3356.0,2891.0,2793.0,88.791504,78.05237,127.32605
1770512478869,-0.9472656,0.26611328,-0.010253906,-16.296387,-3.2348633,10.437012,3356.0,2891.0,2793.0,87.45117,77.63489,126.67786
1770512478881,-0.9472656,0.26611328,-0.010253906,-16.296387,-3.2348633,10.437012,0.0,0.0,0.0,87.45117,77.63489,126.67786
1770512478957,-0.99121094,0.1850586,0.015136719,0.12207031,-2.5634766,1.4648438,3358.0,2871.0,2755.0,87.45117,77.63489,126.67786
1770512478968,-0.99121094,0.1850586,0.015136719,0.12207031,-2.5634766,1.4648438,3358.0,2871.0,2755.0,86.187744,77.29431,124.920044
1770512478980,-0.99121094,0.1850586,0.015136719,0.12207031,-2.5634766,1.4648438,0.0,0.0,0.0,86.187744,77.29431,124.920044
1770512479057,-0.9863281,0.24902344,0.014160156,-1.7089844,1.0375977,-3.6010742,3346.0,2859.0,2738.0,86.187744,77.29431,124.920044
1770512479068,-0.9863281,0.24902344,0.014160156,-1.7089844,1.0375977,-3.6010742,3346.0,2859.0,2738.0,85.46814,77.36572,124.573975
1770512479080,-0.9863281,0.24902344,0.014160156,-1.7089844,1.0375977,-3.6010742,0.0,0.0,0.0,85.46814,77.36572,124.573975
1770512479156,-0.9770508,0.24853516,0.0068359375,5.1879883,-1.8310547,3.6010742,3365.0,2862.0,2737.0,85.46814,77.36572,124.573975
1770512479168,-0.9770508,0.24853516,0.0068359375,5.1879883,-1.8310547,3.6010742,3365.0,2862.0,2737.0,86.02844,77.42615,124.48059
1770512479181,-0.9770508,0.24853516,0.0068359375,5.1879883,-1.8310547,3.6010742,0.0,0.0,0.0,86.02844,77.42615,124.48059
1770512479256,-0.94628906,0.21142578,0.010253906,2.9907227,1.2207031,2.6245117,3359.0,2853.0,2703.0,86.02844,77.42615,124.48059
1770512479268,-0.94628906,0.21142578,0.010253906,2.9907227,1.2207031,2.6245117,3359.0,2853.0,2703.0,85.51758,77.162476,123.37097
1770512479279,-0.94628906,0.21142578,0.010253906,2.9907227,1.2207031,2.6245117,0.0,0.0,0.0,85.51758,77.162476,123.37097
1770512479356,-0.9760742,0.26171875,0.029296875,-6.591797,1.0986328,2.0751953,3354.0,2843.0,2658.0,85.51758,77.162476,123.37097
1770512479367,-0.9760742,0.26171875,0.029296875,-6.591797,1.0986328,2.0751953,3354.0,2843.0,2658.0,84.940796,76.92627,123.10181
1770512479379,-0.9760742,0.26171875,0.029296875,-6.591797,1.0986328,2.0751953,0.0,0.0,0.0,84.940796,76.92627,123.10181
1770512479456,-0.98046875,0.2084961,0.034179688,10.803223,-5.1879883,0.6713867,3342.0,2833.0,2655.0,84.940796,76.92627,123.10181
1770512479467,-0.98046875,0.2084961,0.034179688,10.803223,-5.1879883,0.6713867,3342.0,2833.0,2655.0,84.11682,76.54175,122.23938
1770512479478,-0.98046875,0.2084961,0.034179688,10.803223,-5.1879883,0.6713867,0.0,0.0,0.0,84.11682,76.54175,122.23938
1770512479555,-0.97314453,0.2548828,0.03955078,-8.483887,0.0,-0.91552734,3353.0,2837.0,2717.0,84.11682,76.54175,122.23938
1770512479567,-0.97314453,0.2548828,0.03955078,-8.483887,0.0,-0.91552734,3353.0,2837.0,2717.0,83.58948,76.673584,121.28357
1770512479578,-0.97314453,0.2548828,0.03955078,-8.483887,0.0,-0.91552734,0.0,0.0,0.0,83.58948,76.673584,121.28357
1770512479655,-1.0244141,0.24316406,0.014160156,2.5634766,-0.4272461,-10.620117,3358.0,2817.0,2661.0,83.58948,76.673584,121.28357
1770512479666,-1.0244141,0.24316406,0.014160156,2.5634766,-0.4272461,-10.620117,3358.0,2817.0,2661.0,83.2489,77.11853,120.60791
1770512479678,-1.0244141,0.24316406,0.014160156,2.5634766,-0.4272461,-10.620117,0.0,0.0,0.0,83.2489,77.11853,120.60791
1770512479755,-0.9838867,0.22021484,0.03564453,11.169434,0.9765625,-1.0986328,3313.0,2847.0,2626.0,83.2489,77.11853,120.60791
1770512479766,-0.9838867,0.22021484,0.03564453,11.169434,0.9765625,-1.0986328,3313.0,2847.0,2626.0,82.77649,76.84387,120.651855
1770512479779,-0.9838867,0.22021484,0.03564453,11.169434,0.9765625,-1.0986328,0.0,0.0,0.0,82.77649,76.84387,120.651855
1770512479854,-0.9472656,0.22167969,0.032714844,-11.352539,-0.61035156,0.0,3315.0,2848.0,2641.0,82.77649,76.84387,120.651855
1770512479866,-0.9472656,0.22167969,0.032714844,-11.352539,-0.61035156,0.0,3315.0,2848.0,2641.0,84.122314,77.33826,120.84412
1770512479878,-0.9472656,0.22167969,0.032714844,-11.352539,-0.61035156,0.0,0.0,0.0,0.0,84.122314,77.33826,120.84412
1770512479954,-0.97509766,0.2265625,0.01953125,10.375977,-0.91552734,-6.164551,3323.0,2832.0,2581.0,84.122314,77.33826,120.84412
1770512479965,-0.97509766,0.2265625,0.01953125,10.375977,-0.91552734,-6.164551,3323.0,2832.0,2581.0,82.32605,77.579956,119.10828
1770512479978,-0.97509766,0.2265625,0.01953125,10.375977,-0.91552734,-6.164551,0.0,0.0,0.0,82.32605,77.579956,119.10828
1770512480054,-0.9194336,0.18652344,0.00390625,-3.6621094,-7.507324,-6.225586,3305.0,2823.0,2566.0,82.32605,77.579956,119.10828
1770512480065,-0.9194336,0.18652344,0.00390625,-3.6621094,-7.507324,-6.225586,3305.0,2823.0,2566.0,80.23865,77.76123,117.37244
1770512480079,-0.9194336,0.18652344,0.00390625,-3.6621094,-7.507324,-6.225586,0.0,0.0,0.0,80.23865,77.76123,117.37244
1770512480153,-0.97558594,0.23242188,0.088378906,5.493164,2.380371,4.8828125,3298.0,2853.0,2529.0,80.23865,77.76123,117.37244
1770512480165,-0.97558594,0.23242188,0.088378906,5.493164,2.380371,4.8828125,3298.0,2853.0,2529.0,79.30481,77.84912,116.26282
1770512480176,-0.97558594,0.23242188,0.088378906,5.493164,2.380371,4.8828125,0.0,0.0,0.0,79.30481,77.84912,116.26282
1770512480253,-1.0014648,0.17333984,0.072753906,-1.7700195,3.0517578,0.4272461,3289.0,2846.0,2455.0,79.30481,77.84912,116.26282
1770512480265,-1.0014648,0.17333984,0.072753906,-1.7700195,3.0517578,0.4272461,3289.0,2846.0,2455.0,81.6449,77.49756,118.11951
1770512480276,-1.0014648,0.17333984,0.072753906,-1.7700195,3.0517578,0.4272461,0.0,0.0,0.0,81.6449,77.49756,118.11951
1770512480353,-0.99902344,0.23144531,0.009765625,14.465332,-5.92041,-5.92041,3297.0,2804.0,2516.0,81.6449,77.49756,118.11951
1770512480364,-0.99902344,0.23144531,0.009765625,14.465332,-5.92041,-5.92041,3297.0,2804.0,2516.0,80.07385,77.8656,116.35071
1770512480377,-0.99902344,0.23144531,0.009765625,14.465332,-5.92041,-5.92041,0.0,0.0,0.0,80.07385,77.8656,116.35071
1770512480453,-1.0297852,0.15039062,0.05517578,-7.5683594,11.474609,6.4086914,3247.0,2855.0,2466.0,80.07385,77.8656,116.35071
1770512480464,-1.0297852,0.15039062,0.05517578,-7.5683594,11.474609,6.4086914,3247.0,2855.0,2466.0,81.49658,78.00293,116.37268
1770512480475,-1.0297852,0.15039062,0.05517578,-7.5683594,11.474609,6.4086914,0.0,0.0,0.0,81.49658,78.00293,116.37268
1770512480553,-0.92578125,0.18847656,0.084472656,-34.851074,11.352539,12.878418,3276.0,2806.0,2416.0,81.49658,78.00293,116.37268
1770512480564,-0.92578125,0.18847656,0.084472656,-34.851074,11.352539,12.878418,3276.0,2806.0,2416.0,85.53406,77.35474,123.480835
1770512480576,-0.92578125,0.18847656,0.084472656,-34.851074,11.352539,12.878418,0.0,0.0,0.0,85.53406,77.35474,123.480835
1770512480652,-0.97216797,0.21728516,0.04248047,9.155273,5.92041,-3.2348633,3333.0,2818.0,2602.0,85.53406,77.35474,123.480835
1770512480664,-0.97216797,0.21728516,0.04248047,9.155273,5.92041,-3.2348633,3333.0,2818.0,2602.0,89.70886,77.55249,128.26538
1770512480676,-0.97216797,0.21728516,0.04248047,9.155273,5.92041,-3.2348633,0.0,0.0,0.0,89.70886,77.55249,128.26538
1770512480752,-1.0053711,0.21875,4.8828125E-4,-9.94873,6.286621,5.126953,3384.0,2789.0,2748.0,89.70886,77.55249,128.26538
1770512480763,-1.0053711,0.21875,4.8828125E-4,-9.94873,6.286621,5.126953,3384.0,2789.0,2748.0,88.03345,77.178955,127.27661
1770512480775,-1.0053711,0.21875,4.8828125E-4,-9.94873,6.286621,5.126953,0.0,0.0,0.0,88.03345,77.178955,127.27661
1770512480852,-0.9716797,0.2109375,-0.03857422,-8.666992,3.90625,1.2207031,3393.0,2779.0,2767.0,88.03345,77.178955,127.27661
1770512480863,-0.9716797,0.2109375,-0.03857422,-8.666992,3.90625,1.2207031,3393.0,2779.0,2767.0,91.57654,76.99768,131.51733
1770512480874,-0.9716797,0.2109375,-0.03857422,-8.666992,3.90625,1.2207031,0.0,0.0,0.0,91.57654,76.99768,131.51733
1770512480951,-0.9814453,0.26367188,0.0146484375,4.4555664,5.2490234,6.225586,3424.0,2786.0,2804.0,91.57654,76.99768,131.51733
1770512480963,-0.9814453,0.26367188,0.0146484375,4.4555664,5.2490234,6.225586,3424.0,2786.0,2804.0,93.80676,76.32202,134.07166
1770512480974,-0.9814453,0.26367188,0.0146484375,4.4555664,5.2490234,6.225586,0.0,0.0,0.0,93.80676,76.32202,134.07166
1770512481051,-0.9511719,0.21386719,-0.016601562,8.728027,6.958008,-0.12207031,3463.0,2783.0,2970.0,93.80676,76.32202,134.07166
1770512481063,-0.9511719,0.21386719,-0.016601562,8.728027,6.958008,-0.12207031,3463.0,2783.0,2970.0,98.43201,75.93201,138.12561
1770512481074,-0.9511719,0.21386719,-0.016601562,8.728027,6.958008,-0.12207031,0.0,0.0,0.0,98.43201,75.93201,138.12561
1770512481151,-0.9916992,0.2241211,-0.032714844,0.6713867,-20.996094,-0.79345703,3504.0,2745.0,3081.0,98.43201,75.93201,138.12561
1770512481162,-0.9916992,0.2241211,-0.032714844,0.6713867,-20.996094,-0.79345703,3504.0,2745.0,3081.0,91.81824,75.789185,131.6272
1770512481174,-0.9916992,0.2241211,-0.032714844,0.6713867,-20.996094,-0.79345703,0.0,0.0,0.0,91.81824,75.789185,131.6272
1770512481250,-0.9536133,0.24511719,0.020019531,-9.643555,0.48828125,1.3427734,3486.0,2726.0,2973.0,91.81824,75.789185,131.6272
1770512481262,-0.9536133,0.24511719,0.020019531,-9.643555,0.48828125,1.3427734,3486.0,2726.0,2973.0,90.90637,75.81665,130.73181
1770512481273,-0.9536133,0.24511719,0.020019531,-9.643555,0.48828125,1.3427734,0.0,0.0,0.0,90.90637,75.81665,130.73181
1770512481350,-1.0126953,0.2607422,0.001953125,2.5634766,-11.352539,-1.2817383,3460.0,2731.0,2936.0,90.90637,75.81665,130.73181
1770512481362,-1.0126953,0.2607422,0.001953125,2.5634766,-11.352539,-1.2817383,3460.0,2731.0,2936.0,86.20422,75.58594,126.326294
1770512481373,-1.0126953,0.2607422,0.001953125,2.5634766,-11.352539,-1.2817383,0.0,0.0,0.0,86.20422,75.58594,126.326294
1770512481450,-0.96484375,0.25439453,0.015625,-4.638672,0.79345703,-1.0375977,3456.0,2746.0,2861.0,86.20422,75.58594,126.326294
1770512481461,-0.96484375,0.25439453,0.015625,-4.638672,0.79345703,-1.0375977,3456.0,2746.0,2861.0,85.27588,75.701294,125.392456
1770512481475,-0.96484375,0.25439453,0.015625,-4.638672,0.79345703,-1.0375977,0.0,0.0,0.0,85.27588,75.701294,125.392456
1770512481550,-0.9892578,0.24902344,4.8828125E-4,3.2958984,0.0,-4.8217773,3442.0,2742.0,2813.0,85.27588,75.701294,125.392456
1770512481561,-0.9892578,0.24902344,4.8828125E-4,3.2958984,0.0,-4.8217773,3442.0,2742.0,2813.0,85.946045,76.05835,125.63965
1770512481581,-0.9892578,0.24902344,4.8828125E-4,3.2958984,0.0,-4.8217773,0.0,0.0,0.0,85.946045,76.05835,125.63965
1770512481649,-0.9814453,0.2578125,0.009765625,3.479004,1.5258789,-3.540039,3443.0,2728.0,2849.0,85.946045,76.05835,125.63965
1770512481661,-0.9814453,0.2578125,0.009765625,3.479004,1.5258789,-3.540039,3443.0,2728.0,2849.0,86.23169,76.2616,126.06262
1770512481673,-0.9814453,0.2578125,0.009765625,3.479004,1.5258789,-3.540039,0.0,0.0,0.0,86.23169,76.2616,126.06262
1770512481749,-0.96777344,0.21044922,0.013183594,4.9438477,0.30517578,-3.4179688,3449.0,2755.0,2806.0,86.23169,76.2616,126.06262
1770512481761,-0.96777344,0.21044922,0.013183594,4.9438477,0.30517578,-3.4179688,3449.0,2755.0,2806.0,86.67114,76.552734,125.86487
1770512481774,-0.96777344,0.21044922,0.013183594,4.9438477,0.30517578,-3.4179688,0.0,0.0,0.0,86.67114,76.552734,125.86487
1770512481849,-0.97216797,0.22998047,0.029785156,-0.30517578,2.1972656,-2.746582,3422.0,2759.0,2797.0,86.67114,76.552734,125.86487
1770512481860,-0.97216797,0.22998047,0.029785156,-0.30517578,2.1972656,-2.746582,3422.0,2759.0,2797.0,87.33032,76.84387,126.52954
1770512481880,-0.97216797,0.22998047,0.029785156,-0.30517578,2.1972656,-2.746582,0.0,0.0,0.0,87.33032,76.84387,126.52954
1770512481949,-0.9765625,0.21728516,-0.010253906,-0.36621094,2.2583008,-1.0375977,3424.0,2783.0,2777.0,87.33032,76.84387,126.52954
1770512481960,-0.9765625,0.21728516,-0.010253906,-0.36621094,2.2583008,-1.0375977,3424.0,2783.0,2777.0,88.45642,77.05261,127.386475
1770512481972,-0.9765625,0.21728516,-0.010253906,-0.36621094,2.2583008,-1.0375977,0.0,0.0,0.0,88.45642,77.05261,127.386475
1770512482048,-0.97265625,0.24365234,0.018554688,-4.638672,4.4555664,0.9765625,3403.0,2779.0,2806.0,88.45642,77.05261,127.386475
1770512482060,-0.97265625,0.24365234,0.018554688,-4.638672,4.4555664,0.9765625,3403.0,2779.0,2806.0,89.802246,77.01965,129.14978
1770512482072,-0.97265625,0.24365234,0.018554688,-4.638672,4.4555664,0.9765625,0.0,0.0,0.0,89.802246,77.01965,129.14978
1770512482148,-0.9794922,0.22265625,0.0014648438,1.6479492,2.6245117,-0.7324219,3426.0,2778.0,2853.0,89.802246,77.01965,129.14978
1770512482159,-0.9794922,0.22265625,0.0014648438,1.6479492,2.6245117,-0.7324219,3426.0,2778.0,2853.0,91.40625,76.953735,130.75378
1770512482173,-0.9794922,0.22265625,0.0014648438,1.6479492,2.6245117,-0.7324219,0.0,0.0,0.0,91.40625,76.953735,130.75378
1770512482248,-0.9584961,0.2109375,0.0107421875,6.591797,3.540039,-1.7700195,3432.0,2789.0,2909.0,91.40625,76.953735,130.75378
1770512482259,-0.9584961,0.2109375,0.0107421875,6.591797,3.540039,-1.7700195,3432.0,2789.0,2909.0,91.82922,77.05261,131.16577
1770512482271,-0.9584961,0.2109375,0.0107421875,6.591797,3.540039,-1.7700195,0.0,0.0,0.0,91.82922,77.05261,131.16577
1770512482347,-0.9838867,0.23291016,-0.018066406,-8.117676,0.0,1.0375977,3437.0,2785.0,2945.0,91.82922,77.05261,131.16577
1770512482359,-0.9838867,0.23291016,-0.018066406,-8.117676,0.0,1.0375977,3437.0,2785.0,2945.0,91.93359,77.0636,131.3086
1770512482371,-0.9838867,0.23291016,-0.018066406,-8.117676,0.0,1.0375977,0.0,0.0,0.0,91.93359,77.0636,131.3086
1770512482447,-0.96777344,0.22558594,-0.0029296875,6.0424805,3.0517578,-1.5258789,3455.0,2780.0,2911.0,91.93359,77.0636,131.3086
1770512482458,-0.96777344,0.22558594,-0.0029296875,6.0424805,3.0517578,-1.5258789,3455.0,2780.0,2911.0,93.40027,77.1405,132.44019
1770512482480,-0.96777344,0.22558594,-0.0029296875,6.0424805,3.0517578,-1.5258789,0.0,0.0,0.0,93.40027,77.1405,132.44019
1770512482547,-0.9790039,0.21582031,-0.015136719,6.4086914,1.0986328,-1.4648438,3467.0,2772.0,2904.0,93.40027,77.1405,132.44019
1770512482558,-0.9790039,0.21582031,-0.015136719,6.4086914,1.0986328,-1.4648438,3467.0,2772.0,2904.0,94.01001,77.145996,132.78625
1770512482570,-0.9790039,0.21582031,-0.015136719,6.4086914,1.0986328,-1.4648438,0.0,0.0,0.0,94.01001,77.145996,132.78625
1770512482646,-0.9667969,0.21582031,-0.0126953125,2.0141602,-1.5258789,-1.8310547,3460.0,2768.0,2927.0,94.01001,77.145996,132.78625
1770512482658,-0.9667969,0.21582031,-0.0126953125,2.0141602,-1.5258789,-1.8310547,3460.0,2768.0,2927.0,94.33411,77.29431,132.76428
1770512482670,-0.9667969,0.21582031,-0.0126953125,2.0141602,-1.5258789,-1.8310547,0.0,0.0,0.0,94.33411,77.29431,132.76428
1770512482746,-0.9707031,0.20800781,-0.017089844,-1.5258789,0.79345703,-1.953125,3460.0,2778.0,2926.0,94.33411,77.29431,132.76428
1770512482758,-0.9707031,0.20800781,-0.017089844,-1.5258789,0.79345703,-1.953125,3460.0,2778.0,2926.0,94.41101,77.45361,132.76428
1770512482769,-0.9707031,0.20800781,-0.017089844,-1.5258789,0.79345703,-1.953125,0.0,0.0,0.0,94.41101,77.45361,132.76428
1770512482846,-0.9946289,0.21289062,-0.033203125,-1.7089844,-4.272461,-1.953125,3465.0,2760.0,2921.0,94.41101,77.45361,132.76428
1770512482857,-0.9946289,0.21289062,-0.033203125,-1.7089844,-4.272461,-1.953125,3465.0,2760.0,2921.0,93.153076,77.66235,131.7096
1770512482869,-0.9946289,0.21289062,-0.033203125,-1.7089844,-4.272461,-1.953125,0.0,0.0,0.0,93.153076,77.66235,131.7096
1770512482946,-0.9892578,0.2133789,-0.0034179688,4.0283203,0.0,-2.746582,3454.0,2773.0,2884.0,93.153076,77.66235,131.7096
1770512482957,-0.9892578,0.2133789,-0.0034179688,4.0283203,0.0,-2.746582,3454.0,2773.0,2884.0,92.31262,77.958984,130.64392
1770512482969,-0.9892578,0.2133789,-0.0034179688,4.0283203,0.0,-2.746582,0.0,0.0,0.0,92.31262,77.958984,130.64392
1770512483045,-0.9658203,0.203125,-0.005859375,-0.61035156,5.004883,-0.12207031,3434.0,2777.0,2863.0,92.31262,77.958984,130.64392
1770512483057,-0.9658203,0.203125,-0.005859375,-0.61035156,5.004883,-0.12207031,3434.0,2777.0,2863.0,93.83423,78.05237,132.06116
1770512483069,-0.9658203,0.203125,-0.005859375,-0.61035156,5.004883,-0.12207031,0.0,0.0,0.0,93.83423,78.05237,132.06116
1770512483145,-0.9916992,0.21142578,-0.033691406,-5.554199,1.2207031,-0.36621094,3441.0,2784.0,2817.0,93.83423,78.05237,132.06116
1770512483157,-0.9916992,0.21142578,-0.033691406,-5.554199,1.2207031,-0.36621094,3441.0,2784.0,2817.0,94.729614,78.07434,133.18726
1770512483168,-0.9916992,0.21142578,-0.033691406,-5.554199,1.2207031,-0.36621094,0.0,0.0,0.0,94.729614,78.07434,133.18726
1770512483245,-0.97802734,0.203125,-0.0087890625,-2.9296875,0.4272461,-1.953125,3436.0,2780.0,2838.0,94.729614,78.07434,133.18726
1770512483256,-0.97802734,0.203125,-0.0087890625,-2.9296875,0.4272461,-1.953125,3436.0,2780.0,2838.0,95.685425,78.22266,134.34631
1770512483268,-0.97802734,0.203125,-0.0087890625,-2.9296875,0.4272461,-1.953125,0.0,0.0,0.0,95.685425,78.22266,134.34631
1770512483345,-0.98291016,0.20996094,-0.023925781,-0.30517578,-2.5634766,-2.380371,3442.0,2792.0,2863.0,95.685425,78.22266,134.34631
1770512483356,-0.98291016,0.20996094,-0.023925781,-0.30517578,-2.5634766,-2.380371,3442.0,2792.0,2863.0,94.46594,78.376465,133.4784
1770512483368,-0.98291016,0.20996094,-0.023925781,-0.30517578,-2.5634766,-2.380371,0.0,0.0,0.0,94.46594,78.376465,133.4784
1770512483444,-0.9814453,0.19677734,-0.0068359375,0.0,-0.9765625,-0.91552734,3422.0,2823.0,2860.0,94.46594,78.376465,133.4784
1770512483456,-0.9814453,0.19677734,-0.0068359375,0.0,-0.9765625,-0.91552734,3422.0,2823.0,2860.0,93.79028,78.513794,132.73132
1770512483467,-0.9814453,0.19677734,-0.0068359375,0.0,-0.9765625,-0.91552734,0.0,0.0,0.0,93.79028,78.513794,132.73132
1770512483544,-0.97998047,0.18847656,-0.001953125,1.159668,-1.0375977,-0.12207031,3395.0,2850.0,2875.0,93.79028,78.513794,132.73132
1770512483555,-0.97998047,0.18847656,-0.001953125,1.159668,-1.0375977,-0.12207031,3395.0,2850.0,2875.0,92.82349,78.52478,131.79199
1770512483567,-0.97998047,0.18847656,-0.001953125,1.159668,-1.0375977,-0.12207031,0.0,0.0,0.0,92.82349,78.52478,131.79199
1770512483644,-0.9838867,0.20117188,-0.009277344,-1.8310547,-2.1972656,1.4648438,3407.0,2831.0,2851.0,92.82349,78.52478,131.79199
1770512483655,-0.9838867,0.20117188,-0.009277344,-1.8310547,-2.1972656,1.4648438,3407.0,2831.0,2851.0,91.84021,78.4259,130.95154
1770512483667,-0.9838867,0.20117188,-0.009277344,-1.8310547,-2.1972656,1.4648438,0.0,0.0,0.0,91.84021,78.4259,130.95154
1770512483743,-0.98095703,0.2006836,-0.008300781,0.79345703,-3.1738281,-0.061035156,3392.0,2830.0,2860.0,91.84021,78.4259,130.95154
1770512483755,-0.98095703,0.2006836,-0.008300781,0.79345703,-3.1738281,-0.061035156,3392.0,2830.0,2860.0,90.85693,78.376465,129.8529
1770512483766,-0.98095703,0.2006836,-0.008300781,0.79345703,-3.1738281,-0.061035156,0.0,0.0,0.0,90.85693,78.376465,129.8529
1770512483843,-0.99121094,0.19433594,0.001953125,0.91552734,1.2817383,1.0375977,3371.0,2839.0,2831.0,90.85693,78.376465,129.8529
1770512483855,-0.99121094,0.19433594,0.001953125,0.91552734,1.2817383,1.0375977,3371.0,2839.0,2831.0,90.33508,78.28308,129.23767
1770512483866,-0.99121094,0.19433594,0.001953125,0.91552734,1.2817383,1.0375977,0.0,0.0,0.0,90.33508,78.28308,129.23767
1770512483943,-0.98779297,0.21533203,-0.0087890625,-2.319336,-0.18310547,1.4038086,3413.0,2808.0,2779.0,90.33508,78.28308,129.23767
1770512483954,-0.98779297,0.21533203,-0.0087890625,-2.319336,-0.18310547,1.4038086,3413.0,2808.0,2779.0,90.41199,78.11279,129.55078
1770512483966,-0.98779297,0.21533203,-0.0087890625,-2.319336,-0.18310547,1.4038086,0.0,0.0,0.0,90.41199,78.11279,129.55078
1770512484043,-0.9824219,0.18847656,0.0107421875,-0.12207031,1.953125,1.159668,3414.0,2809.0,2792.0,90.41199,78.11279,129.55078
1770512484054,-0.9824219,0.18847656,0.0107421875,-0.12207031,1.953125,1.159668,3414.0,2809.0,2792.0,90.703125,77.98096,129.84741
1770512484065,-0.9824219,0.18847656,0.0107421875,-0.12207031,1.953125,1.159668,0.0,0.0,0.0,90.703125,77.98096,129.84741
1770512484142,-0.98046875,0.22509766,-0.01171875,-1.8310547,0.12207031,-0.30517578,3419.0,2807.0,2792.0,90.703125,77.98096,129.84741
1770512484154,-0.98046875,0.22509766,-0.01171875,-1.8310547,0.12207031,-0.30517578,3419.0,2807.0,2792.0,91.14807,77.89856,130.61646
1770512484169,-0.98046875,0.22509766,-0.01171875,-1.8310547,0.12207031,-0.30517578,0.0,0.0,0.0,91.14807,77.89856,130.61646
1770512484242,-0.9785156,0.203125,0.0014648438,2.5634766,1.2207031,-0.9765625,3438.0,2807.0,2877.0,91.14807,77.89856,130.61646
1770512484254,-0.9785156,0.203125,0.0014648438,2.5634766,1.2207031,-0.9765625,3438.0,2807.0,2877.0,91.62048,78.00842,130.88013
1770512484265,-0.9785156,0.203125,0.0014648438,2.5634766,1.2207031,-0.9765625,0.0,0.0,0.0,91.62048,78.00842,130.88013
1770512484342,-0.9790039,0.22460938,-0.009765625,6.225586,-1.6479492,-1.6479492,3444.0,2803.0,2909.0,91.62048,78.00842,130.88013
1770512484353,-0.9790039,0.22460938,-0.009765625,6.225586,-1.6479492,-1.6479492,3444.0,2803.0,2909.0,91.38428,77.93701,130.7428
1770512484374,-0.9790039,0.22460938,-0.009765625,6.225586,-1.6479492,-1.6479492,0.0,0.0,0.0,91.38428,77.93701,130.7428
1770512484441,-0.98291016,0.20751953,-0.0029296875,1.0986328,-5.859375,1.0375977,3409.0,2806.0,2819.0,91.38428,77.93701,130.7428
1770512484453,-0.98291016,0.20751953,-0.0029296875,1.0986328,-5.859375,1.0375977,3409.0,2806.0,2819.0,89.82971,77.95349,128.57849
1770512484467,-0.98291016,0.20751953,-0.0029296875,1.0986328,-5.859375,1.0375977,0.0,0.0,0.0,89.82971,77.95349,128.57849
1770512484541,-0.97753906,0.20800781,0.001953125,4.272461,-1.953125,0.24414062,3422.0,2810.0,2821.0,89.82971,77.95349,128.57849
1770512484553,-0.97753906,0.20800781,0.001953125,4.272461,-1.953125,0.24414062,3422.0,2810.0,2821.0,88.97827,77.942505,127.11731
1770512484568,-0.97753906,0.20800781,0.001953125,4.272461,-1.953125,0.24414062,0.0,0.0,0.0,88.97827,77.942505,127.11731
1770512484641,-0.9824219,0.2109375,-0.0024414062,0.4272461,0.91552734,1.6479492,3407.0,2791.0,2756.0,88.97827,77.942505,127.11731
1770512484652,-0.9824219,0.2109375,-0.0024414062,0.4272461,0.91552734,1.6479492,3407.0,2791.0,2756.0,89.368286,77.82715,127.26013
1770512484670,-0.9824219,0.2109375,-0.0024414062,0.4272461,0.91552734,1.6479492,0.0,0.0,0.0,89.368286,77.82715,127.26013
1770512484741,-0.9760742,0.2163086,-0.0073242188,1.159668,0.6713867,0.91552734,3409.0,2787.0,2788.0,89.368286,77.82715,127.26013
1770512484752,-0.9760742,0.2163086,-0.0073242188,1.159668,0.6713867,0.91552734,3409.0,2787.0,2788.0,90.14282,77.60193,128.18848
1770512484767,-0.9760742,0.2163086,-0.0073242188,1.159668,0.6713867,0.91552734,0.0,0.0,0.0,90.14282,77.60193,128.18848
1770512484840,-0.9790039,0.22607422,-0.0068359375,3.2348633,-1.4038086,-1.0986328,3411.0,2770.0,2790.0,90.14282,77.60193,128.18848
1770512484852,-0.9790039,0.22607422,-0.0068359375,3.2348633,-1.4038086,-1.0986328,3411.0,2770.0,2790.0,89.92859,77.56348,127.85889
1770512484868,-0.9790039,0.22607422,-0.0068359375,3.2348633,-1.4038086,-1.0986328,0.0,0.0,0.0,89.92859,77.56348,127.85889
1770512484940,-0.97558594,0.21972656,-9.765625E-4,2.4414062,-1.4648438,-0.79345703,3427.0,2768.0,2775.0,89.92859,77.56348,127.85889
1770512484952,-0.97558594,0.21972656,-9.765625E-4,2.4414062,-1.4648438,-0.79345703,3427.0,2768.0,2775.0,89.96155,77.66235,127.5293
1770512484963,-0.97558594,0.21972656,-9.765625E-4,2.4414062,-1.4648438,-0.79345703,0.0,0.0,0.0,89.96155,77.66235,127.5293
1770512485040,-0.97265625,0.20947266,0.011230469,4.638672,1.5258789,-1.159668,3410.0,2754.0,2757.0,89.96155,77.66235,127.5293
1770512485051,-0.97265625,0.20947266,0.011230469,4.638672,1.5258789,-1.159668,3410.0,2754.0,2757.0,90.09888,77.67334,127.48535
1770512485063,-0.97265625,0.20947266,0.011230469,4.638672,1.5258789,-1.159668,0.0,0.0,0.0,90.09888,77.67334,127.48535
1770512485140,-0.96728516,0.20947266,-0.001953125,4.9438477,1.6479492,-1.5869141,3422.0,2755.0,2702.0,90.09888,77.67334,127.48535
1770512485151,-0.96728516,0.20947266,-0.001953125,4.9438477,1.6479492,-1.5869141,3422.0,2755.0,2702.0,90.53833,77.72278,127.77649
1770512485162,-0.96728516,0.20947266,-0.001953125,4.9438477,1.6479492,-1.5869141,0.0,0.0,0.0,90.53833,77.72278,127.77649
1770512485239,-0.99072266,0.21191406,-0.019042969,-3.112793,1.5869141,0.12207031,3409.0,2760.0,2745.0,90.53833,77.72278,127.77649
1770512485251,-0.99072266,0.21191406,-0.019042969,-3.112793,1.5869141,0.12207031,3409.0,2760.0,2745.0,91.642456,77.81616,128.77075
1770512485262,-0.99072266,0.21191406,-0.019042969,-3.112793,1.5869141,0.12207031,0.0,0.0,0.0,91.642456,77.81616,128.77075
1770512485339,-0.9819336,0.2133789,-0.013183594,1.2207031,0.8544922,-1.7700195,3413.0,2754.0,2750.0,91.642456,77.81616,128.77075
1770512485350,-0.9819336,0.2133789,-0.013183594,1.2207031,0.8544922,-1.7700195,3413.0,2754.0,2750.0,92.48291,77.89307,129.71008
1770512485362,-0.9819336,0.2133789,-0.013183594,1.2207031,0.8544922,-1.7700195,0.0,0.0,0.0,92.48291,77.89307,129.71008
1770512485439,-0.9814453,0.20263672,-0.00390625,-1.953125,0.8544922,-1.159668,3408.0,2766.0,2763.0,92.48291,77.89307,129.71008
1770512485450,-0.9814453,0.20263672,-0.00390625,-1.953125,0.8544922,-1.159668,3408.0,2766.0,2763.0,92.96631,78.04138,130.2539
1770512485462,-0.9814453,0.20263672,-0.00390625,-1.953125,0.8544922,-1.159668,0.0,0.0,0.0,92.96631,78.04138,130.2539
1770512485538,-0.98583984,0.20996094,-0.001953125,-4.211426,1.159668,-0.5493164,3403.0,2770.0,2825.0,92.96631,78.04138,130.2539
1770512485550,-0.98583984,0.20996094,-0.001953125,-4.211426,1.159668,-0.5493164,3403.0,2770.0,2825.0,93.14209,78.063354,130.92407
1770512485561,-0.98583984,0.20996094,-0.001953125,-4.211426,1.159668,-0.5493164,0.0,0.0,0.0,93.14209,78.063354,130.92407
1770512485638,-0.9785156,0.20898438,-0.01953125,-1.8920898,-1.5869141,-1.8310547,3415.0,2767.0,2794.0,93.14209,78.063354,130.92407
1770512485650,-0.9785156,0.20898438,-0.01953125,-1.8920898,-1.5869141,-1.8310547,3415.0,2767.0,2794.0,92.318115,78.20068,130.44067
1770512485661,-0.9785156,0.20898438,-0.01953125,-1.8920898,-1.5869141,-1.8310547,0.0,0.0,0.0,92.318115,78.20068,130.44067
1770512485738,-0.98291016,0.20410156,-0.005859375,-1.5258789,-0.36621094,-0.8544922,3420.0,2785.0,2809.0,92.318115,78.20068,130.44067
1770512485749,-0.98291016,0.20410156,-0.005859375,-1.5258789,-0.36621094,-0.8544922,3420.0,2785.0,2809.0,92.109375,78.37097,130.23193
1770512485761,-0.98291016,0.20410156,-0.005859375,-1.5258789,-0.36621094,-0.8544922,0.0,0.0,0.0,92.109375,78.37097,130.23193
1770512485838,-0.9790039,0.20507812,-0.0107421875,0.61035156,-0.24414062,-0.9765625,3409.0,2808.0,2800.0,92.109375,78.37097,130.23193
1770512485849,-0.9790039,0.20507812,-0.0107421875,0.61035156,-0.24414062,-0.9765625,3409.0,2808.0,2800.0,91.91162,78.42041,130.11108
1770512485860,-0.9790039,0.20507812,-0.0107421875,0.61035156,-0.24414062,-0.9765625,0.0,0.0,0.0,91.91162,78.42041,130.11108
1770512485938,-0.9814453,0.19628906,-0.01171875,5.1879883,-0.061035156,-2.0141602,3413.0,2805.0,2783.0,91.91162,78.42041,130.11108
1770512485949,-0.9814453,0.19628906,-0.01171875,5.1879883,-0.061035156,-2.0141602,3413.0,2805.0,2783.0,91.90613,78.51929,129.88586
1770512485960,-0.9814453,0.19628906,-0.01171875,5.1879883,-0.061035156,-2.0141602,0.0,0.0,0.0,91.90613,78.51929,129.88586
1770512486037,-0.9790039,0.19726562,-0.0078125,2.0751953,-0.4272461,-0.7324219,3386.0,2803.0,2801.0,91.90613,78.51929,129.88586
1770512486048,-0.9790039,0.19726562,-0.0078125,2.0751953,-0.4272461,-0.7324219,3386.0,2803.0,2801.0,92.005005,78.57422,129.80896
1770512486060,-0.9790039,0.19726562,-0.0078125,2.0751953,-0.4272461,-0.7324219,0.0,0.0,0.0,92.005005,78.57422,129.80896
1770512486137,-0.98535156,0.1953125,-0.01171875,1.159668,-1.7089844,-0.24414062,3397.0,2808.0,2743.0,92.005005,78.57422,129.80896
1770512486148,-0.98535156,0.1953125,-0.01171875,1.159668,-1.7089844,-0.24414062,3397.0,2808.0,2743.0,91.80725,78.62915,129.38599
1770512486160,-0.98535156,0.1953125,-0.01171875,1.159668,-1.7089844,-0.24414062,0.0,0.0,0.0,91.80725,78.62915,129.38599
1770512486237,-0.98339844,0.1953125,-0.0014648438,1.5258789,0.061035156,0.0,3393.0,2808.0,2734.0,91.80725,78.62915,129.38599
1770512486248,-0.98339844,0.1953125,-0.0014648438,1.5258789,0.061035156,0.0,3393.0,2808.0,2734.0,91.90613,78.62915,129.32007
1770512486259,-0.98339844,0.1953125,-0.0014648438,1.5258789,0.061035156,0.0,0.0,0.0,0.0,91.90613,78.62915,129.32007
1770512486336,-0.98339844,0.19873047,-0.0024414062,-0.79345703,0.79345703,1.2817383,3386.0,2814.0,2703.0,91.90613,78.62915,129.32007
1770512486348,-0.98339844,0.19873047,-0.0024414062,-0.79345703,0.79345703,1.2817383,3386.0,2814.0,2703.0,91.99951,78.54126,129.46838
1770512486361,-0.98339844,0.19873047,-0.0024414062,-0.79345703,0.79345703,1.2817383,0.0,0.0,0.0,91.99951,78.54126,129.46838
1770512486436,-0.9814453,0.20654297,-0.0063476562,-3.0517578,0.36621094,2.1362305,3390.0,2800.0,2717.0,91.99951,78.54126,129.46838
1770512486447,-0.9814453,0.20654297,-0.0063476562,-3.0517578,0.36621094,2.1362305,3390.0,2800.0,2717.0,91.884155,78.33801,129.64966
1770512486469,-0.9814453,0.20654297,-0.0063476562,-3.0517578,0.36621094,2.1362305,0.0,0.0,0.0,91.884155,78.33801,129.64966
1770512486536,-0.9794922,0.20654297,-0.0053710938,-0.36621094,-0.61035156,1.2817383,3399.0,2798.0,2752.0,91.884155,78.33801,129.64966
1770512486547,-0.9794922,0.20654297,-0.0053710938,-0.36621094,-0.61035156,1.2817383,3399.0,2798.0,2752.0,91.63696,78.167725,129.58374
1770512486562,-0.9794922,0.20654297,-0.0053710938,-0.36621094,-0.61035156,1.2817383,0.0,0.0,0.0,91.63696,78.167725,129.58374
1770512486635,-0.97998047,0.20507812,-0.0024414062,-0.12207031,-1.2207031,1.5869141,3417.0,2773.0,2784.0,91.63696,78.167725,129.58374
1770512486647,-0.97998047,0.20507812,-0.0024414062,-0.12207031,-1.2207031,1.5869141,3417.0,2773.0,2784.0,90.92285,78.00842,128.96301
1770512486664,-0.97998047,0.20507812,-0.0024414062,-0.12207031,-1.2207031,1.5869141,0.0,0.0,0.0,90.92285,78.00842,128.96301
1770512486735,-0.98095703,0.20898438,-0.008300781,-1.0375977,0.18310547,1.5258789,3418.0,2776.0,2747.0,90.92285,78.00842,128.96301
1770512486747,-0.98095703,0.20898438,-0.008300781,-1.0375977,0.18310547,1.5258789,3418.0,2776.0,2747.0,90.3241,77.805176,128.52905
1770512486760,-0.98095703,0.20898438,-0.008300781,-1.0375977,0.18310547,1.5258789,0.0,0.0,0.0,90.3241,77.805176,128.52905
1770512486835,-0.98291016,0.21728516,-0.013671875,1.2817383,-1.159668,-0.48828125,3425.0,2772.0,2772.0,90.3241,77.805176,128.52905
1770512486847,-0.98291016,0.21728516,-0.013671875,1.2817383,-1.159668,-0.48828125,3425.0,2772.0,2772.0,90.65369,77.7832,128.8092
1770512486858,-0.98291016,0.21728516,-0.013671875,1.2817383,-1.159668,-0.48828125,0.0,0.0,0.0,90.65369,77.7832,128.8092
1770512486935,-0.97998047,0.21435547,-0.005859375,4.272461,0.91552734,-1.5258789,3420.0,2756.0,2780.0,90.65369,77.7832,128.8092
1770512486946,-0.97998047,0.21435547,-0.005859375,4.272461,0.91552734,-1.5258789,3420.0,2756.0,2780.0,91.31287,77.90405,129.10583
1770512486958,-0.97998047,0.21435547,-0.005859375,4.272461,0.91552734,-1.5258789,0.0,0.0,0.0,91.31287,77.90405,129.10583
1770512487034,-0.9824219,0.21142578,-0.0063476562,-2.8076172,-2.6855469,0.30517578,3423.0,2764.0,2744.0,91.31287,77.90405,129.10583
1770512487046,-0.9824219,0.21142578,-0.0063476562,-2.8076172,-2.6855469,0.30517578,3423.0,2764.0,2744.0,91.170044,77.93701,128.86963
1770512487058,-0.9824219,0.21142578,-0.0063476562,-2.8076172,-2.6855469,0.30517578,0.0,0.0,0.0,91.170044,77.93701,128.86963
1770512487134,-0.9399414,0.19580078,0.014160156,-12.512207,-4.9438477,2.8076172,3408.0,2760.0,2718.0,91.170044,77.93701,128.86963
1770512487146,-0.9399414,0.19580078,0.014160156,-12.512207,-4.9438477,2.8076172,3408.0,2760.0,2718.0,87.48413,77.66235,125.996704
1770512487157,-0.9399414,0.19580078,0.014160156,-12.512207,-4.9438477,2.8076172,0.0,0.0,0.0,87.48413,77.66235,125.996704
1770512487234,-0.9746094,0.22753906,9.765625E-4,1.5869141,-1.4648438,-2.380371,3427.0,2779.0,2738.0,87.48413,77.66235,125.996704
1770512487245,-0.9746094,0.22753906,9.765625E-4,1.5869141,-1.4648438,-2.380371,3427.0,2779.0,2738.0,86.42944,77.76672,124.953
1770512487257,-0.9746094,0.22753906,9.765625E-4,1.5869141,-1.4648438,-2.380371,0.0,0.0,0.0,86.42944,77.76672,124.953
1770512487334,-0.9707031,0.21191406,0.019042969,4.638672,0.7324219,-1.6479492,3394.0,2784.0,2698.0,86.42944,77.76672,124.953
1770512487345,-0.9707031,0.21191406,0.019042969,4.638672,0.7324219,-1.6479492,3394.0,2784.0,2698.0,85.77026,77.84912,124.17847
1770512487356,-0.9707031,0.21191406,0.019042969,4.638672,0.7324219,-1.6479492,0.0,0.0,0.0,85.77026,77.84912,124.17847
1770512487433,-0.9746094,0.21240234,0.0068359375,-1.7089844,-0.79345703,0.5493164,3392.0,2779.0,2689.0,85.77026,77.84912,124.17847
1770512487445,-0.9746094,0.21240234,0.0068359375,-1.7089844,-0.79345703,0.5493164,3392.0,2779.0,2689.0,85.495605,77.87109,123.77197
1770512487456,-0.9746094,0.21240234,0.0068359375,-1.7089844,-0.79345703,0.5493164,0.0,0.0,0.0,85.495605,77.87109,123.77197
1770512487533,-0.9794922,0.20263672,0.017089844,3.4179688,0.18310547,-0.7324219,3361.0,2798.0,2667.0,85.495605,77.87109,123.77197
1770512487545,-0.9794922,0.20263672,0.017089844,3.4179688,0.18310547,-0.7324219,3361.0,2798.0,2667.0,85.440674,77.84912,123.601685
1770512487557,-0.9794922,0.20263672,0.017089844,3.4179688,0.18310547,-0.7324219,0.0,0.0,0.0,85.440674,77.84912,123.601685
1770512487633,-0.9741211,0.20996094,0.015136719,1.6479492,1.8920898,0.30517578,3350.0,2795.0,2675.0,85.440674,77.84912,123.601685
1770512487644,-0.9741211,0.20996094,0.015136719,1.6479492,1.8920898,0.30517578,3350.0,2795.0,2675.0,85.632935,77.77222,123.84888
1770512487656,-0.9741211,0.20996094,0.015136719,1.6479492,1.8920898,0.30517578,0.0,0.0,0.0,85.632935,77.77222,123.84888
1770512487732,-0.97509766,0.2084961,0.013183594,0.4272461,0.36621094,0.18310547,3358.0,2803.0,2691.0,85.632935,77.77222,123.84888
1770512487744,-0.97509766,0.2084961,0.013183594,0.4272461,0.36621094,0.18310547,3358.0,2803.0,2691.0,86.484375,77.76123,124.57947
1770512487755,-0.97509766,0.2084961,0.013183594,0.4272461,0.36621094,0.18310547,0.0,0.0,0.0,86.484375,77.76123,124.57947
1770512487832,-0.98583984,0.20996094,0.018554688,0.9765625,2.2583008,0.12207031,3379.0,2781.0,2657.0,86.484375,77.76123,124.57947
1770512487844,-0.98583984,0.20996094,0.018554688,0.9765625,2.2583008,0.12207031,3379.0,2781.0,2657.0,87.32483,77.76123,125.29907
1770512487855,-0.98583984,0.20996094,0.018554688,0.9765625,2.2583008,0.12207031,0.0,0.0,0.0,87.32483,77.76123,125.29907
1770512487932,-0.98291016,0.21142578,0.0063476562,-0.36621094,-0.61035156,-0.18310547,3405.0,2775.0,2678.0,87.32483,77.76123,125.29907
1770512487944,-0.98291016,0.21142578,0.0063476562,-0.36621094,-0.61035156,-0.18310547,3405.0,2775.0,2678.0,87.44568,77.72278,125.5188
1770512487957,-0.98291016,0.21142578,0.0063476562,-0.36621094,-0.61035156,-0.18310547,0.0,0.0,0.0,87.44568,77.72278,125.5188
1770512488032,-0.9824219,0.21240234,0.015625,-0.36621094,-1.4038086,0.061035156,3407.0,2780.0,2681.0,87.44568,77.72278,125.5188
1770512488043,-0.9824219,0.21240234,0.015625,-0.36621094,-1.4038086,0.061035156,3407.0,2780.0,2681.0,86.92383,77.733765,124.958496
1770512488057,-0.9824219,0.21240234,0.015625,-0.36621094,-1.4038086,0.061035156,0.0,0.0,0.0,86.92383,77.733765,124.958496
1770512488131,-0.9824219,0.21289062,0.015136719,0.0,-0.4272461,-0.4272461,3403.0,2776.0,2678.0,86.92383,77.733765,124.958496
1770512488143,-0.9824219,0.21289062,0.015136719,0.0,-0.4272461,-0.4272461,3403.0,2776.0,2678.0,86.61621,77.72278,124.68933
1770512488154,-0.9824219,0.21289062,0.015136719,0.0,-0.4272461,-0.4272461,0.0,0.0,0.0,86.61621,77.72278,124.68933
1770512488231,-0.9819336,0.21191406,0.009277344,2.6855469,0.61035156,-1.0375977,3411.0,2773.0,2675.0,86.61621,77.72278,124.68933
1770512488243,-0.9819336,0.21191406,0.009277344,2.6855469,0.61035156,-1.0375977,3411.0,2773.0,2675.0,86.6272,77.77771,124.66736
1770512488255,-0.9819336,0.21191406,0.009277344,2.6855469,0.61035156,-1.0375977,0.0,0.0,0.0,86.6272,77.77771,124.66736
1770512488331,-0.9814453,0.2133789,0.009277344,4.333496,0.5493164,-2.1972656,3393.0,2779.0,2714.0,86.6272,77.77771,124.66736
1770512488342,-0.9814453,0.2133789,0.009277344,4.333496,0.5493164,-2.1972656,3393.0,2779.0,2714.0,87.0282,77.87109,124.84863
1770512488361,-0.9814453,0.2133789,0.009277344,4.333496,0.5493164,-2.1972656,0.0,0.0,0.0,87.0282,77.87109,124.84863
1770512488431,-0.98046875,0.21044922,0.015625,3.2958984,-0.18310547,-1.5258789,3398.0,2785.0,2723.0,87.0282,77.87109,124.84863
1770512488443,-0.98046875,0.21044922,0.015625,3.2958984,-0.18310547,-1.5258789,3398.0,2785.0,2723.0,87.30835,77.95349,124.98047
1770512488454,-0.98046875,0.21044922,0.015625,3.2958984,-0.18310547,-1.5258789,0.0,0.0,0.0,87.30835,77.95349,124.98047
1770512488530,-0.9794922,0.20410156,0.016601562,0.24414062,-0.79345703,-0.4272461,3397.0,2776.0,2687.0,87.30835,77.95349,124.98047
1770512488542,-0.9794922,0.20410156,0.016601562,0.24414062,-0.79345703,-0.4272461,3397.0,2776.0,2687.0,87.25891,78.05237,124.77722
1770512488557,-0.9794922,0.20410156,0.016601562,0.24414062,-0.79345703,-0.4272461,0.0,0.0,0.0,87.25891,78.05237,124.77722
1770512488630,-0.97998047,0.20703125,0.013183594,-0.061035156,0.79345703,-0.12207031,3392.0,2773.0,2641.0,87.25891,78.05237,124.77722
1770512488642,-0.97998047,0.20703125,0.013183594,-0.061035156,0.79345703,-0.12207031,3392.0,2773.0,2641.0,87.39624,78.079834,124.90906
1770512488654,-0.97998047,0.20703125,0.013183594,-0.061035156,0.79345703,-0.12207031,0.0,0.0,0.0,87.39624,78.079834,124.90906
1770512488730,-0.98291016,0.20361328,0.011230469,0.79345703,2.2583008,0.4272461,3385.0,2772.0,2669.0,87.39624,78.079834,124.90906
1770512488741,-0.98291016,0.20361328,0.011230469,0.79345703,2.2583008,0.4272461,3385.0,2772.0,2669.0,88.05542,78.03589,125.63965
1770512488753,-0.98291016,0.20361328,0.011230469,0.79345703,2.2583008,0.4272461,0.0,0.0,0.0,88.05542,78.03589,125.63965
1770512488829,-0.984375,0.20507812,0.0068359375,0.0,1.2817383,0.79345703,3378.0,2791.0,2669.0,88.05542,78.03589,125.63965
1770512488841,-0.984375,0.20507812,0.0068359375,0.0,1.2817383,0.79345703,3378.0,2791.0,2669.0,88.742065,77.948,126.4032
1770512488852,-0.984375,0.20507812,0.0068359375,0.0,1.2817383,0.79345703,0.0,0.0,0.0,88.742065,77.948,126.4032
1770512488929,-0.9838867,0.20361328,-9.765625E-4,-0.8544922,2.5634766,0.18310547,3400.0,2790.0,2686.0,88.742065,77.948,126.4032
1770512488941,-0.9838867,0.20361328,-9.765625E-4,-0.8544922,2.5634766,0.18310547,3400.0,2790.0,2686.0,89.599,77.89856,127.34253
1770512488952,-0.9838867,0.20361328,-9.765625E-4,-0.8544922,2.5634766,0.18310547,0.0,0.0,0.0,89.599,77.89856,127.34253
1770512489029,-0.9736328,0.2133789,-0.0087890625,0.24414062,0.9765625,-0.8544922,3378.0,2789.0,2711.0,89.599,77.89856,127.34253
1770512489041,-0.9736328,0.2133789,-0.0087890625,0.24414062,0.9765625,-0.8544922,3378.0,2789.0,2711.0,90.05493,77.91504,127.97424
1770512489052,-0.9736328,0.2133789,-0.0087890625,0.24414062,0.9765625,-0.8544922,0.0,0.0,0.0,90.05493,77.91504,127.97424
1770512489129,-0.9785156,0.20751953,-0.0043945312,3.0517578,-1.0375977,-1.7700195,3388.0,2787.0,2728.0,90.05493,77.91504,127.97424
1770512489140,-0.9785156,0.20751953,-0.0043945312,3.0517578,-1.0375977,-1.7700195,3388.0,2787.0,2728.0,89.97803,78.030396,127.78198
1770512489152,-0.9785156,0.20751953,-0.0043945312,3.0517578,-1.0375977,-1.7700195,0.0,0.0,0.0,89.97803,78.030396,127.78198
1770512489228,-0.9848633,0.20800781,-0.0087890625,1.0986328,1.5258789,-0.48828125,3412.0,2775.0,2771.0,89.97803,78.030396,127.78198
1770512489240,-0.9848633,0.20800781,-0.0087890625,1.0986328,1.5258789,-0.48828125,3412.0,2775.0,2771.0,90.10986,78.079834,127.8479
1770512489252,-0.9848633,0.20800781,-0.0087890625,1.0986328,1.5258789,-0.48828125,0.0,0.0,0.0,90.10986,78.079834,127.8479
1770512489328,-0.97998047,0.20751953,-0.0073242188,-0.5493164,0.6713867,0.061035156,3414.0,2768.0,2718.0,90.10986,78.079834,127.8479
1770512489340,-0.97998047,0.20751953,-0.0073242188,-0.5493164,0.6713867,0.061035156,3414.0,2768.0,2718.0,91.03821,78.11279,128.68286
1770512489354,-0.97998047,0.20751953,-0.0073242188,-0.5493164,0.6713867,0.061035156,0.0,0.0,0.0,91.03821,78.11279,128.68286
1770512489428,-0.98339844,0.20800781,-0.0043945312,-1.0375977,0.7324219,0.061035156,3405.0,2784.0,2718.0,91.03821,78.11279,128.68286
1770512489439,-0.98339844,0.20800781,-0.0043945312,-1.0375977,0.7324219,0.061035156,3405.0,2784.0,2718.0,91.30737,78.09082,129.03442
1770512489451,-0.98339844,0.20800781,-0.0043945312,-1.0375977,0.7324219,0.061035156,0.0,0.0,0.0,91.30737,78.09082,129.03442
1770512489528,-0.9785156,0.20898438,-0.0048828125,-0.4272461,1.159668,0.4272461,3404.0,2797.0,2728.0,91.30737,78.09082,129.03442
1770512489539,-0.9785156,0.20898438,-0.0048828125,-0.4272461,1.159668,0.4272461,3404.0,2797.0,2728.0,91.70288,78.030396,129.55627
1770512489551,-0.9785156,0.20898438,-0.0048828125,-0.4272461,1.159668,0.4272461,0.0,0.0,0.0,91.70288,78.030396,129.55627
1770512489627,-0.97753906,0.20898438,-0.0068359375,-0.36621094,0.48828125,0.30517578,3398.0,2798.0,2756.0,91.70288,78.030396,129.55627
1770512489639,-0.97753906,0.20898438,-0.0068359375,-0.36621094,0.48828125,0.30517578,3398.0,2798.0,2756.0,92.12036,77.96997,130.04517
1770512489650,-0.97753906,0.20898438,-0.0068359375,-0.36621094,0.48828125,0.30517578,0.0,0.0,0.0,92.12036,77.96997,130.04517
1770512489727,-0.97314453,0.20996094,-0.01171875,0.6713867,1.3427734,-0.061035156,3408.0,2793.0,2774.0,92.12036,77.96997,130.04517
1770512489738,-0.97314453,0.20996094,-0.01171875,0.6713867,1.3427734,-0.061035156,3408.0,2793.0,2774.0,92.735596,77.942505,130.67139
1770512489750,-0.97314453,0.20996094,-0.01171875,0.6713867,1.3427734,-0.061035156,0.0,0.0,0.0,92.735596,77.942505,130.67139
1770512489827,-0.98583984,0.21142578,-0.009765625,0.4272461,1.0986328,-0.8544922,3415.0,2784.0,2804.0,92.735596,77.942505,130.67139
1770512489838,-0.98583984,0.21142578,-0.009765625,0.4272461,1.0986328,-0.8544922,3415.0,2784.0,2804.0,93.00476,77.96448,130.91858
1770512489850,-0.98583984,0.21142578,-0.009765625,0.4272461,1.0986328,-0.8544922,0.0,0.0,0.0,93.00476,77.96448,130.91858
1770512489926,-0.9604492,0.18652344,-0.0034179688,6.7749023,5.6152344,-1.4038086,3416.0,2799.0,2781.0,93.00476,77.96448,130.91858
1770512489938,-0.9604492,0.18652344,-0.0034179688,6.7749023,5.6152344,-1.4038086,3416.0,2799.0,2781.0,95.01526,78.04138,132.594
1770512489949,-0.9604492,0.18652344,-0.0034179688,6.7749023,5.6152344,-1.4038086,0.0,0.0,0.0,95.01526,78.04138,132.594
1770512490026,-0.9921875,0.21289062,-0.04736328,-1.5869141,-4.8217773,0.061035156,3421.0,2791.0,2788.0,95.01526,78.04138,132.594
1770512490038,-0.9921875,0.21289062,-0.04736328,-1.5869141,-4.8217773,0.061035156,3421.0,2791.0,2788.0,95.41626,78.14026,132.76428
1770512490049,-0.9921875,0.21289062,-0.04736328,-1.5869141,-4.8217773,0.061035156,0.0,0.0,0.0,95.41626,78.14026,132.76428
1770512490126,-0.9863281,0.20654297,-0.022460938,3.6010742,-4.5166016,-0.24414062,3416.0,2791.0,2823.0,95.41626,78.14026,132.76428
1770512490137,-0.9863281,0.20654297,-0.022460938,3.6010742,-4.5166016,-0.24414062,3416.0,2791.0,2823.0,93.47168,78.12927,130.6659
1770512490149,-0.9863281,0.20654297,-0.022460938,3.6010742,-4.5166016,-0.24414062,0.0,0.0,0.0,93.47168,78.12927,130.6659
1770512490226,-0.9848633,0.19970703,0.0034179688,0.9765625,-1.5869141,0.48828125,3396.0,2798.0,2742.0,93.47168,78.12927,130.6659
1770512490237,-0.9848633,0.19970703,0.0034179688,0.9765625,-1.5869141,0.48828125,3396.0,2798.0,2742.0,92.24121,78.09082,129.2926
1770512490249,-0.9848633,0.19970703,0.0034179688,0.9765625,-1.5869141,0.48828125,0.0,0.0,0.0,92.24121,78.09082,129.2926
1770512490325,-0.98095703,0.2084961,-0.0087890625,0.12207031,-1.8920898,0.91552734,3407.0,2790.0,2747.0,92.24121,78.09082,129.2926
1770512490337,-0.98095703,0.2084961,-0.0087890625,0.12207031,-1.8920898,0.91552734,3407.0,2790.0,2747.0,91.42273,78.00293,128.4906
1770512490348,-0.98095703,0.2084961,-0.0087890625,0.12207031,-1.8920898,0.91552734,0.0,0.0,0.0,91.42273,78.00293,128.4906
1770512490425,-0.98583984,0.20996094,-0.0029296875,1.0986328,-5.554199,0.12207031,3402.0,2788.0,2731.0,91.42273,78.00293,128.4906
1770512490437,-0.98583984,0.20996094,-0.0029296875,1.0986328,-5.554199,0.12207031,3402.0,2788.0,2731.0,90.00549,77.96448,126.936035
1770512490450,-0.98583984,0.20996094,-0.0029296875,1.0986328,-5.554199,0.12207031,0.0,0.0,0.0,90.00549,77.96448,126.936035
1770512490525,-0.9770508,0.20117188,0.02734375,0.79345703,-3.7841797,-0.12207031,3405.0,2792.0,2649.0,90.00549,77.96448,126.936035
1770512490536,-0.9770508,0.20117188,0.02734375,0.79345703,-3.7841797,-0.12207031,3405.0,2792.0,2649.0,87.698364,77.90405,124.645386
1770512490549,-0.9770508,0.20117188,0.02734375,0.79345703,-3.7841797,-0.12207031,0.0,0.0,0.0,87.698364,77.90405,124.645386
1770512490625,-0.9873047,0.20898438,0.024414062,-5.004883,-4.1503906,0.79345703,3389.0,2771.0,2667.0,87.698364,77.90405,124.645386
1770512490636,-0.9873047,0.20898438,0.024414062,-5.004883,-4.1503906,0.79345703,3389.0,2771.0,2667.0,85.61096,77.84912,122.68982
1770512490647,-0.9873047,0.20898438,0.024414062,-5.004883,-4.1503906,0.79345703,0.0,0.0,0.0,85.61096,77.84912,122.68982
1770512490724,-0.9765625,0.20605469,0.038085938,-7.1411133,-5.9814453,1.5258789,3374.0,2783.0,2606.0,85.61096,77.84912,122.68982
1770512490736,-0.9765625,0.20605469,0.038085938,-7.1411133,-5.9814453,1.5258789,3374.0,2783.0,2606.0,82.40845,77.67334,119.937744
