timestamp,accX,accY,accZ,gyroX,gyroY,gyroZ,magX,magY,magZ,roll,pitch,yaw
1766813477466,-0.93847656,-0.27392578,-0.21728516,2.9296875,-1.159668,0.24414062,0.0,0.0,0.0,-127.37549,69.35669,-95.24048
1766813477478,-0.93847656,-0.27392578,-0.21728516,2.9296875,-1.159668,0.24414062,0.0,0.0,0.0,-127.056885,69.400635,-95.15259
1766813477566,-0.93408203,-0.26757812,-0.20947266,5.554199,1.2207031,-0.18310547,0.0,0.0,0.0,-127.056885,69.400635,-95.15259
1766813477578,-0.93408203,-0.26757812,-0.20947266,5.554199,1.2207031,-0.18310547,0.0,0.0,0.0,-126.6449,69.5105,-94.84497
1766813477666,-0.94091797,-0.27197266,-0.20996094,4.699707,2.0141602,0.4272461,0.0,0.0,0.0,-126.6449,69.5105,-94.84497
1766813477680,-0.94091797,-0.27197266,-0.20996094,4.699707,2.0141602,0.4272461,0.0,0.0,0.0,-126.44714,69.63135,-94.850464
1766813477766,-0.93652344,-0.26611328,-0.21044922,1.8920898,2.4414062,0.91552734,0.0,0.0,0.0,-126.44714,69.63135,-94.850464
1766813477778,-0.93652344,-0.26611328,-0.21044922,1.8920898,2.4414062,0.91552734,0.0,0.0,0.0,-126.5625,69.69177,-95.07568
1766813477865,-0.9423828,-0.2705078,-0.20947266,1.0986328,-0.24414062,0.91552734,0.0,0.0,0.0,-126.5625,69.69177,-95.07568
1766813477877,-0.9423828,-0.2705078,-0.20947266,1.0986328,-0.24414062,0.91552734,0.0,0.0,0.0,-126.56799,69.80713,-95.130615
1766813477966,-0.9433594,-0.265625,-0.2006836,-0.79345703,-1.7089844,0.0,0.0,0.0,0.0,-126.56799,69.80713,-95.130615
1766813477977,-0.9433594,-0.265625,-0.2006836,-0.79345703,-1.7089844,0.0,0.0,0.0,0.0,-126.55701,69.9115,-94.921875
1766813478065,-0.9458008,-0.27197266,-0.203125,-0.91552734,0.0,-0.9765625,0.0,0.0,0.0,-126.55701,69.9115,-94.921875
1766813478076,-0.9458008,-0.27197266,-0.203125,-0.91552734,0.0,-0.9765625,0.0,0.0,0.0,-126.260376,69.94446,-94.487915
1766813478164,-0.9458008,-0.26513672,-0.20361328,-1.6479492,-1.0986328,-1.7700195,0.0,0.0,0.0,-126.260376,69.94446,-94.487915
1766813478176,-0.9458008,-0.26513672,-0.20361328,-1.6479492,-1.0986328,-1.7700195,0.0,0.0,0.0,-126.11206,69.84009,-94.14734
1766813478264,-0.9477539,-0.2709961,-0.2006836,0.24414062,-1.0375977,-1.7089844,0.0,0.0,0.0,-126.11206,69.84009,-94.14734
1766813478276,-0.9477539,-0.2709961,-0.2006836,0.24414062,-1.0375977,-1.7089844,0.0,0.0,0.0,-125.634155,69.75769,-93.603516
1766813478364,-0.9379883,-0.26904297,-0.20117188,0.12207031,-0.7324219,-1.0375977,0.0,0.0,0.0,-125.634155,69.75769,-93.603516
1766813478375,-0.9379883,-0.26904297,-0.20117188,0.12207031,-0.7324219,-1.0375977,0.0,0.0,0.0,-125.41443,69.6698,-93.38379
1766813478464,-0.94384766,-0.2734375,-0.20214844,2.1972656,-0.18310547,-0.79345703,0.0,0.0,0.0,-125.41443,69.6698,-93.38379
1766813478475,-0.94384766,-0.2734375,-0.20214844,2.1972656,-0.18310547,-0.79345703,0.0,0.0,0.0,-124.96399,69.65332,-93.07617
1766813478563,-0.94384766,-0.2836914,-0.19970703,1.953125,-0.8544922,0.061035156,0.0,0.0,0.0,-124.96399,69.65332,-93.07617
1766813478575,-0.94384766,-0.2836914,-0.19970703,1.953125,-0.8544922,0.061035156,0.0,0.0,0.0,-124.62341,69.62036,-93.03772
1766813478663,-0.9370117,-0.2783203,-0.19335938,0.9765625,-0.4272461,-0.61035156,0.0,0.0,0.0,-124.62341,69.62036,-93.03772
1766813478675,-0.9370117,-0.2783203,-0.19335938,0.9765625,-0.4272461,-0.61035156,0.0,0.0,0.0,-124.51355,69.63135,-93.00476
1766813478763,-0.94091797,-0.29101562,-0.19873047,-1.8920898,-1.953125,-0.18310547,0.0,0.0,0.0,-124.51355,69.63135,-93.00476
1766813478774,-0.94091797,-0.29101562,-0.19873047,-1.8920898,-1.953125,-0.18310547,0.0,0.0,0.0,-124.03015,69.730225,-92.42798
1766813478862,-0.9458008,-0.2758789,-0.18798828,-3.6010742,-2.1362305,-0.4272461,0.0,0.0,0.0,-124.03015,69.730225,-92.42798
1766813478874,-0.9458008,-0.2758789,-0.18798828,-3.6010742,-2.1362305,-0.4272461,0.0,0.0,0.0,-123.92578,69.80713,-91.99402
1766813478962,-0.94140625,-0.27734375,-0.19140625,-0.79345703,1.4038086,-0.6713867,0.0,0.0,0.0,-123.92578,69.80713,-91.99402
1766813478974,-0.94140625,-0.27734375,-0.19140625,-0.79345703,1.4038086,-0.6713867,0.0,0.0,0.0,-123.986206,69.80713,-91.83472
1766813479062,-0.94628906,-0.2841797,-0.19921875,-3.540039,0.48828125,-1.0986328,0.0,0.0,0.0,-123.986206,69.80713,-91.83472
1766813479073,-0.94628906,-0.2841797,-0.19921875,-3.540039,0.48828125,-1.0986328,0.0,0.0,0.0,-124.08508,69.77417,-91.75232
1766813479161,-0.9379883,-0.28173828,-0.20263672,-3.4179688,0.4272461,-1.8310547,0.0,0.0,0.0,-124.08508,69.77417,-91.75232
1766813479173,-0.9379883,-0.28173828,-0.20263672,-3.4179688,0.4272461,-1.8310547,0.0,0.0,0.0,-124.30481,69.576416,-91.708374
1766813479261,-0.9277344,-0.2841797,-0.2084961,-3.9672852,-1.5869141,-1.4038086,0.0,0.0,0.0,-124.30481,69.576416,-91.708374
1766813479273,-0.9277344,-0.2841797,-0.2084961,-3.9672852,-1.5869141,-1.4038086,0.0,0.0,0.0,-124.4751,69.40613,-91.59302
1766813479361,-0.9355469,-0.28271484,-0.20361328,-3.112793,-3.0517578,-0.061035156,0.0,0.0,0.0,-124.4751,69.40613,-91.59302
1766813479373,-0.9355469,-0.28271484,-0.20361328,-3.112793,-3.0517578,-0.061035156,0.0,0.0,0.0,-124.140015,69.5105,-90.9668
1766813479461,-0.93847656,-0.2763672,-0.1953125,-2.6855469,-4.1503906,1.0986328,0.0,0.0,0.0,-124.140015,69.5105,-90.9668
1766813479472,-0.93847656,-0.2763672,-0.1953125,-2.6855469,-4.1503906,1.0986328,0.0,0.0,0.0,-123.810425,69.746704,-90.373535
1766813479560,-0.9526367,-0.26708984,-0.1899414,-1.0986328,-1.6479492,2.380371,0.0,0.0,0.0,-123.810425,69.746704,-90.373535
1766813479572,-0.9526367,-0.26708984,-0.1899414,-1.0986328,-1.6479492,2.380371,0.0,0.0,0.0,-123.53577,70.09827,-89.96704
1766813479660,-0.94873047,-0.26611328,-0.18457031,-0.48828125,0.4272461,1.6479492,0.0,0.0,0.0,-123.53577,70.09827,-89.96704
1766813479672,-0.94873047,-0.26611328,-0.18457031,-0.48828125,0.4272461,1.6479492,0.0,0.0,0.0,-123.914795,70.3125,-90.44495
1766813479760,-0.9506836,-0.2709961,-0.18554688,1.953125,0.36621094,0.4272461,0.0,0.0,0.0,-123.914795,70.3125,-90.44495
1766813479772,-0.9506836,-0.2709961,-0.18554688,1.953125,0.36621094,0.4272461,0.0,0.0,0.0,-124.08508,70.33447,-90.88989
1766813479859,-0.94677734,-0.27294922,-0.1821289,2.1972656,0.7324219,0.61035156,0.0,0.0,0.0,-124.08508,70.33447,-90.88989
1766813479871,-0.94677734,-0.27294922,-0.1821289,2.1972656,0.7324219,0.61035156,0.0,0.0,0.0,-124.260864,70.30151,-91.37329
1766813479959,-0.9433594,-0.27539062,-0.18457031,2.5634766,1.2817383,0.0,0.0,0.0,0.0,-124.260864,70.30151,-91.37329
1766813479971,-0.9433594,-0.27539062,-0.18457031,2.5634766,1.2817383,0.0,0.0,0.0,0.0,-124.21692,70.29053,-91.63696
1766813480059,-0.9428711,-0.2788086,-0.18359375,1.159668,-0.61035156,0.12207031,0.0,0.0,0.0,-124.21692,70.29053,-91.63696
1766813480071,-0.9428711,-0.2788086,-0.18359375,1.159668,-0.61035156,0.12207031,0.0,0.0,0.0,-124.035645,70.27954,-91.70288
1766813480159,-0.9453125,-0.27783203,-0.1821289,0.48828125,-0.5493164,0.0,0.0,0.0,0.0,-124.035645,70.27954,-91.70288
1766813480170,-0.9453125,-0.27783203,-0.1821289,0.48828125,-0.5493164,0.0,0.0,0.0,0.0,-123.76099,70.32349,-91.49414
1766813480258,-0.94677734,-0.27978516,-0.18408203,-0.12207031,-1.2207031,0.0,0.0,0.0,0.0,-123.76099,70.32349,-91.49414
1766813480270,-0.94677734,-0.27978516,-0.18408203,-0.12207031,-1.2207031,0.0,0.0,0.0,0.0,-123.552246,70.36194,-91.274414
1766813480358,-0.9477539,-0.27246094,-0.18017578,-0.6713867,-0.18310547,0.4272461,0.0,0.0,0.0,-123.552246,70.36194,-91.274414
1766813480369,-0.9477539,-0.27246094,-0.18017578,-0.6713867,-0.18310547,0.4272461,0.0,0.0,0.0,-123.45337,70.42236,-91.137085
1766813480458,-0.9448242,-0.2734375,-0.1850586,0.61035156,0.7324219,-0.18310547,0.0,0.0,0.0,-123.45337,70.42236,-91.137085
1766813480469,-0.9448242,-0.2734375,-0.1850586,0.61035156,0.7324219,-0.18310547,0.0,0.0,0.0,-123.53577,70.43335,-91.23047
1766813480557,-0.94628906,-0.26904297,-0.18603516,-0.36621094,0.8544922,0.24414062,0.0,0.0,0.0,-123.53577,70.43335,-91.23047
1766813480569,-0.94628906,-0.26904297,-0.18603516,-0.36621094,0.8544922,0.24414062,0.0,0.0,0.0,-123.66211,70.43335,-91.31287
1766813480657,-0.94873047,-0.26416016,-0.18945312,0.61035156,0.24414062,0.24414062,0.0,0.0,0.0,-123.66211,70.43335,-91.31287
1766813480668,-0.94873047,-0.26416016,-0.18945312,0.61035156,0.24414062,0.24414062,0.0,0.0,0.0,-123.810425,70.45532,-91.46118
1766813480757,-0.94677734,-0.26220703,-0.1875,2.0141602,0.61035156,0.12207031,0.0,0.0,0.0,-123.810425,70.45532,-91.46118
1766813480768,-0.94677734,-0.26220703,-0.1875,2.0141602,0.61035156,0.12207031,0.0,0.0,0.0,-123.90381,70.444336,-91.72485
1766813480856,-0.94873047,-0.26904297,-0.18896484,2.0751953,0.61035156,-0.30517578,0.0,0.0,0.0,-123.90381,70.444336,-91.72485
1766813480868,-0.94873047,-0.26904297,-0.18896484,2.0751953,0.61035156,-0.30517578,0.0,0.0,0.0,-123.810425,70.43335,-91.89514
1766813480956,-0.94189453,-0.27734375,-0.1899414,2.319336,0.9765625,-1.2817383,0.0,0.0,0.0,-123.810425,70.43335,-91.89514
1766813480968,-0.94189453,-0.27734375,-0.1899414,2.319336,0.9765625,-1.2817383,0.0,0.0,0.0,-123.66211,70.32898,-91.96106
1766813481056,-0.9433594,-0.2758789,-0.18652344,-0.91552734,-1.5258789,-0.5493164,0.0,0.0,0.0,-123.66211,70.32898,-91.96106
1766813481068,-0.9433594,-0.2758789,-0.18652344,-0.91552734,-1.5258789,-0.5493164,0.0,0.0,0.0,-123.409424,70.29053,-91.73035
1766813481156,-0.94628906,-0.27783203,-0.19384766,-0.5493164,-1.3427734,-0.36621094,0.0,0.0,0.0,-123.409424,70.29053,-91.73035
1766813481167,-0.94628906,-0.27783203,-0.19384766,-0.5493164,-1.3427734,-0.36621094,0.0,0.0,0.0,-123.079834,70.35095,-91.30737
1766813481255,-0.94189453,-0.27441406,-0.18359375,-1.0375977,-2.6245117,-0.7324219,0.0,0.0,0.0,-123.079834,70.35095,-91.30737
1766813481267,-0.94189453,-0.27441406,-0.18359375,-1.0375977,-2.6245117,-0.7324219,0.0,0.0,0.0,-122.73926,70.38391,-90.85144
1766813481355,-0.9458008,-0.27246094,-0.1899414,-1.159668,-0.6713867,-0.061035156,0.0,0.0,0.0,-122.73926,70.38391,-90.85144
1766813481367,-0.9458008,-0.27246094,-0.1899414,-1.159668,-0.6713867,-0.061035156,0.0,0.0,0.0,-122.44812,70.43884,-90.461426
1766813481455,-0.9482422,-0.2734375,-0.19140625,-0.36621094,0.12207031,0.18310547,0.0,0.0,0.0,-122.44812,70.43884,-90.461426
1766813481466,-0.9482422,-0.2734375,-0.19140625,-0.36621094,0.12207031,0.18310547,0.0,0.0,0.0,-122.508545,70.44983,-90.565796
1766813481556,-0.94873047,-0.26416016,-0.1899414,0.8544922,-0.12207031,1.4038086,0.0,0.0,0.0,-122.508545,70.44983,-90.565796
1766813481567,-0.94873047,-0.26416016,-0.1899414,0.8544922,-0.12207031,1.4038086,0.0,0.0,0.0,-122.81616,70.51575,-90.97229
1766813481654,-0.9453125,-0.26171875,-0.18457031,3.7841797,0.6713867,1.7700195,0.0,0.0,0.0,-122.81616,70.51575,-90.97229
1766813481666,-0.9453125,-0.26171875,-0.18457031,3.7841797,0.6713867,1.7700195,0.0,0.0,0.0,-123.09631,70.62561,-91.6095
1766813481754,-0.94970703,-0.265625,-0.18359375,5.554199,1.0986328,1.5258789,0.0,0.0,0.0,-123.09631,70.62561,-91.6095
1766813481765,-0.94970703,-0.265625,-0.18359375,5.554199,1.0986328,1.5258789,0.0,0.0,0.0,-123.21167,70.773926,-92.197266
1766813481854,-0.94921875,-0.26708984,-0.17675781,4.4555664,1.0375977,1.4648438,0.0,0.0,0.0,-123.21167,70.773926,-92.197266
1766813481865,-0.94921875,-0.26708984,-0.17675781,4.4555664,1.0375977,1.4648438,0.0,0.0,0.0,-123.26111,70.84534,-92.77405
1766813481953,-0.9423828,-0.26660156,-0.16845703,3.2958984,0.8544922,0.79345703,0.0,0.0,0.0,-123.26111,70.84534,-92.77405
1766813481966,-0.9423828,-0.26660156,-0.16845703,3.2958984,0.8544922,0.79345703,0.0,0.0,0.0,-123.17322,70.911255,-93.02124
1766813482053,-0.95166016,-0.27441406,-0.1743164,-2.0141602,-3.1738281,1.4038086,0.0,0.0,0.0,-123.17322,70.911255,-93.02124
1766813482065,-0.95166016,-0.27441406,-0.1743164,-2.0141602,-3.1738281,1.4038086,0.0,0.0,0.0,-122.59094,71.10901,-92.42798
1766813482153,-0.9536133,-0.26757812,-0.1640625,-0.5493164,1.5258789,0.061035156,0.0,0.0,0.0,-122.59094,71.10901,-92.42798
1766813482165,-0.9536133,-0.26757812,-0.1640625,-0.5493164,1.5258789,0.061035156,0.0,0.0,0.0,-122.74475,71.16943,-92.406006
1766813482252,-0.953125,-0.25830078,-0.17382812,0.12207031,1.2207031,0.5493164,0.0,0.0,0.0,-122.74475,71.16943,-92.406006
1766813482264,-0.953125,-0.25830078,-0.17382812,0.12207031,1.2207031,0.5493164,0.0,0.0,0.0,-122.948,71.14746,-92.576294
1766813482352,-0.9458008,-0.25732422,-0.17529297,0.61035156,1.8920898,0.79345703,0.0,0.0,0.0,-122.948,71.14746,-92.576294
1766813482364,-0.9458008,-0.25732422,-0.17529297,0.61035156,1.8920898,0.79345703,0.0,0.0,0.0,-123.4259,71.136475,-93.01575
1766813482452,-0.95214844,-0.26220703,-0.17871094,-0.12207031,1.0986328,0.8544922,0.0,0.0,0.0,-123.4259,71.136475,-93.01575
1766813482463,-0.95214844,-0.26220703,-0.17871094,-0.12207031,1.0986328,0.8544922,0.0,0.0,0.0,-123.77197,71.152954,-93.31787
1766813482551,-0.94873047,-0.25732422,-0.1796875,0.30517578,1.2207031,0.6713867,0.0,0.0,0.0,-123.77197,71.152954,-93.31787
1766813482563,-0.94873047,-0.25732422,-0.1796875,0.30517578,1.2207031,0.6713867,0.0,0.0,0.0,-124.20593,71.14746,-93.67493
1766813482651,-0.9550781,-0.26123047,-0.18066406,0.5493164,0.8544922,0.61035156,0.0,0.0,0.0,-124.20593,71.14746,-93.67493
1766813482663,-0.9550781,-0.26123047,-0.18066406,0.5493164,0.8544922,0.61035156,0.0,0.0,0.0,-124.41467,71.16943,-93.812256
1766813482751,-0.9550781,-0.2553711,-0.18359375,0.8544922,-0.5493164,0.12207031,0.0,0.0,0.0,-124.41467,71.16943,-93.812256
1766813482763,-0.9550781,-0.2553711,-0.18359375,0.8544922,-0.5493164,0.12207031,0.0,0.0,0.0,-124.43115,71.18042,-93.78479
1766813482851,-0.9501953,-0.2553711,-0.17871094,0.5493164,-0.12207031,0.4272461,0.0,0.0,0.0,-124.43115,71.18042,-93.78479
1766813482862,-0.9501953,-0.2553711,-0.17871094,0.5493164,-0.12207031,0.4272461,0.0,0.0,0.0,-124.4751,71.16943,-93.83972
1766813482950,-0.95410156,-0.24951172,-0.18847656,1.5258789,-1.0375977,0.0,0.0,0.0,0.0,-124.4751,71.16943,-93.83972
1766813482962,-0.95410156,-0.24951172,-0.18847656,1.5258789,-1.0375977,0.0,0.0,0.0,0.0,-124.33777,71.224365,-93.67493
1766813483050,-0.9584961,-0.2524414,-0.19042969,4.3945312,-1.5258789,0.36621094,0.0,0.0,0.0,-124.33777,71.224365,-93.67493
1766813483062,-0.9584961,-0.2524414,-0.19042969,4.3945312,-1.5258789,0.36621094,0.0,0.0,0.0,-124.20593,71.257324,-93.75183
1766813483150,-0.94873047,-0.25683594,-0.18652344,4.9438477,3.7841797,0.0,0.0,0.0,0.0,-124.20593,71.257324,-93.75183
1766813483161,-0.94873047,-0.25683594,-0.18652344,4.9438477,3.7841797,0.0,0.0,0.0,0.0,-124.365234,71.26831,-94.191284
1766813483250,-0.94921875,-0.25634766,-0.1796875,2.5024414,1.159668,0.061035156,0.0,0.0,0.0,-124.365234,71.26831,-94.191284
1766813483261,-0.94921875,-0.25634766,-0.1796875,2.5024414,1.159668,0.061035156,0.0,0.0,0.0,-124.45862,71.26831,-94.454956
1766813483349,-0.9589844,-0.26171875,-0.1850586,0.24414062,0.61035156,-0.7324219,0.0,0.0,0.0,-124.45862,71.26831,-94.454956
1766813483360,-0.9589844,-0.26171875,-0.1850586,0.24414062,0.61035156,-0.7324219,0.0,0.0,0.0,-124.35974,71.2738,-94.30115
1766813483449,-0.9394531,-0.26220703,-0.19140625,-4.5166016,-0.61035156,-1.5258789,0.0,0.0,0.0,-124.35974,71.2738,-94.30115
1766813483460,-0.9394531,-0.26220703,-0.19140625,-4.5166016,-0.61035156,-1.5258789,0.0,0.0,0.0,-124.486084,71.16394,-94.08142
1766813483548,-0.9482422,-0.25048828,-0.17871094,-2.746582,-5.3710938,-0.7324219,0.0,0.0,0.0,-124.486084,71.16394,-94.08142
1766813483560,-0.9482422,-0.25048828,-0.17871094,-2.746582,-5.3710938,-0.7324219,0.0,0.0,0.0,-124.211426,71.136475,-93.38928
1766813483648,-0.94921875,-0.2578125,-0.18603516,-5.126953,-1.0375977,-1.4648438,0.0,0.0,0.0,-124.211426,71.136475,-93.38928
1766813483660,-0.94921875,-0.2578125,-0.18603516,-5.126953,-1.0375977,-1.4648438,0.0,0.0,0.0,-123.5907,71.33423,-92.197266
1766813483748,-0.9453125,-0.25634766,-0.18310547,-4.0283203,-1.8920898,-2.8686523,0.0,0.0,0.0,-123.5907,71.33423,-92.197266
1766813483759,-0.9453125,-0.25634766,-0.18310547,-4.0283203,-1.8920898,-2.8686523,0.0,0.0,0.0,-123.14026,71.29578,-91.23047
1766813483848,-0.9536133,-0.25585938,-0.18652344,-3.8452148,-1.953125,-1.3427734,0.0,0.0,0.0,-123.14026,71.29578,-91.23047
1766813483859,-0.9536133,-0.25585938,-0.18652344,-3.8452148,-1.953125,-1.3427734,0.0,0.0,0.0,-122.750244,71.24634,-90.461426
1766813483947,-0.95166016,-0.26220703,-0.18310547,-1.4038086,-0.24414062,-1.3427734,0.0,0.0,0.0,-122.750244,71.24634,-90.461426
1766813483959,-0.95166016,-0.26220703,-0.18310547,-1.4038086,-0.24414062,-1.3427734,0.0,0.0,0.0,-122.7887,71.18042,-90.302124
1766813484047,-0.9526367,-0.25341797,-0.18603516,-0.24414062,1.0375977,0.12207031,0.0,0.0,0.0,-122.7887,71.18042,-90.302124
1766813484058,-0.9526367,-0.25341797,-0.18603516,-0.24414062,1.0375977,0.12207031,0.0,0.0,0.0,-123.0249,71.087036,-90.57129
1766813484147,-0.95166016,-0.26416016,-0.18554688,2.2583008,2.1972656,0.36621094,0.0,0.0,0.0,-123.0249,71.087036,-90.57129
1766813484158,-0.95166016,-0.26416016,-0.18554688,2.2583008,2.1972656,0.36621094,0.0,0.0,0.0,-123.54126,71.04309,-91.26892
1766813484247,-0.94628906,-0.26660156,-0.17382812,1.2207031,1.7700195,0.4272461,0.0,0.0,0.0,-123.54126,71.04309,-91.26892
1766813484258,-0.94628906,-0.26660156,-0.17382812,1.2207031,1.7700195,0.4272461,0.0,0.0,0.0,-124.13452,70.94971,-92.142334
1766813484346,-0.96484375,-0.27392578,-0.18896484,-1.4038086,0.18310547,0.61035156,0.0,0.0,0.0,-124.13452,70.94971,-92.142334
1766813484358,-0.96484375,-0.27392578,-0.18896484,-1.4038086,0.18310547,0.61035156,0.0,0.0,0.0,-124.21692,70.982666,-92.27966
1766813484446,-0.9458008,-0.2607422,-0.17578125,-0.30517578,0.48828125,0.0,0.0,0.0,0.0,-124.21692,70.982666,-92.27966
1766813484457,-0.9458008,-0.2607422,-0.17578125,-0.30517578,0.48828125,0.0,0.0,0.0,0.0,-124.58496,71.04309,-92.4115
1766813484545,-0.94628906,-0.26123047,-0.17871094,0.7324219,-0.6713867,-0.061035156,0.0,0.0,0.0,-124.58496,71.04309,-92.4115
1766813484557,-0.94628906,-0.26123047,-0.17871094,0.7324219,-0.6713867,-0.061035156,0.0,0.0,0.0,-124.59595,71.032104,-92.38953
1766813484645,-0.9433594,-0.26513672,-0.18261719,0.6713867,0.0,0.0,0.0,0.0,0.0,-124.59595,71.032104,-92.38953
1766813484657,-0.9433594,-0.26513672,-0.18261719,0.6713867,0.0,0.0,0.0,0.0,0.0,-124.365234,71.07605,-92.17529
1766813484745,-0.94628906,-0.2607422,-0.18652344,4.0893555,-1.2207031,-0.24414062,0.0,0.0,0.0,-124.365234,71.07605,-92.17529
1766813484756,-0.94628906,-0.2607422,-0.18652344,4.0893555,-1.2207031,-0.24414062,0.0,0.0,0.0,-123.898315,71.103516,-91.9281
1766813484845,-0.94677734,-0.27294922,-0.17675781,1.4648438,-0.9765625,0.24414062,0.0,0.0,0.0,-123.898315,71.103516,-91.9281
1766813484856,-0.94677734,-0.27294922,-0.17675781,1.4648438,-0.9765625,0.24414062,0.0,0.0,0.0,-123.392944,71.19141,-91.64795
1766813484944,-0.95214844,-0.27197266,-0.17236328,-0.4272461,0.4272461,-0.24414062,0.0,0.0,0.0,-123.392944,71.19141,-91.64795
1766813484956,-0.95214844,-0.27197266,-0.17236328,-0.4272461,0.4272461,-0.24414062,0.0,0.0,0.0,-123.28308,71.17493,-91.59302
1766813485044,-0.94433594,-0.265625,-0.17138672,-0.7324219,0.12207031,-0.30517578,0.0,0.0,0.0,-123.28308,71.17493,-91.59302
1766813485055,-0.94433594,-0.265625,-0.17138672,-0.7324219,0.12207031,-0.30517578,0.0,0.0,0.0,-123.32703,71.14197,-91.52161
1766813485144,-0.9560547,-0.2602539,-0.1796875,-1.8310547,2.2583008,0.12207031,0.0,0.0,0.0,-123.32703,71.14197,-91.52161
1766813485155,-0.9560547,-0.2602539,-0.1796875,-1.8310547,2.2583008,0.12207031,0.0,0.0,0.0,-123.55774,71.119995,-91.53259
1766813485243,-0.9482422,-0.25,-0.17773438,-0.36621094,1.2817383,0.48828125,0.0,0.0,0.0,-123.55774,71.119995,-91.53259
1766813485255,-0.9482422,-0.25,-0.17773438,-0.36621094,1.2817383,0.48828125,0.0,0.0,0.0,-124.20593,71.09253,-92.08191
1766813485343,-0.94873047,-0.2626953,-0.17919922,-1.2817383,1.2817383,-0.36621094,0.0,0.0,0.0,-124.20593,71.09253,-92.08191
1766813485355,-0.94873047,-0.2626953,-0.17919922,-1.2817383,1.2817383,-0.36621094,0.0,0.0,0.0,-124.48059,71.13098,-92.20276
1766813485443,-0.9506836,-0.24658203,-0.18017578,-1.5869141,-1.4038086,-0.7324219,0.0,0.0,0.0,-124.48059,71.13098,-92.20276
1766813485454,-0.9506836,-0.24658203,-0.18017578,-1.5869141,-1.4038086,-0.7324219,0.0,0.0,0.0,-124.17847,71.18042,-91.66992
1766813485542,-0.9536133,-0.25195312,-0.18261719,1.0986328,-1.2207031,-0.30517578,0.0,0.0,0.0,-124.17847,71.18042,-91.66992
1766813485554,-0.9536133,-0.25195312,-0.18261719,1.0986328,-1.2207031,-0.30517578,0.0,0.0,0.0,-123.76648,71.26282,-91.26892
1766813485642,-0.95166016,-0.26171875,-0.18359375,3.112793,-1.8920898,-0.5493164,0.0,0.0,0.0,-123.76648,71.26282,-91.26892
1766813485654,-0.95166016,-0.26171875,-0.18359375,3.112793,-1.8920898,-0.5493164,0.0,0.0,0.0,-123.32703,71.29028,-91.09314
1766813485742,-0.953125,-0.2626953,-0.18310547,2.1972656,-0.4272461,-0.36621094,0.0,0.0,0.0,-123.32703,71.29028,-91.09314
1766813485753,-0.953125,-0.2626953,-0.18310547,2.1972656,-0.4272461,-0.36621094,0.0,0.0,0.0,-122.91504,71.32324,-90.911865
1766813485842,-0.9506836,-0.26904297,-0.18261719,3.540039,-0.8544922,-0.61035156,0.0,0.0,0.0,-122.91504,71.32324,-90.911865
1766813485853,-0.9506836,-0.26904297,-0.18261719,3.540039,-0.8544922,-0.61035156,0.0,0.0,0.0,-122.612915,71.24634,-90.9668
1766813485941,-0.9453125,-0.26367188,-0.17626953,1.5258789,1.0986328,-0.12207031,0.0,0.0,0.0,-122.612915,71.24634,-90.9668
1766813485953,-0.9453125,-0.26367188,-0.17626953,1.5258789,1.0986328,-0.12207031,0.0,0.0,0.0,-122.57446,71.18591,-91.170044
1766813486041,-0.9536133,-0.2631836,-0.1772461,1.0986328,0.18310547,0.0,0.0,0.0,0.0,-122.57446,71.18591,-91.170044
1766813486053,-0.9536133,-0.2631836,-0.1772461,1.0986328,0.18310547,0.0,0.0,0.0,0.0,-122.51404,71.17493,-91.25244
1766813486141,-0.94921875,-0.27294922,-0.17529297,-0.48828125,0.30517578,-0.5493164,0.0,0.0,0.0,-122.51404,71.17493,-91.25244
1766813486152,-0.94921875,-0.27294922,-0.17529297,-0.48828125,0.30517578,-0.5493164,0.0,0.0,0.0,-122.612915,71.152954,-91.345825
1766813486240,-0.9501953,-0.265625,-0.17626953,-2.0751953,-0.61035156,-0.7324219,0.0,0.0,0.0,-122.612915,71.152954,-91.345825
1766813486252,-0.9501953,-0.265625,-0.17626953,-2.0751953,-0.61035156,-0.7324219,0.0,0.0,0.0,-122.60193,71.1145,-91.14258
1766813486340,-0.94921875,-0.2631836,-0.17529297,-2.6855469,-0.48828125,-0.7324219,0.0,0.0,0.0,-122.60193,71.1145,-91.14258
1766813486352,-0.94921875,-0.2631836,-0.17529297,-2.6855469,-0.48828125,-0.7324219,0.0,0.0,0.0,-122.65137,71.07605,-90.93384
1766813486440,-0.9511719,-0.25878906,-0.17919922,-1.953125,0.30517578,-0.61035156,0.0,0.0,0.0,-122.65137,71.07605,-90.93384
1766813486451,-0.9511719,-0.25878906,-0.17919922,-1.953125,0.30517578,-0.61035156,0.0,0.0,0.0,-122.75574,71.05408,-90.802
1766813486540,-0.95410156,-0.2602539,-0.18554688,-1.2817383,1.7089844,-0.5493164,0.0,0.0,0.0,-122.75574,71.05408,-90.802
1766813486552,-0.95410156,-0.2602539,-0.18554688,-1.2817383,1.7089844,-0.5493164,0.0,0.0,0.0,-123.013916,70.99365,-90.98877
1766813486639,-0.9472656,-0.26123047,-0.18017578,-0.4272461,0.0,-0.61035156,0.0,0.0,0.0,-123.013916,70.99365,-90.98877
1766813486651,-0.9472656,-0.26123047,-0.18017578,-0.4272461,0.0,-0.61035156,0.0,0.0,0.0,-123.376465,70.84534,-91.38428
1766813486739,-0.9477539,-0.26367188,-0.1821289,-0.18310547,0.0,-0.12207031,0.0,0.0,0.0,-123.376465,70.84534,-91.38428
1766813486751,-0.9477539,-0.26367188,-0.1821289,-0.18310547,0.0,-0.12207031,0.0,0.0,0.0,-123.480835,70.78491,-91.554565
1766813486839,-0.94873047,-0.27246094,-0.1850586,-1.7089844,-0.79345703,-0.18310547,0.0,0.0,0.0,-123.480835,70.78491,-91.554565
1766813486850,-0.94873047,-0.27246094,-0.1850586,-1.7089844,-0.79345703,-0.18310547,0.0,0.0,0.0,-123.33801,70.7959,-91.38977
1766813486938,-0.9423828,-0.27294922,-0.17871094,-2.746582,-1.7700195,-0.5493164,0.0,0.0,0.0,-123.33801,70.7959,-91.38977
1766813486950,-0.9423828,-0.27294922,-0.17871094,-2.746582,-1.7700195,-0.5493164,0.0,0.0,0.0,-123.30505,70.790405,-91.17554
1766813487038,-0.94091797,-0.2709961,-0.17626953,-3.479004,-1.3427734,-0.36621094,0.0,0.0,0.0,-123.30505,70.790405,-91.17554
1766813487049,-0.94091797,-0.2709961,-0.17626953,-3.479004,-1.3427734,-0.36621094,0.0,0.0,0.0,-123.134766,70.81787,-90.71411
1766813487138,-0.94921875,-0.26367188,-0.18310547,-0.9765625,0.0,0.61035156,0.0,0.0,0.0,-123.134766,70.81787,-90.71411
1766813487149,-0.94921875,-0.26367188,-0.18310547,-0.9765625,0.0,0.61035156,0.0,0.0,0.0,-123.151245,70.88379,-90.53284
1766813487237,-0.9526367,-0.27001953,-0.17773438,-0.8544922,-0.61035156,1.953125,0.0,0.0,0.0,-123.151245,70.88379,-90.53284
1766813487249,-0.9526367,-0.27001953,-0.17773438,-0.8544922,-0.61035156,1.953125,0.0,0.0,0.0,-123.47534,71.02112,-90.84595
1766813487337,-0.94189453,-0.265625,-0.18554688,-0.4272461,1.7700195,0.24414062,0.0,0.0,0.0,-123.47534,71.02112,-90.84595
1766813487348,-0.94189453,-0.265625,-0.18554688,-0.4272461,1.7700195,0.24414062,0.0,0.0,0.0,-123.810425,71.13098,-91.09863
1766813487437,-0.95166016,-0.2524414,-0.18261719,0.48828125,1.2207031,0.4272461,0.0,0.0,0.0,-123.810425,71.13098,-91.09863
1766813487448,-0.95166016,-0.2524414,-0.18261719,0.48828125,1.2207031,0.4272461,0.0,0.0,0.0,-124.19495,71.1145,-91.483154
1766813487536,-0.94921875,-0.2602539,-0.18359375,0.36621094,0.6713867,0.30517578,0.0,0.0,0.0,-124.19495,71.1145,-91.483154
1766813487548,-0.94921875,-0.2602539,-0.18359375,0.36621094,0.6713867,0.30517578,0.0,0.0,0.0,-124.50806,71.136475,-91.884155
1766813487636,-0.9477539,-0.25878906,-0.18164062,0.0,-0.36621094,-0.30517578,0.0,0.0,0.0,-124.50806,71.136475,-91.884155
1766813487647,-0.9477539,-0.25878906,-0.18164062,0.0,-0.36621094,-0.30517578,0.0,0.0,0.0,-124.557495,71.10901,-92.0105
1766813487736,-0.95166016,-0.2553711,-0.18603516,2.0751953,0.61035156,-0.30517578,0.0,0.0,0.0,-124.557495,71.10901,-92.0105
1766813487747,-0.95166016,-0.2553711,-0.18603516,2.0751953,0.61035156,-0.30517578,0.0,0.0,0.0,-124.44763,71.1145,-91.988525
1766813487835,-0.95214844,-0.25927734,-0.18261719,0.9765625,-0.30517578,0.4272461,0.0,0.0,0.0,-124.44763,71.1145,-91.988525
1766813487847,-0.95214844,-0.25927734,-0.18261719,0.9765625,-0.30517578,0.4272461,0.0,0.0,0.0,-124.35974,71.136475,-92.09839
1766813487935,-0.9482422,-0.25830078,-0.1796875,1.4038086,0.12207031,0.4272461,0.0,0.0,0.0,-124.35974,71.136475,-92.09839
1766813487947,-0.9482422,-0.25830078,-0.1796875,1.4038086,0.12207031,0.4272461,0.0,0.0,0.0,-124.40918,71.17493,-92.28516
1766813488035,-0.95166016,-0.25830078,-0.18115234,0.30517578,0.18310547,0.5493164,0.0,0.0,0.0,-124.40918,71.17493,-92.28516
1766813488047,-0.95166016,-0.25830078,-0.18115234,0.30517578,0.18310547,0.5493164,0.0,0.0,0.0,-124.28284,71.25183,-92.26868
1766813488135,-0.9526367,-0.25878906,-0.1772461,0.24414062,-1.8920898,0.91552734,0.0,0.0,0.0,-124.28284,71.25183,-92.26868
1766813488146,-0.9526367,-0.25878906,-0.1772461,0.24414062,-1.8920898,0.91552734,0.0,0.0,0.0,-124.211426,71.312256,-92.25769
1766813488234,-0.953125,-0.26123047,-0.17871094,0.061035156,-0.5493164,0.7324219,0.0,0.0,0.0,-124.211426,71.312256,-92.25769
1766813488246,-0.953125,-0.26123047,-0.17871094,0.061035156,-0.5493164,0.7324219,0.0,0.0,0.0,-124.14551,71.433105,-92.22473
1766813488334,-0.94873047,-0.25976562,-0.17871094,-0.4272461,0.24414062,-0.061035156,0.0,0.0,0.0,-124.14551,71.433105,-92.22473
1766813488346,-0.94873047,-0.25976562,-0.17871094,-0.4272461,0.24414062,-0.061035156,0.0,0.0,0.0,-124.140015,71.47156,-92.18628
1766813488434,-0.95654297,-0.25390625,-0.18310547,-0.061035156,-0.6713867,0.061035156,0.0,0.0,0.0,-124.140015,71.47156,-92.18628
1766813488446,-0.95654297,-0.25390625,-0.18310547,-0.061035156,-0.6713867,0.061035156,0.0,0.0,0.0,-124.13452,71.466064,-92.142334
1766813488533,-0.9501953,-0.2524414,-0.18408203,1.2207031,0.8544922,0.36621094,0.0,0.0,0.0,-124.13452,71.466064,-92.142334
1766813488545,-0.9501953,-0.2524414,-0.18408203,1.2207031,0.8544922,0.36621094,0.0,0.0,0.0,-124.23889,71.44409,-92.36206
1766813488633,-0.95166016,-0.2553711,-0.18457031,1.2817383,-0.24414062,0.24414062,0.0,0.0,0.0,-124.23889,71.44409,-92.36206
1766813488645,-0.95166016,-0.2553711,-0.18457031,1.2817383,-0.24414062,0.24414062,0.0,0.0,0.0,-124.34326,71.44409,-92.60925
1766813488733,-0.94873047,-0.25439453,-0.1772461,1.5869141,0.0,0.18310547,0.0,0.0,0.0,-124.34326,71.44409,-92.60925
1766813488744,-0.94873047,-0.25439453,-0.1772461,1.5869141,0.0,0.18310547,0.0,0.0,0.0,-124.315796,71.466064,-92.70264
1766813488832,-0.95214844,-0.2529297,-0.17626953,1.0986328,-0.061035156,-0.12207031,0.0,0.0,0.0,-124.315796,71.466064,-92.70264
1766813488844,-0.95214844,-0.2529297,-0.17626953,1.0986328,-0.061035156,-0.12207031,0.0,0.0,0.0,-124.20044,71.50452,-92.6532
1766813488932,-0.953125,-0.25634766,-0.1796875,0.4272461,-0.48828125,-0.12207031,0.0,0.0,0.0,-124.20044,71.50452,-92.6532
1766813488944,-0.953125,-0.25634766,-0.1796875,0.4272461,-0.48828125,-0.12207031,0.0,0.0,0.0,-123.931274,71.537476,-92.43347
1766813489032,-0.95654297,-0.25146484,-0.1796875,0.30517578,-1.2207031,0.0,0.0,0.0,0.0,-123.931274,71.537476,-92.43347
1766813489043,-0.95654297,-0.25146484,-0.1796875,0.30517578,-1.2207031,0.0,0.0,0.0,0.0,-123.73901,71.60339,-92.21924
1766813489131,-0.95166016,-0.2529297,-0.17089844,-0.61035156,-0.6713867,0.6713867,0.0,0.0,0.0,-123.73901,71.60339,-92.21924
1766813489143,-0.95166016,-0.2529297,-0.17089844,-0.61035156,-0.6713867,0.6713867,0.0,0.0,0.0,-123.706055,71.66382,-92.15881
1766813489231,-0.95410156,-0.25048828,-0.17333984,0.12207031,0.12207031,0.61035156,0.0,0.0,0.0,-123.706055,71.66382,-92.15881
1766813489243,-0.95410156,-0.25048828,-0.17333984,0.12207031,0.12207031,0.61035156,0.0,0.0,0.0,-123.75,71.746216,-92.1698
1766813489331,-0.9550781,-0.25146484,-0.17285156,0.12207031,0.12207031,0.8544922,0.0,0.0,0.0,-123.75,71.746216,-92.1698
1766813489342,-0.9550781,-0.25146484,-0.17285156,0.12207031,0.12207031,0.8544922,0.0,0.0,0.0,-123.85986,71.81763,-92.29614
1766813489431,-0.95410156,-0.25048828,-0.17285156,0.30517578,-0.18310547,0.6713867,0.0,0.0,0.0,-123.85986,71.81763,-92.29614
1766813489442,-0.95410156,-0.25048828,-0.17285156,0.30517578,-0.18310547,0.6713867,0.0,0.0,0.0,-123.99719,71.88904,-92.44995
1766813489530,-0.95703125,-0.25195312,-0.17529297,-0.36621094,0.12207031,0.5493164,0.0,0.0,0.0,-123.99719,71.88904,-92.44995
1766813489542,-0.95703125,-0.25195312,-0.17529297,-0.36621094,0.12207031,0.5493164,0.0,0.0,0.0,-124.123535,71.94397,-92.576294
1766813489630,-0.9511719,-0.24951172,-0.17626953,0.91552734,0.48828125,-0.48828125,0.0,0.0,0.0,-124.123535,71.94397,-92.576294
1766813489641,-0.9511719,-0.24951172,-0.17626953,0.91552734,0.48828125,-0.48828125,0.0,0.0,0.0,-124.32129,71.88904,-92.785034
1766813489730,-0.9526367,-0.24902344,-0.1743164,-0.4272461,0.9765625,-0.30517578,0.0,0.0,0.0,-124.32129,71.88904,-92.785034
1766813489741,-0.9526367,-0.24902344,-0.1743164,-0.4272461,0.9765625,-0.30517578,0.0,0.0,0.0,-124.35974,71.85608,-92.80151
1766813489830,-0.9584961,-0.24560547,-0.18261719,0.7324219,1.159668,-0.61035156,0.0,0.0,0.0,-124.35974,71.85608,-92.80151
1766813489841,-0.9584961,-0.24560547,-0.18261719,0.7324219,1.159668,-0.61035156,0.0,0.0,0.0,-124.40369,71.80664,-92.81799
1766813489929,-0.9550781,-0.25048828,-0.1821289,0.4272461,1.159668,-0.24414062,0.0,0.0,0.0,-124.40369,71.80664,-92.81799
1766813489941,-0.9550781,-0.25048828,-0.1821289,0.4272461,1.159668,-0.24414062,0.0,0.0,0.0,-124.67285,71.71875,-93.114624
1766813490029,-0.9555664,-0.24707031,-0.1821289,0.79345703,2.319336,-0.18310547,0.0,0.0,0.0,-124.67285,71.71875,-93.114624
1766813490040,-0.9555664,-0.24707031,-0.1821289,0.79345703,2.319336,-0.18310547,0.0,0.0,0.0,-125.08484,71.60889,-93.5376
1766813490129,-0.95458984,-0.2475586,-0.18798828,0.18310547,1.953125,0.061035156,0.0,0.0,0.0,-125.08484,71.60889,-93.5376
1766813490140,-0.95458984,-0.2475586,-0.18798828,0.18310547,1.953125,0.061035156,0.0,0.0,0.0,-125.53528,71.5155,-93.982544
1766813490228,-0.9511719,-0.2446289,-0.18603516,0.5493164,1.7700195,0.24414062,0.0,0.0,0.0,-125.53528,71.5155,-93.982544
1766813490240,-0.9511719,-0.2446289,-0.18603516,0.5493164,1.7700195,0.24414062,0.0,0.0,0.0,-126.02417,71.44409,-94.44946
1766813490328,-0.9536133,-0.24902344,-0.19140625,0.36621094,1.0986328,0.30517578,0.0,0.0,0.0,-126.02417,71.44409,-94.44946
1766813490340,-0.9536133,-0.24902344,-0.19140625,0.36621094,1.0986328,0.30517578,0.0,0.0,0.0,-126.35376,71.40015,-94.823
1766813490428,-0.9526367,-0.24902344,-0.19140625,0.48828125,0.30517578,0.0,0.0,0.0,0.0,-126.35376,71.40015,-94.823
1766813490439,-0.9526367,-0.24902344,-0.19140625,0.48828125,0.30517578,0.0,0.0,0.0,0.0,-126.60095,71.33972,-95.09766
1766813490527,-0.9472656,-0.24853516,-0.19091797,0.18310547,1.4648438,-0.7324219,0.0,0.0,0.0,-126.60095,71.33972,-95.09766
1766813490539,-0.9472656,-0.24853516,-0.19091797,0.18310547,1.4648438,-0.7324219,0.0,0.0,0.0,-126.84265,71.24634,-95.3064
1766813490627,-0.94921875,-0.24853516,-0.1977539,-0.24414062,1.0986328,-0.7324219,0.0,0.0,0.0,-126.84265,71.24634,-95.3064
1766813490639,-0.94921875,-0.24853516,-0.1977539,-0.24414062,1.0986328,-0.7324219,0.0,0.0,0.0,-126.903076,71.16943,-95.28992
1766813490727,-0.95166016,-0.2475586,-0.20361328,-0.61035156,0.24414062,-0.36621094,0.0,0.0,0.0,-126.903076,71.16943,-95.28992
1766813490739,-0.95166016,-0.2475586,-0.20361328,-0.61035156,0.24414062,-0.36621094,0.0,0.0,0.0,-127.01294,71.09802,-95.3009
1766813490826,-0.9458008,-0.24804688,-0.19482422,0.36621094,0.4272461,-0.48828125,0.0,0.0,0.0,-127.01294,71.09802,-95.3009
1766813490838,-0.9458008,-0.24804688,-0.19482422,0.36621094,0.4272461,-0.48828125,0.0,0.0,0.0,-127.194214,71.01013,-95.39978
1766813490926,-0.94921875,-0.25341797,-0.19970703,0.9765625,0.061035156,-0.6713867,0.0,0.0,0.0,-127.194214,71.01013,-95.39978
1766813490938,-0.94921875,-0.25341797,-0.19970703,0.9765625,0.061035156,-0.6713867,0.0,0.0,0.0,-127.08435,70.97717,-95.29541
1766813491026,-0.9482422,-0.25585938,-0.19726562,1.3427734,-0.4272461,-0.8544922,0.0,0.0,0.0,-127.08435,70.97717,-95.29541
1766813491038,-0.9482422,-0.25585938,-0.19726562,1.3427734,-0.4272461,-0.8544922,0.0,0.0,0.0,-126.864624,70.93323,-95.10864
1766813491125,-0.94140625,-0.26123047,-0.1953125,0.8544922,-0.36621094,-1.0986328,0.0,0.0,0.0,-126.864624,70.93323,-95.10864
1766813491137,-0.94140625,-0.26123047,-0.1953125,0.8544922,-0.36621094,-1.0986328,0.0,0.0,0.0,-126.61194,70.911255,-94.83948
1766813491225,-0.94970703,-0.25634766,-0.19384766,-0.7324219,-0.7324219,-0.24414062,0.0,0.0,0.0,-126.61194,70.911255,-94.83948
1766813491237,-0.94970703,-0.25634766,-0.19384766,-0.7324219,-0.7324219,-0.24414062,0.0,0.0,0.0,-126.172485,70.94971,-94.295654
1766813491325,-0.9501953,-0.25634766,-0.19677734,-1.5869141,-1.5258789,0.061035156,0.0,0.0,0.0,-126.172485,70.94971,-94.295654
1766813491336,-0.9501953,-0.25634766,-0.19677734,-1.5869141,-1.5258789,0.061035156,0.0,0.0,0.0,-126.068115,71.02112,-93.982544
1766813491425,-0.9506836,-0.25634766,-0.18945312,-1.3427734,-0.4272461,0.061035156,0.0,0.0,0.0,-126.068115,71.02112,-93.982544
1766813491436,-0.9506836,-0.25634766,-0.18945312,-1.3427734,-0.4272461,0.061035156,0.0,0.0,0.0,-126.10657,71.05408,-93.8562
1766813491524,-0.9536133,-0.25,-0.19628906,-0.8544922,0.7324219,0.0,0.0,0.0,0.0,-126.10657,71.05408,-93.8562
1766813491536,-0.9536133,-0.25,-0.19628906,-0.8544922,0.7324219,0.0,0.0,0.0,0.0,-126.21643,71.09802,-93.80676
1766813491624,-0.9506836,-0.25390625,-0.1953125,-0.6713867,0.061035156,-0.4272461,0.0,0.0,0.0,-126.21643,71.09802,-93.80676
1766813491635,-0.9506836,-0.25390625,-0.1953125,-0.6713867,0.061035156,-0.4272461,0.0,0.0,0.0,-126.4032,71.07056,-93.91113
1766813491724,-0.9506836,-0.25878906,-0.1928711,-2.6245117,-1.3427734,-1.0986328,0.0,0.0,0.0,-126.4032,71.07056,-93.91113
1766813491735,-0.9506836,-0.25878906,-0.1928711,-2.6245117,-1.3427734,-1.0986328,0.0,0.0,0.0,-126.34827,71.048584,-93.67493
1766813491823,-0.9458008,-0.25878906,-0.19580078,-3.479004,-1.0375977,-1.8920898,0.0,0.0,0.0,-126.34827,71.048584,-93.67493
1766813491835,-0.9458008,-0.25878906,-0.19580078,-3.479004,-1.0375977,-1.8920898,0.0,0.0,0.0,-126.15051,70.97717,-93.16406
1766813491923,-0.9458008,-0.2553711,-0.19091797,-3.4179688,-2.6855469,-1.7089844,0.0,0.0,0.0,-126.15051,70.97717,-93.16406
1766813491935,-0.9458008,-0.2553711,-0.19091797,-3.4179688,-2.6855469,-1.7089844,0.0,0.0,0.0,-125.826416,70.90027,-92.47742
1766813492023,-0.9453125,-0.25585938,-0.19335938,-3.7231445,-1.7089844,-0.91552734,0.0,0.0,0.0,-125.826416,70.90027,-92.47742
1766813492034,-0.9453125,-0.25585938,-0.19335938,-3.7231445,-1.7089844,-0.91552734,0.0,0.0,0.0,-125.47485,70.92224,-91.75232
1766813492122,-0.94921875,-0.25341797,-0.19335938,-1.7700195,-1.7700195,-0.4272461,0.0,0.0,0.0,-125.47485,70.92224,-91.75232
1766813492134,-0.94921875,-0.25341797,-0.19335938,-1.7700195,-1.7700195,-0.4272461,0.0,0.0,0.0,-125.233154,70.97717,-91.27991
1766813492222,-0.9501953,-0.25878906,-0.19042969,-0.4272461,-1.0375977,0.36621094,0.0,0.0,0.0,-125.233154,70.97717,-91.27991
1766813492234,-0.9501953,-0.25878906,-0.19042969,-0.4272461,-1.0375977,0.36621094,0.0,0.0,0.0,-125.1178,71.05957,-91.14258
1766813492322,-0.94970703,-0.25732422,-0.1875,1.2207031,0.24414062,0.36621094,0.0,0.0,0.0,-125.1178,71.05957,-91.14258
1766813492334,-0.94970703,-0.25732422,-0.1875,1.2207031,0.24414062,0.36621094,0.0,0.0,0.0,-125.15076,71.119995,-91.34033
1766813492422,-0.9501953,-0.25976562,-0.19042969,1.3427734,0.91552734,0.4272461,0.0,0.0,0.0,-125.15076,71.119995,-91.34033
1766813492433,-0.9501953,-0.25976562,-0.19042969,1.3427734,0.91552734,0.4272461,0.0,0.0,0.0,-125.21118,71.13098,-91.64795
1766813492521,-0.94873047,-0.25634766,-0.18652344,1.4038086,1.2817383,0.061035156,0.0,0.0,0.0,-125.21118,71.13098,-91.64795
1766813492533,-0.94873047,-0.25634766,-0.18652344,1.4038086,1.2817383,0.061035156,0.0,0.0,0.0,-125.425415,71.09253,-92.04346
1766813492621,-0.9506836,-0.25439453,-0.18701172,1.4648438,2.380371,0.12207031,0.0,0.0,0.0,-125.425415,71.09253,-92.04346
1766813492632,-0.9506836,-0.25439453,-0.18701172,1.4648438,2.380371,0.12207031,0.0,0.0,0.0,-125.65613,71.02112,-92.48291
1766813492721,-0.9506836,-0.2578125,-0.19335938,0.91552734,1.0986328,0.18310547,0.0,0.0,0.0,-125.65613,71.02112,-92.48291
1766813492732,-0.9506836,-0.2578125,-0.19335938,0.91552734,1.0986328,0.18310547,0.0,0.0,0.0,-125.947266,70.93872,-92.98279
1766813492820,-0.9482422,-0.25439453,-0.18945312,0.8544922,0.6713867,-0.12207031,0.0,0.0,0.0,-125.947266,70.93872,-92.98279
1766813492832,-0.9482422,-0.25439453,-0.18945312,0.8544922,0.6713867,-0.12207031,0.0,0.0,0.0,-126.25488,70.85083,-93.40027
1766813492920,-0.9536133,-0.2602539,-0.1953125,0.7324219,1.2207031,-0.48828125,0.0,0.0,0.0,-126.25488,70.85083,-93.40027
1766813492932,-0.9536133,-0.2602539,-0.1953125,0.7324219,1.2207031,-0.48828125,0.0,0.0,0.0,-126.26587,70.7959,-93.47168
1766813493020,-0.9458008,-0.2631836,-0.19677734,0.5493164,1.2817383,-1.159668,0.0,0.0,0.0,-126.26587,70.7959,-93.47168
1766813493032,-0.9458008,-0.2631836,-0.19677734,0.5493164,1.2817383,-1.159668,0.0,0.0,0.0,-126.47461,70.62012,-93.740845
1766813493119,-0.94628906,-0.2626953,-0.19921875,-1.7700195,2.0141602,-1.4648438,0.0,0.0,0.0,-126.47461,70.62012,-93.740845
1766813493131,-0.94628906,-0.2626953,-0.19921875,-1.7700195,2.0141602,-1.4648438,0.0,0.0,0.0,-126.70532,70.444336,-93.82324
1766813493219,-0.9453125,-0.2602539,-0.20458984,-1.5258789,0.0,-1.0986328,0.0,0.0,0.0,-126.70532,70.444336,-93.82324
1766813493231,-0.9453125,-0.2602539,-0.20458984,-1.5258789,0.0,-1.0986328,0.0,0.0,0.0,-126.77124,70.3125,-93.70239
1766813493319,-0.94384766,-0.25976562,-0.20263672,-1.953125,-0.24414062,-0.61035156,0.0,0.0,0.0,-126.77124,70.3125,-93.70239
1766813493331,-0.94384766,-0.25976562,-0.20263672,-1.953125,-0.24414062,-0.61035156,0.0,0.0,0.0,-126.89758,70.25757,-93.57056
1766813493419,-0.9453125,-0.2607422,-0.2006836,-1.8310547,0.12207031,-0.061035156,0.0,0.0,0.0,-126.89758,70.25757,-93.57056
1766813493430,-0.9453125,-0.2607422,-0.2006836,-1.8310547,0.12207031,-0.061035156,0.0,0.0,0.0,-127.01294,70.268555,-93.46619
1766813493518,-0.9477539,-0.26220703,-0.20458984,-2.4414062,-1.159668,0.4272461,0.0,0.0,0.0,-127.01294,70.268555,-93.46619
1766813493530,-0.9477539,-0.26220703,-0.20458984,-2.4414062,-1.159668,0.4272461,0.0,0.0,0.0,-127.01294,70.34546,-93.25195
1766813493618,-0.9453125,-0.2602539,-0.20751953,0.4272461,0.061035156,0.18310547,0.0,0.0,0.0,-127.01294,70.34546,-93.25195
1766813493629,-0.9453125,-0.2602539,-0.20751953,0.4272461,0.061035156,0.18310547,0.0,0.0,0.0,-127.16675,70.32898,-93.46619
1766813493718,-0.9458008,-0.25830078,-0.20947266,0.7324219,0.9765625,-0.12207031,0.0,0.0,0.0,-127.16675,70.32898,-93.46619
1766813493729,-0.9458008,-0.25830078,-0.20947266,0.7324219,0.9765625,-0.12207031,0.0,0.0,0.0,-127.2876,70.33447,-93.6145
1766813493817,-0.93847656,-0.25439453,-0.20263672,2.1972656,-1.3427734,0.18310547,0.0,0.0,0.0,-127.2876,70.33447,-93.6145
1766813493829,-0.93847656,-0.25439453,-0.20263672,2.1972656,-1.3427734,0.18310547,0.0,0.0,0.0,-127.073364,70.35095,-93.57605
1766813493917,-0.9453125,-0.2626953,-0.20507812,2.380371,-2.0141602,0.9765625,0.0,0.0,0.0,-127.073364,70.35095,-93.57605
1766813493928,-0.9453125,-0.2626953,-0.20507812,2.380371,-2.0141602,0.9765625,0.0,0.0,0.0,-126.58447,70.48828,-93.3728
1766813494017,-0.94433594,-0.27246094,-0.19824219,2.380371,-1.4648438,0.18310547,0.0,0.0,0.0,-126.58447,70.48828,-93.3728
1766813494029,-0.94433594,-0.27246094,-0.19824219,2.380371,-1.4648438,0.18310547,0.0,0.0,0.0,-126.19995,70.59265,-93.26294
1766813494116,-0.94970703,-0.26611328,-0.19873047,1.159668,0.61035156,0.7324219,0.0,0.0,0.0,-126.19995,70.59265,-93.26294
1766813494128,-0.94970703,-0.26611328,-0.19873047,1.159668,0.61035156,0.7324219,0.0,0.0,0.0,-125.85388,70.68054,-93.07068
1766813494216,-0.94384766,-0.26416016,-0.1899414,1.2207031,-0.8544922,0.91552734,0.0,0.0,0.0,-125.85388,70.68054,-93.07068
1766813494228,-0.94384766,-0.26416016,-0.1899414,1.2207031,-0.8544922,0.91552734,0.0,0.0,0.0,-125.947266,70.69153,-93.31238
1766813494316,-0.9453125,-0.2578125,-0.18945312,0.61035156,0.79345703,1.0375977,0.0,0.0,0.0,-125.947266,70.69153,-93.31238
1766813494327,-0.9453125,-0.2578125,-0.18945312,0.61035156,0.79345703,1.0375977,0.0,0.0,0.0,-126.0791,70.73547,-93.50464
1766813494415,-0.94873047,-0.25585938,-0.19921875,1.8920898,1.5258789,0.4272461,0.0,0.0,0.0,-126.0791,70.73547,-93.50464
1766813494427,-0.94873047,-0.25585938,-0.19921875,1.8920898,1.5258789,0.4272461,0.0,0.0,0.0,-126.23291,70.77942,-93.724365
1766813494515,-0.9501953,-0.2553711,-0.19482422,1.8310547,-1.5258789,0.79345703,0.0,0.0,0.0,-126.23291,70.77942,-93.724365
1766813494527,-0.9501953,-0.2553711,-0.19482422,1.8310547,-1.5258789,0.79345703,0.0,0.0,0.0,-126.24939,70.85083,-93.8562
1766813494615,-0.9501953,-0.2529297,-0.19189453,3.2348633,-0.5493164,0.12207031,0.0,0.0,0.0,-126.24939,70.85083,-93.8562
1766813494626,-0.9501953,-0.2529297,-0.19189453,3.2348633,-0.5493164,0.12207031,0.0,0.0,0.0,-125.95276,70.93872,-93.76831
1766813494715,-0.95214844,-0.25976562,-0.18603516,1.6479492,-1.953125,0.12207031,0.0,0.0,0.0,-125.95276,70.93872,-93.76831
1766813494726,-0.95214844,-0.25976562,-0.18603516,1.6479492,-1.953125,0.12207031,0.0,0.0,0.0,-125.45288,71.0376,-93.46069
1766813494814,-0.9506836,-0.2553711,-0.18359375,2.2583008,-0.5493164,0.18310547,0.0,0.0,0.0,-125.45288,71.0376,-93.46069
1766813494826,-0.9506836,-0.2553711,-0.18359375,2.2583008,-0.5493164,0.18310547,0.0,0.0,0.0,-124.98596,71.119995,-93.1311
1766813494914,-0.95166016,-0.25927734,-0.1796875,1.7089844,-0.061035156,0.36621094,0.0,0.0,0.0,-124.98596,71.119995,-93.1311
1766813494925,-0.95166016,-0.25927734,-0.1796875,1.7089844,-0.061035156,0.36621094,0.0,0.0,0.0,-124.7937,71.19141,-93.03772
1766813495014,-0.953125,-0.25634766,-0.18164062,0.4272461,-0.30517578,0.9765625,0.0,0.0,0.0,-124.7937,71.19141,-93.03772
1766813495025,-0.953125,-0.25634766,-0.18164062,0.4272461,-0.30517578,0.9765625,0.0,0.0,0.0,-124.62341,71.29578,-92.872925
1766813495113,-0.95703125,-0.24951172,-0.18017578,1.159668,0.0,1.5869141,0.0,0.0,0.0,-124.62341,71.29578,-92.872925
1766813495125,-0.95703125,-0.24951172,-0.18017578,1.159668,0.0,1.5869141,0.0,0.0,0.0,-124.78821,71.4386,-93.03223
1766813495213,-0.95166016,-0.24804688,-0.1772461,1.4648438,1.2207031,1.7089844,0.0,0.0,0.0,-124.78821,71.4386,-93.03223
1766813495224,-0.95166016,-0.24804688,-0.1772461,1.4648438,1.2207031,1.7089844,0.0,0.0,0.0,-125.14526,71.537476,-93.47168
1766813495313,-0.95654297,-0.24658203,-0.18701172,1.8310547,1.6479492,1.4038086,0.0,0.0,0.0,-125.14526,71.537476,-93.47168
1766813495325,-0.95654297,-0.24658203,-0.18701172,1.8310547,1.6479492,1.4038086,0.0,0.0,0.0,-125.529785,71.63086,-93.916626
1766813495412,-0.9511719,-0.24169922,-0.1875,2.1972656,1.3427734,1.7089844,0.0,0.0,0.0,-125.529785,71.63086,-93.916626
1766813495424,-0.9511719,-0.24169922,-0.1875,2.1972656,1.3427734,1.7089844,0.0,0.0,0.0,-126.00769,71.65283,-94.53735
1766813495512,-0.9555664,-0.23876953,-0.1899414,3.2348633,1.6479492,1.953125,0.0,0.0,0.0,-126.00769,71.65283,-94.53735
1766813495524,-0.9555664,-0.23876953,-0.1899414,3.2348633,1.6479492,1.953125,0.0,0.0,0.0,-126.44714,71.71875,-95.18555
1766813495612,-0.9560547,-0.24023438,-0.19628906,5.065918,2.2583008,1.4648438,0.0,0.0,0.0,-126.44714,71.71875,-95.18555
1766813495623,-0.9560547,-0.24023438,-0.19628906,5.065918,2.2583008,1.4648438,0.0,0.0,0.0,-126.8811,71.75171,-95.97107
1766813495712,-0.95214844,-0.24169922,-0.19433594,5.7373047,2.5024414,0.48828125,0.0,0.0,0.0,-126.8811,71.75171,-95.97107
1766813495723,-0.95214844,-0.24169922,-0.19433594,5.7373047,2.5024414,0.48828125,0.0,0.0,0.0,-127.249146,71.66931,-96.795044
1766813495811,-0.94921875,-0.2446289,-0.19482422,3.90625,3.7231445,-0.18310547,0.0,0.0,0.0,-127.249146,71.66931,-96.795044
1766813495823,-0.94921875,-0.2446289,-0.19482422,3.90625,3.7231445,-0.18310547,0.0,0.0,0.0,-127.65015,71.47705,-97.53662
1766813495911,-0.95214844,-0.24316406,-0.19628906,2.0141602,1.2207031,-0.24414062,0.0,0.0,0.0,-127.65015,71.47705,-97.53662
1766813495923,-0.95214844,-0.24316406,-0.19628906,2.0141602,1.2207031,-0.24414062,0.0,0.0,0.0,-127.74353,71.35071,-97.72888
1766813496011,-0.95166016,-0.24707031,-0.19970703,0.9765625,0.18310547,-0.91552734,0.0,0.0,0.0,-127.74353,71.35071,-97.72888
1766813496022,-0.95166016,-0.24707031,-0.19970703,0.9765625,0.18310547,-0.91552734,0.0,0.0,0.0,-127.699585,71.29028,-97.525635
1766813496111,-0.9458008,-0.25390625,-0.19384766,-0.9765625,-0.48828125,-1.2817383,0.0,0.0,0.0,-127.699585,71.29028,-97.525635
1766813496122,-0.9458008,-0.25390625,-0.19384766,-0.9765625,-0.48828125,-1.2817383,0.0,0.0,0.0,-127.58972,71.16943,-97.196045
1766813496210,-0.9506836,-0.24804688,-0.19873047,-1.6479492,-0.061035156,-1.0375977,0.0,0.0,0.0,-127.58972,71.16943,-97.196045
1766813496222,-0.9506836,-0.24804688,-0.19873047,-1.6479492,-0.061035156,-1.0375977,0.0,0.0,0.0,-127.35901,71.119995,-96.55884
1766813496310,-0.9477539,-0.24707031,-0.1953125,-1.4038086,-0.4272461,-0.48828125,0.0,0.0,0.0,-127.35901,71.119995,-96.55884
1766813496321,-0.9477539,-0.24707031,-0.1953125,-1.4038086,-0.4272461,-0.48828125,0.0,0.0,0.0,-127.39197,71.09253,-96.16882
1766813496410,-0.94970703,-0.24951172,-0.19580078,-1.3427734,-0.12207031,0.061035156,0.0,0.0,0.0,-127.39197,71.09253,-96.16882
1766813496421,-0.94970703,-0.24951172,-0.19580078,-1.3427734,-0.12207031,0.061035156,0.0,0.0,0.0,-127.41943,71.119995,-95.85022
1766813496509,-0.95214844,-0.24316406,-0.2055664,-1.0375977,-0.30517578,0.8544922,0.0,0.0,0.0,-127.41943,71.119995,-95.85022
1766813496521,-0.95214844,-0.24316406,-0.2055664,-1.0375977,-0.30517578,0.8544922,0.0,0.0,0.0,-127.44141,71.18042,-95.652466
1766813496609,-0.94921875,-0.23339844,-0.19970703,2.380371,-1.159668,1.6479492,0.0,0.0,0.0,-127.44141,71.18042,-95.652466
1766813496620,-0.94921875,-0.23339844,-0.19970703,2.380371,-1.159668,1.6479492,0.0,0.0,0.0,-127.63367,71.2793,-95.74585
1766813496709,-0.9550781,-0.23144531,-0.1953125,5.7373047,-0.7324219,2.319336,0.0,0.0,0.0,-127.63367,71.2793,-95.74585
1766813496720,-0.9550781,-0.23144531,-0.1953125,5.7373047,-0.7324219,2.319336,0.0,0.0,0.0,-127.49634,71.537476,-95.877686
1766813496808,-0.95410156,-0.23730469,-0.18896484,7.2631836,0.18310547,1.4648438,0.0,0.0,0.0,-127.49634,71.537476,-95.877686
1766813496820,-0.95410156,-0.23730469,-0.18896484,7.2631836,0.18310547,1.4648438,0.0,0.0,0.0,-127.29309,71.746216,-96.190796
1766813496908,-0.95654297,-0.24658203,-0.18554688,5.554199,-0.12207031,0.30517578,0.0,0.0,0.0,-127.29309,71.746216,-96.190796
1766813496920,-0.95654297,-0.24658203,-0.18554688,5.554199,-0.12207031,0.30517578,0.0,0.0,0.0,-126.85364,71.86157,-96.24573
1766813497008,-0.9506836,-0.24658203,-0.1772461,2.6245117,-0.12207031,-0.79345703,0.0,0.0,0.0,-126.85364,71.86157,-96.24573
1766813497019,-0.9506836,-0.24658203,-0.1772461,2.6245117,-0.12207031,-0.79345703,0.0,0.0,0.0,-126.414185,71.84509,-96.08093
1766813497107,-0.95410156,-0.24853516,-0.18408203,0.48828125,-1.159668,-1.4648438,0.0,0.0,0.0,-126.414185,71.84509,-96.08093
1766813497119,-0.95410156,-0.24853516,-0.18408203,0.48828125,-1.159668,-1.4648438,0.0,0.0,0.0,-125.90332,71.78467,-95.55908
1766813497207,-0.953125,-0.2529297,-0.18115234,-1.0986328,-1.4038086,-2.0751953,0.0,0.0,0.0,-125.90332,71.78467,-95.55908
1766813497219,-0.953125,-0.2529297,-0.18115234,-1.0986328,-1.4038086,-2.0751953,0.0,0.0,0.0,-125.37048,71.691284,-94.77905
1766813497307,-0.9472656,-0.25,-0.17919922,-3.9672852,-0.9765625,-1.8920898,0.0,0.0,0.0,-125.37048,71.691284,-94.77905
1766813497319,-0.9472656,-0.25,-0.17919922,-3.9672852,-0.9765625,-1.8920898,0.0,0.0,0.0,-125.16724,71.60339,-94.02649
1766813497407,-0.9550781,-0.25439453,-0.17919922,-6.5307617,-2.5634766,-2.1362305,0.0,0.0,0.0,-125.16724,71.60339,-94.02649
1766813497418,-0.9550781,-0.25439453,-0.17919922,-6.5307617,-2.5634766,-2.1362305,0.0,0.0,0.0,-124.83215,71.60889,-92.944336
1766813497506,-0.9482422,-0.27001953,-0.16845703,-12.817383,-3.6010742,-3.2958984,0.0,0.0,0.0,-124.83215,71.60889,-92.944336
1766813497518,-0.9482422,-0.27001953,-0.16845703,-12.817383,-3.6010742,-3.2958984,0.0,0.0,0.0,-124.61243,71.54846,-91.62048
1766813497606,-0.9501953,-0.26953125,-0.17773438,-19.592285,-4.5776367,-5.1879883,0.0,0.0,0.0,-124.61243,71.54846,-91.62048
1766813497618,-0.9501953,-0.26953125,-0.17773438,-19.592285,-4.5776367,-5.1879883,0.0,0.0,0.0,-124.33777,71.42212,-89.58801
1766813497706,-0.95166016,-0.2548828,-0.1796875,-23.742676,-5.7373047,-6.225586,0.0,0.0,0.0,-124.33777,71.42212,-89.58801
1766813497717,-0.95166016,-0.2548828,-0.1796875,-23.742676,-5.7373047,-6.225586,0.0,0.0,0.0,-124.18396,71.240845,-87.214966
1766813497805,-0.9604492,-0.26220703,-0.18603516,-27.46582,-9.521484,-5.6152344,0.0,0.0,0.0,-124.18396,71.240845,-87.214966
1766813497817,-0.9604492,-0.26220703,-0.18603516,-27.46582,-9.521484,-5.6152344,0.0,0.0,0.0,-123.81592,71.20239,-84.49585
1766813497905,-0.9448242,-0.2709961,-0.17041016,-26.367188,-6.4697266,-9.033203,0.0,0.0,0.0,-123.81592,71.20239,-84.49585
1766813497916,-0.9448242,-0.2709961,-0.17041016,-26.367188,-6.4697266,-9.033203,0.0,0.0,0.0,-123.39844,71.09802,-81.55151
1766813498005,-0.9506836,-0.26464844,-0.18408203,-26.306152,-5.1879883,-9.70459,0.0,0.0,0.0,-123.39844,71.09802,-81.55151
1766813498016,-0.9506836,-0.26464844,-0.18408203,-26.306152,-5.1879883,-9.70459,0.0,0.0,0.0,-122.87109,70.69153,-78.74451
1766813498104,-0.9482422,-0.27246094,-0.18847656,-28.564453,-8.239746,-8.666992,0.0,0.0,0.0,-122.87109,70.69153,-78.74451
1766813498116,-0.9482422,-0.27246094,-0.18847656,-28.564453,-8.239746,-8.666992,0.0,0.0,0.0,-122.684326,70.40588,-76.22864
1766813498204,-0.9379883,-0.26953125,-0.18066406,-26.97754,-9.094238,-9.094238,0.0,0.0,0.0,-122.684326,70.40588,-76.22864
1766813498216,-0.9379883,-0.26953125,-0.18066406,-26.97754,-9.094238,-9.094238,0.0,0.0,0.0,-122.21741,70.16968,-73.531494
1766813498304,-0.94433594,-0.2734375,-0.18359375,-23.376465,-9.216309,-8.361816,0.0,0.0,0.0,-122.21741,70.16968,-73.531494
1766813498315,-0.94433594,-0.2734375,-0.18359375,-23.376465,-9.216309,-8.361816,0.0,0.0,0.0,-121.0968,70.01587,-70.53772
1766813498404,-0.9453125,-0.28515625,-0.17333984,-20.446777,-10.437012,-7.2631836,0.0,0.0,0.0,-121.0968,70.01587,-70.53772
1766813498415,-0.9453125,-0.28515625,-0.17333984,-20.446777,-10.437012,-7.2631836,0.0,0.0,0.0,-119.921265,69.93347,-67.906494
1766813498503,-0.94433594,-0.29541016,-0.16503906,-20.446777,-8.300781,-6.4697266,0.0,0.0,0.0,-119.921265,69.93347,-67.906494
1766813498515,-0.94433594,-0.29541016,-0.16503906,-20.446777,-8.300781,-6.4697266,0.0,0.0,0.0,-118.90503,69.8291,-65.66528
1766813498603,-0.9370117,-0.30615234,-0.1694336,-19.226074,-6.8969727,-6.4697266,0.0,0.0,0.0,-118.90503,69.8291,-65.66528
1766813498614,-0.9370117,-0.30615234,-0.1694336,-19.226074,-6.8969727,-6.4697266,0.0,0.0,0.0,-118.24036,69.66431,-63.78662
1766813498703,-0.93310547,-0.29492188,-0.16601562,-14.526367,-8.300781,-3.9672852,0.0,0.0,0.0,-118.24036,69.66431,-63.78662
1766813498714,-0.93310547,-0.29492188,-0.16601562,-14.526367,-8.300781,-3.9672852,0.0,0.0,0.0,-117.44385,69.58191,-62.13318
1766813498802,-0.94677734,-0.29052734,-0.15917969,-7.873535,-4.5776367,-0.8544922,0.0,0.0,0.0,-117.44385,69.58191,-62.13318
1766813498814,-0.94677734,-0.29052734,-0.15917969,-7.873535,-4.5776367,-0.8544922,0.0,0.0,0.0,-116.90552,69.64783,-61.364136
1766813498902,-0.9501953,-0.3076172,-0.16748047,0.0,1.8920898,-0.8544922,0.0,0.0,0.0,-116.90552,69.64783,-61.364136
1766813498914,-0.9501953,-0.3076172,-0.16748047,0.0,1.8920898,-0.8544922,0.0,0.0,0.0,-116.88904,69.68628,-61.913452
1766813499002,-0.9428711,-0.30908203,-0.16503906,5.3710938,2.6855469,-1.4038086,0.0,0.0,0.0,-116.88904,69.68628,-61.913452
1766813499013,-0.9428711,-0.30908203,-0.16503906,5.3710938,2.6855469,-1.4038086,0.0,0.0,0.0,-117.11975,69.488525,-63.33069
1766813499101,-0.9321289,-0.30419922,-0.16455078,14.160156,6.713867,-0.7324219,0.0,0.0,0.0,-117.11975,69.488525,-63.33069
1766813499113,-0.9321289,-0.30419922,-0.16455078,14.160156,6.713867,-0.7324219,0.0,0.0,0.0,-117.19116,69.12048,-65.31372
1766813499201,-0.9370117,-0.32128906,-0.1665039,20.141602,9.58252,2.5634766,0.0,0.0,0.0,-117.19116,69.12048,-65.31372
1766813499213,-0.9370117,-0.32128906,-0.1665039,20.141602,9.58252,2.5634766,0.0,0.0,0.0,-117.438354,68.862305,-68.16467
1766813499301,-0.92285156,-0.34423828,-0.16064453,18.676758,9.765625,3.4179688,0.0,0.0,0.0,-117.438354,68.862305,-68.16467
1766813499313,-0.92285156,-0.34423828,-0.16064453,18.676758,9.765625,3.4179688,0.0,0.0,0.0,-118.09204,68.708496,-71.50452
1766813499401,-0.92822266,-0.35009766,-0.16601562,11.657715,7.9345703,2.2583008,0.0,0.0,0.0,-118.09204,68.708496,-71.50452
1766813499412,-0.92822266,-0.35009766,-0.16601562,11.657715,7.9345703,2.2583008,0.0,0.0,0.0,-118.76221,68.516235,-74.25659
1766813499500,-0.9223633,-0.34326172,-0.17871094,3.2348633,3.4179688,1.4648438,0.0,0.0,0.0,-118.76221,68.516235,-74.25659
1766813499512,-0.9223633,-0.34326172,-0.17871094,3.2348633,3.4179688,1.4648438,0.0,0.0,0.0,-119.245605,68.31848,-75.981445
1766813499600,-0.9267578,-0.33251953,-0.18017578,-0.9765625,0.0,0.24414062,0.0,0.0,0.0,-119.245605,68.31848,-75.981445
1766813499611,-0.9267578,-0.33251953,-0.18017578,-0.9765625,0.0,0.24414062,0.0,0.0,0.0,-119.52026,68.219604,-76.777954
1766813499700,-0.9296875,-0.32714844,-0.18408203,-4.333496,-0.8544922,-1.159668,0.0,0.0,0.0,-119.52026,68.219604,-76.777954
1766813499711,-0.9296875,-0.32714844,-0.18408203,-4.333496,-0.8544922,-1.159668,0.0,0.0,0.0,-119.52576,68.170166,-76.78894
1766813499799,-0.92822266,-0.3203125,-0.19335938,-4.3945312,-0.61035156,-2.380371,0.0,0.0,0.0,-119.52576,68.170166,-76.78894
1766813499811,-0.92822266,-0.3203125,-0.19335938,-4.3945312,-0.61035156,-2.380371,0.0,0.0,0.0,-119.46533,68.02185,-76.55823
1766813499899,-0.9267578,-0.31640625,-0.19189453,-3.479004,-0.061035156,-1.6479492,0.0,0.0,0.0,-119.46533,68.02185,-76.55823
1766813499911,-0.9267578,-0.31640625,-0.19189453,-3.479004,-0.061035156,-1.6479492,0.0,0.0,0.0,-119.55322,67.85156,-76.56372
1766813499999,-0.92822266,-0.328125,-0.1899414,-5.6762695,-1.7700195,-0.6713867,0.0,0.0,0.0,-119.55322,67.85156,-76.56372
1766813500010,-0.92822266,-0.328125,-0.1899414,-5.6762695,-1.7700195,-0.6713867,0.0,0.0,0.0,-119.63013,67.8241,-76.51428
1766813500099,-0.92822266,-0.32958984,-0.19042969,-9.094238,-2.8076172,-2.380371,0.0,0.0,0.0,-119.63013,67.8241,-76.51428
1766813500110,-0.92822266,-0.32958984,-0.19042969,-9.094238,-2.8076172,-2.380371,0.0,0.0,0.0,-119.767456,67.769165,-76.22864
1766813500198,-0.93115234,-0.31835938,-0.18359375,-8.300781,-3.6010742,-3.6010742,0.0,0.0,0.0,-119.767456,67.769165,-76.22864
1766813500210,-0.93115234,-0.31835938,-0.18359375,-8.300781,-3.6010742,-3.6010742,0.0,0.0,0.0,-119.64661,67.560425,-75.56946
1766813500298,-0.92285156,-0.32373047,-0.18945312,-7.385254,-3.2958984,-1.6479492,0.0,0.0,0.0,-119.64661,67.560425,-75.56946
1766813500309,-0.92285156,-0.32373047,-0.18945312,-7.385254,-3.2958984,-1.6479492,0.0,0.0,0.0,-119.4104,67.51099,-74.80591
1766813500398,-0.9316406,-0.32128906,-0.19384766,-5.7373047,-3.1738281,-0.8544922,0.0,0.0,0.0,-119.4104,67.51099,-74.80591
1766813500409,-0.9316406,-0.32128906,-0.19384766,-5.7373047,-3.1738281,-0.8544922,0.0,0.0,0.0,-119.17969,67.59338,-74.18518
1766813500497,-0.9321289,-0.31201172,-0.19189453,-2.6245117,-2.2583008,-0.061035156,0.0,0.0,0.0,-119.17969,67.59338,-74.18518
1766813500509,-0.9321289,-0.31201172,-0.19189453,-2.6245117,-2.2583008,-0.061035156,0.0,0.0,0.0,-118.99292,67.71423,-73.861084
1766813500597,-0.93359375,-0.31445312,-0.1850586,1.6479492,-0.79345703,0.24414062,0.0,0.0,0.0,-118.99292,67.71423,-73.861084
1766813500608,-0.93359375,-0.31445312,-0.1850586,1.6479492,-0.79345703,0.24414062,0.0,0.0,0.0,-118.932495,67.79114,-74.09729
1766813500697,-0.9291992,-0.32666016,-0.1899414,2.0751953,-0.30517578,0.6713867,0.0,0.0,0.0,-118.932495,67.79114,-74.09729
1766813500708,-0.9291992,-0.32666016,-0.1899414,2.0751953,-0.30517578,0.6713867,0.0,0.0,0.0,-118.740234,67.857056,-74.54224
1766813500796,-0.9301758,-0.32958984,-0.18261719,0.6713867,-1.4038086,-0.12207031,0.0,0.0,0.0,-118.740234,67.857056,-74.54224
1766813500808,-0.9301758,-0.32958984,-0.18261719,0.6713867,-1.4038086,-0.12207031,0.0,0.0,0.0,-118.531494,67.95044,-74.783936
1766813500896,-0.9267578,-0.33203125,-0.17773438,-1.953125,-1.8310547,-1.4038086,0.0,0.0,0.0,-118.531494,67.95044,-74.783936
1766813500908,-0.9267578,-0.33203125,-0.17773438,-1.953125,-1.8310547,-1.4038086,0.0,0.0,0.0,-118.2074,67.96692,-74.64661
1766813500996,-0.9321289,-0.33251953,-0.17675781,-4.5776367,-2.380371,-2.6245117,0.0,0.0,0.0,-118.2074,67.96692,-74.64661
1766813501007,-0.9321289,-0.33251953,-0.17675781,-4.5776367,-2.380371,-2.6245117,0.0,0.0,0.0,-117.69653,67.906494,-74.07532
1766813501095,-0.92626953,-0.3359375,-0.18017578,-5.7373047,-2.380371,-3.3569336,0.0,0.0,0.0,-117.69653,67.906494,-74.07532
1766813501107,-0.92626953,-0.3359375,-0.18017578,-5.7373047,-2.380371,-3.3569336,0.0,0.0,0.0,-117.49878,67.71973,-73.602905
1766813501195,-0.9194336,-0.33398438,-0.18164062,-5.92041,-1.8310547,-3.90625,0.0,0.0,0.0,-117.49878,67.71973,-73.602905
1766813501207,-0.9194336,-0.33398438,-0.18164062,-5.92041,-1.8310547,-3.90625,0.0,0.0,0.0,-117.20215,67.5,-72.943726
1766813501295,-0.921875,-0.3388672,-0.1796875,-6.1035156,-4.211426,-2.5634766,0.0,0.0,0.0,-117.20215,67.5,-72.943726
1766813501307,-0.921875,-0.3388672,-0.1796875,-6.1035156,-4.211426,-2.5634766,0.0,0.0,0.0,-116.658325,67.39563,-72.05383
1766813501395,-0.92578125,-0.33789062,-0.1694336,-5.6762695,-4.760742,-2.1972656,0.0,0.0,0.0,-116.658325,67.39563,-72.05383
1766813501406,-0.92578125,-0.33789062,-0.1694336,-5.6762695,-4.760742,-2.1972656,0.0,0.0,0.0,-116.02661,67.40112,-71.10901
1766813501494,-0.9326172,-0.34765625,-0.1665039,-7.1411133,-4.760742,-1.953125,0.0,0.0,0.0,-116.02661,67.40112,-71.10901
1766813501506,-0.9326172,-0.34765625,-0.1665039,-7.1411133,-4.760742,-1.953125,0.0,0.0,0.0,-115.57617,67.40112,-70.27405
1766813501594,-0.9238281,-0.35498047,-0.15966797,-9.765625,-3.6621094,-3.479004,0.0,0.0,0.0,-115.57617,67.40112,-70.27405
1766813501605,-0.9238281,-0.35498047,-0.15966797,-9.765625,-3.6621094,-3.479004,0.0,0.0,0.0,-115.339966,67.28027,-69.44458
1766813501694,-0.9248047,-0.33447266,-0.1616211,-9.70459,-2.319336,-4.638672,0.0,0.0,0.0,-115.339966,67.28027,-69.44458
1766813501705,-0.9248047,-0.33447266,-0.1616211,-9.70459,-2.319336,-4.638672,0.0,0.0,0.0,-115.1532,67.093506,-68.40637
1766813501793,-0.921875,-0.34521484,-0.16308594,-8.178711,-2.9907227,-3.8452148,0.0,0.0,0.0,-115.1532,67.093506,-68.40637
1766813501805,-0.921875,-0.34521484,-0.16308594,-8.178711,-2.9907227,-3.8452148,0.0,0.0,0.0,-114.79065,66.934204,-67.37915
1766813501894,-0.9277344,-0.3544922,-0.1616211,-7.8125,-3.2348633,-3.112793,0.0,0.0,0.0,-114.79065,66.934204,-67.37915
1766813501905,-0.9277344,-0.3544922,-0.1616211,-7.8125,-3.2348633,-3.112793,0.0,0.0,0.0,-114.521484,66.80786,-66.555176
1766813501993,-0.9223633,-0.34765625,-0.15820312,-7.5683594,-1.8310547,-2.0751953,0.0,0.0,0.0,-114.521484,66.80786,-66.555176
1766813502004,-0.9223633,-0.34765625,-0.15820312,-7.5683594,-1.8310547,-2.0751953,0.0,0.0,0.0,-114.609375,66.70349,-66.11023
1766813502092,-0.9194336,-0.35009766,-0.16259766,-6.713867,-2.8686523,-1.7700195,0.0,0.0,0.0,-114.609375,66.70349,-66.11023
1766813502104,-0.9194336,-0.35009766,-0.16259766,-6.713867,-2.8686523,-1.7700195,0.0,0.0,0.0,-114.48303,66.71448,-65.50598
1766813502192,-0.92285156,-0.3569336,-0.15771484,-5.7373047,-3.8452148,-2.1972656,0.0,0.0,0.0,-114.48303,66.71448,-65.50598
1766813502204,-0.92285156,-0.3569336,-0.15771484,-5.7373047,-3.8452148,-2.1972656,0.0,0.0,0.0,-114.142456,66.70349,-64.84131
1766813502292,-0.9223633,-0.3701172,-0.16552734,-6.652832,-3.1738281,-2.6245117,0.0,0.0,0.0,-114.142456,66.70349,-64.84131
1766813502303,-0.9223633,-0.3701172,-0.16552734,-6.652832,-3.1738281,-2.6245117,0.0,0.0,0.0,-113.81287,66.62659,-64.18762
1766813502391,-0.92089844,-0.36328125,-0.1640625,-5.065918,-1.6479492,-2.1362305,0.0,0.0,0.0,-113.81287,66.62659,-64.18762
1766813502403,-0.92089844,-0.36328125,-0.1640625,-5.065918,-1.6479492,-2.1362305,0.0,0.0,0.0,-113.724976,66.467285,-63.781128
1766813502491,-0.91503906,-0.3618164,-0.16455078,-2.0751953,0.6713867,-1.2207031,0.0,0.0,0.0,-113.724976,66.467285,-63.781128
1766813502503,-0.91503906,-0.3618164,-0.16455078,-2.0751953,0.6713867,-1.2207031,0.0,0.0,0.0,-113.85132,66.35742,-63.858032
1766813502591,-0.9145508,-0.3623047,-0.1743164,-0.6713867,2.1362305,0.061035156,0.0,0.0,0.0,-113.85132,66.35742,-63.858032
1766813502602,-0.9145508,-0.3623047,-0.1743164,-0.6713867,2.1362305,0.061035156,0.0,0.0,0.0,-114.08203,66.32446,-64.27551
1766813502691,-0.9169922,-0.36083984,-0.17675781,1.0986328,-0.24414062,0.79345703,0.0,0.0,0.0,-114.08203,66.32446,-64.27551
1766813502702,-0.9169922,-0.36083984,-0.17675781,1.0986328,-0.24414062,0.79345703,0.0,0.0,0.0,-114.22485,66.35742,-64.74243
1766813502790,-0.9140625,-0.35791016,-0.1694336,1.8920898,-0.24414062,0.9765625,0.0,0.0,0.0,-114.22485,66.35742,-64.74243
1766813502802,-0.9140625,-0.35791016,-0.1694336,1.8920898,-0.24414062,0.9765625,0.0,0.0,0.0,-114.21936,66.434326,-65.20386
1766813502890,-0.9223633,-0.3623047,-0.17236328,1.2817383,1.953125,-0.12207031,0.0,0.0,0.0,-114.21936,66.434326,-65.20386
1766813502902,-0.9223633,-0.3623047,-0.17236328,1.2817383,1.953125,-0.12207031,0.0,0.0,0.0,-114.3457,66.44531,-65.76416
1766813502990,-0.91552734,-0.3623047,-0.16796875,-1.2207031,0.18310547,-0.61035156,0.0,0.0,0.0,-114.3457,66.44531,-65.76416
1766813503001,-0.91552734,-0.3623047,-0.16796875,-1.2207031,0.18310547,-0.61035156,0.0,0.0,0.0,-114.521484,66.35742,-66.20361
1766813503089,-0.92285156,-0.35302734,-0.171875,-1.5869141,0.7324219,-0.7324219,0.0,0.0,0.0,-114.521484,66.35742,-66.20361
1766813503101,-0.92285156,-0.35302734,-0.171875,-1.5869141,0.7324219,-0.7324219,0.0,0.0,0.0,-114.64783,66.28052,-66.41785
1766813503189,-0.91845703,-0.35253906,-0.16796875,0.061035156,0.30517578,-0.12207031,0.0,0.0,0.0,-114.64783,66.28052,-66.41785
1766813503201,-0.91845703,-0.35253906,-0.16796875,0.061035156,0.30517578,-0.12207031,0.0,0.0,0.0,-114.90051,66.20361,-66.90674
1766813503289,-0.91845703,-0.3569336,-0.16503906,3.90625,2.319336,-0.7324219,0.0,0.0,0.0,-114.90051,66.20361,-66.90674
1766813503300,-0.91845703,-0.3569336,-0.16503906,3.90625,2.319336,-0.7324219,0.0,0.0,0.0,-114.9115,66.16516,-67.31323
1766813503389,-0.9213867,-0.359375,-0.17236328,3.2348633,1.6479492,-0.18310547,0.0,0.0,0.0,-114.9115,66.16516,-67.31323
1766813503400,-0.9213867,-0.359375,-0.17236328,3.2348633,1.6479492,-0.18310547,0.0,0.0,0.0,-114.730225,66.1322,-67.6593
1766813503488,-0.91503906,-0.35986328,-0.17138672,4.5776367,1.0375977,0.30517578,0.0,0.0,0.0,-114.730225,66.1322,-67.6593
1766813503500,-0.91503906,-0.35986328,-0.17138672,4.5776367,1.0375977,0.30517578,0.0,0.0,0.0,-114.713745,66.06079,-68.24707
1766813503588,-0.91308594,-0.36914062,-0.16552734,4.699707,1.4038086,0.61035156,0.0,0.0,0.0,-114.713745,66.06079,-68.24707
1766813503599,-0.91308594,-0.36914062,-0.16552734,4.699707,1.4038086,0.61035156,0.0,0.0,0.0,-114.592896,66.0553,-68.80188
1766813503688,-0.9140625,-0.37548828,-0.16601562,2.746582,1.0375977,0.30517578,0.0,0.0,0.0,-114.592896,66.0553,-68.80188
1766813503699,-0.9140625,-0.37548828,-0.16601562,2.746582,1.0375977,0.30517578,0.0,0.0,0.0,-114.45557,66.07178,-69.158936
1766813503787,-0.91503906,-0.3725586,-0.16455078,0.91552734,0.0,0.18310547,0.0,0.0,0.0,-114.45557,66.07178,-69.158936
1766813503799,-0.91503906,-0.3725586,-0.16455078,0.91552734,0.0,0.18310547,0.0,0.0,0.0,-114.32373,66.07727,-69.312744
1766813503887,-0.91748047,-0.37451172,-0.17089844,-0.5493164,-0.30517578,0.18310547,0.0,0.0,0.0,-114.32373,66.07727,-69.312744
1766813503899,-0.91748047,-0.37451172,-0.17089844,-0.5493164,-0.30517578,0.18310547,0.0,0.0,0.0,-114.23035,66.08276,-69.32922
1766813503987,-0.91748047,-0.37060547,-0.17578125,-2.1362305,-1.5258789,0.061035156,0.0,0.0,0.0,-114.23035,66.08276,-69.32922
1766813503998,-0.91748047,-0.37060547,-0.17578125,-2.1362305,-1.5258789,0.061035156,0.0,0.0,0.0,-114.21387,66.08276,-69.27429
1766813504086,-0.9121094,-0.3647461,-0.1743164,-0.12207031,-1.7089844,-0.12207031,0.0,0.0,0.0,-114.21387,66.08276,-69.27429
1766813504098,-0.9121094,-0.3647461,-0.1743164,-0.12207031,-1.7089844,-0.12207031,0.0,0.0,0.0,-114.19739,66.08276,-69.23035
1766813504186,-0.9165039,-0.36376953,-0.16894531,-0.8544922,-0.61035156,0.12207031,0.0,0.0,0.0,-114.19739,66.08276,-69.23035
1766813504198,-0.9165039,-0.36376953,-0.16894531,-0.8544922,-0.61035156,0.12207031,0.0,0.0,0.0,-113.97217,66.137695,-69.03259
1766813504286,-0.9199219,-0.36328125,-0.17138672,-0.4272461,-0.79345703,0.24414062,0.0,0.0,0.0,-113.97217,66.137695,-69.03259
1766813504297,-0.9199219,-0.36328125,-0.17138672,-0.4272461,-0.79345703,0.24414062,0.0,0.0,0.0,-113.85132,66.19812,-68.90625
1766813504386,-0.91796875,-0.3618164,-0.16699219,-0.91552734,-0.4272461,0.36621094,0.0,0.0,0.0,-113.85132,66.19812,-68.90625
1766813504397,-0.91796875,-0.3618164,-0.16699219,-0.91552734,-0.4272461,0.36621094,0.0,0.0,0.0,-113.91724,66.242065,-68.97766
1766813504485,-0.9243164,-0.36035156,-0.1665039,-1.5869141,0.5493164,0.30517578,0.0,0.0,0.0,-113.91724,66.242065,-68.97766
1766813504497,-0.9243164,-0.36035156,-0.1665039,-1.5869141,0.5493164,0.30517578,0.0,0.0,0.0,-114.13696,66.28052,-69.158936
1766813504585,-0.9194336,-0.35839844,-0.16796875,-2.2583008,0.5493164,0.0,0.0,0.0,0.0,-114.13696,66.28052,-69.158936
1766813504596,-0.9194336,-0.35839844,-0.16796875,-2.2583008,0.5493164,0.0,0.0,0.0,0.0,-114.48303,66.26404,-69.42261
1766813504685,-0.92089844,-0.35107422,-0.16992188,-1.159668,0.48828125,0.24414062,0.0,0.0,0.0,-114.48303,66.26404,-69.42261
1766813504696,-0.92089844,-0.35107422,-0.16992188,-1.159668,0.48828125,0.24414062,0.0,0.0,0.0,-114.79614,66.25305,-69.625854
1766813504785,-0.92041016,-0.35839844,-0.1743164,0.061035156,0.6713867,0.48828125,0.0,0.0,0.0,-114.79614,66.25305,-69.625854
1766813504796,-0.92041016,-0.35839844,-0.1743164,0.061035156,0.6713867,0.48828125,0.0,0.0,0.0,-114.9939,66.26953,-69.90051
1766813504884,-0.91748047,-0.3564453,-0.17236328,2.319336,0.79345703,-0.36621094,0.0,0.0,0.0,-114.9939,66.26953,-69.90051
1766813504895,-0.91748047,-0.3564453,-0.17236328,2.319336,0.79345703,-0.36621094,0.0,0.0,0.0,-115.13672,66.26404,-70.21912
1766813504984,-0.9165039,-0.35302734,-0.171875,1.953125,1.5869141,0.18310547,0.0,0.0,0.0,-115.13672,66.26404,-70.21912
1766813504995,-0.9165039,-0.35302734,-0.171875,1.953125,1.5869141,0.18310547,0.0,0.0,0.0,-115.10925,66.24756,-70.41138
1766813505083,-0.9199219,-0.35595703,-0.17773438,3.3569336,0.4272461,0.12207031,0.0,0.0,0.0,-115.10925,66.24756,-70.41138
1766813505095,-0.9199219,-0.35595703,-0.17773438,3.3569336,0.4272461,0.12207031,0.0,0.0,0.0,-115.010376,66.26953,-70.57617
1766813505183,-0.9189453,-0.35742188,-0.17626953,4.5776367,-0.061035156,0.61035156,0.0,0.0,0.0,-115.010376,66.26953,-70.57617
1766813505195,-0.9189453,-0.35742188,-0.17626953,4.5776367,-0.061035156,0.61035156,0.0,0.0,0.0,-114.834595,66.28601,-70.84534
1766813505283,-0.9160156,-0.35351562,-0.17382812,6.1035156,0.5493164,0.91552734,0.0,0.0,0.0,-114.834595,66.28601,-70.84534
1766813505294,-0.9160156,-0.35351562,-0.17382812,6.1035156,0.5493164,0.91552734,0.0,0.0,0.0,-114.48303,66.346436,-71.05408
1766813505383,-0.92333984,-0.3466797,-0.16992188,9.521484,2.0751953,1.5869141,0.0,0.0,0.0,-114.48303,66.346436,-71.05408
1766813505394,-0.92333984,-0.3466797,-0.16992188,9.521484,2.0751953,1.5869141,0.0,0.0,0.0,-114.071045,66.44531,-71.49902
1766813505482,-0.9199219,-0.35498047,-0.16552734,10.437012,2.0751953,3.7231445,0.0,0.0,0.0,-114.071045,66.44531,-71.49902
1766813505494,-0.9199219,-0.35498047,-0.16552734,10.437012,2.0751953,3.7231445,0.0,0.0,0.0,-113.95569,66.59363,-72.526245
1766813505582,-0.92285156,-0.35986328,-0.16455078,8.7890625,4.4555664,3.90625,0.0,0.0,0.0,-113.95569,66.59363,-72.526245
1766813505593,-0.92285156,-0.35986328,-0.16455078,8.7890625,4.4555664,3.90625,0.0,0.0,0.0,-114.16992,66.84631,-73.73474
1766813505682,-0.921875,-0.35009766,-0.16015625,4.699707,2.9907227,3.2348633,0.0,0.0,0.0,-114.16992,66.84631,-73.73474
1766813505693,-0.921875,-0.35009766,-0.16015625,4.699707,2.9907227,3.2348633,0.0,0.0,0.0,-114.62036,67.00012,-74.86633
1766813505781,-0.93652344,-0.33496094,-0.16601562,4.272461,4.5776367,3.479004,0.0,0.0,0.0,-114.62036,67.00012,-74.86633
1766813505793,-0.93652344,-0.33496094,-0.16601562,4.272461,4.5776367,3.479004,0.0,0.0,0.0,-115.27954,67.099,-76.014404
1766813505881,-0.92285156,-0.33154297,-0.1694336,3.479004,2.9907227,3.2958984,0.0,0.0,0.0,-115.27954,67.099,-76.014404
1766813505893,-0.92285156,-0.33154297,-0.1694336,3.479004,2.9907227,3.2958984,0.0,0.0,0.0,-116.22986,67.19238,-77.39319
1766813505981,-0.92626953,-0.3334961,-0.17626953,5.1879883,4.9438477,4.699707,0.0,0.0,0.0,-116.22986,67.19238,-77.39319
1766813505992,-0.92626953,-0.3334961,-0.17626953,5.1879883,4.9438477,4.699707,0.0,0.0,0.0,-117.020874,67.37366,-78.6676
1766813506080,-0.9326172,-0.31982422,-0.17871094,6.958008,2.380371,5.6762695,0.0,0.0,0.0,-117.020874,67.37366,-78.6676
1766813506092,-0.9326172,-0.31982422,-0.17871094,6.958008,2.380371,5.6762695,0.0,0.0,0.0,-117.75696,67.69226,-80.01892
1766813506180,-0.93603516,-0.3256836,-0.17529297,7.080078,2.1972656,3.540039,0.0,0.0,0.0,-117.75696,67.69226,-80.01892
1766813506192,-0.93603516,-0.3256836,-0.17529297,7.080078,2.1972656,3.540039,0.0,0.0,0.0,-118.05908,68.02185,-80.90881
1766813506280,-0.9316406,-0.3251953,-0.171875,5.2490234,2.5634766,0.6713867,0.0,0.0,0.0,-118.05908,68.02185,-80.90881
1766813506291,-0.9316406,-0.3251953,-0.171875,5.2490234,2.5634766,0.6713867,0.0,0.0,0.0,-118.201904,68.04932,-81.518555
1766813506380,-0.93603516,-0.32128906,-0.17773438,2.5634766,1.953125,-0.61035156,0.0,0.0,0.0,-118.201904,68.04932,-81.518555
1766813506391,-0.93603516,-0.32128906,-0.17773438,2.5634766,1.953125,-0.61035156,0.0,0.0,0.0,-118.21838,67.95593,-81.73279
1766813506479,-0.93359375,-0.32177734,-0.18457031,2.9296875,2.746582,-1.2207031,0.0,0.0,0.0,-118.21838,67.95593,-81.73279
1766813506491,-0.93359375,-0.32177734,-0.18457031,2.9296875,2.746582,-1.2207031,0.0,0.0,0.0,-118.32825,67.79114,-81.936035
1766813506579,-0.93115234,-0.32226562,-0.18115234,3.8452148,1.5258789,0.4272461,0.0,0.0,0.0,-118.32825,67.79114,-81.936035
1766813506591,-0.93115234,-0.32226562,-0.18115234,3.8452148,1.5258789,0.4272461,0.0,0.0,0.0,-118.61389,67.60986,-82.457886
1766813506679,-0.92822266,-0.31591797,-0.18066406,6.225586,4.699707,1.7089844,0.0,0.0,0.0,-118.61389,67.60986,-82.457886
1766813506690,-0.92822266,-0.31591797,-0.18066406,6.225586,4.699707,1.7089844,0.0,0.0,0.0,-119.0094,67.5824,-83.24341
1766813506778,-0.93115234,-0.32666016,-0.1850586,5.9814453,4.5166016,2.380371,0.0,0.0,0.0,-119.0094,67.5824,-83.24341
1766813506790,-0.93115234,-0.32666016,-0.1850586,5.9814453,4.5166016,2.380371,0.0,0.0,0.0,-119.4928,67.648315,-84.193726
1766813506878,-0.9277344,-0.3256836,-0.19042969,5.065918,3.8452148,1.7700195,0.0,0.0,0.0,-119.4928,67.648315,-84.193726
1766813506890,-0.9277344,-0.3256836,-0.19042969,5.065918,3.8452148,1.7700195,0.0,0.0,0.0,-120.06409,67.62634,-85.182495
1766813506978,-0.9272461,-0.3227539,-0.19384766,4.0283203,2.6245117,0.91552734,0.0,0.0,0.0,-120.06409,67.62634,-85.182495
1766813506990,-0.9272461,-0.3227539,-0.19384766,4.0283203,2.6245117,0.91552734,0.0,0.0,0.0,-120.49255,67.53296,-85.94055
1766813507078,-0.92333984,-0.3203125,-0.19384766,3.3569336,1.6479492,0.30517578,0.0,0.0,0.0,-120.49255,67.53296,-85.94055
1766813507089,-0.92333984,-0.3203125,-0.19384766,3.3569336,1.6479492,0.30517578,0.0,0.0,0.0,-120.635376,67.48901,-86.23718
1766813507177,-0.9316406,-0.31445312,-0.19824219,4.4555664,0.7324219,-0.18310547,0.0,0.0,0.0,-120.635376,67.48901,-86.23718
1766813507189,-0.9316406,-0.31445312,-0.19824219,4.4555664,0.7324219,-0.18310547,0.0,0.0,0.0,-120.39917,67.49451,-86.07788
1766813507277,-0.92822266,-0.31201172,-0.19580078,6.8969727,1.953125,1.159668,0.0,0.0,0.0,-120.39917,67.49451,-86.07788
1766813507288,-0.92822266,-0.31201172,-0.19580078,6.8969727,1.953125,1.159668,0.0,0.0,0.0,-120.17944,67.49451,-86.21521
1766813507377,-0.93115234,-0.31835938,-0.19921875,10.253906,2.0141602,2.5634766,0.0,0.0,0.0,-120.17944,67.49451,-86.21521
1766813507388,-0.93115234,-0.31835938,-0.19921875,10.253906,2.0141602,2.5634766,0.0,0.0,0.0,-120.08057,67.527466,-86.918335
1766813507476,-0.9370117,-0.31933594,-0.19873047,10.498047,2.4414062,3.2958984,0.0,0.0,0.0,-120.08057,67.527466,-86.918335
1766813507488,-0.9370117,-0.31933594,-0.19873047,10.498047,2.4414062,3.2958984,0.0,0.0,0.0,-120.0531,67.67029,-87.78076
1766813507576,-0.92285156,-0.3154297,-0.19970703,11.291504,4.333496,2.6245117,0.0,0.0,0.0,-120.0531,67.67029,-87.78076
1766813507588,-0.92285156,-0.3154297,-0.19970703,11.291504,4.333496,2.6245117,0.0,0.0,0.0,-120.20691,67.7417,-88.83545
1766813507676,-0.9291992,-0.30810547,-0.19482422,14.892578,3.112793,3.3569336,0.0,0.0,0.0,-120.20691,67.7417,-88.83545
1766813507687,-0.9291992,-0.30810547,-0.19482422,14.892578,3.112793,3.3569336,0.0,0.0,0.0,-120.06409,67.79114,-89.868164
1766813507775,-0.93408203,-0.3149414,-0.19580078,18.859863,4.1503906,4.0893555,0.0,0.0,0.0,-120.06409,67.79114,-89.868164
1766813507787,-0.93408203,-0.3149414,-0.19580078,18.859863,4.1503906,4.0893555,0.0,0.0,0.0,-119.66858,67.961426,-90.928345
1766813507875,-0.92333984,-0.3154297,-0.1953125,20.019531,3.2958984,5.065918,0.0,0.0,0.0,-119.66858,67.961426,-90.928345
1766813507887,-0.92333984,-0.3154297,-0.1953125,20.019531,3.2958984,5.065918,0.0,0.0,0.0,-119.30603,68.12622,-92.28516
1766813507975,-0.92822266,-0.31933594,-0.1875,21.1792,3.3569336,6.4086914,0.0,0.0,0.0,-119.30603,68.12622,-92.28516
1766813507986,-0.92822266,-0.31933594,-0.1875,21.1792,3.3569336,6.4086914,0.0,0.0,0.0,-118.86658,68.43384,-93.64746
1766813508075,-0.9428711,-0.3256836,-0.17675781,17.211914,1.5258789,7.2021484,0.0,0.0,0.0,-118.86658,68.43384,-93.64746
1766813508086,-0.9428711,-0.3256836,-0.17675781,17.211914,1.5258789,7.2021484,0.0,0.0,0.0,-118.38318,68.8678,-94.801025
1766813508174,-0.94091797,-0.3095703,-0.171875,13.366699,2.319336,4.3945312,0.0,0.0,0.0,-118.38318,68.8678,-94.801025
1766813508186,-0.94091797,-0.3095703,-0.171875,13.366699,2.319336,4.3945312,0.0,0.0,0.0,-118.31726,69.142456,-95.97107
1766813508274,-0.94970703,-0.2939453,-0.1772461,11.535645,3.112793,3.4179688,0.0,0.0,0.0,-118.31726,69.142456,-95.97107
1766813508286,-0.94970703,-0.2939453,-0.1772461,11.535645,3.112793,3.4179688,0.0,0.0,0.0,-118.427124,69.29077,-96.899414
1766813508374,-0.93408203,-0.3017578,-0.17236328,8.056641,3.1738281,3.4179688,0.0,0.0,0.0,-118.427124,69.29077,-96.899414
1766813508385,-0.93408203,-0.3017578,-0.17236328,8.056641,3.1738281,3.4179688,0.0,0.0,0.0,-118.95447,69.37317,-98.05847
1766813508473,-0.9428711,-0.2915039,-0.16748047,5.432129,1.0986328,4.699707,0.0,0.0,0.0,-118.95447,69.37317,-98.05847
1766813508485,-0.9428711,-0.2915039,-0.16748047,5.432129,1.0986328,4.699707,0.0,0.0,0.0,-119.45984,69.609375,-98.7561
1766813508573,-0.9472656,-0.28027344,-0.16845703,3.2348633,1.2817383,4.3945312,0.0,0.0,0.0,-119.45984,69.609375,-98.7561
1766813508585,-0.9472656,-0.28027344,-0.16845703,3.2348633,1.2817383,4.3945312,0.0,0.0,0.0,-119.99817,69.906006,-99.23401
1766813508673,-0.9448242,-0.265625,-0.1743164,2.9296875,-0.48828125,3.6010742,0.0,0.0,0.0,-119.99817,69.906006,-99.23401
1766813508684,-0.9448242,-0.265625,-0.1743164,2.9296875,-0.48828125,3.6010742,0.0,0.0,0.0,-120.39368,70.26306,-99.37134
1766813508772,-0.953125,-0.2626953,-0.16699219,2.9296875,-1.8310547,2.8076172,0.0,0.0,0.0,-120.39368,70.26306,-99.37134
1766813508784,-0.953125,-0.2626953,-0.16699219,2.9296875,-1.8310547,2.8076172,0.0,0.0,0.0,-120.338745,70.64758,-99.04175
1766813508872,-0.9526367,-0.26757812,-0.1640625,2.8686523,-1.8310547,1.5869141,0.0,0.0,0.0,-120.338745,70.64758,-99.04175
1766813508884,-0.9526367,-0.26757812,-0.1640625,2.8686523,-1.8310547,1.5869141,0.0,0.0,0.0,-119.9762,70.96619,-98.42651
1766813508972,-0.95458984,-0.2626953,-0.15234375,3.6010742,-0.5493164,0.8544922,0.0,0.0,0.0,-119.9762,70.96619,-98.42651
1766813508983,-0.95458984,-0.2626953,-0.15234375,3.6010742,-0.5493164,0.8544922,0.0,0.0,0.0,-119.696045,71.09253,-97.99255
1766813509072,-0.9584961,-0.26708984,-0.15332031,4.211426,2.9907227,0.91552734,0.0,0.0,0.0,-119.696045,71.09253,-97.99255
1766813509083,-0.9584961,-0.26708984,-0.15332031,4.211426,2.9907227,0.91552734,0.0,0.0,0.0,-119.696045,71.152954,-97.89917
1766813509171,-0.9550781,-0.2607422,-0.16064453,3.9672852,3.2348633,1.0986328,0.0,0.0,0.0,-119.696045,71.152954,-97.89917
1766813509183,-0.9550781,-0.2607422,-0.16064453,3.9672852,3.2348633,1.0986328,0.0,0.0,0.0,-120.250854,71.119995,-98.40454
1766813509271,-0.9555664,-0.2631836,-0.16113281,2.5634766,2.5024414,1.7089844,0.0,0.0,0.0,-120.250854,71.119995,-98.40454
1766813509282,-0.9555664,-0.2631836,-0.16113281,2.5634766,2.5024414,1.7089844,0.0,0.0,0.0,-120.97046,71.087036,-99.036255
1766813509371,-0.95410156,-0.2607422,-0.16357422,3.112793,2.9296875,0.91552734,0.0,0.0,0.0,-120.97046,71.087036,-99.036255
1766813509383,-0.95410156,-0.2607422,-0.16357422,3.112793,2.9296875,0.91552734,0.0,0.0,0.0,-121.552734,71.12549,-99.39331
1766813509470,-0.94873047,-0.2578125,-0.1616211,1.3427734,0.7324219,0.91552734,0.0,0.0,0.0,-121.552734,71.12549,-99.39331
1766813509482,-0.94873047,-0.2578125,-0.1616211,1.3427734,0.7324219,0.91552734,0.0,0.0,0.0,-121.95923,71.13098,-99.49768
1766813509570,-0.9580078,-0.25927734,-0.16601562,-0.4272461,0.24414062,0.18310547,0.0,0.0,0.0,-121.95923,71.13098,-99.49768
1766813509581,-0.9580078,-0.25927734,-0.16601562,-0.4272461,0.24414062,0.18310547,0.0,0.0,0.0,-122.02515,71.22986,-99.069214
1766813509670,-0.95214844,-0.25878906,-0.171875,-2.1972656,-1.7700195,-1.8920898,0.0,0.0,0.0,-122.02515,71.22986,-99.069214
1766813509681,-0.95214844,-0.25878906,-0.171875,-2.1972656,-1.7700195,-1.8920898,0.0,0.0,0.0,-121.849365,71.224365,-98.256226
1766813509769,-0.9472656,-0.2631836,-0.16992188,-1.8310547,-2.4414062,-3.7231445,0.0,0.0,0.0,-121.849365,71.224365,-98.256226
1766813509781,-0.9472656,-0.2631836,-0.16992188,-1.8310547,-2.4414062,-3.7231445,0.0,0.0,0.0,-121.327515,71.07056,-97.04224
1766813509870,-0.9472656,-0.27001953,-0.17089844,-4.272461,-0.18310547,-3.3569336,0.0,0.0,0.0,-121.327515,71.07056,-97.04224
1766813509881,-0.9472656,-0.27001953,-0.17089844,-4.272461,-0.18310547,-3.3569336,0.0,0.0,0.0,-120.81116,70.86182,-95.7074
1766813509969,-0.9482422,-0.26757812,-0.17919922,-5.6762695,-2.380371,-1.2817383,0.0,0.0,0.0,-120.81116,70.86182,-95.7074
1766813509980,-0.9482422,-0.26757812,-0.17919922,-5.6762695,-2.380371,-1.2817383,0.0,0.0,0.0,-120.72327,70.82886,-94.729614
1766813510068,-0.94433594,-0.26660156,-0.17236328,-6.5307617,-3.3569336,-1.0986328,0.0,0.0,0.0,-120.72327,70.82886,-94.729614
1766813510080,-0.94433594,-0.26660156,-0.17236328,-6.5307617,-3.3569336,-1.0986328,0.0,0.0,0.0,-120.57495,70.86182,-93.70239
1766813510168,-0.9477539,-0.27441406,-0.16894531,-5.6152344,-3.3569336,-1.8310547,0.0,0.0,0.0,-120.57495,70.86182,-93.70239
1766813510180,-0.9477539,-0.27441406,-0.16894531,-5.6152344,-3.3569336,-1.8310547,0.0,0.0,0.0,-120.10803,70.93872,-92.36206
1766813510268,-0.94384766,-0.27978516,-0.16357422,-6.8359375,-3.2348633,-1.159668,0.0,0.0,0.0,-120.10803,70.93872,-92.36206
1766813510280,-0.94384766,-0.27978516,-0.16357422,-6.8359375,-3.2348633,-1.159668,0.0,0.0,0.0,-119.608154,70.9552,-91.02722
1766813510367,-0.9663086,-0.2861328,-0.16064453,-3.2348633,-4.8217773,-2.0751953,0.0,0.0,0.0,-119.608154,70.9552,-91.02722
1766813510379,-0.9663086,-0.2861328,-0.16064453,-3.2348633,-4.8217773,-2.0751953,0.0,0.0,0.0,-118.58093,71.14197,-89.45068
1766813510467,-0.93847656,-0.2944336,-0.15332031,-7.5683594,-2.2583008,-1.8310547,0.0,0.0,0.0,-118.58093,71.14197,-89.45068
1766813510479,-0.93847656,-0.2944336,-0.15332031,-7.5683594,-2.2583008,-1.8310547,0.0,0.0,0.0,-118.35022,71.00464,-88.57178
1766813510567,-0.9536133,-0.27490234,-0.1586914,-2.6245117,-1.7700195,-0.9765625,0.0,0.0,0.0,-118.35022,71.00464,-88.57178
1766813510579,-0.9536133,-0.27490234,-0.1586914,-2.6245117,-1.7700195,-0.9765625,0.0,0.0,0.0,-118.00415,70.94971,-87.80823
1766813510667,-0.9550781,-0.28125,-0.1616211,-1.0986328,0.061035156,-1.0986328,0.0,0.0,0.0,-118.00415,70.94971,-87.80823
1766813510678,-0.9550781,-0.28125,-0.1616211,-1.0986328,0.061035156,-1.0986328,0.0,0.0,0.0,-117.85034,70.944214,-87.49512
1766813510766,-0.94189453,-0.28125,-0.14794922,1.2207031,-0.9765625,0.4272461,0.0,0.0,0.0,-117.85034,70.944214,-87.49512
1766813510778,-0.94189453,-0.28125,-0.14794922,1.2207031,-0.9765625,0.4272461,0.0,0.0,0.0,-117.87781,70.91675,-87.577515
1766813510866,-0.953125,-0.28515625,-0.14501953,0.7324219,-1.0986328,1.953125,0.0,0.0,0.0,-117.87781,70.91675,-87.577515
1766813510877,-0.953125,-0.28515625,-0.14501953,0.7324219,-1.0986328,1.953125,0.0,0.0,0.0,-117.66907,71.06506,-87.55554
1766813510966,-0.9506836,-0.2783203,-0.14501953,1.3427734,-0.61035156,0.9765625,0.0,0.0,0.0,-117.66907,71.06506,-87.55554
1766813510977,-0.9506836,-0.2783203,-0.14501953,1.3427734,-0.61035156,0.9765625,0.0,0.0,0.0,-117.47131,71.20239,-87.489624
1766813511065,-0.9526367,-0.27783203,-0.13867188,1.0375977,-0.30517578,2.319336,0.0,0.0,0.0,-117.47131,71.20239,-87.489624
1766813511077,-0.9526367,-0.27783203,-0.13867188,1.0375977,-0.30517578,2.319336,0.0,0.0,0.0,-117.4823,71.35071,-87.648926
1766813511165,-0.95703125,-0.2685547,-0.140625,2.5024414,0.061035156,1.4038086,0.0,0.0,0.0,-117.4823,71.35071,-87.648926
1766813511177,-0.95703125,-0.2685547,-0.140625,2.5024414,0.061035156,1.4038086,0.0,0.0,0.0,-117.59216,71.48804,-87.94556
1766813511265,-0.96484375,-0.25634766,-0.14794922,7.385254,1.0375977,1.0986328,0.0,0.0,0.0,-117.59216,71.48804,-87.94556
1766813511276,-0.96484375,-0.25634766,-0.14794922,7.385254,1.0375977,1.0986328,0.0,0.0,0.0,-117.509766,71.66931,-88.33557
1766813511364,-0.9511719,-0.2685547,-0.14550781,7.2631836,3.90625,-0.24414062,0.0,0.0,0.0,-117.509766,71.66931,-88.33557
1766813511376,-0.9511719,-0.2685547,-0.14550781,7.2631836,3.90625,-0.24414062,0.0,0.0,0.0,-117.46582,71.60339,-89.01123
1766813511464,-0.9526367,-0.27148438,-0.15185547,7.385254,2.380371,1.4648438,0.0,0.0,0.0,-117.46582,71.60339,-89.01123
1766813511476,-0.9526367,-0.27148438,-0.15185547,7.385254,2.380371,1.4648438,0.0,0.0,0.0,-117.46033,71.58142,-89.68689
1766813511564,-0.95751953,-0.27441406,-0.15722656,4.699707,2.319336,2.8076172,0.0,0.0,0.0,-117.46033,71.58142,-89.68689
1766813511575,-0.95751953,-0.27441406,-0.15722656,4.699707,2.319336,2.8076172,0.0,0.0,0.0,-117.92175,71.658325,-90.719604
1766813511664,-0.9404297,-0.2529297,-0.13916016,2.1972656,2.8076172,4.5776367,0.0,0.0,0.0,-117.92175,71.658325,-90.719604
1766813511675,-0.9404297,-0.2529297,-0.13916016,2.1972656,2.8076172,4.5776367,0.0,0.0,0.0,-119.16321,71.83411,-92.13684
1766813511763,-0.9609375,-0.2631836,-0.15234375,0.48828125,0.12207031,3.90625,0.0,0.0,0.0,-119.16321,71.83411,-92.13684
1766813511775,-0.9609375,-0.2631836,-0.15234375,0.48828125,0.12207031,3.90625,0.0,0.0,0.0,-119.5697,72.2406,-92.53784
1766813511863,-0.9536133,-0.25585938,-0.14941406,-2.2583008,-0.36621094,2.0141602,0.0,0.0,0.0,-119.5697,72.2406,-92.53784
1766813511875,-0.9536133,-0.25585938,-0.14941406,-2.2583008,-0.36621094,2.0141602,0.0,0.0,0.0,-120.162964,72.48779,-92.84546
1766813511963,-0.9580078,-0.24316406,-0.14990234,-1.7700195,-0.91552734,0.91552734,0.0,0.0,0.0,-120.162964,72.48779,-92.84546
1766813511974,-0.9580078,-0.24316406,-0.14990234,-1.7700195,-0.91552734,0.91552734,0.0,0.0,0.0,-120.41565,72.647095,-92.67517
1766813512062,-0.95751953,-0.2475586,-0.15673828,1.0986328,0.36621094,-0.48828125,0.0,0.0,0.0,-120.41565,72.647095,-92.67517
1766813512074,-0.95751953,-0.2475586,-0.15673828,1.0986328,0.36621094,-0.48828125,0.0,0.0,0.0,-120.43213,72.70752,-92.438965
1766813512162,-0.96484375,-0.25,-0.15771484,0.7324219,1.7700195,-1.2207031,0.0,0.0,0.0,-120.43213,72.70752,-92.438965
1766813512174,-0.96484375,-0.25,-0.15771484,0.7324219,1.7700195,-1.2207031,0.0,0.0,0.0,-120.322266,72.647095,-92.23572
1766813512262,-0.9580078,-0.23925781,-0.15527344,2.0751953,1.0986328,-0.8544922,0.0,0.0,0.0,-120.322266,72.647095,-92.23572
1766813512273,-0.9580078,-0.23925781,-0.15527344,2.0751953,1.0986328,-0.8544922,0.0,0.0,0.0,-120.668335,72.454834,-92.51587
1766813512361,-0.95654297,-0.25683594,-0.14746094,1.953125,3.6621094,-1.159668,0.0,0.0,0.0,-120.668335,72.454834,-92.51587
1766813512373,-0.95654297,-0.25683594,-0.14746094,1.953125,3.6621094,-1.159668,0.0,0.0,0.0,-120.54199,72.36694,-92.510376
1766813512461,-0.9609375,-0.2607422,-0.14990234,0.0,0.5493164,-1.3427734,0.0,0.0,0.0,-120.54199,72.36694,-92.510376
1766813512473,-0.9609375,-0.2607422,-0.14990234,0.0,0.5493164,-1.3427734,0.0,0.0,0.0,-120.67383,72.29553,-92.53784
1766813512561,-0.95166016,-0.25585938,-0.15136719,-3.90625,-0.61035156,-0.6713867,0.0,0.0,0.0,-120.67383,72.29553,-92.53784
1766813512572,-0.95166016,-0.25585938,-0.15136719,-3.90625,-0.61035156,-0.6713867,0.0,0.0,0.0,-120.84412,72.15271,-92.38403
1766813512660,-0.9609375,-0.25439453,-0.15576172,-4.333496,-0.91552734,-0.48828125,0.0,0.0,0.0,-120.84412,72.15271,-92.38403
1766813512672,-0.9609375,-0.25439453,-0.15576172,-4.333496,-0.91552734,-0.48828125,0.0,0.0,0.0,-120.81116,72.19116,-91.78528
1766813512760,-0.9555664,-0.2529297,-0.1640625,-4.1503906,0.12207031,-0.30517578,0.0,0.0,0.0,-120.81116,72.19116,-91.78528
1766813512772,-0.9555664,-0.2529297,-0.1640625,-4.1503906,0.12207031,-0.30517578,0.0,0.0,0.0,-121.12427,72.15271,-91.571045
1766813512860,-0.95947266,-0.24560547,-0.16894531,-1.0375977,0.12207031,0.30517578,0.0,0.0,0.0,-121.12427,72.15271,-91.571045
1766813512871,-0.95947266,-0.24560547,-0.16894531,-1.0375977,0.12207031,0.30517578,0.0,0.0,0.0,-121.65161,72.10327,-91.7688
1766813512960,-0.94970703,-0.23242188,-0.16601562,2.8686523,3.112793,1.0986328,0.0,0.0,0.0,-121.65161,72.10327,-91.7688
1766813512971,-0.94970703,-0.23242188,-0.16601562,2.8686523,3.112793,1.0986328,0.0,0.0,0.0,-122.2229,72.15271,-92.27966
1766813513059,-0.95996094,-0.24023438,-0.17626953,5.3100586,0.7324219,1.7089844,0.0,0.0,0.0,-122.2229,72.15271,-92.27966
1766813513071,-0.95996094,-0.24023438,-0.17626953,5.3100586,0.7324219,1.7089844,0.0,0.0,0.0,-122.66785,72.26807,-93.0542
1766813513159,-0.94677734,-0.25146484,-0.1616211,4.8828125,0.48828125,1.0375977,0.0,0.0,0.0,-122.66785,72.26807,-93.0542
1766813513170,-0.94677734,-0.25146484,-0.1616211,4.8828125,0.48828125,1.0375977,0.0,0.0,0.0,-122.87659,72.29553,-93.757324
1766813513259,-0.95751953,-0.25048828,-0.16552734,3.2348633,-0.24414062,0.4272461,0.0,0.0,0.0,-122.87659,72.29553,-93.757324
1766813513270,-0.95751953,-0.25048828,-0.16552734,3.2348633,-0.24414062,0.4272461,0.0,0.0,0.0,-122.61841,72.38342,-93.75183
1766813513358,-0.9580078,-0.25585938,-0.15966797,0.30517578,-1.2207031,-0.061035156,0.0,0.0,0.0,-122.61841,72.38342,-93.75183
1766813513370,-0.9580078,-0.25585938,-0.15966797,0.30517578,-1.2207031,-0.061035156,0.0,0.0,0.0,-122.299805,72.42737,-93.47168
1766813513458,-0.9536133,-0.2529297,-0.16015625,-1.2207031,-0.30517578,-0.8544922,0.0,0.0,0.0,-122.299805,72.42737,-93.47168
1766813513470,-0.9536133,-0.2529297,-0.16015625,-1.2207031,-0.30517578,-0.8544922,0.0,0.0,0.0,-122.06909,72.41089,-93.02673
1766813513558,-0.9614258,-0.2475586,-0.16308594,-2.6855469,0.18310547,-0.8544922,0.0,0.0,0.0,-122.06909,72.41089,-93.02673
1766813513569,-0.9614258,-0.2475586,-0.16308594,-2.6855469,0.18310547,-0.8544922,0.0,0.0,0.0,-121.97571,72.388916,-92.55432
1766813513657,-0.95703125,-0.24707031,-0.15917969,-2.0141602,-0.7324219,-0.8544922,0.0,0.0,0.0,-121.97571,72.388916,-92.55432
1766813513669,-0.95703125,-0.24707031,-0.15917969,-2.0141602,-0.7324219,-0.8544922,0.0,0.0,0.0,-122.08008,72.284546,-92.38403
1766813513757,-0.9580078,-0.24658203,-0.16357422,-0.91552734,0.18310547,-0.061035156,0.0,0.0,0.0,-122.08008,72.284546,-92.38403
1766813513769,-0.9580078,-0.24658203,-0.16357422,-0.91552734,0.18310547,-0.061035156,0.0,0.0,0.0,-122.18445,72.25708,-92.301636
1766813513857,-0.9584961,-0.24609375,-0.16357422,0.79345703,1.0986328,0.061035156,0.0,0.0,0.0,-122.18445,72.25708,-92.301636
1766813513868,-0.9584961,-0.24609375,-0.16357422,0.79345703,1.0986328,0.061035156,0.0,0.0,0.0,-122.371216,72.24609,-92.422485
1766813513957,-0.9580078,-0.24658203,-0.1665039,0.79345703,0.30517578,0.79345703,0.0,0.0,0.0,-122.371216,72.24609,-92.422485
1766813513968,-0.9580078,-0.24658203,-0.1665039,0.79345703,0.30517578,0.79345703,0.0,0.0,0.0,-122.61841,72.25708,-92.68616
1766813514056,-0.9555664,-0.24658203,-0.16503906,2.0141602,0.8544922,0.6713867,0.0,0.0,0.0,-122.61841,72.25708,-92.68616
1766813514068,-0.9555664,-0.24658203,-0.16503906,2.0141602,0.8544922,0.6713867,0.0,0.0,0.0,-122.77222,72.29553,-92.93335
1766813514156,-0.95654297,-0.24804688,-0.1665039,1.6479492,0.6713867,0.4272461,0.0,0.0,0.0,-122.77222,72.29553,-92.93335
1766813514167,-0.95654297,-0.24804688,-0.1665039,1.6479492,0.6713867,0.4272461,0.0,0.0,0.0,-122.91504,72.31201,-93.16406
1766813514256,-0.95654297,-0.24804688,-0.16455078,0.79345703,0.61035156,0.12207031,0.0,0.0,0.0,-122.91504,72.31201,-93.16406
1766813514267,-0.95654297,-0.24804688,-0.16455078,0.79345703,0.61035156,0.12207031,0.0,0.0,0.0,-123.0249,72.317505,-93.24097
1766813514355,-0.9560547,-0.24951172,-0.16503906,0.18310547,1.3427734,-0.8544922,0.0,0.0,0.0,-123.0249,72.317505,-93.24097
1766813514367,-0.9560547,-0.24951172,-0.16503906,0.18310547,1.3427734,-0.8544922,0.0,0.0,0.0,-123.20618,72.24609,-93.2959
1766813514455,-0.95654297,-0.24951172,-0.17089844,-0.91552734,1.0986328,-0.8544922,0.0,0.0,0.0,-123.20618,72.24609,-93.2959
1766813514467,-0.95654297,-0.24951172,-0.17089844,-0.91552734,1.0986328,-0.8544922,0.0,0.0,0.0,-123.2666,72.14172,-93.186035
1766813514555,-0.95703125,-0.25048828,-0.17529297,-0.9765625,1.5258789,-1.0986328,0.0,0.0,0.0,-123.2666,72.14172,-93.186035
1766813514566,-0.95703125,-0.25048828,-0.17529297,-0.9765625,1.5258789,-1.0986328,0.0,0.0,0.0,-123.55774,72.004395,-93.24097
1766813514654,-0.94873047,-0.25146484,-0.17675781,-0.79345703,2.0751953,-1.0986328,0.0,0.0,0.0,-123.55774,72.004395,-93.24097
1766813514666,-0.94873047,-0.25146484,-0.17675781,-0.79345703,2.0751953,-1.0986328,0.0,0.0,0.0,-123.986206,71.80115,-93.44971
1766813514754,-0.9536133,-0.25,-0.18359375,-0.30517578,1.5869141,-0.91552734,0.0,0.0,0.0,-123.986206,71.80115,-93.44971
1766813514766,-0.9536133,-0.25,-0.18359375,-0.30517578,1.5869141,-0.91552734,0.0,0.0,0.0,-124.244385,71.674805,-93.499146
1766813514854,-0.9501953,-0.25390625,-0.18359375,0.0,0.6713867,-0.5493164,0.0,0.0,0.0,-124.244385,71.674805,-93.499146
1766813514865,-0.9501953,-0.25390625,-0.18359375,0.0,0.6713867,-0.5493164,0.0,0.0,0.0,-124.46411,71.54297,-93.63098
1766813514953,-0.94921875,-0.2548828,-0.18554688,0.8544922,-0.30517578,0.0,0.0,0.0,0.0,-124.46411,71.54297,-93.63098
1766813514965,-0.94921875,-0.2548828,-0.18554688,0.8544922,-0.30517578,0.0,0.0,0.0,0.0,-124.50256,71.50452,-93.64197
1766813515053,-0.953125,-0.25585938,-0.18066406,0.24414062,-0.48828125,0.6713867,0.0,0.0,0.0,-124.50256,71.50452,-93.64197
1766813515065,-0.953125,-0.25585938,-0.18066406,0.24414062,-0.48828125,0.6713867,0.0,0.0,0.0,-124.541016,71.54846,-93.66394
1766813515153,-0.94677734,-0.2548828,-0.18408203,2.4414062,0.8544922,0.061035156,0.0,0.0,0.0,-124.541016,71.54846,-93.66394
1766813515164,-0.94677734,-0.2548828,-0.18408203,2.4414062,0.8544922,0.061035156,0.0,0.0,0.0,-124.58496,71.55945,-93.71338
1766813515252,-0.95214844,-0.25146484,-0.17871094,1.0986328,0.8544922,0.7324219,0.0,0.0,0.0,-124.58496,71.55945,-93.71338
1766813515264,-0.95214844,-0.25146484,-0.17871094,1.0986328,0.8544922,0.7324219,0.0,0.0,0.0,-124.552,71.60889,-93.66394
1766813515352,-0.95996094,-0.25195312,-0.18652344,2.6245117,2.380371,0.061035156,0.0,0.0,0.0,-124.552,71.60889,-93.66394
1766813515364,-0.95996094,-0.25195312,-0.18652344,2.6245117,2.380371,0.061035156,0.0,0.0,0.0,-124.74426,71.60339,-93.933105
1766813515452,-0.9477539,-0.2529297,-0.18066406,1.5869141,1.953125,0.061035156,0.0,0.0,0.0,-124.74426,71.60339,-93.933105
1766813515463,-0.9477539,-0.2529297,-0.18066406,1.5869141,1.953125,0.061035156,0.0,0.0,0.0,-125.25513,71.46057,-94.57031
1766813515552,-0.9526367,-0.2524414,-0.1875,0.91552734,1.7700195,-0.36621094,0.0,0.0,0.0,-125.25513,71.46057,-94.57031
1766813515563,-0.9526367,-0.2524414,-0.1875,0.91552734,1.7700195,-0.36621094,0.0,0.0,0.0,-125.45288,71.38367,-94.75708
1766813515651,-0.9482422,-0.2524414,-0.18896484,0.18310547,0.0,-0.5493164,0.0,0.0,0.0,-125.45288,71.38367,-94.75708
1766813515663,-0.9482422,-0.2524414,-0.18896484,0.18310547,0.0,-0.5493164,0.0,0.0,0.0,-125.52429,71.30676,-94.71863
1766813515751,-0.95166016,-0.2553711,-0.18701172,0.12207031,-0.24414062,-0.8544922,0.0,0.0,0.0,-125.52429,71.30676,-94.71863
1766813515762,-0.95166016,-0.2553711,-0.18701172,0.12207031,-0.24414062,-0.8544922,0.0,0.0,0.0,-125.38147,71.26282,-94.454956
1766813515851,-0.9477539,-0.25732422,-0.19091797,0.4272461,-0.61035156,-1.0986328,0.0,0.0,0.0,-125.38147,71.26282,-94.454956
1766813515862,-0.9477539,-0.25732422,-0.19091797,0.4272461,-0.61035156,-1.0986328,0.0,0.0,0.0,-125.112305,71.20239,-94.11987
1766813515950,-0.94970703,-0.2553711,-0.18652344,1.3427734,-1.5869141,-0.91552734,0.0,0.0,0.0,-125.112305,71.20239,-94.11987
1766813515962,-0.94970703,-0.2553711,-0.18652344,1.3427734,-1.5869141,-0.91552734,0.0,0.0,0.0,-124.766235,71.16943,-93.73535
1766813516050,-0.9453125,-0.2553711,-0.18310547,1.159668,0.30517578,0.061035156,0.0,0.0,0.0,-124.766235,71.16943,-93.73535
1766813516062,-0.9453125,-0.2553711,-0.18310547,1.159668,0.30517578,0.061035156,0.0,0.0,0.0,-124.50806,71.18042,-93.48816
1766813516150,-0.9526367,-0.2578125,-0.18554688,0.61035156,-1.2207031,1.0375977,0.0,0.0,0.0,-124.50806,71.18042,-93.48816
1766813516161,-0.9526367,-0.2578125,-0.18554688,0.61035156,-1.2207031,1.0375977,0.0,0.0,0.0,-124.35974,71.30127,-93.3728
1766813516249,-0.94873047,-0.25585938,-0.18017578,0.061035156,-0.5493164,1.159668,0.0,0.0,0.0,-124.35974,71.30127,-93.3728
1766813516261,-0.94873047,-0.25585938,-0.18017578,0.061035156,-0.5493164,1.159668,0.0,0.0,0.0,-124.486084,71.40015,-93.515625
1766813516349,-0.9482422,-0.25,-0.17871094,0.5493164,-0.9765625,1.4648438,0.0,0.0,0.0,-124.486084,71.40015,-93.515625
1766813516361,-0.9482422,-0.25,-0.17871094,0.5493164,-0.9765625,1.4648438,0.0,0.0,0.0,-124.49707,71.58142,-93.46069
1766813516449,-0.9555664,-0.25195312,-0.17919922,0.0,-1.8310547,1.7700195,0.0,0.0,0.0,-124.49707,71.58142,-93.46069
1766813516461,-0.9555664,-0.25195312,-0.17919922,0.0,-1.8310547,1.7700195,0.0,0.0,0.0,-124.40918,71.80115,-93.34534
1766813516549,-0.9511719,-0.24853516,-0.17822266,-0.5493164,-2.380371,1.4038086,0.0,0.0,0.0,-124.40918,71.80115,-93.34534
1766813516560,-0.9511719,-0.24853516,-0.17822266,-0.5493164,-2.380371,1.4038086,0.0,0.0,0.0,-124.27734,72.03735,-93.08716
1766813516648,-0.9560547,-0.24023438,-0.171875,-0.6713867,-0.79345703,1.159668,0.0,0.0,0.0,-124.27734,72.03735,-93.08716
1766813516660,-0.9560547,-0.24023438,-0.171875,-0.6713867,-0.79345703,1.159668,0.0,0.0,0.0,-124.16748,72.25159,-92.75757
1766813516748,-0.96240234,-0.23779297,-0.17285156,-0.48828125,-1.4648438,1.8310547,0.0,0.0,0.0,-124.16748,72.25159,-92.75757
1766813516760,-0.96240234,-0.23779297,-0.17285156,-0.48828125,-1.4648438,1.8310547,0.0,0.0,0.0,-124.09607,72.43286,-92.60376
1766813516848,-0.96191406,-0.23095703,-0.171875,0.24414062,0.7324219,2.0751953,0.0,0.0,0.0,-124.09607,72.43286,-92.60376
1766813516859,-0.96191406,-0.23095703,-0.171875,0.24414062,0.7324219,2.0751953,0.0,0.0,0.0,-124.61792,72.58667,-93.09265
1766813516948,-0.95996094,-0.22851562,-0.171875,1.159668,1.3427734,2.0141602,0.0,0.0,0.0,-124.61792,72.58667,-93.09265
1766813516959,-0.95996094,-0.22851562,-0.171875,1.159668,1.3427734,2.0141602,0.0,0.0,0.0,-125.24963,72.70752,-93.80127
1766813517047,-0.9604492,-0.22998047,-0.17285156,0.79345703,1.2207031,1.3427734,0.0,0.0,0.0,-125.24963,72.70752,-93.80127
1766813517058,-0.9604492,-0.22998047,-0.17285156,0.79345703,1.2207031,1.3427734,0.0,0.0,0.0,-125.771484,72.81738,-94.350586
1766813517147,-0.9604492,-0.22851562,-0.17285156,0.6713867,0.12207031,0.12207031,0.0,0.0,0.0,-125.771484,72.81738,-94.350586
1766813517158,-0.9604492,-0.22851562,-0.17285156,0.6713867,0.12207031,0.12207031,0.0,0.0,0.0,-126.03516,72.85034,-94.608765
1766813517246,-0.95996094,-0.22753906,-0.17529297,0.4272461,0.18310547,-0.12207031,0.0,0.0,0.0,-126.03516,72.85034,-94.608765
1766813517258,-0.95996094,-0.22753906,-0.17529297,0.4272461,0.18310547,-0.12207031,0.0,0.0,0.0,-126.09009,72.839355,-94.64722
1766813517346,-0.95947266,-0.22851562,-0.17236328,0.91552734,-0.30517578,-0.7324219,0.0,0.0,0.0,-126.09009,72.839355,-94.64722
1766813517358,-0.95947266,-0.22851562,-0.17236328,0.91552734,-0.30517578,-0.7324219,0.0,0.0,0.0,-126.01318,72.81189,-94.56482
1766813517446,-0.9560547,-0.2319336,-0.17236328,1.0375977,0.12207031,-1.5869141,0.0,0.0,0.0,-126.01318,72.81189,-94.56482
1766813517457,-0.9560547,-0.2319336,-0.17236328,1.0375977,0.12207031,-1.5869141,0.0,0.0,0.0,-125.69458,72.77893,-94.21875
1766813517545,-0.9609375,-0.23779297,-0.17236328,-0.30517578,-1.7089844,-1.2817383,0.0,0.0,0.0,-125.69458,72.77893,-94.21875
1766813517557,-0.9609375,-0.23779297,-0.17236328,-0.30517578,-1.7089844,-1.2817383,0.0,0.0,0.0,-125.10132,72.767944,-93.57056
1766813517645,-0.9580078,-0.23486328,-0.16845703,-1.2817383,-2.380371,-1.4648438,0.0,0.0,0.0,-125.10132,72.767944,-93.57056
1766813517657,-0.9580078,-0.23486328,-0.16845703,-1.2817383,-2.380371,-1.4648438,0.0,0.0,0.0,-124.6344,72.734985,-92.94983
1766813517745,-0.9560547,-0.23486328,-0.16503906,-1.4648438,-1.2207031,-1.159668,0.0,0.0,0.0,-124.6344,72.734985,-92.94983
1766813517756,-0.9560547,-0.23486328,-0.16503906,-1.4648438,-1.2207031,-1.159668,0.0,0.0,0.0,-124.11255,72.718506,-92.246704
1766813517844,-0.9604492,-0.23779297,-0.16552734,-2.8076172,-1.953125,-0.24414062,0.0,0.0,0.0,-124.11255,72.718506,-92.246704
1766813517856,-0.9604492,-0.23779297,-0.16552734,-2.8076172,-1.953125,-0.24414062,0.0,0.0,0.0,-123.75549,72.822876,-91.6095
1766813517944,-0.95947266,-0.2397461,-0.16210938,-3.112793,-1.7700195,-0.12207031,0.0,0.0,0.0,-123.75549,72.822876,-91.6095
1766813517956,-0.95947266,-0.2397461,-0.16210938,-3.112793,-1.7700195,-0.12207031,0.0,0.0,0.0,-123.60718,72.90527,-91.18103
1766813518044,-0.96191406,-0.234375,-0.1665039,-3.6621094,-1.0986328,-0.18310547,0.0,0.0,0.0,-123.60718,72.90527,-91.18103
1766813518055,-0.96191406,-0.234375,-0.1665039,-3.6621094,-1.0986328,-0.18310547,0.0,0.0,0.0,-123.57422,72.95471,-90.8844
1766813518144,-0.9580078,-0.23242188,-0.1665039,-1.6479492,-0.24414062,-0.6713867,0.0,0.0,0.0,-123.57422,72.95471,-90.8844
1766813518155,-0.9580078,-0.23242188,-0.1665039,-1.6479492,-0.24414062,-0.6713867,0.0,0.0,0.0,-123.689575,72.960205,-90.78552
1766813518243,-0.9580078,-0.24023438,-0.16455078,-2.0141602,-0.4272461,-0.91552734,0.0,0.0,0.0,-123.689575,72.960205,-90.78552
1766813518255,-0.9580078,-0.24023438,-0.16455078,-2.0141602,-0.4272461,-0.91552734,0.0,0.0,0.0,-123.70056,72.943726,-90.62073
1766813518343,-0.95996094,-0.234375,-0.1640625,-2.0141602,-0.24414062,-0.79345703,0.0,0.0,0.0,-123.70056,72.943726,-90.62073
1766813518355,-0.95996094,-0.234375,-0.1640625,-2.0141602,-0.24414062,-0.79345703,0.0,0.0,0.0,-123.53577,72.93823,-90.29114
1766813518443,-0.95996094,-0.23144531,-0.16455078,-1.6479492,-1.2207031,-0.61035156,0.0,0.0,0.0,-123.53577,72.93823,-90.29114
1766813518454,-0.95996094,-0.23144531,-0.16455078,-1.6479492,-1.2207031,-0.61035156,0.0,0.0,0.0,-123.44238,72.976685,-90.03845
1766813518542,-0.9589844,-0.24023438,-0.16259766,-2.6245117,-0.18310547,-0.5493164,0.0,0.0,0.0,-123.44238,72.976685,-90.03845
1766813518554,-0.9589844,-0.24023438,-0.16259766,-2.6245117,-0.18310547,-0.5493164,0.0,0.0,0.0,-123.4314,72.94922,-89.956055
1766813518642,-0.9560547,-0.24023438,-0.16699219,-1.2207031,0.12207031,-1.7700195,0.0,0.0,0.0,-123.4314,72.94922,-89.956055
1766813518654,-0.9560547,-0.24023438,-0.16699219,-1.2207031,0.12207031,-1.7700195,0.0,0.0,0.0,-123.4314,72.855835,-89.818726
1766813518742,-0.9633789,-0.2421875,-0.16601562,-2.2583008,-0.61035156,-1.5869141,0.0,0.0,0.0,-123.4314,72.855835,-89.818726
1766813518753,-0.9633789,-0.2421875,-0.16601562,-2.2583008,-0.61035156,-1.5869141,0.0,0.0,0.0,-123.31055,72.751465,-89.58801
1766813518841,-0.95996094,-0.24951172,-0.16748047,0.12207031,2.746582,-2.2583008,0.0,0.0,0.0,-123.31055,72.751465,-89.58801
1766813518854,-0.95996094,-0.24951172,-0.16748047,0.12207031,2.746582,-2.2583008,0.0,0.0,0.0,-123.45337,72.51526,-89.75281
1766813518941,-0.953125,-0.24951172,-0.16455078,-0.061035156,1.5869141,-2.2583008,0.0,0.0,0.0,-123.45337,72.51526,-89.75281
1766813518953,-0.953125,-0.24951172,-0.16455078,-0.061035156,1.5869141,-2.2583008,0.0,0.0,0.0,-123.777466,72.19116,-90.164795
1766813519041,-0.95214844,-0.25585938,-0.16357422,0.24414062,1.8310547,-1.8310547,0.0,0.0,0.0,-123.777466,72.19116,-90.164795
1766813519052,-0.95214844,-0.25585938,-0.16357422,0.24414062,1.8310547,-1.8310547,0.0,0.0,0.0,-123.76648,71.987915,-90.24719
1766813519140,-0.9560547,-0.26123047,-0.16748047,-0.8544922,-0.6713867,-1.0375977,0.0,0.0,0.0,-123.76648,71.987915,-90.24719
1766813519152,-0.9560547,-0.26123047,-0.16748047,-0.8544922,-0.6713867,-1.0375977,0.0,0.0,0.0,-123.4314,71.89453,-90.03296
1766813519240,-0.9526367,-0.2607422,-0.16113281,-2.9296875,-1.5869141,-1.0375977,0.0,0.0,0.0,-123.4314,71.89453,-90.03296
1766813519252,-0.9526367,-0.2607422,-0.16113281,-2.9296875,-1.5869141,-1.0375977,0.0,0.0,0.0,-123.33801,71.80664,-89.82971
1766813519340,-0.9526367,-0.2578125,-0.16259766,-2.8076172,0.18310547,-0.9765625,0.0,0.0,0.0,-123.33801,71.80664,-89.82971
1766813519351,-0.9526367,-0.2578125,-0.16259766,-2.8076172,0.18310547,-0.9765625,0.0,0.0,0.0,-123.12927,71.77368,-89.417725
1766813519440,-0.9555664,-0.2524414,-0.16699219,-2.0141602,-0.4272461,-0.6713867,0.0,0.0,0.0,-123.12927,71.77368,-89.417725
1766813519451,-0.9555664,-0.2524414,-0.16699219,-2.0141602,-0.4272461,-0.6713867,0.0,0.0,0.0,-123.08533,71.746216,-89.23645
1766813519539,-0.9526367,-0.25683594,-0.17089844,-0.24414062,0.24414062,-0.4272461,0.0,0.0,0.0,-123.08533,71.746216,-89.23645
1766813519551,-0.9526367,-0.25683594,-0.17089844,-0.24414062,0.24414062,-0.4272461,0.0,0.0,0.0,-123.04138,71.71875,-89.208984
1766813519639,-0.94921875,-0.25390625,-0.16992188,1.0986328,0.30517578,0.061035156,0.0,0.0,0.0,-123.04138,71.71875,-89.208984
1766813519651,-0.94921875,-0.25390625,-0.16992188,1.0986328,0.30517578,0.061035156,0.0,0.0,0.0,-123.07434,71.6803,-89.434204
1766813519739,-0.953125,-0.2529297,-0.17333984,2.1972656,0.24414062,0.24414062,0.0,0.0,0.0,-123.07434,71.6803,-89.434204
1766813519750,-0.953125,-0.2529297,-0.17333984,2.1972656,0.24414062,0.24414062,0.0,0.0,0.0,-123.03589,71.69678,-89.65393
1766813519838,-0.9555664,-0.26123047,-0.1694336,3.6010742,-0.061035156,-0.18310547,0.0,0.0,0.0,-123.03589,71.69678,-89.65393
1766813519851,-0.9555664,-0.26123047,-0.1694336,3.6010742,-0.061035156,-0.18310547,0.0,0.0,0.0,-122.83264,71.70227,-89.81323
1766813519938,-0.9511719,-0.26123047,-0.1694336,1.7089844,0.8544922,-0.12207031,0.0,0.0,0.0,-122.83264,71.70227,-89.81323
1766813519950,-0.9511719,-0.26123047,-0.1694336,1.7089844,0.8544922,-0.12207031,0.0,0.0,0.0,-122.700806,71.66931,-89.99451
1766813520038,-0.9536133,-0.26464844,-0.17382812,-0.79345703,0.8544922,-0.36621094,0.0,0.0,0.0,-122.700806,71.66931,-89.99451
1766813520049,-0.9536133,-0.26464844,-0.17382812,-0.79345703,0.8544922,-0.36621094,0.0,0.0,0.0,-122.75574,71.63086,-90.12634
1766813520138,-0.9482422,-0.2631836,-0.17675781,-2.319336,0.4272461,-0.18310547,0.0,0.0,0.0,-122.75574,71.63086,-90.12634
1766813520149,-0.9482422,-0.2631836,-0.17675781,-2.319336,0.4272461,-0.18310547,0.0,0.0,0.0,-123.11279,71.520996,-90.373535
1766813520237,-0.9472656,-0.26416016,-0.1821289,-3.2348633,0.24414062,0.0,0.0,0.0,0.0,-123.11279,71.520996,-90.373535
1766813520249,-0.9472656,-0.26416016,-0.1821289,-3.2348633,0.24414062,0.0,0.0,0.0,0.0,-123.4259,71.49902,-90.44495
1766813520337,-0.9477539,-0.25439453,-0.18457031,-4.0893555,-1.2817383,0.30517578,0.0,0.0,0.0,-123.4259,71.49902,-90.44495
1766813520348,-0.9477539,-0.25439453,-0.18457031,-4.0893555,-1.2817383,0.30517578,0.0,0.0,0.0,-123.71704,71.5155,-90.41748
1766813520437,-0.95166016,-0.2524414,-0.18066406,-3.9672852,-1.7700195,-0.061035156,0.0,0.0,0.0,-123.71704,71.5155,-90.41748
1766813520448,-0.95166016,-0.2524414,-0.18066406,-3.9672852,-1.7700195,-0.061035156,0.0,0.0,0.0,-123.80493,71.61438,-90.14282
1766813520536,-0.9560547,-0.25634766,-0.17529297,-3.7231445,-2.319336,-0.4272461,0.0,0.0,0.0,-123.80493,71.61438,-90.14282
1766813520549,-0.9560547,-0.25634766,-0.17529297,-3.7231445,-2.319336,-0.4272461,0.0,0.0,0.0,-123.62915,71.72974,-89.642944
1766813520636,-0.95214844,-0.25585938,-0.17529297,-4.0283203,-2.4414062,-0.18310547,0.0,0.0,0.0,-123.62915,71.72974,-89.642944
1766813520647,-0.95214844,-0.25585938,-0.17529297,-4.0283203,-2.4414062,-0.18310547,0.0,0.0,0.0,-123.42041,71.78467,-89.16504
1766813520736,-0.95410156,-0.2548828,-0.1772461,-4.0283203,-2.380371,0.8544922,0.0,0.0,0.0,-123.42041,71.78467,-89.16504
1766813520747,-0.95410156,-0.2548828,-0.1772461,-4.0283203,-2.380371,0.8544922,0.0,0.0,0.0,-123.409424,71.922,-88.86841
1766813520836,-0.95458984,-0.24560547,-0.17529297,-2.9296875,-1.8310547,0.48828125,0.0,0.0,0.0,-123.409424,71.922,-88.86841
1766813520848,-0.95458984,-0.24560547,-0.17529297,-2.9296875,-1.8310547,0.48828125,0.0,0.0,0.0,-123.36548,72.075806,-88.64319
1766813520935,-0.95751953,-0.24316406,-0.171875,-0.5493164,-1.4038086,0.12207031,0.0,0.0,0.0,-123.36548,72.075806,-88.64319
1766813520947,-0.95751953,-0.24316406,-0.171875,-0.5493164,-1.4038086,0.12207031,0.0,0.0,0.0,-123.17871,72.196655,-88.45642
1766813521035,-0.95751953,-0.24169922,-0.1665039,2.1362305,-0.7324219,0.24414062,0.0,0.0,0.0,-123.17871,72.196655,-88.45642
1766813521046,-0.95751953,-0.24169922,-0.1665039,2.1362305,-0.7324219,0.24414062,0.0,0.0,0.0,-122.958984,72.27905,-88.43994
1766813521134,-0.9580078,-0.2475586,-0.16748047,3.479004,-0.8544922,0.30517578,0.0,0.0,0.0,-122.958984,72.27905,-88.43994
1766813521146,-0.9580078,-0.2475586,-0.16748047,3.479004,-0.8544922,0.30517578,0.0,0.0,0.0,-122.66785,72.323,-88.621216
1766813521234,-0.95458984,-0.2524414,-0.15771484,4.0893555,0.79345703,0.18310547,0.0,0.0,0.0,-122.66785,72.323,-88.621216
1766813521246,-0.95458984,-0.2524414,-0.15771484,4.0893555,0.79345703,0.18310547,0.0,0.0,0.0,-122.43713,72.32849,-88.92334
1766813521334,-0.95214844,-0.25439453,-0.15917969,4.1503906,1.7089844,0.48828125,0.0,0.0,0.0,-122.43713,72.32849,-88.92334
1766813521346,-0.95214844,-0.25439453,-0.15917969,4.1503906,1.7089844,0.48828125,0.0,0.0,0.0,-122.34924,72.317505,-89.34082
1766813521434,-0.95996094,-0.24658203,-0.16113281,2.5634766,0.9765625,2.0751953,0.0,0.0,0.0,-122.34924,72.317505,-89.34082
1766813521445,-0.95996094,-0.24658203,-0.16113281,2.5634766,0.9765625,2.0751953,0.0,0.0,0.0,-122.44263,72.3999,-89.85718
1766813521533,-0.96191406,-0.2421875,-0.16015625,2.4414062,0.5493164,2.5024414,0.0,0.0,0.0,-122.44263,72.3999,-89.85718
1766813521545,-0.96191406,-0.2421875,-0.16015625,2.4414062,0.5493164,2.5024414,0.0,0.0,0.0,-122.76123,72.58118,-90.46692
1766813521633,-0.9614258,-0.2319336,-0.16113281,2.319336,0.79345703,2.2583008,0.0,0.0,0.0,-122.76123,72.58118,-90.46692
1766813521644,-0.9614258,-0.2319336,-0.16113281,2.319336,0.79345703,2.2583008,0.0,0.0,0.0,-123.14575,72.74048,-91.11511
1766813521733,-0.95947266,-0.23583984,-0.16210938,2.6245117,0.48828125,1.7700195,0.0,0.0,0.0,-123.14575,72.74048,-91.11511
1766813521744,-0.95947266,-0.23583984,-0.16210938,2.6245117,0.48828125,1.7700195,0.0,0.0,0.0,-123.43689,72.8833,-91.658936
1766813521832,-0.9633789,-0.24121094,-0.16113281,1.8310547,0.18310547,0.4272461,0.0,0.0,0.0,-123.43689,72.8833,-91.658936
1766813521844,-0.9633789,-0.24121094,-0.16113281,1.8310547,0.18310547,0.4272461,0.0,0.0,0.0,-123.480835,72.94922,-91.91162
1766813521932,-0.95703125,-0.24169922,-0.16259766,0.0,0.6713867,-0.4272461,0.0,0.0,0.0,-123.480835,72.94922,-91.91162
1766813521943,-0.95703125,-0.24169922,-0.16259766,0.0,0.6713867,-0.4272461,0.0,0.0,0.0,-123.57422,72.89429,-92.04346
1766813522032,-0.9589844,-0.24365234,-0.16552734,-1.2207031,0.24414062,-0.7324219,0.0,0.0,0.0,-123.57422,72.89429,-92.04346
1766813522044,-0.9589844,-0.24365234,-0.16552734,-1.2207031,0.24414062,-0.7324219,0.0,0.0,0.0,-123.601685,72.822876,-91.972046
1766813522131,-0.95654297,-0.23925781,-0.16992188,-0.61035156,2.1362305,-1.159668,0.0,0.0,0.0,-123.601685,72.822876,-91.972046
1766813522143,-0.95654297,-0.23925781,-0.16992188,-0.61035156,2.1362305,-1.159668,0.0,0.0,0.0,-123.93677,72.67456,-92.109375
1766813522231,-0.95703125,-0.23730469,-0.17871094,-0.48828125,2.0751953,-0.30517578,0.0,0.0,0.0,-123.93677,72.67456,-92.109375
1766813522243,-0.95703125,-0.23730469,-0.17871094,-0.48828125,2.0751953,-0.30517578,0.0,0.0,0.0,-124.34326,72.509766,-92.471924
1766813522331,-0.9584961,-0.23486328,-0.18164062,0.79345703,1.0375977,0.18310547,0.0,0.0,0.0,-124.34326,72.509766,-92.471924
1766813522342,-0.9584961,-0.23486328,-0.18164062,0.79345703,1.0375977,0.18310547,0.0,0.0,0.0,-124.90906,72.42737,-93.010254
1766813522431,-0.95166016,-0.23339844,-0.17626953,2.9296875,0.91552734,0.12207031,0.0,0.0,0.0,-124.90906,72.42737,-93.010254
1766813522442,-0.95166016,-0.23339844,-0.17626953,2.9296875,0.91552734,0.12207031,0.0,0.0,0.0,-125.10132,72.388916,-93.34534
1766813522530,-0.9604492,-0.23632812,-0.17822266,4.8217773,1.159668,0.9765625,0.0,0.0,0.0,-125.10132,72.388916,-93.34534
1766813522542,-0.9604492,-0.23632812,-0.17822266,4.8217773,1.159668,0.9765625,0.0,0.0,0.0,-125.095825,72.44934,-93.66394
1766813522630,-0.95458984,-0.23535156,-0.1743164,6.7749023,1.3427734,1.7089844,0.0,0.0,0.0,-125.095825,72.44934,-93.66394
1766813522641,-0.95458984,-0.23535156,-0.1743164,6.7749023,1.3427734,1.7089844,0.0,0.0,0.0,-125.24963,72.4823,-94.37256
1766813522730,-0.9609375,-0.23339844,-0.17382812,7.1411133,1.3427734,3.1738281,0.0,0.0,0.0,-125.24963,72.4823,-94.37256
1766813522741,-0.9609375,-0.23339844,-0.17382812,7.1411133,1.3427734,3.1738281,0.0,0.0,0.0,-125.408936,72.62512,-95.19653
1766813522829,-0.9584961,-0.23730469,-0.1743164,7.873535,1.5869141,2.380371,0.0,0.0,0.0,-125.408936,72.62512,-95.19653
1766813522841,-0.9584961,-0.23730469,-0.1743164,7.873535,1.5869141,2.380371,0.0,0.0,0.0,-125.73303,72.75696,-96.21277
1766813522929,-0.95458984,-0.23291016,-0.17333984,7.6293945,1.8310547,0.79345703,0.0,0.0,0.0,-125.73303,72.75696,-96.21277
1766813522941,-0.95458984,-0.23291016,-0.17333984,7.6293945,1.8310547,0.79345703,0.0,0.0,0.0,-125.88135,72.767944,-96.93237
1766813523029,-0.95703125,-0.2211914,-0.17480469,8.056641,2.746582,1.7700195,0.0,0.0,0.0,-125.88135,72.767944,-96.93237
1766813523041,-0.95703125,-0.2211914,-0.17480469,8.056641,2.746582,1.7700195,0.0,0.0,0.0,-125.980225,72.78992,-97.5531
1766813523128,-0.9580078,-0.22705078,-0.1772461,8.666992,2.5024414,1.8310547,0.0,0.0,0.0,-125.980225,72.78992,-97.5531
1766813523140,-0.9580078,-0.22705078,-0.1772461,8.666992,2.5024414,1.8310547,0.0,0.0,0.0,-126.18347,72.79541,-98.41553
1766813523228,-0.9584961,-0.22753906,-0.1743164,8.361816,1.2207031,2.1362305,0.0,0.0,0.0,-126.18347,72.79541,-98.41553
1766813523240,-0.9584961,-0.22753906,-0.1743164,8.361816,1.2207031,2.1362305,0.0,0.0,0.0,-126.2439,72.855835,-99.052734
1766813523328,-0.9584961,-0.22460938,-0.17285156,10.925293,1.6479492,1.6479492,0.0,0.0,0.0,-126.2439,72.855835,-99.052734
1766813523339,-0.9584961,-0.22460938,-0.17285156,10.925293,1.6479492,1.6479492,0.0,0.0,0.0,-126.16699,72.91626,-99.591064
1766813523428,-0.9580078,-0.22509766,-0.17578125,10.314941,0.24414062,1.7700195,0.0,0.0,0.0,-126.16699,72.91626,-99.591064
1766813523439,-0.9580078,-0.22509766,-0.17578125,10.314941,0.24414062,1.7700195,0.0,0.0,0.0,-125.68909,73.03711,-99.766846
1766813523527,-0.9555664,-0.23291016,-0.16601562,7.9345703,0.061035156,2.319336,0.0,0.0,0.0,-125.68909,73.03711,-99.766846
1766813523539,-0.9555664,-0.23291016,-0.16601562,7.9345703,0.061035156,2.319336,0.0,0.0,0.0,-125.3595,73.19641,-99.94263
1766813523627,-0.96240234,-0.23046875,-0.16748047,4.333496,-0.79345703,2.0141602,0.0,0.0,0.0,-125.3595,73.19641,-99.94263
1766813523638,-0.96240234,-0.23046875,-0.16748047,4.333496,-0.79345703,2.0141602,0.0,0.0,0.0,-124.89807,73.41614,-99.63501
1766813523727,-0.96435547,-0.22509766,-0.15332031,3.4179688,-2.1362305,1.6479492,0.0,0.0,0.0,-124.89807,73.41614,-99.63501
1766813523738,-0.96435547,-0.22509766,-0.15332031,3.4179688,-2.1362305,1.6479492,0.0,0.0,0.0,-124.54651,73.55896,-99.31091
1766813523827,-0.96484375,-0.22509766,-0.15478516,0.061035156,-1.8920898,1.4038086,0.0,0.0,0.0,-124.54651,73.55896,-99.31091
1766813523838,-0.96484375,-0.22509766,-0.15478516,0.061035156,-1.8920898,1.4038086,0.0,0.0,0.0,-124.16748,73.80066,-98.65173
1766813523926,-0.97021484,-0.2265625,-0.14990234,-0.79345703,-1.159668,-0.6713867,0.0,0.0,0.0,-124.16748,73.80066,-98.65173
1766813523938,-0.97021484,-0.2265625,-0.14990234,-0.79345703,-1.159668,-0.6713867,0.0,0.0,0.0,-123.73352,73.93799,-97.69592
1766813524026,-0.9663086,-0.22021484,-0.1538086,-2.9907227,-1.2817383,-0.4272461,0.0,0.0,0.0,-123.73352,73.93799,-97.69592
1766813524037,-0.9663086,-0.22021484,-0.1538086,-2.9907227,-1.2817383,-0.4272461,0.0,0.0,0.0,-123.50281,73.94348,-96.828
1766813524125,-0.96533203,-0.21728516,-0.15625,-0.9765625,0.12207031,-0.8544922,0.0,0.0,0.0,-123.50281,73.94348,-96.828
1766813524137,-0.96533203,-0.21728516,-0.15625,-0.9765625,0.12207031,-0.8544922,0.0,0.0,0.0,-123.54126,73.92151,-96.28418
1766813524225,-0.96435547,-0.21289062,-0.15722656,-0.48828125,0.0,0.0,0.0,0.0,0.0,-123.54126,73.92151,-96.28418
1766813524237,-0.96435547,-0.21289062,-0.15722656,-0.48828125,0.0,0.0,0.0,0.0,0.0,-123.63464,73.88306,-96.00403
1766813524325,-0.9633789,-0.21484375,-0.1538086,1.3427734,-0.48828125,0.18310547,0.0,0.0,0.0,-123.63464,73.88306,-96.00403
1766813524336,-0.9633789,-0.21484375,-0.1538086,1.3427734,-0.48828125,0.18310547,0.0,0.0,0.0,-123.706055,73.95996,-95.79529
1766813524425,-0.9692383,-0.21923828,-0.15185547,0.8544922,-0.18310547,-0.18310547,0.0,0.0,0.0,-123.706055,73.95996,-95.79529
1766813524436,-0.9692383,-0.21923828,-0.15185547,0.8544922,-0.18310547,-0.18310547,0.0,0.0,0.0,-123.50281,74.03137,-95.43823
1766813524524,-0.96728516,-0.22265625,-0.15039062,-0.48828125,-0.79345703,-0.48828125,0.0,0.0,0.0,-123.50281,74.03137,-95.43823
1766813524536,-0.96728516,-0.22265625,-0.15039062,-0.48828125,-0.79345703,-0.48828125,0.0,0.0,0.0,-123.32153,74.04236,-95.03723
1766813524624,-0.9682617,-0.21923828,-0.15136719,-1.4648438,-0.061035156,-0.5493164,0.0,0.0,0.0,-123.32153,74.04236,-95.03723
1766813524635,-0.9682617,-0.21923828,-0.15136719,-1.4648438,-0.061035156,-0.5493164,0.0,0.0,0.0,-123.376465,74.03137,-94.73511
1766813524724,-0.96240234,-0.21582031,-0.14941406,-1.6479492,0.9765625,-0.61035156,0.0,0.0,0.0,-123.376465,74.03137,-94.73511
1766813524735,-0.96240234,-0.21582031,-0.14941406,-1.6479492,0.9765625,-0.61035156,0.0,0.0,0.0,-123.585205,73.97644,-94.58679
1766813524823,-0.9663086,-0.22314453,-0.15332031,-2.5634766,0.18310547,-0.8544922,0.0,0.0,0.0,-123.585205,73.97644,-94.58679
1766813524835,-0.9663086,-0.22314453,-0.15332031,-2.5634766,0.18310547,-0.8544922,0.0,0.0,0.0,-123.71155,73.948975,-94.29016
1766813524923,-0.96484375,-0.2211914,-0.15429688,-2.746582,-0.61035156,-0.5493164,0.0,0.0,0.0,-123.71155,73.948975,-94.29016
1766813524935,-0.96484375,-0.2211914,-0.15429688,-2.746582,-0.61035156,-0.5493164,0.0,0.0,0.0,-123.87085,73.899536,-93.982544
1766813525023,-0.96435547,-0.21923828,-0.15478516,-2.9296875,-0.9765625,-0.12207031,0.0,0.0,0.0,-123.87085,73.899536,-93.982544
1766813525034,-0.96435547,-0.21923828,-0.15478516,-2.9296875,-0.9765625,-0.12207031,0.0,0.0,0.0,-123.986206,73.90503,-93.69141
1766813525123,-0.9638672,-0.21728516,-0.15185547,-0.61035156,-0.36621094,0.061035156,0.0,0.0,0.0,-123.986206,73.90503,-93.69141
1766813525134,-0.9638672,-0.21728516,-0.15185547,-0.61035156,-0.36621094,0.061035156,0.0,0.0,0.0,-124.03015,73.932495,-93.427734
1766813525222,-0.9628906,-0.21972656,-0.15576172,-0.24414062,0.061035156,-0.30517578,0.0,0.0,0.0,-124.03015,73.932495,-93.427734
1766813525234,-0.9628906,-0.21972656,-0.15576172,-0.24414062,0.061035156,-0.30517578,0.0,0.0,0.0,-124.03015,73.97644,-93.25745
1766813525322,-0.9667969,-0.22167969,-0.15820312,0.36621094,-0.36621094,-0.4272461,0.0,0.0,0.0,-124.03015,73.97644,-93.25745
1766813525334,-0.9667969,-0.22167969,-0.15820312,0.36621094,-0.36621094,-0.4272461,0.0,0.0,0.0,-123.793945,74.0094,-92.93884
1766813525422,-0.9682617,-0.22705078,-0.15478516,0.0,-1.2207031,-1.2817383,0.0,0.0,0.0,-123.793945,74.0094,-92.93884
1766813525434,-0.9682617,-0.22705078,-0.15478516,0.0,-1.2207031,-1.2817383,0.0,0.0,0.0,-123.56323,74.0094,-92.62024
1766813525521,-0.9628906,-0.22558594,-0.15283203,-1.2207031,0.91552734,-2.0751953,0.0,0.0,0.0,-123.56323,74.0094,-92.62024
1766813525533,-0.9628906,-0.22558594,-0.15283203,-1.2207031,0.91552734,-2.0751953,0.0,0.0,0.0,-123.30505,73.88855,-92.21924
1766813525621,-0.9628906,-0.22802734,-0.15673828,-1.0986328,2.6245117,-1.8310547,0.0,0.0,0.0,-123.30505,73.88855,-92.21924
1766813525632,-0.9628906,-0.22802734,-0.15673828,-1.0986328,2.6245117,-1.8310547,0.0,0.0,0.0,-123.46985,73.63037,-92.246704
1766813525721,-0.9604492,-0.23828125,-0.15771484,-2.8686523,0.8544922,-1.0375977,0.0,0.0,0.0,-123.46985,73.63037,-92.246704
1766813525732,-0.9604492,-0.23828125,-0.15771484,-2.8686523,0.8544922,-1.0375977,0.0,0.0,0.0,-123.84338,73.46008,-92.318115
1766813525820,-0.95996094,-0.24023438,-0.1640625,-5.065918,0.36621094,-0.61035156,0.0,0.0,0.0,-123.84338,73.46008,-92.318115
1766813525832,-0.95996094,-0.24023438,-0.1640625,-5.065918,0.36621094,-0.61035156,0.0,0.0,0.0,-124.30481,73.322754,-92.31262
1766813525920,-0.95947266,-0.23046875,-0.16210938,-5.6152344,0.61035156,-0.24414062,0.0,0.0,0.0,-124.30481,73.322754,-92.31262
1766813525932,-0.95947266,-0.23046875,-0.16210938,-5.6152344,0.61035156,-0.24414062,0.0,0.0,0.0,-124.94202,73.22937,-92.34009
1766813526020,-0.9589844,-0.22314453,-0.16552734,-4.3945312,1.8310547,-0.5493164,0.0,0.0,0.0,-124.94202,73.22937,-92.34009
1766813526031,-0.9589844,-0.22314453,-0.16552734,-4.3945312,1.8310547,-0.5493164,0.0,0.0,0.0,-125.53528,73.19092,-92.34009
1766813526119,-0.9663086,-0.22753906,-0.17578125,-4.9438477,0.18310547,0.0,0.0,0.0,0.0,-125.53528,73.19092,-92.34009
