timestamp,accX,accY,accZ,gyroX,gyroY,gyroZ,magX,magY,magZ,roll,pitch,yaw
1769247196988,-1.2241211,0.36328125,-0.13330078,-19.53125,-1.4648438,3.8452148,0.0,0.0,0.0,111.57715,73.56995,-134.25293
1769247196999,-1.2241211,0.36328125,-0.13330078,-19.53125,-1.4648438,3.8452148,0.0,0.0,0.0,109.346924,73.17993,-133.7091
1769247197087,-0.8046875,0.30419922,-0.052246094,34.057617,-17.27295,-5.79834,0.0,0.0,0.0,109.346924,73.17993,-133.7091
1769247197099,-0.8046875,0.30419922,-0.052246094,34.057617,-17.27295,-5.79834,0.0,0.0,0.0,107.31995,73.98743,-137.05994
1769247197187,-1.0185547,0.16308594,-0.07714844,23.376465,4.5776367,-3.540039,0.0,0.0,0.0,107.31995,73.98743,-137.05994
1769247197199,-1.0185547,0.16308594,-0.07714844,23.376465,4.5776367,-3.540039,0.0,0.0,0.0,107.803345,74.262085,-138.63647
1769247197288,-0.9589844,0.25390625,-0.06298828,-23.010254,-3.2958984,2.8686523,0.0,0.0,0.0,107.803345,74.262085,-138.63647
1769247197299,-0.9589844,0.25390625,-0.06298828,-23.010254,-3.2958984,2.8686523,0.0,0.0,0.0,107.21008,74.454346,-138.89465
1769247197387,-0.9667969,0.25341797,-0.080566406,11.169434,10.925293,-1.7700195,0.0,0.0,0.0,107.21008,74.454346,-138.89465
1769247197398,-0.9667969,0.25341797,-0.080566406,11.169434,10.925293,-1.7700195,0.0,0.0,0.0,108.08899,74.295044,-137.38403
1769247197487,-0.9682617,0.25830078,-0.100097656,-7.5683594,0.30517578,2.746582,0.0,0.0,0.0,108.08899,74.295044,-137.38403
1769247197498,-0.9682617,0.25830078,-0.100097656,-7.5683594,0.30517578,2.746582,0.0,0.0,0.0,110.28076,73.965454,-135.2417
1769247197586,-0.9589844,0.26611328,-0.109375,-2.1972656,2.0141602,0.18310547,0.0,0.0,0.0,110.28076,73.965454,-135.2417
1769247197597,-0.9589844,0.26611328,-0.109375,-2.1972656,2.0141602,0.18310547,0.0,0.0,0.0,110.74768,73.91052,-134.57153
1769247197686,-1.0014648,0.2265625,-0.064453125,-0.24414062,-1.159668,-2.6245117,0.0,0.0,0.0,110.74768,73.91052,-134.57153
1769247197697,-1.0014648,0.2265625,-0.064453125,-0.24414062,-1.159668,-2.6245117,0.0,0.0,0.0,111.09375,73.948975,-134.26941
1769247197785,-0.9506836,0.27734375,-0.12548828,-5.6762695,0.24414062,-1.5258789,0.0,0.0,0.0,111.09375,73.948975,-134.26941
1769247197797,-0.9506836,0.27734375,-0.12548828,-5.6762695,0.24414062,-1.5258789,0.0,0.0,0.0,109.627075,73.99841,-134.73633
1769247197885,-0.9277344,0.22949219,-0.12402344,-4.3945312,3.3569336,-1.6479492,0.0,0.0,0.0,109.627075,73.99841,-134.73633
1769247197897,-0.9277344,0.22949219,-0.12402344,-4.3945312,3.3569336,-1.6479492,0.0,0.0,0.0,111.02783,74.5697,-133.86292
1769247197985,-0.9897461,0.23046875,-0.04736328,18.554688,-6.4086914,-7.5683594,0.0,0.0,0.0,111.02783,74.5697,-133.86292
1769247197996,-0.9897461,0.23046875,-0.04736328,18.554688,-6.4086914,-7.5683594,0.0,0.0,0.0,110.27527,74.53674,-134.39026
1769247198084,-0.9472656,0.28808594,-0.14501953,-0.30517578,8.178711,4.4555664,0.0,0.0,0.0,110.27527,74.53674,-134.39026
1769247198096,-0.9472656,0.28808594,-0.14501953,-0.30517578,8.178711,4.4555664,0.0,0.0,0.0,109.660034,74.51477,-134.97803
1769247198184,-0.99658203,0.26708984,-0.17675781,3.1738281,-3.540039,15.50293,0.0,0.0,0.0,109.660034,74.51477,-134.97803
1769247198196,-0.99658203,0.26708984,-0.17675781,3.1738281,-3.540039,15.50293,0.0,0.0,0.0,111.934204,73.67432,-133.8739
1769247198284,-0.97265625,0.09472656,-0.0029296875,2.9296875,6.8969727,-1.6479492,0.0,0.0,0.0,111.934204,73.67432,-133.8739
1769247198295,-0.97265625,0.09472656,-0.0029296875,2.9296875,6.8969727,-1.6479492,0.0,0.0,0.0,113.653564,72.822876,-133.96729
1769247198384,-1.0078125,0.57958984,-0.078125,-46.38672,-4.5166016,-5.432129,0.0,0.0,0.0,113.653564,72.822876,-133.96729
1769247198395,-1.0078125,0.57958984,-0.078125,-46.38672,-4.5166016,-5.432129,0.0,0.0,0.0,106.66077,74.13574,-138.19702
1769247198483,-0.8676758,0.20263672,-0.022949219,97.77832,-17.76123,-23.31543,0.0,0.0,0.0,106.66077,74.13574,-138.19702
1769247198495,-0.8676758,0.20263672,-0.022949219,97.77832,-17.76123,-23.31543,0.0,0.0,0.0,111.00586,75.07507,-136.80725
1769247198583,-0.97998047,0.07373047,0.03125,-32.470703,10.131836,-0.9765625,0.0,0.0,0.0,111.00586,75.07507,-136.80725
1769247198594,-0.97998047,0.07373047,0.03125,-32.470703,10.131836,-0.9765625,0.0,0.0,0.0,113.724976,76.06384,-134.91211
1769247198683,-0.99609375,0.34716797,-0.23583984,-50.1709,8.972168,10.192871,0.0,0.0,0.0,113.724976,76.06384,-134.91211
1769247198694,-0.99609375,0.34716797,-0.23583984,-50.1709,8.972168,10.192871,0.0,0.0,0.0,114.60388,76.26709,-131.37451
1769247198782,-0.7348633,0.22509766,-0.0043945312,35.15625,-13.85498,-6.8359375,0.0,0.0,0.0,114.60388,76.26709,-131.37451
1769247198794,-0.7348633,0.22509766,-0.0043945312,35.15625,-13.85498,-6.8359375,0.0,0.0,0.0,111.07178,76.09131,-135.46692
1769247198882,-1.0302734,0.19238281,-0.12402344,-1.953125,2.8076172,3.1738281,0.0,0.0,0.0,111.07178,76.09131,-135.46692
1769247198893,-1.0302734,0.19238281,-0.12402344,-1.953125,2.8076172,3.1738281,0.0,0.0,0.0,107.97363,75.701294,-138.02673
1769247198982,-0.9555664,0.20361328,-0.07714844,-3.9672852,4.333496,5.065918,0.0,0.0,0.0,107.97363,75.701294,-138.02673
1769247198993,-0.9555664,0.20361328,-0.07714844,-3.9672852,4.333496,5.065918,0.0,0.0,0.0,111.73096,75.76721,-135.60974
1769247199081,-0.94677734,0.2109375,-0.07763672,0.9765625,9.643555,-0.91552734,0.0,0.0,0.0,111.73096,75.76721,-135.60974
1769247199093,-0.94677734,0.2109375,-0.07763672,0.9765625,9.643555,-0.91552734,0.0,0.0,0.0,113.065796,75.09155,-133.27515
1769247199181,-0.92285156,0.29541016,-0.21679688,-17.63916,-10.253906,-3.3569336,0.0,0.0,0.0,113.065796,75.09155,-133.27515
1769247199193,-0.92285156,0.29541016,-0.21679688,-17.63916,-10.253906,-3.3569336,0.0,0.0,0.0,112.62634,75.50354,-132.84119
1769247199281,-1.0161133,0.2998047,-0.027832031,38.635254,-12.878418,1.7089844,0.0,0.0,0.0,112.62634,75.50354,-132.84119
1769247199292,-1.0161133,0.2998047,-0.027832031,38.635254,-12.878418,1.7089844,0.0,0.0,0.0,110.527954,76.39343,-137.76855
1769247199380,-1.0649414,0.06982422,-0.013183594,26.916504,3.479004,4.4555664,0.0,0.0,0.0,110.527954,76.39343,-137.76855
1769247199392,-1.0649414,0.06982422,-0.013183594,26.916504,3.479004,4.4555664,0.0,0.0,0.0,112.527466,75.267334,-138.19702
1769247199480,-0.8798828,0.35302734,-0.028808594,-65.55176,-26.672363,16.174316,0.0,0.0,0.0,112.527466,75.267334,-138.19702
1769247199491,-0.8798828,0.35302734,-0.028808594,-65.55176,-26.672363,16.174316,0.0,0.0,0.0,102.041016,74.77295,-144.95361
1769247199580,-0.9863281,0.21582031,0.021972656,30.212402,21.850586,-11.474609,0.0,0.0,0.0,102.041016,74.77295,-144.95361
1769247199591,-0.9863281,0.21582031,0.021972656,30.212402,21.850586,-11.474609,0.0,0.0,0.0,100.909424,74.76196,-145.0415
1769247199679,-0.97802734,0.1665039,-0.05859375,-60.302734,8.7890625,12.268066,0.0,0.0,0.0,100.909424,74.76196,-145.0415
1769247199691,-0.97802734,0.1665039,-0.05859375,-60.302734,8.7890625,12.268066,0.0,0.0,0.0,102.43103,74.333496,-140.66895
1769247199779,-0.92822266,0.36328125,-0.119628906,-31.188965,10.803223,7.9345703,0.0,0.0,0.0,102.43103,74.333496,-140.66895
1769247199790,-0.92822266,0.36328125,-0.119628906,-31.188965,10.803223,7.9345703,0.0,0.0,0.0,98.86597,73.19641,-139.15283
1769247199879,-0.9511719,0.21728516,-0.057128906,-6.958008,13.061523,-6.5307617,0.0,0.0,0.0,98.86597,73.19641,-139.15283
1769247199890,-0.9511719,0.21728516,-0.057128906,-6.958008,13.061523,-6.5307617,0.0,0.0,0.0,104.53491,73.42163,-134.23096
1769247199978,-0.95996094,0.43408203,-0.16064453,-14.770508,1.0375977,-4.4555664,0.0,0.0,0.0,104.53491,73.42163,-134.23096
1769247199990,-0.95996094,0.43408203,-0.16064453,-14.770508,1.0375977,-4.4555664,0.0,0.0,0.0,103.61206,73.30078,-132.48962
1769247200078,-0.9160156,0.20605469,-0.080566406,75.74463,11.535645,-10.314941,0.0,0.0,0.0,103.61206,73.30078,-132.48962
1769247200090,-0.9160156,0.20605469,-0.080566406,75.74463,11.535645,-10.314941,0.0,0.0,0.0,110.06653,73.80066,-131.12183
1769247200178,-0.984375,0.19091797,-0.12207031,8.605957,1.5869141,0.79345703,0.0,0.0,0.0,110.06653,73.80066,-131.12183
1769247200189,-0.984375,0.19091797,-0.12207031,8.605957,1.5869141,0.79345703,0.0,0.0,0.0,115.164185,74.09729,-129.58374
1769247200277,-0.99072266,0.26513672,-0.10839844,13.305664,22.338867,3.7841797,0.0,0.0,0.0,115.164185,74.09729,-129.58374
1769247200289,-0.99072266,0.26513672,-0.10839844,13.305664,22.338867,3.7841797,0.0,0.0,0.0,118.19092,73.30078,-126.919556
1769247200377,-0.9892578,0.16210938,-0.09082031,-10.7421875,-8.483887,-5.6152344,0.0,0.0,0.0,118.19092,73.30078,-126.919556
1769247200389,-0.9892578,0.16210938,-0.09082031,-10.7421875,-8.483887,-5.6152344,0.0,0.0,0.0,126.21094,73.515015,-120.73425
1769247200477,-0.97509766,0.19433594,-0.26416016,-14.770508,-0.48828125,-2.9907227,0.0,0.0,0.0,126.21094,73.515015,-120.73425
1769247200488,-0.97509766,0.19433594,-0.26416016,-14.770508,-0.48828125,-2.9907227,0.0,0.0,0.0,115.98816,74.09729,-126.83716
1769247200577,-1.0014648,0.38330078,-0.1459961,-43.21289,-2.1972656,16.052246,0.0,0.0,0.0,115.98816,74.09729,-126.83716
1769247200588,-1.0014648,0.38330078,-0.1459961,-43.21289,-2.1972656,16.052246,0.0,0.0,0.0,119.62463,73.95996,-123.898315
1769247200676,-0.99121094,0.19677734,4.8828125E-4,32.165527,10.131836,-2.6245117,0.0,0.0,0.0,119.62463,73.95996,-123.898315
1769247200688,-0.99121094,0.19677734,4.8828125E-4,32.165527,10.131836,-2.6245117,0.0,0.0,0.0,121.59119,74.03137,-125.288086
1769247200776,-0.92626953,0.34326172,-0.2109375,-12.939453,-0.24414062,9.887695,0.0,0.0,0.0,121.59119,74.03137,-125.288086
1769247200787,-0.92626953,0.34326172,-0.2109375,-12.939453,-0.24414062,9.887695,0.0,0.0,0.0,113.47229,73.47656,-131.27563
1769247200879,-0.9941406,0.15136719,-0.064941406,37.41455,-5.92041,-4.211426,0.0,0.0,0.0,113.47229,73.47656,-131.27563
1769247200888,-0.9941406,0.15136719,-0.064941406,37.41455,-5.92041,-4.211426,0.0,0.0,0.0,115.88379,73.361206,-131.44043
1769247200980,-0.92285156,0.27929688,-0.08544922,-13.000488,4.638672,6.8359375,0.0,0.0,0.0,115.88379,73.361206,-131.44043
1769247200988,-0.92285156,0.27929688,-0.08544922,-13.000488,4.638672,6.8359375,0.0,0.0,0.0,115.773926,73.38318,-132.03369
1769247201076,-1.0209961,0.26416016,-0.19042969,13.305664,2.6855469,-0.061035156,0.0,0.0,0.0,115.773926,73.38318,-132.03369
1769247201087,-1.0209961,0.26416016,-0.19042969,13.305664,2.6855469,-0.061035156,0.0,0.0,0.0,119.036865,72.614136,-128.77075
1769247201175,-0.94091797,0.18457031,-0.115722656,-0.7324219,-0.61035156,1.4038086,0.0,0.0,0.0,119.036865,72.614136,-128.77075
1769247201187,-0.94091797,0.18457031,-0.115722656,-0.7324219,-0.61035156,1.4038086,0.0,0.0,0.0,119.75647,72.66907,-128.94653
1769247201274,-0.9682617,0.24414062,-0.15917969,-17.211914,3.6621094,-3.2958984,0.0,0.0,0.0,119.75647,72.66907,-128.94653
1769247201286,-0.9682617,0.24414062,-0.15917969,-17.211914,3.6621094,-3.2958984,0.0,0.0,0.0,119.00391,72.647095,-128.22693
1769247201375,-0.90625,0.2548828,-0.16601562,-5.126953,-11.779785,-6.8359375,0.0,0.0,0.0,119.00391,72.647095,-128.22693
1769247201386,-0.90625,0.2548828,-0.16601562,-5.126953,-11.779785,-6.8359375,0.0,0.0,0.0,117.70203,73.11951,-128.05664
1769247201474,-1.1259766,0.30859375,-0.08154297,-17.8833,-2.1972656,-4.8217773,0.0,0.0,0.0,117.70203,73.11951,-128.05664
1769247201488,-1.1259766,0.30859375,-0.08154297,-17.8833,-2.1972656,-4.8217773,0.0,0.0,0.0,115.4718,73.65784,-128.77075
1769247201573,-0.94189453,0.22558594,-0.12988281,-2.2583008,-4.333496,-5.6762695,0.0,0.0,0.0,115.4718,73.65784,-128.77075
1769247201585,-0.94189453,0.22558594,-0.12988281,-2.2583008,-4.333496,-5.6762695,0.0,0.0,0.0,116.1969,74.30054,-127.941284
1769247201673,-0.8725586,0.2626953,-0.12988281,5.6152344,-14.770508,-1.159668,0.0,0.0,0.0,116.1969,74.30054,-127.941284
1769247201684,-0.8725586,0.2626953,-0.12988281,5.6152344,-14.770508,-1.159668,0.0,0.0,0.0,113.15369,74.84985,-130.69885
1769247201773,-1.012207,0.2397461,-0.10205078,20.019531,-17.700195,3.3569336,0.0,0.0,0.0,113.15369,74.84985,-130.69885
1769247201784,-1.012207,0.2397461,-0.10205078,20.019531,-17.700195,3.3569336,0.0,0.0,0.0,109.31946,75.234375,-136.31836
1769247201872,-1.0424805,0.29589844,-0.05419922,34.484863,-24.169922,-3.4179688,0.0,0.0,0.0,109.31946,75.234375,-136.31836
1769247201885,-1.0424805,0.29589844,-0.05419922,34.484863,-24.169922,-3.4179688,0.0,0.0,0.0,102.453,75.54199,-145.38757
1769247201972,-0.87646484,0.22216797,-0.040039062,63.720703,-12.6953125,-9.70459,0.0,0.0,0.0,102.453,75.54199,-145.38757
1769247201984,-0.87646484,0.22216797,-0.040039062,63.720703,-12.6953125,-9.70459,0.0,0.0,0.0,102.06848,76.44287,-150.69946
1769247202072,-0.9199219,0.1743164,-0.11669922,59.814453,-17.333984,-6.225586,0.0,0.0,0.0,102.06848,76.44287,-150.69946
1769247202084,-0.9199219,0.1743164,-0.11669922,59.814453,-17.333984,-6.225586,0.0,0.0,0.0,103.0957,77.387695,-155.75867
1769247202172,-0.99853516,0.2211914,0.024414062,53.588867,-6.8359375,-3.7841797,0.0,0.0,0.0,103.0957,77.387695,-155.75867
1769247202183,-0.99853516,0.2211914,0.024414062,53.588867,-6.8359375,-3.7841797,0.0,0.0,0.0,101.95862,78.10181,-161.85608
1769247202271,-1.1083984,0.025878906,-0.034179688,44.49463,41.19873,-19.16504,0.0,0.0,0.0,101.95862,78.10181,-161.85608
1769247202283,-1.1083984,0.025878906,-0.034179688,44.49463,41.19873,-19.16504,0.0,0.0,0.0,116.520996,78.59619,-151.86401
1769247202371,-0.9819336,0.034179688,0.005859375,-40.58838,4.5776367,-20.019531,0.0,0.0,0.0,116.520996,78.59619,-151.86401
1769247202382,-0.9819336,0.034179688,0.005859375,-40.58838,4.5776367,-20.019531,0.0,0.0,0.0,133.36853,79.34326,-134.23645
1769247202470,-1.1206055,0.18701172,-0.12939453,-76.66016,2.380371,2.1972656,0.0,0.0,0.0,133.36853,79.34326,-134.23645
1769247202482,-1.1206055,0.18701172,-0.12939453,-76.66016,2.380371,2.1972656,0.0,0.0,0.0,131.21521,80.233154,-128.94653
1769247202570,-0.95410156,0.1899414,-0.022460938,-90.20996,-7.019043,8.7890625,0.0,0.0,0.0,131.21521,80.233154,-128.94653
1769247202582,-0.95410156,0.1899414,-0.022460938,-90.20996,-7.019043,8.7890625,0.0,0.0,0.0,122.29431,80.1947,-129.33105
1769247202670,-0.63183594,0.1352539,0.023925781,-103.271484,7.385254,6.1035156,0.0,0.0,0.0,122.29431,80.1947,-129.33105
1769247202681,-0.63183594,0.1352539,0.023925781,-103.271484,7.385254,6.1035156,0.0,0.0,0.0,106.413574,79.62341,-134.90662
1769247202770,-1.027832,0.16064453,-0.07519531,-66.95557,39.611816,-4.0893555,0.0,0.0,0.0,106.413574,79.62341,-134.90662
1769247202781,-1.027832,0.16064453,-0.07519531,-66.95557,39.611816,-4.0893555,0.0,0.0,0.0,108.40759,79.090576,-124.59595
1769247202869,-1.4282227,0.28515625,-0.09716797,-69.21387,17.578125,1.159668,0.0,0.0,0.0,108.40759,79.090576,-124.59595
1769247202881,-1.4282227,0.28515625,-0.09716797,-69.21387,17.578125,1.159668,0.0,0.0,0.0,115.49927,78.25012,-111.41785
1769247202969,-0.7319336,0.28466797,-0.18554688,39.42871,-13.73291,-5.3100586,0.0,0.0,0.0,115.49927,78.25012,-111.41785
1769247202981,-0.7319336,0.28466797,-0.18554688,39.42871,-13.73291,-5.3100586,0.0,0.0,0.0,114.88403,78.95874,-112.07153
1769247203069,-1.1186523,0.1616211,-0.033203125,49.072266,-1.2207031,22.338867,0.0,0.0,0.0,114.88403,78.95874,-112.07153
1769247203080,-1.1186523,0.1616211,-0.033203125,49.072266,-1.2207031,22.338867,0.0,0.0,0.0,111.588135,77.64038,-120.80017
1769247203168,-0.92578125,0.16748047,-0.048339844,15.991211,-14.831543,14.343262,0.0,0.0,0.0,111.588135,77.64038,-120.80017
1769247203180,-0.92578125,0.16748047,-0.048339844,15.991211,-14.831543,14.343262,0.0,0.0,0.0,108.94592,76.3385,-127.7655
1769247203268,-0.9897461,0.3359375,-0.107910156,20.141602,-2.8686523,1.4038086,0.0,0.0,0.0,108.94592,76.3385,-127.7655
1769247203280,-0.9897461,0.3359375,-0.107910156,20.141602,-2.8686523,1.4038086,0.0,0.0,0.0,106.155396,76.21765,-132.25891
1769247203369,-0.9399414,0.14160156,-0.114746094,42.96875,3.7231445,-3.2348633,0.0,0.0,0.0,106.155396,76.21765,-132.25891
1769247203380,-0.9399414,0.14160156,-0.114746094,42.96875,3.7231445,-3.2348633,0.0,0.0,0.0,112.13196,76.19568,-130.9021
1769247203468,-1.0351562,0.23876953,-0.13330078,-9.643555,-16.418457,9.216309,0.0,0.0,0.0,112.13196,76.19568,-130.9021
1769247203480,-1.0351562,0.23876953,-0.13330078,-9.643555,-16.418457,9.216309,0.0,0.0,0.0,109.401855,76.11328,-134.6814
1769247203568,-0.90771484,0.24414062,0.00390625,57.128906,12.329102,-3.540039,0.0,0.0,0.0,109.401855,76.11328,-134.6814
1769247203580,-0.90771484,0.24414062,0.00390625,57.128906,12.329102,-3.540039,0.0,0.0,0.0,109.91272,76.278076,-136.65344
1769247203668,-1.0581055,0.12939453,-0.04248047,-20.385742,-12.634277,3.7841797,0.0,0.0,0.0,109.91272,76.278076,-136.65344
1769247203679,-1.0581055,0.12939453,-0.04248047,-20.385742,-12.634277,3.7841797,0.0,0.0,0.0,115.3949,75.84961,-133.84094
1769247203767,-0.96533203,0.15332031,-0.17138672,-14.709473,-20.751953,-9.094238,0.0,0.0,0.0,115.3949,75.84961,-133.84094
1769247203781,-0.96533203,0.15332031,-0.17138672,-14.709473,-20.751953,-9.094238,0.0,0.0,0.0,100.305176,77.18445,-145.85999
1769247203867,-1.0888672,0.31640625,0.06201172,-41.137695,4.333496,18.493652,0.0,0.0,0.0,100.305176,77.18445,-145.85999
1769247203878,-1.0888672,0.31640625,0.06201172,-41.137695,4.333496,18.493652,0.0,0.0,0.0,101.744385,77.041626,-144.84375
1769247203967,-0.9868164,0.20507812,0.032714844,16.845703,10.620117,-17.028809,0.0,0.0,0.0,101.744385,77.041626,-144.84375
1769247203978,-0.9868164,0.20507812,0.032714844,16.845703,10.620117,-17.028809,0.0,0.0,0.0,101.920166,77.39868,-144.51965
1769247204066,-0.9223633,0.2919922,-0.11230469,-8.666992,-5.3710938,-0.91552734,0.0,0.0,0.0,101.920166,77.39868,-144.51965
1769247204078,-0.9223633,0.2919922,-0.11230469,-8.666992,-5.3710938,-0.91552734,0.0,0.0,0.0,93.28491,77.76672,-150.08423
1769247204165,-1.0014648,0.15625,-0.03466797,45.10498,16.479492,-11.352539,0.0,0.0,0.0,93.28491,77.76672,-150.08423
1769247204178,-1.0014648,0.15625,-0.03466797,45.10498,16.479492,-11.352539,0.0,0.0,0.0,103.40332,78.48633,-143.58582
1769247204265,-0.99121094,0.14648438,-0.05029297,5.1879883,0.6713867,-0.48828125,0.0,0.0,0.0,103.40332,78.48633,-143.58582
1769247204277,-0.99121094,0.14648438,-0.05029297,5.1879883,0.6713867,-0.48828125,0.0,0.0,0.0,109.47876,78.74451,-139.20227
1769247204365,-0.9760742,0.16552734,-0.084472656,11.230469,1.953125,0.061035156,0.0,0.0,0.0,109.47876,78.74451,-139.20227
1769247204376,-0.9760742,0.16552734,-0.084472656,11.230469,1.953125,0.061035156,0.0,0.0,0.0,110.51697,78.826904,-138.91663
1769247204465,-0.97753906,0.16845703,-0.0146484375,12.817383,-1.5869141,0.91552734,0.0,0.0,0.0,110.51697,78.826904,-138.91663
1769247204476,-0.97753906,0.16845703,-0.0146484375,12.817383,-1.5869141,0.91552734,0.0,0.0,0.0,111.242065,78.706055,-138.8617
1769247204564,-0.9902344,0.1459961,-0.068847656,-8.544922,-2.8686523,7.9956055,0.0,0.0,0.0,111.242065,78.706055,-138.8617
1769247204576,-0.9902344,0.1459961,-0.068847656,-8.544922,-2.8686523,7.9956055,0.0,0.0,0.0,108.07251,78.43689,-141.95984
1769247204664,-0.99902344,0.17333984,-0.044433594,-10.498047,2.0141602,-0.18310547,0.0,0.0,0.0,108.07251,78.43689,-141.95984
1769247204675,-0.99902344,0.17333984,-0.044433594,-10.498047,2.0141602,-0.18310547,0.0,0.0,0.0,107.38037,78.29956,-141.62476
1769247204764,-0.9838867,0.19482422,-0.08105469,-7.507324,-1.4648438,-0.24414062,0.0,0.0,0.0,107.38037,78.29956,-141.62476
1769247204775,-0.9838867,0.19482422,-0.08105469,-7.507324,-1.4648438,-0.24414062,0.0,0.0,0.0,105.842285,78.359985,-141.828
1769247204863,-0.9824219,0.1875,-0.044433594,-2.2583008,-1.0986328,-2.0141602,0.0,0.0,0.0,105.842285,78.359985,-141.828
1769247204875,-0.9824219,0.1875,-0.044433594,-2.2583008,-1.0986328,-2.0141602,0.0,0.0,0.0,105.858765,78.54675,-141.48193
1769247204963,-0.97998047,0.18359375,-0.05029297,-1.7700195,-1.2817383,-0.79345703,0.0,0.0,0.0,105.858765,78.54675,-141.48193
1769247204974,-0.97998047,0.18359375,-0.05029297,-1.7700195,-1.2817383,-0.79345703,0.0,0.0,0.0,105.2655,78.722534,-141.76208
1769247205063,-0.98095703,0.17675781,-0.04638672,0.30517578,-0.12207031,-0.61035156,0.0,0.0,0.0,105.2655,78.722534,-141.76208
1769247205074,-0.98095703,0.17675781,-0.04638672,0.30517578,-0.12207031,-0.61035156,0.0,0.0,0.0,104.957886,78.79944,-141.87744
1769247205162,-0.9873047,0.1850586,-0.04296875,-0.8544922,-0.4272461,1.6479492,0.0,0.0,0.0,104.957886,78.79944,-141.87744
1769247205174,-0.9873047,0.1850586,-0.04296875,-0.8544922,-0.4272461,1.6479492,0.0,0.0,0.0,104.556885,78.75,-142.16309
1769247205262,-0.9897461,0.1899414,-0.046875,2.0141602,1.5258789,0.79345703,0.0,0.0,0.0,104.556885,78.75,-142.16309
1769247205274,-0.9897461,0.1899414,-0.046875,2.0141602,1.5258789,0.79345703,0.0,0.0,0.0,104.65576,78.61267,-142.04773
1769247205362,-0.9814453,0.18457031,-0.03564453,2.319336,1.159668,0.4272461,0.0,0.0,0.0,104.65576,78.61267,-142.04773
1769247205373,-0.9814453,0.18457031,-0.03564453,2.319336,1.159668,0.4272461,0.0,0.0,0.0,105.47424,78.53027,-141.3501
1769247205461,-0.99365234,0.18603516,-0.044921875,0.8544922,1.2207031,0.24414062,0.0,0.0,0.0,105.47424,78.53027,-141.3501
1769247205474,-0.99365234,0.18603516,-0.044921875,0.8544922,1.2207031,0.24414062,0.0,0.0,0.0,105.963135,78.47534,-140.89966
1769247205561,-0.98339844,0.1850586,-0.05029297,-2.4414062,0.0,0.8544922,0.0,0.0,0.0,105.963135,78.47534,-140.89966
1769247205573,-0.98339844,0.1850586,-0.05029297,-2.4414062,0.0,0.8544922,0.0,0.0,0.0,105.979614,78.4259,-140.71289
1769247205661,-0.9824219,0.19335938,-0.045410156,-1.2817383,-1.0375977,0.061035156,0.0,0.0,0.0,105.979614,78.4259,-140.71289
1769247205672,-0.9824219,0.19335938,-0.045410156,-1.2817383,-1.0375977,0.061035156,0.0,0.0,0.0,105.51819,78.41492,-140.93811
1769247205761,-0.984375,0.18945312,-0.052734375,-0.9765625,-1.5869141,0.12207031,0.0,0.0,0.0,105.51819,78.41492,-140.93811
1769247205772,-0.984375,0.18945312,-0.052734375,-0.9765625,-1.5869141,0.12207031,0.0,0.0,0.0,104.63928,78.447876,-141.6742
1769247205861,-0.98291016,0.18896484,-0.043945312,-0.91552734,-1.6479492,0.5493164,0.0,0.0,0.0,104.63928,78.447876,-141.6742
1769247205872,-0.98291016,0.18896484,-0.043945312,-0.91552734,-1.6479492,0.5493164,0.0,0.0,0.0,103.6615,78.447876,-142.53113
1769247205960,-0.9848633,0.1953125,-0.045410156,0.7324219,-1.8920898,0.61035156,0.0,0.0,0.0,103.6615,78.447876,-142.53113
1769247205971,-0.9848633,0.1953125,-0.045410156,0.7324219,-1.8920898,0.61035156,0.0,0.0,0.0,102.65076,78.41492,-143.4375
1769247206060,-0.98291016,0.19238281,-0.037597656,1.953125,-0.6713867,-0.30517578,0.0,0.0,0.0,102.65076,78.41492,-143.4375
1769247206071,-0.98291016,0.19238281,-0.037597656,1.953125,-0.6713867,-0.30517578,0.0,0.0,0.0,102.17285,78.409424,-143.98132
1769247206159,-0.97021484,0.18359375,-0.03466797,0.8544922,-0.18310547,0.18310547,0.0,0.0,0.0,102.17285,78.409424,-143.98132
1769247206171,-0.97021484,0.18359375,-0.03466797,0.8544922,-0.18310547,0.18310547,0.0,0.0,0.0,101.87073,78.4259,-144.34387
1769247206259,-0.9819336,0.18652344,-0.056640625,-2.2583008,0.0,0.5493164,0.0,0.0,0.0,101.87073,78.4259,-144.34387
1769247206271,-0.9819336,0.18652344,-0.056640625,-2.2583008,0.0,0.5493164,0.0,0.0,0.0,101.57959,78.42041,-144.60205
1769247206359,-0.9848633,0.18896484,-0.034179688,4.333496,0.5493164,-0.91552734,0.0,0.0,0.0,101.57959,78.42041,-144.60205
1769247206370,-0.9848633,0.18896484,-0.034179688,4.333496,0.5493164,-0.91552734,0.0,0.0,0.0,102.58484,78.4314,-143.73962
1769247206459,-0.984375,0.18457031,-0.03466797,0.79345703,-0.4272461,-0.24414062,0.0,0.0,0.0,102.58484,78.4314,-143.73962
1769247206470,-0.984375,0.18457031,-0.03466797,0.79345703,-0.4272461,-0.24414062,0.0,0.0,0.0,102.7771,78.48633,-143.71216
1769247206558,-0.98876953,0.18554688,-0.04736328,0.8544922,1.2817383,-0.24414062,0.0,0.0,0.0,102.7771,78.48633,-143.71216
1769247206570,-0.98876953,0.18554688,-0.04736328,0.8544922,1.2817383,-0.24414062,0.0,0.0,0.0,102.99133,78.50281,-143.45947
1769247206658,-0.9838867,0.18554688,-0.041992188,-0.48828125,0.8544922,0.48828125,0.0,0.0,0.0,102.99133,78.50281,-143.45947
1769247206669,-0.9838867,0.18554688,-0.041992188,-0.48828125,0.8544922,0.48828125,0.0,0.0,0.0,103.69446,78.497314,-142.73987
1769247206758,-0.9814453,0.19433594,-0.045898438,1.0375977,1.4038086,-0.79345703,0.0,0.0,0.0,103.69446,78.497314,-142.73987
1769247206769,-0.9814453,0.19433594,-0.045898438,1.0375977,1.4038086,-0.79345703,0.0,0.0,0.0,104.04602,78.47534,-142.27844
1769247206857,-0.9741211,0.18603516,-0.05126953,4.0283203,1.7700195,-0.6713867,0.0,0.0,0.0,104.04602,78.47534,-142.27844
1769247206869,-0.9741211,0.18603516,-0.05126953,4.0283203,1.7700195,-0.6713867,0.0,0.0,0.0,105.00183,78.50281,-141.42151
1769247206957,-0.9902344,0.18115234,-0.05517578,1.7700195,-0.8544922,1.159668,0.0,0.0,0.0,105.00183,78.50281,-141.42151
1769247206969,-0.9902344,0.18115234,-0.05517578,1.7700195,-0.8544922,1.159668,0.0,0.0,0.0,105.320435,78.44238,-141.32263
1769247207057,-0.98095703,0.19433594,-0.04638672,-1.3427734,-1.4648438,1.0375977,0.0,0.0,0.0,105.320435,78.44238,-141.32263
1769247207068,-0.98095703,0.19433594,-0.04638672,-1.3427734,-1.4648438,1.0375977,0.0,0.0,0.0,104.80408,78.38745,-141.828
1769247207156,-0.9785156,0.19238281,-0.041503906,3.479004,0.0,-0.8544922,0.0,0.0,0.0,104.80408,78.38745,-141.828
1769247207168,-0.9785156,0.19238281,-0.041503906,3.479004,0.0,-0.8544922,0.0,0.0,0.0,104.76013,78.4314,-141.95984
1769247207256,-0.9873047,0.18408203,-0.041992188,0.18310547,-1.7089844,0.061035156,0.0,0.0,0.0,104.76013,78.4314,-141.95984
1769247207268,-0.9873047,0.18408203,-0.041992188,0.18310547,-1.7089844,0.061035156,0.0,0.0,0.0,104.35913,78.47534,-142.44324
1769247207356,-0.98535156,0.19335938,-0.040039062,1.2817383,-0.6713867,0.061035156,0.0,0.0,0.0,104.35913,78.47534,-142.44324
1769247207368,-0.98535156,0.19335938,-0.040039062,1.2817383,-0.6713867,0.061035156,0.0,0.0,0.0,103.61755,78.497314,-143.15735
1769247207455,-0.984375,0.18847656,-0.041992188,1.4648438,1.2817383,-0.4272461,0.0,0.0,0.0,103.61755,78.497314,-143.15735
1769247207467,-0.984375,0.18847656,-0.041992188,1.4648438,1.2817383,-0.4272461,0.0,0.0,0.0,103.9801,78.50281,-142.82227
1769247207555,-0.98876953,0.18701172,-0.053710938,-1.2817383,0.9765625,0.0,0.0,0.0,0.0,103.9801,78.50281,-142.82227
1769247207567,-0.98876953,0.18701172,-0.053710938,-1.2817383,0.9765625,0.0,0.0,0.0,0.0,104.47998,78.5083,-142.25647
1769247207655,-0.984375,0.18457031,-0.041992188,-0.12207031,2.4414062,-0.12207031,0.0,0.0,0.0,104.47998,78.5083,-142.25647
1769247207666,-0.984375,0.18457031,-0.041992188,-0.12207031,2.4414062,-0.12207031,0.0,0.0,0.0,105.66101,78.497314,-141.00952
1769247207754,-0.9785156,0.19091797,-0.053222656,-1.7089844,1.3427734,0.91552734,0.0,0.0,0.0,105.66101,78.497314,-141.00952
1769247207766,-0.9785156,0.19091797,-0.053222656,-1.7089844,1.3427734,0.91552734,0.0,0.0,0.0,106.1499,78.447876,-140.36682
1769247207854,-0.9868164,0.1875,-0.055664062,-0.36621094,0.0,0.6713867,0.0,0.0,0.0,106.1499,78.447876,-140.36682
1769247207865,-0.9868164,0.1875,-0.055664062,-0.36621094,0.0,0.6713867,0.0,0.0,0.0,106.37512,78.376465,-140.07568
1769247207954,-0.98291016,0.18603516,-0.048339844,-0.18310547,0.61035156,-0.12207031,0.0,0.0,0.0,106.37512,78.376465,-140.07568
1769247207965,-0.98291016,0.18603516,-0.048339844,-0.18310547,0.61035156,-0.12207031,0.0,0.0,0.0,106.17737,78.359985,-140.15808
1769247208053,-0.9848633,0.18652344,-0.056152344,-0.5493164,-1.0986328,0.48828125,0.0,0.0,0.0,106.17737,78.359985,-140.15808
1769247208065,-0.9848633,0.18652344,-0.056152344,-0.5493164,-1.0986328,0.48828125,0.0,0.0,0.0,106.36963,78.37097,-139.91089
1769247208153,-0.9819336,0.19140625,-0.05029297,0.36621094,-1.0375977,0.0,0.0,0.0,0.0,106.36963,78.37097,-139.91089
1769247208165,-0.9819336,0.19140625,-0.05029297,0.36621094,-1.0375977,0.0,0.0,0.0,0.0,105.512695,78.38196,-140.65796
1769247208253,-0.98339844,0.19140625,-0.05078125,0.36621094,-0.24414062,-0.36621094,0.0,0.0,0.0,105.512695,78.38196,-140.65796
1769247208264,-0.98339844,0.19140625,-0.05078125,0.36621094,-0.24414062,-0.36621094,0.0,0.0,0.0,105.27649,78.41492,-140.88867
1769247208353,-0.97509766,0.19091797,-0.046875,1.7089844,-0.36621094,-0.6713867,0.0,0.0,0.0,105.27649,78.41492,-140.88867
1769247208364,-0.97509766,0.19091797,-0.046875,1.7089844,-0.36621094,-0.6713867,0.0,0.0,0.0,105.35339,78.480835,-140.8667
1769247208452,-0.98779297,0.18798828,-0.046875,1.953125,-1.6479492,-0.12207031,0.0,0.0,0.0,105.35339,78.480835,-140.8667
1769247208464,-0.98779297,0.18798828,-0.046875,1.953125,-1.6479492,-0.12207031,0.0,0.0,0.0,104.61182,78.53027,-141.75659
1769247208552,-0.97558594,0.1850586,-0.038085938,5.432129,-0.18310547,-0.48828125,0.0,0.0,0.0,104.61182,78.53027,-141.75659
1769247208563,-0.97558594,0.1850586,-0.038085938,5.432129,-0.18310547,-0.48828125,0.0,0.0,0.0,104.58435,78.56323,-142.02026
1769247208652,-0.98828125,0.18457031,-0.049316406,3.2958984,-0.48828125,0.0,0.0,0.0,0.0,104.58435,78.56323,-142.02026
1769247208663,-0.98828125,0.18457031,-0.049316406,3.2958984,-0.48828125,0.0,0.0,0.0,0.0,104.66675,78.57971,-142.27295
1769247208751,-0.98828125,0.1796875,-0.046875,2.2583008,1.0375977,-0.6713867,0.0,0.0,0.0,104.66675,78.57971,-142.27295
1769247208763,-0.98828125,0.1796875,-0.046875,2.2583008,1.0375977,-0.6713867,0.0,0.0,0.0,105.01282,78.618164,-142.16309
1769247208851,-0.9824219,0.17773438,-0.049316406,-2.380371,3.112793,-0.061035156,0.0,0.0,0.0,105.01282,78.618164,-142.16309
1769247208863,-0.9824219,0.17773438,-0.049316406,-2.380371,3.112793,-0.061035156,0.0,0.0,0.0,106.41907,78.63464,-140.6305
1769247208951,-0.9711914,0.18457031,-0.049804688,-6.7749023,-0.24414062,2.6245117,0.0,0.0,0.0,106.41907,78.63464,-140.6305
1769247208962,-0.9711914,0.18457031,-0.049804688,-6.7749023,-0.24414062,2.6245117,0.0,0.0,0.0,105.979614,78.45337,-140.43823
1769247209050,-0.9916992,0.19873047,-0.05810547,-2.1362305,0.79345703,0.5493164,0.0,0.0,0.0,105.979614,78.45337,-140.43823
1769247209062,-0.9916992,0.19873047,-0.05810547,-2.1362305,0.79345703,0.5493164,0.0,0.0,0.0,105.22705,78.288574,-140.69092
1769247209150,-0.97998047,0.18603516,-0.047851562,-1.4648438,1.0986328,0.12207031,0.0,0.0,0.0,105.22705,78.288574,-140.69092
1769247209162,-0.97998047,0.18603516,-0.047851562,-1.4648438,1.0986328,0.12207031,0.0,0.0,0.0,105.71594,78.255615,-140.08667
1769247209250,-0.9790039,0.19824219,-0.056640625,0.9765625,0.18310547,-0.5493164,0.0,0.0,0.0,105.71594,78.255615,-140.08667
1769247209261,-0.9790039,0.19824219,-0.056640625,0.9765625,0.18310547,-0.5493164,0.0,0.0,0.0,106.01257,78.25012,-139.65271
1769247209350,-0.98291016,0.19140625,-0.05078125,3.9672852,-0.61035156,-0.4272461,0.0,0.0,0.0,106.01257,78.25012,-139.65271
1769247209361,-0.98291016,0.19140625,-0.05078125,3.9672852,-0.61035156,-0.4272461,0.0,0.0,0.0,106.21033,78.30505,-139.71863
1769247209449,-0.9848633,0.18603516,-0.0625,3.1738281,0.0,0.12207031,0.0,0.0,0.0,106.21033,78.30505,-139.71863
1769247209461,-0.9848633,0.18603516,-0.0625,3.1738281,0.0,0.12207031,0.0,0.0,0.0,106.37512,78.32703,-139.92737
1769247209549,-0.97558594,0.18701172,-0.053222656,5.7373047,-0.30517578,0.0,0.0,0.0,0.0,106.37512,78.32703,-139.92737
1769247209560,-0.97558594,0.18701172,-0.053222656,5.7373047,-0.30517578,0.0,0.0,0.0,0.0,106.37512,78.30505,-140.24048
1769247209649,-0.97998047,0.18261719,-0.05517578,2.319336,0.0,0.61035156,0.0,0.0,0.0,106.37512,78.30505,-140.24048
1769247209661,-0.97998047,0.18261719,-0.05517578,2.319336,0.0,0.61035156,0.0,0.0,0.0,106.35864,78.2666,-140.59204
1769247209749,-0.9863281,0.18603516,-0.06201172,1.2817383,1.8310547,-0.24414062,0.0,0.0,0.0,106.35864,78.2666,-140.59204
1769247209761,-0.9863281,0.18603516,-0.06201172,1.2817383,1.8310547,-0.24414062,0.0,0.0,0.0,106.7157,78.22266,-140.24048
1769247209848,-0.9824219,0.18017578,-0.048339844,-2.746582,0.4272461,0.7324219,0.0,0.0,0.0,106.7157,78.22266,-140.24048
1769247209859,-0.9824219,0.18017578,-0.048339844,-2.746582,0.4272461,0.7324219,0.0,0.0,0.0,107.265015,78.19519,-139.59778
1769247209948,-0.9868164,0.19335938,-0.060058594,-4.9438477,0.30517578,0.24414062,0.0,0.0,0.0,107.265015,78.19519,-139.59778
1769247209959,-0.9868164,0.19335938,-0.060058594,-4.9438477,0.30517578,0.24414062,0.0,0.0,0.0,106.89697,78.16223,-139.46045
1769247210047,-0.97998047,0.18896484,-0.04736328,-3.6010742,-0.36621094,-0.061035156,0.0,0.0,0.0,106.89697,78.16223,-139.46045
1769247210059,-0.97998047,0.18896484,-0.04736328,-3.6010742,-0.36621094,-0.061035156,0.0,0.0,0.0,106.814575,78.1897,-139.16382
1769247210147,-0.9794922,0.19677734,-0.048339844,-3.0517578,-1.5258789,0.4272461,0.0,0.0,0.0,106.814575,78.1897,-139.16382
1769247210159,-0.9794922,0.19677734,-0.048339844,-3.0517578,-1.5258789,0.4272461,0.0,0.0,0.0,105.633545,78.20618,-139.96033
1769247210247,-0.9814453,0.20117188,-0.045410156,-0.18310547,-1.953125,0.61035156,0.0,0.0,0.0,105.633545,78.20618,-139.96033
1769247210258,-0.9814453,0.20117188,-0.045410156,-0.18310547,-1.953125,0.61035156,0.0,0.0,0.0,104.42505,78.20618,-141.05347
1769247210346,-0.98779297,0.19726562,-0.04345703,0.8544922,-0.5493164,0.7324219,0.0,0.0,0.0,104.42505,78.20618,-141.05347
1769247210358,-0.98779297,0.19726562,-0.04345703,0.8544922,-0.5493164,0.7324219,0.0,0.0,0.0,103.864746,78.17871,-141.77307
1769247210446,-0.98095703,0.19726562,-0.04248047,-0.24414062,0.48828125,0.5493164,0.0,0.0,0.0,103.864746,78.17871,-141.77307
1769247210458,-0.98095703,0.19726562,-0.04248047,-0.24414062,0.48828125,0.5493164,0.0,0.0,0.0,103.87024,78.12378,-141.87195
1769247210546,-0.9790039,0.19140625,-0.04638672,0.12207031,0.5493164,-0.12207031,0.0,0.0,0.0,103.87024,78.12378,-141.87195
1769247210557,-0.9790039,0.19140625,-0.04638672,0.12207031,0.5493164,-0.12207031,0.0,0.0,0.0,104.02954,78.08533,-141.69067
1769247210645,-0.9824219,0.19677734,-0.045898438,-2.9907227,-0.36621094,0.5493164,0.0,0.0,0.0,104.02954,78.08533,-141.69067
1769247210657,-0.9824219,0.19677734,-0.045898438,-2.9907227,-0.36621094,0.5493164,0.0,0.0,0.0,103.84827,78.06885,-141.70166
1769247210745,-0.9819336,0.20263672,-0.040527344,-3.0517578,-0.79345703,0.4272461,0.0,0.0,0.0,103.84827,78.06885,-141.70166
1769247210757,-0.9819336,0.20263672,-0.040527344,-3.0517578,-0.79345703,0.4272461,0.0,0.0,0.0,103.2605,78.046875,-142.04224
1769247210845,-0.9819336,0.20214844,-0.0390625,-0.30517578,-0.48828125,0.0,0.0,0.0,0.0,103.2605,78.046875,-142.04224
1769247210856,-0.9819336,0.20214844,-0.0390625,-0.30517578,-0.48828125,0.0,0.0,0.0,0.0,102.700195,78.03589,-142.44324
1769247210944,-0.9814453,0.19921875,-0.037109375,1.2207031,-0.6713867,-0.36621094,0.0,0.0,0.0,102.700195,78.03589,-142.44324
1769247210956,-0.9814453,0.19921875,-0.037109375,1.2207031,-0.6713867,-0.36621094,0.0,0.0,0.0,102.458496,78.06885,-142.77283
1769247211044,-0.984375,0.1953125,-0.03857422,1.159668,-0.36621094,-0.30517578,0.0,0.0,0.0,102.458496,78.06885,-142.77283
1769247211056,-0.984375,0.1953125,-0.03857422,1.159668,-0.36621094,-0.30517578,0.0,0.0,0.0,102.2937,78.1073,-143.09692
1769247211144,-0.9824219,0.19482422,-0.03515625,0.30517578,-0.5493164,0.0,0.0,0.0,0.0,102.2937,78.1073,-143.09692
1769247211155,-0.9824219,0.19482422,-0.03515625,0.30517578,-0.5493164,0.0,0.0,0.0,0.0,102.15637,78.12927,-143.37158
1769247211244,-0.9819336,0.1928711,-0.037597656,-0.30517578,-0.061035156,0.12207031,0.0,0.0,0.0,102.15637,78.12927,-143.37158
1769247211255,-0.9819336,0.1928711,-0.037597656,-0.30517578,-0.061035156,0.12207031,0.0,0.0,0.0,101.99158,78.16223,-143.6792
1769247211343,-0.984375,0.19238281,-0.036621094,0.0,0.24414062,0.0,0.0,0.0,0.0,101.99158,78.16223,-143.6792
1769247211355,-0.984375,0.19238281,-0.036621094,0.0,0.24414062,0.0,0.0,0.0,0.0,102.10144,78.17871,-143.62976
1769247211443,-0.9838867,0.1928711,-0.041503906,0.6713867,0.061035156,-0.36621094,0.0,0.0,0.0,102.10144,78.17871,-143.62976
1769247211455,-0.9838867,0.1928711,-0.041503906,0.6713867,0.061035156,-0.36621094,0.0,0.0,0.0,102.11792,78.20068,-143.61877
1769247211543,-0.9838867,0.19238281,-0.04248047,-0.24414062,-0.18310547,-0.18310547,0.0,0.0,0.0,102.11792,78.20068,-143.61877
1769247211555,-0.9838867,0.19238281,-0.04248047,-0.24414062,-0.18310547,-0.18310547,0.0,0.0,0.0,102.12891,78.239136,-143.60779
1769247211642,-0.9824219,0.19335938,-0.03857422,-0.5493164,-0.36621094,-0.12207031,0.0,0.0,0.0,102.12891,78.239136,-143.60779
1769247211654,-0.9824219,0.19335938,-0.03857422,-0.5493164,-0.36621094,-0.12207031,0.0,0.0,0.0,102.00806,78.28308,-143.72864
1769247211742,-0.98339844,0.19580078,-0.040039062,0.6713867,0.0,-0.5493164,0.0,0.0,0.0,102.00806,78.28308,-143.72864
1769247211754,-0.98339844,0.19580078,-0.040039062,0.6713867,0.0,-0.5493164,0.0,0.0,0.0,101.969604,78.32703,-143.79456
1769247211842,-0.98095703,0.1899414,-0.03466797,0.0,-0.61035156,0.061035156,0.0,0.0,0.0,101.969604,78.32703,-143.79456
1769247211853,-0.98095703,0.1899414,-0.03466797,0.0,-0.61035156,0.061035156,0.0,0.0,0.0,101.969604,78.359985,-143.88245
1769247211941,-0.9848633,0.18847656,-0.03955078,0.12207031,-0.79345703,0.4272461,0.0,0.0,0.0,101.969604,78.359985,-143.88245
1769247211953,-0.9848633,0.18847656,-0.03955078,0.12207031,-0.79345703,0.4272461,0.0,0.0,0.0,101.590576,78.35449,-144.25598
1769247212041,-0.9838867,0.18945312,-0.034179688,-0.24414062,-0.061035156,-0.12207031,0.0,0.0,0.0,101.590576,78.35449,-144.25598
1769247212052,-0.9838867,0.18945312,-0.034179688,-0.24414062,-0.061035156,-0.12207031,0.0,0.0,0.0,101.26648,78.35449,-144.51965
1769247212141,-0.97802734,0.18945312,-0.032226562,-1.2207031,0.5493164,-0.4272461,0.0,0.0,0.0,101.26648,78.35449,-144.51965
1769247212152,-0.97802734,0.18945312,-0.032226562,-1.2207031,0.5493164,-0.4272461,0.0,0.0,0.0,101.27197,78.38196,-144.38232
1769247212240,-0.98339844,0.19384766,-0.03564453,-0.5493164,0.4272461,-0.30517578,0.0,0.0,0.0,101.27197,78.38196,-144.38232
1769247212252,-0.98339844,0.19384766,-0.03564453,-0.5493164,0.4272461,-0.30517578,0.0,0.0,0.0,101.43677,78.41492,-144.10767
1769247212340,-0.9824219,0.19335938,-0.036621094,-0.24414062,1.3427734,-0.12207031,0.0,0.0,0.0,101.43677,78.41492,-144.10767
1769247212352,-0.9824219,0.19335938,-0.036621094,-0.24414062,1.3427734,-0.12207031,0.0,0.0,0.0,101.84326,78.4259,-143.6792
1769247212440,-0.9868164,0.1928711,-0.03857422,2.380371,0.5493164,0.4272461,0.0,0.0,0.0,101.84326,78.4259,-143.6792
1769247212452,-0.9868164,0.1928711,-0.03857422,2.380371,0.5493164,0.4272461,0.0,0.0,0.0,102.44202,78.392944,-143.2013
1769247212540,-0.9824219,0.19628906,-0.044921875,2.8076172,0.30517578,0.8544922,0.0,0.0,0.0,102.44202,78.392944,-143.2013
1769247212551,-0.9824219,0.19628906,-0.044921875,2.8076172,0.30517578,0.8544922,0.0,0.0,0.0,102.46399,78.30505,-143.38257
1769247212639,-0.98339844,0.19482422,-0.040527344,2.4414062,-0.61035156,1.159668,0.0,0.0,0.0,102.46399,78.30505,-143.38257
1769247212651,-0.98339844,0.19482422,-0.040527344,2.4414062,-0.61035156,1.159668,0.0,0.0,0.0,102.51343,78.19519,-143.6023
1769247212739,-0.98339844,0.19335938,-0.041503906,2.9296875,0.061035156,0.24414062,0.0,0.0,0.0,102.51343,78.19519,-143.6023
1769247212750,-0.98339844,0.19335938,-0.041503906,2.9296875,0.061035156,0.24414062,0.0,0.0,0.0,102.66724,78.151245,-143.71765
1769247212838,-0.9824219,0.19042969,-0.038085938,2.2583008,0.0,0.0,0.0,0.0,0.0,102.66724,78.151245,-143.71765
1769247212850,-0.9824219,0.19042969,-0.038085938,2.2583008,0.0,0.0,0.0,0.0,0.0,102.837524,78.14575,-143.70667
1769247212938,-0.9824219,0.19140625,-0.0390625,-0.8544922,0.36621094,0.0,0.0,0.0,0.0,102.837524,78.14575,-143.70667
1769247212950,-0.9824219,0.19140625,-0.0390625,-0.8544922,0.36621094,0.0,0.0,0.0,0.0,102.94739,78.16223,-143.55286
1769247213038,-0.9863281,0.19433594,-0.043945312,-1.953125,0.36621094,-0.18310547,0.0,0.0,0.0,102.94739,78.16223,-143.55286
1769247213050,-0.9863281,0.19433594,-0.043945312,-1.953125,0.36621094,-0.18310547,0.0,0.0,0.0,102.8595,78.17322,-143.42651
1769247213138,-0.9814453,0.19482422,-0.041992188,-2.0141602,0.6713867,-0.36621094,0.0,0.0,0.0,102.8595,78.17322,-143.42651
1769247213149,-0.9814453,0.19482422,-0.041992188,-2.0141602,0.6713867,-0.36621094,0.0,0.0,0.0,102.941895,78.20618,-143.14636
1769247213237,-0.98339844,0.19433594,-0.044433594,0.0,0.6713867,-0.48828125,0.0,0.0,0.0,102.941895,78.20618,-143.14636
1769247213249,-0.98339844,0.19433594,-0.044433594,0.0,0.6713867,-0.48828125,0.0,0.0,0.0,103.13965,78.22266,-142.81677
1769247213337,-0.9838867,0.19189453,-0.044433594,-0.4272461,0.24414062,0.0,0.0,0.0,0.0,103.13965,78.22266,-142.81677
1769247213348,-0.9838867,0.19189453,-0.044433594,-0.4272461,0.24414062,0.0,0.0,0.0,0.0,103.36487,78.23364,-142.54211
1769247213437,-0.98095703,0.1928711,-0.04296875,-0.18310547,0.24414062,0.12207031,0.0,0.0,0.0,103.36487,78.23364,-142.54211
1769247213448,-0.98095703,0.1928711,-0.04296875,-0.18310547,0.24414062,0.12207031,0.0,0.0,0.0,103.447266,78.22815,-142.43774
1769247213536,-0.9824219,0.19140625,-0.04345703,0.18310547,0.12207031,-0.12207031,0.0,0.0,0.0,103.447266,78.22815,-142.43774
1769247213548,-0.9824219,0.19140625,-0.04345703,0.18310547,0.12207031,-0.12207031,0.0,0.0,0.0,103.463745,78.23364,-142.43225
1769247213637,-0.98291016,0.18798828,-0.043945312,-0.30517578,0.30517578,0.0,0.0,0.0,0.0,103.463745,78.23364,-142.43225
1769247213648,-0.98291016,0.18798828,-0.043945312,-0.30517578,0.30517578,0.0,0.0,0.0,0.0,103.44177,78.24463,-142.3938
1769247213736,-0.9819336,0.19628906,-0.048339844,-0.30517578,0.61035156,0.061035156,0.0,0.0,0.0,103.44177,78.24463,-142.3938
1769247213747,-0.9819336,0.19628906,-0.048339844,-0.30517578,0.61035156,0.061035156,0.0,0.0,0.0,103.584595,78.255615,-142.20154
1769247213835,-0.9838867,0.19482422,-0.048828125,-0.12207031,0.30517578,0.36621094,0.0,0.0,0.0,103.584595,78.255615,-142.20154
1769247213847,-0.9838867,0.19482422,-0.048828125,-0.12207031,0.30517578,0.36621094,0.0,0.0,0.0,103.87024,78.25012,-141.93237
1769247213935,-0.98046875,0.19384766,-0.04736328,1.0375977,0.4272461,0.30517578,0.0,0.0,0.0,103.87024,78.25012,-141.93237
1769247213947,-0.98046875,0.19384766,-0.04736328,1.0375977,0.4272461,0.30517578,0.0,0.0,0.0,104.11743,78.21167,-141.76208
1769247214035,-0.9819336,0.19482422,-0.048828125,1.5258789,0.0,0.4272461,0.0,0.0,0.0,104.11743,78.21167,-141.76208
1769247214046,-0.9819336,0.19482422,-0.048828125,1.5258789,0.0,0.4272461,0.0,0.0,0.0,104.28772,78.17322,-141.70166
1769247214134,-0.9819336,0.19433594,-0.048339844,0.4272461,0.0,0.36621094,0.0,0.0,0.0,104.28772,78.17322,-141.70166
1769247214146,-0.9819336,0.19433594,-0.048339844,0.4272461,0.0,0.36621094,0.0,0.0,0.0,104.3866,78.14575,-141.73462
1769247214234,-0.98339844,0.1928711,-0.046875,0.0,-0.24414062,0.24414062,0.0,0.0,0.0,104.3866,78.14575,-141.73462
1769247214246,-0.98339844,0.1928711,-0.046875,0.0,-0.24414062,0.24414062,0.0,0.0,0.0,104.3811,78.12927,-141.80603
1769247214334,-0.98339844,0.1899414,-0.045410156,-1.5258789,-0.48828125,-0.24414062,0.0,0.0,0.0,104.3811,78.12927,-141.80603
1769247214345,-0.98339844,0.1899414,-0.045410156,-1.5258789,-0.48828125,-0.24414062,0.0,0.0,0.0,104.15588,78.15674,-141.97083
1769247214434,-0.98339844,0.19335938,-0.048339844,-2.1362305,0.0,-0.48828125,0.0,0.0,0.0,104.15588,78.15674,-141.97083
1769247214445,-0.98339844,0.19335938,-0.048339844,-2.1362305,0.0,-0.48828125,0.0,0.0,0.0,103.87024,78.21716,-142.08069
1769247214533,-0.98339844,0.19433594,-0.048339844,-1.7700195,-0.18310547,-0.18310547,0.0,0.0,0.0,103.87024,78.21716,-142.08069
1769247214545,-0.98339844,0.19433594,-0.048339844,-1.7700195,-0.18310547,-0.18310547,0.0,0.0,0.0,103.81531,78.26111,-141.97632
1769247214633,-0.97998047,0.1953125,-0.044921875,0.12207031,0.0,0.0,0.0,0.0,0.0,103.81531,78.26111,-141.97632
1769247214644,-0.97998047,0.1953125,-0.044921875,0.12207031,0.0,0.0,0.0,0.0,0.0,103.7384,78.255615,-141.92139
1769247214733,-0.9838867,0.19189453,-0.044921875,2.319336,-0.4272461,0.0,0.0,0.0,0.0,103.7384,78.255615,-141.92139
1769247214744,-0.9838867,0.19189453,-0.044921875,2.319336,-0.4272461,0.0,0.0,0.0,0.0,103.7439,78.24463,-142.02026
1769247214832,-0.9819336,0.19140625,-0.0390625,1.2817383,-1.2207031,0.48828125,0.0,0.0,0.0,103.7439,78.24463,-142.02026
1769247214844,-0.9819336,0.19140625,-0.0390625,1.2817383,-1.2207031,0.48828125,0.0,0.0,0.0,103.54614,78.23364,-142.41577
1769247214932,-0.9819336,0.19433594,-0.038085938,1.4648438,-1.2207031,0.5493164,0.0,0.0,0.0,103.54614,78.23364,-142.41577
1769247214944,-0.9819336,0.19433594,-0.038085938,1.4648438,-1.2207031,0.5493164,0.0,0.0,0.0,102.958374,78.21716,-143.14087
1769247215032,-0.98339844,0.19433594,-0.03955078,1.159668,-0.79345703,0.4272461,0.0,0.0,0.0,102.958374,78.21716,-143.14087
1769247215043,-0.98339844,0.19433594,-0.03955078,1.159668,-0.79345703,0.4272461,0.0,0.0,0.0,102.524414,78.20618,-143.70667
1769247215131,-0.984375,0.19433594,-0.037109375,1.2817383,-0.61035156,0.30517578,0.0,0.0,0.0,102.524414,78.20618,-143.70667
1769247215143,-0.984375,0.19433594,-0.037109375,1.2817383,-0.61035156,0.30517578,0.0,0.0,0.0,102.23328,78.19519,-144.12964
1769247215232,-0.9897461,0.19140625,-0.036132812,0.12207031,0.6713867,0.0,0.0,0.0,0.0,102.23328,78.19519,-144.12964
1769247215243,-0.9897461,0.19140625,-0.036132812,0.12207031,0.6713867,0.0,0.0,0.0,0.0,102.28821,78.20068,-144.14062
1769247215331,-0.98046875,0.1899414,-0.041503906,-2.319336,-1.0375977,0.8544922,0.0,0.0,0.0,102.28821,78.20068,-144.14062
1769247215342,-0.98046875,0.1899414,-0.041503906,-2.319336,-1.0375977,0.8544922,0.0,0.0,0.0,101.80481,78.17322,-144.5581
1769247215431,-0.98046875,0.19921875,-0.025878906,-3.112793,-2.1972656,1.0375977,0.0,0.0,0.0,101.80481,78.17322,-144.5581
1769247215442,-0.98046875,0.19921875,-0.025878906,-3.112793,-2.1972656,1.0375977,0.0,0.0,0.0,100.909424,78.16223,-145.29968
1769247215530,-0.97558594,0.20263672,-0.03125,-2.5634766,-3.3569336,0.91552734,0.0,0.0,0.0,100.909424,78.16223,-145.29968
1769247215542,-0.97558594,0.20263672,-0.03125,-2.5634766,-3.3569336,0.91552734,0.0,0.0,0.0,99.036255,78.118286,-146.94214
1769247215630,-0.9785156,0.19970703,-0.0234375,-0.061035156,-1.8920898,0.30517578,0.0,0.0,0.0,99.036255,78.118286,-146.94214
1769247215641,-0.9785156,0.19970703,-0.0234375,-0.061035156,-1.8920898,0.30517578,0.0,0.0,0.0,97.78381,78.09631,-148.1781
1769247215730,-0.98291016,0.20214844,-0.024902344,1.2817383,0.5493164,-0.30517578,0.0,0.0,0.0,97.78381,78.09631,-148.1781
1769247215742,-0.98291016,0.20214844,-0.024902344,1.2817383,0.5493164,-0.30517578,0.0,0.0,0.0,97.58057,78.10181,-148.43079
1769247215829,-0.98046875,0.19824219,-0.028320312,0.48828125,0.9765625,-0.4272461,0.0,0.0,0.0,97.58057,78.10181,-148.43079
1769247215841,-0.98046875,0.19824219,-0.028320312,0.48828125,0.9765625,-0.4272461,0.0,0.0,0.0,97.77832,78.12927,-148.30994
1769247215929,-0.9824219,0.19726562,-0.025878906,-0.30517578,1.0986328,-0.18310547,0.0,0.0,0.0,97.77832,78.12927,-148.30994
1769247215940,-0.9824219,0.19726562,-0.025878906,-0.30517578,1.0986328,-0.18310547,0.0,0.0,0.0,98.34412,78.14575,-147.74414
1769247216029,-0.9868164,0.1977539,-0.024902344,-0.18310547,2.319336,-0.7324219,0.0,0.0,0.0,98.34412,78.14575,-147.74414
1769247216040,-0.9868164,0.1977539,-0.024902344,-0.18310547,2.319336,-0.7324219,0.0,0.0,0.0,99.40979,78.17322,-146.64001
1769247216128,-0.98095703,0.19580078,-0.028808594,0.4272461,1.7089844,-0.8544922,0.0,0.0,0.0,99.40979,78.17322,-146.64001
1769247216140,-0.98095703,0.19580078,-0.028808594,0.4272461,1.7089844,-0.8544922,0.0,0.0,0.0,100.50293,78.239136,-145.5249
1769247216228,-0.98535156,0.19335938,-0.03466797,0.8544922,0.8544922,-0.4272461,0.0,0.0,0.0,100.50293,78.239136,-145.5249
1769247216240,-0.98535156,0.19335938,-0.03466797,0.8544922,0.8544922,-0.4272461,0.0,0.0,0.0,100.95886,78.26111,-145.047
1769247216328,-0.9824219,0.19482422,-0.030761719,0.36621094,0.0,0.12207031,0.0,0.0,0.0,100.95886,78.26111,-145.047
1769247216339,-0.9824219,0.19482422,-0.030761719,0.36621094,0.0,0.12207031,0.0,0.0,0.0,101.068726,78.255615,-144.92615
1769247216427,-0.9863281,0.19335938,-0.034179688,1.0375977,0.24414062,0.061035156,0.0,0.0,0.0,101.068726,78.255615,-144.92615
1769247216439,-0.9863281,0.19335938,-0.034179688,1.0375977,0.24414062,0.061035156,0.0,0.0,0.0,101.15662,78.25012,-144.91516
1769247216527,-0.98291016,0.19140625,-0.032714844,0.5493164,0.48828125,-0.12207031,0.0,0.0,0.0,101.15662,78.25012,-144.91516
1769247216539,-0.98291016,0.19140625,-0.032714844,0.5493164,0.48828125,-0.12207031,0.0,0.0,0.0,101.4093,78.26111,-144.74487
1769247216627,-0.9838867,0.1953125,-0.034179688,0.18310547,0.4272461,0.0,0.0,0.0,0.0,101.4093,78.26111,-144.74487
1769247216638,-0.9838867,0.1953125,-0.034179688,0.18310547,0.4272461,0.0,0.0,0.0,0.0,101.44226,78.255615,-144.7174
1769247216726,-0.98339844,0.19384766,-0.037597656,0.061035156,0.6713867,-0.12207031,0.0,0.0,0.0,101.44226,78.255615,-144.7174
1769247216738,-0.98339844,0.19384766,-0.037597656,0.061035156,0.6713867,-0.12207031,0.0,0.0,0.0,101.68396,78.255615,-144.47021
1769247216826,-0.9824219,0.1928711,-0.038085938,-0.18310547,0.79345703,0.0,0.0,0.0,0.0,101.68396,78.255615,-144.47021
1769247216838,-0.9824219,0.1928711,-0.038085938,-0.18310547,0.79345703,0.0,0.0,0.0,0.0,102.07947,78.26111,-144.06372
1769247216926,-0.98291016,0.19482422,-0.040039062,-0.30517578,0.5493164,0.0,0.0,0.0,0.0,102.07947,78.26111,-144.06372
1769247216937,-0.98291016,0.19482422,-0.040039062,-0.30517578,0.5493164,0.0,0.0,0.0,0.0,102.266235,78.255615,-143.82202
1769247217026,-0.98095703,0.19189453,-0.041503906,0.36621094,0.61035156,0.0,0.0,0.0,0.0,102.266235,78.255615,-143.82202
1769247217037,-0.98095703,0.19189453,-0.041503906,0.36621094,0.61035156,0.0,0.0,0.0,0.0,102.453,78.24463,-143.58582
1769247217126,-0.9814453,0.19580078,-0.043945312,0.18310547,0.9765625,0.0,0.0,0.0,0.0,102.453,78.24463,-143.58582
1769247217137,-0.9814453,0.19580078,-0.043945312,0.18310547,0.9765625,0.0,0.0,0.0,0.0,102.804565,78.23364,-143.22876
1769247217225,-0.9838867,0.19433594,-0.044921875,0.24414062,0.61035156,0.0,0.0,0.0,0.0,102.804565,78.23364,-143.22876
1769247217237,-0.9838867,0.19433594,-0.044921875,0.24414062,0.61035156,0.0,0.0,0.0,0.0,103.21655,78.21716,-142.84424
1769247217325,-0.98095703,0.19189453,-0.044433594,0.36621094,0.4272461,0.0,0.0,0.0,0.0,103.21655,78.21716,-142.84424
1769247217336,-0.98095703,0.19189453,-0.044433594,0.36621094,0.4272461,0.0,0.0,0.0,0.0,103.463745,78.21167,-142.64099
1769247217424,-0.9819336,0.19335938,-0.048339844,-0.12207031,-0.12207031,0.24414062,0.0,0.0,0.0,103.463745,78.21167,-142.64099
1769247217436,-0.9819336,0.19335938,-0.048339844,-0.12207031,-0.12207031,0.24414062,0.0,0.0,0.0,103.551636,78.21167,-142.53662
1769247217524,-0.98291016,0.19433594,-0.047851562,-0.61035156,-0.24414062,0.5493164,0.0,0.0,0.0,103.551636,78.21167,-142.53662
1769247217536,-0.98291016,0.19433594,-0.047851562,-0.61035156,-0.24414062,0.5493164,0.0,0.0,0.0,103.49121,78.1897,-142.58606
1769247217624,-0.98095703,0.19335938,-0.04638672,-0.18310547,-0.4272461,0.30517578,0.0,0.0,0.0,103.49121,78.1897,-142.58606
1769247217635,-0.98095703,0.19335938,-0.04638672,-0.18310547,-0.4272461,0.30517578,0.0,0.0,0.0,103.35388,78.167725,-142.7179
1769247217723,-0.9838867,0.1928711,-0.044921875,-0.5493164,-0.6713867,0.0,0.0,0.0,0.0,103.35388,78.167725,-142.7179
1769247217735,-0.9838867,0.1928711,-0.044921875,-0.5493164,-0.6713867,0.0,0.0,0.0,0.0,103.04077,78.17322,-143.00903
1769247217823,-0.9819336,0.19482422,-0.041503906,-0.48828125,-0.79345703,-0.18310547,0.0,0.0,0.0,103.04077,78.17322,-143.00903
1769247217834,-0.9819336,0.19482422,-0.041503906,-0.48828125,-0.79345703,-0.18310547,0.0,0.0,0.0,102.67822,78.20618,-143.3551
1769247217923,-0.9848633,0.19335938,-0.03955078,0.0,-0.5493164,-0.30517578,0.0,0.0,0.0,102.67822,78.20618,-143.3551
1769247217934,-0.9848633,0.19335938,-0.03955078,0.0,-0.5493164,-0.30517578,0.0,0.0,0.0,102.474976,78.255615,-143.57483
1769247218022,-0.9848633,0.19140625,-0.032226562,0.79345703,-0.79345703,0.0,0.0,0.0,0.0,102.474976,78.255615,-143.57483
1769247218034,-0.9848633,0.19140625,-0.032226562,0.79345703,-0.79345703,0.0,0.0,0.0,0.0,102.20032,78.27759,-143.85498
1769247218122,-0.98095703,0.19628906,-0.03466797,1.4038086,-0.18310547,0.0,0.0,0.0,0.0,102.20032,78.27759,-143.85498
1769247218134,-0.98095703,0.19628906,-0.03466797,1.4038086,-0.18310547,0.0,0.0,0.0,0.0,102.01904,78.29407,-144.10767
1769247218222,-0.98535156,0.19189453,-0.03515625,2.2583008,-0.61035156,0.24414062,0.0,0.0,0.0,102.01904,78.29407,-144.10767
1769247218233,-0.98535156,0.19189453,-0.03515625,2.2583008,-0.61035156,0.24414062,0.0,0.0,0.0,102.00256,78.29956,-144.3274
1769247218322,-0.98046875,0.19091797,-0.037109375,1.7089844,-0.24414062,0.18310547,0.0,0.0,0.0,102.00256,78.29956,-144.3274
1769247218333,-0.98046875,0.19091797,-0.037109375,1.7089844,-0.24414062,0.18310547,0.0,0.0,0.0,101.865234,78.29407,-144.66797
1769247218421,-0.984375,0.19433594,-0.037109375,0.6713867,0.12207031,0.061035156,0.0,0.0,0.0,101.865234,78.29407,-144.66797
1769247218433,-0.984375,0.19433594,-0.037109375,0.6713867,0.12207031,0.061035156,0.0,0.0,0.0,101.936646,78.27759,-144.70642
1769247218521,-0.984375,0.19042969,-0.040527344,0.18310547,0.7324219,-0.24414062,0.0,0.0,0.0,101.936646,78.27759,-144.70642
1769247218533,-0.984375,0.19042969,-0.040527344,0.18310547,0.7324219,-0.24414062,0.0,0.0,0.0,102.17285,78.288574,-144.50317
1769247218621,-0.984375,0.19091797,-0.040039062,-1.6479492,0.061035156,0.0,0.0,0.0,0.0,102.17285,78.288574,-144.50317
1769247218632,-0.984375,0.19091797,-0.040039062,-1.6479492,0.061035156,0.0,0.0,0.0,0.0,102.2113,78.31604,-144.38232
1769247218720,-0.98339844,0.19433594,-0.036621094,-1.3427734,0.12207031,-0.91552734,0.0,0.0,0.0,102.2113,78.31604,-144.38232
1769247218732,-0.98339844,0.19433594,-0.036621094,-1.3427734,0.12207031,-0.91552734,0.0,0.0,0.0,102.09595,78.37097,-144.37134
1769247218820,-0.9848633,0.19091797,-0.034179688,-2.0751953,0.7324219,-1.0986328,0.0,0.0,0.0,102.09595,78.37097,-144.37134
1769247218831,-0.9848633,0.19091797,-0.034179688,-2.0751953,0.7324219,-1.0986328,0.0,0.0,0.0,102.249756,78.480835,-144.13513
1769247218920,-0.98095703,0.19189453,-0.03466797,-1.4038086,-0.30517578,-0.24414062,0.0,0.0,0.0,102.249756,78.480835,-144.13513
1769247218931,-0.98095703,0.19189453,-0.03466797,-1.4038086,-0.30517578,-0.24414062,0.0,0.0,0.0,102.16736,78.552246,-144.05823
1769247219019,-0.9794922,0.19238281,-0.03515625,-0.24414062,-0.61035156,0.24414062,0.0,0.0,0.0,102.16736,78.552246,-144.05823
1769247219031,-0.9794922,0.19238281,-0.03515625,-0.24414062,-0.61035156,0.24414062,0.0,0.0,0.0,101.79932,78.552246,-144.33838
1769247219119,-0.9838867,0.1875,-0.03125,0.30517578,0.18310547,0.0,0.0,0.0,0.0,101.79932,78.552246,-144.33838
1769247219131,-0.9838867,0.1875,-0.03125,0.30517578,0.18310547,0.0,0.0,0.0,0.0,101.78284,78.54675,-144.4043
1769247219219,-0.984375,0.18652344,-0.037597656,-0.8544922,0.6713867,0.79345703,0.0,0.0,0.0,101.78284,78.54675,-144.4043
1769247219230,-0.984375,0.18652344,-0.037597656,-0.8544922,0.6713867,0.79345703,0.0,0.0,0.0,101.67847,78.50281,-144.4043
1769247219318,-0.98291016,0.19042969,-0.03955078,-0.12207031,-0.4272461,0.79345703,0.0,0.0,0.0,101.67847,78.50281,-144.4043
1769247219330,-0.98291016,0.19042969,-0.03955078,-0.12207031,-0.4272461,0.79345703,0.0,0.0,0.0,101.47522,78.4314,-144.56909
1769247219418,-0.98535156,0.1850586,-0.037109375,-0.36621094,0.6713867,0.48828125,0.0,0.0,0.0,101.47522,78.4314,-144.56909
1769247219430,-0.98535156,0.1850586,-0.037109375,-0.36621094,0.6713867,0.48828125,0.0,0.0,0.0,101.47522,78.38745,-144.54163
1769247219518,-0.9868164,0.19335938,-0.04248047,-0.8544922,1.0375977,0.7324219,0.0,0.0,0.0,101.47522,78.38745,-144.54163
1769247219530,-0.9868164,0.19335938,-0.04248047,-0.8544922,1.0375977,0.7324219,0.0,0.0,0.0,101.7334,78.32703,-144.17908
1769247219618,-0.98535156,0.18945312,-0.045410156,0.18310547,1.0986328,-0.061035156,0.0,0.0,0.0,101.7334,78.32703,-144.17908
1769247219629,-0.98535156,0.18945312,-0.045410156,0.18310547,1.0986328,-0.061035156,0.0,0.0,0.0,102.2113,78.29956,-143.66272
1769247219717,-0.9926758,0.1928711,-0.05126953,0.24414062,3.1738281,-1.6479492,0.0,0.0,0.0,102.2113,78.29956,-143.66272
1769247219729,-0.9926758,0.1928711,-0.05126953,0.24414062,3.1738281,-1.6479492,0.0,0.0,0.0,103.392334,78.36548,-142.50366
1769247219817,-0.97753906,0.19580078,-0.061035156,6.0424805,6.958008,-2.4414062,0.0,0.0,0.0,103.392334,78.36548,-142.50366
1769247219829,-0.97753906,0.19580078,-0.061035156,6.0424805,6.958008,-2.4414062,0.0,0.0,0.0,106.96838,78.480835,-139.11438
1769247219917,-0.9790039,0.16894531,-0.07519531,4.5166016,8.728027,2.6855469,0.0,0.0,0.0,106.96838,78.480835,-139.11438
1769247219929,-0.9790039,0.16894531,-0.07519531,4.5166016,8.728027,2.6855469,0.0,0.0,0.0,109.6875,78.118286,-136.54907
1769247220016,-0.97216797,0.1977539,-0.07763672,-10.925293,1.0375977,9.094238,0.0,0.0,0.0,109.6875,78.118286,-136.54907
1769247220028,-0.97216797,0.1977539,-0.07763672,-10.925293,1.0375977,9.094238,0.0,0.0,0.0,109.89624,77.44263,-135.83496
1769247220116,-0.94970703,0.21240234,-0.026367188,-16.357422,-6.8969727,11.535645,0.0,0.0,0.0,109.89624,77.44263,-135.83496
1769247220128,-0.94970703,0.21240234,-0.026367188,-16.357422,-6.8969727,11.535645,0.0,0.0,0.0,106.7157,76.68457,-138.30688
1769247220216,-1.0258789,0.26464844,-0.09423828,3.3569336,-1.6479492,3.2958984,0.0,0.0,0.0,106.7157,76.68457,-138.30688
1769247220227,-1.0258789,0.26464844,-0.09423828,3.3569336,-1.6479492,3.2958984,0.0,0.0,0.0,101.68396,75.94299,-142.4762
1769247220315,-0.9770508,0.1928711,-0.019042969,-2.1362305,8.361816,-0.4272461,0.0,0.0,0.0,101.68396,75.94299,-142.4762
1769247220327,-0.9770508,0.1928711,-0.019042969,-2.1362305,8.361816,-0.4272461,0.0,0.0,0.0,104.96338,75.92651,-140.02075
1769247220415,-0.99853516,0.2446289,-0.09667969,-5.2490234,14.282227,1.5869141,0.0,0.0,0.0,104.96338,75.92651,-140.02075
1769247220427,-0.99853516,0.2446289,-0.09667969,-5.2490234,14.282227,1.5869141,0.0,0.0,0.0,107.940674,75.52551,-136.00525
1769247220515,-0.95214844,0.1875,-0.044921875,-10.314941,23.31543,17.27295,0.0,0.0,0.0,107.940674,75.52551,-136.00525
1769247220526,-0.95214844,0.1875,-0.044921875,-10.314941,23.31543,17.27295,0.0,0.0,0.0,113.52722,73.75122,-129.74854
1769247220615,-0.91796875,0.36914062,-0.18115234,-3.6010742,25.634766,9.70459,0.0,0.0,0.0,113.52722,73.75122,-129.74854
1769247220626,-0.91796875,0.36914062,-0.18115234,-3.6010742,25.634766,9.70459,0.0,0.0,0.0,115.69702,71.87805,-126.06262
1769247220714,-0.9658203,0.30322266,-0.1850586,12.6953125,3.540039,11.535645,0.0,0.0,0.0,115.69702,71.87805,-126.06262
1769247220726,-0.9658203,0.30322266,-0.1850586,12.6953125,3.540039,11.535645,0.0,0.0,0.0,117.74048,70.42786,-125.29358
1769247220814,-0.92626953,0.30908203,-0.14111328,19.470215,-4.699707,6.3476562,0.0,0.0,0.0,117.74048,70.42786,-125.29358
1769247220825,-0.92626953,0.30908203,-0.14111328,19.470215,-4.699707,6.3476562,0.0,0.0,0.0,117.59766,69.55444,-127.474365
1769247220914,-0.95654297,0.31835938,-0.17041016,25.634766,-5.9814453,-1.8920898,0.0,0.0,0.0,117.59766,69.55444,-127.474365
1769247220925,-0.95654297,0.31835938,-0.17041016,25.634766,-5.9814453,-1.8920898,0.0,0.0,0.0,118.31726,69.74121,-129.22668
1769247221013,-0.9501953,0.2529297,-0.15429688,15.441895,-0.9765625,-0.30517578,0.0,0.0,0.0,118.31726,69.74121,-129.22668
1769247221025,-0.9501953,0.2529297,-0.15429688,15.441895,-0.9765625,-0.30517578,0.0,0.0,0.0,120.201416,69.971924,-129.52332
1769247221113,-0.9394531,0.29101562,-0.16894531,1.6479492,1.0375977,0.48828125,0.0,0.0,0.0,120.201416,69.971924,-129.52332
1769247221124,-0.9394531,0.29101562,-0.16894531,1.6479492,1.0375977,0.48828125,0.0,0.0,0.0,120.75073,69.98291,-129.51233
1769247221213,-0.94628906,0.2685547,-0.15576172,-4.638672,-0.79345703,1.5869141,0.0,0.0,0.0,120.75073,69.98291,-129.51233
1769247221224,-0.94628906,0.2685547,-0.15576172,-4.638672,-0.79345703,1.5869141,0.0,0.0,0.0,120.40466,69.94995,-129.71558
1769247221312,-0.94091797,0.3076172,-0.16259766,-12.6953125,1.2817383,0.0,0.0,0.0,0.0,120.40466,69.94995,-129.71558
1769247221324,-0.94091797,0.3076172,-0.16259766,-12.6953125,1.2817383,0.0,0.0,0.0,0.0,119.470825,69.91699,-129.62769
1769247221412,-0.9399414,0.30615234,-0.17041016,-7.5683594,2.0141602,-1.7700195,0.0,0.0,0.0,119.470825,69.91699,-129.62769
1769247221424,-0.9399414,0.30615234,-0.17041016,-7.5683594,2.0141602,-1.7700195,0.0,0.0,0.0,119.06433,69.96094,-129.10583
1769247221512,-0.9394531,0.30615234,-0.16552734,-6.286621,0.6713867,-0.61035156,0.0,0.0,0.0,119.06433,69.96094,-129.10583
1769247221523,-0.9394531,0.30615234,-0.16552734,-6.286621,0.6713867,-0.61035156,0.0,0.0,0.0,118.828125,69.9939,-128.70483
1769247221612,-0.9375,0.3095703,-0.17041016,-1.4038086,0.61035156,0.48828125,0.0,0.0,0.0,118.828125,69.9939,-128.70483
1769247221623,-0.9375,0.3095703,-0.17041016,-1.4038086,0.61035156,0.48828125,0.0,0.0,0.0,118.64136,69.922485,-128.55103
1769247221711,-0.9477539,0.31054688,-0.17041016,0.61035156,-1.4648438,1.5258789,0.0,0.0,0.0,118.64136,69.922485,-128.55103
1769247221723,-0.9477539,0.31054688,-0.17041016,0.61035156,-1.4648438,1.5258789,0.0,0.0,0.0,118.71277,69.801636,-128.573
1769247221811,-0.94189453,0.31152344,-0.1616211,4.1503906,-2.6855469,1.0375977,0.0,0.0,0.0,118.71277,69.801636,-128.573
1769247221822,-0.94189453,0.31152344,-0.1616211,4.1503906,-2.6855469,1.0375977,0.0,0.0,0.0,118.289795,69.77417,-129.40247
1769247221911,-0.94628906,0.31835938,-0.15820312,4.5166016,-0.79345703,0.61035156,0.0,0.0,0.0,118.289795,69.77417,-129.40247
1769247221922,-0.94628906,0.31835938,-0.15820312,4.5166016,-0.79345703,0.61035156,0.0,0.0,0.0,118.14697,69.7522,-130.10559
1769247222010,-0.9399414,0.234375,-0.15625,1.5869141,-3.0517578,1.0375977,0.0,0.0,0.0,118.14697,69.7522,-130.10559
1769247222022,-0.9399414,0.234375,-0.15625,1.5869141,-3.0517578,1.0375977,0.0,0.0,0.0,117.734985,69.70825,-130.74829
1769247222110,-0.9711914,0.2993164,-0.10205078,-13.85498,-5.3100586,-5.004883,0.0,0.0,0.0,117.734985,69.70825,-130.74829
1769247222122,-0.9711914,0.2993164,-0.10205078,-13.85498,-5.3100586,-5.004883,0.0,0.0,0.0,116.53198,70.21912,-131.90186
1769247222210,-0.9526367,0.33935547,-0.16064453,-13.305664,4.760742,-4.272461,0.0,0.0,0.0,116.53198,70.21912,-131.90186
1769247222221,-0.9526367,0.33935547,-0.16064453,-13.305664,4.760742,-4.272461,0.0,0.0,0.0,116.674805,70.69702,-130.32532
1769247222309,-0.9189453,0.35986328,-0.16259766,12.390137,3.3569336,-1.4648438,0.0,0.0,0.0,116.674805,70.69702,-130.32532
1769247222321,-0.9189453,0.35986328,-0.16259766,12.390137,3.3569336,-1.4648438,0.0,0.0,0.0,116.76819,70.75745,-129.60571
1769247222409,-0.9633789,0.23535156,-0.13867188,12.756348,6.8969727,-1.2207031,0.0,0.0,0.0,116.76819,70.75745,-129.60571
1769247222420,-0.9633789,0.23535156,-0.13867188,12.756348,6.8969727,-1.2207031,0.0,0.0,0.0,120.41016,70.80139,-128.16101
1769247222509,-0.9296875,0.27246094,-0.1743164,-24.841309,1.7700195,5.859375,0.0,0.0,0.0,120.41016,70.80139,-128.16101
1769247222520,-0.9296875,0.27246094,-0.1743164,-24.841309,1.7700195,5.859375,0.0,0.0,0.0,119.37195,70.41138,-128.10608
1769247222608,-0.9423828,0.28466797,-0.1430664,-15.808105,6.713867,0.30517578,0.0,0.0,0.0,119.37195,70.41138,-128.10608
1769247222620,-0.9423828,0.28466797,-0.1430664,-15.808105,6.713867,0.30517578,0.0,0.0,0.0,118.38318,70.08728,-127.39197
1769247222708,-0.9501953,0.30615234,-0.18603516,-29.296875,3.0517578,-0.18310547,0.0,0.0,0.0,118.38318,70.08728,-127.39197
1769247222720,-0.9501953,0.30615234,-0.18603516,-29.296875,3.0517578,-0.18310547,0.0,0.0,0.0,117.68555,69.78516,-126.01318
1769247222808,-0.9223633,0.36376953,-0.16748047,-10.437012,0.4272461,-4.0893555,0.0,0.0,0.0,117.68555,69.78516,-126.01318
1769247222819,-0.9223633,0.36376953,-0.16748047,-10.437012,0.4272461,-4.0893555,0.0,0.0,0.0,115.40039,69.94995,-126.01318
1769247222908,-0.92822266,0.2836914,-0.15332031,3.4179688,2.9907227,-2.8076172,0.0,0.0,0.0,115.40039,69.94995,-126.01318
1769247222919,-0.92822266,0.2836914,-0.15332031,3.4179688,2.9907227,-2.8076172,0.0,0.0,0.0,117.14172,70.2301,-124.854126
1769247223007,-0.9682617,0.31445312,-0.1977539,0.79345703,-6.958008,2.9296875,0.0,0.0,0.0,117.14172,70.2301,-124.854126
1769247223019,-0.9682617,0.31445312,-0.1977539,0.79345703,-6.958008,2.9296875,0.0,0.0,0.0,116.70776,70.12024,-125.48035
1769247223107,-0.9355469,0.30517578,-0.114746094,9.399414,-8.666992,0.61035156,0.0,0.0,0.0,116.70776,70.12024,-125.48035
1769247223118,-0.9355469,0.30517578,-0.114746094,9.399414,-8.666992,0.61035156,0.0,0.0,0.0,115.01587,70.29053,-128.11157
1769247223207,-0.94873047,0.31640625,-0.12890625,9.033203,-2.1972656,1.5258789,0.0,0.0,0.0,115.01587,70.29053,-128.11157
1769247223218,-0.94873047,0.31640625,-0.12890625,9.033203,-2.1972656,1.5258789,0.0,0.0,0.0,115.33447,70.41687,-129.14429
1769247223306,-0.92089844,0.26708984,-0.12792969,19.226074,-3.2348633,-1.5869141,0.0,0.0,0.0,115.33447,70.41687,-129.14429
1769247223318,-0.92089844,0.26708984,-0.12792969,19.226074,-3.2348633,-1.5869141,0.0,0.0,0.0,115.686035,70.5542,-130.47363
1769247223406,-0.94970703,0.296875,-0.14746094,1.5258789,-11.962891,2.8686523,0.0,0.0,0.0,115.686035,70.5542,-130.47363
1769247223417,-0.94970703,0.296875,-0.14746094,1.5258789,-11.962891,2.8686523,0.0,0.0,0.0,113.90076,70.65857,-132.8302
1769247223506,-0.9555664,0.26953125,-0.10644531,1.8920898,-1.7089844,1.2207031,0.0,0.0,0.0,113.90076,70.65857,-132.8302
1769247223517,-0.9555664,0.26953125,-0.10644531,1.8920898,-1.7089844,1.2207031,0.0,0.0,0.0,112.86255,70.878296,-134.61548
1769247223605,-0.9609375,0.31347656,-0.13134766,-5.9814453,0.0,0.18310547,0.0,0.0,0.0,112.86255,70.878296,-134.61548
1769247223617,-0.9609375,0.31347656,-0.13134766,-5.9814453,0.0,0.18310547,0.0,0.0,0.0,112.2583,70.82886,-134.69788
1769247223705,-0.93896484,0.3022461,-0.123046875,6.8969727,-3.6621094,-2.1972656,0.0,0.0,0.0,112.2583,70.82886,-134.69788
1769247223716,-0.93896484,0.3022461,-0.123046875,6.8969727,-3.6621094,-2.1972656,0.0,0.0,0.0,112.25281,71.04309,-135.03845
1769247223805,-0.9638672,0.25195312,-0.11816406,-1.0375977,-2.8686523,-0.18310547,0.0,0.0,0.0,112.25281,71.04309,-135.03845
1769247223816,-0.9638672,0.25195312,-0.11816406,-1.0375977,-2.8686523,-0.18310547,0.0,0.0,0.0,111.56067,71.207886,-135.9668
1769247223904,-0.90527344,0.25732422,-0.08642578,-26.550293,1.4038086,-3.112793,0.0,0.0,0.0,111.56067,71.207886,-135.9668
1769247223916,-0.90527344,0.25732422,-0.08642578,-26.550293,1.4038086,-3.112793,0.0,0.0,0.0,109.51721,71.47705,-136.42822
1769247224004,-0.9428711,0.33496094,-0.1328125,-28.259277,7.507324,-4.3945312,0.0,0.0,0.0,109.51721,71.47705,-136.42822
1769247224016,-0.9428711,0.33496094,-0.1328125,-28.259277,7.507324,-4.3945312,0.0,0.0,0.0,108.149414,71.553955,-134.56055
1769247224104,-0.9667969,0.30566406,-0.0703125,-5.2490234,-2.4414062,-10.253906,0.0,0.0,0.0,108.149414,71.553955,-134.56055
1769247224115,-0.9667969,0.30566406,-0.0703125,-5.2490234,-2.4414062,-10.253906,0.0,0.0,0.0,109.99512,72.51526,-132.87415
1769247224203,-0.9614258,0.36132812,-0.123046875,20.446777,-10.131836,-8.300781,0.0,0.0,0.0,109.99512,72.51526,-132.87415
1769247224215,-0.9614258,0.36132812,-0.123046875,20.446777,-10.131836,-8.300781,0.0,0.0,0.0,107.594604,73.33374,-135.23071
1769247224303,-1.0063477,0.15625,-0.04248047,48.52295,-13.366699,-3.479004,0.0,0.0,0.0,107.594604,73.33374,-135.23071
1769247224315,-1.0063477,0.15625,-0.04248047,48.52295,-13.366699,-3.479004,0.0,0.0,0.0,110.061035,74.24011,-137.7301
1769247224403,-0.9067383,0.31103516,-0.053710938,2.380371,-32.104492,2.5634766,0.0,0.0,0.0,110.061035,74.24011,-137.7301
1769247224415,-0.9067383,0.31103516,-0.053710938,2.380371,-32.104492,2.5634766,0.0,0.0,0.0,107.715454,75.08057,-142.80579
1769247224502,-0.95996094,0.23632812,-0.053222656,66.77246,10.070801,-5.1879883,0.0,0.0,0.0,107.715454,75.08057,-142.80579
1769247224514,-0.95996094,0.23632812,-0.053222656,66.77246,10.070801,-5.1879883,0.0,0.0,0.0,105.408325,74.8114,-146.35437
1769247224602,-0.9458008,0.12109375,-0.036132812,-14.953613,-1.6479492,9.521484,0.0,0.0,0.0,105.408325,74.8114,-146.35437
1769247224614,-0.9458008,0.12109375,-0.036132812,-14.953613,-1.6479492,9.521484,0.0,0.0,0.0,111.8573,74.69055,-142.92664
1769247224702,-0.9604492,0.33496094,-0.09863281,-15.014648,-3.7841797,10.131836,0.0,0.0,0.0,111.8573,74.69055,-142.92664
1769247224713,-0.9604492,0.33496094,-0.09863281,-15.014648,-3.7841797,10.131836,0.0,0.0,0.0,103.688965,73.88306,-147.7002
1769247224802,-0.95947266,0.22509766,-0.03125,11.413574,8.850098,1.0375977,0.0,0.0,0.0,103.688965,73.88306,-147.7002
1769247224813,-0.95947266,0.22509766,-0.03125,11.413574,8.850098,1.0375977,0.0,0.0,0.0,107.57263,73.63037,-145.05249
1769247224901,-0.95751953,0.30078125,-0.091796875,-21.78955,-1.3427734,7.2021484,0.0,0.0,0.0,107.57263,73.63037,-145.05249
1769247224913,-0.95751953,0.30078125,-0.091796875,-21.78955,-1.3427734,7.2021484,0.0,0.0,0.0,105.30945,73.048096,-145.26123
1769247225001,-0.9555664,0.28808594,-0.072265625,4.760742,2.5024414,0.36621094,0.0,0.0,0.0,105.30945,73.048096,-145.26123
1769247225012,-0.9555664,0.28808594,-0.072265625,4.760742,2.5024414,0.36621094,0.0,0.0,0.0,105.441284,72.8009,-144.66248
1769247225101,-0.94091797,0.2915039,-0.0703125,-4.333496,-5.2490234,1.8310547,0.0,0.0,0.0,105.441284,72.8009,-144.66248
1769247225113,-0.94091797,0.2915039,-0.0703125,-4.333496,-5.2490234,1.8310547,0.0,0.0,0.0,104.348145,72.614136,-145.33264
1769247225200,-0.9550781,0.29296875,-0.05517578,1.0986328,-8.117676,-1.0986328,0.0,0.0,0.0,104.348145,72.614136,-145.33264
1769247225212,-0.9550781,0.29296875,-0.05517578,1.0986328,-8.117676,-1.0986328,0.0,0.0,0.0,102.36511,72.74597,-147.22229
1769247225300,-0.9638672,0.28710938,-0.044921875,4.5776367,-8.056641,-2.2583008,0.0,0.0,0.0,102.36511,72.74597,-147.22229
1769247225312,-0.9638672,0.28710938,-0.044921875,4.5776367,-8.056641,-2.2583008,0.0,0.0,0.0,99.816284,73.02612,-149.96338
1769247225400,-0.95947266,0.28271484,-0.033691406,2.1972656,-6.4086914,3.2958984,0.0,0.0,0.0,99.816284,73.02612,-149.96338
1769247225411,-0.95947266,0.28271484,-0.033691406,2.1972656,-6.4086914,3.2958984,0.0,0.0,0.0,97.91565,73.125,-152.38037
1769247225500,-0.9716797,0.28710938,-0.036621094,5.6152344,1.2207031,3.2348633,0.0,0.0,0.0,97.91565,73.125,-152.38037
1769247225511,-0.9716797,0.28710938,-0.036621094,5.6152344,1.2207031,3.2348633,0.0,0.0,0.0,97.41028,72.79541,-153.20984
1769247225599,-0.9584961,0.28955078,-0.037109375,0.18310547,2.9296875,1.6479492,0.0,0.0,0.0,97.41028,72.79541,-153.20984
1769247225611,-0.9584961,0.28955078,-0.037109375,0.18310547,2.9296875,1.6479492,0.0,0.0,0.0,98.53638,72.54822,-152.30347
1769247225699,-0.9560547,0.2836914,-0.032714844,1.4648438,3.6621094,-0.7324219,0.0,0.0,0.0,98.53638,72.54822,-152.30347
1769247225711,-0.9560547,0.2836914,-0.032714844,1.4648438,3.6621094,-0.7324219,0.0,0.0,0.0,99.58008,72.48779,-151.19385
1769247225799,-0.96484375,0.28125,-0.046875,-5.3710938,0.6713867,-0.9765625,0.0,0.0,0.0,99.58008,72.48779,-151.19385
1769247225810,-0.96484375,0.28125,-0.046875,-5.3710938,0.6713867,-0.9765625,0.0,0.0,0.0,99.887695,72.509766,-150.44128
1769247225898,-0.9526367,0.29296875,-0.044921875,-5.432129,-0.48828125,-0.9765625,0.0,0.0,0.0,99.887695,72.509766,-150.44128
1769247225910,-0.9526367,0.29296875,-0.044921875,-5.432129,-0.48828125,-0.9765625,0.0,0.0,0.0,99.26697,72.65259,-150.39734
1769247225998,-0.95751953,0.29833984,-0.04345703,-2.4414062,-0.4272461,-0.8544922,0.0,0.0,0.0,99.26697,72.65259,-150.39734
1769247226010,-0.95751953,0.29833984,-0.04345703,-2.4414062,-0.4272461,-0.8544922,0.0,0.0,0.0,98.74512,72.76245,-150.46875
1769247226098,-0.95703125,0.29785156,-0.03857422,1.2207031,0.0,-0.36621094,0.0,0.0,0.0,98.74512,72.76245,-150.46875
1769247226109,-0.95703125,0.29785156,-0.03857422,1.2207031,0.0,-0.36621094,0.0,0.0,0.0,98.618774,72.8064,-150.51819
1769247226197,-0.9589844,0.28955078,-0.03564453,3.6010742,-0.30517578,0.061035156,0.0,0.0,0.0,98.618774,72.8064,-150.51819
1769247226209,-0.9589844,0.28955078,-0.03564453,3.6010742,-0.30517578,0.061035156,0.0,0.0,0.0,98.68469,72.784424,-150.63904
1769247226297,-0.9580078,0.28320312,-0.032714844,1.4648438,-0.12207031,0.30517578,0.0,0.0,0.0,98.68469,72.784424,-150.63904
1769247226309,-0.9580078,0.28320312,-0.032714844,1.4648438,-0.12207031,0.30517578,0.0,0.0,0.0,98.78357,72.74597,-150.73242
1769247226397,-0.9555664,0.2861328,-0.03173828,-1.8310547,0.5493164,-0.24414062,0.0,0.0,0.0,98.78357,72.74597,-150.73242
1769247226409,-0.9555664,0.2861328,-0.03173828,-1.8310547,0.5493164,-0.24414062,0.0,0.0,0.0,98.78357,72.75696,-150.73242
1769247226496,-0.9614258,0.29101562,-0.04345703,-2.6245117,0.91552734,-0.061035156,0.0,0.0,0.0,98.78357,72.75696,-150.73242
1769247226508,-0.9614258,0.29101562,-0.04345703,-2.6245117,0.91552734,-0.061035156,0.0,0.0,0.0,98.706665,72.77893,-150.54016
1769247226596,-0.95751953,0.2919922,-0.03955078,-1.0375977,0.91552734,0.061035156,0.0,0.0,0.0,98.706665,72.77893,-150.54016
1769247226608,-0.95751953,0.2919922,-0.03955078,-1.0375977,0.91552734,0.061035156,0.0,0.0,0.0,98.68469,72.75696,-150.30945
1769247226696,-0.9614258,0.3017578,-0.04736328,-1.8920898,0.36621094,0.79345703,0.0,0.0,0.0,98.68469,72.75696,-150.30945
1769247226707,-0.9614258,0.3017578,-0.04736328,-1.8920898,0.36621094,0.79345703,0.0,0.0,0.0,98.87146,72.718506,-149.95789
1769247226796,-0.95458984,0.28076172,-0.033691406,4.211426,2.4414062,0.061035156,0.0,0.0,0.0,98.87146,72.718506,-149.95789
1769247226807,-0.95458984,0.28076172,-0.033691406,4.211426,2.4414062,0.061035156,0.0,0.0,0.0,99.45923,72.68005,-149.51843
1769247226895,-0.9614258,0.29003906,-0.04248047,-0.9765625,0.6713867,2.1362305,0.0,0.0,0.0,99.45923,72.68005,-149.51843
1769247226907,-0.9614258,0.29003906,-0.04248047,-0.9765625,0.6713867,2.1362305,0.0,0.0,0.0,99.83276,72.51526,-149.17236
1769247226995,-0.9609375,0.29882812,-0.048828125,0.30517578,0.8544922,0.5493164,0.0,0.0,0.0,99.83276,72.51526,-149.17236
1769247227006,-0.9609375,0.29882812,-0.048828125,0.30517578,0.8544922,0.5493164,0.0,0.0,0.0,99.920654,72.37244,-148.9801
1769247227095,-0.95996094,0.2861328,-0.04296875,-0.18310547,0.5493164,-0.30517578,0.0,0.0,0.0,99.920654,72.37244,-148.9801
1769247227106,-0.95996094,0.2861328,-0.04296875,-0.18310547,0.5493164,-0.30517578,0.0,0.0,0.0,100.17883,72.37244,-148.77136
1769247227194,-0.9584961,0.2915039,-0.049804688,-0.7324219,0.61035156,-0.61035156,0.0,0.0,0.0,100.17883,72.37244,-148.77136
1769247227206,-0.9584961,0.2915039,-0.049804688,-0.7324219,0.61035156,-0.61035156,0.0,0.0,0.0,100.22827,72.42737,-148.60107
1769247227294,-0.9609375,0.28710938,-0.052246094,-0.36621094,1.5258789,-0.9765625,0.0,0.0,0.0,100.22827,72.42737,-148.60107
1769247227306,-0.9609375,0.28710938,-0.052246094,-0.36621094,1.5258789,-0.9765625,0.0,0.0,0.0,100.40405,72.48779,-148.30994
1769247227394,-0.9589844,0.2919922,-0.057128906,1.159668,1.7700195,-1.159668,0.0,0.0,0.0,100.40405,72.48779,-148.30994
1769247227405,-0.9589844,0.2919922,-0.057128906,1.159668,1.7700195,-1.159668,0.0,0.0,0.0,100.87097,72.52075,-147.74414
1769247227494,-0.95410156,0.28564453,-0.052734375,-0.9765625,0.18310547,-0.7324219,0.0,0.0,0.0,100.87097,72.52075,-147.74414
1769247227505,-0.95410156,0.28564453,-0.052734375,-0.9765625,0.18310547,-0.7324219,0.0,0.0,0.0,101.38733,72.60864,-147.32117
1769247227593,-0.94873047,0.29589844,-0.0546875,1.3427734,-0.24414062,-0.61035156,0.0,0.0,0.0,101.38733,72.60864,-147.32117
1769247227605,-0.94873047,0.29589844,-0.0546875,1.3427734,-0.24414062,-0.61035156,0.0,0.0,0.0,101.222534,72.67456,-147.46399
1769247227693,-0.9580078,0.28125,-0.047851562,2.0751953,-1.0986328,0.061035156,0.0,0.0,0.0,101.222534,72.67456,-147.46399
1769247227704,-0.9580078,0.28125,-0.047851562,2.0751953,-1.0986328,0.061035156,0.0,0.0,0.0,101.1676,72.68555,-147.74963
1769247227793,-0.9663086,0.28759766,-0.053710938,-1.6479492,-2.1362305,0.79345703,0.0,0.0,0.0,101.1676,72.68555,-147.74963
1769247227804,-0.9663086,0.28759766,-0.053710938,-1.6479492,-2.1362305,0.79345703,0.0,0.0,0.0,100.563354,72.65808,-148.28796
1769247227892,-0.96191406,0.28955078,-0.05810547,-2.6245117,0.0,-0.36621094,0.0,0.0,0.0,100.563354,72.65808,-148.28796
1769247227904,-0.96191406,0.28955078,-0.05810547,-2.6245117,0.0,-0.36621094,0.0,0.0,0.0,100.079956,72.68005,-148.5846
1769247227992,-0.95703125,0.28173828,-0.038085938,-0.4272461,1.0375977,-1.8920898,0.0,0.0,0.0,100.079956,72.68005,-148.5846
1769247228004,-0.95703125,0.28173828,-0.038085938,-0.4272461,1.0375977,-1.8920898,0.0,0.0,0.0,100.36011,72.81738,-148.15063
1769247228092,-0.96240234,0.27734375,-0.052246094,-3.9672852,-0.91552734,0.30517578,0.0,0.0,0.0,100.36011,72.81738,-148.15063
1769247228103,-0.96240234,0.27734375,-0.052246094,-3.9672852,-0.91552734,0.30517578,0.0,0.0,0.0,100.26123,72.91077,-148.07373
1769247228191,-0.95703125,0.29248047,-0.05078125,0.30517578,0.36621094,0.36621094,0.0,0.0,0.0,100.26123,72.91077,-148.07373
1769247228203,-0.95703125,0.29248047,-0.05078125,0.30517578,0.36621094,0.36621094,0.0,0.0,0.0,99.95911,72.86682,-148.04077
1769247228291,-0.9628906,0.28759766,-0.047851562,-1.5869141,-0.061035156,0.5493164,0.0,0.0,0.0,99.95911,72.86682,-148.04077
1769247228303,-0.9628906,0.28759766,-0.047851562,-1.5869141,-0.061035156,0.5493164,0.0,0.0,0.0,99.97009,72.83386,-147.98584
1769247228391,-0.9580078,0.28564453,-0.045410156,0.36621094,-0.12207031,-0.12207031,0.0,0.0,0.0,99.97009,72.83386,-147.98584
1769247228402,-0.9580078,0.28564453,-0.045410156,0.36621094,-0.12207031,-0.12207031,0.0,0.0,0.0,100.05798,72.85034,-147.91992
1769247228490,-0.9614258,0.2861328,-0.043945312,1.0375977,-0.061035156,-0.61035156,0.0,0.0,0.0,100.05798,72.85034,-147.91992
1769247228502,-0.9614258,0.2861328,-0.043945312,1.0375977,-0.061035156,-0.61035156,0.0,0.0,0.0,100.09094,72.89429,-147.95837
1769247228590,-0.96240234,0.27734375,-0.03955078,1.5258789,0.48828125,-0.8544922,0.0,0.0,0.0,100.09094,72.89429,-147.95837
1769247228602,-0.96240234,0.27734375,-0.03955078,1.5258789,0.48828125,-0.8544922,0.0,0.0,0.0,100.36011,72.97119,-147.8595
1769247228690,-0.96240234,0.27490234,-0.03857422,-4.3945312,0.24414062,0.48828125,0.0,0.0,0.0,100.36011,72.97119,-147.8595
1769247228701,-0.96240234,0.27490234,-0.03857422,-4.3945312,0.24414062,0.48828125,0.0,0.0,0.0,100.305176,73.00964,-147.72766
1769247228790,-0.9628906,0.28808594,-0.044921875,-7.080078,0.36621094,1.2817383,0.0,0.0,0.0,100.305176,73.00964,-147.72766
1769247228801,-0.9628906,0.28808594,-0.044921875,-7.080078,0.36621094,1.2817383,0.0,0.0,0.0,99.61304,72.93823,-147.83203
1769247228889,-0.9604492,0.29345703,-0.04638672,-4.3945312,2.0141602,0.61035156,0.0,0.0,0.0,99.61304,72.93823,-147.83203
1769247228901,-0.9604492,0.29345703,-0.04638672,-4.3945312,2.0141602,0.61035156,0.0,0.0,0.0,99.54712,72.839355,-147.44751
1769247228989,-0.95947266,0.2993164,-0.053222656,-0.30517578,1.953125,0.0,0.0,0.0,0.0,99.54712,72.839355,-147.44751
1769247229000,-0.95947266,0.2993164,-0.053222656,-0.30517578,1.953125,0.0,0.0,0.0,0.0,99.94263,72.77893,-146.8927
1769247229089,-0.9584961,0.28564453,-0.046875,1.953125,1.4038086,-1.159668,0.0,0.0,0.0,99.94263,72.77893,-146.8927
1769247229100,-0.9584961,0.28564453,-0.046875,1.953125,1.4038086,-1.159668,0.0,0.0,0.0,100.78308,72.82837,-146.28296
1769247229188,-0.9584961,0.28466797,-0.053222656,1.8310547,1.5869141,-0.8544922,0.0,0.0,0.0,100.78308,72.82837,-146.28296
1769247229200,-0.9584961,0.28466797,-0.053222656,1.8310547,1.5869141,-0.8544922,0.0,0.0,0.0,101.35986,72.8833,-145.87646
1769247229288,-0.9560547,0.28125,-0.055664062,0.36621094,1.3427734,0.0,0.0,0.0,0.0,101.35986,72.8833,-145.87646
1769247229299,-0.9560547,0.28125,-0.055664062,0.36621094,1.3427734,0.0,0.0,0.0,0.0,101.969604,72.89978,-145.40955
1769247229388,-0.9580078,0.28076172,-0.057617188,-0.24414062,0.79345703,0.24414062,0.0,0.0,0.0,101.969604,72.89978,-145.40955
1769247229399,-0.9580078,0.28076172,-0.057617188,-0.24414062,0.79345703,0.24414062,0.0,0.0,0.0,102.18933,72.872314,-145.21729
1769247229487,-0.9614258,0.28076172,-0.060058594,-0.7324219,0.48828125,0.0,0.0,0.0,0.0,102.18933,72.872314,-145.21729
1769247229499,-0.9614258,0.28076172,-0.060058594,-0.7324219,0.48828125,0.0,0.0,0.0,0.0,102.16736,72.84485,-145.15686
1769247229587,-0.9589844,0.28027344,-0.06298828,-0.8544922,0.91552734,0.061035156,0.0,0.0,0.0,102.16736,72.84485,-145.15686
1769247229598,-0.9589844,0.28027344,-0.06298828,-0.8544922,0.91552734,0.061035156,0.0,0.0,0.0,102.11792,72.839355,-145.13489
1769247229687,-0.9609375,0.28466797,-0.06347656,0.61035156,1.4038086,0.0,0.0,0.0,0.0,102.11792,72.839355,-145.13489
1769247229698,-0.9609375,0.28466797,-0.06347656,0.61035156,1.4038086,0.0,0.0,0.0,0.0,102.49695,72.81189,-144.75037
1769247229786,-0.9609375,0.28173828,-0.06201172,0.30517578,-0.061035156,0.24414062,0.0,0.0,0.0,102.49695,72.81189,-144.75037
1769247229798,-0.9609375,0.28173828,-0.06201172,0.30517578,-0.061035156,0.24414062,0.0,0.0,0.0,102.79907,72.8009,-144.54712
1769247229886,-0.953125,0.28857422,-0.06933594,4.9438477,-4.8828125,0.5493164,0.0,0.0,0.0,102.79907,72.8009,-144.54712
1769247229898,-0.953125,0.28857422,-0.06933594,4.9438477,-4.8828125,0.5493164,0.0,0.0,0.0,102.20032,72.83386,-145.47546
1769247229986,-0.9633789,0.29492188,-0.059570312,4.333496,-2.6855469,3.2348633,0.0,0.0,0.0,102.20032,72.83386,-145.47546
1769247229997,-0.9633789,0.29492188,-0.059570312,4.333496,-2.6855469,3.2348633,0.0,0.0,0.0,101.77734,72.784424,-146.4093
1769247230086,-0.953125,0.29345703,-0.041503906,2.6245117,-2.5634766,2.5634766,0.0,0.0,0.0,101.77734,72.784424,-146.4093
1769247230097,-0.953125,0.29345703,-0.041503906,2.6245117,-2.5634766,2.5634766,0.0,0.0,0.0,101.45325,72.51526,-147.16187
1769247230185,-0.9453125,0.28955078,-0.052246094,7.9345703,0.0,-1.4648438,0.0,0.0,0.0,101.45325,72.51526,-147.16187
1769247230197,-0.9453125,0.28955078,-0.052246094,7.9345703,0.0,-1.4648438,0.0,0.0,0.0,101.085205,72.46582,-147.83752
1769247230285,-0.9663086,0.27490234,-0.044433594,-6.8359375,-5.554199,1.7700195,0.0,0.0,0.0,101.085205,72.46582,-147.83752
1769247230296,-0.9663086,0.27490234,-0.044433594,-6.8359375,-5.554199,1.7700195,0.0,0.0,0.0,100.66223,72.57568,-148.66699
1769247230385,-0.9682617,0.30664062,-0.04345703,1.4038086,-2.6245117,-1.4038086,0.0,0.0,0.0,100.66223,72.57568,-148.66699
1769247230396,-0.9682617,0.30664062,-0.04345703,1.4038086,-2.6245117,-1.4038086,0.0,0.0,0.0,98.62976,72.60864,-150.17761
1769247230484,-0.96533203,0.28173828,-0.029785156,-0.61035156,1.953125,-0.61035156,0.0,0.0,0.0,98.62976,72.60864,-150.17761
1769247230496,-0.96533203,0.28173828,-0.029785156,-0.61035156,1.953125,-0.61035156,0.0,0.0,0.0,98.71765,72.751465,-150.1886
1769247230584,-0.96435547,0.2890625,-0.040039062,-1.0986328,3.112793,0.79345703,0.0,0.0,0.0,98.71765,72.751465,-150.1886
1769247230595,-0.96435547,0.2890625,-0.040039062,-1.0986328,3.112793,0.79345703,0.0,0.0,0.0,99.66797,72.734985,-149.08447
1769247230684,-0.95458984,0.28759766,-0.04638672,-1.0986328,3.90625,0.61035156,0.0,0.0,0.0,99.66797,72.734985,-149.08447
1769247230695,-0.95458984,0.28759766,-0.04638672,-1.0986328,3.90625,0.61035156,0.0,0.0,0.0,100.59082,72.630615,-148.00781
1769247230783,-0.9555664,0.2836914,-0.049316406,-3.6621094,1.2817383,1.0375977,0.0,0.0,0.0,100.59082,72.630615,-148.00781
1769247230795,-0.9555664,0.2836914,-0.049316406,-3.6621094,1.2817383,1.0375977,0.0,0.0,0.0,101.068726,72.526245,-147.31018
1769247230883,-0.95996094,0.29101562,-0.056152344,-0.5493164,0.61035156,-0.79345703,0.0,0.0,0.0,101.068726,72.526245,-147.31018
1769247230894,-0.95996094,0.29101562,-0.056152344,-0.5493164,0.61035156,-0.79345703,0.0,0.0,0.0,101.00281,72.493286,-147.09595
1769247230983,-0.9501953,0.2890625,-0.053710938,0.6713867,0.0,-0.79345703,0.0,0.0,0.0,101.00281,72.493286,-147.09595
1769247230994,-0.9501953,0.2890625,-0.053710938,0.6713867,0.0,-0.79345703,0.0,0.0,0.0,101.052246,72.57019,-146.98608
1769247231082,-0.96240234,0.29003906,-0.06347656,-0.12207031,-1.4038086,-0.24414062,0.0,0.0,0.0,101.052246,72.57019,-146.98608
1769247231094,-0.96240234,0.29003906,-0.06347656,-0.12207031,-1.4038086,-0.24414062,0.0,0.0,0.0,101.16211,72.66907,-146.98608
1769247231182,-0.9580078,0.28955078,-0.052246094,0.4272461,-0.5493164,0.0,0.0,0.0,0.0,101.16211,72.66907,-146.98608
1769247231194,-0.9580078,0.28955078,-0.052246094,0.4272461,-0.5493164,0.0,0.0,0.0,0.0,100.81055,72.70203,-147.40356
1769247231282,-0.96191406,0.2836914,-0.049804688,1.0986328,1.5258789,0.61035156,0.0,0.0,0.0,100.81055,72.70203,-147.40356
1769247231293,-0.96191406,0.2836914,-0.049804688,1.0986328,1.5258789,0.61035156,0.0,0.0,0.0,101.07422,72.67456,-147.20032
1769247231381,-0.9453125,0.29882812,-0.056640625,1.5869141,4.211426,2.6855469,0.0,0.0,0.0,101.07422,72.67456,-147.20032
1769247231393,-0.9453125,0.29882812,-0.056640625,1.5869141,4.211426,2.6855469,0.0,0.0,0.0,101.82129,72.405396,-146.35986
1769247231481,-0.9536133,0.2998047,-0.072753906,2.1362305,-0.61035156,2.380371,0.0,0.0,0.0,101.82129,72.405396,-146.35986
1769247231493,-0.9536133,0.2998047,-0.072753906,2.1362305,-0.61035156,2.380371,0.0,0.0,0.0,102.23328,72.10327,-146.06873
1769247231581,-0.95458984,0.29541016,-0.060058594,3.8452148,-1.0375977,0.61035156,0.0,0.0,0.0,102.23328,72.10327,-146.06873
1769247231592,-0.95458984,0.29541016,-0.060058594,3.8452148,-1.0375977,0.61035156,0.0,0.0,0.0,102.04651,71.97693,-146.52466
1769247231681,-0.9638672,0.29345703,-0.060546875,-0.18310547,-0.91552734,0.18310547,0.0,0.0,0.0,102.04651,71.97693,-146.52466
1769247231693,-0.9638672,0.29345703,-0.060546875,-0.18310547,-0.91552734,0.18310547,0.0,0.0,0.0,101.89819,71.971436,-146.8158
1769247231780,-0.9580078,0.29296875,-0.056152344,-1.5869141,0.18310547,-0.9765625,0.0,0.0,0.0,101.89819,71.971436,-146.8158
1769247231792,-0.9580078,0.29296875,-0.056152344,-1.5869141,0.18310547,-0.9765625,0.0,0.0,0.0,101.815796,72.03735,-146.78833
1769247231880,-0.95410156,0.29589844,-0.056640625,-0.79345703,0.79345703,-1.953125,0.0,0.0,0.0,101.815796,72.03735,-146.78833
1769247231892,-0.95410156,0.29589844,-0.056640625,-0.79345703,0.79345703,-1.953125,0.0,0.0,0.0,101.79382,72.17468,-146.60156
1769247231980,-0.9536133,0.29589844,-0.059570312,-1.7089844,0.36621094,-1.3427734,0.0,0.0,0.0,101.79382,72.17468,-146.60156
1769247231991,-0.9536133,0.29589844,-0.059570312,-1.7089844,0.36621094,-1.3427734,0.0,0.0,0.0,101.85425,72.31201,-146.34338
1769247232079,-0.9580078,0.29101562,-0.06347656,0.18310547,0.4272461,-0.36621094,0.0,0.0,0.0,101.85425,72.31201,-146.34338
1769247232091,-0.9580078,0.29101562,-0.06347656,0.18310547,0.4272461,-0.36621094,0.0,0.0,0.0,102.01355,72.36694,-146.14563
1769247232179,-0.9536133,0.28857422,-0.05859375,-0.061035156,0.4272461,0.48828125,0.0,0.0,0.0,102.01355,72.36694,-146.14563
1769247232191,-0.9536133,0.28857422,-0.05859375,-0.061035156,0.4272461,0.48828125,0.0,0.0,0.0,102.12341,72.350464,-146.05225
1769247232279,-0.9580078,0.2944336,-0.061523438,0.24414062,-1.5869141,0.48828125,0.0,0.0,0.0,102.12341,72.350464,-146.05225
1769247232290,-0.9580078,0.2944336,-0.061523438,0.24414062,-1.5869141,0.48828125,0.0,0.0,0.0,101.85974,72.30652,-146.28296
1769247232379,-0.95703125,0.28955078,-0.051757812,1.0986328,-1.7089844,0.0,0.0,0.0,0.0,101.85974,72.30652,-146.28296
1769247232390,-0.95703125,0.28955078,-0.051757812,1.0986328,-1.7089844,0.0,0.0,0.0,0.0,101.55762,72.350464,-146.76636
1769247232478,-0.95751953,0.2919922,-0.05078125,1.0375977,-1.5869141,-0.24414062,0.0,0.0,0.0,101.55762,72.350464,-146.76636
1769247232490,-0.95751953,0.2919922,-0.05078125,1.0375977,-1.5869141,-0.24414062,0.0,0.0,0.0,101.06323,72.405396,-147.40906
1769247232578,-0.9584961,0.28857422,-0.049804688,0.48828125,-1.6479492,-0.36621094,0.0,0.0,0.0,101.06323,72.405396,-147.40906
1769247232590,-0.9584961,0.28857422,-0.049804688,0.48828125,-1.6479492,-0.36621094,0.0,0.0,0.0,100.72266,72.493286,-147.88696
1769247232678,-0.95703125,0.2915039,-0.046875,-0.4272461,-1.4038086,-0.12207031,0.0,0.0,0.0,100.72266,72.493286,-147.88696
1769247232689,-0.95703125,0.2915039,-0.046875,-0.4272461,-1.4038086,-0.12207031,0.0,0.0,0.0,100.13489,72.55371,-148.47473
1769247232777,-0.96240234,0.28808594,-0.04638672,0.48828125,-1.0986328,-0.24414062,0.0,0.0,0.0,100.13489,72.55371,-148.47473
1769247232790,-0.96240234,0.28808594,-0.04638672,0.48828125,-1.0986328,-0.24414062,0.0,0.0,0.0,99.89319,72.60315,-148.75488
1769247232877,-0.9560547,0.29248047,-0.04736328,1.0375977,-1.953125,-0.4272461,0.0,0.0,0.0,99.89319,72.60315,-148.75488
1769247232888,-0.9560547,0.29248047,-0.04736328,1.0375977,-1.953125,-0.4272461,0.0,0.0,0.0,99.29443,72.65259,-149.39758
1769247232977,-0.9604492,0.29003906,-0.041015625,3.2348633,-2.1972656,-1.5869141,0.0,0.0,0.0,99.29443,72.65259,-149.39758
1769247232988,-0.9604492,0.29003906,-0.041015625,3.2348633,-2.1972656,-1.5869141,0.0,0.0,0.0,99.08569,72.78992,-149.82056
1769247233077,-0.9482422,0.27392578,-0.041503906,2.9296875,-0.48828125,0.48828125,0.0,0.0,0.0,99.08569,72.78992,-149.82056
1769247233088,-0.9482422,0.27392578,-0.041503906,2.9296875,-0.48828125,0.48828125,0.0,0.0,0.0,98.78357,72.89429,-150.32593
1769247233176,-0.95703125,0.29541016,-0.016601562,-9.460449,-2.0141602,0.91552734,0.0,0.0,0.0,98.78357,72.89429,-150.32593
1769247233188,-0.95703125,0.29541016,-0.016601562,-9.460449,-2.0141602,0.91552734,0.0,0.0,0.0,97.96509,72.8009,-150.8313
1769247233276,-0.9633789,0.29052734,-0.05029297,6.286621,2.9296875,-3.112793,0.0,0.0,0.0,97.96509,72.8009,-150.8313
1769247233287,-0.9633789,0.29052734,-0.05029297,6.286621,2.9296875,-3.112793,0.0,0.0,0.0,97.767334,72.87781,-150.61707
1769247233376,-0.9663086,0.26416016,-0.024414062,-3.2348633,1.2207031,0.24414062,0.0,0.0,0.0,97.767334,72.87781,-150.61707
1769247233387,-0.9663086,0.26416016,-0.024414062,-3.2348633,1.2207031,0.24414062,0.0,0.0,0.0,98.66272,73.02063,-149.96887
1769247233475,-0.9682617,0.27001953,-0.026367188,-2.5634766,4.699707,-0.5493164,0.0,0.0,0.0,98.66272,73.02063,-149.96887
1769247233487,-0.9682617,0.27001953,-0.026367188,-2.5634766,4.699707,-0.5493164,0.0,0.0,0.0,99.03076,73.03711,-149.19434
1769247233575,-0.96875,0.27197266,-0.040039062,-7.5683594,9.399414,-0.12207031,0.0,0.0,0.0,99.03076,73.03711,-149.19434
1769247233586,-0.96875,0.27197266,-0.040039062,-7.5683594,9.399414,-0.12207031,0.0,0.0,0.0,100.788574,73.03162,-146.85425
1769247233675,-0.97021484,0.27197266,-0.076660156,-9.94873,14.221191,-0.7324219,0.0,0.0,0.0,100.788574,73.03162,-146.85425
1769247233686,-0.97021484,0.27197266,-0.076660156,-9.94873,14.221191,-0.7324219,0.0,0.0,0.0,103.83728,72.89429,-142.75635
1769247233774,-0.9550781,0.28222656,-0.049316406,-9.277344,4.9438477,0.6713867,0.0,0.0,0.0,103.83728,72.89429,-142.75635
1769247233786,-0.9550781,0.28222656,-0.049316406,-9.277344,4.9438477,0.6713867,0.0,0.0,0.0,106.259766,72.84485,-139.67468
1769247233874,-0.9785156,0.23291016,-0.056640625,-6.713867,8.178711,-3.9672852,0.0,0.0,0.0,106.259766,72.84485,-139.67468
1769247233886,-0.9785156,0.23291016,-0.056640625,-6.713867,8.178711,-3.9672852,0.0,0.0,0.0,108.7207,72.87781,-136.87317
1769247233974,-0.9663086,0.28076172,-0.104003906,-10.192871,11.535645,-4.272461,0.0,0.0,0.0,108.7207,72.87781,-136.87317
1769247233985,-0.9663086,0.28076172,-0.104003906,-10.192871,11.535645,-4.272461,0.0,0.0,0.0,110.14343,72.9657,-133.92334
1769247234074,-0.9667969,0.25,-0.11035156,-7.8125,13.85498,-5.3100586,0.0,0.0,0.0,110.14343,72.9657,-133.92334
1769247234085,-0.9667969,0.25,-0.11035156,-7.8125,13.85498,-5.3100586,0.0,0.0,0.0,114.04907,73.0426,-129.47937
1769247234173,-0.96484375,0.25,-0.13916016,-9.094238,14.770508,-6.5307617,0.0,0.0,0.0,114.04907,73.0426,-129.47937
1769247234185,-0.96484375,0.25,-0.13916016,-9.094238,14.770508,-6.5307617,0.0,0.0,0.0,117.74597,73.05908,-125.02991
1769247234273,-0.9272461,0.26416016,-0.1538086,-2.4414062,9.643555,-6.713867,0.0,0.0,0.0,117.74597,73.05908,-125.02991
1769247234284,-0.9272461,0.26416016,-0.1538086,-2.4414062,9.643555,-6.713867,0.0,0.0,0.0,121.10779,73.08655,-121.15173
1769247234373,-0.9067383,0.31884766,-0.16503906,2.6855469,-1.4038086,-2.1362305,0.0,0.0,0.0,121.10779,73.08655,-121.15173
1769247234384,-0.9067383,0.31884766,-0.16503906,2.6855469,-1.4038086,-2.1362305,0.0,0.0,0.0,124.68384,72.95471,-117.70203
1769247234472,-1.0439453,0.12890625,-0.2006836,-4.333496,-3.479004,0.30517578,0.0,0.0,0.0,124.68384,72.95471,-117.70203
1769247234484,-1.0439453,0.12890625,-0.2006836,-4.333496,-3.479004,0.30517578,0.0,0.0,0.0,122.99194,72.62512,-119.6521
1769247234572,-0.9667969,0.2421875,-0.118652344,-34.240723,3.1738281,-5.79834,0.0,0.0,0.0,122.99194,72.62512,-119.6521
1769247234584,-0.9667969,0.2421875,-0.118652344,-34.240723,3.1738281,-5.79834,0.0,0.0,0.0,122.12402,73.16345,-119.03137
1769247234672,-0.9746094,0.2421875,-0.18652344,-38.513184,8.483887,-11.59668,0.0,0.0,0.0,122.12402,73.16345,-119.03137
1769247234683,-0.9746094,0.2421875,-0.18652344,-38.513184,8.483887,-11.59668,0.0,0.0,0.0,121.24512,73.54797,-116.18591
1769247234771,-1.0112305,0.22167969,-0.13134766,-44.433594,10.437012,-15.136719,0.0,0.0,0.0,121.24512,73.54797,-116.18591
1769247234784,-1.0112305,0.22167969,-0.13134766,-44.433594,10.437012,-15.136719,0.0,0.0,0.0,123.57971,74.20715,-110.09949
1769247234871,-0.9633789,0.19042969,-0.12939453,-45.959473,2.9907227,-13.48877,0.0,0.0,0.0,123.57971,74.20715,-110.09949
1769247234882,-0.9633789,0.19042969,-0.12939453,-45.959473,2.9907227,-13.48877,0.0,0.0,0.0,123.810425,75.009155,-105.770874
1769247234971,-0.95410156,0.2421875,-0.12939453,-43.5791,0.061035156,-7.2631836,0.0,0.0,0.0,123.810425,75.009155,-105.770874
1769247234982,-0.95410156,0.2421875,-0.12939453,-43.5791,0.061035156,-7.2631836,0.0,0.0,0.0,122.24487,75.89905,-103.65051
1769247235070,-0.96972656,0.27539062,-0.18017578,-15.258789,1.0375977,-1.5869141,0.0,0.0,0.0,122.24487,75.89905,-103.65051
1769247235082,-0.96972656,0.27539062,-0.18017578,-15.258789,1.0375977,-1.5869141,0.0,0.0,0.0,119.382935,76.04736,-103.985596
1769247235170,-0.9248047,0.24560547,-0.15234375,1.4038086,-0.4272461,4.9438477,0.0,0.0,0.0,119.382935,76.04736,-103.985596
1769247235182,-0.9248047,0.24560547,-0.15234375,1.4038086,-0.4272461,4.9438477,0.0,0.0,0.0,118.70178,75.701294,-105.08423
1769247235270,-1.0336914,0.23095703,-0.1508789,14.892578,3.6010742,6.225586,0.0,0.0,0.0,118.70178,75.701294,-105.08423
1769247235281,-1.0336914,0.23095703,-0.1508789,14.892578,3.6010742,6.225586,0.0,0.0,0.0,119.262085,74.95972,-106.40808
1769247235370,-0.99658203,0.17382812,-0.12109375,4.5166016,2.2583008,5.432129,0.0,0.0,0.0,119.262085,74.95972,-106.40808
1769247235381,-0.99658203,0.17382812,-0.12109375,4.5166016,2.2583008,5.432129,0.0,0.0,0.0,120.739746,74.28406,-106.9574
1769247235469,-0.9379883,0.18847656,-0.08935547,-16.235352,5.2490234,2.2583008,0.0,0.0,0.0,120.739746,74.28406,-106.9574
1769247235481,-0.9379883,0.18847656,-0.08935547,-16.235352,5.2490234,2.2583008,0.0,0.0,0.0,120.201416,73.97095,-107.32544
1769247235569,-0.98339844,0.22216797,-0.1352539,-27.09961,7.1411133,-0.61035156,0.0,0.0,0.0,120.201416,73.97095,-107.32544
1769247235580,-0.98339844,0.22216797,-0.1352539,-27.09961,7.1411133,-0.61035156,0.0,0.0,0.0,120.20691,73.78418,-105.825806
1769247235669,-0.92626953,0.22753906,-0.13427734,-23.07129,3.7231445,-1.159668,0.0,0.0,0.0,120.20691,73.78418,-105.825806
1769247235680,-0.92626953,0.22753906,-0.13427734,-23.07129,3.7231445,-1.159668,0.0,0.0,0.0,120.46509,73.71826,-104.07898
1769247235768,-0.98339844,0.20410156,-0.11669922,-35.339355,4.0283203,-3.7841797,0.0,0.0,0.0,120.46509,73.71826,-104.07898
1769247235780,-0.98339844,0.20410156,-0.11669922,-35.339355,4.0283203,-3.7841797,0.0,0.0,0.0,119.245605,73.932495,-103.40332
1769247235868,-0.9765625,0.19335938,-0.118652344,-36.071777,9.338379,-6.4086914,0.0,0.0,0.0,119.245605,73.932495,-103.40332
1769247235880,-0.9765625,0.19335938,-0.118652344,-36.071777,9.338379,-6.4086914,0.0,0.0,0.0,118.97095,74.157715,-100.94238
1769247235968,-0.9814453,0.20654297,-0.14208984,-48.339844,2.9296875,-3.4179688,0.0,0.0,0.0,118.97095,74.157715,-100.94238
1769247235980,-0.9814453,0.20654297,-0.14208984,-48.339844,2.9296875,-3.4179688,0.0,0.0,0.0,117.724,74.36096,-98.87695
1769247236067,-0.9604492,0.20898438,-0.119140625,-47.36328,5.79834,-1.2207031,0.0,0.0,0.0,117.724,74.36096,-98.87695
1769247236079,-0.9604492,0.20898438,-0.119140625,-47.36328,5.79834,-1.2207031,0.0,0.0,0.0,115.2301,74.52576,-97.93762
1769247236167,-0.93603516,0.25585938,-0.15039062,-41.015625,3.2958984,5.859375,0.0,0.0,0.0,115.2301,74.52576,-97.93762
1769247236179,-0.93603516,0.25585938,-0.15039062,-41.015625,3.2958984,5.859375,0.0,0.0,0.0,112.4176,74.157715,-97.750854
1769247236267,-0.9316406,0.2368164,-0.13964844,-30.273438,0.12207031,10.803223,0.0,0.0,0.0,112.4176,74.157715,-97.750854
1769247236278,-0.9316406,0.2368164,-0.13964844,-30.273438,0.12207031,10.803223,0.0,0.0,0.0,110.17639,73.19641,-98.32764
1769247236366,-0.92871094,0.24609375,-0.1772461,-24.291992,-5.004883,15.441895,0.0,0.0,0.0,110.17639,73.19641,-98.32764
1769247236378,-0.92871094,0.24609375,-0.1772461,-24.291992,-5.004883,15.441895,0.0,0.0,0.0,106.28174,71.922,-100.98633
1769247236466,-0.92089844,0.26708984,-0.19091797,-11.71875,-15.74707,18.127441,0.0,0.0,0.0,106.28174,71.922,-100.98633
1769247236478,-0.92089844,0.26708984,-0.19091797,-11.71875,-15.74707,18.127441,0.0,0.0,0.0,101.173096,70.52124,-105.91919
1769247236566,-1.1103516,0.29785156,-0.1977539,3.6010742,-25.512695,10.925293,0.0,0.0,0.0,101.173096,70.52124,-105.91919
1769247236577,-1.1103516,0.29785156,-0.1977539,3.6010742,-25.512695,10.925293,0.0,0.0,0.0,95.042725,69.246826,-113.58215
1769247236666,-0.9633789,0.43603516,0.04638672,0.0,-25.146484,-1.8920898,0.0,0.0,0.0,95.042725,69.246826,-113.58215
1769247236678,-0.9633789,0.43603516,0.04638672,0.0,-25.146484,-1.8920898,0.0,0.0,0.0,88.92883,69.22485,-122.579956
1769247236765,-0.95458984,0.37548828,0.16015625,21.362305,7.9345703,-14.038086,0.0,0.0,0.0,88.92883,69.22485,-122.579956
1769247236777,-0.95458984,0.37548828,0.16015625,21.362305,7.9345703,-14.038086,0.0,0.0,0.0,90.615234,70.67505,-125.04639
1769247236865,-0.9326172,0.296875,0.095214844,-13.916016,6.1035156,-4.1503906,0.0,0.0,0.0,90.615234,70.67505,-125.04639
1769247236876,-0.9326172,0.296875,0.095214844,-13.916016,6.1035156,-4.1503906,0.0,0.0,0.0,89.54407,71.16394,-126.68335
1769247236965,-0.84033203,0.42333984,-0.053710938,-15.869141,3.6010742,15.319824,0.0,0.0,0.0,89.54407,71.16394,-126.68335
1769247236976,-0.84033203,0.42333984,-0.053710938,-15.869141,3.6010742,15.319824,0.0,0.0,0.0,88.15979,70.477295,-127.13928
1769247237064,-0.8989258,0.21533203,-0.034179688,26.184082,-6.1035156,0.061035156,0.0,0.0,0.0,88.15979,70.477295,-127.13928
1769247237076,-0.8989258,0.21533203,-0.034179688,26.184082,-6.1035156,0.061035156,0.0,0.0,0.0,90.252686,69.92798,-128.68835
1769247237164,-0.9604492,0.25585938,-0.18945312,4.4555664,-11.230469,-0.48828125,0.0,0.0,0.0,90.252686,69.92798,-128.68835
1769247237176,-0.9604492,0.25585938,-0.18945312,4.4555664,-11.230469,-0.48828125,0.0,0.0,0.0,88.38501,69.91699,-131.6217
1769247237264,-1.0869141,0.38183594,-0.078125,32.287598,-10.7421875,-1.8920898,0.0,0.0,0.0,88.38501,69.91699,-131.6217
1769247237275,-1.0869141,0.38183594,-0.078125,32.287598,-10.7421875,-1.8920898,0.0,0.0,0.0,89.69238,70.51575,-133.57727
1769247237363,-1.1582031,0.5961914,0.10058594,32.958984,-43.640137,-2.319336,0.0,0.0,0.0,89.69238,70.51575,-133.57727
1769247237375,-1.1582031,0.5961914,0.10058594,32.958984,-43.640137,-2.319336,0.0,0.0,0.0,88.011475,71.38916,-140.63599
1769247237463,-0.60009766,0.64404297,0.1274414,83.55713,-58.288574,-15.563965,0.0,0.0,0.0,88.011475,71.38916,-140.63599
1769247237475,-0.60009766,0.64404297,0.1274414,83.55713,-58.288574,-15.563965,0.0,0.0,0.0,77.041626,72.08679,-159.53247
1769247237563,-0.7890625,0.3125,0.20751953,114.13574,-57.617188,4.699707,0.0,0.0,0.0,77.041626,72.08679,-159.53247
1769247237574,-0.7890625,0.3125,0.20751953,114.13574,-57.617188,4.699707,0.0,0.0,0.0,74.41589,70.01587,-173.172
1769247237663,-0.8569336,0.24658203,-0.0126953125,87.34131,5.6152344,-15.625,0.0,0.0,0.0,74.41589,70.01587,-173.172
1769247237674,-0.8569336,0.24658203,-0.0126953125,87.34131,5.6152344,-15.625,0.0,0.0,0.0,78.513794,69.43359,-178.67615
1769247237762,-1.0839844,0.27148438,0.075683594,-33.081055,-28.808594,-18.432617,0.0,0.0,0.0,78.513794,69.43359,-178.67615
1769247237774,-1.0839844,0.27148438,0.075683594,-33.081055,-28.808594,-18.432617,0.0,0.0,0.0,72.87781,70.75745,175.10559
1769247237862,-1.2709961,0.46289062,-0.234375,-14.465332,12.207031,-31.49414,0.0,0.0,0.0,72.87781,70.75745,175.10559
1769247237874,-1.2709961,0.46289062,-0.234375,-14.465332,12.207031,-31.49414,0.0,0.0,0.0,66.99463,73.45459,171.77124
1769247237962,-0.8979492,0.47607422,0.35546875,-40.46631,-4.333496,11.962891,0.0,0.0,0.0,66.99463,73.45459,171.77124
1769247237973,-0.8979492,0.47607422,0.35546875,-40.46631,-4.333496,11.962891,0.0,0.0,0.0,53.876953,73.37219,160.27405
1769247238061,-0.9428711,0.027832031,0.42626953,38.57422,83.92334,-7.9956055,0.0,0.0,0.0,53.876953,73.37219,160.27405
1769247238073,-0.9428711,0.027832031,0.42626953,38.57422,83.92334,-7.9956055,0.0,0.0,0.0,76.87683,74.86633,-175.2539
1769247238161,-0.83154297,0.10888672,0.19580078,-53.466797,-66.65039,39.0625,0.0,0.0,0.0,76.87683,74.86633,-175.2539
1769247238173,-0.83154297,0.10888672,0.19580078,-53.466797,-66.65039,39.0625,0.0,0.0,0.0,77.34924,75.217896,-178.0774
1769247238261,-0.8535156,0.24707031,-0.092285156,87.46338,13.549805,-35.03418,0.0,0.0,0.0,77.34924,75.217896,-178.0774
1769247238272,-0.8535156,0.24707031,-0.092285156,87.46338,13.549805,-35.03418,0.0,0.0,0.0,73.41614,73.59741,-174.40796
1769247238360,-1.0952148,0.13232422,-0.21972656,9.521484,20.935059,15.930176,0.0,0.0,0.0,73.41614,73.59741,-174.40796
1769247238372,-1.0952148,0.13232422,-0.21972656,9.521484,20.935059,15.930176,0.0,0.0,0.0,74.53674,73.93799,-174.46838
1769247238460,-1.3500977,0.2421875,0.11669922,18.371582,4.211426,-8.361816,0.0,0.0,0.0,74.53674,73.93799,-174.46838
1769247238472,-1.3500977,0.2421875,0.11669922,18.371582,4.211426,-8.361816,0.0,0.0,0.0,89.12659,75.62988,-165.49805
1769247238560,-0.73583984,0.3701172,0.15332031,18.615723,-44.6167,-9.155273,0.0,0.0,0.0,89.12659,75.62988,-165.49805
1769247238571,-0.73583984,0.3701172,0.15332031,18.615723,-44.6167,-9.155273,0.0,0.0,0.0,79.32129,75.18494,-174.00146
1769247238659,-0.79589844,0.40771484,0.24804688,83.37402,-7.6293945,-14.587402,0.0,0.0,0.0,79.32129,75.18494,-174.00146
1769247238671,-0.79589844,0.40771484,0.24804688,83.37402,-7.6293945,-14.587402,0.0,0.0,0.0,71.83411,75.80017,172.8534
1769247238759,-0.8852539,-0.016113281,0.022460938,27.282715,-14.831543,19.40918,0.0,0.0,0.0,71.83411,75.80017,172.8534
1769247238771,-0.8852539,-0.016113281,0.022460938,27.282715,-14.831543,19.40918,0.0,0.0,0.0,71.94397,74.349976,166.89331
1769247238859,-1.0600586,0.1665039,0.09667969,-49.682617,1.5869141,7.6904297,0.0,0.0,0.0,71.94397,74.349976,166.89331
1769247238871,-1.0600586,0.1665039,0.09667969,-49.682617,1.5869141,7.6904297,0.0,0.0,0.0,74.79492,73.33923,170.31555
1769247238959,-1.1201172,0.30859375,-0.08496094,-53.222656,27.34375,-23.80371,0.0,0.0,0.0,74.79492,73.33923,170.31555
1769247238970,-1.1201172,0.30859375,-0.08496094,-53.222656,27.34375,-23.80371,0.0,0.0,0.0,73.77319,74.95422,176.08337
1769247239058,-0.8691406,0.2626953,0.33789062,-74.21875,-2.9296875,-6.8359375,0.0,0.0,0.0,73.77319,74.95422,176.08337
1769247239070,-0.8691406,0.2626953,0.33789062,-74.21875,-2.9296875,-6.8359375,0.0,0.0,0.0,73.54248,77.821655,-178.48389
1769247239158,-1.0371094,0.06347656,0.41308594,-47.11914,25.57373,28.930664,0.0,0.0,0.0,73.54248,77.821655,-178.48389
1769247239171,-1.0371094,0.06347656,0.41308594,-47.11914,25.57373,28.930664,0.0,0.0,0.0,81.4032,76.51428,-161.4331
1769247239258,-0.8432617,0.5131836,-0.08300781,-146.66748,-18.554688,38.81836,0.0,0.0,0.0,81.4032,76.51428,-161.4331
1769247239269,-0.8432617,0.5131836,-0.08300781,-146.66748,-18.554688,38.81836,0.0,0.0,0.0,59.91394,74.10828,-178.61023
1769247239357,-0.8588867,0.25878906,0.026855469,56.518555,17.822266,-13.366699,0.0,0.0,0.0,59.91394,74.10828,-178.61023
1769247239370,-0.8588867,0.25878906,0.026855469,56.518555,17.822266,-13.366699,0.0,0.0,0.0,66.76941,73.66882,-166.20117
1769247239457,-1.1347656,0.123046875,-0.071777344,23.620605,23.498535,-7.8125,0.0,0.0,0.0,66.76941,73.66882,-166.20117
1769247239468,-1.1347656,0.123046875,-0.071777344,23.620605,23.498535,-7.8125,0.0,0.0,0.0,77.10205,74.92676,-158.12622
1769247239557,-1.3173828,0.4814453,0.13574219,-8.361816,3.2348633,3.7231445,0.0,0.0,0.0,77.10205,74.92676,-158.12622
1769247239568,-1.3173828,0.4814453,0.13574219,-8.361816,3.2348633,3.7231445,0.0,0.0,0.0,87.423706,76.36597,-149.91943
1769247239657,-0.42041016,0.15771484,0.1850586,12.512207,8.666992,2.1972656,0.0,0.0,0.0,87.423706,76.36597,-149.91943
1769247239668,-0.42041016,0.15771484,0.1850586,12.512207,8.666992,2.1972656,0.0,0.0,0.0,81.99097,74.33899,-154.50623
1769247239761,-1.1098633,0.15527344,0.38671875,98.32764,-30.212402,-4.0283203,0.0,0.0,0.0,81.99097,74.33899,-154.50623
1769247239768,-1.1098633,0.15527344,0.38671875,98.32764,-30.212402,-4.0283203,0.0,0.0,0.0,87.648926,75.76172,-155.63232
1769247239856,-0.9042969,0.107910156,-0.2006836,7.507324,20.996094,4.9438477,0.0,0.0,0.0,87.648926,75.76172,-155.63232
1769247239867,-0.9042969,0.107910156,-0.2006836,7.507324,20.996094,4.9438477,0.0,0.0,0.0,82.91382,74.17969,-158.52173
1769247239956,-0.93408203,0.2836914,0.0029296875,-72.20459,11.59668,10.559082,0.0,0.0,0.0,82.91382,74.17969,-158.52173
1769247239967,-0.93408203,0.2836914,0.0029296875,-72.20459,11.59668,10.559082,0.0,0.0,0.0,80.80444,75.07507,-158.15369
1769247240055,-1.3344727,0.2763672,-0.10107422,-13.977051,39.855957,-17.700195,0.0,0.0,0.0,80.80444,75.07507,-158.15369
1769247240067,-1.3344727,0.2763672,-0.10107422,-13.977051,39.855957,-17.700195,0.0,0.0,0.0,90.85693,76.48682,-145.70068
1769247240155,-0.8310547,0.118652344,0.18798828,-60.97412,0.5493164,-14.465332,0.0,0.0,0.0,90.85693,76.48682,-145.70068
1769247240166,-0.8310547,0.118652344,0.18798828,-60.97412,0.5493164,-14.465332,0.0,0.0,0.0,86.14929,77.86011,-146.25
1769247240255,-1.0249023,0.09423828,0.31640625,-62.5,-1.3427734,18.310547,0.0,0.0,0.0,86.14929,77.86011,-146.25
1769247240266,-1.0249023,0.09423828,0.31640625,-62.5,-1.3427734,18.310547,0.0,0.0,0.0,85.10559,77.26135,-140.32288
1769247240354,-0.89404297,0.2607422,-0.096191406,-55.236816,30.212402,6.8359375,0.0,0.0,0.0,85.10559,77.26135,-140.32288
1769247240366,-0.89404297,0.2607422,-0.096191406,-55.236816,30.212402,6.8359375,0.0,0.0,0.0,80.722046,75.76172,-139.05396
1769247240454,-0.8935547,0.14794922,-0.048828125,-6.5307617,4.699707,2.6855469,0.0,0.0,0.0,80.722046,75.76172,-139.05396
1769247240466,-0.8935547,0.14794922,-0.048828125,-6.5307617,4.699707,2.6855469,0.0,0.0,0.0,82.128296,75.860596,-136.99402
1769247240554,-1.0541992,0.1977539,-0.07080078,21.240234,0.24414062,-0.91552734,0.0,0.0,0.0,82.128296,75.860596,-136.99402
1769247240565,-1.0541992,0.1977539,-0.07080078,21.240234,0.24414062,-0.91552734,0.0,0.0,0.0,84.46289,75.76172,-135.75806
1769247240653,-1.4033203,0.2993164,-0.03173828,31.066895,8.422852,4.638672,0.0,0.0,0.0,84.46289,75.76172,-135.75806
1769247240665,-1.4033203,0.2993164,-0.03173828,31.066895,8.422852,4.638672,0.0,0.0,0.0,89.87366,75.48706,-132.8357
1769247240753,-0.6430664,0.1538086,0.20117188,0.8544922,-7.019043,6.7749023,0.0,0.0,0.0,89.87366,75.48706,-132.8357
1769247240765,-0.6430664,0.1538086,0.20117188,0.8544922,-7.019043,6.7749023,0.0,0.0,0.0,93.97705,75.42114,-131.61621
1769247240853,-1.09375,0.47851562,0.328125,-30.456543,-37.78076,7.3242188,0.0,0.0,0.0,93.97705,75.42114,-131.61621
1769247240864,-1.09375,0.47851562,0.328125,-30.456543,-37.78076,7.3242188,0.0,0.0,0.0,81.25488,75.41565,-143.5199
1769247240952,-0.9536133,0.07763672,-0.123046875,51.635742,16.296387,-9.58252,0.0,0.0,0.0,81.25488,75.41565,-143.5199
1769247240964,-0.9536133,0.07763672,-0.123046875,51.635742,16.296387,-9.58252,0.0,0.0,0.0,69.44458,73.21838,-157.28577
1769247241052,-0.92822266,0.20507812,0.0703125,-93.444824,-8.422852,14.526367,0.0,0.0,0.0,69.44458,73.21838,-157.28577
1769247241064,-0.92822266,0.20507812,0.0703125,-93.444824,-8.422852,14.526367,0.0,0.0,0.0,70.52124,73.61389,-153.91296
1769247241152,-0.9814453,0.32861328,-0.045898438,-21.606445,33.63037,-21.78955,0.0,0.0,0.0,70.52124,73.61389,-153.91296
1769247241163,-0.9814453,0.32861328,-0.045898438,-21.606445,33.63037,-21.78955,0.0,0.0,0.0,70.6311,74.729004,-148.11218
1769247241252,-1.3793945,0.36132812,0.1352539,-21.911621,12.817383,-10.131836,0.0,0.0,0.0,70.6311,74.729004,-148.11218
1769247241263,-1.3793945,0.36132812,0.1352539,-21.911621,12.817383,-10.131836,0.0,0.0,0.0,76.744995,76.761475,-139.87244
1769247241351,-0.69189453,0.21923828,0.16113281,-1.8310547,25.756836,2.6855469,0.0,0.0,0.0,76.744995,76.761475,-139.87244
1769247241364,-0.69189453,0.21923828,0.16113281,-1.8310547,25.756836,2.6855469,0.0,0.0,0.0,78.931274,77.04712,-136.82373
1769247241451,-1.0917969,0.12402344,0.28466797,-45.10498,-10.498047,22.216797,0.0,0.0,0.0,78.931274,77.04712,-136.82373
1769247241463,-1.0917969,0.12402344,0.28466797,-45.10498,-10.498047,22.216797,0.0,0.0,0.0,84.02893,75.76172,-129.25415
1769247241551,-0.9140625,0.27978516,0.024902344,-34.301758,-4.1503906,0.061035156,0.0,0.0,0.0,84.02893,75.76172,-129.25415
1769247241562,-0.9140625,0.27978516,0.024902344,-34.301758,-4.1503906,0.061035156,0.0,0.0,0.0,80.18921,74.50928,-130.9021
1769247241650,-0.89941406,0.24560547,-0.09082031,17.028809,1.2207031,-0.061035156,0.0,0.0,0.0,80.18921,74.50928,-130.9021
1769247241662,-0.89941406,0.24560547,-0.09082031,17.028809,1.2207031,-0.061035156,0.0,0.0,0.0,77.89307,74.30603,-132.9895
1769247241750,-1.0322266,0.23876953,-0.009277344,37.29248,5.554199,1.3427734,0.0,0.0,0.0,77.89307,74.30603,-132.9895
1769247241762,-1.0322266,0.23876953,-0.009277344,37.29248,5.554199,1.3427734,0.0,0.0,0.0,84.27612,74.44885,-130.88562
1769247241850,-1.0683594,0.35253906,0.063964844,36.010742,-13.549805,4.5776367,0.0,0.0,0.0,84.27612,74.44885,-130.88562
1769247241861,-1.0683594,0.35253906,0.063964844,36.010742,-13.549805,4.5776367,0.0,0.0,0.0,87.16553,74.333496,-132.9126
1769247241949,-0.8574219,0.28271484,0.060058594,55.786133,-15.563965,-3.6010742,0.0,0.0,0.0,87.16553,74.333496,-132.9126
1769247241961,-0.8574219,0.28271484,0.060058594,55.786133,-15.563965,-3.6010742,0.0,0.0,0.0,87.39624,73.77319,-137.2522
1769247242049,-0.8515625,0.50146484,0.1665039,27.648926,-43.762207,7.9345703,0.0,0.0,0.0,87.39624,73.77319,-137.2522
1769247242061,-0.8515625,0.50146484,0.1665039,27.648926,-43.762207,7.9345703,0.0,0.0,0.0,79.94751,73.86658,-151.41357
1769247242149,-0.93066406,0.35742188,0.06689453,92.59033,-22.766113,-3.8452148,0.0,0.0,0.0,79.94751,73.86658,-151.41357
1769247242160,-0.93066406,0.35742188,0.06689453,92.59033,-22.766113,-3.8452148,0.0,0.0,0.0,74.09729,71.641846,-162.78992
1769247242249,-0.9511719,0.35351562,0.03564453,19.16504,-22.399902,14.404297,0.0,0.0,0.0,74.09729,71.641846,-162.78992
1769247242260,-0.9511719,0.35351562,0.03564453,19.16504,-22.399902,14.404297,0.0,0.0,0.0,76.08032,70.66406,-168.25012
1769247242348,-0.984375,0.32763672,0.05810547,17.578125,-0.48828125,-7.9956055,0.0,0.0,0.0,76.08032,70.66406,-168.25012
1769247242360,-0.984375,0.32763672,0.05810547,17.578125,-0.48828125,-7.9956055,0.0,0.0,0.0,74.14673,69.63684,-171.19446
1769247242448,-1.0683594,0.2841797,-0.025878906,4.0283203,19.226074,-25.32959,0.0,0.0,0.0,74.14673,69.63684,-171.19446
1769247242460,-1.0683594,0.2841797,-0.025878906,4.0283203,19.226074,-25.32959,0.0,0.0,0.0,78.585205,71.82861,-167.75024
1769247242548,-0.8901367,0.41455078,0.099609375,-33.081055,-9.58252,-2.380371,0.0,0.0,0.0,78.585205,71.82861,-167.75024
1769247242559,-0.8901367,0.41455078,0.099609375,-33.081055,-9.58252,-2.380371,0.0,0.0,0.0,75.88257,73.21289,-168.61816
1769247242647,-0.96533203,0.2734375,0.13916016,16.723633,17.700195,-7.9956055,0.0,0.0,0.0,75.88257,73.21289,-168.61816
1769247242659,-0.96533203,0.2734375,0.13916016,16.723633,17.700195,-7.9956055,0.0,0.0,0.0,77.86011,73.93799,-167.0581
1769247242747,-0.9477539,0.21679688,0.12988281,-18.615723,9.338379,-4.760742,0.0,0.0,0.0,77.86011,73.93799,-167.0581
1769247242758,-0.9477539,0.21679688,0.12988281,-18.615723,9.338379,-4.760742,0.0,0.0,0.0,80.37048,74.366455,-163.39417
1769247242847,-0.9921875,0.27490234,0.03955078,-7.080078,-4.5166016,-5.7373047,0.0,0.0,0.0,80.37048,74.366455,-163.39417
1769247242858,-0.9921875,0.27490234,0.03955078,-7.080078,-4.5166016,-5.7373047,0.0,0.0,0.0,78.75549,75.03113,-163.3612
1769247242946,-0.95410156,0.20410156,0.0034179688,33.203125,5.432129,-13.000488,0.0,0.0,0.0,78.75549,75.03113,-163.3612
1769247242958,-0.95410156,0.20410156,0.0034179688,33.203125,5.432129,-13.000488,0.0,0.0,0.0,78.4314,75.6189,-164.10278
1769247243046,-0.9770508,0.17529297,0.0625,13.000488,-4.8828125,-0.30517578,0.0,0.0,0.0,78.4314,75.6189,-164.10278
1769247243058,-0.9770508,0.17529297,0.0625,13.000488,-4.8828125,-0.30517578,0.0,0.0,0.0,82.91931,76.657104,-162.30103
1769247243146,-0.9580078,0.20117188,-0.028320312,17.211914,-7.3242188,2.746582,0.0,0.0,0.0,82.91931,76.657104,-162.30103
1769247243157,-0.9580078,0.20117188,-0.028320312,17.211914,-7.3242188,2.746582,0.0,0.0,0.0,80.90881,76.45935,-165.14099
1769247243246,-0.9790039,0.17089844,0.0078125,24.353027,-10.7421875,0.36621094,0.0,0.0,0.0,80.90881,76.45935,-165.14099
1769247243257,-0.9790039,0.17089844,0.0078125,24.353027,-10.7421875,0.36621094,0.0,0.0,0.0,79.48059,76.1792,-168.00293
1769247243345,-0.97216797,0.14990234,0.0053710938,12.145996,-13.244629,6.958008,0.0,0.0,0.0,79.48059,76.1792,-168.00293
1769247243357,-0.97216797,0.14990234,0.0053710938,12.145996,-13.244629,6.958008,0.0,0.0,0.0,77.40967,75.964966,-171.6394
1769247243445,-0.9785156,0.14355469,0.0063476562,12.390137,-13.183594,8.178711,0.0,0.0,0.0,77.40967,75.964966,-171.6394
1769247243456,-0.9785156,0.14355469,0.0063476562,12.390137,-13.183594,8.178711,0.0,0.0,0.0,74.328,75.06409,-174.95728
1769247243545,-0.9970703,0.16992188,-0.00390625,2.5024414,-12.145996,11.657715,0.0,0.0,0.0,74.328,75.06409,-174.95728
1769247243556,-0.9970703,0.16992188,-0.00390625,2.5024414,-12.145996,11.657715,0.0,0.0,0.0,71.99341,74.16321,-177.23145
1769247243645,-0.9814453,0.265625,0.13330078,-8.300781,-16.967773,17.63916,0.0,0.0,0.0,71.99341,74.16321,-177.23145
1769247243657,-0.9814453,0.265625,0.13330078,-8.300781,-16.967773,17.63916,0.0,0.0,0.0,68.80737,72.60315,-179.61548
1769247243744,-1.0048828,0.2553711,0.1616211,10.314941,-2.5634766,0.12207031,0.0,0.0,0.0,68.80737,72.60315,-179.61548
1769247243756,-1.0048828,0.2553711,0.1616211,10.314941,-2.5634766,0.12207031,0.0,0.0,0.0,68.131714,71.867065,-179.86816
1769247243844,-0.8305664,0.4013672,0.12939453,3.8452148,-25.146484,4.333496,0.0,0.0,0.0,68.131714,71.867065,-179.86816
1769247243855,-0.8305664,0.4013672,0.12939453,3.8452148,-25.146484,4.333496,0.0,0.0,0.0,64.50073,71.032104,176.79199
1769247243943,-0.89501953,0.5600586,0.20605469,31.677246,-15.197754,9.765625,0.0,0.0,0.0,64.50073,71.032104,176.79199
1769247243955,-0.89501953,0.5600586,0.20605469,31.677246,-15.197754,9.765625,0.0,0.0,0.0,62.347412,69.21387,172.74902
1769247244043,-0.92089844,0.31835938,0.15771484,79.711914,-8.300781,-3.479004,0.0,0.0,0.0,62.347412,69.21387,172.74902
1769247244055,-0.92089844,0.31835938,0.15771484,79.711914,-8.300781,-3.479004,0.0,0.0,0.0,66.9397,68.09326,171.49109
1769247244143,-0.8823242,0.40576172,0.12890625,15.197754,-25.57373,13.61084,0.0,0.0,0.0,66.9397,68.09326,171.49109
1769247244154,-0.8823242,0.40576172,0.12890625,15.197754,-25.57373,13.61084,0.0,0.0,0.0,67.093506,66.41235,168.64014
1769247244243,-0.94921875,0.328125,0.1508789,37.17041,-3.6621094,-1.953125,0.0,0.0,0.0,67.093506,66.41235,168.64014
1769247244254,-0.94921875,0.328125,0.1508789,37.17041,-3.6621094,-1.953125,0.0,0.0,0.0,68.307495,65.59387,167.15149
1769247244342,-0.92529297,0.3149414,0.111816406,-16.418457,-6.286621,-0.12207031,0.0,0.0,0.0,68.307495,65.59387,167.15149
1769247244354,-0.92529297,0.3149414,0.111816406,-16.418457,-6.286621,-0.12207031,0.0,0.0,0.0,67.91199,65.78064,167.13501
1769247244442,-0.9213867,0.34375,0.091308594,-7.2021484,0.48828125,-9.216309,0.0,0.0,0.0,67.91199,65.78064,167.13501
1769247244453,-0.9213867,0.34375,0.091308594,-7.2021484,0.48828125,-9.216309,0.0,0.0,0.0,65.10498,66.14868,167.2174
1769247244542,-0.93652344,0.3515625,0.06933594,-27.954102,-6.4697266,-4.5776367,0.0,0.0,0.0,65.10498,66.14868,167.2174
1769247244553,-0.93652344,0.3515625,0.06933594,-27.954102,-6.4697266,-4.5776367,0.0,0.0,0.0,62.852783,66.98364,167.4701
1769247244641,-0.95947266,0.43066406,0.29638672,-39.611816,-36.8042,-0.61035156,0.0,0.0,0.0,62.852783,66.98364,167.4701
1769247244653,-0.95947266,0.43066406,0.29638672,-39.611816,-36.8042,-0.61035156,0.0,0.0,0.0,55.59082,66.07727,163.80066
1769247244741,-1.1025391,0.3725586,0.20996094,14.526367,1.159668,-31.677246,0.0,0.0,0.0,55.59082,66.07727,163.80066
1769247244752,-1.1025391,0.3725586,0.20996094,14.526367,1.159668,-31.677246,0.0,0.0,0.0,48.828735,66.00037,159.47205
1769247244841,-0.8442383,0.27441406,0.29003906,-24.841309,20.019531,-12.939453,0.0,0.0,0.0,48.828735,66.00037,159.47205
1769247244852,-0.8442383,0.27441406,0.29003906,-24.841309,20.019531,-12.939453,0.0,0.0,0.0,47.785034,68.60962,159.72473
1769247244941,-0.83935547,0.15136719,0.35058594,-8.117676,30.151367,-28.503418,0.0,0.0,0.0,47.785034,68.60962,159.72473
1769247244952,-0.83935547,0.15136719,0.35058594,-8.117676,30.151367,-28.503418,0.0,0.0,0.0,47.76306,71.691284,162.02637
1769247245040,-0.9111328,0.14257812,0.29101562,-9.460449,28.137207,-14.160156,0.0,0.0,0.0,47.76306,71.691284,162.02637
1769247245052,-0.9111328,0.14257812,0.29101562,-9.460449,28.137207,-14.160156,0.0,0.0,0.0,48.411255,74.833374,163.8501
1769247245140,-0.81933594,0.10205078,0.26416016,-19.89746,-3.6621094,-12.145996,0.0,0.0,0.0,48.411255,74.833374,163.8501
1769247245151,-0.81933594,0.10205078,0.26416016,-19.89746,-3.6621094,-12.145996,0.0,0.0,0.0,47.356567,76.75049,164.78943
1769247245240,-0.984375,0.1352539,0.07714844,-5.3100586,-4.333496,-3.7841797,0.0,0.0,0.0,47.356567,76.75049,164.78943
1769247245251,-0.984375,0.1352539,0.07714844,-5.3100586,-4.333496,-3.7841797,0.0,0.0,0.0,42.286377,76.25061,162.63611
1769247245339,-0.9506836,0.12011719,0.1694336,16.296387,1.5258789,-0.4272461,0.0,0.0,0.0,42.286377,76.25061,162.63611
1769247245351,-0.9506836,0.12011719,0.1694336,16.296387,1.5258789,-0.4272461,0.0,0.0,0.0,42.401733,76.970215,161.05957
1769247245439,-1.0205078,0.104003906,0.12451172,25.939941,10.131836,-1.4648438,0.0,0.0,0.0,42.401733,76.970215,161.05957
1769247245450,-1.0205078,0.104003906,0.12451172,25.939941,10.131836,-1.4648438,0.0,0.0,0.0,45.093384,77.22839,162.84485
1769247245539,-0.9916992,0.08984375,0.111328125,16.662598,11.657715,3.112793,0.0,0.0,0.0,45.093384,77.22839,162.84485
1769247245550,-0.9916992,0.08984375,0.111328125,16.662598,11.657715,3.112793,0.0,0.0,0.0,50.67444,78.09082,166.62964
1769247245638,-1.0161133,0.10986328,0.1381836,16.357422,12.6953125,0.61035156,0.0,0.0,0.0,50.67444,78.09082,166.62964
1769247245650,-1.0161133,0.10986328,0.1381836,16.357422,12.6953125,0.61035156,0.0,0.0,0.0,57.491455,78.81592,172.58972
1769247245738,-1.0039062,0.106933594,0.03173828,12.023926,14.953613,3.0517578,0.0,0.0,0.0,57.491455,78.81592,172.58972
1769247245750,-1.0039062,0.106933594,0.03173828,12.023926,14.953613,3.0517578,0.0,0.0,0.0,63.797607,79.315796,178.40698
1769247245838,-0.98535156,0.15966797,0.041015625,6.8359375,9.216309,6.1035156,0.0,0.0,0.0,63.797607,79.315796,178.40698
1769247245849,-0.98535156,0.15966797,0.041015625,6.8359375,9.216309,6.1035156,0.0,0.0,0.0,71.24634,79.61792,-174.40796
1769247245938,-0.9291992,0.20458984,0.06738281,18.066406,3.7231445,2.319336,0.0,0.0,0.0,71.24634,79.61792,-174.40796
1769247245949,-0.9291992,0.20458984,0.06738281,18.066406,3.7231445,2.319336,0.0,0.0,0.0,78.17322,79.573975,-168.25562
1769247246037,-0.9536133,0.3671875,0.04296875,-11.657715,-10.009766,13.85498,0.0,0.0,0.0,78.17322,79.573975,-168.25562
1769247246049,-0.9536133,0.3671875,0.04296875,-11.657715,-10.009766,13.85498,0.0,0.0,0.0,75.47058,78.54126,-171.33179
1769247246137,-0.99609375,0.19482422,-0.080566406,68.237305,15.563965,-13.427734,0.0,0.0,0.0,75.47058,78.54126,-171.33179
1769247246148,-0.99609375,0.19482422,-0.080566406,68.237305,15.563965,-13.427734,0.0,0.0,0.0,77.93701,77.492065,-168.83789
1769247246236,-1.0820312,0.17480469,0.045410156,-28.930664,0.79345703,5.2490234,0.0,0.0,0.0,77.93701,77.492065,-168.83789
1769247246248,-1.0820312,0.17480469,0.045410156,-28.930664,0.79345703,5.2490234,0.0,0.0,0.0,86.605225,78.20618,-162.62512
1769247246336,-0.8496094,0.2763672,-0.037109375,4.5166016,3.6010742,4.0893555,0.0,0.0,0.0,86.605225,78.20618,-162.62512
