timestamp,accX,accY,accZ,gyroX,gyroY,gyroZ,magX,magY,magZ,roll,pitch,yaw
1769245185018,-0.98876953,0.15478516,-0.0546875,2.5024414,-2.1362305,1.159668,0.0,0.0,0.0,113.12622,80.12329,160.40039
1769245185029,-0.98876953,0.15478516,-0.0546875,2.5024414,-2.1362305,1.159668,0.0,0.0,0.0,111.74744,80.13428,158.73047
1769245185117,-0.9921875,0.16210938,-0.051757812,1.2207031,-0.6713867,1.4038086,0.0,0.0,0.0,111.74744,80.13428,158.73047
1769245185129,-0.9921875,0.16210938,-0.051757812,1.2207031,-0.6713867,1.4038086,0.0,0.0,0.0,110.8136,80.07385,157.71973
1769245185217,-0.98583984,0.15576172,-0.04345703,0.0,-0.7324219,0.5493164,0.0,0.0,0.0,110.8136,80.07385,157.71973
1769245185231,-0.98583984,0.15576172,-0.04345703,0.0,-0.7324219,0.5493164,0.0,0.0,0.0,110.59387,80.024414,157.67578
1769245185317,-0.99072266,0.15917969,-0.038085938,-1.8920898,1.2817383,-0.48828125,0.0,0.0,0.0,110.59387,80.024414,157.67578
1769245185331,-0.99072266,0.15917969,-0.038085938,-1.8920898,1.2817383,-0.48828125,0.0,0.0,0.0,110.632324,80.02991,158.19763
1769245185416,-0.9838867,0.16064453,-0.06201172,-1.3427734,0.24414062,0.61035156,0.0,0.0,0.0,110.632324,80.02991,158.19763
1769245185427,-0.9838867,0.16064453,-0.06201172,-1.3427734,0.24414062,0.61035156,0.0,0.0,0.0,110.25879,80.05188,158.25806
1769245185516,-0.99316406,0.17089844,-0.04248047,-2.0751953,0.7324219,-0.18310547,0.0,0.0,0.0,110.25879,80.05188,158.25806
1769245185527,-0.99316406,0.17089844,-0.04248047,-2.0751953,0.7324219,-0.18310547,0.0,0.0,0.0,110.286255,79.974976,158.63708
1769245185615,-0.9848633,0.17138672,-0.0546875,-0.91552734,1.159668,-1.5869141,0.0,0.0,0.0,110.286255,79.974976,158.63708
1769245185627,-0.9848633,0.17138672,-0.0546875,-0.91552734,1.159668,-1.5869141,0.0,0.0,0.0,110.912476,80.06836,159.5874
1769245185715,-0.94140625,0.16259766,-0.06298828,5.126953,-1.8920898,-2.9907227,0.0,0.0,0.0,110.912476,80.06836,159.5874
1769245185727,-0.94140625,0.16259766,-0.06298828,5.126953,-1.8920898,-2.9907227,0.0,0.0,0.0,111.39038,80.26062,159.97192
1769245185815,-1.0,0.15722656,-0.052734375,2.5634766,1.4648438,3.2348633,0.0,0.0,0.0,111.39038,80.26062,159.97192
1769245185827,-1.0,0.15722656,-0.052734375,2.5634766,1.4648438,3.2348633,0.0,0.0,0.0,109.96765,80.05737,158.43933
1769245185915,-0.99609375,0.17138672,-0.06640625,0.0,-1.953125,2.5634766,0.0,0.0,0.0,109.96765,80.05737,158.43933
1769245185926,-0.99609375,0.17138672,-0.06640625,0.0,-1.953125,2.5634766,0.0,0.0,0.0,109.57214,79.887085,158.07678
1769245186014,-0.99853516,0.16699219,-0.03564453,1.2207031,5.554199,-1.8920898,0.0,0.0,0.0,109.57214,79.887085,158.07678
1769245186026,-0.99853516,0.16699219,-0.03564453,1.2207031,5.554199,-1.8920898,0.0,0.0,0.0,111.02234,79.815674,159.46106
1769245186114,-1.0185547,0.15429688,-0.07080078,-5.1879883,3.540039,-2.1972656,0.0,0.0,0.0,111.02234,79.815674,159.46106
1769245186126,-1.0185547,0.15429688,-0.07080078,-5.1879883,3.540039,-2.1972656,0.0,0.0,0.0,112.92847,79.84863,161.79016
1769245186214,-0.9892578,0.14892578,-0.078125,-6.3476562,0.12207031,1.0375977,0.0,0.0,0.0,112.92847,79.84863,161.79016
1769245186226,-0.9892578,0.14892578,-0.078125,-6.3476562,0.12207031,1.0375977,0.0,0.0,0.0,113.82385,79.99695,163.21838
1769245186314,-0.96777344,0.15576172,-0.064941406,-1.953125,1.953125,-1.8310547,0.0,0.0,0.0,113.82385,79.99695,163.21838
1769245186325,-0.96777344,0.15576172,-0.064941406,-1.953125,1.953125,-1.8310547,0.0,0.0,0.0,114.63135,79.94751,164.5752
1769245186413,-0.9863281,0.17529297,-0.08496094,0.7324219,-0.7324219,1.0986328,0.0,0.0,0.0,114.63135,79.94751,164.5752
1769245186425,-0.9863281,0.17529297,-0.08496094,0.7324219,-0.7324219,1.0986328,0.0,0.0,0.0,114.400635,79.920044,164.58069
1769245186513,-1.0043945,0.1586914,-0.06640625,-0.61035156,0.36621094,1.7700195,0.0,0.0,0.0,114.400635,79.920044,164.58069
1769245186524,-1.0043945,0.1586914,-0.06640625,-0.61035156,0.36621094,1.7700195,0.0,0.0,0.0,114.55994,79.7113,164.66309
1769245186613,-0.98046875,0.15966797,-0.05859375,3.6010742,-0.7324219,-1.0375977,0.0,0.0,0.0,114.55994,79.7113,164.66309
1769245186624,-0.98046875,0.15966797,-0.05859375,3.6010742,-0.7324219,-1.0375977,0.0,0.0,0.0,115.114746,79.782715,164.82788
1769245186712,-0.9921875,0.14746094,-0.0625,1.0375977,1.8920898,-1.4038086,0.0,0.0,0.0,115.114746,79.782715,164.82788
1769245186724,-0.9921875,0.14746094,-0.0625,1.0375977,1.8920898,-1.4038086,0.0,0.0,0.0,116.152954,79.75525,165.78369
1769245186813,-0.9868164,0.14794922,-0.06640625,0.8544922,-0.48828125,-2.319336,0.0,0.0,0.0,116.152954,79.75525,165.78369
1769245186824,-0.9868164,0.14794922,-0.06640625,0.8544922,-0.48828125,-2.319336,0.0,0.0,0.0,117.229614,79.958496,166.75598
1769245186912,-0.9711914,0.14111328,-0.064453125,-0.061035156,-0.48828125,-0.5493164,0.0,0.0,0.0,117.229614,79.958496,166.75598
1769245186923,-0.9711914,0.14111328,-0.064453125,-0.061035156,-0.48828125,-0.5493164,0.0,0.0,0.0,117.4823,80.10132,167.01416
1769245187011,-0.99365234,0.15332031,-0.07080078,-0.8544922,0.0,1.8310547,0.0,0.0,0.0,117.4823,80.10132,167.01416
1769245187023,-0.99365234,0.15332031,-0.07080078,-0.8544922,0.0,1.8310547,0.0,0.0,0.0,116.54846,80.06836,166.12427
1769245187111,-0.98583984,0.16992188,-0.079589844,-0.12207031,0.5493164,1.5869141,0.0,0.0,0.0,116.54846,80.06836,166.12427
1769245187123,-0.98583984,0.16992188,-0.079589844,-0.12207031,0.5493164,1.5869141,0.0,0.0,0.0,115.823364,79.93103,165.40466
1769245187211,-0.9897461,0.15429688,-0.044921875,-0.24414062,5.2490234,-0.18310547,0.0,0.0,0.0,115.823364,79.93103,165.40466
1769245187222,-0.9897461,0.15429688,-0.044921875,-0.24414062,5.2490234,-0.18310547,0.0,0.0,0.0,117.66907,79.66736,167.24487
1769245187311,-0.9638672,0.15771484,-0.09765625,5.1879883,2.9907227,-1.8920898,0.0,0.0,0.0,117.66907,79.66736,167.24487
1769245187322,-0.9638672,0.15771484,-0.09765625,5.1879883,2.9907227,-1.8920898,0.0,0.0,0.0,119.0918,79.61792,168.65662
1769245187410,-1.0014648,0.16503906,-0.08496094,-1.8310547,0.61035156,1.0986328,0.0,0.0,0.0,119.0918,79.61792,168.65662
1769245187422,-1.0014648,0.16503906,-0.08496094,-1.8310547,0.61035156,1.0986328,0.0,0.0,0.0,120.01465,79.46411,169.6289
1769245187510,-0.9916992,0.16357422,-0.091308594,-3.90625,-1.0986328,0.91552734,0.0,0.0,0.0,120.01465,79.46411,169.6289
1769245187521,-0.9916992,0.16357422,-0.091308594,-3.90625,-1.0986328,0.91552734,0.0,0.0,0.0,119.35547,79.45862,169.24988
1769245187610,-0.9814453,0.15917969,-0.095703125,-2.2583008,-0.061035156,0.30517578,0.0,0.0,0.0,119.35547,79.45862,169.24988
1769245187621,-0.9814453,0.15917969,-0.095703125,-2.2583008,-0.061035156,0.30517578,0.0,0.0,0.0,119.08081,79.46411,169.13452
1769245187709,-0.98876953,0.17041016,-0.079589844,-1.7089844,-0.12207031,0.7324219,0.0,0.0,0.0,119.08081,79.46411,169.13452
1769245187721,-0.98876953,0.17041016,-0.079589844,-1.7089844,-0.12207031,0.7324219,0.0,0.0,0.0,118.602905,79.35425,168.85986
1769245187809,-0.97558594,0.19091797,-0.114746094,0.9765625,-4.8828125,1.4038086,0.0,0.0,0.0,118.602905,79.35425,168.85986
1769245187821,-0.97558594,0.19091797,-0.114746094,0.9765625,-4.8828125,1.4038086,0.0,0.0,0.0,116.93298,79.40918,167.18445
1769245187909,-0.97265625,0.16748047,-0.06201172,7.446289,-2.8686523,-2.8076172,0.0,0.0,0.0,116.93298,79.40918,167.18445
1769245187920,-0.97265625,0.16748047,-0.06201172,7.446289,-2.8686523,-2.8076172,0.0,0.0,0.0,116.60889,79.552,165.98145
1769245188009,-0.98828125,0.16601562,-0.08544922,11.291504,-7.019043,-3.7231445,0.0,0.0,0.0,116.60889,79.552,165.98145
1769245188020,-0.98828125,0.16601562,-0.08544922,11.291504,-7.019043,-3.7231445,0.0,0.0,0.0,115.40039,79.93652,163.89954
1769245188108,-0.9941406,0.12792969,-0.07128906,10.864258,-6.1035156,-2.746582,0.0,0.0,0.0,115.40039,79.93652,163.89954
1769245188120,-0.9941406,0.12792969,-0.07128906,10.864258,-6.1035156,-2.746582,0.0,0.0,0.0,112.64282,80.46387,159.88403
1769245188208,-0.9995117,0.119140625,-0.018554688,3.3569336,-7.2021484,2.5024414,0.0,0.0,0.0,112.64282,80.46387,159.88403
1769245188220,-0.9995117,0.119140625,-0.018554688,3.3569336,-7.2021484,2.5024414,0.0,0.0,0.0,109.7699,80.80444,156.2915
1769245188308,-1.0249023,0.09716797,0.02734375,-25.6958,0.0,10.986328,0.0,0.0,0.0,109.7699,80.80444,156.2915
1769245188319,-1.0249023,0.09716797,0.02734375,-25.6958,0.0,10.986328,0.0,0.0,0.0,105.930176,80.39795,153.60535
1769245188407,-0.9897461,0.1665039,0.0,-30.456543,0.36621094,0.18310547,0.0,0.0,0.0,105.930176,80.39795,153.60535
1769245188419,-0.9897461,0.1665039,0.0,-30.456543,0.36621094,0.18310547,0.0,0.0,0.0,101.27197,80.05188,152.23755
1769245188507,-0.97509766,0.1772461,-0.0024414062,-23.31543,0.79345703,-2.319336,0.0,0.0,0.0,101.27197,80.05188,152.23755
1769245188519,-0.97509766,0.1772461,-0.0024414062,-23.31543,0.79345703,-2.319336,0.0,0.0,0.0,98.86047,80.216675,152.45178
1769245188607,-0.99316406,0.17773438,-0.015136719,-4.638672,1.8310547,-5.126953,0.0,0.0,0.0,98.86047,80.216675,152.45178
1769245188618,-0.99316406,0.17773438,-0.015136719,-4.638672,1.8310547,-5.126953,0.0,0.0,0.0,98.10791,80.22217,152.81982
1769245188706,-0.9555664,0.19433594,-0.0146484375,5.1879883,4.699707,-2.1362305,0.0,0.0,0.0,98.10791,80.22217,152.81982
1769245188719,-0.9555664,0.19433594,-0.0146484375,5.1879883,4.699707,-2.1362305,0.0,0.0,0.0,98.3551,80.18921,152.53967
1769245188806,-0.9980469,0.1694336,-0.041503906,10.253906,-1.5869141,1.4648438,0.0,0.0,0.0,98.3551,80.18921,152.53967
1769245188818,-0.9980469,0.1694336,-0.041503906,10.253906,-1.5869141,1.4648438,0.0,0.0,0.0,99.1626,80.16174,151.6278
1769245188906,-0.9946289,0.1743164,-0.020507812,12.145996,-0.79345703,1.4648438,0.0,0.0,0.0,99.1626,80.16174,151.6278
1769245188920,-0.9946289,0.1743164,-0.020507812,12.145996,-0.79345703,1.4648438,0.0,0.0,0.0,100.047,80.024414,150.62256
1769245189006,-0.9892578,0.1640625,-0.030761719,12.6953125,-2.1362305,-1.5258789,0.0,0.0,0.0,100.047,80.024414,150.62256
1769245189017,-0.9892578,0.1640625,-0.030761719,12.6953125,-2.1362305,-1.5258789,0.0,0.0,0.0,99.382324,79.96399,148.4143
1769245189111,-0.9848633,0.1616211,-0.016601562,14.953613,-3.4179688,-3.2348633,0.0,0.0,0.0,99.382324,79.96399,148.4143
1769245189117,-0.9848633,0.1616211,-0.016601562,14.953613,-3.4179688,-3.2348633,0.0,0.0,0.0,99.73938,80.24963,147.16736
1769245189205,-0.98779297,0.11669922,-0.016601562,2.2583008,4.333496,0.0,0.0,0.0,0.0,99.73938,80.24963,147.16736
1769245189217,-0.98779297,0.11669922,-0.016601562,2.2583008,4.333496,0.0,0.0,0.0,0.0,101.67297,80.43091,148.05176
1769245189305,-1.0053711,0.12792969,-0.045410156,1.4648438,4.4555664,1.4648438,0.0,0.0,0.0,101.67297,80.43091,148.05176
1769245189316,-1.0053711,0.12792969,-0.045410156,1.4648438,4.4555664,1.4648438,0.0,0.0,0.0,103.42529,80.392456,149.79858
1769245189405,-0.98583984,0.16308594,-0.021972656,-5.3710938,4.4555664,0.61035156,0.0,0.0,0.0,103.42529,80.392456,149.79858
1769245189416,-0.98583984,0.16308594,-0.021972656,-5.3710938,4.4555664,0.61035156,0.0,0.0,0.0,106.45203,80.18921,153.66577
1769245189504,-0.9941406,0.14746094,-0.03466797,-7.3242188,3.1738281,-1.953125,0.0,0.0,0.0,106.45203,80.18921,153.66577
1769245189516,-0.9941406,0.14746094,-0.03466797,-7.3242188,3.1738281,-1.953125,0.0,0.0,0.0,107.578125,80.15076,155.67627
1769245189604,-0.9628906,0.17382812,-0.072753906,4.3945312,4.3945312,-1.7089844,0.0,0.0,0.0,107.578125,80.15076,155.67627
1769245189615,-0.9628906,0.17382812,-0.072753906,4.3945312,4.3945312,-1.7089844,0.0,0.0,0.0,107.34192,80.07385,155.8905
1769245189704,-0.99658203,0.16357422,-0.05419922,6.8359375,-0.48828125,-2.5024414,0.0,0.0,0.0,107.34192,80.07385,155.8905
1769245189715,-0.99658203,0.16357422,-0.05419922,6.8359375,-0.48828125,-2.5024414,0.0,0.0,0.0,107.352905,80.1178,155.495
1769245189803,-0.96777344,0.17675781,-0.061523438,16.052246,-3.1738281,-3.479004,0.0,0.0,0.0,107.352905,80.1178,155.495
1769245189815,-0.96777344,0.17675781,-0.061523438,16.052246,-3.1738281,-3.479004,0.0,0.0,0.0,107.9187,80.546265,154.84131
1769245189903,-1.0380859,0.1274414,-0.013671875,18.127441,-4.1503906,1.8920898,0.0,0.0,0.0,107.9187,80.546265,154.84131
1769245189915,-1.0380859,0.1274414,-0.013671875,18.127441,-4.1503906,1.8920898,0.0,0.0,0.0,107.786865,80.54077,153.01758
1769245190003,-0.9658203,0.15722656,-0.05419922,7.385254,-0.24414062,0.36621094,0.0,0.0,0.0,107.786865,80.54077,153.01758
1769245190014,-0.9658203,0.15722656,-0.05419922,7.385254,-0.24414062,0.36621094,0.0,0.0,0.0,107.04529,80.48035,152.33093
1769245190102,-1.0058594,0.13476562,-0.04248047,0.36621094,0.5493164,0.9765625,0.0,0.0,0.0,107.04529,80.48035,152.33093
1769245190114,-1.0058594,0.13476562,-0.04248047,0.36621094,0.5493164,0.9765625,0.0,0.0,0.0,106.73767,80.50232,152.39136
1769245190202,-0.98828125,0.13623047,-0.0390625,-3.2348633,1.8310547,0.7324219,0.0,0.0,0.0,106.73767,80.50232,152.39136
1769245190214,-0.98828125,0.13623047,-0.0390625,-3.2348633,1.8310547,0.7324219,0.0,0.0,0.0,107.561646,80.458374,154.281
1769245190302,-0.99560547,0.14160156,-0.05126953,-2.9296875,3.7841797,0.0,0.0,0.0,0.0,107.561646,80.458374,154.281
1769245190313,-0.99560547,0.14160156,-0.05126953,-2.9296875,3.7841797,0.0,0.0,0.0,0.0,108.58887,80.38147,156.40137
1769245190402,-0.9926758,0.14013672,-0.05810547,-0.061035156,3.7231445,-1.4038086,0.0,0.0,0.0,108.58887,80.38147,156.40137
1769245190413,-0.9926758,0.14013672,-0.05810547,-0.061035156,3.7231445,-1.4038086,0.0,0.0,0.0,110.8905,80.37048,159.4281
1769245190501,-0.9916992,0.14746094,-0.05859375,-1.953125,5.3710938,0.0,0.0,0.0,0.0,110.8905,80.37048,159.4281
1769245190513,-0.9916992,0.14746094,-0.05859375,-1.953125,5.3710938,0.0,0.0,0.0,0.0,113.933716,80.31555,162.98218
1769245190601,-0.99365234,0.1508789,-0.083496094,-1.159668,6.3476562,1.0986328,0.0,0.0,0.0,113.933716,80.31555,162.98218
1769245190613,-0.99365234,0.1508789,-0.083496094,-1.159668,6.3476562,1.0986328,0.0,0.0,0.0,116.537476,79.974976,166.34949
1769245190701,-1.0185547,0.15185547,-0.076171875,2.2583008,1.3427734,-0.48828125,0.0,0.0,0.0,116.537476,79.974976,166.34949
1769245190712,-1.0185547,0.15185547,-0.076171875,2.2583008,1.3427734,-0.48828125,0.0,0.0,0.0,118.14148,79.815674,168.28308
1769245190800,-0.9584961,0.18066406,-0.08251953,7.2021484,-3.6621094,0.36621094,0.0,0.0,0.0,118.14148,79.815674,168.28308
1769245190812,-0.9584961,0.18066406,-0.08251953,7.2021484,-3.6621094,0.36621094,0.0,0.0,0.0,117.68005,79.88159,167.66235
1769245190900,-0.98046875,0.1665039,-0.07421875,16.235352,-4.760742,-2.5024414,0.0,0.0,0.0,117.68005,79.88159,167.66235
1769245190912,-0.98046875,0.1665039,-0.07421875,16.235352,-4.760742,-2.5024414,0.0,0.0,0.0,116.97693,80.13977,165.932
1769245191000,-0.98291016,0.16210938,-0.06738281,17.39502,-5.859375,-1.4648438,0.0,0.0,0.0,116.97693,80.13977,165.932
1769245191011,-0.98291016,0.16210938,-0.06738281,17.39502,-5.859375,-1.4648438,0.0,0.0,0.0,116.28479,80.48584,163.91052
1769245191099,-0.98828125,0.15625,-0.051757812,15.930176,-1.2207031,-1.2817383,0.0,0.0,0.0,116.28479,80.48584,163.91052
1769245191112,-0.98828125,0.15625,-0.051757812,15.930176,-1.2207031,-1.2817383,0.0,0.0,0.0,116.53198,80.68359,163.10303
1769245191199,-0.9892578,0.14990234,-0.06591797,13.671875,2.0141602,-0.061035156,0.0,0.0,0.0,116.53198,80.68359,163.10303
1769245191211,-0.9892578,0.14990234,-0.06591797,13.671875,2.0141602,-0.061035156,0.0,0.0,0.0,118.17444,80.667114,164.26208
1769245191299,-0.98828125,0.1459961,-0.059570312,8.361816,0.79345703,1.4038086,0.0,0.0,0.0,118.17444,80.667114,164.26208
1769245191311,-0.98828125,0.1459961,-0.059570312,8.361816,0.79345703,1.4038086,0.0,0.0,0.0,119.696045,80.529785,165.91553
1769245191399,-0.9863281,0.15234375,-0.064941406,1.3427734,-1.4038086,3.2348633,0.0,0.0,0.0,119.696045,80.529785,165.91553
1769245191410,-0.9863281,0.15234375,-0.064941406,1.3427734,-1.4038086,3.2348633,0.0,0.0,0.0,118.899536,80.36499,166.09131
1769245191498,-0.9863281,0.15917969,-0.0703125,-1.4038086,-1.0986328,3.2958984,0.0,0.0,0.0,118.899536,80.36499,166.09131
1769245191510,-0.9863281,0.15917969,-0.0703125,-1.4038086,-1.0986328,3.2958984,0.0,0.0,0.0,117.06482,80.128784,165.73425
1769245191598,-0.984375,0.15917969,-0.059570312,-2.4414062,-1.8920898,2.0751953,0.0,0.0,0.0,117.06482,80.128784,165.73425
1769245191614,-0.984375,0.15917969,-0.059570312,-2.4414062,-1.8920898,2.0751953,0.0,0.0,0.0,115.43335,79.94751,165.60791
1769245191698,-0.9897461,0.1665039,-0.0703125,-2.6245117,-0.061035156,0.91552734,0.0,0.0,0.0,115.43335,79.94751,165.60791
1769245191710,-0.9897461,0.1665039,-0.0703125,-2.6245117,-0.061035156,0.91552734,0.0,0.0,0.0,113.93921,79.83215,165.62988
1769245191798,-0.9848633,0.16015625,-0.072753906,-3.6621094,2.8686523,-0.30517578,0.0,0.0,0.0,113.93921,79.83215,165.62988
1769245191809,-0.9848633,0.16015625,-0.072753906,-3.6621094,2.8686523,-0.30517578,0.0,0.0,0.0,114.33472,79.73877,167.42615
1769245191897,-0.9946289,0.16113281,-0.08544922,-1.7089844,4.760742,-1.159668,0.0,0.0,0.0,114.33472,79.73877,167.42615
1769245191913,-0.9946289,0.16113281,-0.08544922,-1.7089844,4.760742,-1.159668,0.0,0.0,0.0,116.312256,79.62341,170.74402
1769245191997,-0.9916992,0.15478516,-0.09765625,-2.319336,4.272461,-1.159668,0.0,0.0,0.0,116.312256,79.62341,170.74402
1769245192008,-0.9916992,0.15478516,-0.09765625,-2.319336,4.272461,-1.159668,0.0,0.0,0.0,118.59741,79.50256,174.11133
1769245192097,-0.984375,0.16210938,-0.07910156,-0.30517578,2.2583008,0.12207031,0.0,0.0,0.0,118.59741,79.50256,174.11133
1769245192108,-0.984375,0.16210938,-0.07910156,-0.30517578,2.2583008,0.12207031,0.0,0.0,0.0,121.1792,79.332275,177.5116
1769245192196,-0.9741211,0.15625,-0.07861328,0.9765625,0.36621094,0.91552734,0.0,0.0,0.0,121.1792,79.332275,177.5116
1769245192208,-0.9741211,0.15625,-0.07861328,0.9765625,0.36621094,0.91552734,0.0,0.0,0.0,121.190186,79.21692,178.26416
1769245192296,-0.98828125,0.1538086,-0.103027344,2.0141602,-4.699707,2.1362305,0.0,0.0,0.0,121.190186,79.21692,178.26416
1769245192307,-0.98828125,0.1538086,-0.103027344,2.0141602,-4.699707,2.1362305,0.0,0.0,0.0,118.498535,79.21692,176.27563
1769245192396,-0.9921875,0.15429688,-0.084472656,1.5869141,-3.0517578,1.7700195,0.0,0.0,0.0,118.498535,79.21692,176.27563
1769245192407,-0.9921875,0.15429688,-0.084472656,1.5869141,-3.0517578,1.7700195,0.0,0.0,0.0,116.987915,79.24988,175.0946
1769245192495,-0.97753906,0.16259766,-0.06542969,1.6479492,-1.7700195,1.0375977,0.0,0.0,0.0,116.987915,79.24988,175.0946
1769245192507,-0.97753906,0.16259766,-0.06542969,1.6479492,-1.7700195,1.0375977,0.0,0.0,0.0,115.98816,79.244385,174.71558
1769245192595,-0.9975586,0.16748047,-0.08203125,1.7700195,-0.061035156,0.36621094,0.0,0.0,0.0,115.98816,79.244385,174.71558
1769245192607,-0.9975586,0.16748047,-0.08203125,1.7700195,-0.061035156,0.36621094,0.0,0.0,0.0,115.37842,79.23889,174.75952
1769245192695,-0.9785156,0.17089844,-0.060546875,3.2348633,-5.6152344,1.0375977,0.0,0.0,0.0,115.37842,79.23889,174.75952
1769245192706,-0.9785156,0.17089844,-0.060546875,3.2348633,-5.6152344,1.0375977,0.0,0.0,0.0,114.87854,79.27734,174.77051
1769245192795,-0.9794922,0.1640625,-0.048828125,2.1972656,0.0,0.61035156,0.0,0.0,0.0,114.87854,79.27734,174.77051
1769245192806,-0.9794922,0.1640625,-0.048828125,2.1972656,0.0,0.61035156,0.0,0.0,0.0,113.40088,79.28833,173.78723
1769245192894,-0.9824219,0.16699219,-0.07128906,0.6713867,0.48828125,1.5258789,0.0,0.0,0.0,113.40088,79.28833,173.78723
1769245192906,-0.9824219,0.16699219,-0.07128906,0.6713867,0.48828125,1.5258789,0.0,0.0,0.0,112.8186,79.17297,173.84766
1769245192994,-0.9848633,0.17285156,-0.064453125,-0.48828125,-0.12207031,2.5634766,0.0,0.0,0.0,112.8186,79.17297,173.84766
1769245193006,-0.9848633,0.17285156,-0.064453125,-0.48828125,-0.12207031,2.5634766,0.0,0.0,0.0,112.41211,78.9917,174.12231
1769245193094,-0.9824219,0.18017578,-0.063964844,0.24414062,-0.9765625,1.7089844,0.0,0.0,0.0,112.41211,78.9917,174.12231
1769245193107,-0.9824219,0.18017578,-0.063964844,0.24414062,-0.9765625,1.7089844,0.0,0.0,0.0,111.31897,78.84888,173.61694
1769245193193,-0.984375,0.18017578,-0.059570312,0.79345703,-0.24414062,1.2817383,0.0,0.0,0.0,111.31897,78.84888,173.61694
1769245193205,-0.984375,0.18017578,-0.059570312,0.79345703,-0.24414062,1.2817383,0.0,0.0,0.0,110.78613,78.73352,173.56201
1769245193293,-0.98583984,0.1850586,-0.06347656,1.7700195,0.9765625,0.0,0.0,0.0,0.0,110.78613,78.73352,173.56201
1769245193305,-0.98583984,0.1850586,-0.06347656,1.7700195,0.9765625,0.0,0.0,0.0,0.0,110.80261,78.6676,174.03992
1769245193393,-0.9902344,0.18359375,-0.057128906,1.0375977,-0.61035156,0.79345703,0.0,0.0,0.0,110.80261,78.6676,174.03992
1769245193405,-0.9902344,0.18359375,-0.057128906,1.0375977,-0.61035156,0.79345703,0.0,0.0,0.0,111.12671,78.60718,174.75952
1769245193493,-0.98046875,0.18359375,-0.0625,0.9765625,-0.8544922,0.48828125,0.0,0.0,0.0,111.12671,78.60718,174.75952
1769245193505,-0.98046875,0.18359375,-0.0625,0.9765625,-0.8544922,0.48828125,0.0,0.0,0.0,110.6488,78.59619,174.60571
1769245193592,-0.98828125,0.18847656,-0.057128906,0.91552734,-1.2207031,0.6713867,0.0,0.0,0.0,110.6488,78.59619,174.60571
1769245193604,-0.98828125,0.18847656,-0.057128906,0.91552734,-1.2207031,0.6713867,0.0,0.0,0.0,110.22034,78.57422,174.54529
1769245193692,-0.9863281,0.1850586,-0.0546875,-0.7324219,-3.4179688,2.0751953,0.0,0.0,0.0,110.22034,78.57422,174.54529
1769245193703,-0.9863281,0.1850586,-0.0546875,-0.7324219,-3.4179688,2.0751953,0.0,0.0,0.0,108.984375,78.53027,173.67737
1769245193792,-0.9863281,0.19238281,-0.053710938,0.18310547,0.061035156,0.5493164,0.0,0.0,0.0,108.984375,78.53027,173.67737
1769245193803,-0.9863281,0.19238281,-0.053710938,0.18310547,0.061035156,0.5493164,0.0,0.0,0.0,108.38562,78.48633,173.45215
1769245193891,-0.9848633,0.1928711,-0.056152344,0.91552734,-0.24414062,0.18310547,0.0,0.0,0.0,108.38562,78.48633,173.45215
1769245193903,-0.9848633,0.1928711,-0.056152344,0.91552734,-0.24414062,0.18310547,0.0,0.0,0.0,108.14392,78.45337,173.58948
1769245193991,-0.9863281,0.19042969,-0.05078125,1.4648438,-0.7324219,0.061035156,0.0,0.0,0.0,108.14392,78.45337,173.58948
1769245194003,-0.9863281,0.19042969,-0.05078125,1.4648438,-0.7324219,0.061035156,0.0,0.0,0.0,107.891235,78.45886,173.63342
1769245194091,-0.98535156,0.1899414,-0.05126953,0.9765625,0.7324219,0.0,0.0,0.0,0.0,107.891235,78.45886,173.63342
1769245194102,-0.98535156,0.1899414,-0.05126953,0.9765625,0.7324219,0.0,0.0,0.0,0.0,107.96814,78.43689,174.02344
1769245194190,-0.9916992,0.1875,-0.05908203,1.2817383,-0.24414062,0.0,0.0,0.0,0.0,107.96814,78.43689,174.02344
1769245194202,-0.9916992,0.1875,-0.05908203,1.2817383,-0.24414062,0.0,0.0,0.0,0.0,108.13843,78.4259,174.51233
1769245194290,-0.98046875,0.1875,-0.061035156,0.79345703,-1.0375977,0.61035156,0.0,0.0,0.0,108.13843,78.4259,174.51233
1769245194302,-0.98046875,0.1875,-0.061035156,0.79345703,-1.0375977,0.61035156,0.0,0.0,0.0,107.78137,78.409424,174.52332
1769245194390,-0.98535156,0.1928711,-0.053710938,0.0,-0.48828125,0.79345703,0.0,0.0,0.0,107.78137,78.409424,174.52332
1769245194401,-0.98535156,0.1928711,-0.053710938,0.0,-0.48828125,0.79345703,0.0,0.0,0.0,107.22107,78.359985,174.34753
1769245194490,-0.9814453,0.18945312,-0.053222656,0.30517578,-0.48828125,0.48828125,0.0,0.0,0.0,107.22107,78.359985,174.34753
1769245194501,-0.9814453,0.18945312,-0.053222656,0.30517578,-0.48828125,0.48828125,0.0,0.0,0.0,106.97937,78.32153,174.41895
1769245194589,-0.9819336,0.19238281,-0.051757812,1.2817383,0.36621094,0.0,0.0,0.0,0.0,106.97937,78.32153,174.41895
1769245194601,-0.9819336,0.19238281,-0.051757812,1.2817383,0.36621094,0.0,0.0,0.0,0.0,107.04529,78.31055,174.776
1769245194689,-0.98583984,0.19091797,-0.05126953,1.3427734,0.30517578,-0.36621094,0.0,0.0,0.0,107.04529,78.31055,174.776
1769245194701,-0.98583984,0.19091797,-0.05126953,1.3427734,0.30517578,-0.36621094,0.0,0.0,0.0,107.144165,78.32153,175.11108
1769245194789,-0.98291016,0.18896484,-0.049316406,1.0375977,-0.12207031,-0.061035156,0.0,0.0,0.0,107.144165,78.32153,175.11108
1769245194800,-0.98291016,0.18896484,-0.049316406,1.0375977,-0.12207031,-0.061035156,0.0,0.0,0.0,107.31995,78.343506,175.51758
1769245194888,-0.9814453,0.19140625,-0.05126953,1.159668,-0.8544922,-0.48828125,0.0,0.0,0.0,107.31995,78.343506,175.51758
1769245194900,-0.9814453,0.19140625,-0.05126953,1.159668,-0.8544922,-0.48828125,0.0,0.0,0.0,107.22656,78.376465,175.72632
1769245194988,-0.98535156,0.1875,-0.05419922,0.4272461,-0.12207031,-0.24414062,0.0,0.0,0.0,107.22656,78.376465,175.72632
1769245195000,-0.98535156,0.1875,-0.05419922,0.4272461,-0.12207031,-0.24414062,0.0,0.0,0.0,107.023315,78.4259,175.79224
1769245195088,-0.98583984,0.18896484,-0.0546875,-0.4272461,0.36621094,0.0,0.0,0.0,0.0,107.023315,78.4259,175.79224
1769245195099,-0.98583984,0.18896484,-0.0546875,-0.4272461,0.36621094,0.0,0.0,0.0,0.0,106.99036,78.4314,176.12732
1769245195187,-0.98535156,0.18457031,-0.053222656,-0.48828125,-0.061035156,0.061035156,0.0,0.0,0.0,106.99036,78.4314,176.12732
1769245195199,-0.98535156,0.18457031,-0.053222656,-0.48828125,-0.061035156,0.061035156,0.0,0.0,0.0,107.06726,78.4259,176.6272
1769245195287,-0.9892578,0.1821289,-0.056640625,0.0,0.061035156,-0.12207031,0.0,0.0,0.0,107.06726,78.4259,176.6272
1769245195299,-0.9892578,0.1821289,-0.056640625,0.0,0.061035156,-0.12207031,0.0,0.0,0.0,107.06177,78.44238,176.98425
1769245195387,-0.98876953,0.18359375,-0.057617188,0.5493164,0.18310547,-1.4038086,0.0,0.0,0.0,107.06177,78.44238,176.98425
1769245195399,-0.98876953,0.18359375,-0.057617188,0.5493164,0.18310547,-1.4038086,0.0,0.0,0.0,107.51221,78.50281,177.65991
1769245195487,-0.97998047,0.17822266,-0.057617188,1.4648438,0.5493164,-1.0375977,0.0,0.0,0.0,107.51221,78.50281,177.65991
1769245195499,-0.97998047,0.17822266,-0.057617188,1.4648438,0.5493164,-1.0375977,0.0,0.0,0.0,107.786865,78.601685,178.14331
1769245195586,-0.9848633,0.18115234,-0.053710938,2.0141602,1.7700195,-1.5258789,0.0,0.0,0.0,107.786865,78.601685,178.14331
1769245195598,-0.9848633,0.18115234,-0.053710938,2.0141602,1.7700195,-1.5258789,0.0,0.0,0.0,108.99536,78.70056,179.48914
1769245195686,-0.98828125,0.17089844,-0.055664062,0.4272461,3.6621094,-0.6713867,0.0,0.0,0.0,108.99536,78.70056,179.48914
1769245195698,-0.98828125,0.17089844,-0.055664062,0.4272461,3.6621094,-0.6713867,0.0,0.0,0.0,110.3302,78.74451,-178.9508
1769245195786,-0.98583984,0.17041016,-0.060546875,-0.36621094,0.0,0.061035156,0.0,0.0,0.0,110.3302,78.74451,-178.9508
1769245195797,-0.98583984,0.17041016,-0.060546875,-0.36621094,0.0,0.061035156,0.0,0.0,0.0,110.95642,78.72803,-177.84668
1769245195885,-0.98828125,0.17333984,-0.057128906,-1.0375977,0.48828125,0.30517578,0.0,0.0,0.0,110.95642,78.72803,-177.84668
1769245195897,-0.98828125,0.17333984,-0.057128906,-1.0375977,0.48828125,0.30517578,0.0,0.0,0.0,110.78613,78.75,-177.44019
1769245195985,-0.9916992,0.1665039,-0.056152344,-4.4555664,3.479004,0.48828125,0.0,0.0,0.0,110.78613,78.75,-177.44019
1769245195997,-0.9916992,0.1665039,-0.056152344,-4.4555664,3.479004,0.48828125,0.0,0.0,0.0,110.90698,78.689575,-176.6272
1769245196085,-0.97558594,0.18359375,-0.06933594,-2.5024414,4.0283203,-0.9765625,0.0,0.0,0.0,110.90698,78.689575,-176.6272
1769245196096,-0.97558594,0.18359375,-0.06933594,-2.5024414,4.0283203,-0.9765625,0.0,0.0,0.0,112.40112,78.5907,-174.30908
1769245196185,-0.98291016,0.18261719,-0.07763672,2.6855469,3.2348633,0.12207031,0.0,0.0,0.0,112.40112,78.5907,-174.30908
1769245196196,-0.98291016,0.18261719,-0.07763672,2.6855469,3.2348633,0.12207031,0.0,0.0,0.0,113.950195,78.48633,-172.62268
1769245196284,-0.9951172,0.18115234,-0.076660156,7.2631836,1.2817383,1.0375977,0.0,0.0,0.0,113.950195,78.48633,-172.62268
1769245196296,-0.9951172,0.18115234,-0.076660156,7.2631836,1.2817383,1.0375977,0.0,0.0,0.0,115.2301,78.32153,-171.74377
1769245196384,-0.97265625,0.18847656,-0.080566406,-1.0375977,1.0986328,1.8920898,0.0,0.0,0.0,115.2301,78.32153,-171.74377
1769245196396,-0.97265625,0.18847656,-0.080566406,-1.0375977,1.0986328,1.8920898,0.0,0.0,0.0,115.48279,78.15674,-171.44165
1769245196484,-0.98535156,0.18457031,-0.0859375,1.2817383,-0.18310547,0.79345703,0.0,0.0,0.0,115.48279,78.15674,-171.44165
1769245196495,-0.98535156,0.18457031,-0.0859375,1.2817383,-0.18310547,0.79345703,0.0,0.0,0.0,115.43335,78.00293,-171.26038
1769245196583,-0.98095703,0.19042969,-0.076660156,1.159668,0.6713867,0.12207031,0.0,0.0,0.0,115.43335,78.00293,-171.26038
1769245196596,-0.98095703,0.19042969,-0.076660156,1.159668,0.6713867,0.12207031,0.0,0.0,0.0,115.64758,77.95349,-170.9143
1769245196683,-0.98583984,0.18408203,-0.0859375,0.91552734,0.0,-0.48828125,0.0,0.0,0.0,115.64758,77.95349,-170.9143
1769245196695,-0.98583984,0.18408203,-0.0859375,0.91552734,0.0,-0.48828125,0.0,0.0,0.0,115.73547,77.948,-170.64514
1769245196783,-0.97998047,0.1875,-0.08544922,-0.30517578,-0.48828125,0.0,0.0,0.0,0.0,115.73547,77.948,-170.64514
1769245196794,-0.97998047,0.1875,-0.08544922,-0.30517578,-0.48828125,0.0,0.0,0.0,0.0,115.76294,77.975464,-170.37048
1769245196883,-0.98291016,0.18359375,-0.08496094,0.36621094,-1.4648438,0.061035156,0.0,0.0,0.0,115.76294,77.975464,-170.37048
1769245196894,-0.98291016,0.18359375,-0.08496094,0.36621094,-1.4648438,0.061035156,0.0,0.0,0.0,115.31799,78.0249,-170.62317
1769245196982,-0.98779297,0.1796875,-0.08300781,1.2207031,-2.0141602,0.0,0.0,0.0,0.0,115.31799,78.0249,-170.62317
1769245196994,-0.98779297,0.1796875,-0.08300781,1.2207031,-2.0141602,0.0,0.0,0.0,0.0,114.73572,78.07434,-171.04065
1769245197082,-0.9794922,0.18457031,-0.071777344,-0.18310547,-2.319336,0.30517578,0.0,0.0,0.0,114.73572,78.07434,-171.04065
1769245197094,-0.9794922,0.18457031,-0.071777344,-0.18310547,-2.319336,0.30517578,0.0,0.0,0.0,113.81287,78.14575,-171.78223
1769245197182,-0.9868164,0.18457031,-0.07373047,-0.91552734,-0.91552734,0.0,0.0,0.0,0.0,113.81287,78.14575,-171.78223
1769245197193,-0.9868164,0.18457031,-0.07373047,-0.91552734,-0.91552734,0.0,0.0,0.0,0.0,112.87903,78.20068,-172.51282
1769245197281,-0.97998047,0.18554688,-0.06738281,-1.2817383,0.36621094,-0.30517578,0.0,0.0,0.0,112.87903,78.20068,-172.51282
1769245197293,-0.97998047,0.18554688,-0.06738281,-1.2817383,0.36621094,-0.30517578,0.0,0.0,0.0,112.59338,78.23364,-172.55127
1769245197381,-0.9824219,0.18603516,-0.068847656,-1.0986328,0.36621094,0.0,0.0,0.0,0.0,112.59338,78.23364,-172.55127
1769245197393,-0.9824219,0.18603516,-0.068847656,-1.0986328,0.36621094,0.0,0.0,0.0,0.0,112.48901,78.24463,-172.41394
1769245197481,-0.98046875,0.18701172,-0.06542969,-1.4038086,0.4272461,0.0,0.0,0.0,0.0,112.48901,78.24463,-172.41394
1769245197492,-0.98046875,0.18701172,-0.06542969,-1.4038086,0.4272461,0.0,0.0,0.0,0.0,112.31323,78.255615,-172.41943
1769245197581,-0.9848633,0.18408203,-0.071777344,-0.12207031,0.24414062,0.18310547,0.0,0.0,0.0,112.31323,78.255615,-172.41943
1769245197592,-0.9848633,0.18408203,-0.071777344,-0.12207031,0.24414062,0.18310547,0.0,0.0,0.0,112.06055,78.239136,-172.51831
1769245197680,-0.9868164,0.18310547,-0.072753906,0.061035156,-0.91552734,0.5493164,0.0,0.0,0.0,112.06055,78.239136,-172.51831
1769245197692,-0.9868164,0.18310547,-0.072753906,0.061035156,-0.91552734,0.5493164,0.0,0.0,0.0,111.59912,78.22815,-172.91382
1769245197780,-0.9848633,0.18457031,-0.068359375,0.0,-1.3427734,0.5493164,0.0,0.0,0.0,111.59912,78.22815,-172.91382
1769245197791,-0.9848633,0.18457031,-0.068359375,0.0,-1.3427734,0.5493164,0.0,0.0,0.0,111.02234,78.22815,-173.4137
1769245197880,-0.984375,0.18457031,-0.06542969,0.18310547,-0.91552734,0.30517578,0.0,0.0,0.0,111.02234,78.22815,-173.4137
1769245197892,-0.984375,0.18457031,-0.06542969,0.18310547,-0.91552734,0.30517578,0.0,0.0,0.0,110.407104,78.25012,-174.00146
1769245197979,-0.98291016,0.18701172,-0.064453125,0.18310547,-0.24414062,0.18310547,0.0,0.0,0.0,110.407104,78.25012,-174.00146
1769245197991,-0.98291016,0.18701172,-0.064453125,0.18310547,-0.24414062,0.18310547,0.0,0.0,0.0,110.0885,78.26111,-174.22668
1769245198079,-0.9873047,0.18554688,-0.063964844,0.12207031,-0.4272461,0.061035156,0.0,0.0,0.0,110.0885,78.26111,-174.22668
1769245198090,-0.9873047,0.18554688,-0.063964844,0.12207031,-0.4272461,0.061035156,0.0,0.0,0.0,109.956665,78.272095,-174.2926
1769245198179,-0.98046875,0.18408203,-0.060058594,0.061035156,-0.061035156,-0.18310547,0.0,0.0,0.0,109.956665,78.272095,-174.2926
1769245198190,-0.98046875,0.18408203,-0.060058594,0.061035156,-0.061035156,-0.18310547,0.0,0.0,0.0,109.86328,78.29407,-174.35303
1769245198278,-0.98046875,0.1875,-0.060058594,-0.36621094,0.24414062,0.061035156,0.0,0.0,0.0,109.86328,78.29407,-174.35303
1769245198290,-0.98046875,0.1875,-0.060058594,-0.36621094,0.24414062,0.061035156,0.0,0.0,0.0,109.87976,78.30505,-174.27063
1769245198378,-0.984375,0.19042969,-0.06298828,-0.30517578,-0.4272461,0.24414062,0.0,0.0,0.0,109.87976,78.30505,-174.27063
1769245198390,-0.984375,0.19042969,-0.06298828,-0.30517578,-0.4272461,0.24414062,0.0,0.0,0.0,109.63257,78.288574,-174.36401
1769245198478,-0.98291016,0.18847656,-0.06201172,0.36621094,1.0375977,-0.4272461,0.0,0.0,0.0,109.63257,78.288574,-174.36401
1769245198489,-0.98291016,0.18847656,-0.06201172,0.36621094,1.0375977,-0.4272461,0.0,0.0,0.0,109.7699,78.29407,-174.1278
1769245198578,-0.98339844,0.19140625,-0.064453125,0.91552734,1.4038086,-0.9765625,0.0,0.0,0.0,109.7699,78.29407,-174.1278
1769245198589,-0.98339844,0.19140625,-0.064453125,0.91552734,1.4038086,-0.9765625,0.0,0.0,0.0,110.30823,78.31604,-173.58398
1769245198677,-0.9892578,0.18847656,-0.06933594,-0.8544922,2.1972656,-0.18310547,0.0,0.0,0.0,110.30823,78.31604,-173.58398
1769245198689,-0.9892578,0.18847656,-0.06933594,-0.8544922,2.1972656,-0.18310547,0.0,0.0,0.0,111.12671,78.31055,-172.70508
1769245198777,-0.9848633,0.18261719,-0.07128906,-1.8310547,0.36621094,0.48828125,0.0,0.0,0.0,111.12671,78.31055,-172.70508
1769245198788,-0.9848633,0.18261719,-0.07128906,-1.8310547,0.36621094,0.48828125,0.0,0.0,0.0,110.945435,78.27759,-172.73804
1769245198877,-0.9838867,0.18896484,-0.06640625,-2.5634766,-1.159668,0.5493164,0.0,0.0,0.0,110.945435,78.27759,-172.73804
1769245198888,-0.9838867,0.18896484,-0.06640625,-2.5634766,-1.159668,0.5493164,0.0,0.0,0.0,110.45654,78.24463,-173.02368
1769245198976,-0.9863281,0.19628906,-0.060058594,-4.333496,-0.6713867,1.0986328,0.0,0.0,0.0,110.45654,78.24463,-173.02368
1769245198988,-0.9863281,0.19628906,-0.060058594,-4.333496,-0.6713867,1.0986328,0.0,0.0,0.0,109.78638,78.19519,-173.44116
1769245199076,-0.98339844,0.19140625,-0.0625,-3.9672852,0.24414062,0.12207031,0.0,0.0,0.0,109.78638,78.19519,-173.44116
1769245199088,-0.98339844,0.19140625,-0.0625,-3.9672852,0.24414062,0.12207031,0.0,0.0,0.0,109.08325,78.12927,-173.92456
1769245199176,-0.984375,0.19238281,-0.064941406,-4.333496,0.0,-0.24414062,0.0,0.0,0.0,109.08325,78.12927,-173.92456
1769245199187,-0.984375,0.19238281,-0.064941406,-4.333496,0.0,-0.24414062,0.0,0.0,0.0,108.92395,78.11279,-173.80371
1769245199276,-0.9824219,0.19091797,-0.060058594,-2.6855469,1.5869141,-1.4648438,0.0,0.0,0.0,108.92395,78.11279,-173.80371
1769245199287,-0.9824219,0.19091797,-0.060058594,-2.6855469,1.5869141,-1.4648438,0.0,0.0,0.0,109.193115,78.167725,-173.37524
1769245199375,-0.9794922,0.18261719,-0.05517578,-1.8310547,1.4648438,-1.4038086,0.0,0.0,0.0,109.193115,78.167725,-173.37524
1769245199387,-0.9794922,0.18261719,-0.05517578,-1.8310547,1.4648438,-1.4038086,0.0,0.0,0.0,109.91821,78.27759,-172.62817
1769245199475,-0.9863281,0.18261719,-0.064941406,-1.5869141,1.0375977,-0.91552734,0.0,0.0,0.0,109.91821,78.27759,-172.62817
1769245199486,-0.9863281,0.18261719,-0.064941406,-1.5869141,1.0375977,-0.91552734,0.0,0.0,0.0,110.23132,78.33801,-172.25464
1769245199575,-0.98535156,0.18408203,-0.064453125,-1.5258789,1.2207031,-0.79345703,0.0,0.0,0.0,110.23132,78.33801,-172.25464
1769245199586,-0.98535156,0.18408203,-0.064453125,-1.5258789,1.2207031,-0.79345703,0.0,0.0,0.0,110.59387,78.409424,-171.91956
1769245199674,-0.9848633,0.17675781,-0.06201172,-1.5869141,1.8310547,-1.0986328,0.0,0.0,0.0,110.59387,78.409424,-171.91956
1769245199686,-0.9848633,0.17675781,-0.06201172,-1.5869141,1.8310547,-1.0986328,0.0,0.0,0.0,111.41785,78.447876,-171.18347
1769245199774,-0.98095703,0.171875,-0.064453125,-1.159668,-0.12207031,-0.48828125,0.0,0.0,0.0,111.41785,78.447876,-171.18347
1769245199786,-0.98095703,0.171875,-0.064453125,-1.159668,-0.12207031,-0.48828125,0.0,0.0,0.0,111.84082,78.51929,-170.99121
1769245199874,-0.9848633,0.1743164,-0.057617188,-3.90625,-1.159668,2.1362305,0.0,0.0,0.0,111.84082,78.51929,-170.99121
1769245199885,-0.9848633,0.1743164,-0.057617188,-3.90625,-1.159668,2.1362305,0.0,0.0,0.0,111.258545,78.513794,-171.74927
1769245199973,-0.97802734,0.18701172,-0.061523438,-7.2021484,-2.8076172,3.6621094,0.0,0.0,0.0,111.258545,78.513794,-171.74927
1769245199985,-0.97802734,0.18701172,-0.061523438,-7.2021484,-2.8076172,3.6621094,0.0,0.0,0.0,109.24255,78.32703,-173.61145
1769245200073,-0.95751953,0.17578125,-0.05029297,-6.286621,-0.48828125,3.90625,0.0,0.0,0.0,109.24255,78.32703,-173.61145
1769245200085,-0.95751953,0.17578125,-0.05029297,-6.286621,-0.48828125,3.90625,0.0,0.0,0.0,107.8363,78.063354,-174.86389
1769245200174,-0.97558594,0.1928711,-0.060058594,-7.8125,-0.6713867,4.8828125,0.0,0.0,0.0,107.8363,78.063354,-174.86389
1769245200185,-0.97558594,0.1928711,-0.060058594,-7.8125,-0.6713867,4.8828125,0.0,0.0,0.0,105.86975,77.68982,-176.55579
1769245200273,-0.9814453,0.19091797,-0.05810547,-8.972168,0.91552734,5.2490234,0.0,0.0,0.0,105.86975,77.68982,-176.55579
1769245200284,-0.9814453,0.19091797,-0.05810547,-8.972168,0.91552734,5.2490234,0.0,0.0,0.0,104.40857,77.24487,-177.77527
1769245200372,-0.99072266,0.21533203,-0.06689453,-9.521484,0.12207031,5.1879883,0.0,0.0,0.0,104.40857,77.24487,-177.77527
1769245200384,-0.99072266,0.21533203,-0.06689453,-9.521484,0.12207031,5.1879883,0.0,0.0,0.0,103.00232,76.79993,-178.96729
1769245200472,-0.9814453,0.23242188,-0.056640625,-4.0283203,0.18310547,3.1738281,0.0,0.0,0.0,103.00232,76.79993,-178.96729
1769245200484,-0.9814453,0.23242188,-0.056640625,-4.0283203,0.18310547,3.1738281,0.0,0.0,0.0,102.72766,76.4209,-179.54956
1769245200572,-0.9682617,0.23925781,-0.056152344,0.5493164,1.4648438,1.0986328,0.0,0.0,0.0,102.72766,76.4209,-179.54956
1769245200583,-0.9682617,0.23925781,-0.056152344,0.5493164,1.4648438,1.0986328,0.0,0.0,0.0,102.67273,76.19568,179.56604
1769245200672,-0.98046875,0.23828125,-0.057617188,7.6293945,0.5493164,-1.953125,0.0,0.0,0.0,102.67273,76.19568,179.56604
1769245200683,-0.98046875,0.23828125,-0.057617188,7.6293945,0.5493164,-1.953125,0.0,0.0,0.0,103.5022,76.16821,178.8739
1769245200771,-0.9794922,0.23144531,-0.047851562,13.244629,2.319336,-4.4555664,0.0,0.0,0.0,103.5022,76.16821,178.8739
1769245200783,-0.9794922,0.23144531,-0.047851562,13.244629,2.319336,-4.4555664,0.0,0.0,0.0,105.63904,76.45386,179.02771
1769245200871,-0.97802734,0.20947266,-0.076171875,17.27295,7.9956055,-6.286621,0.0,0.0,0.0,105.63904,76.45386,179.02771
1769245200882,-0.97802734,0.20947266,-0.076171875,17.27295,7.9956055,-6.286621,0.0,0.0,0.0,109.313965,76.81641,-179.3518
1769245200971,-0.97802734,0.20410156,-0.079589844,17.700195,6.3476562,-4.8217773,0.0,0.0,0.0,109.313965,76.81641,-179.3518
1769245200982,-0.97802734,0.20410156,-0.079589844,17.700195,6.3476562,-4.8217773,0.0,0.0,0.0,115.31799,77.00867,-175.22644
1769245201070,-0.9814453,0.18701172,-0.09716797,11.71875,3.0517578,-0.7324219,0.0,0.0,0.0,115.31799,77.00867,-175.22644
1769245201082,-0.9814453,0.18701172,-0.09716797,11.71875,3.0517578,-0.7324219,0.0,0.0,0.0,118.59741,77.08557,-173.34229
1769245201170,-0.9711914,0.18945312,-0.09472656,8.7890625,0.6713867,1.2207031,0.0,0.0,0.0,118.59741,77.08557,-173.34229
1769245201182,-0.9711914,0.18945312,-0.09472656,8.7890625,0.6713867,1.2207031,0.0,0.0,0.0,120.36621,77.01416,-172.2876
1769245201270,-0.95751953,0.2006836,-0.078125,5.7373047,-4.5166016,3.2348633,0.0,0.0,0.0,120.36621,77.01416,-172.2876
1769245201281,-0.95751953,0.2006836,-0.078125,5.7373047,-4.5166016,3.2348633,0.0,0.0,0.0,120.19592,76.8988,-172.61719
1769245201370,-0.98535156,0.19384766,-0.095214844,2.0141602,-2.8076172,3.3569336,0.0,0.0,0.0,120.19592,76.8988,-172.61719
1769245201381,-0.98535156,0.19384766,-0.095214844,2.0141602,-2.8076172,3.3569336,0.0,0.0,0.0,117.91626,76.78345,-174.54529
1769245201470,-0.9746094,0.21923828,-0.10498047,-2.6855469,-3.6010742,4.272461,0.0,0.0,0.0,117.91626,76.78345,-174.54529
1769245201481,-0.9746094,0.21923828,-0.10498047,-2.6855469,-3.6010742,4.272461,0.0,0.0,0.0,115.91675,76.58569,-175.79224
1769245201569,-0.9638672,0.2241211,-0.080566406,-2.8686523,0.0,2.8076172,0.0,0.0,0.0,115.91675,76.58569,-175.79224
1769245201581,-0.9638672,0.2241211,-0.080566406,-2.8686523,0.0,2.8076172,0.0,0.0,0.0,114.818115,76.30554,-176.14929
1769245201669,-0.9741211,0.22851562,-0.1015625,-2.6855469,-0.5493164,1.159668,0.0,0.0,0.0,114.818115,76.30554,-176.14929
1769245201680,-0.9741211,0.22851562,-0.1015625,-2.6855469,-0.5493164,1.159668,0.0,0.0,0.0,113.96118,76.12427,-176.3031
1769245201768,-0.9692383,0.2397461,-0.09716797,0.12207031,-3.4179688,-0.12207031,0.0,0.0,0.0,113.96118,76.12427,-176.3031
1769245201780,-0.9692383,0.2397461,-0.09716797,0.12207031,-3.4179688,-0.12207031,0.0,0.0,0.0,112.61536,76.069336,-177.05566
1769245201868,-0.9663086,0.2548828,-0.072265625,7.2021484,-6.4697266,-2.5024414,0.0,0.0,0.0,112.61536,76.069336,-177.05566
1769245201880,-0.9663086,0.2548828,-0.072265625,7.2021484,-6.4697266,-2.5024414,0.0,0.0,0.0,110.632324,76.37146,-179.25842
1769245201968,-0.95410156,0.2919922,-0.080566406,13.366699,-5.065918,-5.92041,0.0,0.0,0.0,110.632324,76.37146,-179.25842
1769245201980,-0.95410156,0.2919922,-0.080566406,13.366699,-5.065918,-5.92041,0.0,0.0,0.0,110.8905,76.728516,-179.60999
1769245202068,-0.9536133,0.24072266,-0.06689453,15.625,-4.333496,0.8544922,0.0,0.0,0.0,110.8905,76.728516,-179.60999
1769245202079,-0.9536133,0.24072266,-0.06689453,15.625,-4.333496,0.8544922,0.0,0.0,0.0,110.55542,76.70654,178.69812
1769245202167,-0.97265625,0.23486328,-0.08935547,6.5307617,0.12207031,1.4038086,0.0,0.0,0.0,110.55542,76.70654,178.69812
1769245202179,-0.97265625,0.23486328,-0.08935547,6.5307617,0.12207031,1.4038086,0.0,0.0,0.0,110.615845,76.552734,178.26416
1769245202267,-0.98779297,0.19580078,-0.071777344,1.8310547,-1.4648438,0.61035156,0.0,0.0,0.0,110.615845,76.552734,178.26416
1769245202278,-0.98779297,0.19580078,-0.071777344,1.8310547,-1.4648438,0.61035156,0.0,0.0,0.0,110.9729,76.398926,178.84094
1769245202367,-0.9716797,0.20654297,-0.06738281,-2.9296875,-2.746582,0.30517578,0.0,0.0,0.0,110.9729,76.398926,178.84094
1769245202378,-0.9716797,0.20654297,-0.06738281,-2.9296875,-2.746582,0.30517578,0.0,0.0,0.0,109.923706,76.50879,178.69812
1769245202466,-0.97509766,0.20800781,-0.049804688,-5.6762695,-1.953125,0.8544922,0.0,0.0,0.0,109.923706,76.50879,178.69812
1769245202478,-0.97509766,0.20800781,-0.049804688,-5.6762695,-1.953125,0.8544922,0.0,0.0,0.0,108.69324,76.4978,179.0332
1769245202566,-0.98095703,0.21289062,-0.049804688,-7.873535,-2.380371,1.4038086,0.0,0.0,0.0,108.69324,76.4978,179.0332
1769245202578,-0.98095703,0.21289062,-0.049804688,-7.873535,-2.380371,1.4038086,0.0,0.0,0.0,106.77612,76.448364,178.69263
1769245202666,-0.96533203,0.22216797,-0.033203125,-8.239746,-3.540039,1.159668,0.0,0.0,0.0,106.77612,76.448364,178.69263
1769245202678,-0.96533203,0.22216797,-0.033203125,-8.239746,-3.540039,1.159668,0.0,0.0,0.0,104.74365,76.45386,178.13232
1769245202766,-0.97021484,0.22314453,-0.03857422,-8.361816,0.61035156,0.36621094,0.0,0.0,0.0,104.74365,76.45386,178.13232
1769245202777,-0.97021484,0.22314453,-0.03857422,-8.361816,0.61035156,0.36621094,0.0,0.0,0.0,103.06824,76.38794,177.87964
1769245202865,-0.9716797,0.2211914,-0.033691406,-7.5683594,0.91552734,0.24414062,0.0,0.0,0.0,103.06824,76.38794,177.87964
1769245202877,-0.9716797,0.2211914,-0.033691406,-7.5683594,0.91552734,0.24414062,0.0,0.0,0.0,101.77185,76.311035,177.80273
1769245202965,-0.9638672,0.21728516,-0.022460938,-8.605957,1.0986328,-0.24414062,0.0,0.0,0.0,101.77185,76.311035,177.80273
1769245202977,-0.9638672,0.21728516,-0.022460938,-8.605957,1.0986328,-0.24414062,0.0,0.0,0.0,100.93689,76.32202,177.97302
1769245203065,-0.9794922,0.20947266,-0.025878906,-8.239746,0.9765625,0.0,0.0,0.0,0.0,100.93689,76.32202,177.97302
1769245203076,-0.9794922,0.20947266,-0.025878906,-8.239746,0.9765625,0.0,0.0,0.0,0.0,99.662476,76.32202,177.58301
1769245203164,-0.99365234,0.21142578,-0.03955078,-6.8359375,-0.91552734,0.0,0.0,0.0,0.0,99.662476,76.32202,177.58301
1769245203176,-0.99365234,0.21142578,-0.03955078,-6.8359375,-0.91552734,0.0,0.0,0.0,0.0,98.794556,76.35498,177.3468
1769245203264,-0.9848633,0.21386719,-0.032226562,-1.4648438,1.5258789,-2.0751953,0.0,0.0,0.0,98.794556,76.35498,177.3468
1769245203276,-0.9848633,0.21386719,-0.032226562,-1.4648438,1.5258789,-2.0751953,0.0,0.0,0.0,98.6792,76.56372,177.35779
1769245203364,-0.98046875,0.20117188,-0.032714844,0.30517578,-0.7324219,-2.9296875,0.0,0.0,0.0,98.6792,76.56372,177.35779
1769245203376,-0.98046875,0.20117188,-0.032714844,0.30517578,-0.7324219,-2.9296875,0.0,0.0,0.0,99.02527,76.8219,177.37427
1769245203464,-0.9736328,0.20263672,-0.028320312,4.699707,4.8828125,-5.6152344,0.0,0.0,0.0,99.02527,76.8219,177.37427
1769245203475,-0.9736328,0.20263672,-0.028320312,4.699707,4.8828125,-5.6152344,0.0,0.0,0.0,100.50293,77.299805,178.21472
1769245203563,-0.9794922,0.18457031,-0.0234375,6.591797,2.380371,-5.065918,0.0,0.0,0.0,100.50293,77.299805,178.21472
1769245203575,-0.9794922,0.18457031,-0.0234375,6.591797,2.380371,-5.065918,0.0,0.0,0.0,103.39783,77.79419,-179.61548
1769245203663,-0.97802734,0.1928711,-0.040039062,1.4648438,1.7089844,-4.0893555,0.0,0.0,0.0,103.39783,77.79419,-179.61548
1769245203675,-0.97802734,0.1928711,-0.040039062,1.4648438,1.7089844,-4.0893555,0.0,0.0,0.0,104.56238,78.24463,-178.7915
1769245203763,-0.9902344,0.1640625,-0.032714844,-0.24414062,0.6713867,-3.4179688,0.0,0.0,0.0,104.56238,78.24463,-178.7915
1769245203774,-0.9902344,0.1640625,-0.032714844,-0.24414062,0.6713867,-3.4179688,0.0,0.0,0.0,105.35889,78.59619,-178.15979
1769245203862,-0.98095703,0.15771484,-0.036132812,-5.493164,2.6855469,-3.6010742,0.0,0.0,0.0,105.35889,78.59619,-178.15979
1769245203874,-0.98095703,0.15771484,-0.036132812,-5.493164,2.6855469,-3.6010742,0.0,0.0,0.0,105.90271,78.947754,-177.22595
1769245203962,-1.0043945,0.14257812,-0.04345703,-9.521484,4.3945312,-6.286621,0.0,0.0,0.0,105.90271,78.947754,-177.22595
1769245203974,-1.0043945,0.14257812,-0.04345703,-9.521484,4.3945312,-6.286621,0.0,0.0,0.0,107.265015,79.37622,-174.97375
1769245204062,-0.9741211,0.15429688,-0.044921875,-8.178711,3.2958984,-8.056641,0.0,0.0,0.0,107.265015,79.37622,-174.97375
1769245204073,-0.9741211,0.15429688,-0.044921875,-8.178711,3.2958984,-8.056641,0.0,0.0,0.0,109.61609,80.02991,-171.73279
1769245204162,-0.98046875,0.1459961,-0.049804688,-18.432617,-19.104004,0.79345703,0.0,0.0,0.0,109.61609,80.02991,-171.73279
1769245204173,-0.98046875,0.1459961,-0.049804688,-18.432617,-19.104004,0.79345703,0.0,0.0,0.0,104.089966,80.66162,-176.89636
1769245204261,-0.9790039,0.15185547,-0.009277344,-6.3476562,1.8920898,-1.0986328,0.0,0.0,0.0,104.089966,80.66162,-176.89636
1769245204273,-0.9790039,0.15185547,-0.009277344,-6.3476562,1.8920898,-1.0986328,0.0,0.0,0.0,102.76062,80.86487,-178.1488
1769245204361,-0.98779297,0.140625,-0.03466797,-2.1362305,1.0986328,2.0141602,0.0,0.0,0.0,102.76062,80.86487,-178.1488
1769245204373,-0.98779297,0.140625,-0.03466797,-2.1362305,1.0986328,2.0141602,0.0,0.0,0.0,102.8595,80.77698,-178.68164
1769245204461,-0.9951172,0.1484375,-0.034179688,-2.1972656,0.24414062,5.432129,0.0,0.0,0.0,102.8595,80.77698,-178.68164
1769245204473,-0.9951172,0.1484375,-0.034179688,-2.1972656,0.24414062,5.432129,0.0,0.0,0.0,102.420044,80.48035,-179.87915
1769245204561,-0.9995117,0.14013672,-0.049804688,2.2583008,1.7089844,6.958008,0.0,0.0,0.0,102.420044,80.48035,-179.87915
1769245204572,-0.9995117,0.14013672,-0.049804688,2.2583008,1.7089844,6.958008,0.0,0.0,0.0,102.38159,79.83765,179.21997
1769245204660,-0.9975586,0.123046875,-0.036132812,7.080078,-1.2207031,6.7749023,0.0,0.0,0.0,102.38159,79.83765,179.21997
1769245204672,-0.9975586,0.123046875,-0.036132812,7.080078,-1.2207031,6.7749023,0.0,0.0,0.0,102.41455,79.24988,178.09387
1769245204760,-1.012207,0.14404297,-0.04248047,10.559082,3.8452148,3.8452148,0.0,0.0,0.0,102.41455,79.24988,178.09387
1769245204772,-1.012207,0.14404297,-0.04248047,10.559082,3.8452148,3.8452148,0.0,0.0,0.0,103.76587,78.931274,178.30261
1769245204860,-0.9658203,0.26611328,-0.027832031,10.375977,0.6713867,10.070801,0.0,0.0,0.0,103.76587,78.931274,178.30261
1769245204872,-0.9658203,0.26611328,-0.027832031,10.375977,0.6713867,10.070801,0.0,0.0,0.0,105.408325,78.48633,179.15405
1769245204959,-1.0063477,0.18652344,-0.03173828,1.7700195,-0.24414062,2.380371,0.0,0.0,0.0,105.408325,78.48633,179.15405
1769245204971,-1.0063477,0.18652344,-0.03173828,1.7700195,-0.24414062,2.380371,0.0,0.0,0.0,103.9032,77.77771,176.80298
1769245205059,-0.9453125,0.24267578,-0.053710938,6.4697266,-8.7890625,4.333496,0.0,0.0,0.0,103.9032,77.77771,176.80298
1769245205072,-0.9453125,0.24267578,-0.053710938,6.4697266,-8.7890625,4.333496,0.0,0.0,0.0,101.14014,77.56348,173.39172
1769245205159,-0.9873047,0.2446289,-0.036621094,12.939453,-5.126953,-0.79345703,0.0,0.0,0.0,101.14014,77.56348,173.39172
1769245205170,-0.9873047,0.2446289,-0.036621094,12.939453,-5.126953,-0.79345703,0.0,0.0,0.0,99.228516,77.32178,170.1178
1769245205259,-0.97509766,0.22998047,-0.033203125,16.906738,-4.211426,-4.699707,0.0,0.0,0.0,99.228516,77.32178,170.1178
1769245205270,-0.97509766,0.22998047,-0.033203125,16.906738,-4.211426,-4.699707,0.0,0.0,0.0,98.58032,77.57446,167.80518
1769245205358,-0.96435547,0.21533203,-0.03515625,22.094727,-2.6855469,-8.178711,0.0,0.0,0.0,98.58032,77.57446,167.80518
1769245205370,-0.96435547,0.21533203,-0.03515625,22.094727,-2.6855469,-8.178711,0.0,0.0,0.0,99.107666,78.118286,166.6571
1769245205458,-0.9790039,0.1928711,-0.03955078,25.57373,-3.0517578,-9.70459,0.0,0.0,0.0,99.107666,78.118286,166.6571
1769245205469,-0.9790039,0.1928711,-0.03955078,25.57373,-3.0517578,-9.70459,0.0,0.0,0.0,101.06323,78.96423,166.85486
1769245205558,-0.97998047,0.21777344,-0.053222656,29.785156,-3.6621094,-7.1411133,0.0,0.0,0.0,101.06323,78.96423,166.85486
1769245205569,-0.97998047,0.21777344,-0.053222656,29.785156,-3.6621094,-7.1411133,0.0,0.0,0.0,103.18359,79.77173,167.40967
1769245205657,-0.9951172,0.20605469,-0.06298828,42.419434,-4.0283203,-5.2490234,0.0,0.0,0.0,103.18359,79.77173,167.40967
1769245205669,-0.9951172,0.20605469,-0.06298828,42.419434,-4.0283203,-5.2490234,0.0,0.0,0.0,105.24902,80.31555,167.4646
1769245205757,-0.98535156,0.20654297,-0.063964844,47.851562,-5.1879883,-0.8544922,0.0,0.0,0.0,105.24902,80.31555,167.4646
1769245205769,-0.98535156,0.20654297,-0.063964844,47.851562,-5.1879883,-0.8544922,0.0,0.0,0.0,107.78137,80.57373,167.6294
1769245205857,-0.9819336,0.18017578,-0.03857422,44.98291,-2.9296875,4.8828125,0.0,0.0,0.0,107.78137,80.57373,167.6294
1769245205869,-0.9819336,0.18017578,-0.03857422,44.98291,-2.9296875,4.8828125,0.0,0.0,0.0,109.852295,80.36499,167.57996
1769245205957,-0.98779297,0.17041016,-0.048828125,32.836914,0.61035156,7.9345703,0.0,0.0,0.0,109.852295,80.36499,167.57996
1769245205968,-0.98779297,0.17041016,-0.048828125,32.836914,0.61035156,7.9345703,0.0,0.0,0.0,111.73096,79.661865,168.57971
1769245206056,-0.9863281,0.17382812,-0.06347656,12.268066,3.2348633,9.887695,0.0,0.0,0.0,111.73096,79.661865,168.57971
1769245206068,-0.9863281,0.17382812,-0.06347656,12.268066,3.2348633,9.887695,0.0,0.0,0.0,112.664795,78.73901,170.48584
1769245206156,-0.984375,0.1875,-0.06347656,-7.2631836,6.652832,11.169434,0.0,0.0,0.0,112.664795,78.73901,170.48584
1769245206168,-0.984375,0.1875,-0.06347656,-7.2631836,6.652832,11.169434,0.0,0.0,0.0,112.99988,77.612915,173.79272
1769245206256,-0.97802734,0.23046875,-0.09082031,-13.061523,5.92041,6.652832,0.0,0.0,0.0,112.99988,77.612915,173.79272
1769245206267,-0.97802734,0.23046875,-0.09082031,-13.061523,5.92041,6.652832,0.0,0.0,0.0,112.82959,76.59119,177.80823
1769245206356,-0.9736328,0.24609375,-0.09326172,-19.714355,5.3100586,2.1972656,0.0,0.0,0.0,112.82959,76.59119,177.80823
1769245206367,-0.9736328,0.24609375,-0.09326172,-19.714355,5.3100586,2.1972656,0.0,0.0,0.0,112.368164,76.0199,-178.0719
1769245206455,-0.97509766,0.24853516,-0.09814453,-20.751953,6.225586,-2.9296875,0.0,0.0,0.0,112.368164,76.0199,-178.0719
1769245206467,-0.97509766,0.24853516,-0.09814453,-20.751953,6.225586,-2.9296875,0.0,0.0,0.0,112.62085,75.860596,-173.3313
1769245206555,-0.9746094,0.2446289,-0.09082031,-16.357422,7.019043,-5.92041,0.0,0.0,0.0,112.62085,75.860596,-173.3313
1769245206566,-0.9746094,0.2446289,-0.09082031,-16.357422,7.019043,-5.92041,0.0,0.0,0.0,114.25781,75.981445,-167.82715
1769245206655,-0.9746094,0.22509766,-0.09472656,-11.779785,4.0283203,-5.7373047,0.0,0.0,0.0,114.25781,75.981445,-167.82715
1769245206666,-0.9746094,0.22509766,-0.09472656,-11.779785,4.0283203,-5.7373047,0.0,0.0,0.0,115.40588,76.23413,-163.67432
1769245206754,-0.9746094,0.21826172,-0.09667969,-6.0424805,1.8920898,-5.7373047,0.0,0.0,0.0,115.40588,76.23413,-163.67432
1769245206766,-0.9746094,0.21826172,-0.09667969,-6.0424805,1.8920898,-5.7373047,0.0,0.0,0.0,116.50452,76.5802,-160.33447
1769245206854,-0.9760742,0.18603516,-0.09277344,-0.61035156,1.4648438,-5.554199,0.0,0.0,0.0,116.50452,76.5802,-160.33447
1769245206866,-0.9760742,0.18603516,-0.09277344,-0.61035156,1.4648438,-5.554199,0.0,0.0,0.0,117.927246,76.970215,-157.32422
1769245206954,-0.97753906,0.17773438,-0.08691406,-0.61035156,-1.7700195,-5.126953,0.0,0.0,0.0,117.927246,76.970215,-157.32422
1769245206965,-0.97753906,0.17773438,-0.08691406,-0.61035156,-1.7700195,-5.126953,0.0,0.0,0.0,118.43811,77.48657,-155.495
1769245207054,-0.9873047,0.16210938,-0.09033203,0.12207031,0.061035156,-5.79834,0.0,0.0,0.0,118.43811,77.48657,-155.495
1769245207065,-0.9873047,0.16210938,-0.09033203,0.12207031,0.061035156,-5.79834,0.0,0.0,0.0,119.487305,77.975464,-153.11646
1769245207153,-0.96777344,0.15478516,-0.0859375,-0.48828125,2.0141602,-6.1035156,0.0,0.0,0.0,119.487305,77.975464,-153.11646
1769245207165,-0.96777344,0.15478516,-0.0859375,-0.48828125,2.0141602,-6.1035156,0.0,0.0,0.0,121.10779,78.50281,-150.14465
1769245207253,-0.9814453,0.13867188,-0.09033203,-6.164551,0.4272461,-2.6245117,0.0,0.0,0.0,121.10779,78.50281,-150.14465
1769245207264,-0.9814453,0.13867188,-0.09033203,-6.164551,0.4272461,-2.6245117,0.0,0.0,0.0,122.404175,78.82141,-147.24976
1769245207353,-0.99316406,0.12695312,-0.08154297,-17.76123,-1.7700195,0.8544922,0.0,0.0,0.0,122.404175,78.82141,-147.24976
1769245207364,-0.99316406,0.12695312,-0.08154297,-17.76123,-1.7700195,0.8544922,0.0,0.0,0.0,120.651855,79.05762,-146.66199
1769245207452,-0.9819336,0.13134766,-0.06201172,-28.137207,-0.30517578,3.0517578,0.0,0.0,0.0,120.651855,79.05762,-146.66199
1769245207464,-0.9819336,0.13134766,-0.06201172,-28.137207,-0.30517578,3.0517578,0.0,0.0,0.0,117.44934,79.002686,-146.53564
1769245207552,-1.0039062,0.14160156,-0.06298828,-38.269043,-0.91552734,3.7231445,0.0,0.0,0.0,117.44934,79.002686,-146.53564
1769245207564,-1.0039062,0.14160156,-0.06298828,-38.269043,-0.91552734,3.7231445,0.0,0.0,0.0,112.92297,78.826904,-146.99158
1769245207652,-0.9902344,0.1328125,-0.020507812,-42.84668,-6.0424805,-1.7700195,0.0,0.0,0.0,112.92297,78.826904,-146.99158
1769245207663,-0.9902344,0.1328125,-0.020507812,-42.84668,-6.0424805,-1.7700195,0.0,0.0,0.0,106.99585,78.986206,-148.8263
1769245207752,-1.0063477,0.110839844,0.009765625,-46.691895,-5.004883,-8.239746,0.0,0.0,0.0,106.99585,78.986206,-148.8263
1769245207763,-1.0063477,0.110839844,0.009765625,-46.691895,-5.004883,-8.239746,0.0,0.0,0.0,100.217285,79.766235,-151.50696
1769245207851,-1.0063477,0.12695312,-0.005859375,-54.016113,-13.549805,-5.859375,0.0,0.0,0.0,100.217285,79.766235,-151.50696
1769245207863,-1.0063477,0.12695312,-0.005859375,-54.016113,-13.549805,-5.859375,0.0,0.0,0.0,88.91235,80.66162,-158.96118
1769245207951,-1.0102539,0.13916016,0.018554688,-37.17041,-0.79345703,-8.117676,0.0,0.0,0.0,88.91235,80.66162,-158.96118
1769245207963,-1.0102539,0.13916016,0.018554688,-37.17041,-0.79345703,-8.117676,0.0,0.0,0.0,81.61194,81.50757,-164.59717
1769245208051,-0.98828125,0.106933594,-0.0034179688,-17.39502,3.479004,-6.286621,0.0,0.0,0.0,81.61194,81.50757,-164.59717
1769245208062,-0.98828125,0.106933594,-0.0034179688,-17.39502,3.479004,-6.286621,0.0,0.0,0.0,79.381714,82.15027,-167.90405
1769245208150,-0.9902344,0.12939453,-0.0073242188,1.4038086,2.4414062,-2.5024414,0.0,0.0,0.0,79.381714,82.15027,-167.90405
1769245208162,-0.9902344,0.12939453,-0.0073242188,1.4038086,2.4414062,-2.5024414,0.0,0.0,0.0,81.58447,82.67212,-168.96973
1769245208250,-0.99072266,0.14013672,-0.0014648438,18.676758,0.48828125,0.6713867,0.0,0.0,0.0,81.58447,82.67212,-168.96973
1769245208262,-0.99072266,0.14013672,-0.0014648438,18.676758,0.48828125,0.6713867,0.0,0.0,0.0,84.75952,82.732544,-170.80444
1769245208350,-0.9838867,0.14355469,-9.765625E-4,32.714844,-0.4272461,1.7700195,0.0,0.0,0.0,84.75952,82.732544,-170.80444
1769245208361,-0.9838867,0.14355469,-9.765625E-4,32.714844,-0.4272461,1.7700195,0.0,0.0,0.0,88.187256,82.58423,-173.6499
1769245208450,-0.9824219,0.14941406,0.029785156,40.100098,-3.540039,3.7231445,0.0,0.0,0.0,88.187256,82.58423,-173.6499
1769245208461,-0.9824219,0.14941406,0.029785156,40.100098,-3.540039,3.7231445,0.0,0.0,0.0,89.868164,82.232666,-178.65967
1769245208550,-0.98876953,0.15234375,0.033203125,38.45215,-4.211426,4.8828125,0.0,0.0,0.0,89.868164,82.232666,-178.65967
1769245208561,-0.98876953,0.15234375,0.033203125,38.45215,-4.211426,4.8828125,0.0,0.0,0.0,90.25818,81.798706,175.88562
1769245208649,-0.99609375,0.15234375,0.0234375,29.724121,-4.0283203,6.591797,0.0,0.0,0.0,90.25818,81.798706,175.88562
1769245208661,-0.99609375,0.15234375,0.0234375,29.724121,-4.0283203,6.591797,0.0,0.0,0.0,90.3186,81.221924,171.75476
1769245208749,-0.9941406,0.1616211,0.022460938,19.28711,-1.8920898,6.4697266,0.0,0.0,0.0,90.3186,81.221924,171.75476
1769245208760,-0.9941406,0.1616211,0.022460938,19.28711,-1.8920898,6.4697266,0.0,0.0,0.0,90.22522,80.57922,169.36523
1769245208848,-1.0004883,0.17480469,0.0068359375,8.056641,1.8920898,6.225586,0.0,0.0,0.0,90.22522,80.57922,169.36523
1769245208860,-1.0004883,0.17480469,0.0068359375,8.056641,1.8920898,6.225586,0.0,0.0,0.0,91.25244,79.96948,169.69482
1769245208948,-0.99365234,0.19042969,0.0043945312,-0.6713867,3.3569336,6.7749023,0.0,0.0,0.0,91.25244,79.96948,169.69482
1769245208960,-0.99365234,0.19042969,0.0043945312,-0.6713867,3.3569336,6.7749023,0.0,0.0,0.0,93.740845,79.365234,172.63916
1769245209048,-0.9897461,0.20166016,-0.0087890625,-5.3100586,2.1362305,6.4086914,0.0,0.0,0.0,93.740845,79.365234,172.63916
1769245209059,-0.9897461,0.20166016,-0.0087890625,-5.3100586,2.1362305,6.4086914,0.0,0.0,0.0,94.246216,78.68408,174.25964
1769245209148,-0.9711914,0.22314453,-0.015136719,-10.681152,6.286621,7.873535,0.0,0.0,0.0,94.246216,78.68408,174.25964
1769245209159,-0.9711914,0.22314453,-0.015136719,-10.681152,6.286621,7.873535,0.0,0.0,0.0,95.37781,77.975464,176.90186
1769245209247,-0.97265625,0.23486328,-0.010253906,-13.73291,6.7749023,9.70459,0.0,0.0,0.0,95.37781,77.975464,176.90186
1769245209259,-0.97265625,0.23486328,-0.010253906,-13.73291,6.7749023,9.70459,0.0,0.0,0.0,96.9104,77.02515,179.98901
1769245209347,-0.97509766,0.26171875,-0.022949219,-13.916016,6.0424805,9.399414,0.0,0.0,0.0,96.9104,77.02515,179.98901
1769245209359,-0.97509766,0.26171875,-0.022949219,-13.916016,6.0424805,9.399414,0.0,0.0,0.0,97.29492,75.981445,-178.18176
1769245209447,-0.95947266,0.27294922,-0.030761719,-10.681152,4.5776367,8.850098,0.0,0.0,0.0,97.29492,75.981445,-178.18176
1769245209458,-0.95947266,0.27294922,-0.030761719,-10.681152,4.5776367,8.850098,0.0,0.0,0.0,97.58057,75.009155,-176.97876
1769245209547,-0.96875,0.2890625,-0.043945312,-5.7373047,4.0283203,7.3242188,0.0,0.0,0.0,97.58057,75.009155,-176.97876
1769245209558,-0.96875,0.2890625,-0.043945312,-5.7373047,4.0283203,7.3242188,0.0,0.0,0.0,97.613525,74.09729,-176.65466
1769245209646,-0.9589844,0.296875,-0.03857422,2.1972656,2.380371,4.8828125,0.0,0.0,0.0,97.613525,74.09729,-176.65466
1769245209658,-0.9589844,0.296875,-0.03857422,2.1972656,2.380371,4.8828125,0.0,0.0,0.0,98.42102,73.410645,-176.40198
1769245209746,-0.9614258,0.3017578,-0.04345703,6.8359375,2.1972656,2.5634766,0.0,0.0,0.0,98.42102,73.410645,-176.40198
1769245209757,-0.9614258,0.3017578,-0.04345703,6.8359375,2.1972656,2.5634766,0.0,0.0,0.0,99.30542,72.960205,-176.6217
1769245209846,-0.9609375,0.2915039,-0.045410156,7.9956055,0.061035156,1.2207031,0.0,0.0,0.0,99.30542,72.960205,-176.6217
1769245209857,-0.9609375,0.2915039,-0.045410156,7.9956055,0.061035156,1.2207031,0.0,0.0,0.0,100.2832,72.751465,-177.01721
1769245209945,-0.95947266,0.29052734,-0.045410156,7.5683594,0.61035156,-0.36621094,0.0,0.0,0.0,100.2832,72.751465,-177.01721
1769245209957,-0.95947266,0.29052734,-0.045410156,7.5683594,0.61035156,-0.36621094,0.0,0.0,0.0,101.21704,72.69653,-177.25891
1769245210045,-0.96484375,0.28125,-0.055664062,6.8359375,4.760742,-3.1738281,0.0,0.0,0.0,101.21704,72.69653,-177.25891
1769245210057,-0.96484375,0.28125,-0.055664062,6.8359375,4.760742,-3.1738281,0.0,0.0,0.0,102.60132,72.81189,-176.72607
1769245210145,-0.95947266,0.28320312,-0.06640625,0.061035156,5.6762695,-1.2207031,0.0,0.0,0.0,102.60132,72.81189,-176.72607
1769245210156,-0.95947266,0.28320312,-0.06640625,0.061035156,5.6762695,-1.2207031,0.0,0.0,0.0,104.79309,72.97119,-174.9408
1769245210244,-0.9482422,0.28515625,-0.075683594,-2.0141602,3.1738281,0.18310547,0.0,0.0,0.0,104.79309,72.97119,-174.9408
1769245210256,-0.9482422,0.28515625,-0.075683594,-2.0141602,3.1738281,0.18310547,0.0,0.0,0.0,106.34216,72.91077,-173.29285
1769245210344,-0.96484375,0.27929688,-0.09082031,0.061035156,0.5493164,-0.8544922,0.0,0.0,0.0,106.34216,72.91077,-173.29285
1769245210356,-0.96484375,0.27929688,-0.09082031,0.061035156,0.5493164,-0.8544922,0.0,0.0,0.0,106.75415,72.855835,-172.74902
1769245210444,-0.96875,0.2763672,-0.09033203,-1.6479492,-2.1362305,-1.6479492,0.0,0.0,0.0,106.75415,72.855835,-172.74902
1769245210456,-0.96875,0.2763672,-0.09033203,-1.6479492,-2.1362305,-1.6479492,0.0,0.0,0.0,106.78162,73.00415,-172.72156
1769245210544,-0.96191406,0.26367188,-0.076171875,-0.91552734,-1.0986328,-3.2348633,0.0,0.0,0.0,106.78162,73.00415,-172.72156
1769245210555,-0.96191406,0.26367188,-0.076171875,-0.91552734,-1.0986328,-3.2348633,0.0,0.0,0.0,106.50696,73.322754,-172.88086
1769245210643,-0.95458984,0.27490234,-0.08105469,-1.6479492,2.0141602,-2.4414062,0.0,0.0,0.0,106.50696,73.322754,-172.88086
1769245210655,-0.95458984,0.27490234,-0.08105469,-1.6479492,2.0141602,-2.4414062,0.0,0.0,0.0,107.10022,73.55896,-172.0404
1769245210743,-0.9628906,0.28076172,-0.080566406,-1.159668,-1.5258789,-2.0141602,0.0,0.0,0.0,107.10022,73.55896,-172.0404
1769245210755,-0.9628906,0.28076172,-0.080566406,-1.159668,-1.5258789,-2.0141602,0.0,0.0,0.0,107.40784,73.71826,-171.57349
1769245210843,-0.95654297,0.2631836,-0.06591797,-0.24414062,-4.8217773,-2.9907227,0.0,0.0,0.0,107.40784,73.71826,-171.57349
1769245210854,-0.95654297,0.2631836,-0.06591797,-0.24414062,-4.8217773,-2.9907227,0.0,0.0,0.0,106.60034,74.01489,-172.4469
1769245210942,-0.9736328,0.26171875,-0.07373047,-2.8686523,-1.8310547,-4.638672,0.0,0.0,0.0,106.60034,74.01489,-172.4469
1769245210954,-0.9736328,0.26171875,-0.07373047,-2.8686523,-1.8310547,-4.638672,0.0,0.0,0.0,105.83679,74.44336,-173.01819
1769245211042,-0.9682617,0.2993164,-0.08154297,-5.7373047,0.061035156,-2.9907227,0.0,0.0,0.0,105.83679,74.44336,-173.01819
1769245211054,-0.9682617,0.2993164,-0.08154297,-5.7373047,0.061035156,-2.9907227,0.0,0.0,0.0,105.90271,74.79492,-172.70508
1769245211142,-0.96728516,0.25195312,-0.07080078,-4.272461,1.159668,-4.5776367,0.0,0.0,0.0,105.90271,74.79492,-172.70508
1769245211154,-0.96728516,0.25195312,-0.07080078,-4.272461,1.159668,-4.5776367,0.0,0.0,0.0,105.79285,75.08057,-172.85889
1769245211242,-0.9707031,0.25195312,-0.072265625,-5.3100586,0.7324219,-5.92041,0.0,0.0,0.0,105.79285,75.08057,-172.85889
1769245211253,-0.9707031,0.25195312,-0.072265625,-5.3100586,0.7324219,-5.92041,0.0,0.0,0.0,106.35864,75.49805,-172.02942
1769245211341,-0.96533203,0.2680664,-0.0625,-4.0893555,-2.4414062,-1.3427734,0.0,0.0,0.0,106.35864,75.49805,-172.02942
1769245211353,-0.96533203,0.2680664,-0.0625,-4.0893555,-2.4414062,-1.3427734,0.0,0.0,0.0,105.95764,75.739746,-172.32056
1769245211441,-0.9711914,0.23388672,-0.045410156,-3.2958984,-3.1738281,-0.48828125,0.0,0.0,0.0,105.95764,75.739746,-172.32056
1769245211453,-0.9711914,0.23388672,-0.045410156,-3.2958984,-3.1738281,-0.48828125,0.0,0.0,0.0,104.902954,75.82764,-173.62244
1769245211541,-0.9760742,0.2211914,-0.028808594,0.12207031,-2.8076172,-4.8217773,0.0,0.0,0.0,104.902954,75.82764,-173.62244
1769245211552,-0.9760742,0.2211914,-0.028808594,0.12207031,-2.8076172,-4.8217773,0.0,0.0,0.0,104.08447,76.190186,-174.67163
1769245211640,-0.9873047,0.20214844,-0.034179688,2.4414062,-1.4038086,-6.8359375,0.0,0.0,0.0,104.08447,76.190186,-174.67163
1769245211652,-0.9873047,0.20214844,-0.034179688,2.4414062,-1.4038086,-6.8359375,0.0,0.0,0.0,103.287964,76.79443,-175.64392
1769245211740,-0.98828125,0.18847656,-0.0390625,0.5493164,1.159668,-7.019043,0.0,0.0,0.0,103.287964,76.79443,-175.64392
1769245211752,-0.98828125,0.18847656,-0.0390625,0.5493164,1.159668,-7.019043,0.0,0.0,0.0,104.15039,77.49756,-174.92432
1769245211840,-0.99121094,0.17480469,-0.05126953,1.4648438,0.61035156,-4.272461,0.0,0.0,0.0,104.15039,77.49756,-174.92432
1769245211851,-0.99121094,0.17480469,-0.05126953,1.4648438,0.61035156,-4.272461,0.0,0.0,0.0,105.20508,78.0249,-173.86963
1769245211940,-0.97753906,0.1743164,-0.041015625,-1.3427734,2.319336,-2.319336,0.0,0.0,0.0,105.20508,78.0249,-173.86963
1769245211951,-0.97753906,0.1743164,-0.041015625,-1.3427734,2.319336,-2.319336,0.0,0.0,0.0,106.64429,78.37097,-172.19421
1769245212039,-0.97802734,0.17822266,-0.043945312,-3.7841797,0.36621094,1.0375977,0.0,0.0,0.0,106.64429,78.37097,-172.19421
1769245212051,-0.97802734,0.17822266,-0.043945312,-3.7841797,0.36621094,1.0375977,0.0,0.0,0.0,106.76514,78.38745,-171.53503
1769245212139,-0.9814453,0.18017578,-0.047851562,-4.0893555,0.36621094,2.1362305,0.0,0.0,0.0,106.76514,78.38745,-171.53503
1769245212150,-0.9814453,0.18017578,-0.047851562,-4.0893555,0.36621094,2.1362305,0.0,0.0,0.0,106.16089,78.28308,-171.67786
1769245212239,-0.9770508,0.1821289,-0.04638672,-4.4555664,1.2207031,2.1972656,0.0,0.0,0.0,106.16089,78.28308,-171.67786
1769245212250,-0.9770508,0.1821289,-0.04638672,-4.4555664,1.2207031,2.1972656,0.0,0.0,0.0,106.00159,78.1073,-171.4032
1769245212338,-0.9814453,0.18847656,-0.055664062,-3.3569336,1.7089844,1.159668,0.0,0.0,0.0,106.00159,78.1073,-171.4032
1769245212350,-0.9814453,0.18847656,-0.055664062,-3.3569336,1.7089844,1.159668,0.0,0.0,0.0,105.96863,77.96448,-171.09558
1769245212438,-0.97558594,0.18457031,-0.052734375,-4.0283203,2.746582,1.5258789,0.0,0.0,0.0,105.96863,77.96448,-171.09558
1769245212450,-0.97558594,0.18457031,-0.052734375,-4.0283203,2.746582,1.5258789,0.0,0.0,0.0,106.43005,77.82715,-170.36499
1769245212538,-0.9819336,0.18652344,-0.05517578,-5.432129,4.272461,2.0141602,0.0,0.0,0.0,106.43005,77.82715,-170.36499
1769245212549,-0.9819336,0.18652344,-0.05517578,-5.432129,4.272461,2.0141602,0.0,0.0,0.0,107.20459,77.59094,-169.23889
1769245212638,-0.98339844,0.18652344,-0.07128906,-8.300781,7.873535,0.6713867,0.0,0.0,0.0,107.20459,77.59094,-169.23889
1769245212649,-0.98339844,0.18652344,-0.07128906,-8.300781,7.873535,0.6713867,0.0,0.0,0.0,109.017334,77.32727,-166.93726
1769245212737,-0.984375,0.1953125,-0.07470703,-9.643555,8.361816,2.1362305,0.0,0.0,0.0,109.017334,77.32727,-166.93726
1769245212750,-0.984375,0.1953125,-0.07470703,-9.643555,8.361816,2.1362305,0.0,0.0,0.0,111.25305,77.03064,-164.1687
1769245212837,-0.97509766,0.20507812,-0.080078125,-9.82666,2.6855469,1.953125,0.0,0.0,0.0,111.25305,77.03064,-164.1687
1769245212849,-0.97509766,0.20507812,-0.080078125,-9.82666,2.6855469,1.953125,0.0,0.0,0.0,112.60986,76.673584,-162.29553
1769245212937,-0.98339844,0.19873047,-0.07714844,-9.643555,-1.159668,1.4648438,0.0,0.0,0.0,112.60986,76.673584,-162.29553
1769245212948,-0.98339844,0.19873047,-0.07714844,-9.643555,-1.159668,1.4648438,0.0,0.0,0.0,111.49475,76.55823,-163.16895
1769245213036,-0.97753906,0.21484375,-0.07373047,-8.972168,-1.953125,1.3427734,0.0,0.0,0.0,111.49475,76.55823,-163.16895
1769245213048,-0.97753906,0.21484375,-0.07373047,-8.972168,-1.953125,1.3427734,0.0,0.0,0.0,110.02258,76.54175,-164.59717
1769245213136,-0.97998047,0.2133789,-0.07421875,-5.432129,-1.953125,0.61035156,0.0,0.0,0.0,110.02258,76.54175,-164.59717
1769245213148,-0.97998047,0.2133789,-0.07421875,-5.432129,-1.953125,0.61035156,0.0,0.0,0.0,108.358154,76.53076,-166.59668
1769245213236,-0.9794922,0.21386719,-0.067871094,-1.5258789,-2.0751953,-0.24414062,0.0,0.0,0.0,108.358154,76.53076,-166.59668
1769245213247,-0.9794922,0.21386719,-0.067871094,-1.5258789,-2.0751953,-0.24414062,0.0,0.0,0.0,107.23755,76.59119,-168.48633
1769245213336,-0.9873047,0.20751953,-0.068847656,4.5776367,-1.2817383,-2.1362305,0.0,0.0,0.0,107.23755,76.59119,-168.48633
1769245213347,-0.9873047,0.20751953,-0.068847656,4.5776367,-1.2817383,-2.1362305,0.0,0.0,0.0,107.01233,76.728516,-169.98047
1769245213435,-0.99072266,0.19677734,-0.06982422,4.638672,0.4272461,-1.7700195,0.0,0.0,0.0,107.01233,76.728516,-169.98047
1769245213447,-0.99072266,0.19677734,-0.06982422,4.638672,0.4272461,-1.7700195,0.0,0.0,0.0,107.79785,76.937256,-170.6726
1769245213535,-0.99121094,0.19726562,-0.07714844,6.286621,2.6855469,-3.112793,0.0,0.0,0.0,107.79785,76.937256,-170.6726
1769245213547,-0.99121094,0.19726562,-0.07714844,6.286621,2.6855469,-3.112793,0.0,0.0,0.0,109.48425,77.15698,-170.354
1769245213635,-0.98779297,0.18798828,-0.07861328,5.3710938,2.9296875,-3.3569336,0.0,0.0,0.0,109.48425,77.15698,-170.354
1769245213647,-0.98779297,0.18798828,-0.07861328,5.3710938,2.9296875,-3.3569336,0.0,0.0,0.0,111.62659,77.39319,-169.36523
1769245213734,-0.97509766,0.18554688,-0.064453125,4.5166016,-1.3427734,-4.333496,0.0,0.0,0.0,111.62659,77.39319,-169.36523
1769245213746,-0.97509766,0.18554688,-0.064453125,4.5166016,-1.3427734,-4.333496,0.0,0.0,0.0,113.03284,77.72278,-168.81592
1769245213834,-0.95996094,0.2006836,-0.045410156,-0.18310547,-4.333496,-2.9907227,0.0,0.0,0.0,113.03284,77.72278,-168.81592
1769245213846,-0.95996094,0.2006836,-0.045410156,-0.18310547,-4.333496,-2.9907227,0.0,0.0,0.0,112.01111,78.27759,-170.49683
1769245213934,-0.98535156,0.19921875,-0.06201172,-0.8544922,-2.319336,-0.36621094,0.0,0.0,0.0,112.01111,78.27759,-170.49683
1769245213946,-0.98535156,0.19921875,-0.06201172,-0.8544922,-2.319336,-0.36621094,0.0,0.0,0.0,110.13245,78.54126,-172.86987
1769245214034,-0.9824219,0.19433594,-0.064941406,0.48828125,-0.6713867,0.18310547,0.0,0.0,0.0,110.13245,78.54126,-172.86987
1769245214045,-0.9824219,0.19433594,-0.064941406,0.48828125,-0.6713867,0.18310547,0.0,0.0,0.0,108.97888,78.56323,-174.54529
1769245214133,-0.9863281,0.19140625,-0.07128906,-0.48828125,1.0375977,0.36621094,0.0,0.0,0.0,108.97888,78.56323,-174.54529
1769245214145,-0.9863281,0.19140625,-0.07128906,-0.48828125,1.0375977,0.36621094,0.0,0.0,0.0,109.34143,78.47534,-174.6936
1769245214233,-0.9814453,0.19726562,-0.06347656,1.5869141,-0.4272461,-0.24414062,0.0,0.0,0.0,109.34143,78.47534,-174.6936
1769245214244,-0.9814453,0.19726562,-0.06347656,1.5869141,-0.4272461,-0.24414062,0.0,0.0,0.0,109.46228,78.44238,-175.0946
1769245214333,-0.9736328,0.18554688,-0.049316406,2.1362305,0.79345703,-0.91552734,0.0,0.0,0.0,109.46228,78.44238,-175.0946
1769245214344,-0.9736328,0.18554688,-0.049316406,2.1362305,0.79345703,-0.91552734,0.0,0.0,0.0,110.43457,78.447876,-174.80347
1769245214432,-0.9848633,0.1850586,-0.0546875,-0.6713867,-1.7700195,0.6713867,0.0,0.0,0.0,110.43457,78.447876,-174.80347
1769245214444,-0.9848633,0.1850586,-0.0546875,-0.6713867,-1.7700195,0.6713867,0.0,0.0,0.0,110.28076,78.480835,-175.31982
1769245214532,-0.98779297,0.18701172,-0.060546875,-1.0375977,0.6713867,-0.4272461,0.0,0.0,0.0,110.28076,78.480835,-175.31982
1769245214543,-0.98779297,0.18701172,-0.060546875,-1.0375977,0.6713867,-0.4272461,0.0,0.0,0.0,109.47876,78.47534,-176.2262
1769245214632,-0.9838867,0.18164062,-0.064453125,-2.1972656,2.9296875,-0.91552734,0.0,0.0,0.0,109.47876,78.47534,-176.2262
1769245214643,-0.9838867,0.18164062,-0.064453125,-2.1972656,2.9296875,-0.91552734,0.0,0.0,0.0,109.98413,78.47534,-175.7428
1769245214732,-0.98535156,0.18115234,-0.06689453,-3.112793,-0.79345703,-0.12207031,0.0,0.0,0.0,109.98413,78.47534,-175.7428
1769245214743,-0.98535156,0.18115234,-0.06689453,-3.112793,-0.79345703,-0.12207031,0.0,0.0,0.0,110.148926,78.48633,-175.50659
1769245214831,-0.9814453,0.18896484,-0.05126953,-2.9296875,0.48828125,0.18310547,0.0,0.0,0.0,110.148926,78.48633,-175.50659
1769245214843,-0.9814453,0.18896484,-0.05126953,-2.9296875,0.48828125,0.18310547,0.0,0.0,0.0,110.28076,78.513794,-175.40222
1769245214931,-0.984375,0.1796875,-0.06738281,-2.9296875,0.4272461,0.0,0.0,0.0,0.0,110.28076,78.513794,-175.40222
1769245214943,-0.984375,0.1796875,-0.06738281,-2.9296875,0.4272461,0.0,0.0,0.0,0.0,109.80835,78.5083,-175.91858
1769245215031,-0.99072266,0.18603516,-0.061035156,-3.2348633,-2.9296875,0.18310547,0.0,0.0,0.0,109.80835,78.5083,-175.91858
1769245215042,-0.99072266,0.18603516,-0.061035156,-3.2348633,-2.9296875,0.18310547,0.0,0.0,0.0,109.48425,78.57971,-176.42944
1769245215130,-0.98583984,0.18359375,-0.057128906,-1.2817383,-0.061035156,-0.61035156,0.0,0.0,0.0,109.48425,78.57971,-176.42944
1769245215142,-0.98583984,0.18359375,-0.057128906,-1.2817383,-0.061035156,-0.61035156,0.0,0.0,0.0,109.67102,78.618164,-176.45691
1769245215230,-0.9790039,0.17675781,-0.055664062,-0.6713867,-1.8920898,-0.5493164,0.0,0.0,0.0,109.67102,78.618164,-176.45691
1769245215242,-0.9790039,0.17675781,-0.055664062,-0.6713867,-1.8920898,-0.5493164,0.0,0.0,0.0,108.95691,78.71704,-177.49512
1769245215330,-0.984375,0.18164062,-0.05859375,0.0,-1.6479492,-0.91552734,0.0,0.0,0.0,108.95691,78.71704,-177.49512
1769245215341,-0.984375,0.18164062,-0.05859375,0.0,-1.6479492,-0.91552734,0.0,0.0,0.0,108.42407,78.84888,-178.33008
1769245215430,-0.97509766,0.1796875,-0.048828125,0.061035156,-2.9296875,-0.6713867,0.0,0.0,0.0,108.42407,78.84888,-178.33008
1769245215441,-0.97509766,0.1796875,-0.048828125,0.061035156,-2.9296875,-0.6713867,0.0,0.0,0.0,107.21008,79.002686,-179.97253
1769245215529,-0.98583984,0.17578125,-0.04638672,0.7324219,-2.380371,-0.8544922,0.0,0.0,0.0,107.21008,79.002686,-179.97253
1769245215541,-0.98583984,0.17578125,-0.04638672,0.7324219,-2.380371,-0.8544922,0.0,0.0,0.0,105.68848,79.140015,178.01697
1769245215630,-0.9848633,0.17773438,-0.033691406,1.7700195,-1.953125,-0.30517578,0.0,0.0,0.0,105.68848,79.140015,178.01697
1769245215641,-0.9848633,0.17773438,-0.033691406,1.7700195,-1.953125,-0.30517578,0.0,0.0,0.0,105.15564,79.24988,177.00073
1769245215729,-0.9868164,0.1772461,-0.033691406,1.3427734,-0.79345703,0.36621094,0.0,0.0,0.0,105.15564,79.24988,177.00073
1769245215740,-0.9868164,0.1772461,-0.033691406,1.3427734,-0.79345703,0.36621094,0.0,0.0,0.0,104.84253,79.28284,176.27563
1769245215828,-0.9790039,0.17871094,-0.02734375,1.0986328,0.61035156,0.61035156,0.0,0.0,0.0,104.84253,79.28284,176.27563
1769245215840,-0.9790039,0.17871094,-0.02734375,1.0986328,0.61035156,0.61035156,0.0,0.0,0.0,104.837036,79.23889,175.92407
1769245215928,-0.9819336,0.18066406,-0.037109375,0.12207031,0.8544922,0.8544922,0.0,0.0,0.0,104.837036,79.23889,175.92407
1769245215940,-0.9819336,0.18066406,-0.037109375,0.12207031,0.8544922,0.8544922,0.0,0.0,0.0,104.452515,79.123535,175.35828
1769245216028,-0.9902344,0.18115234,-0.03564453,-0.9765625,2.2583008,0.30517578,0.0,0.0,0.0,104.452515,79.123535,175.35828
1769245216039,-0.9902344,0.18115234,-0.03564453,-0.9765625,2.2583008,0.30517578,0.0,0.0,0.0,104.97986,79.04663,175.77576
1769245216128,-0.98339844,0.18164062,-0.03857422,-0.91552734,2.319336,-0.24414062,0.0,0.0,0.0,104.97986,79.04663,175.77576
1769245216140,-0.98339844,0.18164062,-0.03857422,-0.91552734,2.319336,-0.24414062,0.0,0.0,0.0,106.43555,78.986206,177.22046
1769245216227,-0.9824219,0.1772461,-0.044433594,-2.380371,0.79345703,0.12207031,0.0,0.0,0.0,106.43555,78.986206,177.22046
1769245216239,-0.9824219,0.1772461,-0.044433594,-2.380371,0.79345703,0.12207031,0.0,0.0,0.0,106.92993,78.96423,177.6654
1769245216327,-0.98291016,0.17871094,-0.055664062,-4.272461,2.380371,0.12207031,0.0,0.0,0.0,106.92993,78.96423,177.6654
1769245216339,-0.98291016,0.17871094,-0.055664062,-4.272461,2.380371,0.12207031,0.0,0.0,0.0,106.94641,78.931274,177.78625
1769245216427,-0.9902344,0.18457031,-0.053710938,-3.4179688,-1.2207031,1.4038086,0.0,0.0,0.0,106.94641,78.931274,177.78625
1769245216438,-0.9902344,0.18457031,-0.053710938,-3.4179688,-1.2207031,1.4038086,0.0,0.0,0.0,107.08374,78.84338,178.02246
1769245216526,-0.97802734,0.1821289,-0.05126953,-2.6245117,-0.12207031,1.4648438,0.0,0.0,0.0,107.08374,78.84338,178.02246
1769245216538,-0.97802734,0.1821289,-0.05126953,-2.6245117,-0.12207031,1.4648438,0.0,0.0,0.0,106.10596,78.73352,176.9513
1769245216626,-0.98779297,0.18896484,-0.05029297,-2.0751953,0.0,1.6479492,0.0,0.0,0.0,106.10596,78.73352,176.9513
1769245216638,-0.98779297,0.18896484,-0.05029297,-2.0751953,0.0,1.6479492,0.0,0.0,0.0,105.89172,78.59619,176.57227
1769245216726,-0.98339844,0.18945312,-0.052734375,-1.2207031,2.746582,0.4272461,0.0,0.0,0.0,105.89172,78.59619,176.57227
1769245216737,-0.98339844,0.18945312,-0.052734375,-1.2207031,2.746582,0.4272461,0.0,0.0,0.0,106.27075,78.447876,176.81396
1769245216826,-0.9838867,0.19238281,-0.0546875,0.48828125,1.7089844,-0.36621094,0.0,0.0,0.0,106.27075,78.447876,176.81396
1769245216837,-0.9838867,0.19238281,-0.0546875,0.48828125,1.7089844,-0.36621094,0.0,0.0,0.0,107.48474,78.38745,177.71484
1769245216925,-0.98876953,0.18945312,-0.056152344,0.6713867,1.5869141,-0.79345703,0.0,0.0,0.0,107.48474,78.38745,177.71484
1769245216937,-0.98876953,0.18945312,-0.056152344,0.6713867,1.5869141,-0.79345703,0.0,0.0,0.0,108.25928,78.40393,178.08289
1769245217025,-0.98291016,0.18457031,-0.057128906,1.3427734,-0.61035156,-0.24414062,0.0,0.0,0.0,108.25928,78.40393,178.08289
1769245217037,-0.98291016,0.18457031,-0.057128906,1.3427734,-0.61035156,-0.24414062,0.0,0.0,0.0,108.58887,78.4314,177.9895
1769245217125,-0.9916992,0.1850586,-0.060058594,1.2207031,-1.8920898,0.30517578,0.0,0.0,0.0,108.58887,78.4314,177.9895
1769245217137,-0.9916992,0.1850586,-0.060058594,1.2207031,-1.8920898,0.30517578,0.0,0.0,0.0,108.18787,78.480835,177.13257
1769245217225,-0.984375,0.18652344,-0.049316406,0.6713867,-0.7324219,0.24414062,0.0,0.0,0.0,108.18787,78.480835,177.13257
1769245217236,-0.984375,0.18652344,-0.049316406,0.6713867,-0.7324219,0.24414062,0.0,0.0,0.0,107.96265,78.5083,176.51733
1769245217324,-0.9848633,0.18457031,-0.049804688,0.24414062,0.0,0.30517578,0.0,0.0,0.0,107.96265,78.5083,176.51733
1769245217336,-0.9848633,0.18457031,-0.049804688,0.24414062,0.0,0.30517578,0.0,0.0,0.0,107.77588,78.50281,176.07239
1769245217424,-0.9790039,0.18408203,-0.049316406,-0.12207031,-0.4272461,0.4272461,0.0,0.0,0.0,107.77588,78.50281,176.07239
1769245217435,-0.9790039,0.18408203,-0.049316406,-0.12207031,-0.4272461,0.4272461,0.0,0.0,0.0,107.55615,78.47534,175.74829
1769245217524,-0.98779297,0.19140625,-0.055664062,-0.48828125,-0.30517578,0.30517578,0.0,0.0,0.0,107.55615,78.47534,175.74829
1769245217535,-0.98779297,0.19140625,-0.055664062,-0.48828125,-0.30517578,0.30517578,0.0,0.0,0.0,106.82007,78.46985,174.99573
1769245217623,-0.98535156,0.19091797,-0.053710938,0.5493164,0.24414062,-0.12207031,0.0,0.0,0.0,106.82007,78.46985,174.99573
1769245217635,-0.98535156,0.19091797,-0.053710938,0.5493164,0.24414062,-0.12207031,0.0,0.0,0.0,106.80359,78.46985,174.83093
1769245217723,-0.9824219,0.1899414,-0.048339844,1.4648438,-0.061035156,-0.30517578,0.0,0.0,0.0,106.80359,78.46985,174.83093
1769245217735,-0.9824219,0.1899414,-0.048339844,1.4648438,-0.061035156,-0.30517578,0.0,0.0,0.0,107.127686,78.48633,174.91333
1769245217823,-0.98046875,0.18603516,-0.04638672,1.2207031,-0.18310547,0.0,0.0,0.0,0.0,107.127686,78.48633,174.91333
1769245217834,-0.98046875,0.18603516,-0.04638672,1.2207031,-0.18310547,0.0,0.0,0.0,0.0,107.16614,78.513794,174.72107
1769245217922,-0.98339844,0.1899414,-0.048828125,0.30517578,-1.0375977,0.48828125,0.0,0.0,0.0,107.16614,78.513794,174.72107
1769245217934,-0.98339844,0.1899414,-0.048828125,0.30517578,-1.0375977,0.48828125,0.0,0.0,0.0,106.7926,78.5083,174.25964
1769245218022,-0.9848633,0.18652344,-0.048339844,0.61035156,-0.48828125,0.0,0.0,0.0,0.0,106.7926,78.5083,174.25964
1769245218034,-0.9848633,0.18652344,-0.048339844,0.61035156,-0.48828125,0.0,0.0,0.0,0.0,106.243286,78.5083,173.64441
1769245218122,-0.98291016,0.19042969,-0.04736328,-0.5493164,0.4272461,0.061035156,0.0,0.0,0.0,106.243286,78.5083,173.64441
1769245218134,-0.98291016,0.19042969,-0.04736328,-0.5493164,0.4272461,0.061035156,0.0,0.0,0.0,106.2323,78.51929,173.59497
1769245218222,-0.98583984,0.1899414,-0.044921875,-1.0986328,1.953125,0.0,0.0,0.0,0.0,106.2323,78.51929,173.59497
1769245218233,-0.98583984,0.1899414,-0.044921875,-1.0986328,1.953125,0.0,0.0,0.0,0.0,106.677246,78.497314,174.0564
1769245218321,-0.9824219,0.19042969,-0.049316406,-1.2817383,2.0141602,0.18310547,0.0,0.0,0.0,106.677246,78.497314,174.0564
1769245218333,-0.9824219,0.19042969,-0.049316406,-1.2817383,2.0141602,0.18310547,0.0,0.0,0.0,107.33093,78.45886,174.80896
1769245218421,-0.98583984,0.19091797,-0.056640625,-0.18310547,2.380371,-0.48828125,0.0,0.0,0.0,107.33093,78.45886,174.80896
1769245218433,-0.98583984,0.19091797,-0.056640625,-0.18310547,2.380371,-0.48828125,0.0,0.0,0.0,108.29224,78.409424,175.8966
1769245218521,-0.9819336,0.18896484,-0.061523438,-0.5493164,1.953125,-0.48828125,0.0,0.0,0.0,108.29224,78.409424,175.8966
1769245218533,-0.9819336,0.18896484,-0.061523438,-0.5493164,1.953125,-0.48828125,0.0,0.0,0.0,109.39636,78.37097,177.06665
1769245218620,-0.98583984,0.18603516,-0.07128906,-1.4038086,0.7324219,0.12207031,0.0,0.0,0.0,109.39636,78.37097,177.06665
1769245218632,-0.98583984,0.18603516,-0.07128906,-1.4038086,0.7324219,0.12207031,0.0,0.0,0.0,109.87976,78.349,177.52808
1769245218720,-0.9819336,0.18701172,-0.068359375,-0.36621094,0.79345703,-0.12207031,0.0,0.0,0.0,109.87976,78.349,177.52808
1769245218732,-0.9819336,0.18701172,-0.068359375,-0.36621094,0.79345703,-0.12207031,0.0,0.0,0.0,110.2478,78.33801,177.88513
1769245218820,-0.97753906,0.18554688,-0.06201172,0.36621094,0.0,-0.30517578,0.0,0.0,0.0,110.2478,78.33801,177.88513
1769245218831,-0.97753906,0.18554688,-0.06201172,0.36621094,0.0,-0.30517578,0.0,0.0,0.0,110.45105,78.33801,178.01697
1769245218920,-0.9838867,0.18408203,-0.068359375,-0.061035156,0.0,0.18310547,0.0,0.0,0.0,110.45105,78.33801,178.01697
1769245218931,-0.9838867,0.18408203,-0.068359375,-0.061035156,0.0,0.18310547,0.0,0.0,0.0,110.23682,78.33801,177.7533
1769245219019,-0.984375,0.18701172,-0.068847656,-0.4272461,0.30517578,0.5493164,0.0,0.0,0.0,110.23682,78.33801,177.7533
1769245219031,-0.984375,0.18701172,-0.068847656,-0.4272461,0.30517578,0.5493164,0.0,0.0,0.0,110.23682,78.30505,177.7533
1769245219119,-0.98339844,0.18847656,-0.0625,-0.24414062,-0.18310547,0.4272461,0.0,0.0,0.0,110.23682,78.30505,177.7533
1769245219131,-0.98339844,0.18847656,-0.0625,-0.24414062,-0.18310547,0.4272461,0.0,0.0,0.0,110.12695,78.2666,177.67639
1769245219219,-0.9838867,0.18896484,-0.064941406,0.0,-0.4272461,0.18310547,0.0,0.0,0.0,110.12695,78.2666,177.67639
1769245219230,-0.9838867,0.18896484,-0.064941406,0.0,-0.4272461,0.18310547,0.0,0.0,0.0,109.82483,78.255615,177.3523
1769245219318,-0.98535156,0.19189453,-0.06347656,0.24414062,-1.4648438,0.12207031,0.0,0.0,0.0,109.82483,78.255615,177.3523
1769245219330,-0.98535156,0.19189453,-0.06347656,0.24414062,-1.4648438,0.12207031,0.0,0.0,0.0,109.39087,78.272095,176.83594
1769245219418,-0.98046875,0.18798828,-0.05810547,0.36621094,-0.61035156,-0.12207031,0.0,0.0,0.0,109.39087,78.272095,176.83594
1769245219430,-0.98046875,0.18798828,-0.05810547,0.36621094,-0.61035156,-0.12207031,0.0,0.0,0.0,108.91846,78.29956,176.27014
1769245219518,-0.98339844,0.18945312,-0.055664062,1.4648438,-1.4648438,-0.24414062,0.0,0.0,0.0,108.91846,78.29956,176.27014
1769245219529,-0.98339844,0.18945312,-0.055664062,1.4648438,-1.4648438,-0.24414062,0.0,0.0,0.0,108.566895,78.37097,175.77576
1769245219618,-0.9848633,0.19091797,-0.051757812,1.159668,-0.6713867,-0.12207031,0.0,0.0,0.0,108.566895,78.37097,175.77576
1769245219629,-0.9848633,0.19091797,-0.051757812,1.159668,-0.6713867,-0.12207031,0.0,0.0,0.0,108.479004,78.41492,175.55603
1769245219717,-0.98291016,0.18798828,-0.051757812,0.48828125,0.91552734,-0.12207031,0.0,0.0,0.0,108.479004,78.41492,175.55603
1769245219729,-0.98291016,0.18798828,-0.051757812,0.48828125,0.91552734,-0.12207031,0.0,0.0,0.0,108.74817,78.41492,175.79773
1769245219817,-0.9863281,0.18554688,-0.057617188,-0.18310547,0.91552734,-0.061035156,0.0,0.0,0.0,108.74817,78.41492,175.79773
1769245219829,-0.9863281,0.18554688,-0.057617188,-0.18310547,0.91552734,-0.061035156,0.0,0.0,0.0,109.03931,78.409424,176.15479
1769245219917,-0.98046875,0.18652344,-0.053710938,-0.61035156,0.061035156,0.12207031,0.0,0.0,0.0,109.03931,78.409424,176.15479
1769245219928,-0.98046875,0.18652344,-0.053710938,-0.61035156,0.061035156,0.12207031,0.0,0.0,0.0,109.13818,78.392944,176.39099
1769245220016,-0.97998047,0.1899414,-0.052246094,0.12207031,-0.18310547,-0.061035156,0.0,0.0,0.0,109.13818,78.392944,176.39099
1769245220028,-0.97998047,0.1899414,-0.052246094,0.12207031,-0.18310547,-0.061035156,0.0,0.0,0.0,108.91846,78.40393,176.24817
1769245220116,-0.9814453,0.18701172,-0.05517578,-0.18310547,0.12207031,0.30517578,0.0,0.0,0.0,108.91846,78.40393,176.24817
1769245220128,-0.9814453,0.18701172,-0.05517578,-0.18310547,0.12207031,0.30517578,0.0,0.0,0.0,108.66028,78.38745,176.05042
1769245220216,-0.9848633,0.18945312,-0.061035156,-0.18310547,0.12207031,0.8544922,0.0,0.0,0.0,108.66028,78.38745,176.05042
1769245220228,-0.9848633,0.18945312,-0.061035156,-0.18310547,0.12207031,0.8544922,0.0,0.0,0.0,108.429565,78.31604,175.89111
1769245220316,-0.98339844,0.19628906,-0.061523438,0.30517578,1.0375977,0.61035156,0.0,0.0,0.0,108.429565,78.31604,175.89111
1769245220327,-0.98339844,0.19628906,-0.061523438,0.30517578,1.0375977,0.61035156,0.0,0.0,0.0,108.51196,78.23364,175.99548
1769245220415,-0.98291016,0.19189453,-0.06738281,-0.48828125,1.6479492,0.061035156,0.0,0.0,0.0,108.51196,78.23364,175.99548
1769245220427,-0.98291016,0.19189453,-0.06738281,-0.48828125,1.6479492,0.061035156,0.0,0.0,0.0,108.792114,78.14575,176.33606
1769245220515,-0.98046875,0.20166016,-0.030273438,0.7324219,-3.479004,0.0,0.0,0.0,0.0,108.792114,78.14575,176.33606
1769245220527,-0.98046875,0.20166016,-0.030273438,0.7324219,-3.479004,0.0,0.0,0.0,0.0,109.121704,78.17871,176.60522
1769245220615,-0.99121094,0.1928711,-0.080078125,1.8920898,-7.9956055,0.5493164,0.0,0.0,0.0,109.121704,78.17871,176.60522
1769245220626,-0.99121094,0.1928711,-0.080078125,1.8920898,-7.9956055,0.5493164,0.0,0.0,0.0,104.08447,78.32703,171.52405
1769245220715,-0.9770508,0.18701172,-0.03125,-0.91552734,-2.5634766,1.7089844,0.0,0.0,0.0,104.08447,78.32703,171.52405
1769245220726,-0.9770508,0.18701172,-0.03125,-0.91552734,-2.5634766,1.7089844,0.0,0.0,0.0,102.354126,78.359985,169.68933
1769245220814,-0.9790039,0.19677734,-0.025390625,-0.9765625,-3.0517578,2.1972656,0.0,0.0,0.0,102.354126,78.359985,169.68933
1769245220826,-0.9790039,0.19677734,-0.025390625,-0.9765625,-3.0517578,2.1972656,0.0,0.0,0.0,101.21704,78.23364,168.6731
1769245220914,-0.984375,0.19677734,-0.03466797,-0.61035156,-1.0375977,1.7089844,0.0,0.0,0.0,101.21704,78.23364,168.6731
1769245220925,-0.984375,0.19677734,-0.03466797,-0.61035156,-1.0375977,1.7089844,0.0,0.0,0.0,99.6405,78.05237,167.17346
1769245221014,-0.98339844,0.2006836,-0.029296875,-0.8544922,-2.0141602,1.2817383,0.0,0.0,0.0,99.6405,78.05237,167.17346
1769245221026,-0.98339844,0.2006836,-0.029296875,-0.8544922,-2.0141602,1.2817383,0.0,0.0,0.0,98.54187,77.958984,166.09131
1769245221114,-0.98291016,0.20703125,-0.019042969,-0.7324219,-1.6479492,0.61035156,0.0,0.0,0.0,98.54187,77.958984,166.09131
1769245221125,-0.98291016,0.20703125,-0.019042969,-0.7324219,-1.6479492,0.61035156,0.0,0.0,0.0,97.59155,77.90405,165.12451
1769245221213,-0.9868164,0.20410156,-0.026367188,-0.6713867,-0.36621094,0.5493164,0.0,0.0,0.0,97.59155,77.90405,165.12451
1769245221225,-0.9868164,0.20410156,-0.026367188,-0.6713867,-0.36621094,0.5493164,0.0,0.0,0.0,97.10266,77.87109,164.5752
1769245221313,-0.9790039,0.20654297,-0.020507812,-0.6713867,-1.2207031,0.7324219,0.0,0.0,0.0,97.10266,77.87109,164.5752
1769245221324,-0.9790039,0.20654297,-0.020507812,-0.6713867,-1.2207031,0.7324219,0.0,0.0,0.0,96.92688,77.84912,164.20166
1769245221413,-0.9824219,0.20947266,-0.011230469,0.61035156,0.0,0.24414062,0.0,0.0,0.0,96.92688,77.84912,164.20166
1769245221424,-0.9824219,0.20947266,-0.011230469,0.61035156,0.0,0.24414062,0.0,0.0,0.0,96.76758,77.838135,163.7732
1769245221512,-1.0117188,0.21582031,-0.030761719,-2.380371,-4.4555664,2.8076172,0.0,0.0,0.0,96.76758,77.838135,163.7732
1769245221524,-1.0117188,0.21582031,-0.030761719,-2.380371,-4.4555664,2.8076172,0.0,0.0,0.0,97.15759,77.750244,163.99292
1769245221612,-0.9770508,0.21484375,-0.013671875,-1.0986328,-2.1362305,0.9765625,0.0,0.0,0.0,97.15759,77.750244,163.99292
1769245221624,-0.9770508,0.21484375,-0.013671875,-1.0986328,-2.1362305,0.9765625,0.0,0.0,0.0,96.76758,77.69531,163.47107
1769245221712,-0.9790039,0.2084961,-0.0087890625,-0.8544922,-0.79345703,0.7324219,0.0,0.0,0.0,96.76758,77.69531,163.47107
1769245221724,-0.9790039,0.2084961,-0.0087890625,-0.8544922,-0.79345703,0.7324219,0.0,0.0,0.0,96.344604,77.64038,162.97668
1769245221811,-0.9785156,0.21191406,-0.016113281,-0.5493164,0.0,-0.12207031,0.0,0.0,0.0,96.344604,77.64038,162.97668
1769245221824,-0.9785156,0.21191406,-0.016113281,-0.5493164,0.0,-0.12207031,0.0,0.0,0.0,95.76782,77.61841,162.4054
1769245221911,-0.9819336,0.21240234,-0.01953125,0.48828125,0.061035156,-0.6713867,0.0,0.0,0.0,95.76782,77.61841,162.4054
1769245221923,-0.9819336,0.21240234,-0.01953125,0.48828125,0.061035156,-0.6713867,0.0,0.0,0.0,95.48767,77.63489,162.06482
1769245222011,-0.98583984,0.20751953,-0.018066406,0.24414062,-0.4272461,-0.36621094,0.0,0.0,0.0,95.48767,77.63489,162.06482
1769245222022,-0.98583984,0.20751953,-0.018066406,0.24414062,-0.4272461,-0.36621094,0.0,0.0,0.0,95.51514,77.72278,161.90552
1769245222111,-0.9765625,0.20996094,-0.008300781,0.7324219,-0.4272461,0.061035156,0.0,0.0,0.0,95.51514,77.72278,161.90552
1769245222122,-0.9765625,0.20996094,-0.008300781,0.7324219,-0.4272461,0.061035156,0.0,0.0,0.0,95.88867,77.750244,162.10876
1769245222210,-0.9794922,0.20410156,-0.0087890625,1.4038086,0.4272461,0.18310547,0.0,0.0,0.0,95.88867,77.750244,162.10876
1769245222222,-0.9794922,0.20410156,-0.0087890625,1.4038086,0.4272461,0.18310547,0.0,0.0,0.0,95.806274,77.750244,161.86707
1769245222310,-0.98291016,0.21044922,-0.0087890625,0.5493164,-0.9765625,0.48828125,0.0,0.0,0.0,95.806274,77.750244,161.86707
1769245222322,-0.98291016,0.21044922,-0.0087890625,0.5493164,-0.9765625,0.48828125,0.0,0.0,0.0,95.69641,77.71179,161.72974
1769245222410,-0.9863281,0.21289062,-0.009277344,-1.3427734,1.2207031,0.12207031,0.0,0.0,0.0,95.69641,77.71179,161.72974
1769245222421,-0.9863281,0.21289062,-0.009277344,-1.3427734,1.2207031,0.12207031,0.0,0.0,0.0,95.53162,77.67883,161.63086
1769245222510,-0.9785156,0.2055664,-0.020996094,-0.12207031,0.4272461,0.30517578,0.0,0.0,0.0,95.53162,77.67883,161.63086
1769245222521,-0.9785156,0.2055664,-0.020996094,-0.12207031,0.4272461,0.30517578,0.0,0.0,0.0,95.77881,77.645874,161.97144
1769245222609,-0.97998047,0.2055664,-0.012207031,0.18310547,0.48828125,0.36621094,0.0,0.0,0.0,95.77881,77.645874,161.97144
1769245222621,-0.97998047,0.2055664,-0.012207031,0.18310547,0.48828125,0.36621094,0.0,0.0,0.0,95.91614,77.63489,162.09229
1769245222709,-0.98339844,0.2163086,-0.0107421875,0.48828125,0.61035156,-0.061035156,0.0,0.0,0.0,95.91614,77.63489,162.09229
1769245222720,-0.98339844,0.2163086,-0.0107421875,0.48828125,0.61035156,-0.061035156,0.0,0.0,0.0,96.135864,77.61841,162.2461
1769245222809,-0.98046875,0.20654297,-0.016601562,1.0375977,-0.6713867,0.5493164,0.0,0.0,0.0,96.135864,77.61841,162.2461
1769245222821,-0.98046875,0.20654297,-0.016601562,1.0375977,-0.6713867,0.5493164,0.0,0.0,0.0,96.16333,77.59094,162.11975
1769245222908,-0.98095703,0.21289062,-0.018066406,1.0375977,-0.18310547,0.4272461,0.0,0.0,0.0,96.16333,77.59094,162.11975
1769245222920,-0.98095703,0.21289062,-0.018066406,1.0375977,-0.18310547,0.4272461,0.0,0.0,0.0,95.92163,77.55798,161.78467
1769245223008,-0.9814453,0.21191406,-0.0126953125,0.4272461,-0.24414062,0.24414062,0.0,0.0,0.0,95.92163,77.55798,161.78467
1769245223020,-0.9814453,0.21191406,-0.0126953125,0.4272461,-0.24414062,0.24414062,0.0,0.0,0.0,95.87219,77.53052,161.6748
1769245223108,-0.9794922,0.21386719,-0.0107421875,-0.24414062,0.18310547,0.0,0.0,0.0,0.0,95.87219,77.53052,161.6748
1769245223119,-0.9794922,0.21386719,-0.0107421875,-0.24414062,0.18310547,0.0,0.0,0.0,0.0,95.877686,77.525024,161.69678
1769245223207,-0.9765625,0.21191406,-0.016113281,0.061035156,0.6713867,-0.30517578,0.0,0.0,0.0,95.877686,77.525024,161.69678
1769245223220,-0.9765625,0.21191406,-0.016113281,0.061035156,0.6713867,-0.30517578,0.0,0.0,0.0,95.88867,77.51404,161.7627
1769245223307,-0.98583984,0.20996094,-0.022460938,-0.4272461,1.8920898,-0.24414062,0.0,0.0,0.0,95.88867,77.51404,161.7627
1769245223319,-0.98583984,0.20996094,-0.022460938,-0.4272461,1.8920898,-0.24414062,0.0,0.0,0.0,96.24573,77.525024,162.19116
1769245223407,-0.9770508,0.2084961,-0.025878906,-0.9765625,3.7841797,-0.61035156,0.0,0.0,0.0,96.24573,77.525024,162.19116
1769245223418,-0.9770508,0.2084961,-0.025878906,-0.9765625,3.7841797,-0.61035156,0.0,0.0,0.0,97.44873,77.541504,163.48206
1769245223507,-0.97802734,0.20996094,-0.023925781,-0.4272461,2.0751953,-0.12207031,0.0,0.0,0.0,97.44873,77.541504,163.48206
1769245223518,-0.97802734,0.20996094,-0.023925781,-0.4272461,2.0751953,-0.12207031,0.0,0.0,0.0,99.23401,77.541504,165.31128
1769245223606,-0.9838867,0.20507812,-0.03173828,-0.061035156,1.5869141,-0.30517578,0.0,0.0,0.0,99.23401,77.541504,165.31128
1769245223618,-0.9838867,0.20507812,-0.03173828,-0.061035156,1.5869141,-0.30517578,0.0,0.0,0.0,99.81079,77.525024,165.95947
1769245223706,-0.97558594,0.20654297,-0.032226562,0.36621094,1.8920898,-0.61035156,0.0,0.0,0.0,99.81079,77.525024,165.95947
1769245223717,-0.97558594,0.20654297,-0.032226562,0.36621094,1.8920898,-0.61035156,0.0,0.0,0.0,100.64575,77.541504,166.86035
1769245223806,-0.97558594,0.20458984,-0.028320312,1.159668,-0.4272461,-0.7324219,0.0,0.0,0.0,100.64575,77.541504,166.86035
1769245223817,-0.97558594,0.20458984,-0.028320312,1.159668,-0.4272461,-0.7324219,0.0,0.0,0.0,100.772095,77.60742,166.97021
1769245223905,-0.98095703,0.21142578,-0.020996094,1.159668,-5.92041,0.5493164,0.0,0.0,0.0,100.772095,77.60742,166.97021
1769245223917,-0.98095703,0.21142578,-0.020996094,1.159668,-5.92041,0.5493164,0.0,0.0,0.0,99.82727,77.66785,165.99243
1769245224005,-0.9770508,0.20214844,-0.016601562,2.380371,-0.30517578,-0.48828125,0.0,0.0,0.0,99.82727,77.66785,165.99243
1769245224017,-0.9770508,0.20214844,-0.016601562,2.380371,-0.30517578,-0.48828125,0.0,0.0,0.0,98.16284,77.72827,164.0863
1769245224105,-0.9916992,0.20703125,-0.020996094,0.36621094,-2.0751953,0.12207031,0.0,0.0,0.0,98.16284,77.72827,164.0863
1769245224117,-0.9916992,0.20703125,-0.020996094,0.36621094,-2.0751953,0.12207031,0.0,0.0,0.0,97.57507,77.750244,163.41614
1769245224204,-0.98046875,0.20507812,-0.029296875,-0.48828125,0.4272461,0.61035156,0.0,0.0,0.0,97.57507,77.750244,163.41614
1769245224216,-0.98046875,0.20507812,-0.029296875,-0.48828125,0.4272461,0.61035156,0.0,0.0,0.0,97.61902,77.73926,163.48755
1769245224304,-0.97998047,0.2084961,-0.015625,0.36621094,0.30517578,0.0,0.0,0.0,0.0,97.61902,77.73926,163.48755
1769245224316,-0.97998047,0.2084961,-0.015625,0.36621094,0.30517578,0.0,0.0,0.0,0.0,97.84973,77.72278,163.80066
1769245224404,-0.98339844,0.2055664,-0.025390625,0.9765625,-1.7700195,0.5493164,0.0,0.0,0.0,97.84973,77.72278,163.80066
1769245224416,-0.98339844,0.2055664,-0.025390625,0.9765625,-1.7700195,0.5493164,0.0,0.0,0.0,97.15759,77.700806,163.09204
1769245224504,-0.9760742,0.20947266,-0.018554688,0.61035156,-1.2207031,1.6479492,0.0,0.0,0.0,97.15759,77.700806,163.09204
1769245224515,-0.9760742,0.20947266,-0.018554688,0.61035156,-1.2207031,1.6479492,0.0,0.0,0.0,96.75659,77.6239,162.71301
1769245224603,-0.97753906,0.21142578,-0.011230469,1.7700195,-2.2583008,2.1972656,0.0,0.0,0.0,96.75659,77.6239,162.71301
1769245224615,-0.97753906,0.21142578,-0.011230469,1.7700195,-2.2583008,2.1972656,0.0,0.0,0.0,95.76233,77.44263,161.70227
1769245224703,-0.96533203,0.21191406,-0.001953125,6.591797,-4.760742,3.7231445,0.0,0.0,0.0,95.76233,77.44263,161.70227
1769245224715,-0.96533203,0.21191406,-0.001953125,6.591797,-4.760742,3.7231445,0.0,0.0,0.0,93.68042,77.17346,159.32373
1769245224803,-0.9970703,0.19628906,9.765625E-4,7.2021484,-1.159668,2.0141602,0.0,0.0,0.0,93.68042,77.17346,159.32373
1769245224814,-0.9970703,0.19628906,9.765625E-4,7.2021484,-1.159668,2.0141602,0.0,0.0,0.0,92.69165,76.91528,157.99988
1769245224903,-0.9848633,0.21679688,-0.0073242188,6.4697266,-0.48828125,0.0,0.0,0.0,0.0,92.69165,76.91528,157.99988
1769245224914,-0.9848633,0.21679688,-0.0073242188,6.4697266,-0.48828125,0.0,0.0,0.0,0.0,92.48291,76.85486,157.92847
1769245225002,-0.98095703,0.21777344,-0.029296875,6.591797,-2.380371,0.6713867,0.0,0.0,0.0,92.48291,76.85486,157.92847
1769245225014,-0.98095703,0.21777344,-0.029296875,6.591797,-2.380371,0.6713867,0.0,0.0,0.0,92.37854,76.83838,157.92847
1769245225102,-0.9682617,0.17675781,-0.0068359375,-0.61035156,-1.0986328,3.479004,0.0,0.0,0.0,92.37854,76.83838,157.92847
1769245225113,-0.9682617,0.17675781,-0.0068359375,-0.61035156,-1.0986328,3.479004,0.0,0.0,0.0,92.559814,76.60217,158.47778
1769245225202,-0.9584961,0.22216797,-0.009277344,3.0517578,-0.4272461,3.4179688,0.0,0.0,0.0,92.559814,76.60217,158.47778
1769245225213,-0.9584961,0.22216797,-0.009277344,3.0517578,-0.4272461,3.4179688,0.0,0.0,0.0,92.735596,76.448364,159.44458
1769245225301,-0.97998047,0.18945312,-0.023925781,2.8076172,2.5024414,6.958008,0.0,0.0,0.0,92.735596,76.448364,159.44458
1769245225313,-0.97998047,0.18945312,-0.023925781,2.8076172,2.5024414,6.958008,0.0,0.0,0.0,92.768555,75.981445,160.20264
1769245225401,-0.953125,0.22363281,-9.765625E-4,-1.159668,-0.8544922,7.8125,0.0,0.0,0.0,92.768555,75.981445,160.20264
1769245225413,-0.953125,0.22363281,-9.765625E-4,-1.159668,-0.8544922,7.8125,0.0,0.0,0.0,93.68591,75.217896,162.30652
1769245225501,-0.9667969,0.25585938,-0.008300781,6.286621,-0.61035156,1.2817383,0.0,0.0,0.0,93.68591,75.217896,162.30652
1769245225512,-0.9667969,0.25585938,-0.008300781,6.286621,-0.61035156,1.2817383,0.0,0.0,0.0,93.306885,74.86084,162.62512
1769245225600,-0.97558594,0.27148438,-0.029296875,14.404297,-2.9907227,-0.79345703,0.0,0.0,0.0,93.306885,74.86084,162.62512
1769245225612,-0.97558594,0.27148438,-0.029296875,14.404297,-2.9907227,-0.79345703,0.0,0.0,0.0,93.515625,74.88281,162.59766
1769245225700,-0.97021484,0.25976562,-0.009277344,10.070801,-3.479004,-0.61035156,0.0,0.0,0.0,93.515625,74.88281,162.59766
1769245225712,-0.97021484,0.25976562,-0.009277344,10.070801,-3.479004,-0.61035156,0.0,0.0,0.0,93.62549,74.95422,162.38892
1769245225800,-0.9765625,0.27001953,-0.0053710938,9.094238,-4.0283203,-2.319336,0.0,0.0,0.0,93.62549,74.95422,162.38892
1769245225811,-0.9765625,0.27001953,-0.0053710938,9.094238,-4.0283203,-2.319336,0.0,0.0,0.0,93.2959,75.10254,162.21313
1769245225900,-0.94628906,0.2685547,-0.0048828125,9.521484,-6.0424805,-1.4648438,0.0,0.0,0.0,93.2959,75.10254,162.21313
1769245225911,-0.94628906,0.2685547,-0.0048828125,9.521484,-6.0424805,-1.4648438,0.0,0.0,0.0,92.54883,75.31128,161.44409
1769245225999,-0.96191406,0.26123047,-0.018554688,14.526367,-0.91552734,-3.112793,0.0,0.0,0.0,92.54883,75.31128,161.44409
1769245226011,-0.96191406,0.26123047,-0.018554688,14.526367,-0.91552734,-3.112793,0.0,0.0,0.0,92.230225,75.443115,160.85632
1769245226099,-0.9716797,0.26953125,-0.024902344,19.77539,4.638672,-3.2958984,0.0,0.0,0.0,92.230225,75.443115,160.85632
1769245226111,-0.9716797,0.26953125,-0.024902344,19.77539,4.638672,-3.2958984,0.0,0.0,0.0,95.147095,75.70679,163.39417
1769245226199,-0.97265625,0.24804688,-0.018554688,23.132324,0.61035156,-2.1362305,0.0,0.0,0.0,95.147095,75.70679,163.39417
1769245226210,-0.97265625,0.24804688,-0.018554688,23.132324,0.61035156,-2.1362305,0.0,0.0,0.0,98.739624,75.860596,166.23413
1769245226298,-0.96484375,0.2626953,-0.040527344,30.761719,-4.699707,-4.211426,0.0,0.0,0.0,98.739624,75.860596,166.23413
1769245226310,-0.96484375,0.2626953,-0.040527344,30.761719,-4.699707,-4.211426,0.0,0.0,0.0,100.83801,76.14075,167.50854
1769245226398,-0.9736328,0.2319336,-0.029785156,35.583496,-7.2021484,-3.2958984,0.0,0.0,0.0,100.83801,76.14075,167.50854
1769245226410,-0.9736328,0.2319336,-0.029785156,35.583496,-7.2021484,-3.2958984,0.0,0.0,0.0,101.519165,76.569214,166.92078
1769245226498,-0.9873047,0.22607422,-0.0234375,30.88379,-4.699707,-0.79345703,0.0,0.0,0.0,101.519165,76.569214,166.92078
1769245226509,-0.9873047,0.22607422,-0.0234375,30.88379,-4.699707,-0.79345703,0.0,0.0,0.0,101.173096,76.87134,165.73425
1769245226598,-0.9682617,0.24414062,-0.049316406,23.620605,1.4038086,1.7700195,0.0,0.0,0.0,101.173096,76.87134,165.73425
1769245226609,-0.9682617,0.24414062,-0.049316406,23.620605,1.4038086,1.7700195,0.0,0.0,0.0,102.39258,76.81091,167.15698
1769245226697,-0.97314453,0.20947266,-0.049804688,15.686035,9.460449,1.7700195,0.0,0.0,0.0,102.39258,76.81091,167.15698
1769245226709,-0.97314453,0.20947266,-0.049804688,15.686035,9.460449,1.7700195,0.0,0.0,0.0,106.380615,76.415405,172.11731
1769245226797,-0.97265625,0.2241211,-0.100097656,2.0141602,11.047363,4.699707,0.0,0.0,0.0,106.380615,76.415405,172.11731
1769245226808,-0.97265625,0.2241211,-0.100097656,2.0141602,11.047363,4.699707,0.0,0.0,0.0,110.0885,75.82764,178.00049
1769245226898,-0.9658203,0.23486328,-0.10546875,-7.3242188,10.437012,4.8217773,0.0,0.0,0.0,110.0885,75.82764,178.00049
1769245226909,-0.9658203,0.23486328,-0.10546875,-7.3242188,10.437012,4.8217773,0.0,0.0,0.0,113.47229,74.98718,-175.57251
1769245226996,-0.94921875,0.26464844,-0.11816406,-11.535645,15.014648,4.8828125,0.0,0.0,0.0,113.47229,74.98718,-175.57251
1769245227008,-0.94921875,0.26464844,-0.11816406,-11.535645,15.014648,4.8828125,0.0,0.0,0.0,116.07056,74.05884,-169.3927
1769245227096,-0.9609375,0.25097656,-0.15136719,-15.686035,13.977051,3.479004,0.0,0.0,0.0,116.07056,74.05884,-169.3927
1769245227108,-0.9609375,0.25097656,-0.15136719,-15.686035,13.977051,3.479004,0.0,0.0,0.0,117.93274,73.03162,-163.83911
1769245227196,-0.95751953,0.26513672,-0.14892578,-19.348145,7.9956055,1.7700195,0.0,0.0,0.0,117.93274,73.03162,-163.83911
1769245227207,-0.95751953,0.26513672,-0.14892578,-19.348145,7.9956055,1.7700195,0.0,0.0,0.0,119.229126,72.284546,-159.11499
1769245227296,-0.9511719,0.27197266,-0.14404297,-22.033691,7.1411133,-2.2583008,0.0,0.0,0.0,119.229126,72.284546,-159.11499
1769245227307,-0.9511719,0.27197266,-0.14404297,-22.033691,7.1411133,-2.2583008,0.0,0.0,0.0,119.053345,71.98242,-155.71472
1769245227395,-0.95654297,0.26757812,-0.15673828,-21.42334,12.268066,-6.713867,0.0,0.0,0.0,119.053345,71.98242,-155.71472
1769245227407,-0.95654297,0.26757812,-0.15673828,-21.42334,12.268066,-6.713867,0.0,0.0,0.0,119.74548,71.954956,-151.56738
1769245227495,-0.9760742,0.27246094,-0.16552734,-18.676758,12.268066,-7.751465,0.0,0.0,0.0,119.74548,71.954956,-151.56738
1769245227506,-0.9760742,0.27246094,-0.16552734,-18.676758,12.268066,-7.751465,0.0,0.0,0.0,122.283325,71.92749,-146.20056
1769245227595,-0.95458984,0.28222656,-0.17626953,-20.263672,15.991211,-3.479004,0.0,0.0,0.0,122.283325,71.92749,-146.20056
1769245227606,-0.95458984,0.28222656,-0.17626953,-20.263672,15.991211,-3.479004,0.0,0.0,0.0,124.78821,71.71326,-141.24573
1769245227694,-0.92529297,0.27978516,-0.1977539,-23.68164,14.038086,0.061035156,0.0,0.0,0.0,124.78821,71.71326,-141.24573
1769245227706,-0.92529297,0.27978516,-0.1977539,-23.68164,14.038086,0.061035156,0.0,0.0,0.0,126.58447,70.944214,-137.1643
1769245227794,-0.9301758,0.3046875,-0.21484375,-10.437012,6.652832,3.540039,0.0,0.0,0.0,126.58447,70.944214,-137.1643
1769245227806,-0.9301758,0.3046875,-0.21484375,-10.437012,6.652832,3.540039,0.0,0.0,0.0,126.84265,70.12024,-135.4779
1769245227894,-0.93359375,0.30664062,-0.21533203,2.9296875,1.2207031,5.065918,0.0,0.0,0.0,126.84265,70.12024,-135.4779
1769245227905,-0.93359375,0.30664062,-0.21533203,2.9296875,1.2207031,5.065918,0.0,0.0,0.0,126.326294,69.537964,-136.30188
1769245227994,-0.9223633,0.30322266,-0.19970703,12.268066,-5.7373047,6.652832,0.0,0.0,0.0,126.326294,69.537964,-136.30188
1769245228005,-0.9223633,0.30322266,-0.19970703,12.268066,-5.7373047,6.652832,0.0,0.0,0.0,125.6781,69.07654,-138.57605
1769245228093,-0.9477539,0.296875,-0.203125,15.991211,-6.1035156,4.699707,0.0,0.0,0.0,125.6781,69.07654,-138.57605
1769245228105,-0.9477539,0.296875,-0.203125,15.991211,-6.1035156,4.699707,0.0,0.0,0.0,124.83765,68.92273,-141.57532
1769245228193,-0.9350586,0.29882812,-0.20361328,18.554688,-7.3242188,3.6621094,0.0,0.0,0.0,124.83765,68.92273,-141.57532
1769245228205,-0.9350586,0.29882812,-0.20361328,18.554688,-7.3242188,3.6621094,0.0,0.0,0.0,124.53003,68.983154,-144.0747
1769245228293,-0.9399414,0.29638672,-0.20410156,19.958496,-7.751465,3.9672852,0.0,0.0,0.0,124.53003,68.983154,-144.0747
1769245228305,-0.9399414,0.29638672,-0.20410156,19.958496,-7.751465,3.9672852,0.0,0.0,0.0,124.02466,69.087524,-146.63452
1769245228392,-0.92529297,0.30517578,-0.19824219,13.61084,-9.338379,3.7841797,0.0,0.0,0.0,124.02466,69.087524,-146.63452
1769245228404,-0.92529297,0.30517578,-0.19824219,13.61084,-9.338379,3.7841797,0.0,0.0,0.0,123.31055,69.15344,-148.77686
1769245228492,-0.9326172,0.30126953,-0.20263672,15.625,-9.765625,0.12207031,0.0,0.0,0.0,123.31055,69.15344,-148.77686
1769245228504,-0.9326172,0.30126953,-0.20263672,15.625,-9.765625,0.12207031,0.0,0.0,0.0,122.43713,69.505005,-150.7489
1769245228592,-0.91845703,0.33398438,-0.22753906,16.845703,-6.4086914,7.019043,0.0,0.0,0.0,122.43713,69.505005,-150.7489
1769245228604,-0.91845703,0.33398438,-0.22753906,16.845703,-6.4086914,7.019043,0.0,0.0,0.0,122.547,69.4281,-151.90796
1769245228692,-0.9404297,0.2944336,-0.17626953,22.827148,-22.460938,6.591797,0.0,0.0,0.0,122.547,69.4281,-151.90796
1769245228703,-0.9404297,0.2944336,-0.17626953,22.827148,-22.460938,6.591797,0.0,0.0,0.0,119.64111,69.19739,-156.25854
1769245228791,-0.8769531,0.28710938,-0.14990234,-2.8686523,-15.625,3.6010742,0.0,0.0,0.0,119.64111,69.19739,-156.25854
1769245228803,-0.8769531,0.28710938,-0.14990234,-2.8686523,-15.625,3.6010742,0.0,0.0,0.0,116.13098,69.84009,-159.98291
1769245228891,-0.9291992,0.36523438,-0.23291016,11.71875,-8.178711,9.338379,0.0,0.0,0.0,116.13098,69.84009,-159.98291
1769245228903,-0.9291992,0.36523438,-0.23291016,11.71875,-8.178711,9.338379,0.0,0.0,0.0,112.97241,69.62036,-162.55371
1769245228991,-0.95654297,0.35009766,-0.13964844,30.273438,-18.615723,15.380859,0.0,0.0,0.0,112.97241,69.62036,-162.55371
1769245229002,-0.95654297,0.35009766,-0.13964844,30.273438,-18.615723,15.380859,0.0,0.0,0.0,112.5824,68.75244,-164.14673
1769245229090,-0.87353516,0.39990234,-0.100097656,32.958984,-20.019531,25.817871,0.0,0.0,0.0,112.5824,68.75244,-164.14673
1769245229102,-0.87353516,0.39990234,-0.100097656,32.958984,-20.019531,25.817871,0.0,0.0,0.0,109.714966,67.46704,-168.7555
1769245229190,-0.91503906,0.38671875,-0.06640625,36.315918,-16.540527,21.54541,0.0,0.0,0.0,109.714966,67.46704,-168.7555
1769245229202,-0.91503906,0.38671875,-0.06640625,36.315918,-16.540527,21.54541,0.0,0.0,0.0,107.49573,65.582886,-173.07861
1769245229290,-0.9682617,0.41845703,-0.015136719,-8.178711,-14.221191,9.82666,0.0,0.0,0.0,107.49573,65.582886,-173.07861
1769245229301,-0.9682617,0.41845703,-0.015136719,-8.178711,-14.221191,9.82666,0.0,0.0,0.0,104.33716,64.41284,-176.07239
1769245229390,-0.93847656,0.38671875,-0.034179688,17.8833,-10.986328,-8.239746,0.0,0.0,0.0,104.33716,64.41284,-176.07239
1769245229401,-0.93847656,0.38671875,-0.034179688,17.8833,-10.986328,-8.239746,0.0,0.0,0.0,101.49719,64.37439,-177.69287
1769245229489,-0.9296875,0.37890625,0.014160156,-25.390625,-15.808105,-8.972168,0.0,0.0,0.0,101.49719,64.37439,-177.69287
1769245229501,-0.9296875,0.37890625,0.014160156,-25.390625,-15.808105,-8.972168,0.0,0.0,0.0,98.64075,65.98389,-178.77502
1769245229589,-0.92333984,0.3955078,0.0,-9.155273,-6.4697266,-15.380859,0.0,0.0,0.0,98.64075,65.98389,-178.77502
1769245229601,-0.92333984,0.3955078,0.0,-9.155273,-6.4697266,-15.380859,0.0,0.0,0.0,93.65845,67.2583,-179.7583
1769245229689,-0.9453125,0.35107422,0.0063476562,-11.047363,-2.9296875,-14.221191,0.0,0.0,0.0,93.65845,67.2583,-179.7583
1769245229700,-0.9453125,0.35107422,0.0063476562,-11.047363,-2.9296875,-14.221191,0.0,0.0,0.0,92.0105,68.74695,-178.8739
1769245229788,-0.93847656,0.33984375,0.03466797,-7.1411133,4.4555664,-13.061523,0.0,0.0,0.0,92.0105,68.74695,-178.8739
1769245229800,-0.93847656,0.33984375,0.03466797,-7.1411133,4.4555664,-13.061523,0.0,0.0,0.0,91.21948,69.98291,-177.08313
1769245229889,-0.93652344,0.3227539,0.017578125,-7.751465,2.5634766,-8.605957,0.0,0.0,0.0,91.21948,69.98291,-177.08313
1769245229901,-0.93652344,0.3227539,0.017578125,-7.751465,2.5634766,-8.605957,0.0,0.0,0.0,90.95581,71.02112,-175.04517
1769245229988,-0.97998047,0.24707031,0.05126953,8.117676,4.8217773,-10.559082,0.0,0.0,0.0,90.95581,71.02112,-175.04517
1769245229999,-0.97998047,0.24707031,0.05126953,8.117676,4.8217773,-10.559082,0.0,0.0,0.0,92.04895,71.94946,-172.51831
1769245230088,-0.9995117,0.296875,0.0043945312,-4.4555664,-1.3427734,-0.6713867,0.0,0.0,0.0,92.04895,71.94946,-172.51831
1769245230099,-0.9995117,0.296875,0.0043945312,-4.4555664,-1.3427734,-0.6713867,0.0,0.0,0.0,91.02173,72.44385,-171.557
1769245230187,-0.9370117,0.2915039,-0.019042969,19.592285,-2.8076172,-1.8310547,0.0,0.0,0.0,91.02173,72.44385,-171.557
1769245230199,-0.9370117,0.2915039,-0.019042969,19.592285,-2.8076172,-1.8310547,0.0,0.0,0.0,91.23596,72.559204,-170.755
1769245230287,-0.96484375,0.32128906,-0.052734375,31.066895,0.18310547,11.901855,0.0,0.0,0.0,91.23596,72.559204,-170.755
1769245230298,-0.96484375,0.32128906,-0.052734375,31.066895,0.18310547,11.901855,0.0,0.0,0.0,93.56506,72.06482,-169.44214
1769245230387,-0.95703125,0.2548828,-0.0146484375,49.01123,7.080078,8.972168,0.0,0.0,0.0,93.56506,72.06482,-169.44214
1769245230398,-0.95703125,0.2548828,-0.0146484375,49.01123,7.080078,8.972168,0.0,0.0,0.0,98.34961,70.8728,-167.10205
1769245230486,-0.95654297,0.2915039,-0.049316406,33.447266,1.159668,2.0751953,0.0,0.0,0.0,98.34961,70.8728,-167.10205
1769245230498,-0.95654297,0.2915039,-0.049316406,33.447266,1.159668,2.0751953,0.0,0.0,0.0,101.47522,70.10925,-164.98718
1769245230586,-0.92529297,0.30517578,-0.04248047,3.9672852,-5.79834,3.2958984,0.0,0.0,0.0,101.47522,70.10925,-164.98718
1769245230598,-0.92529297,0.30517578,-0.04248047,3.9672852,-5.79834,3.2958984,0.0,0.0,0.0,102.76611,70.19165,-164.21814
1769245230686,-0.9199219,0.37890625,-0.064941406,9.033203,-1.0375977,4.4555664,0.0,0.0,0.0,102.76611,70.19165,-164.21814
1769245230697,-0.9199219,0.37890625,-0.064941406,9.033203,-1.0375977,4.4555664,0.0,0.0,0.0,102.15637,69.85657,-163.81714
1769245230786,-0.93603516,0.3774414,-0.078125,10.864258,0.24414062,5.3100586,0.0,0.0,0.0,102.15637,69.85657,-163.81714
1769245230797,-0.93603516,0.3774414,-0.078125,10.864258,0.24414062,5.3100586,0.0,0.0,0.0,102.72766,69.28528,-162.73499
1769245230885,-0.9248047,0.35498047,-0.09277344,13.61084,0.18310547,3.6010742,0.0,0.0,0.0,102.72766,69.28528,-162.73499
1769245230897,-0.9248047,0.35498047,-0.09277344,13.61084,0.18310547,3.6010742,0.0,0.0,0.0,103.30444,68.80188,-161.95496
1769245230985,-0.9042969,0.3852539,-0.09277344,22.033691,-3.112793,2.9296875,0.0,0.0,0.0,103.30444,68.80188,-161.95496
1769245230997,-0.9042969,0.3852539,-0.09277344,22.033691,-3.112793,2.9296875,0.0,0.0,0.0,104.644775,68.444824,-160.92773
1769245231085,-0.93847656,0.3725586,-0.06542969,20.507812,-4.5776367,4.211426,0.0,0.0,0.0,104.644775,68.444824,-160.92773
1769245231096,-0.93847656,0.3725586,-0.06542969,20.507812,-4.5776367,4.211426,0.0,0.0,0.0,105.963135,68.12622,-160.51025
1769245231184,-0.91845703,0.3803711,-0.13964844,18.737793,0.36621094,4.638672,0.0,0.0,0.0,105.963135,68.12622,-160.51025
1769245231196,-0.91845703,0.3803711,-0.13964844,18.737793,0.36621094,4.638672,0.0,0.0,0.0,106.14441,67.62634,-160.38391
1769245231284,-0.9111328,0.40234375,-0.11816406,11.657715,-5.2490234,6.4086914,0.0,0.0,0.0,106.14441,67.62634,-160.38391
1769245231296,-0.9111328,0.40234375,-0.11816406,11.657715,-5.2490234,6.4086914,0.0,0.0,0.0,106.73767,67.16492,-159.906
1769245231384,-0.9160156,0.39697266,-0.11767578,17.150879,-6.958008,3.6010742,0.0,0.0,0.0,106.73767,67.16492,-159.906
1769245231395,-0.9160156,0.39697266,-0.11767578,17.150879,-6.958008,3.6010742,0.0,0.0,0.0,106.94641,66.68152,-159.84009
1769245231484,-0.91796875,0.4013672,-0.13232422,16.113281,-9.70459,1.159668,0.0,0.0,0.0,106.94641,66.68152,-159.84009
1769245231495,-0.91796875,0.4013672,-0.13232422,16.113281,-9.70459,1.159668,0.0,0.0,0.0,106.5509,66.659546,-160.46631
1769245231583,-0.9140625,0.3930664,-0.11328125,17.822266,-9.94873,-1.4038086,0.0,0.0,0.0,106.5509,66.659546,-160.46631
1769245231595,-0.9140625,0.3930664,-0.11328125,17.822266,-9.94873,-1.4038086,0.0,0.0,0.0,106.36963,66.85181,-161.09802
1769245231683,-0.9169922,0.3803711,-0.13623047,15.136719,-6.225586,-5.92041,0.0,0.0,0.0,106.36963,66.85181,-161.09802
1769245231695,-0.9169922,0.3803711,-0.13623047,15.136719,-6.225586,-5.92041,0.0,0.0,0.0,105.7489,67.20337,-161.64185
1769245231783,-0.93652344,0.35791016,-0.13330078,7.1411133,-1.953125,-11.169434,0.0,0.0,0.0,105.7489,67.20337,-161.64185
1769245231794,-0.93652344,0.35791016,-0.13330078,7.1411133,-1.953125,-11.169434,0.0,0.0,0.0,106.73218,68.02734,-160.40039
1769245231882,-0.92285156,0.35498047,-0.13427734,-8.422852,6.1035156,-14.038086,0.0,0.0,0.0,106.73218,68.02734,-160.40039
1769245231894,-0.92285156,0.35498047,-0.13427734,-8.422852,6.1035156,-14.038086,0.0,0.0,0.0,108.687744,69.12048,-156.87927
1769245231982,-0.98095703,0.3178711,-0.14404297,-14.160156,8.728027,-18.188477,0.0,0.0,0.0,108.687744,69.12048,-156.87927
1769245231994,-0.98095703,0.3178711,-0.14404297,-14.160156,8.728027,-18.188477,0.0,0.0,0.0,111.00037,70.1532,-151.43005
1769245232082,-0.9638672,0.31054688,-0.14648438,-22.521973,4.9438477,-12.451172,0.0,0.0,0.0,111.00037,70.1532,-151.43005
1769245232094,-0.9638672,0.31054688,-0.14648438,-22.521973,4.9438477,-12.451172,0.0,0.0,0.0,112.01111,71.44409,-147.48047
1769245232182,-0.92871094,0.26757812,-0.1015625,-19.470215,6.1035156,-12.634277,0.0,0.0,0.0,112.01111,71.44409,-147.48047
1769245232193,-0.92871094,0.26757812,-0.1015625,-19.470215,6.1035156,-12.634277,0.0,0.0,0.0,114.191895,72.36145,-142.28943
1769245232281,-0.9667969,0.2529297,-0.12646484,-22.277832,8.7890625,-13.916016,0.0,0.0,0.0,114.191895,72.36145,-142.28943
1769245232294,-0.9667969,0.2529297,-0.12646484,-22.277832,8.7890625,-13.916016,0.0,0.0,0.0,115.73547,73.097534,-137.22473
1769245232381,-0.96972656,0.2319336,-0.10107422,-24.780273,6.1035156,-15.136719,0.0,0.0,0.0,115.73547,73.097534,-137.22473
1769245232393,-0.96972656,0.2319336,-0.10107422,-24.780273,6.1035156,-15.136719,0.0,0.0,0.0,118.168945,74.13025,-131.49536
1769245232481,-0.9658203,0.22070312,-0.123046875,-26.97754,3.0517578,-11.108398,0.0,0.0,0.0,118.168945,74.13025,-131.49536
1769245232492,-0.9658203,0.22070312,-0.123046875,-26.97754,3.0517578,-11.108398,0.0,0.0,0.0,118.43811,75.04761,-127.64465
1769245232580,-0.97558594,0.17480469,-0.060546875,-34.179688,5.9814453,-6.4086914,0.0,0.0,0.0,118.43811,75.04761,-127.64465
1769245232592,-0.97558594,0.17480469,-0.060546875,-34.179688,5.9814453,-6.4086914,0.0,0.0,0.0,118.49304,75.6189,-124.107056
1769245232680,-0.9941406,0.18798828,-0.083984375,-47.851562,8.178711,-7.5683594,0.0,0.0,0.0,118.49304,75.6189,-124.107056
1769245232692,-0.9941406,0.18798828,-0.083984375,-47.851562,8.178711,-7.5683594,0.0,0.0,0.0,117.50427,75.910034,-120.267334
1769245232780,-0.99121094,0.19238281,-0.076171875,-53.222656,12.023926,-7.1411133,0.0,0.0,0.0,117.50427,75.910034,-120.267334
1769245232791,-0.99121094,0.19238281,-0.076171875,-53.222656,12.023926,-7.1411133,0.0,0.0,0.0,117.70203,76.12976,-114.77417
1769245232880,-0.9555664,0.17919922,-0.08544922,-49.25537,8.544922,-4.760742,0.0,0.0,0.0,117.70203,76.12976,-114.77417
1769245232891,-0.9555664,0.17919922,-0.08544922,-49.25537,8.544922,-4.760742,0.0,0.0,0.0,117.020874,76.40442,-110.72571
1769245232979,-0.9428711,0.18652344,-0.07714844,-50.04883,12.023926,0.61035156,0.0,0.0,0.0,117.020874,76.40442,-110.72571
1769245232991,-0.9428711,0.18652344,-0.07714844,-50.04883,12.023926,0.61035156,0.0,0.0,0.0,116.51001,76.12976,-106.98486
1769245233079,-0.96777344,0.20751953,-0.06982422,-59.143066,10.986328,0.061035156,0.0,0.0,0.0,116.51001,76.12976,-106.98486
1769245233090,-0.96777344,0.20751953,-0.06982422,-59.143066,10.986328,0.061035156,0.0,0.0,0.0,115.46631,75.5365,-103.78235
1769245233179,-1.0219727,0.17578125,-0.080078125,-51.940918,13.977051,-2.380371,0.0,0.0,0.0,115.46631,75.5365,-103.78235
1769245233190,-1.0219727,0.17578125,-0.080078125,-51.940918,13.977051,-2.380371,0.0,0.0,0.0,115.06531,75.05859,-100.184326
1769245233278,-1.0024414,0.24023438,-0.111816406,-49.987793,12.084961,-4.760742,0.0,0.0,0.0,115.06531,75.05859,-100.184326
1769245233290,-1.0024414,0.24023438,-0.111816406,-49.987793,12.084961,-4.760742,0.0,0.0,0.0,115.37842,75.05859,-96.63574
1769245233378,-0.9433594,0.23730469,-0.10595703,-39.001465,7.080078,-9.338379,0.0,0.0,0.0,115.37842,75.05859,-96.63574
1769245233390,-0.9433594,0.23730469,-0.10595703,-39.001465,7.080078,-9.338379,0.0,0.0,0.0,115.70801,75.39917,-94.63074
1769245233478,-0.9448242,0.23925781,-0.12792969,-25.146484,-3.6010742,-13.000488,0.0,0.0,0.0,115.70801,75.39917,-94.63074
1769245233489,-0.9448242,0.23925781,-0.12792969,-25.146484,-3.6010742,-13.000488,0.0,0.0,0.0,114.906006,76.30554,-95.55359
1769245233577,-0.9580078,0.2241211,-0.119628906,-2.8076172,-7.751465,-7.6904297,0.0,0.0,0.0,114.906006,76.30554,-95.55359
1769245233589,-0.9580078,0.2241211,-0.119628906,-2.8076172,-7.751465,-7.6904297,0.0,0.0,0.0,113.549194,77.492065,-99.558105
1769245233678,-0.9951172,0.13623047,-0.056152344,-13.244629,4.638672,0.18310547,0.0,0.0,0.0,113.549194,77.492065,-99.558105
1769245233689,-0.9951172,0.13623047,-0.056152344,-13.244629,4.638672,0.18310547,0.0,0.0,0.0,111.92322,77.547,-104.23828
1769245233777,-0.97314453,0.18017578,-0.12109375,-1.5258789,3.4179688,-1.8310547,0.0,0.0,0.0,111.92322,77.547,-104.23828
1769245233788,-0.97314453,0.18017578,-0.12109375,-1.5258789,3.4179688,-1.8310547,0.0,0.0,0.0,112.64282,77.492065,-105.97412
1769245233877,-0.97753906,0.16992188,-0.11230469,-8.728027,3.479004,1.5258789,0.0,0.0,0.0,112.64282,77.492065,-105.97412
1769245233888,-0.97753906,0.16992188,-0.11230469,-8.728027,3.479004,1.5258789,0.0,0.0,0.0,113.71399,77.22839,-107.83081
1769245233976,-0.9785156,0.1772461,-0.100097656,-9.70459,3.6010742,0.9765625,0.0,0.0,0.0,113.71399,77.22839,-107.83081
1769245233988,-0.9785156,0.1772461,-0.100097656,-9.70459,3.6010742,0.9765625,0.0,0.0,0.0,114.6698,76.99219,-109.46777
1769245234076,-0.9824219,0.18017578,-0.11035156,-12.6953125,6.5307617,-1.2817383,0.0,0.0,0.0,114.6698,76.99219,-109.46777
1769245234088,-0.9824219,0.18017578,-0.11035156,-12.6953125,6.5307617,-1.2817383,0.0,0.0,0.0,116.16394,76.78894,-110.18738
1769245234176,-0.97314453,0.19189453,-0.109375,-12.268066,6.7749023,-2.9907227,0.0,0.0,0.0,116.16394,76.78894,-110.18738
1769245234187,-0.97314453,0.19189453,-0.109375,-12.268066,6.7749023,-2.9907227,0.0,0.0,0.0,118.097534,76.75049,-110.43457
1769245234275,-0.9614258,0.1850586,-0.10546875,-14.282227,6.4697266,-1.4038086,0.0,0.0,0.0,118.097534,76.75049,-110.43457
1769245234287,-0.9614258,0.1850586,-0.10546875,-14.282227,6.4697266,-1.4038086,0.0,0.0,0.0,120.1355,76.640625,-110.62134
