timestamp,accX,accY,accZ,gyroX,gyroY,gyroZ,magX,magY,magZ,roll,pitch,yaw
1768029907395,-0.96191406,0.16259766,-0.15722656,9.277344,-3.540039,3.6621094,0.0,0.0,0.0,144.57458,77.28882,66.676025
1768029907407,-0.96191406,0.16259766,-0.15722656,9.277344,-3.540039,3.6621094,0.0,0.0,0.0,141.89392,78.11279,62.929688
1768029907495,-0.9995117,0.09765625,-0.16552734,4.699707,6.225586,2.6245117,0.0,0.0,0.0,141.89392,78.11279,62.929688
1768029907506,-0.9995117,0.09765625,-0.16552734,4.699707,6.225586,2.6245117,0.0,0.0,0.0,142.68494,77.733765,62.561646
1768029907594,-0.97753906,0.11767578,-0.19482422,-0.061035156,4.3945312,3.0517578,0.0,0.0,0.0,142.68494,77.733765,62.561646
1768029907606,-0.97753906,0.11767578,-0.19482422,-0.061035156,4.3945312,3.0517578,0.0,0.0,0.0,143.95935,77.12402,63.517456
1768029907695,-0.9663086,0.1352539,-0.15185547,2.6855469,-4.8828125,3.2958984,0.0,0.0,0.0,143.95935,77.12402,63.517456
1768029907705,-0.9663086,0.1352539,-0.15185547,2.6855469,-4.8828125,3.2958984,0.0,0.0,0.0,142.76733,77.074585,61.92444
1768029907794,-0.98535156,0.13134766,-0.13964844,0.8544922,-6.1035156,1.159668,0.0,0.0,0.0,142.76733,77.074585,61.92444
1768029907805,-0.98535156,0.13134766,-0.13964844,0.8544922,-6.1035156,1.159668,0.0,0.0,0.0,140.58655,77.53601,59.35913
1768029907895,-1.0126953,0.13085938,-0.23144531,-3.1738281,2.5634766,2.9907227,0.0,0.0,0.0,140.58655,77.53601,59.35913
1768029907905,-1.0126953,0.13085938,-0.23144531,-3.1738281,2.5634766,2.9907227,0.0,0.0,0.0,139.18579,77.53052,57.9364
1768029907993,-0.95166016,0.1328125,-0.13134766,14.160156,1.953125,-0.8544922,0.0,0.0,0.0,139.18579,77.53052,57.9364
1768029908004,-0.95166016,0.1328125,-0.13134766,14.160156,1.953125,-0.8544922,0.0,0.0,0.0,141.22375,77.18994,58.94165
1768029908093,-1.0063477,0.11816406,-0.17919922,7.873535,-5.2490234,3.4179688,0.0,0.0,0.0,141.22375,77.18994,58.94165
1768029908104,-1.0063477,0.11816406,-0.17919922,7.873535,-5.2490234,3.4179688,0.0,0.0,0.0,139.27368,77.33276,56.206055
1768029908192,-0.96875,0.13867188,-0.18261719,2.8076172,-5.065918,3.540039,0.0,0.0,0.0,139.27368,77.33276,56.206055
1768029908204,-0.96875,0.13867188,-0.18261719,2.8076172,-5.065918,3.540039,0.0,0.0,0.0,138.41675,77.475586,54.58008
1768029908292,-0.98583984,0.16796875,-0.18408203,9.460449,-2.6855469,6.286621,0.0,0.0,0.0,138.41675,77.475586,54.58008
1768029908304,-0.98583984,0.16796875,-0.18408203,9.460449,-2.6855469,6.286621,0.0,0.0,0.0,137.0874,77.371216,52.44873
1768029908392,-0.96533203,0.16015625,-0.17089844,15.930176,1.2817383,3.6621094,0.0,0.0,0.0,137.0874,77.371216,52.44873
1768029908403,-0.96533203,0.16015625,-0.17089844,15.930176,1.2817383,3.6621094,0.0,0.0,0.0,137.98279,76.94824,51.882935
1768029908492,-0.9506836,0.14257812,-0.1665039,22.033691,-2.8076172,3.7841797,0.0,0.0,0.0,137.98279,76.94824,51.882935
1768029908503,-0.9506836,0.14257812,-0.1665039,22.033691,-2.8076172,3.7841797,0.0,0.0,0.0,137.05444,76.72302,49.367065
1768029908591,-0.9736328,0.17333984,-0.22949219,11.59668,-1.6479492,6.958008,0.0,0.0,0.0,137.05444,76.72302,49.367065
1768029908603,-0.9736328,0.17333984,-0.22949219,11.59668,-1.6479492,6.958008,0.0,0.0,0.0,134.46167,76.673584,45.461426
1768029908691,-0.9614258,0.17480469,-0.22460938,16.723633,10.192871,4.5776367,0.0,0.0,0.0,134.46167,76.673584,45.461426
1768029908703,-0.9614258,0.17480469,-0.22460938,16.723633,10.192871,4.5776367,0.0,0.0,0.0,136.46667,75.84412,45.774536
1768029908791,-1.1313477,0.21142578,-0.26513672,31.00586,19.77539,1.0375977,0.0,0.0,0.0,136.46667,75.84412,45.774536
1768029908803,-1.1313477,0.21142578,-0.26513672,31.00586,19.77539,1.0375977,0.0,0.0,0.0,141.61377,74.35547,48.6969
1768029908891,-1.0151367,0.2998047,-0.20361328,29.785156,-10.192871,17.63916,0.0,0.0,0.0,141.61377,74.35547,48.6969
1768029908902,-1.0151367,0.2998047,-0.20361328,29.785156,-10.192871,17.63916,0.0,0.0,0.0,143.75061,73.29529,47.790527
1768029908990,-0.9189453,0.17236328,-0.076660156,31.799316,-2.2583008,5.79834,0.0,0.0,0.0,143.75061,73.29529,47.790527
1768029909002,-0.9189453,0.17236328,-0.076660156,31.799316,-2.2583008,5.79834,0.0,0.0,0.0,144.6405,72.86133,45.131836
1768029909090,-0.9477539,0.1977539,-0.17529297,28.137207,-4.699707,0.9765625,0.0,0.0,0.0,144.6405,72.86133,45.131836
1768029909101,-0.9477539,0.1977539,-0.17529297,28.137207,-4.699707,0.9765625,0.0,0.0,0.0,144.12415,73.19092,42.593994
1768029909190,-0.9277344,0.20898438,-0.19482422,21.66748,-2.5634766,1.0375977,0.0,0.0,0.0,144.12415,73.19092,42.593994
1768029909201,-0.9277344,0.20898438,-0.19482422,21.66748,-2.5634766,1.0375977,0.0,0.0,0.0,145.2832,73.47656,41.522827
1768029909290,-0.9165039,0.19335938,-0.17333984,31.738281,-4.5166016,5.065918,0.0,0.0,0.0,145.2832,73.47656,41.522827
1768029909301,-0.9165039,0.19335938,-0.17333984,31.738281,-4.5166016,5.065918,0.0,0.0,0.0,145.1294,73.57544,39.07837
1768029909389,-1.0117188,0.1694336,-0.21191406,37.04834,-1.6479492,5.554199,0.0,0.0,0.0,145.1294,73.57544,39.07837
1768029909401,-1.0117188,0.1694336,-0.21191406,37.04834,-1.6479492,5.554199,0.0,0.0,0.0,144.45374,73.58093,35.50232
1768029909489,-0.9501953,0.15771484,-0.1875,37.475586,-5.554199,4.211426,0.0,0.0,0.0,144.45374,73.58093,35.50232
1768029909500,-0.9501953,0.15771484,-0.1875,37.475586,-5.554199,4.211426,0.0,0.0,0.0,146.37634,73.4436,33.964233
1768029909589,-0.97216797,0.1484375,-0.17138672,25.512695,-9.521484,6.4697266,0.0,0.0,0.0,146.37634,73.4436,33.964233
1768029909600,-0.97216797,0.1484375,-0.17138672,25.512695,-9.521484,6.4697266,0.0,0.0,0.0,146.28296,73.899536,30.74524
1768029909688,-0.96191406,0.14501953,-0.19482422,31.37207,-15.50293,11.474609,0.0,0.0,0.0,146.28296,73.899536,30.74524
1768029909700,-0.96191406,0.14501953,-0.19482422,31.37207,-15.50293,11.474609,0.0,0.0,0.0,142.34436,74.51477,24.136963
1768029909788,-0.9863281,0.11816406,-0.19726562,23.80371,-10.986328,6.8359375,0.0,0.0,0.0,142.34436,74.51477,24.136963
1768029909800,-0.9863281,0.11816406,-0.19726562,23.80371,-10.986328,6.8359375,0.0,0.0,0.0,140.52612,74.93225,19.423828
1768029909888,-0.99560547,0.15039062,-0.2553711,14.282227,-0.24414062,5.6152344,0.0,0.0,0.0,140.52612,74.93225,19.423828
1768029909899,-0.99560547,0.15039062,-0.2553711,14.282227,-0.24414062,5.6152344,0.0,0.0,0.0,139.13635,75.03113,16.402588
1768029909988,-0.9746094,0.1821289,-0.19970703,19.714355,11.657715,7.385254,0.0,0.0,0.0,139.13635,75.03113,16.402588
1768029909999,-0.9746094,0.1821289,-0.19970703,19.714355,11.657715,7.385254,0.0,0.0,0.0,140.4602,74.10278,16.726685
1768029910087,-0.9609375,0.11621094,-0.20458984,22.644043,4.638672,5.1879883,0.0,0.0,0.0,140.4602,74.10278,16.726685
1768029910099,-0.9609375,0.11621094,-0.20458984,22.644043,4.638672,5.1879883,0.0,0.0,0.0,144.16809,73.14697,17.693481
1768029910187,-0.95410156,0.1821289,-0.24316406,6.8359375,-9.460449,11.535645,0.0,0.0,0.0,144.16809,73.14697,17.693481
1768029910199,-0.95410156,0.1821289,-0.24316406,6.8359375,-9.460449,11.535645,0.0,0.0,0.0,142.42126,72.993164,14.37561
1768029910287,-0.95410156,0.21728516,-0.23535156,10.375977,-3.90625,10.253906,0.0,0.0,0.0,142.42126,72.993164,14.37561
1768029910298,-0.95410156,0.21728516,-0.23535156,10.375977,-3.90625,10.253906,0.0,0.0,0.0,140.20203,72.87781,10.491943
1768029910386,-0.95654297,0.203125,-0.20263672,13.244629,-6.225586,10.375977,0.0,0.0,0.0,140.20203,72.87781,10.491943
1768029910398,-0.95654297,0.203125,-0.20263672,13.244629,-6.225586,10.375977,0.0,0.0,0.0,137.84546,72.526245,6.366577
1768029910486,-0.94140625,0.24023438,-0.19335938,8.666992,-7.080078,10.498047,0.0,0.0,0.0,137.84546,72.526245,6.366577
1768029910498,-0.94140625,0.24023438,-0.19335938,8.666992,-7.080078,10.498047,0.0,0.0,0.0,135.54382,72.1582,2.6696777
1768029910586,-0.9194336,0.24511719,-0.15576172,12.939453,-14.770508,5.6762695,0.0,0.0,0.0,135.54382,72.1582,2.6696777
1768029910597,-0.9194336,0.24511719,-0.15576172,12.939453,-14.770508,5.6762695,0.0,0.0,0.0,131.90186,72.16919,-2.2961426
1768029910686,-1.0,0.25195312,-0.2475586,15.441895,1.953125,-5.1879883,0.0,0.0,0.0,131.90186,72.16919,-2.2961426
1768029910697,-1.0,0.25195312,-0.2475586,15.441895,1.953125,-5.1879883,0.0,0.0,0.0,129.42993,72.388916,-5.822754
1768029910785,-0.9067383,0.2705078,-0.16601562,26.489258,-5.2490234,-13.305664,0.0,0.0,0.0,129.42993,72.388916,-5.822754
1768029910797,-0.9067383,0.2705078,-0.16601562,26.489258,-5.2490234,-13.305664,0.0,0.0,0.0,134.20349,73.21289,-3.5595703
1768029910885,-0.9013672,0.2836914,-0.21044922,54.626465,10.681152,-2.0751953,0.0,0.0,0.0,134.20349,73.21289,-3.5595703
1768029910897,-0.9013672,0.2836914,-0.21044922,54.626465,10.681152,-2.0751953,0.0,0.0,0.0,140.95459,74.06433,-0.63171387
1768029910985,-0.99121094,0.2133789,-0.30517578,40.039062,-0.18310547,1.159668,0.0,0.0,0.0,140.95459,74.06433,-0.63171387
1768029910998,-0.99121094,0.2133789,-0.30517578,40.039062,-0.18310547,1.159668,0.0,0.0,0.0,146.27747,73.723755,-0.087890625
1768029911085,-0.95996094,0.19042969,-0.25976562,36.56006,0.0,8.117676,0.0,0.0,0.0,146.27747,73.723755,-0.087890625
1768029911096,-0.95996094,0.19042969,-0.25976562,36.56006,0.0,8.117676,0.0,0.0,0.0,147.48596,73.498535,-2.944336
1768029911184,-0.98828125,0.12207031,-0.23583984,21.972656,8.239746,11.901855,0.0,0.0,0.0,147.48596,73.498535,-2.944336
1768029911196,-0.98828125,0.12207031,-0.23583984,21.972656,8.239746,11.901855,0.0,0.0,0.0,149.057,72.1637,-4.8449707
1768029911284,-0.9267578,0.2265625,-0.2006836,31.799316,-6.3476562,11.291504,0.0,0.0,0.0,149.057,72.1637,-4.8449707
1768029911296,-0.9267578,0.2265625,-0.2006836,31.799316,-6.3476562,11.291504,0.0,0.0,0.0,148.44177,71.18591,-8.080444
1768029911384,-0.87841797,0.13232422,-0.23730469,30.822754,-18.371582,11.535645,0.0,0.0,0.0,148.44177,71.18591,-8.080444
1768029911395,-0.87841797,0.13232422,-0.23730469,30.822754,-18.371582,11.535645,0.0,0.0,0.0,146.04126,71.103516,-13.568115
1768029911484,-1.0751953,0.17773438,-0.2548828,20.568848,-35.583496,1.7700195,0.0,0.0,0.0,146.04126,71.103516,-13.568115
1768029911498,-1.0751953,0.17773438,-0.2548828,20.568848,-35.583496,1.7700195,0.0,0.0,0.0,139.25171,72.91626,-22.879028
1768029911583,-0.9472656,0.11767578,-0.18017578,36.92627,-17.028809,-7.446289,0.0,0.0,0.0,139.25171,72.91626,-22.879028
1768029911595,-0.9472656,0.11767578,-0.18017578,36.92627,-17.028809,-7.446289,0.0,0.0,0.0,138.87817,75.426636,-27.06482
1768029911683,-0.99609375,0.114746094,-0.11767578,4.1503906,-15.014648,3.2348633,0.0,0.0,0.0,138.87817,75.426636,-27.06482
1768029911697,-0.99609375,0.114746094,-0.11767578,4.1503906,-15.014648,3.2348633,0.0,0.0,0.0,137.39502,76.88782,-31.069336
1768029911783,-0.98876953,0.14550781,-0.18359375,11.474609,-8.666992,3.6621094,0.0,0.0,0.0,137.39502,76.88782,-31.069336
1768029911794,-0.98876953,0.14550781,-0.18359375,11.474609,-8.666992,3.6621094,0.0,0.0,0.0,133.78052,77.596436,-35.99121
1768029911883,-0.9716797,0.115234375,-0.12695312,13.244629,-10.620117,4.8828125,0.0,0.0,0.0,133.78052,77.596436,-35.99121
1768029911894,-0.9716797,0.115234375,-0.12695312,13.244629,-10.620117,4.8828125,0.0,0.0,0.0,130.81421,77.83264,-40.2594
1768029911982,-0.98828125,0.10546875,-0.13378906,1.5869141,-4.0893555,-0.30517578,0.0,0.0,0.0,130.81421,77.83264,-40.2594
1768029911994,-0.98828125,0.10546875,-0.13378906,1.5869141,-4.0893555,-0.30517578,0.0,0.0,0.0,130.21545,78.167725,-41.940308
1768029912082,-0.96972656,0.20019531,-0.12695312,-3.1738281,1.2817383,5.79834,0.0,0.0,0.0,130.21545,78.167725,-41.940308
1768029912093,-0.96972656,0.20019531,-0.12695312,-3.1738281,1.2817383,5.79834,0.0,0.0,0.0,128.55652,78.07434,-43.258667
1768029912182,-0.9394531,0.1508789,-0.13769531,-10.681152,7.3242188,-3.6010742,0.0,0.0,0.0,128.55652,78.07434,-43.258667
1768029912194,-0.9394531,0.1508789,-0.13769531,-10.681152,7.3242188,-3.6010742,0.0,0.0,0.0,130.1825,77.596436,-41.105347
1768029912281,-1.0170898,0.18408203,-0.13427734,-10.803223,-3.2348633,3.90625,0.0,0.0,0.0,130.1825,77.596436,-41.105347
1768029912293,-1.0170898,0.18408203,-0.13427734,-10.803223,-3.2348633,3.90625,0.0,0.0,0.0,126.326294,77.41516,-43.50586
1768029912381,-0.95996094,0.17871094,-0.12548828,-9.399414,11.108398,-3.2958984,0.0,0.0,0.0,126.326294,77.41516,-43.50586
1768029912392,-0.95996094,0.17871094,-0.12548828,-9.399414,11.108398,-3.2958984,0.0,0.0,0.0,131.17676,77.03613,-38.391724
1768029912481,-0.9614258,0.18408203,-0.11376953,7.9956055,7.873535,-4.8828125,0.0,0.0,0.0,131.17676,77.03613,-38.391724
1768029912492,-0.9614258,0.18408203,-0.11376953,7.9956055,7.873535,-4.8828125,0.0,0.0,0.0,135.30212,76.761475,-34.365234
1768029912580,-0.9711914,0.1875,-0.14160156,8.7890625,0.7324219,0.5493164,0.0,0.0,0.0,135.30212,76.761475,-34.365234
1768029912592,-0.9711914,0.1875,-0.14160156,8.7890625,0.7324219,0.5493164,0.0,0.0,0.0,136.80176,76.69006,-33.689575
1768029912680,-0.97265625,0.13964844,-0.16699219,10.253906,-0.12207031,0.4272461,0.0,0.0,0.0,136.80176,76.69006,-33.689575
1768029912692,-0.97265625,0.13964844,-0.16699219,10.253906,-0.12207031,0.4272461,0.0,0.0,0.0,136.54358,76.657104,-35.073853
1768029912780,-0.9902344,0.1328125,-0.1743164,2.5634766,-2.746582,0.61035156,0.0,0.0,0.0,136.54358,76.657104,-35.073853
1768029912791,-0.9902344,0.1328125,-0.1743164,2.5634766,-2.746582,0.61035156,0.0,0.0,0.0,135.94482,76.79443,-36.243896
1768029912880,-0.9790039,0.14990234,-0.16455078,-0.9765625,-2.319336,0.79345703,0.0,0.0,0.0,135.94482,76.79443,-36.243896
1768029912891,-0.9790039,0.14990234,-0.16455078,-0.9765625,-2.319336,0.79345703,0.0,0.0,0.0,135.69214,76.94824,-36.661377
1768029912979,-0.97558594,0.15673828,-0.15283203,2.8686523,-2.0751953,1.953125,0.0,0.0,0.0,135.69214,76.94824,-36.661377
1768029912991,-0.97558594,0.15673828,-0.15283203,2.8686523,-2.0751953,1.953125,0.0,0.0,0.0,134.9945,76.96472,-37.562256
1768029913079,-0.9838867,0.14990234,-0.15283203,-0.30517578,-4.0893555,0.8544922,0.0,0.0,0.0,134.9945,76.96472,-37.562256
1768029913091,-0.9838867,0.14990234,-0.15283203,-0.30517578,-4.0893555,0.8544922,0.0,0.0,0.0,133.59924,77.11304,-39.16626
1768029913179,-0.97998047,0.15185547,-0.14111328,-1.953125,-0.5493164,-1.2817383,0.0,0.0,0.0,133.59924,77.11304,-39.16626
1768029913191,-0.97998047,0.15185547,-0.14111328,-1.953125,-0.5493164,-1.2817383,0.0,0.0,0.0,133.33008,77.266846,-39.35852
1768029913279,-0.98339844,0.1484375,-0.1508789,-2.319336,2.380371,-2.9907227,0.0,0.0,0.0,133.33008,77.266846,-39.35852
1768029913290,-0.98339844,0.1484375,-0.1508789,-2.319336,2.380371,-2.9907227,0.0,0.0,0.0,133.3081,77.42615,-39.27063
1768029913378,-0.98095703,0.1586914,-0.16503906,-2.6245117,0.6713867,-1.159668,0.0,0.0,0.0,133.3081,77.42615,-39.27063
1768029913390,-0.98095703,0.1586914,-0.16503906,-2.6245117,0.6713867,-1.159668,0.0,0.0,0.0,134.52759,77.43713,-37.88086
1768029913478,-0.98046875,0.14160156,-0.15722656,1.953125,1.7089844,-2.1362305,0.0,0.0,0.0,134.52759,77.43713,-37.88086
1768029913490,-0.98046875,0.14160156,-0.15722656,1.953125,1.7089844,-2.1362305,0.0,0.0,0.0,136.2854,77.420654,-36.26587
1768029913578,-0.96484375,0.1459961,-0.15136719,0.8544922,1.0986328,-1.3427734,0.0,0.0,0.0,136.2854,77.420654,-36.26587
1768029913590,-0.96484375,0.1459961,-0.15136719,0.8544922,1.0986328,-1.3427734,0.0,0.0,0.0,137.52136,77.39319,-35.024414
1768029913678,-0.98046875,0.14648438,-0.17822266,-2.5024414,-2.1972656,0.36621094,0.0,0.0,0.0,137.52136,77.39319,-35.024414
1768029913689,-0.98046875,0.14648438,-0.17822266,-2.5024414,-2.1972656,0.36621094,0.0,0.0,0.0,137.14783,77.49756,-35.31555
1768029913778,-0.97753906,0.14550781,-0.1640625,1.8310547,-1.8310547,0.48828125,0.0,0.0,0.0,137.14783,77.49756,-35.31555
1768029913789,-0.97753906,0.14550781,-0.1640625,1.8310547,-1.8310547,0.48828125,0.0,0.0,0.0,137.03247,77.55798,-35.579224
1768029913877,-0.97998047,0.14794922,-0.16113281,2.2583008,0.24414062,0.61035156,0.0,0.0,0.0,137.03247,77.55798,-35.579224
1768029913888,-0.97998047,0.14794922,-0.16113281,2.2583008,0.24414062,0.61035156,0.0,0.0,0.0,136.45569,77.579956,-36.35376
1768029913977,-0.9736328,0.14892578,-0.140625,2.5024414,-3.7841797,2.2583008,0.0,0.0,0.0,136.45569,77.579956,-36.35376
1768029913988,-0.9736328,0.14892578,-0.140625,2.5024414,-3.7841797,2.2583008,0.0,0.0,0.0,136.38428,77.56897,-36.90857
1768029914076,-0.98095703,0.14746094,-0.14453125,0.5493164,-1.0986328,1.5258789,0.0,0.0,0.0,136.38428,77.56897,-36.90857
1768029914088,-0.98095703,0.14746094,-0.14453125,0.5493164,-1.0986328,1.5258789,0.0,0.0,0.0,135.3241,77.58545,-38.199463
1768029914176,-0.9863281,0.14941406,-0.1694336,-0.30517578,2.0141602,0.18310547,0.0,0.0,0.0,135.3241,77.58545,-38.199463
1768029914188,-0.9863281,0.14941406,-0.1694336,-0.30517578,2.0141602,0.18310547,0.0,0.0,0.0,134.24194,77.53052,-39.10034
1768029914276,-0.97998047,0.14892578,-0.16210938,-3.112793,0.30517578,0.48828125,0.0,0.0,0.0,134.24194,77.53052,-39.10034
1768029914287,-0.97998047,0.14892578,-0.16210938,-3.112793,0.30517578,0.48828125,0.0,0.0,0.0,134.58252,77.44263,-38.710327
1768029914376,-0.9863281,0.1538086,-0.14746094,-6.0424805,-3.1738281,3.0517578,0.0,0.0,0.0,134.58252,77.44263,-38.710327
1768029914387,-0.9863281,0.1538086,-0.14746094,-6.0424805,-3.1738281,3.0517578,0.0,0.0,0.0,134.08813,77.39868,-39.006958
1768029914475,-0.97509766,0.17285156,-0.12207031,-6.225586,-0.30517578,5.6152344,0.0,0.0,0.0,134.08813,77.39868,-39.006958
1768029914487,-0.97509766,0.17285156,-0.12207031,-6.225586,-0.30517578,5.6152344,0.0,0.0,0.0,131.01196,77.211914,-41.253662
1768029914575,-0.9765625,0.17675781,-0.13427734,2.2583008,-4.333496,6.3476562,0.0,0.0,0.0,131.01196,77.211914,-41.253662
1768029914586,-0.9765625,0.17675781,-0.13427734,2.2583008,-4.333496,6.3476562,0.0,0.0,0.0,128.40271,76.849365,-43.813477
1768029914675,-0.98876953,0.18603516,-0.125,-0.18310547,1.3427734,2.6855469,0.0,0.0,0.0,128.40271,76.849365,-43.813477
1768029914686,-0.98876953,0.18603516,-0.125,-0.18310547,1.3427734,2.6855469,0.0,0.0,0.0,126.59546,76.6626,-45.845947
1768029914774,-0.9868164,0.16992188,-0.13623047,-1.0375977,-1.6479492,1.2207031,0.0,0.0,0.0,126.59546,76.6626,-45.845947
1768029914786,-0.9868164,0.16992188,-0.13623047,-1.0375977,-1.6479492,1.2207031,0.0,0.0,0.0,126.28235,76.607666,-46.483154
1768029914874,-0.98046875,0.17675781,-0.13330078,0.7324219,0.91552734,-1.2207031,0.0,0.0,0.0,126.28235,76.607666,-46.483154
1768029914886,-0.98046875,0.17675781,-0.13330078,0.7324219,0.91552734,-1.2207031,0.0,0.0,0.0,126.93054,76.72302,-46.065674
1768029914974,-0.9746094,0.16992188,-0.123535156,1.7089844,-0.36621094,-0.7324219,0.0,0.0,0.0,126.93054,76.72302,-46.065674
1768029914985,-0.9746094,0.16992188,-0.123535156,1.7089844,-0.36621094,-0.7324219,0.0,0.0,0.0,127.611694,76.81091,-45.58777
1768029915074,-0.9785156,0.17871094,-0.140625,-0.79345703,-1.0375977,0.0,0.0,0.0,0.0,127.611694,76.81091,-45.58777
1768029915085,-0.9785156,0.17871094,-0.140625,-0.79345703,-1.0375977,0.0,0.0,0.0,0.0,127.01843,76.93176,-46.170044
1768029915173,-0.9814453,0.18066406,-0.12939453,-1.5258789,-1.8920898,0.91552734,0.0,0.0,0.0,127.01843,76.93176,-46.170044
1768029915185,-0.9814453,0.18066406,-0.12939453,-1.5258789,-1.8920898,0.91552734,0.0,0.0,0.0,126.87561,76.953735,-46.312866
1768029915273,-0.97998047,0.17285156,-0.123535156,-1.953125,-1.4038086,0.9765625,0.0,0.0,0.0,126.87561,76.953735,-46.312866
1768029915285,-0.97998047,0.17285156,-0.123535156,-1.953125,-1.4038086,0.9765625,0.0,0.0,0.0,125.15625,76.97571,-47.84546
1768029915373,-0.9785156,0.18066406,-0.12109375,-2.9296875,0.7324219,-0.4272461,0.0,0.0,0.0,125.15625,76.97571,-47.84546
1768029915385,-0.9785156,0.18066406,-0.12109375,-2.9296875,0.7324219,-0.4272461,0.0,0.0,0.0,124.815674,76.99768,-47.96631
1768029915473,-0.98095703,0.18017578,-0.12158203,-2.4414062,1.5258789,-1.6479492,0.0,0.0,0.0,124.815674,76.99768,-47.96631
1768029915484,-0.98095703,0.18017578,-0.12158203,-2.4414062,1.5258789,-1.6479492,0.0,0.0,0.0,125.24414,77.04712,-47.285156
1768029915572,-0.97802734,0.17480469,-0.12890625,1.5869141,-0.4272461,-1.5258789,0.0,0.0,0.0,125.24414,77.04712,-47.285156
1768029915584,-0.97802734,0.17480469,-0.12890625,1.5869141,-0.4272461,-1.5258789,0.0,0.0,0.0,126.11755,77.10205,-46.279907
1768029915672,-0.9770508,0.1743164,-0.13232422,0.8544922,2.0141602,-1.6479492,0.0,0.0,0.0,126.11755,77.10205,-46.279907
1768029915684,-0.9770508,0.1743164,-0.13232422,0.8544922,2.0141602,-1.6479492,0.0,0.0,0.0,126.52954,77.211914,-45.933838
1768029915772,-0.9819336,0.17138672,-0.13769531,-1.5869141,0.5493164,-0.24414062,0.0,0.0,0.0,126.52954,77.211914,-45.933838
1768029915784,-0.9819336,0.17138672,-0.13769531,-1.5869141,0.5493164,-0.24414062,0.0,0.0,0.0,126.97998,77.23389,-45.53833
1768029915872,-0.9814453,0.17041016,-0.12548828,0.061035156,1.0986328,-1.3427734,0.0,0.0,0.0,126.97998,77.23389,-45.53833
1768029915883,-0.9814453,0.17041016,-0.12548828,0.061035156,1.0986328,-1.3427734,0.0,0.0,0.0,127.77649,77.27234,-44.80774
1768029915971,-0.9819336,0.1665039,-0.140625,3.1738281,3.3569336,-3.0517578,0.0,0.0,0.0,127.77649,77.27234,-44.80774
1768029915983,-0.9819336,0.1665039,-0.140625,3.1738281,3.3569336,-3.0517578,0.0,0.0,0.0,129.06738,77.31079,-43.53882
1768029916071,-0.97509766,0.1640625,-0.14794922,7.385254,7.2631836,-4.4555664,0.0,0.0,0.0,129.06738,77.31079,-43.53882
1768029916083,-0.97509766,0.1640625,-0.14794922,7.385254,7.2631836,-4.4555664,0.0,0.0,0.0,131.73157,77.266846,-41.149292
1768029916171,-0.98046875,0.1459961,-0.14746094,4.3945312,0.30517578,-1.7089844,0.0,0.0,0.0,131.73157,77.266846,-41.149292
1768029916182,-0.98046875,0.1459961,-0.14746094,4.3945312,0.30517578,-1.7089844,0.0,0.0,0.0,135.06592,77.25586,-38.616943
1768029916270,-0.9838867,0.13867188,-0.16845703,6.8969727,2.9296875,-3.2348633,0.0,0.0,0.0,135.06592,77.25586,-38.616943
1768029916282,-0.9838867,0.13867188,-0.16845703,6.8969727,2.9296875,-3.2348633,0.0,0.0,0.0,136.90063,77.31079,-37.29309
1768029916370,-0.97314453,0.1303711,-0.16259766,0.8544922,3.0517578,-2.0141602,0.0,0.0,0.0,136.90063,77.31079,-37.29309
1768029916382,-0.97314453,0.1303711,-0.16259766,0.8544922,3.0517578,-2.0141602,0.0,0.0,0.0,139.04297,77.3053,-35.46936
1768029916470,-0.98046875,0.1538086,-0.16845703,1.0375977,-6.3476562,-0.8544922,0.0,0.0,0.0,139.04297,77.3053,-35.46936
1768029916481,-0.98046875,0.1538086,-0.16845703,1.0375977,-6.3476562,-0.8544922,0.0,0.0,0.0,138.91663,77.45361,-35.738525
1768029916570,-0.98583984,0.14453125,-0.14160156,15.075684,-2.1362305,-6.8359375,0.0,0.0,0.0,138.91663,77.45361,-35.738525
1768029916581,-0.98583984,0.14453125,-0.14160156,15.075684,-2.1362305,-6.8359375,0.0,0.0,0.0,140.8667,77.958984,-34.766235
1768029916669,-0.98339844,0.111816406,-0.14746094,7.3242188,0.6713867,-6.0424805,0.0,0.0,0.0,140.8667,77.958984,-34.766235
1768029916681,-0.98339844,0.111816406,-0.14746094,7.3242188,0.6713867,-6.0424805,0.0,0.0,0.0,143.04749,78.376465,-33.37097
1768029916769,-0.9873047,0.09716797,-0.17236328,0.4272461,3.479004,-5.1879883,0.0,0.0,0.0,143.04749,78.376465,-33.37097
1768029916781,-0.9873047,0.09716797,-0.17236328,0.4272461,3.479004,-5.1879883,0.0,0.0,0.0,146.26099,78.49182,-30.432129
1768029916869,-0.97753906,0.096191406,-0.16699219,-0.9765625,7.019043,-3.479004,0.0,0.0,0.0,146.26099,78.49182,-30.432129
1768029916880,-0.97753906,0.096191406,-0.16699219,-0.9765625,7.019043,-3.479004,0.0,0.0,0.0,148.83728,78.35449,-27.8833
1768029916969,-0.9692383,0.11279297,-0.17333984,-11.84082,6.8969727,-0.24414062,0.0,0.0,0.0,148.83728,78.35449,-27.8833
1768029916980,-0.9692383,0.11279297,-0.17333984,-11.84082,6.8969727,-0.24414062,0.0,0.0,0.0,150.6665,77.79968,-25.22461
1768029917068,-0.97265625,0.111328125,-0.19140625,-11.291504,2.6855469,3.2348633,0.0,0.0,0.0,150.6665,77.79968,-25.22461
1768029917080,-0.97265625,0.111328125,-0.19140625,-11.291504,2.6855469,3.2348633,0.0,0.0,0.0,149.56238,77.39319,-25.268555
1768029917168,-0.9707031,0.11425781,-0.18945312,-7.6293945,4.0283203,4.5776367,0.0,0.0,0.0,149.56238,77.39319,-25.268555
1768029917180,-0.9707031,0.11425781,-0.18945312,-7.6293945,4.0283203,4.5776367,0.0,0.0,0.0,147.99683,76.865845,-26.015625
1768029917268,-0.97753906,0.1381836,-0.18554688,-3.479004,-0.4272461,2.6855469,0.0,0.0,0.0,147.99683,76.865845,-26.015625
1768029917279,-0.97753906,0.1381836,-0.18554688,-3.479004,-0.4272461,2.6855469,0.0,0.0,0.0,145.99731,76.69556,-27.60315
1768029917368,-0.98046875,0.13623047,-0.17822266,-0.9765625,-5.3100586,3.4179688,0.0,0.0,0.0,145.99731,76.69556,-27.60315
1768029917379,-0.98046875,0.13623047,-0.17822266,-0.9765625,-5.3100586,3.4179688,0.0,0.0,0.0,144.29993,76.75049,-29.23462
1768029917467,-0.97558594,0.12646484,-0.171875,1.0375977,-3.479004,2.6245117,0.0,0.0,0.0,144.29993,76.75049,-29.23462
1768029917479,-0.97558594,0.12646484,-0.171875,1.0375977,-3.479004,2.6245117,0.0,0.0,0.0,142.21802,76.87683,-31.360474
1768029917567,-0.9785156,0.12988281,-0.1821289,3.4179688,0.5493164,0.6713867,0.0,0.0,0.0,142.21802,76.87683,-31.360474
1768029917579,-0.9785156,0.12988281,-0.1821289,3.4179688,0.5493164,0.6713867,0.0,0.0,0.0,141.39404,76.91528,-32.261353
1768029917667,-0.9770508,0.1328125,-0.17333984,4.3945312,-0.6713867,1.2207031,0.0,0.0,0.0,141.39404,76.91528,-32.261353
1768029917678,-0.9770508,0.1328125,-0.17333984,4.3945312,-0.6713867,1.2207031,0.0,0.0,0.0,141.36658,76.93176,-32.711792
1768029917766,-0.98095703,0.13134766,-0.17822266,2.746582,-2.319336,0.30517578,0.0,0.0,0.0,141.36658,76.93176,-32.711792
1768029917778,-0.98095703,0.13134766,-0.17822266,2.746582,-2.319336,0.30517578,0.0,0.0,0.0,141.12488,77.03064,-33.305054
1768029917866,-0.9790039,0.13232422,-0.1772461,-1.0375977,-4.0283203,1.7700195,0.0,0.0,0.0,141.12488,77.03064,-33.305054
1768029917878,-0.9790039,0.13232422,-0.1772461,-1.0375977,-4.0283203,1.7700195,0.0,0.0,0.0,140.37231,77.25037,-34.266357
1768029917966,-0.98339844,0.1508789,-0.12402344,-0.18310547,-16.723633,3.9672852,0.0,0.0,0.0,140.37231,77.25037,-34.266357
1768029917978,-0.98339844,0.1508789,-0.12402344,-0.18310547,-16.723633,3.9672852,0.0,0.0,0.0,136.57654,77.81616,-38.111572
1768029918066,-0.98339844,0.14013672,-0.12646484,7.019043,5.79834,-3.7841797,0.0,0.0,0.0,136.57654,77.81616,-38.111572
1768029918077,-0.98339844,0.14013672,-0.12646484,7.019043,5.79834,-3.7841797,0.0,0.0,0.0,134.98352,78.079834,-39.60022
1768029918165,-0.9951172,0.13623047,-0.16601562,-6.7749023,-3.479004,2.5024414,0.0,0.0,0.0,134.98352,78.079834,-39.60022
1768029918177,-0.9951172,0.13623047,-0.16601562,-6.7749023,-3.479004,2.5024414,0.0,0.0,0.0,134.17603,78.17871,-40.352783
1768029918265,-0.99072266,0.1459961,-0.12597656,-1.3427734,-3.6621094,1.5869141,0.0,0.0,0.0,134.17603,78.17871,-40.352783
1768029918277,-0.99072266,0.1459961,-0.12597656,-1.3427734,-3.6621094,1.5869141,0.0,0.0,0.0,133.65417,78.33801,-41.05591
1768029918365,-0.97753906,0.1459961,-0.14453125,3.3569336,2.9907227,-0.61035156,0.0,0.0,0.0,133.65417,78.33801,-41.05591
1768029918376,-0.97753906,0.1459961,-0.14453125,3.3569336,2.9907227,-0.61035156,0.0,0.0,0.0,133.5553,78.29956,-41.209717
1768029918465,-0.97998047,0.14892578,-0.12548828,2.4414062,4.8217773,-1.6479492,0.0,0.0,0.0,133.5553,78.29956,-41.209717
1768029918476,-0.97998047,0.14892578,-0.12548828,2.4414062,4.8217773,-1.6479492,0.0,0.0,0.0,136.27441,78.079834,-38.74878
1768029918564,-0.9814453,0.13916016,-0.15820312,-0.4272461,3.9672852,-0.48828125,0.0,0.0,0.0,136.27441,78.079834,-38.74878
1768029918576,-0.9814453,0.13916016,-0.15820312,-0.4272461,3.9672852,-0.48828125,0.0,0.0,0.0,137.53235,77.821655,-37.348022
1768029918664,-0.9760742,0.13964844,-0.15527344,2.0751953,-0.24414062,0.61035156,0.0,0.0,0.0,137.53235,77.821655,-37.348022
1768029918675,-0.9760742,0.13964844,-0.15527344,2.0751953,-0.24414062,0.61035156,0.0,0.0,0.0,138.00476,77.733765,-36.968994
1768029918764,-0.9746094,0.12792969,-0.12988281,0.7324219,-5.859375,2.1362305,0.0,0.0,0.0,138.00476,77.733765,-36.968994
1768029918775,-0.9746094,0.12792969,-0.12988281,0.7324219,-5.859375,2.1362305,0.0,0.0,0.0,137.14233,77.82715,-38.111572
1768029918863,-0.98095703,0.1484375,-0.15429688,-2.2583008,-0.30517578,2.6245117,0.0,0.0,0.0,137.14233,77.82715,-38.111572
1768029918875,-0.98095703,0.1484375,-0.15429688,-2.2583008,-0.30517578,2.6245117,0.0,0.0,0.0,134.95056,77.942505,-40.336304
1768029918963,-0.9770508,0.1743164,-0.140625,-8.911133,-5.1879883,6.164551,0.0,0.0,0.0,134.95056,77.942505,-40.336304
1768029918975,-0.9770508,0.1743164,-0.140625,-8.911133,-5.1879883,6.164551,0.0,0.0,0.0,132.46216,77.821655,-42.511597
1768029919063,-0.9873047,0.18115234,-0.10253906,5.554199,2.8686523,-0.4272461,0.0,0.0,0.0,132.46216,77.821655,-42.511597
1768029919074,-0.9873047,0.18115234,-0.10253906,5.554199,2.8686523,-0.4272461,0.0,0.0,0.0,129.58923,77.7063,-44.978027
1768029919163,-0.98779297,0.13330078,-0.12646484,2.4414062,-1.2817383,-1.0375977,0.0,0.0,0.0,129.58923,77.7063,-44.978027
1768029919174,-0.98779297,0.13330078,-0.12646484,2.4414062,-1.2817383,-1.0375977,0.0,0.0,0.0,131.07239,77.69531,-44.08264
1768029919262,-0.9819336,0.14892578,-0.12060547,0.12207031,-1.5869141,-1.8920898,0.0,0.0,0.0,131.07239,77.69531,-44.08264
1768029919274,-0.9819336,0.14892578,-0.12060547,0.12207031,-1.5869141,-1.8920898,0.0,0.0,0.0,131.45691,77.926025,-43.764038
1768029919362,-0.97265625,0.15771484,-0.13769531,2.1362305,1.4038086,-2.1972656,0.0,0.0,0.0,131.45691,77.926025,-43.764038
1768029919374,-0.97265625,0.15771484,-0.13769531,2.1362305,1.4038086,-2.1972656,0.0,0.0,0.0,131.8634,78.079834,-43.33557
1768029919462,-0.9848633,0.14990234,-0.13867188,1.4038086,-1.8310547,0.7324219,0.0,0.0,0.0,131.8634,78.079834,-43.33557
1768029919473,-0.9848633,0.14990234,-0.13867188,1.4038086,-1.8310547,0.7324219,0.0,0.0,0.0,131.97327,78.167725,-43.45642
1768029919562,-0.9814453,0.1538086,-0.10839844,4.0283203,-3.540039,1.5258789,0.0,0.0,0.0,131.97327,78.167725,-43.45642
1768029919573,-0.9814453,0.1538086,-0.10839844,4.0283203,-3.540039,1.5258789,0.0,0.0,0.0,131.3855,78.184204,-44.351807
1768029919661,-0.98095703,0.13867188,-0.1430664,2.9296875,2.8686523,-0.36621094,0.0,0.0,0.0,131.3855,78.184204,-44.351807
1768029919673,-0.98095703,0.13867188,-0.1430664,2.9296875,2.8686523,-0.36621094,0.0,0.0,0.0,130.05615,78.21716,-45.911865
1768029919761,-0.99609375,0.15332031,-0.12597656,-2.1972656,-1.8920898,1.4648438,0.0,0.0,0.0,130.05615,78.21716,-45.911865
1768029919772,-0.99609375,0.15332031,-0.12597656,-2.1972656,-1.8920898,1.4648438,0.0,0.0,0.0,129.99023,78.184204,-46.082153
1768029919861,-0.9785156,0.16357422,-0.11816406,-2.380371,-4.0283203,2.0751953,0.0,0.0,0.0,129.99023,78.184204,-46.082153
1768029919872,-0.9785156,0.16357422,-0.11816406,-2.380371,-4.0283203,2.0751953,0.0,0.0,0.0,128.82568,78.25012,-47.230225
1768029919960,-0.9824219,0.15625,-0.11328125,-2.0751953,-0.30517578,1.5258789,0.0,0.0,0.0,128.82568,78.25012,-47.230225
1768029919972,-0.9824219,0.15625,-0.11328125,-2.0751953,-0.30517578,1.5258789,0.0,0.0,0.0,127.6062,78.22815,-48.273926
1768029920061,-0.9848633,0.17138672,-0.12695312,-3.6621094,3.1738281,-0.12207031,0.0,0.0,0.0,127.6062,78.22815,-48.273926
1768029920072,-0.9848633,0.17138672,-0.12695312,-3.6621094,3.1738281,-0.12207031,0.0,0.0,0.0,125.80444,78.10181,-49.30664
1768029920160,-0.9863281,0.16503906,-0.1303711,-0.91552734,2.1972656,0.0,0.0,0.0,0.0,125.80444,78.10181,-49.30664
1768029920171,-0.9863281,0.16503906,-0.1303711,-0.91552734,2.1972656,0.0,0.0,0.0,0.0,127.666626,77.93701,-47.444458
1768029920260,-0.96728516,0.15185547,-0.11621094,4.272461,1.7089844,-1.2817383,0.0,0.0,0.0,127.666626,77.93701,-47.444458
1768029920271,-0.96728516,0.15185547,-0.11621094,4.272461,1.7089844,-1.2817383,0.0,0.0,0.0,129.19373,77.8656,-46.120605
1768029920360,-0.9873047,0.14501953,-0.123535156,0.9765625,2.0141602,-1.159668,0.0,0.0,0.0,129.19373,77.8656,-46.120605
1768029920371,-0.9873047,0.14501953,-0.123535156,0.9765625,2.0141602,-1.159668,0.0,0.0,0.0,130.30884,77.8656,-45.203247
1768029920459,-0.98779297,0.17236328,-0.13867188,0.91552734,-0.30517578,2.1362305,0.0,0.0,0.0,130.30884,77.8656,-45.203247
1768029920471,-0.98779297,0.17236328,-0.13867188,0.91552734,-0.30517578,2.1362305,0.0,0.0,0.0,130.14954,77.86011,-45.499878
1768029920559,-0.9873047,0.17041016,-0.14404297,4.0283203,-2.1362305,3.7231445,0.0,0.0,0.0,130.14954,77.86011,-45.499878
1768029920571,-0.9873047,0.17041016,-0.14404297,4.0283203,-2.1362305,3.7231445,0.0,0.0,0.0,129.32007,77.629395,-46.571045
1768029920658,-0.9760742,0.1484375,-0.12402344,4.211426,-0.061035156,0.0,0.0,0.0,0.0,129.32007,77.629395,-46.571045
1768029920670,-0.9760742,0.1484375,-0.12402344,4.211426,-0.061035156,0.0,0.0,0.0,0.0,129.10583,77.541504,-47.208252
1768029920758,-0.9785156,0.14208984,-0.1328125,-1.7700195,3.3569336,-2.8686523,0.0,0.0,0.0,129.10583,77.541504,-47.208252
1768029920770,-0.9785156,0.14208984,-0.1328125,-1.7700195,3.3569336,-2.8686523,0.0,0.0,0.0,130.0232,77.63489,-46.241455
1768029920858,-0.9873047,0.14941406,-0.13330078,-1.0986328,-0.6713867,-2.746582,0.0,0.0,0.0,130.0232,77.63489,-46.241455
1768029920869,-0.9873047,0.14941406,-0.13330078,-1.0986328,-0.6713867,-2.746582,0.0,0.0,0.0,131.49536,77.88757,-44.80774
1768029920958,-0.9794922,0.17089844,-0.1328125,0.61035156,-2.380371,0.4272461,0.0,0.0,0.0,131.49536,77.88757,-44.80774
1768029920969,-0.9794922,0.17089844,-0.1328125,0.61035156,-2.380371,0.4272461,0.0,0.0,0.0,131.48438,78.063354,-44.87915
1768029921057,-0.9916992,0.14697266,-0.1303711,3.2958984,0.36621094,0.8544922,0.0,0.0,0.0,131.48438,78.063354,-44.87915
1768029921069,-0.9916992,0.14697266,-0.1303711,3.2958984,0.36621094,0.8544922,0.0,0.0,0.0,131.00098,78.08533,-45.703125
1768029921157,-0.9741211,0.14355469,-0.09472656,-7.2631836,-0.30517578,0.30517578,0.0,0.0,0.0,131.00098,78.08533,-45.703125
1768029921169,-0.9741211,0.14355469,-0.09472656,-7.2631836,-0.30517578,0.30517578,0.0,0.0,0.0,130.53955,78.063354,-45.807495
1768029921257,-0.9824219,0.15185547,-0.12451172,-3.9672852,0.4272461,1.3427734,0.0,0.0,0.0,130.53955,78.063354,-45.807495
1768029921268,-0.9824219,0.15185547,-0.12451172,-3.9672852,0.4272461,1.3427734,0.0,0.0,0.0,129.14429,78.11279,-46.691895
1768029921357,-0.9848633,0.15722656,-0.12695312,-5.065918,1.6479492,0.36621094,0.0,0.0,0.0,129.14429,78.11279,-46.691895
1768029921368,-0.9848633,0.15722656,-0.12695312,-5.065918,1.6479492,0.36621094,0.0,0.0,0.0,129.36401,78.046875,-46.0437
1768029921456,-0.9760742,0.16503906,-0.11816406,-2.5024414,3.1738281,-1.5258789,0.0,0.0,0.0,129.36401,78.046875,-46.0437
1768029921468,-0.9760742,0.16503906,-0.11816406,-2.5024414,3.1738281,-1.5258789,0.0,0.0,0.0,130.7373,77.87109,-44.280396
1768029921556,-0.984375,0.16503906,-0.1274414,-3.6621094,5.859375,0.0,0.0,0.0,0.0,130.7373,77.87109,-44.280396
1768029921568,-0.984375,0.16503906,-0.1274414,-3.6621094,5.859375,0.0,0.0,0.0,0.0,131.59973,77.67883,-43.033447
1768029921656,-0.9741211,0.16015625,-0.14697266,-4.3945312,1.953125,2.2583008,0.0,0.0,0.0,131.59973,77.67883,-43.033447
1768029921667,-0.9741211,0.16015625,-0.14697266,-4.3945312,1.953125,2.2583008,0.0,0.0,0.0,131.781,77.371216,-42.55005
1768029921756,-0.99560547,0.15625,-0.15039062,-2.319336,0.0,1.5869141,0.0,0.0,0.0,131.781,77.371216,-42.55005
1768029921767,-0.99560547,0.15625,-0.15039062,-2.319336,0.0,1.5869141,0.0,0.0,0.0,131.79199,77.18994,-42.401733
1768029921856,-0.97216797,0.15478516,-0.15722656,-0.79345703,-0.18310547,-0.30517578,0.0,0.0,0.0,131.79199,77.18994,-42.401733
1768029921867,-0.97216797,0.15478516,-0.15722656,-0.79345703,-0.18310547,-0.30517578,0.0,0.0,0.0,131.88538,77.18445,-42.253418
1768029921956,-0.9824219,0.16259766,-0.14355469,-2.4414062,5.065918,-2.1972656,0.0,0.0,0.0,131.88538,77.18445,-42.253418
1768029921967,-0.9824219,0.16259766,-0.14355469,-2.4414062,5.065918,-2.1972656,0.0,0.0,0.0,132.88513,77.11853,-40.929565
1768029922055,-0.9682617,0.15722656,-0.14013672,-0.9765625,1.159668,-2.1362305,0.0,0.0,0.0,132.88513,77.11853,-40.929565
1768029922066,-0.9682617,0.15722656,-0.14013672,-0.9765625,1.159668,-2.1362305,0.0,0.0,0.0,133.91235,77.058105,-39.67163
1768029922155,-0.96875,0.1616211,-0.1640625,-0.30517578,0.9765625,-0.18310547,0.0,0.0,0.0,133.91235,77.058105,-39.67163
1768029922166,-0.96875,0.1616211,-0.1640625,-0.30517578,0.9765625,-0.18310547,0.0,0.0,0.0,134.2804,77.08008,-39.188232
1768029922254,-0.9580078,0.16015625,-0.123535156,4.9438477,-10.253906,1.5258789,0.0,0.0,0.0,134.2804,77.08008,-39.188232
1768029922266,-0.9580078,0.16015625,-0.123535156,4.9438477,-10.253906,1.5258789,0.0,0.0,0.0,133.60474,77.24487,-40.248413
1768029922354,-1.0092773,0.15136719,-0.1459961,3.1738281,-6.5307617,0.4272461,0.0,0.0,0.0,133.60474,77.24487,-40.248413
1768029922366,-1.0092773,0.15136719,-0.1459961,3.1738281,-6.5307617,0.4272461,0.0,0.0,0.0,130.79773,77.65686,-43.40149
1768029922454,-0.98583984,0.14892578,-0.14257812,0.0,-0.5493164,-1.3427734,0.0,0.0,0.0,130.79773,77.65686,-43.40149
1768029922465,-0.98583984,0.14892578,-0.14257812,0.0,-0.5493164,-1.3427734,0.0,0.0,0.0,129.50134,77.90405,-44.708862
1768029922553,-0.9926758,0.14941406,-0.122558594,-3.0517578,3.3569336,-0.79345703,0.0,0.0,0.0,129.50134,77.90405,-44.708862
1768029922566,-0.9926758,0.14941406,-0.122558594,-3.0517578,3.3569336,-0.79345703,0.0,0.0,0.0,130.2649,77.88757,-43.670654
1768029922653,-0.9946289,0.16699219,-0.12890625,2.6245117,-2.0141602,-1.0375977,0.0,0.0,0.0,130.2649,77.88757,-43.670654
1768029922665,-0.9946289,0.16699219,-0.12890625,2.6245117,-2.0141602,-1.0375977,0.0,0.0,0.0,131.20972,77.89307,-42.53357
1768029922753,-0.9663086,0.17041016,-0.15136719,5.126953,3.6621094,-1.7700195,0.0,0.0,0.0,131.20972,77.89307,-42.53357
1768029922764,-0.9663086,0.17041016,-0.15136719,5.126953,3.6621094,-1.7700195,0.0,0.0,0.0,131.80847,77.75574,-41.80298
1768029922853,-0.9838867,0.16699219,-0.1303711,-0.61035156,1.2207031,0.61035156,0.0,0.0,0.0,131.80847,77.75574,-41.80298
1768029922864,-0.9838867,0.16699219,-0.1303711,-0.61035156,1.2207031,0.61035156,0.0,0.0,0.0,131.5503,77.57446,-41.940308
1768029922952,-0.9711914,0.17089844,-0.13378906,4.699707,1.2207031,0.36621094,0.0,0.0,0.0,131.5503,77.57446,-41.940308
1768029922964,-0.9711914,0.17089844,-0.13378906,4.699707,1.2207031,0.36621094,0.0,0.0,0.0,131.97876,77.29431,-41.550293
1768029923052,-0.99902344,0.15917969,-0.15820312,-0.18310547,0.0,1.7700195,0.0,0.0,0.0,131.97876,77.29431,-41.550293
1768029923064,-0.99902344,0.15917969,-0.15820312,-0.18310547,0.0,1.7700195,0.0,0.0,0.0,131.41296,77.195435,-42.225952
1768029923152,-0.9741211,0.16845703,-0.13769531,-2.0141602,-0.5493164,1.2817383,0.0,0.0,0.0,131.41296,77.195435,-42.225952
1768029923163,-0.9741211,0.16845703,-0.13769531,-2.0141602,-0.5493164,1.2817383,0.0,0.0,0.0,131.26465,77.145996,-42.434692
1768029923252,-0.97998047,0.16210938,-0.13720703,2.746582,-0.91552734,-0.79345703,0.0,0.0,0.0,131.26465,77.145996,-42.434692
1768029923263,-0.97998047,0.16210938,-0.13720703,2.746582,-0.91552734,-0.79345703,0.0,0.0,0.0,131.61072,77.1405,-42.30835
1768029923351,-0.97509766,0.16015625,-0.13085938,3.479004,2.5024414,-1.159668,0.0,0.0,0.0,131.61072,77.1405,-42.30835
1768029923363,-0.97509766,0.16015625,-0.13085938,3.479004,2.5024414,-1.159668,0.0,0.0,0.0,131.77002,77.17346,-42.30835
1768029923451,-0.9824219,0.15771484,-0.15283203,1.0375977,0.61035156,0.0,0.0,0.0,0.0,131.77002,77.17346,-42.30835
1768029923463,-0.9824219,0.15771484,-0.15283203,1.0375977,0.61035156,0.0,0.0,0.0,0.0,131.64368,77.20642,-42.528076
1768029923551,-0.99609375,0.16503906,-0.20410156,4.5166016,-6.3476562,2.2583008,0.0,0.0,0.0,131.64368,77.20642,-42.528076
1768029923562,-0.99609375,0.16503906,-0.20410156,4.5166016,-6.3476562,2.2583008,0.0,0.0,0.0,131.6217,77.195435,-42.736816
1768029923651,-0.9838867,0.15771484,-0.14941406,-1.4648438,-0.6713867,2.380371,0.0,0.0,0.0,131.6217,77.195435,-42.736816
1768029923662,-0.9838867,0.15771484,-0.14941406,-1.4648438,-0.6713867,2.380371,0.0,0.0,0.0,131.51733,77.1405,-43.181763
1768029923750,-0.96972656,0.16064453,-0.14257812,6.225586,2.5024414,-0.61035156,0.0,0.0,0.0,131.51733,77.1405,-43.181763
1768029923762,-0.96972656,0.16064453,-0.14257812,6.225586,2.5024414,-0.61035156,0.0,0.0,0.0,132.05566,76.970215,-42.857666
1768029923850,-0.9765625,0.16455078,-0.15576172,2.6855469,2.319336,-0.12207031,0.0,0.0,0.0,132.05566,76.970215,-42.857666
1768029923862,-0.9765625,0.16455078,-0.15576172,2.6855469,2.319336,-0.12207031,0.0,0.0,0.0,132.74231,76.86035,-42.37976
1768029923950,-0.97216797,0.15771484,-0.15136719,0.91552734,5.126953,-0.4272461,0.0,0.0,0.0,132.74231,76.86035,-42.37976
1768029923961,-0.97216797,0.15771484,-0.15136719,0.91552734,5.126953,-0.4272461,0.0,0.0,0.0,133.96729,76.673584,-41.330566
1768029924049,-0.9716797,0.16064453,-0.15722656,0.12207031,2.0141602,0.0,0.0,0.0,0.0,133.96729,76.673584,-41.330566
1768029924061,-0.9716797,0.16064453,-0.15722656,0.12207031,2.0141602,0.0,0.0,0.0,0.0,135.57678,76.53076,-39.979248
1768029924149,-0.9790039,0.16455078,-0.15136719,-0.30517578,1.0375977,0.8544922,0.0,0.0,0.0,135.57678,76.53076,-39.979248
1768029924161,-0.9790039,0.16455078,-0.15136719,-0.30517578,1.0375977,0.8544922,0.0,0.0,0.0,135.8844,76.45935,-39.814453
1768029924249,-0.97021484,0.17285156,-0.15966797,7.873535,-2.5634766,0.5493164,0.0,0.0,0.0,135.8844,76.45935,-39.814453
1768029924260,-0.97021484,0.17285156,-0.15966797,7.873535,-2.5634766,0.5493164,0.0,0.0,0.0,136.14807,76.30554,-39.6167
1768029924349,-0.9770508,0.1586914,-0.17138672,2.6245117,-1.5258789,0.0,0.0,0.0,0.0,136.14807,76.30554,-39.6167
1768029924360,-0.9770508,0.1586914,-0.17138672,2.6245117,-1.5258789,0.0,0.0,0.0,0.0,135.62073,76.43738,-40.698853
1768029924448,-0.96777344,0.16455078,-0.1508789,6.286621,3.0517578,-1.4038086,0.0,0.0,0.0,135.62073,76.43738,-40.698853
1768029924460,-0.96777344,0.16455078,-0.1508789,6.286621,3.0517578,-1.4038086,0.0,0.0,0.0,136.86768,76.36047,-39.88037
1768029924548,-0.9838867,0.16113281,-0.1743164,3.1738281,2.0751953,-1.0986328,0.0,0.0,0.0,136.86768,76.36047,-39.88037
1768029924560,-0.9838867,0.16113281,-0.1743164,3.1738281,2.0751953,-1.0986328,0.0,0.0,0.0,138.02124,76.2561,-39.01245
1768029924648,-0.9736328,0.14208984,-0.17626953,-1.5869141,1.8310547,-0.8544922,0.0,0.0,0.0,138.02124,76.2561,-39.01245
1768029924659,-0.9736328,0.14208984,-0.17626953,-1.5869141,1.8310547,-0.8544922,0.0,0.0,0.0,139.22974,76.16821,-37.974243
1768029924748,-0.98046875,0.14550781,-0.18603516,-1.0375977,1.4038086,-0.48828125,0.0,0.0,0.0,139.22974,76.16821,-37.974243
1768029924759,-0.98046875,0.14550781,-0.18603516,-1.0375977,1.4038086,-0.48828125,0.0,0.0,0.0,139.40002,76.12976,-37.55127
1768029924847,-0.9741211,0.15722656,-0.18701172,-3.6621094,1.0986328,-0.79345703,0.0,0.0,0.0,139.40002,76.12976,-37.55127
1768029924859,-0.9741211,0.15722656,-0.18701172,-3.6621094,1.0986328,-0.79345703,0.0,0.0,0.0,140.0647,76.05286,-36.628418
1768029924947,-0.97558594,0.15185547,-0.18310547,-0.48828125,2.0751953,-1.2817383,0.0,0.0,0.0,140.0647,76.05286,-36.628418
1768029924959,-0.97558594,0.15185547,-0.18310547,-0.48828125,2.0751953,-1.2817383,0.0,0.0,0.0,140.34485,76.0199,-36.0791
1768029925047,-0.98095703,0.14453125,-0.18310547,-3.540039,-2.380371,0.79345703,0.0,0.0,0.0,140.34485,76.0199,-36.0791
1768029925058,-0.98095703,0.14453125,-0.18310547,-3.540039,-2.380371,0.79345703,0.0,0.0,0.0,140.31189,76.0968,-36.05713
1768029925147,-0.9711914,0.16357422,-0.17480469,-2.746582,0.061035156,0.48828125,0.0,0.0,0.0,140.31189,76.0968,-36.05713
1768029925158,-0.9711914,0.16357422,-0.17480469,-2.746582,0.061035156,0.48828125,0.0,0.0,0.0,139.8175,76.14075,-36.260376
1768029925246,-0.98046875,0.15039062,-0.19140625,-0.8544922,-0.4272461,0.4272461,0.0,0.0,0.0,139.8175,76.14075,-36.260376
1768029925258,-0.98046875,0.15039062,-0.19140625,-0.8544922,-0.4272461,0.4272461,0.0,0.0,0.0,138.58704,76.206665,-37.265625
1768029925346,-0.9746094,0.14648438,-0.17871094,-1.0986328,-1.159668,0.0,0.0,0.0,0.0,138.58704,76.206665,-37.265625
1768029925357,-0.9746094,0.14648438,-0.17871094,-1.0986328,-1.159668,0.0,0.0,0.0,0.0,138.66943,76.2616,-37.26013
1768029925446,-0.9707031,0.15527344,-0.16699219,-0.5493164,-1.4648438,-0.48828125,0.0,0.0,0.0,138.66943,76.2616,-37.26013
1768029925457,-0.9707031,0.15527344,-0.16699219,-0.5493164,-1.4648438,-0.48828125,0.0,0.0,0.0,139.03198,76.3385,-36.930542
1768029925545,-0.9716797,0.15332031,-0.16210938,1.2817383,-1.6479492,-0.48828125,0.0,0.0,0.0,139.03198,76.3385,-36.930542
1768029925557,-0.9716797,0.15332031,-0.16210938,1.2817383,-1.6479492,-0.48828125,0.0,0.0,0.0,138.81226,76.49231,-37.216187
1768029925645,-0.9770508,0.15185547,-0.17285156,-0.79345703,-1.4038086,0.18310547,0.0,0.0,0.0,138.81226,76.49231,-37.216187
1768029925657,-0.9770508,0.15185547,-0.17285156,-0.79345703,-1.4038086,0.18310547,0.0,0.0,0.0,137.80151,76.66809,-38.17749
1768029925745,-0.97998047,0.15527344,-0.16894531,1.159668,-2.746582,0.24414062,0.0,0.0,0.0,137.80151,76.66809,-38.17749
1768029925756,-0.97998047,0.15527344,-0.16894531,1.159668,-2.746582,0.24414062,0.0,0.0,0.0,137.58179,76.75049,-38.501587
1768029925845,-0.97998047,0.15283203,-0.17480469,0.7324219,0.7324219,-0.8544922,0.0,0.0,0.0,137.58179,76.75049,-38.501587
1768029925856,-0.97998047,0.15283203,-0.17480469,0.7324219,0.7324219,-0.8544922,0.0,0.0,0.0,137.31812,76.832886,-38.74878
1768029925944,-0.9819336,0.14941406,-0.18261719,-4.1503906,0.18310547,0.061035156,0.0,0.0,0.0,137.31812,76.832886,-38.74878
1768029925956,-0.9819336,0.14941406,-0.18261719,-4.1503906,0.18310547,0.061035156,0.0,0.0,0.0,136.82373,76.86035,-38.919067
1768029926044,-0.95703125,0.17041016,-0.12695312,-2.8686523,-7.751465,1.8920898,0.0,0.0,0.0,136.82373,76.86035,-38.919067
1768029926056,-0.95703125,0.17041016,-0.12695312,-2.8686523,-7.751465,1.8920898,0.0,0.0,0.0,135.84595,77.091064,-39.852905
1768029926144,-0.97753906,0.14648438,-0.13232422,4.638672,4.5776367,-4.3945312,0.0,0.0,0.0,135.84595,77.091064,-39.852905
1768029926155,-0.97753906,0.14648438,-0.13232422,4.638672,4.5776367,-4.3945312,0.0,0.0,0.0,136.40625,77.12952,-39.32007
1768029926243,-0.98583984,0.13964844,-0.18701172,-4.5166016,4.8828125,-3.1738281,0.0,0.0,0.0,136.40625,77.12952,-39.32007
1768029926256,-0.98583984,0.13964844,-0.18701172,-4.5166016,4.8828125,-3.1738281,0.0,0.0,0.0,138.15857,77.01965,-37.018433
1768029926343,-0.96875,0.15283203,-0.13720703,-4.699707,-2.4414062,1.159668,0.0,0.0,0.0,138.15857,77.01965,-37.018433
1768029926355,-0.96875,0.15283203,-0.13720703,-4.699707,-2.4414062,1.159668,0.0,0.0,0.0,137.88391,77.02515,-36.749268
1768029926443,-0.9824219,0.15527344,-0.14453125,1.5258789,0.12207031,0.9765625,0.0,0.0,0.0,137.88391,77.02515,-36.749268
1768029926454,-0.9824219,0.15527344,-0.14453125,1.5258789,0.12207031,0.9765625,0.0,0.0,0.0,136.99402,77.05261,-37.47986
1768029926543,-0.97265625,0.1508789,-0.16308594,2.2583008,-1.0986328,0.6713867,0.0,0.0,0.0,136.99402,77.05261,-37.47986
1768029926554,-0.97265625,0.1508789,-0.16308594,2.2583008,-1.0986328,0.6713867,0.0,0.0,0.0,136.35132,77.13501,-38.4906
1768029926642,-0.9838867,0.14404297,-0.15527344,3.6621094,-0.4272461,1.5258789,0.0,0.0,0.0,136.35132,77.13501,-38.4906
1768029926654,-0.9838867,0.14404297,-0.15527344,3.6621094,-0.4272461,1.5258789,0.0,0.0,0.0,136.1206,77.08008,-39.056396
1768029926742,-0.97998047,0.14892578,-0.123535156,-2.1362305,0.91552734,-1.0986328,0.0,0.0,0.0,136.1206,77.08008,-39.056396
1768029926754,-0.97998047,0.14892578,-0.123535156,-2.1362305,0.91552734,-1.0986328,0.0,0.0,0.0,136.8512,77.04712,-38.446655
1768029926842,-0.9760742,0.14160156,-0.1538086,0.91552734,3.2348633,-2.8686523,0.0,0.0,0.0,136.8512,77.04712,-38.446655
1768029926854,-0.9760742,0.14160156,-0.1538086,0.91552734,3.2348633,-2.8686523,0.0,0.0,0.0,137.39502,77.0636,-37.600708
1768029926942,-0.9902344,0.13427734,-0.18017578,-3.6621094,1.7089844,-2.2583008,0.0,0.0,0.0,137.39502,77.0636,-37.600708
1768029926954,-0.9902344,0.13427734,-0.18017578,-3.6621094,1.7089844,-2.2583008,0.0,0.0,0.0,138.14209,77.13501,-36.57898
1768029927042,-0.9902344,0.13378906,-0.18945312,-2.9907227,5.3100586,-2.5024414,0.0,0.0,0.0,138.14209,77.13501,-36.57898
1768029927053,-0.9902344,0.13378906,-0.18945312,-2.9907227,5.3100586,-2.5024414,0.0,0.0,0.0,139.63623,77.074585,-34.788208
1768029927141,-0.96728516,0.1484375,-0.15429688,-1.0986328,3.7841797,-1.953125,0.0,0.0,0.0,139.63623,77.074585,-34.788208
1768029927153,-0.96728516,0.1484375,-0.15429688,-1.0986328,3.7841797,-1.953125,0.0,0.0,0.0,143.1189,76.744995,-31.322021
1768029927241,-0.96875,0.1430664,-0.17822266,-0.30517578,-0.91552734,0.30517578,0.0,0.0,0.0,143.1189,76.744995,-31.322021
1768029927252,-0.96875,0.1430664,-0.17822266,-0.30517578,-0.91552734,0.30517578,0.0,0.0,0.0,142.7179,76.73401,-31.486816
1768029927340,-0.9765625,0.13769531,-0.1821289,-3.8452148,-1.159668,1.0986328,0.0,0.0,0.0,142.7179,76.73401,-31.486816
1768029927352,-0.9765625,0.13769531,-0.1821289,-3.8452148,-1.159668,1.0986328,0.0,0.0,0.0,141.15784,76.95923,-32.997437
1768029927440,-0.9770508,0.1352539,-0.17529297,-2.9296875,0.6713867,0.36621094,0.0,0.0,0.0,141.15784,76.95923,-32.997437
1768029927452,-0.9770508,0.1352539,-0.17529297,-2.9296875,0.6713867,0.36621094,0.0,0.0,0.0,141.06995,76.882324,-32.96997
1768029927540,-0.97509766,0.14208984,-0.17236328,-0.91552734,-0.12207031,0.4272461,0.0,0.0,0.0,141.06995,76.882324,-32.96997
1768029927552,-0.97509766,0.14208984,-0.17236328,-0.91552734,-0.12207031,0.4272461,0.0,0.0,0.0,141.23474,76.80542,-32.684326
1768029927640,-0.9770508,0.14013672,-0.1796875,1.953125,1.7700195,-0.61035156,0.0,0.0,0.0,141.23474,76.80542,-32.684326
1768029927651,-0.9770508,0.14013672,-0.1796875,1.953125,1.7700195,-0.61035156,0.0,0.0,0.0,141.47095,76.728516,-32.382202
1768029927739,-0.97753906,0.13916016,-0.18017578,1.5869141,0.5493164,-0.4272461,0.0,0.0,0.0,141.47095,76.728516,-32.382202
1768029927751,-0.97753906,0.13916016,-0.18017578,1.5869141,0.5493164,-0.4272461,0.0,0.0,0.0,141.76758,76.70105,-32.15149
1768029927839,-0.9770508,0.13916016,-0.17822266,1.0986328,-0.6713867,0.12207031,0.0,0.0,0.0,141.76758,76.70105,-32.15149
1768029927851,-0.9770508,0.13916016,-0.17822266,1.0986328,-0.6713867,0.12207031,0.0,0.0,0.0,141.84998,76.712036,-32.16797
1768029927939,-0.97558594,0.13720703,-0.17529297,1.4648438,-1.4648438,0.36621094,0.0,0.0,0.0,141.84998,76.712036,-32.16797
1768029927950,-0.97558594,0.13720703,-0.17529297,1.4648438,-1.4648438,0.36621094,0.0,0.0,0.0,141.78955,76.76697,-32.371216
1768029928039,-0.9741211,0.14013672,-0.17773438,1.7700195,0.12207031,0.24414062,0.0,0.0,0.0,141.78955,76.76697,-32.371216
1768029928050,-0.9741211,0.14013672,-0.17773438,1.7700195,0.12207031,0.24414062,0.0,0.0,0.0,141.828,76.79443,-32.508545
1768029928138,-0.9814453,0.14648438,-0.16015625,-1.2207031,-6.591797,2.380371,0.0,0.0,0.0,141.828,76.79443,-32.508545
1768029928150,-0.9814453,0.14648438,-0.16015625,-1.2207031,-6.591797,2.380371,0.0,0.0,0.0,140.67444,76.970215,-33.83789
1768029928238,-0.97998047,0.13964844,-0.14892578,-11.84082,-2.5634766,5.92041,0.0,0.0,0.0,140.67444,76.970215,-33.83789
1768029928250,-0.97998047,0.13964844,-0.14892578,-11.84082,-2.5634766,5.92041,0.0,0.0,0.0,137.21375,77.03064,-36.600952
1768029928338,-0.9794922,0.15039062,-0.1508789,6.164551,5.432129,-2.1362305,0.0,0.0,0.0,137.21375,77.03064,-36.600952
1768029928349,-0.9794922,0.15039062,-0.1508789,6.164551,5.432129,-2.1362305,0.0,0.0,0.0,137.53235,76.761475,-36.018677
1768029928437,-0.984375,0.14355469,-0.17285156,-1.5869141,6.652832,-0.7324219,0.0,0.0,0.0,137.53235,76.761475,-36.018677
1768029928450,-0.984375,0.14355469,-0.17285156,-1.5869141,6.652832,-0.7324219,0.0,0.0,0.0,139.11987,76.53076,-34.573975
1768029928537,-0.97802734,0.13671875,-0.18847656,-1.5258789,0.4272461,0.6713867,0.0,0.0,0.0,139.11987,76.53076,-34.573975
1768029928549,-0.97802734,0.13671875,-0.18847656,-1.5258789,0.4272461,0.6713867,0.0,0.0,0.0,141.05896,76.37146,-32.947998
1768029928637,-0.97753906,0.140625,-0.16992188,-0.061035156,-1.4648438,0.61035156,0.0,0.0,0.0,141.05896,76.37146,-32.947998
1768029928648,-0.97753906,0.140625,-0.16992188,-0.061035156,-1.4648438,0.61035156,0.0,0.0,0.0,141.1029,76.39343,-33.085327
1768029928737,-0.9848633,0.1459961,-0.17285156,0.9765625,-0.24414062,0.48828125,0.0,0.0,0.0,141.1029,76.39343,-33.085327
1768029928748,-0.9848633,0.1459961,-0.17285156,0.9765625,-0.24414062,0.48828125,0.0,0.0,0.0,140.82275,76.40991,-33.398438
1768029928836,-0.9824219,0.15673828,-0.17236328,0.79345703,1.7089844,-0.4272461,0.0,0.0,0.0,140.82275,76.40991,-33.398438
1768029928848,-0.9824219,0.15673828,-0.17236328,0.79345703,1.7089844,-0.4272461,0.0,0.0,0.0,140.77881,76.36047,-33.398438
1768029928936,-0.98828125,0.13769531,-0.20214844,-2.0751953,-0.79345703,1.3427734,0.0,0.0,0.0,140.77881,76.36047,-33.398438
1768029928948,-0.98828125,0.13769531,-0.20214844,-2.0751953,-0.79345703,1.3427734,0.0,0.0,0.0,140.64148,76.35498,-33.62915
1768029929036,-0.98046875,0.1538086,-0.16064453,3.3569336,-1.4038086,0.5493164,0.0,0.0,0.0,140.64148,76.35498,-33.62915
1768029929047,-0.98046875,0.1538086,-0.16064453,3.3569336,-1.4038086,0.5493164,0.0,0.0,0.0,141.3446,76.206665,-33.184204
1768029929136,-0.9663086,0.16308594,-0.16503906,2.1362305,2.9296875,-0.79345703,0.0,0.0,0.0,141.3446,76.206665,-33.184204
1768029929147,-0.9663086,0.16308594,-0.16503906,2.1362305,2.9296875,-0.79345703,0.0,0.0,0.0,141.16333,76.12427,-33.458862
1768029929235,-0.9794922,0.14501953,-0.1821289,0.79345703,-2.6855469,1.2817383,0.0,0.0,0.0,141.16333,76.12427,-33.458862
1768029929247,-0.9794922,0.14501953,-0.1821289,0.79345703,-2.6855469,1.2817383,0.0,0.0,0.0,140.71289,76.14075,-33.936768
1768029929335,-0.9824219,0.16113281,-0.1772461,-9.94873,-5.7373047,3.8452148,0.0,0.0,0.0,140.71289,76.14075,-33.936768
1768029929347,-0.9824219,0.16113281,-0.1772461,-9.94873,-5.7373047,3.8452148,0.0,0.0,0.0,138.03223,76.51428,-36.42517
1768029929435,-0.97558594,0.16552734,-0.13867188,1.7700195,-1.0986328,0.0,0.0,0.0,0.0,138.03223,76.51428,-36.42517
1768029929447,-0.97558594,0.16552734,-0.13867188,1.7700195,-1.0986328,0.0,0.0,0.0,0.0,137.19177,76.536255,-37.128296
1768029929535,-0.97558594,0.17626953,-0.15820312,2.0751953,-1.953125,0.4272461,0.0,0.0,0.0,137.19177,76.536255,-37.128296
1768029929546,-0.97558594,0.17626953,-0.15820312,2.0751953,-1.953125,0.4272461,0.0,0.0,0.0,135.34607,76.6626,-38.809204
1768029929634,-0.9824219,0.1743164,-0.12939453,1.8310547,-6.5307617,1.5258789,0.0,0.0,0.0,135.34607,76.6626,-38.809204
1768029929646,-0.9824219,0.1743164,-0.12939453,1.8310547,-6.5307617,1.5258789,0.0,0.0,0.0,133.84094,76.85486,-40.52307
1768029929734,-0.99072266,0.14941406,-0.1616211,1.2207031,-10.009766,4.211426,0.0,0.0,0.0,133.84094,76.85486,-40.52307
1768029929746,-0.99072266,0.14941406,-0.1616211,1.2207031,-10.009766,4.211426,0.0,0.0,0.0,129.63318,77.299805,-45.19226
1768029929834,-0.9814453,0.16308594,-0.13232422,-1.8310547,-4.1503906,0.48828125,0.0,0.0,0.0,129.63318,77.299805,-45.19226
1768029929845,-0.9814453,0.16308594,-0.13232422,-1.8310547,-4.1503906,0.48828125,0.0,0.0,0.0,128.39722,77.56348,-46.636963
1768029929933,-0.9785156,0.16259766,-0.12207031,-1.159668,-1.6479492,-0.061035156,0.0,0.0,0.0,128.39722,77.56348,-46.636963
1768029929945,-0.9785156,0.16259766,-0.12207031,-1.159668,-1.6479492,-0.061035156,0.0,0.0,0.0,127.43042,77.7063,-47.46643
1768029930033,-0.9838867,0.16552734,-0.12109375,-0.61035156,-2.319336,0.24414062,0.0,0.0,0.0,127.43042,77.7063,-47.46643
1768029930045,-0.9838867,0.16552734,-0.12109375,-0.61035156,-2.319336,0.24414062,0.0,0.0,0.0,126.75476,77.81067,-48.015747
1768029930133,-0.9814453,0.16992188,-0.11767578,-1.7089844,1.0986328,-0.48828125,0.0,0.0,0.0,126.75476,77.81067,-48.015747
1768029930144,-0.9814453,0.16992188,-0.11767578,-1.7089844,1.0986328,-0.48828125,0.0,0.0,0.0,126.67786,77.838135,-47.88391
1768029930233,-0.98583984,0.16796875,-0.12939453,-2.5634766,0.5493164,0.36621094,0.0,0.0,0.0,126.67786,77.838135,-47.88391
1768029930244,-0.98583984,0.16796875,-0.12939453,-2.5634766,0.5493164,0.36621094,0.0,0.0,0.0,126.02966,77.805176,-48.218994
1768029930332,-0.9863281,0.16845703,-0.119628906,-1.2207031,1.4038086,-0.6713867,0.0,0.0,0.0,126.02966,77.805176,-48.218994
1768029930344,-0.9863281,0.16845703,-0.119628906,-1.2207031,1.4038086,-0.6713867,0.0,0.0,0.0,126.67786,77.7887,-47.526855
1768029930432,-0.98095703,0.16601562,-0.1171875,1.5258789,2.5634766,-1.5869141,0.0,0.0,0.0,126.67786,77.7887,-47.526855
1768029930444,-0.98095703,0.16601562,-0.1171875,1.5258789,2.5634766,-1.5869141,0.0,0.0,0.0,128.2489,77.733765,-45.977783
1768029930532,-0.98095703,0.15966797,-0.12646484,2.6245117,1.2817383,-1.159668,0.0,0.0,0.0,128.2489,77.733765,-45.977783
1768029930543,-0.98095703,0.15966797,-0.12646484,2.6245117,1.2817383,-1.159668,0.0,0.0,0.0,129.03442,77.75574,-45.32959
1768029930632,-0.9814453,0.15625,-0.12597656,0.79345703,0.5493164,-0.4272461,0.0,0.0,0.0,129.03442,77.75574,-45.32959
1768029930643,-0.9814453,0.15625,-0.12597656,0.79345703,0.5493164,-0.4272461,0.0,0.0,0.0,129.71008,77.76672,-44.813232
1768029930731,-0.9814453,0.16015625,-0.12939453,-0.12207031,1.0375977,-0.61035156,0.0,0.0,0.0,129.71008,77.76672,-44.813232
1768029930743,-0.9814453,0.16015625,-0.12939453,-0.12207031,1.0375977,-0.61035156,0.0,0.0,0.0,130.04517,77.77771,-44.46167
1768029930831,-0.98046875,0.15722656,-0.13427734,-0.5493164,-0.36621094,0.0,0.0,0.0,0.0,130.04517,77.77771,-44.46167
1768029930843,-0.98046875,0.15722656,-0.13427734,-0.5493164,-0.36621094,0.0,0.0,0.0,0.0,130.24292,77.7832,-44.230957
1768029930931,-0.9790039,0.15966797,-0.13232422,0.0,0.8544922,-0.24414062,0.0,0.0,0.0,130.24292,77.7832,-44.230957
1768029930943,-0.9790039,0.15966797,-0.13232422,0.0,0.8544922,-0.24414062,0.0,0.0,0.0,130.31982,77.7832,-44.110107
1768029931031,-0.9926758,0.15820312,-0.13232422,1.0986328,-2.380371,0.79345703,0.0,0.0,0.0,130.31982,77.7832,-44.110107
1768029931043,-0.9926758,0.15820312,-0.13232422,1.0986328,-2.380371,0.79345703,0.0,0.0,0.0,129.83093,77.84363,-44.681396
1768029931130,-1.0102539,0.17675781,-0.12402344,1.7089844,-1.8920898,-0.61035156,0.0,0.0,0.0,129.83093,77.84363,-44.681396
1768029931142,-1.0102539,0.17675781,-0.12402344,1.7089844,-1.8920898,-0.61035156,0.0,0.0,0.0,130.06165,77.93701,-44.62097
1768029931230,-0.9375,0.18261719,-0.1508789,13.671875,9.399414,-1.3427734,0.0,0.0,0.0,130.06165,77.93701,-44.62097
1768029931241,-0.9375,0.18261719,-0.1508789,13.671875,9.399414,-1.3427734,0.0,0.0,0.0,131.29211,77.65137,-43.73108
1768029931330,-0.9785156,0.12109375,-0.12841797,13.85498,5.065918,0.061035156,0.0,0.0,0.0,131.29211,77.65137,-43.73108
1768029931341,-0.9785156,0.12109375,-0.12841797,13.85498,5.065918,0.061035156,0.0,0.0,0.0,137.1698,77.11853,-39.935303
1768029931430,-1.0107422,0.103027344,-0.115234375,6.7749023,11.291504,-2.4414062,0.0,0.0,0.0,137.1698,77.11853,-39.935303
1768029931441,-1.0107422,0.103027344,-0.115234375,6.7749023,11.291504,-2.4414062,0.0,0.0,0.0,137.62573,76.70105,-39.68811
1768029931530,-0.97021484,0.16259766,-0.17041016,-16.967773,-3.7841797,2.9296875,0.0,0.0,0.0,137.62573,76.70105,-39.68811
1768029931541,-0.97021484,0.16259766,-0.17041016,-16.967773,-3.7841797,2.9296875,0.0,0.0,0.0,140.1416,76.67908,-36.798706
1768029931629,-0.9794922,0.14111328,-0.16601562,-3.3569336,-0.48828125,-5.004883,0.0,0.0,0.0,140.1416,76.67908,-36.798706
1768029931641,-0.9794922,0.14111328,-0.16601562,-3.3569336,-0.48828125,-5.004883,0.0,0.0,0.0,139.80103,77.03064,-36.705322
1768029931729,-0.9477539,0.17236328,-0.18066406,-7.446289,3.7841797,-0.24414062,0.0,0.0,0.0,139.80103,77.03064,-36.705322
1768029931740,-0.9477539,0.17236328,-0.18066406,-7.446289,3.7841797,-0.24414062,0.0,0.0,0.0,139.19678,77.08008,-36.19995
1768029931828,-0.9970703,0.14355469,-0.17382812,4.1503906,3.90625,2.9296875,0.0,0.0,0.0,139.19678,77.08008,-36.19995
1768029931840,-0.9970703,0.14355469,-0.17382812,4.1503906,3.90625,2.9296875,0.0,0.0,0.0,138.51562,76.712036,-36.985474
1768029931928,-0.9741211,0.15966797,-0.16845703,5.493164,-0.6713867,0.91552734,0.0,0.0,0.0,138.51562,76.712036,-36.985474
1768029931940,-0.9741211,0.15966797,-0.16845703,5.493164,-0.6713867,0.91552734,0.0,0.0,0.0,139.25171,76.42639,-36.798706
1768029932028,-0.9741211,0.1430664,-0.1772461,4.0893555,2.1972656,-2.9907227,0.0,0.0,0.0,139.25171,76.42639,-36.798706
1768029932039,-0.9741211,0.1430664,-0.1772461,4.0893555,2.1972656,-2.9907227,0.0,0.0,0.0,140.60852,76.37146,-35.963745
1768029932128,-0.95458984,0.13476562,-0.19335938,0.91552734,4.0893555,-1.4648438,0.0,0.0,0.0,140.60852,76.37146,-35.963745
1768029932139,-0.95458984,0.13476562,-0.19335938,0.91552734,4.0893555,-1.4648438,0.0,0.0,0.0,141.80054,76.36047,-34.870605
1768029932227,-1.003418,0.1508789,-0.20507812,-8.239746,-3.3569336,-0.18310547,0.0,0.0,0.0,141.80054,76.36047,-34.870605
1768029932239,-1.003418,0.1508789,-0.20507812,-8.239746,-3.3569336,-0.18310547,0.0,0.0,0.0,143.34412,76.47583,-33.255615
1768029932327,-0.9760742,0.111816406,-0.15625,3.479004,-1.5869141,0.8544922,0.0,0.0,0.0,143.34412,76.47583,-33.255615
1768029932338,-0.9760742,0.111816406,-0.15625,3.479004,-1.5869141,0.8544922,0.0,0.0,0.0,143.58582,76.37695,-33.030396
1768029932427,-0.9580078,0.14404297,-0.20117188,-10.131836,3.2958984,3.4179688,0.0,0.0,0.0,143.58582,76.37695,-33.030396
1768029932438,-0.9580078,0.14404297,-0.20117188,-10.131836,3.2958984,3.4179688,0.0,0.0,0.0,142.27844,76.398926,-33.986206
1768029932527,-0.9785156,0.107421875,-0.1850586,-11.657715,4.8828125,-3.479004,0.0,0.0,0.0,142.27844,76.398926,-33.986206
1768029932538,-0.9785156,0.107421875,-0.1850586,-11.657715,4.8828125,-3.479004,0.0,0.0,0.0,142.3938,76.23413,-33.359985
1768029932626,-0.97314453,0.1743164,-0.19189453,-7.3242188,1.0375977,-2.319336,0.0,0.0,0.0,142.3938,76.23413,-33.359985
1768029932638,-0.97314453,0.1743164,-0.19189453,-7.3242188,1.0375977,-2.319336,0.0,0.0,0.0,143.04199,76.16821,-31.398926
1768029932726,-0.9716797,0.16455078,-0.17333984,-1.2817383,5.2490234,-0.30517578,0.0,0.0,0.0,143.04199,76.16821,-31.398926
1768029932737,-0.9716797,0.16455078,-0.17333984,-1.2817383,5.2490234,-0.30517578,0.0,0.0,0.0,144.92615,75.997925,-29.371948
1768029932826,-0.9711914,0.17529297,-0.22460938,7.2021484,3.2348633,0.12207031,0.0,0.0,0.0,144.92615,75.997925,-29.371948
1768029932837,-0.9711914,0.17529297,-0.22460938,7.2021484,3.2348633,0.12207031,0.0,0.0,0.0,145.55237,75.69031,-28.745728
1768029932925,-0.9736328,0.13964844,-0.2548828,-13.122559,-15.136719,13.427734,0.0,0.0,0.0,145.55237,75.69031,-28.745728
1768029932937,-0.9736328,0.13964844,-0.2548828,-13.122559,-15.136719,13.427734,0.0,0.0,0.0,141.57532,75.81116,-32.772217
1768029933025,-0.95458984,0.10986328,-0.19482422,10.437012,5.9814453,-2.746582,0.0,0.0,0.0,141.57532,75.81116,-32.772217
1768029933037,-0.95458984,0.10986328,-0.19482422,10.437012,5.9814453,-2.746582,0.0,0.0,0.0,141.65222,75.6134,-33.354492
1768029933125,-0.9692383,0.11767578,-0.16894531,-10.314941,10.070801,-7.751465,0.0,0.0,0.0,141.65222,75.6134,-33.354492
1768029933136,-0.9692383,0.11767578,-0.16894531,-10.314941,10.070801,-7.751465,0.0,0.0,0.0,145.34363,75.2124,-29.437866
1768029933225,-0.95654297,0.1430664,-0.20263672,-15.930176,9.155273,-6.0424805,0.0,0.0,0.0,145.34363,75.2124,-29.437866
1768029933236,-0.95654297,0.1430664,-0.20263672,-15.930176,9.155273,-6.0424805,0.0,0.0,0.0,147.052,75.01465,-25.878296
1768029933324,-0.95703125,0.1772461,-0.20507812,-11.047363,2.380371,1.4038086,0.0,0.0,0.0,147.052,75.01465,-25.878296
1768029933336,-0.95703125,0.1772461,-0.20507812,-11.047363,2.380371,1.4038086,0.0,0.0,0.0,147.86499,74.76196,-23.757935
1768029933424,-0.9707031,0.17285156,-0.2397461,3.540039,-3.2958984,2.746582,0.0,0.0,0.0,147.86499,74.76196,-23.757935
1768029933436,-0.9707031,0.17285156,-0.2397461,3.540039,-3.2958984,2.746582,0.0,0.0,0.0,147.14539,74.65759,-24.400635
1768029933524,-0.9663086,0.13232422,-0.20214844,26.428223,-3.540039,-0.61035156,0.0,0.0,0.0,147.14539,74.65759,-24.400635
1768029933535,-0.9663086,0.13232422,-0.20214844,26.428223,-3.540039,-0.61035156,0.0,0.0,0.0,146.14014,74.94873,-26.746216
1768029933624,-0.97509766,0.10839844,-0.20996094,7.8125,-9.887695,1.6479492,0.0,0.0,0.0,146.14014,74.94873,-26.746216
1768029933635,-0.97509766,0.10839844,-0.20996094,7.8125,-9.887695,1.6479492,0.0,0.0,0.0,146.94763,75.41016,-27.910767
1768029933723,-0.9785156,0.107421875,-0.1953125,8.911133,-8.728027,-0.36621094,0.0,0.0,0.0,146.94763,75.41016,-27.910767
1768029933735,-0.9785156,0.107421875,-0.1953125,8.911133,-8.728027,-0.36621094,0.0,0.0,0.0,146.06323,76.15723,-29.910278
1768029933823,-0.98828125,0.119628906,-0.18261719,2.4414062,-9.460449,0.8544922,0.0,0.0,0.0,146.06323,76.15723,-29.910278
1768029933834,-0.98828125,0.119628906,-0.18261719,2.4414062,-9.460449,0.8544922,0.0,0.0,0.0,144.42627,76.94275,-32.2229
1768029933923,-0.9916992,0.12988281,-0.18554688,-1.7089844,-1.7700195,-1.6479492,0.0,0.0,0.0,144.42627,76.94275,-32.2229
1768029933934,-0.9916992,0.12988281,-0.18554688,-1.7089844,-1.7700195,-1.6479492,0.0,0.0,0.0,143.55286,77.39868,-33.068848
1768029934022,-0.98339844,0.10644531,-0.19238281,-6.3476562,-1.2207031,-2.2583008,0.0,0.0,0.0,143.55286,77.39868,-33.068848
1768029934034,-0.98339844,0.10644531,-0.19238281,-6.3476562,-1.2207031,-2.2583008,0.0,0.0,0.0,142.89917,77.733765,-33.31604
1768029934122,-0.9716797,0.12646484,-0.15478516,-8.911133,2.9296875,-2.0751953,0.0,0.0,0.0,142.89917,77.733765,-33.31604
1768029934134,-0.9716797,0.12646484,-0.15478516,-8.911133,2.9296875,-2.0751953,0.0,0.0,0.0,143.50891,77.733765,-31.794434
1768029934222,-0.97802734,0.15136719,-0.1586914,-0.91552734,0.12207031,0.30517578,0.0,0.0,0.0,143.50891,77.733765,-31.794434
1768029934234,-0.97802734,0.15136719,-0.1586914,-0.91552734,0.12207031,0.30517578,0.0,0.0,0.0,144.46472,77.525024,-30.448608
1768029934322,-0.98095703,0.12109375,-0.1665039,0.30517578,0.24414062,0.12207031,0.0,0.0,0.0,144.46472,77.525024,-30.448608
1768029934333,-0.98095703,0.12109375,-0.1665039,0.30517578,0.24414062,0.12207031,0.0,0.0,0.0,143.31116,77.57446,-31.585693
1768029934421,-0.9848633,0.12109375,-0.1694336,-6.713867,-0.4272461,0.79345703,0.0,0.0,0.0,143.31116,77.57446,-31.585693
1768029934434,-0.9848633,0.12109375,-0.1694336,-6.713867,-0.4272461,0.79345703,0.0,0.0,0.0,142.67944,77.60742,-31.92627
1768029934521,-0.984375,0.110839844,-0.1508789,-12.023926,-2.746582,-0.5493164,0.0,0.0,0.0,142.67944,77.60742,-31.92627
1768029934533,-0.984375,0.110839844,-0.1508789,-12.023926,-2.746582,-0.5493164,0.0,0.0,0.0,142.25098,77.75574,-31.690063
1768029934621,-0.97998047,0.140625,-0.17626953,-6.7749023,1.953125,-1.4648438,0.0,0.0,0.0,142.25098,77.75574,-31.690063
1768029934633,-0.97998047,0.140625,-0.17626953,-6.7749023,1.953125,-1.4648438,0.0,0.0,0.0,141.37207,77.79419,-31.349487
1768029934721,-0.98291016,0.12939453,-0.16308594,-4.760742,-2.6245117,0.6713867,0.0,0.0,0.0,141.37207,77.79419,-31.349487
1768029934732,-0.98291016,0.12939453,-0.16308594,-4.760742,-2.6245117,0.6713867,0.0,0.0,0.0,140.50964,77.88208,-31.68457
1768029934820,-0.9838867,0.12597656,-0.14990234,1.159668,0.79345703,-1.5258789,0.0,0.0,0.0,140.50964,77.88208,-31.68457
1768029934832,-0.9838867,0.12597656,-0.14990234,1.159668,0.79345703,-1.5258789,0.0,0.0,0.0,141.36108,77.838135,-30.778198
1768029934920,-0.9824219,0.12402344,-0.15917969,2.2583008,1.4038086,-1.953125,0.0,0.0,0.0,141.36108,77.838135,-30.778198
1768029934932,-0.9824219,0.12402344,-0.15917969,2.2583008,1.4038086,-1.953125,0.0,0.0,0.0,141.88293,77.88757,-30.179443
1768029935020,-0.98046875,0.11669922,-0.17285156,-4.8217773,1.159668,-0.6713867,0.0,0.0,0.0,141.88293,77.88757,-30.179443
1768029935031,-0.98046875,0.11669922,-0.17285156,-4.8217773,1.159668,-0.6713867,0.0,0.0,0.0,142.30591,77.96448,-29.63562
1768029935119,-0.97265625,0.122558594,-0.09277344,-18.249512,-19.65332,5.3710938,0.0,0.0,0.0,142.30591,77.96448,-29.63562
1768029935131,-0.97265625,0.122558594,-0.09277344,-18.249512,-19.65332,5.3710938,0.0,0.0,0.0,137.82349,78.601685,-33.607178
1768029935219,-0.9472656,0.16015625,-0.0859375,9.94873,10.314941,-5.859375,0.0,0.0,0.0,137.82349,78.601685,-33.607178
1768029935231,-0.9472656,0.16015625,-0.0859375,9.94873,10.314941,-5.859375,0.0,0.0,0.0,136.82373,78.343506,-33.343506
1768029935319,-0.9868164,0.13623047,-0.16015625,-4.638672,-1.7700195,2.6855469,0.0,0.0,0.0,136.82373,78.343506,-33.343506
1768029935330,-0.9868164,0.13623047,-0.16015625,-4.638672,-1.7700195,2.6855469,0.0,0.0,0.0,135.34607,78.38196,-34.661865
1768029935419,-0.98779297,0.13232422,-0.16552734,-2.6855469,-0.18310547,2.0751953,0.0,0.0,0.0,135.34607,78.38196,-34.661865
1768029935430,-0.98779297,0.13232422,-0.16552734,-2.6855469,-0.18310547,2.0751953,0.0,0.0,0.0,135.37903,78.343506,-34.832153
1768029935518,-0.9707031,0.16064453,-0.06347656,8.911133,-2.5024414,-1.0375977,0.0,0.0,0.0,135.37903,78.343506,-34.832153
1768029935530,-0.9707031,0.16064453,-0.06347656,8.911133,-2.5024414,-1.0375977,0.0,0.0,0.0,136.86768,78.21716,-33.744507
1768029935618,-0.97265625,0.14404297,-0.1538086,7.6904297,-1.6479492,-3.540039,0.0,0.0,0.0,136.86768,78.21716,-33.744507
1768029935630,-0.97265625,0.14404297,-0.1538086,7.6904297,-1.6479492,-3.540039,0.0,0.0,0.0,134.02771,78.63464,-36.848145
1768029935718,-0.9897461,0.115234375,-0.1459961,5.6762695,2.6855469,-1.4648438,0.0,0.0,0.0,134.02771,78.63464,-36.848145
1768029935730,-0.9897461,0.115234375,-0.1459961,5.6762695,2.6855469,-1.4648438,0.0,0.0,0.0,135.09338,78.72803,-36.33728
1768029935818,-0.99121094,0.1381836,-0.14111328,0.9765625,1.0375977,1.2207031,0.0,0.0,0.0,135.09338,78.72803,-36.33728
1768029935830,-0.99121094,0.1381836,-0.14111328,0.9765625,1.0375977,1.2207031,0.0,0.0,0.0,136.0492,78.60718,-35.601196
1768029935917,-0.99658203,0.13623047,-0.1171875,6.652832,-1.8310547,4.3945312,0.0,0.0,0.0,136.0492,78.60718,-35.601196
1768029935929,-0.99658203,0.13623047,-0.1171875,6.652832,-1.8310547,4.3945312,0.0,0.0,0.0,136.09863,78.447876,-36.12854
1768029936017,-0.9848633,0.14208984,-0.13867188,7.6293945,4.211426,-0.061035156,0.0,0.0,0.0,136.09863,78.447876,-36.12854
1768029936029,-0.9848633,0.14208984,-0.13867188,7.6293945,4.211426,-0.061035156,0.0,0.0,0.0,136.91162,78.19519,-35.85388
1768029936117,-0.99609375,0.13378906,-0.109375,1.0375977,-3.479004,1.5258789,0.0,0.0,0.0,136.91162,78.19519,-35.85388
1768029936128,-0.99609375,0.13378906,-0.109375,1.0375977,-3.479004,1.5258789,0.0,0.0,0.0,137.39502,78.11279,-35.86487
1768029936217,-0.9770508,0.13427734,-0.14355469,0.9765625,3.6010742,-1.0986328,0.0,0.0,0.0,137.39502,78.11279,-35.86487
1768029936228,-0.9770508,0.13427734,-0.14355469,0.9765625,3.6010742,-1.0986328,0.0,0.0,0.0,136.604,78.21716,-36.66687
1768029936316,-0.9873047,0.125,-0.1430664,-0.79345703,-4.0893555,2.1362305,0.0,0.0,0.0,136.604,78.21716,-36.66687
1768029936328,-0.9873047,0.125,-0.1430664,-0.79345703,-4.0893555,2.1362305,0.0,0.0,0.0,137.0874,78.22815,-36.33728
1768029936416,-0.98583984,0.14404297,-0.125,7.873535,0.7324219,-1.6479492,0.0,0.0,0.0,137.0874,78.22815,-36.33728
1768029936427,-0.98583984,0.14404297,-0.125,7.873535,0.7324219,-1.6479492,0.0,0.0,0.0,137.92786,78.27759,-35.83191
1768029936516,-0.9892578,0.12158203,-0.14697266,7.1411133,1.4648438,-0.9765625,0.0,0.0,0.0,137.92786,78.27759,-35.83191
1768029936527,-0.9892578,0.12158203,-0.14697266,7.1411133,1.4648438,-0.9765625,0.0,0.0,0.0,138.40027,78.38196,-35.95276
1768029936615,-0.98339844,0.1352539,-0.16113281,3.2958984,5.004883,-0.30517578,0.0,0.0,0.0,138.40027,78.38196,-35.95276
1768029936627,-0.98339844,0.1352539,-0.16113281,3.2958984,5.004883,-0.30517578,0.0,0.0,0.0,139.99329,78.23364,-34.865112
1768029936715,-0.9892578,0.12109375,-0.17675781,5.3710938,4.760742,-0.61035156,0.0,0.0,0.0,139.99329,78.23364,-34.865112
1768029936727,-0.9892578,0.12109375,-0.17675781,5.3710938,4.760742,-0.61035156,0.0,0.0,0.0,142.51465,77.81616,-32.860107
1768029936815,-0.9814453,0.1171875,-0.15185547,0.061035156,-0.061035156,0.0,0.0,0.0,0.0,142.51465,77.81616,-32.860107
1768029936827,-0.9814453,0.1171875,-0.15185547,0.061035156,-0.061035156,0.0,0.0,0.0,0.0,143.39905,77.67883,-32.211914
1768029936915,-0.98339844,0.11669922,-0.16113281,-0.12207031,1.4038086,-1.7089844,0.0,0.0,0.0,143.39905,77.67883,-32.211914
1768029936926,-0.98339844,0.11669922,-0.16113281,-0.12207031,1.4038086,-1.7089844,0.0,0.0,0.0,143.63525,77.74475,-31.942749
1768029937014,-0.9819336,0.123046875,-0.17285156,-2.1362305,-0.24414062,0.24414062,0.0,0.0,0.0,143.63525,77.74475,-31.942749
1768029937026,-0.9819336,0.123046875,-0.17285156,-2.1362305,-0.24414062,0.24414062,0.0,0.0,0.0,144.09119,77.750244,-31.333008
1768029937114,-0.97021484,0.13330078,-0.16015625,-4.1503906,-2.5024414,2.5634766,0.0,0.0,0.0,144.09119,77.750244,-31.333008
1768029937126,-0.97021484,0.13330078,-0.16015625,-4.1503906,-2.5024414,2.5634766,0.0,0.0,0.0,142.49268,77.92053,-32.755737
1768029937214,-0.98779297,0.12890625,-0.15722656,-10.803223,-13.671875,7.507324,0.0,0.0,0.0,142.49268,77.92053,-32.755737
1768029937225,-0.98779297,0.12890625,-0.15722656,-10.803223,-13.671875,7.507324,0.0,0.0,0.0,138.56506,78.134766,-36.359253
1768029937313,-0.9736328,0.15771484,-0.11767578,7.2631836,-2.6245117,-0.6713867,0.0,0.0,0.0,138.56506,78.134766,-36.359253
1768029937326,-0.9736328,0.15771484,-0.11767578,7.2631836,-2.6245117,-0.6713867,0.0,0.0,0.0,135.8899,78.21716,-38.693848
1768029937413,-0.9765625,0.15332031,-0.11376953,2.5024414,-2.0751953,-0.18310547,0.0,0.0,0.0,135.8899,78.21716,-38.693848
1768029937425,-0.9765625,0.15332031,-0.11376953,2.5024414,-2.0751953,-0.18310547,0.0,0.0,0.0,134.60449,78.349,-40.012207
1768029937513,-0.98583984,0.13623047,-0.14794922,-2.2583008,0.48828125,0.12207031,0.0,0.0,0.0,134.60449,78.349,-40.012207
1768029937524,-0.98583984,0.13623047,-0.14794922,-2.2583008,0.48828125,0.12207031,0.0,0.0,0.0,133.72559,78.464355,-40.93506
1768029937613,-0.97753906,0.14892578,-0.14111328,-0.30517578,0.79345703,0.30517578,0.0,0.0,0.0,133.72559,78.464355,-40.93506
1768029937624,-0.97753906,0.14892578,-0.14111328,-0.30517578,0.79345703,0.30517578,0.0,0.0,0.0,134.1101,78.376465,-40.440674
1768029937712,-0.9770508,0.15185547,-0.12841797,2.0751953,-0.9765625,0.79345703,0.0,0.0,0.0,134.1101,78.376465,-40.440674
1768029937724,-0.9770508,0.15185547,-0.12841797,2.0751953,-0.9765625,0.79345703,0.0,0.0,0.0,134.01123,78.29407,-40.512085
1768029937812,-0.98339844,0.13623047,-0.125,3.2348633,-0.24414062,-0.4272461,0.0,0.0,0.0,134.01123,78.29407,-40.512085
1768029937824,-0.98339844,0.13623047,-0.125,3.2348633,-0.24414062,-0.4272461,0.0,0.0,0.0,133.17627,78.33801,-41.627197
1768029937912,-1.0024414,0.1303711,-0.14746094,-1.0375977,-3.7231445,0.91552734,0.0,0.0,0.0,133.17627,78.33801,-41.627197
1768029937923,-1.0024414,0.1303711,-0.14746094,-1.0375977,-3.7231445,0.91552734,0.0,0.0,0.0,132.7533,78.45886,-42.22046
1768029938012,-0.98583984,0.12402344,-0.111816406,-9.460449,-1.2817383,-4.0893555,0.0,0.0,0.0,132.7533,78.45886,-42.22046
1768029938023,-0.98583984,0.12402344,-0.111816406,-9.460449,-1.2817383,-4.0893555,0.0,0.0,0.0,133.56628,78.71155,-41.21521
1768029938111,-0.9863281,0.14208984,-0.13427734,-5.1879883,8.7890625,-6.286621,0.0,0.0,0.0,133.56628,78.71155,-41.21521
1768029938123,-0.9863281,0.14208984,-0.13427734,-5.1879883,8.7890625,-6.286621,0.0,0.0,0.0,134.86267,78.90381,-38.69934
1768029938211,-0.98828125,0.12841797,-0.15478516,-8.483887,4.3945312,-1.8310547,0.0,0.0,0.0,134.86267,78.90381,-38.69934
1768029938222,-0.98828125,0.12841797,-0.15478516,-8.483887,4.3945312,-1.8310547,0.0,0.0,0.0,137.82898,78.73901,-34.969482
1768029938311,-0.984375,0.13916016,-0.16210938,0.5493164,1.5258789,0.061035156,0.0,0.0,0.0,137.82898,78.73901,-34.969482
1768029938322,-0.984375,0.13916016,-0.16210938,0.5493164,1.5258789,0.061035156,0.0,0.0,0.0,139.80652,78.57422,-32.84912
1768029938410,-0.97265625,0.13427734,-0.107910156,4.0893555,4.8828125,-1.3427734,0.0,0.0,0.0,139.80652,78.57422,-32.84912
1768029938422,-0.97265625,0.13427734,-0.107910156,4.0893555,4.8828125,-1.3427734,0.0,0.0,0.0,140.75684,78.23364,-31.981201
1768029938510,-0.97558594,0.11328125,-0.14746094,1.159668,2.9296875,-0.30517578,0.0,0.0,0.0,140.75684,78.23364,-31.981201
1768029938522,-0.97558594,0.11328125,-0.14746094,1.159668,2.9296875,-0.30517578,0.0,0.0,0.0,140.5426,78.21167,-32.44812
1768029938610,-0.98828125,0.10449219,-0.15820312,-0.6713867,2.4414062,-1.159668,0.0,0.0,0.0,140.5426,78.21167,-32.44812
1768029938621,-0.98828125,0.10449219,-0.15820312,-0.6713867,2.4414062,-1.159668,0.0,0.0,0.0,141.88293,78.24463,-31.431885
1768029938710,-0.9760742,0.115234375,-0.15332031,0.0,0.4272461,-0.6713867,0.0,0.0,0.0,141.88293,78.24463,-31.431885
1768029938721,-0.9760742,0.115234375,-0.15332031,0.0,0.4272461,-0.6713867,0.0,0.0,0.0,142.41577,78.2666,-30.827637
1768029938809,-0.98583984,0.12060547,-0.15429688,-1.2817383,-4.8217773,0.79345703,0.0,0.0,0.0,142.41577,78.2666,-30.827637
1768029938821,-0.98583984,0.12060547,-0.15429688,-1.2817383,-4.8217773,0.79345703,0.0,0.0,0.0,141.41052,78.5083,-31.783447
1768029938909,-0.9838867,0.12207031,-0.16845703,1.4038086,-2.0141602,0.24414062,0.0,0.0,0.0,141.41052,78.5083,-31.783447
1768029938921,-0.9838867,0.12207031,-0.16845703,1.4038086,-2.0141602,0.24414062,0.0,0.0,0.0,139.86694,78.777466,-33.349
1768029939009,-0.9868164,0.11669922,-0.15283203,-2.1362305,-1.2207031,2.380371,0.0,0.0,0.0,139.86694,78.777466,-33.349
1768029939021,-0.9868164,0.11669922,-0.15283203,-2.1362305,-1.2207031,2.380371,0.0,0.0,0.0,139.47144,78.74451,-33.793945
1768029939109,-0.9560547,0.14550781,-0.04248047,7.6293945,4.760742,-3.479004,0.0,0.0,0.0,139.47144,78.74451,-33.793945
1768029939121,-0.9560547,0.14550781,-0.04248047,7.6293945,4.760742,-3.479004,0.0,0.0,0.0,139.69116,78.57422,-33.321533
1768029939208,-0.9873047,0.10546875,-0.15673828,1.3427734,2.319336,-0.061035156,0.0,0.0,0.0,139.69116,78.57422,-33.321533
1768029939220,-0.9873047,0.10546875,-0.15673828,1.3427734,2.319336,-0.061035156,0.0,0.0,0.0,138.81226,78.66211,-34.48059
1768029939308,-0.9790039,0.104003906,-0.15576172,-2.746582,6.5307617,-0.79345703,0.0,0.0,0.0,138.81226,78.66211,-34.48059
1768029939320,-0.9790039,0.104003906,-0.15576172,-2.746582,6.5307617,-0.79345703,0.0,0.0,0.0,140.59753,78.464355,-32.88208
1768029939408,-0.9838867,0.12109375,-0.14746094,2.5024414,-0.5493164,0.0,0.0,0.0,0.0,140.59753,78.464355,-32.88208
1768029939420,-0.9838867,0.12109375,-0.14746094,2.5024414,-0.5493164,0.0,0.0,0.0,0.0,141.47644,78.409424,-32.162476
1768029939507,-0.9868164,0.110839844,-0.15527344,3.0517578,-2.0751953,0.12207031,0.0,0.0,0.0,141.47644,78.409424,-32.162476
1768029939519,-0.9868164,0.110839844,-0.15527344,3.0517578,-2.0751953,0.12207031,0.0,0.0,0.0,141.76758,78.5907,-32.49756
1768029939607,-0.9946289,0.11279297,-0.14697266,-1.3427734,-0.4272461,-2.380371,0.0,0.0,0.0,141.76758,78.5907,-32.49756
1768029939619,-0.9946289,0.11279297,-0.14697266,-1.3427734,-0.4272461,-2.380371,0.0,0.0,0.0,142.36084,78.6676,-31.959229
1768029939707,-0.9628906,0.12646484,-0.15478516,0.24414062,3.6621094,-1.5258789,0.0,0.0,0.0,142.36084,78.6676,-31.959229
1768029939718,-0.9628906,0.12646484,-0.15478516,0.24414062,3.6621094,-1.5258789,0.0,0.0,0.0,143.00903,78.66211,-31.003418
1768029939807,-0.98535156,0.12011719,-0.16503906,4.760742,1.159668,0.7324219,0.0,0.0,0.0,143.00903,78.66211,-31.003418
1768029939818,-0.98535156,0.12011719,-0.16503906,4.760742,1.159668,0.7324219,0.0,0.0,0.0,143.5144,78.53027,-30.657349
1768029939906,-0.99316406,0.11230469,-0.14257812,-2.319336,-9.887695,5.9814453,0.0,0.0,0.0,143.5144,78.53027,-30.657349
1768029939918,-0.99316406,0.11230469,-0.14257812,-2.319336,-9.887695,5.9814453,0.0,0.0,0.0,142.13013,78.55774,-32.332764
1768029940006,-0.9716797,0.1303711,-0.13378906,3.7841797,-5.065918,1.6479492,0.0,0.0,0.0,142.13013,78.55774,-32.332764
1768029940017,-0.9716797,0.1303711,-0.13378906,3.7841797,-5.065918,1.6479492,0.0,0.0,0.0,138.25195,78.85986,-36.1615
1768029940106,-0.98779297,0.13134766,-0.125,3.4179688,-7.8125,3.9672852,0.0,0.0,0.0,138.25195,78.85986,-36.1615
1768029940117,-0.98779297,0.13134766,-0.125,3.4179688,-7.8125,3.9672852,0.0,0.0,0.0,134.71436,79.12903,-39.990234
1768029940205,-0.99853516,0.12841797,-0.11621094,0.0,-7.6904297,3.9672852,0.0,0.0,0.0,134.71436,79.12903,-39.990234
1768029940217,-0.99853516,0.12841797,-0.11621094,0.0,-7.6904297,3.9672852,0.0,0.0,0.0,129.90234,79.45862,-45.076904
1768029940305,-0.9814453,0.12890625,-0.09375,-0.91552734,-3.4179688,2.1362305,0.0,0.0,0.0,129.90234,79.45862,-45.076904
1768029940317,-0.9814453,0.12890625,-0.09375,-0.91552734,-3.4179688,2.1362305,0.0,0.0,0.0,127.76001,79.53552,-47.235718
1768029940405,-0.9975586,0.1484375,-0.110839844,-5.065918,2.5634766,0.0,0.0,0.0,0.0,127.76001,79.53552,-47.235718
1768029940416,-0.9975586,0.1484375,-0.110839844,-5.065918,2.5634766,0.0,0.0,0.0,0.0,126.91406,79.469604,-47.559814
1768029940505,-0.9814453,0.1616211,-0.11328125,-1.7700195,5.79834,0.79345703,0.0,0.0,0.0,126.91406,79.469604,-47.559814
1768029940516,-0.9814453,0.1616211,-0.11328125,-1.7700195,5.79834,0.79345703,0.0,0.0,0.0,128.28186,79.107056,-45.62622
1768029940604,-0.98779297,0.16699219,-0.12548828,2.746582,5.92041,1.2207031,0.0,0.0,0.0,128.28186,79.107056,-45.62622
1768029940616,-0.98779297,0.16699219,-0.12548828,2.746582,5.92041,1.2207031,0.0,0.0,0.0,130.2539,78.61267,-43.527832
1768029940705,-0.96240234,0.14648438,-0.13378906,7.2021484,3.6010742,-0.91552734,0.0,0.0,0.0,130.2539,78.61267,-43.527832
1768029940716,-0.96240234,0.14648438,-0.13378906,7.2021484,3.6010742,-0.91552734,0.0,0.0,0.0,131.81946,78.255615,-42.357788
1768029940804,-0.98583984,0.12695312,-0.12841797,7.1411133,4.211426,-2.5634766,0.0,0.0,0.0,131.81946,78.255615,-42.357788
1768029940815,-0.98583984,0.12695312,-0.12841797,7.1411133,4.211426,-2.5634766,0.0,0.0,0.0,135.06042,78.1073,-39.82544
1768029940904,-0.98876953,0.12548828,-0.11816406,-3.7231445,0.4272461,-1.0986328,0.0,0.0,0.0,135.06042,78.1073,-39.82544
1768029940915,-0.98876953,0.12548828,-0.11816406,-3.7231445,0.4272461,-1.0986328,0.0,0.0,0.0,136.97754,78.14575,-38.26538
1768029941004,-0.9848633,0.14746094,-0.1430664,-7.080078,-4.333496,1.4648438,0.0,0.0,0.0,136.97754,78.14575,-38.26538
1768029941015,-0.9848633,0.14746094,-0.1430664,-7.080078,-4.333496,1.4648438,0.0,0.0,0.0,134.80774,78.32703,-39.666138
1768029941103,-0.99072266,0.15185547,-0.14404297,0.9765625,-3.3569336,-1.7089844,0.0,0.0,0.0,134.80774,78.32703,-39.666138
1768029941115,-0.99072266,0.15185547,-0.14404297,0.9765625,-3.3569336,-1.7089844,0.0,0.0,0.0,132.24243,78.63464,-41.764526
1768029941203,-0.97216797,0.13085938,-0.114746094,5.432129,-0.6713867,-3.1738281,0.0,0.0,0.0,132.24243,78.63464,-41.764526
1768029941214,-0.97216797,0.13085938,-0.114746094,5.432129,-0.6713867,-3.1738281,0.0,0.0,0.0,133.70361,78.84888,-40.803223
1768029941302,-0.98339844,0.12939453,-0.11621094,-1.159668,0.8544922,-2.1362305,0.0,0.0,0.0,133.70361,78.84888,-40.803223
1768029941314,-0.98339844,0.12939453,-0.11621094,-1.159668,0.8544922,-2.1362305,0.0,0.0,0.0,134.10461,79.035645,-40.36377
1768029941402,-0.9819336,0.13720703,-0.13183594,-0.061035156,-1.2817383,-0.91552734,0.0,0.0,0.0,134.10461,79.035645,-40.36377
1768029941414,-0.9819336,0.13720703,-0.13183594,-0.061035156,-1.2817383,-0.91552734,0.0,0.0,0.0,134.00574,79.20044,-40.31433
1768029941502,-0.98583984,0.13623047,-0.13964844,0.061035156,-0.6713867,0.061035156,0.0,0.0,0.0,134.00574,79.20044,-40.31433
1768029941514,-0.98583984,0.13623047,-0.13964844,0.061035156,-0.6713867,0.061035156,0.0,0.0,0.0,134.23096,79.2334,-40.03418
1768029941602,-0.98876953,0.12011719,-0.1171875,2.8686523,-1.3427734,-0.12207031,0.0,0.0,0.0,134.23096,79.2334,-40.03418
1768029941614,-0.98876953,0.12011719,-0.1171875,2.8686523,-1.3427734,-0.12207031,0.0,0.0,0.0,134.17603,79.24988,-40.198975
1768029941701,-0.9902344,0.1328125,-0.119628906,-2.8076172,0.5493164,0.9765625,0.0,0.0,0.0,134.17603,79.24988,-40.198975
1768029941713,-0.9902344,0.1328125,-0.119628906,-2.8076172,0.5493164,0.9765625,0.0,0.0,0.0,133.61023,79.28833,-40.70984
1768029941801,-0.9863281,0.13574219,-0.11816406,-1.0986328,-0.9765625,0.9765625,0.0,0.0,0.0,133.61023,79.28833,-40.70984
1768029941813,-0.9863281,0.13574219,-0.11816406,-1.0986328,-0.9765625,0.9765625,0.0,0.0,0.0,133.0719,79.227905,-41.083374
1768029941902,-0.98291016,0.13476562,-0.12548828,-5.432129,-1.7089844,-1.0375977,0.0,0.0,0.0,133.0719,79.227905,-41.083374
1768029941912,-0.98291016,0.13476562,-0.12548828,-5.432129,-1.7089844,-1.0375977,0.0,0.0,0.0,132.12158,79.3103,-41.715088
1768029942001,-0.98583984,0.14208984,-0.123535156,-1.4648438,-0.18310547,-1.159668,0.0,0.0,0.0,132.12158,79.3103,-41.715088
1768029942012,-0.98583984,0.14208984,-0.123535156,-1.4648438,-0.18310547,-1.159668,0.0,0.0,0.0,131.66565,79.48059,-41.80298
1768029942100,-0.9868164,0.1381836,-0.10888672,3.0517578,0.12207031,0.18310547,0.0,0.0,0.0,131.66565,79.48059,-41.80298
1768029942112,-0.9868164,0.1381836,-0.10888672,3.0517578,0.12207031,0.18310547,0.0,0.0,0.0,131.6217,79.53552,-41.85791
1768029942200,-0.9902344,0.13232422,-0.099121094,3.4179688,1.0375977,1.5869141,0.0,0.0,0.0,131.6217,79.53552,-41.85791
1768029942211,-0.9902344,0.13232422,-0.099121094,3.4179688,1.0375977,1.5869141,0.0,0.0,0.0,132.23145,79.469604,-41.687622
1768029942300,-0.98583984,0.1352539,-0.1171875,6.591797,1.2817383,3.8452148,0.0,0.0,0.0,132.23145,79.469604,-41.687622
1768029942311,-0.98583984,0.1352539,-0.1171875,6.591797,1.2817383,3.8452148,0.0,0.0,0.0,131.2207,79.23889,-43.11035
1768029942399,-0.9848633,0.12207031,-0.119140625,6.652832,-1.5258789,0.79345703,0.0,0.0,0.0,131.2207,79.23889,-43.11035
1768029942411,-0.9848633,0.12207031,-0.119140625,6.652832,-1.5258789,0.79345703,0.0,0.0,0.0,131.39099,79.10156,-43.90686
1768029942499,-0.9892578,0.11816406,-0.122558594,4.8217773,-3.0517578,-1.7700195,0.0,0.0,0.0,131.39099,79.10156,-43.90686
1768029942511,-0.9892578,0.11816406,-0.122558594,4.8217773,-3.0517578,-1.7700195,0.0,0.0,0.0,131.35803,79.33777,-44.588013
1768029942599,-0.9838867,0.12646484,-0.107910156,-2.6855469,-1.2817383,-2.1972656,0.0,0.0,0.0,131.35803,79.33777,-44.588013
1768029942610,-0.9838867,0.12646484,-0.107910156,-2.6855469,-1.2817383,-2.1972656,0.0,0.0,0.0,131.57776,79.65637,-44.41223
1768029942699,-0.99121094,0.12646484,-0.107910156,-5.6152344,-1.159668,-0.9765625,0.0,0.0,0.0,131.57776,79.65637,-44.41223
1768029942711,-0.99121094,0.12646484,-0.107910156,-5.6152344,-1.159668,-0.9765625,0.0,0.0,0.0,131.14929,79.8761,-44.401245
1768029942798,-0.9873047,0.12890625,-0.107421875,-4.3945312,-0.12207031,-0.9765625,0.0,0.0,0.0,131.14929,79.8761,-44.401245
1768029942810,-0.9873047,0.12890625,-0.107421875,-4.3945312,-0.12207031,-0.9765625,0.0,0.0,0.0,131.1438,79.98596,-43.89038
1768029942898,-0.99072266,0.11767578,-0.11816406,-8.483887,0.48828125,-1.3427734,0.0,0.0,0.0,131.1438,79.98596,-43.89038
1768029942910,-0.99072266,0.11767578,-0.11816406,-8.483887,0.48828125,-1.3427734,0.0,0.0,0.0,130.04517,80.128784,-44.346313
1768029942998,-0.9916992,0.13671875,-0.11230469,-7.5683594,-2.6245117,-0.12207031,0.0,0.0,0.0,130.04517,80.128784,-44.346313
1768029943009,-0.9916992,0.13671875,-0.11230469,-7.5683594,-2.6245117,-0.12207031,0.0,0.0,0.0,129.47388,80.22217,-44.208984
1768029943098,-0.98779297,0.13183594,-0.104003906,0.0,0.48828125,-1.7089844,0.0,0.0,0.0,129.47388,80.22217,-44.208984
1768029943109,-0.98779297,0.13183594,-0.104003906,0.0,0.48828125,-1.7089844,0.0,0.0,0.0,130.177,80.321045,-43.24768
1768029943197,-0.98583984,0.125,-0.11279297,2.380371,1.4648438,-1.159668,0.0,0.0,0.0,130.177,80.321045,-43.24768
1768029943209,-0.98583984,0.125,-0.11279297,2.380371,1.4648438,-1.159668,0.0,0.0,0.0,130.86914,80.321045,-42.456665
1768029943297,-0.9892578,0.12548828,-0.118652344,3.8452148,-0.24414062,-0.30517578,0.0,0.0,0.0,130.86914,80.321045,-42.456665
1768029943309,-0.9892578,0.12548828,-0.118652344,3.8452148,-0.24414062,-0.30517578,0.0,0.0,0.0,131.19324,80.3595,-42.368774
1768029943397,-0.9902344,0.12109375,-0.10546875,3.540039,-1.2207031,1.0375977,0.0,0.0,0.0,131.19324,80.3595,-42.368774
1768029943408,-0.9902344,0.12109375,-0.10546875,3.540039,-1.2207031,1.0375977,0.0,0.0,0.0,131.39099,80.337524,-42.610474
1768029943497,-0.9902344,0.12451172,-0.10449219,4.8217773,0.30517578,0.12207031,0.0,0.0,0.0,131.39099,80.337524,-42.610474
1768029943508,-0.9902344,0.12451172,-0.10449219,4.8217773,0.30517578,0.12207031,0.0,0.0,0.0,131.48987,80.337524,-42.989502
1768029943596,-0.9916992,0.119140625,-0.103027344,3.2348633,-0.24414062,0.24414062,0.0,0.0,0.0,131.48987,80.337524,-42.989502
1768029943608,-0.9916992,0.119140625,-0.103027344,3.2348633,-0.24414062,0.24414062,0.0,0.0,0.0,132.05566,80.321045,-42.93457
1768029943696,-0.99316406,0.12158203,-0.1015625,3.3569336,3.2348633,-1.2207031,0.0,0.0,0.0,132.05566,80.321045,-42.93457
1768029943708,-0.99316406,0.12158203,-0.1015625,3.3569336,3.2348633,-1.2207031,0.0,0.0,0.0,133.34106,80.25513,-41.918335
1768029943796,-0.98828125,0.11816406,-0.1171875,0.9765625,3.112793,-0.30517578,0.0,0.0,0.0,133.34106,80.25513,-41.918335
1768029943807,-0.98828125,0.11816406,-0.1171875,0.9765625,3.112793,-0.30517578,0.0,0.0,0.0,134.1101,80.128784,-41.193237
1768029943895,-0.9868164,0.11816406,-0.11621094,0.36621094,2.1972656,-0.91552734,0.0,0.0,0.0,134.1101,80.128784,-41.193237
1768029943908,-0.9868164,0.11816406,-0.11621094,0.36621094,2.1972656,-0.91552734,0.0,0.0,0.0,135.6427,80.02991,-39.84192
1768029943995,-0.9892578,0.115722656,-0.114746094,0.91552734,1.5258789,-0.24414062,0.0,0.0,0.0,135.6427,80.02991,-39.84192
1768029944007,-0.9892578,0.115722656,-0.114746094,0.91552734,1.5258789,-0.24414062,0.0,0.0,0.0,137.37305,79.93652,-38.29834
1768029944095,-0.9848633,0.115234375,-0.1171875,0.18310547,1.159668,0.36621094,0.0,0.0,0.0,137.37305,79.93652,-38.29834
1768029944107,-0.9848633,0.115234375,-0.1171875,0.18310547,1.159668,0.36621094,0.0,0.0,0.0,137.87842,79.85962,-37.858887
1768029944195,-0.98828125,0.11669922,-0.12695312,-1.7089844,1.4648438,1.5869141,0.0,0.0,0.0,137.87842,79.85962,-37.858887
1768029944207,-0.98828125,0.11669922,-0.12695312,-1.7089844,1.4648438,1.5869141,0.0,0.0,0.0,137.5763,79.73328,-38.0896
1768029944294,-0.9892578,0.115722656,-0.12939453,-3.8452148,1.4038086,1.159668,0.0,0.0,0.0,137.5763,79.73328,-38.0896
1768029944306,-0.9892578,0.115722656,-0.12939453,-3.8452148,1.4038086,1.159668,0.0,0.0,0.0,137.31262,79.557495,-38.139038
1768029944394,-0.9824219,0.12548828,-0.12207031,-0.91552734,0.7324219,0.30517578,0.0,0.0,0.0,137.31262,79.557495,-38.139038
1768029944406,-0.9824219,0.12548828,-0.12207031,-0.91552734,0.7324219,0.30517578,0.0,0.0,0.0,137.69714,79.40369,-37.457886
1768029944494,-0.98779297,0.11816406,-0.1430664,0.18310547,1.0986328,-0.4272461,0.0,0.0,0.0,137.69714,79.40369,-37.457886
1768029944505,-0.98779297,0.11816406,-0.1430664,0.18310547,1.0986328,-0.4272461,0.0,0.0,0.0,137.03247,79.41467,-38.02368
1768029944593,-0.98535156,0.12158203,-0.13671875,-0.79345703,-1.7089844,1.2817383,0.0,0.0,0.0,137.03247,79.41467,-38.02368
1768029944605,-0.98535156,0.12158203,-0.13671875,-0.79345703,-1.7089844,1.2817383,0.0,0.0,0.0,136.49414,79.43115,-38.622437
1768029944693,-0.98828125,0.12451172,-0.12060547,0.24414062,-0.7324219,0.12207031,0.0,0.0,0.0,136.49414,79.43115,-38.622437
1768029944705,-0.98828125,0.12451172,-0.12060547,0.24414062,-0.7324219,0.12207031,0.0,0.0,0.0,136.6095,79.42566,-38.600464
1768029944793,-0.9848633,0.123046875,-0.125,0.91552734,1.5869141,-0.36621094,0.0,0.0,0.0,136.6095,79.42566,-38.600464
1768029944804,-0.9848633,0.123046875,-0.125,0.91552734,1.5869141,-0.36621094,0.0,0.0,0.0,137.03247,79.37073,-38.095093
1768029944893,-0.9873047,0.12109375,-0.13134766,-0.5493164,1.2207031,0.18310547,0.0,0.0,0.0,137.03247,79.37073,-38.095093
1768029944905,-0.9873047,0.12109375,-0.13134766,-0.5493164,1.2207031,0.18310547,0.0,0.0,0.0,137.1643,79.30481,-37.902832
1768029944992,-0.9873047,0.12402344,-0.13623047,-0.36621094,0.7324219,1.0375977,0.0,0.0,0.0,137.1643,79.30481,-37.902832
1768029945004,-0.9873047,0.12402344,-0.13623047,-0.36621094,0.7324219,1.0375977,0.0,0.0,0.0,137.04895,79.21692,-37.941284
1768029945092,-0.984375,0.12695312,-0.13769531,-0.36621094,0.30517578,1.159668,0.0,0.0,0.0,137.04895,79.21692,-37.941284
1768029945104,-0.984375,0.12695312,-0.13769531,-0.36621094,0.30517578,1.159668,0.0,0.0,0.0,136.86768,79.10156,-38.100586
1768029945192,-0.9873047,0.12890625,-0.13720703,-0.5493164,1.6479492,0.24414062,0.0,0.0,0.0,136.86768,79.10156,-38.100586
1768029945203,-0.9873047,0.12890625,-0.13720703,-0.5493164,1.6479492,0.24414062,0.0,0.0,0.0,136.9336,79.002686,-38.00171
1768029945291,-0.9863281,0.13085938,-0.1303711,0.61035156,-1.2207031,1.4648438,0.0,0.0,0.0,136.9336,79.002686,-38.00171
1768029945303,-0.9863281,0.13085938,-0.1303711,0.61035156,-1.2207031,1.4648438,0.0,0.0,0.0,136.77429,78.96423,-38.23242
1768029945391,-0.9819336,0.13378906,-0.11621094,-0.24414062,0.5493164,1.0375977,0.0,0.0,0.0,136.77429,78.96423,-38.23242
1768029945403,-0.9819336,0.13378906,-0.11621094,-0.24414062,0.5493164,1.0375977,0.0,0.0,0.0,137.19177,78.86536,-37.930298
1768029945491,-0.9863281,0.12988281,-0.14013672,0.79345703,1.8920898,-0.18310547,0.0,0.0,0.0,137.19177,78.86536,-37.930298
1768029945502,-0.9863281,0.12988281,-0.14013672,0.79345703,1.8920898,-0.18310547,0.0,0.0,0.0,136.81824,78.77197,-38.199463
1768029945591,-0.9863281,0.12695312,-0.1508789,-1.2207031,2.0751953,-0.36621094,0.0,0.0,0.0,136.81824,78.77197,-38.199463
1768029945602,-0.9863281,0.12695312,-0.1508789,-1.2207031,2.0751953,-0.36621094,0.0,0.0,0.0,137.25769,78.706055,-37.72705
1768029945690,-0.98535156,0.12841797,-0.1459961,-0.5493164,0.5493164,0.0,0.0,0.0,0.0,137.25769,78.706055,-37.72705
1768029945702,-0.98535156,0.12841797,-0.1459961,-0.5493164,0.5493164,0.0,0.0,0.0,0.0,138.0542,78.62366,-36.90857
1768029945790,-0.9824219,0.1303711,-0.14257812,-0.36621094,0.48828125,0.4272461,0.0,0.0,0.0,138.0542,78.62366,-36.90857
1768029945802,-0.9824219,0.1303711,-0.14257812,-0.36621094,0.48828125,0.4272461,0.0,0.0,0.0,138.4497,78.55774,-36.518555
1768029945890,-0.98339844,0.1303711,-0.14355469,0.8544922,0.30517578,0.5493164,0.0,0.0,0.0,138.4497,78.55774,-36.518555
1768029945901,-0.98339844,0.1303711,-0.14355469,0.8544922,0.30517578,0.5493164,0.0,0.0,0.0,138.39478,78.49182,-36.61743
1768029945989,-0.98583984,0.1274414,-0.14501953,1.0986328,-0.24414062,0.36621094,0.0,0.0,0.0,138.39478,78.49182,-36.61743
1768029946001,-0.98583984,0.1274414,-0.14501953,1.0986328,-0.24414062,0.36621094,0.0,0.0,0.0,138.25195,78.47534,-36.870117
1768029946089,-0.9824219,0.12695312,-0.13867188,0.91552734,0.79345703,-0.24414062,0.0,0.0,0.0,138.25195,78.47534,-36.870117
1768029946101,-0.9824219,0.12695312,-0.13867188,0.91552734,0.79345703,-0.24414062,0.0,0.0,0.0,138.51562,78.44238,-36.710815
1768029946189,-0.9873047,0.12548828,-0.14453125,-0.5493164,0.18310547,-0.061035156,0.0,0.0,0.0,138.51562,78.44238,-36.710815
1768029946200,-0.9873047,0.12548828,-0.14453125,-0.5493164,0.18310547,-0.061035156,0.0,0.0,0.0,138.04321,78.5083,-37.26013
1768029946289,-0.9819336,0.13232422,-0.14208984,-2.5634766,-0.9765625,1.2207031,0.0,0.0,0.0,138.04321,78.5083,-37.26013
1768029946300,-0.9819336,0.13232422,-0.14208984,-2.5634766,-0.9765625,1.2207031,0.0,0.0,0.0,138.23547,78.48633,-37.01294
1768029946388,-0.98339844,0.13574219,-0.13964844,-0.79345703,1.2817383,-0.30517578,0.0,0.0,0.0,138.23547,78.48633,-37.01294
1768029946400,-0.98339844,0.13574219,-0.13964844,-0.79345703,1.2817383,-0.30517578,0.0,0.0,0.0,138.25195,78.42041,-36.831665
1768029946488,-0.98291016,0.12988281,-0.15234375,-1.2817383,4.0893555,-0.7324219,0.0,0.0,0.0,138.25195,78.42041,-36.831665
1768029946500,-0.98291016,0.12988281,-0.15234375,-1.2817383,4.0893555,-0.7324219,0.0,0.0,0.0,138.76831,78.288574,-36.117554
1768029946588,-0.9819336,0.13183594,-0.15771484,-0.6713867,2.1972656,0.12207031,0.0,0.0,0.0,138.76831,78.288574,-36.117554
1768029946599,-0.9819336,0.13183594,-0.15771484,-0.6713867,2.1972656,0.12207031,0.0,0.0,0.0,139.5813,78.10181,-35.21118
1768029946688,-0.98046875,0.1352539,-0.15820312,-0.5493164,1.953125,0.5493164,0.0,0.0,0.0,139.5813,78.10181,-35.21118
1768029946700,-0.98046875,0.1352539,-0.15820312,-0.5493164,1.953125,0.5493164,0.0,0.0,0.0,140.12512,77.91504,-34.61792
1768029946787,-0.9819336,0.13427734,-0.15917969,-0.79345703,2.1972656,0.30517578,0.0,0.0,0.0,140.12512,77.91504,-34.61792
1768029946799,-0.9819336,0.13427734,-0.15917969,-0.79345703,2.1972656,0.30517578,0.0,0.0,0.0,140.44922,77.733765,-34.244385
1768029946887,-0.97998047,0.12988281,-0.1616211,-2.746582,1.2207031,0.0,0.0,0.0,0.0,140.44922,77.733765,-34.244385
1768029946898,-0.97998047,0.12988281,-0.1616211,-2.746582,1.2207031,0.0,0.0,0.0,0.0,140.75134,77.596436,-33.76648
1768029946987,-0.98046875,0.13476562,-0.16748047,-0.79345703,3.2348633,-0.7324219,0.0,0.0,0.0,140.75134,77.596436,-33.76648
1768029946998,-0.98046875,0.13476562,-0.16748047,-0.79345703,3.2348633,-0.7324219,0.0,0.0,0.0,141.17981,77.4646,-33.063354
1768029947086,-0.98291016,0.12841797,-0.16308594,0.24414062,-1.2207031,0.48828125,0.0,0.0,0.0,141.17981,77.4646,-33.063354
1768029947098,-0.98291016,0.12841797,-0.16308594,0.24414062,-1.2207031,0.48828125,0.0,0.0,0.0,141.43799,77.4646,-32.860107
1768029947186,-0.9770508,0.13330078,-0.15136719,0.061035156,0.36621094,-0.061035156,0.0,0.0,0.0,141.43799,77.4646,-32.860107
1768029947198,-0.9770508,0.13330078,-0.15136719,0.061035156,0.36621094,-0.061035156,0.0,0.0,0.0,142.35535,77.39868,-32.036133
1768029947286,-0.9794922,0.13085938,-0.17138672,1.4648438,1.7700195,-1.0986328,0.0,0.0,0.0,142.35535,77.39868,-32.036133
1768029947301,-0.9794922,0.13085938,-0.17138672,1.4648438,1.7700195,-1.0986328,0.0,0.0,0.0,142.51465,77.387695,-31.816406
1768029947386,-0.98291016,0.12402344,-0.18164062,-2.6855469,1.8310547,-0.4272461,0.0,0.0,0.0,142.51465,77.387695,-31.816406
1768029947397,-0.98291016,0.12402344,-0.18164062,-2.6855469,1.8310547,-0.4272461,0.0,0.0,0.0,142.8772,77.33826,-31.333008
1768029947485,-0.9794922,0.12792969,-0.17578125,-2.0141602,-0.18310547,0.18310547,0.0,0.0,0.0,142.8772,77.33826,-31.333008
1768029947497,-0.9794922,0.12792969,-0.17578125,-2.0141602,-0.18310547,0.18310547,0.0,0.0,0.0,143.22327,77.27783,-30.838623
1768029947585,-0.9765625,0.13330078,-0.17138672,-1.0375977,-0.61035156,0.48828125,0.0,0.0,0.0,143.22327,77.27783,-30.838623
1768029947597,-0.9765625,0.13330078,-0.17138672,-1.0375977,-0.61035156,0.48828125,0.0,0.0,0.0,143.08044,77.27234,-30.893555
1768029947685,-0.97998047,0.13085938,-0.17529297,0.48828125,-0.36621094,0.18310547,0.0,0.0,0.0,143.08044,77.27234,-30.893555
1768029947696,-0.97998047,0.13085938,-0.17529297,0.48828125,-0.36621094,0.18310547,0.0,0.0,0.0,142.83325,77.27783,-31.151733
1768029947785,-0.98095703,0.12890625,-0.16992188,-0.18310547,-0.9765625,0.36621094,0.0,0.0,0.0,142.83325,77.27783,-31.151733
1768029947796,-0.98095703,0.12890625,-0.16992188,-0.18310547,-0.9765625,0.36621094,0.0,0.0,0.0,142.64099,77.316284,-31.38794
1768029947884,-0.97509766,0.13232422,-0.16601562,0.79345703,0.24414062,-0.18310547,0.0,0.0,0.0,142.64099,77.316284,-31.38794
1768029947896,-0.97509766,0.13232422,-0.16601562,0.79345703,0.24414062,-0.18310547,0.0,0.0,0.0,142.76184,77.31079,-31.278076
1768029947984,-0.9916992,0.1274414,-0.1796875,0.9765625,-1.3427734,-0.61035156,0.0,0.0,0.0,142.76184,77.31079,-31.278076
1768029947996,-0.9916992,0.1274414,-0.1796875,0.9765625,-1.3427734,-0.61035156,0.0,0.0,0.0,142.19055,77.44812,-31.975708
1768029948084,-0.98779297,0.12207031,-0.17578125,-11.108398,-7.9345703,1.6479492,0.0,0.0,0.0,142.19055,77.44812,-31.975708
1768029948095,-0.98779297,0.12207031,-0.17578125,-11.108398,-7.9345703,1.6479492,0.0,0.0,0.0,140.60852,77.72278,-33.112793
1768029948184,-0.97558594,0.13769531,-0.12402344,-1.0375977,2.380371,-6.225586,0.0,0.0,0.0,140.60852,77.72278,-33.112793
1768029948195,-0.97558594,0.13769531,-0.12402344,-1.0375977,2.380371,-6.225586,0.0,0.0,0.0,141.36108,77.88757,-31.640625
1768029948283,-0.98535156,0.115722656,-0.14453125,-10.437012,3.1738281,-2.746582,0.0,0.0,0.0,141.36108,77.88757,-31.640625
1768029948295,-0.98535156,0.115722656,-0.14453125,-10.437012,3.1738281,-2.746582,0.0,0.0,0.0,141.97632,78.046875,-30.217896
1768029948383,-0.9873047,0.118652344,-0.16552734,-7.751465,-0.91552734,1.2817383,0.0,0.0,0.0,141.97632,78.046875,-30.217896
1768029948395,-0.9873047,0.118652344,-0.16552734,-7.751465,-0.91552734,1.2817383,0.0,0.0,0.0,141.828,77.99744,-29.641113
1768029948483,-0.98583984,0.13134766,-0.14404297,-5.3100586,2.5634766,-0.5493164,0.0,0.0,0.0,141.828,77.99744,-29.641113
1768029948494,-0.98583984,0.13134766,-0.14404297,-5.3100586,2.5634766,-0.5493164,0.0,0.0,0.0,141.92688,77.81616,-28.833618
1768029948582,-0.9707031,0.14111328,-0.14404297,-1.953125,-1.4038086,0.8544922,0.0,0.0,0.0,141.92688,77.81616,-28.833618
1768029948594,-0.9707031,0.14111328,-0.14404297,-1.953125,-1.4038086,0.8544922,0.0,0.0,0.0,141.16333,77.75574,-29.08081
1768029948682,-0.9946289,0.1274414,-0.1665039,-0.91552734,-0.061035156,2.380371,0.0,0.0,0.0,141.16333,77.75574,-29.08081
1768029948694,-0.9946289,0.1274414,-0.1665039,-0.91552734,-0.061035156,2.380371,0.0,0.0,0.0,139.30664,77.838135,-30.83313
1768029948782,-0.97802734,0.14257812,-0.16113281,4.211426,-1.8920898,2.380371,0.0,0.0,0.0,139.30664,77.838135,-30.83313
1768029948794,-0.97802734,0.14257812,-0.16113281,4.211426,-1.8920898,2.380371,0.0,0.0,0.0,139.16382,77.66235,-31.151733
1768029948882,-0.9760742,0.13964844,-0.17285156,4.760742,1.4038086,0.18310547,0.0,0.0,0.0,139.16382,77.66235,-31.151733
1768029948893,-0.9760742,0.13964844,-0.17285156,4.760742,1.4038086,0.18310547,0.0,0.0,0.0,138.59802,77.612915,-32.096558
1768029948982,-0.97753906,0.1381836,-0.16308594,3.9672852,-1.7700195,0.4272461,0.0,0.0,0.0,138.59802,77.612915,-32.096558
1768029948993,-0.97753906,0.1381836,-0.16308594,3.9672852,-1.7700195,0.4272461,0.0,0.0,0.0,138.65845,77.645874,-32.557983
1768029949081,-0.9863281,0.13574219,-0.1640625,-0.9765625,0.9765625,-0.36621094,0.0,0.0,0.0,138.65845,77.645874,-32.557983
1768029949093,-0.9863281,0.13574219,-0.1640625,-0.9765625,0.9765625,-0.36621094,0.0,0.0,0.0,139.14734,77.7063,-32.316284
1768029949181,-0.98046875,0.13574219,-0.13427734,2.9296875,6.3476562,-1.3427734,0.0,0.0,0.0,139.14734,77.7063,-32.316284
1768029949192,-0.98046875,0.13574219,-0.13427734,2.9296875,6.3476562,-1.3427734,0.0,0.0,0.0,140.81726,77.3822,-30.536499
1768029949280,-0.98095703,0.13623047,-0.1665039,-1.0375977,-0.18310547,0.4272461,0.0,0.0,0.0,140.81726,77.3822,-30.536499
1768029949292,-0.98095703,0.13623047,-0.1665039,-1.0375977,-0.18310547,0.4272461,0.0,0.0,0.0,140.47119,77.3822,-30.822144
1768029949380,-0.98535156,0.13623047,-0.15966797,1.8310547,-1.0375977,0.5493164,0.0,0.0,0.0,140.47119,77.3822,-30.822144
1768029949392,-0.98535156,0.13623047,-0.15966797,1.8310547,-1.0375977,0.5493164,0.0,0.0,0.0,140.41077,77.45361,-31.080322
1768029949480,-0.96972656,0.12597656,-0.14550781,5.9814453,-3.2348633,0.12207031,0.0,0.0,0.0,140.41077,77.45361,-31.080322
1768029949491,-0.96972656,0.12597656,-0.14550781,5.9814453,-3.2348633,0.12207031,0.0,0.0,0.0,140.33386,77.547,-31.629639
1768029949580,-0.98291016,0.1274414,-0.16259766,3.3569336,0.9765625,-0.6713867,0.0,0.0,0.0,140.33386,77.547,-31.629639
1768029949591,-0.98291016,0.1274414,-0.16259766,3.3569336,0.9765625,-0.6713867,0.0,0.0,0.0,139.77905,77.733765,-32.508545
1768029949680,-0.98535156,0.1171875,-0.16259766,0.4272461,-1.159668,0.18310547,0.0,0.0,0.0,139.77905,77.733765,-32.508545
1768029949691,-0.98535156,0.1171875,-0.16259766,0.4272461,-1.159668,0.18310547,0.0,0.0,0.0,140.32837,77.805176,-32.299805
1768029949779,-0.9790039,0.13232422,-0.16357422,-3.3569336,3.4179688,-1.4648438,0.0,0.0,0.0,140.32837,77.805176,-32.299805
1768029949791,-0.9790039,0.13232422,-0.16357422,-3.3569336,3.4179688,-1.4648438,0.0,0.0,0.0,141.79504,77.67883,-30.662842
1768029949879,-0.9770508,0.13720703,-0.17236328,-2.0141602,4.760742,-1.7089844,0.0,0.0,0.0,141.79504,77.67883,-30.662842
1768029949890,-0.9770508,0.13720703,-0.17236328,-2.0141602,4.760742,-1.7089844,0.0,0.0,0.0,142.77832,77.492065,-29.229126
1768029949979,-0.9765625,0.13378906,-0.17675781,-1.4038086,3.112793,-0.5493164,0.0,0.0,0.0,142.77832,77.492065,-29.229126
1768029949990,-0.9765625,0.13378906,-0.17675781,-1.4038086,3.112793,-0.5493164,0.0,0.0,0.0,143.6792,77.266846,-28.10852
1768029950078,-0.97753906,0.1303711,-0.17919922,2.2583008,-0.12207031,0.0,0.0,0.0,0.0,143.6792,77.266846,-28.10852
1768029950090,-0.97753906,0.1303711,-0.17919922,2.2583008,-0.12207031,0.0,0.0,0.0,0.0,144.3988,77.12402,-27.49878
1768029950178,-0.9765625,0.123535156,-0.1772461,2.5024414,-0.5493164,-0.36621094,0.0,0.0,0.0,144.3988,77.12402,-27.49878
1768029950190,-0.9765625,0.123535156,-0.1772461,2.5024414,-0.5493164,-0.36621094,0.0,0.0,0.0,144.90417,77.162476,-27.34497
1768029950278,-0.97998047,0.123535156,-0.18310547,0.8544922,0.61035156,-0.36621094,0.0,0.0,0.0,144.90417,77.162476,-27.34497
1768029950289,-0.97998047,0.123535156,-0.18310547,0.8544922,0.61035156,-0.36621094,0.0,0.0,0.0,144.98108,77.195435,-27.399902
1768029950378,-0.97998047,0.122558594,-0.18115234,0.36621094,1.3427734,-0.4272461,0.0,0.0,0.0,144.98108,77.195435,-27.399902
1768029950389,-0.97998047,0.122558594,-0.18115234,0.36621094,1.3427734,-0.4272461,0.0,0.0,0.0,145.48096,77.13501,-26.987915
1768029950477,-0.9765625,0.125,-0.1821289,2.1972656,-0.91552734,0.7324219,0.0,0.0,0.0,145.48096,77.13501,-26.987915
1768029950489,-0.9765625,0.125,-0.1821289,2.1972656,-0.91552734,0.7324219,0.0,0.0,0.0,145.83801,77.04712,-26.713257
1768029950577,-0.98046875,0.125,-0.18701172,2.8686523,4.5776367,-0.4272461,0.0,0.0,0.0,145.83801,77.04712,-26.713257
1768029950589,-0.98046875,0.125,-0.18701172,2.8686523,4.5776367,-0.4272461,0.0,0.0,0.0,145.89294,76.94275,-26.746216
1768029950677,-0.9814453,0.12060547,-0.1928711,-1.0375977,2.8076172,0.12207031,0.0,0.0,0.0,145.89294,76.94275,-26.746216
1768029950688,-0.9814453,0.12060547,-0.1928711,-1.0375977,2.8076172,0.12207031,0.0,0.0,0.0,146.4972,76.71753,-26.235352
1768029950776,-0.9760742,0.11767578,-0.1850586,-0.12207031,3.1738281,-0.79345703,0.0,0.0,0.0,146.4972,76.71753,-26.235352
1768029950788,-0.9760742,0.11767578,-0.1850586,-0.12207031,3.1738281,-0.79345703,0.0,0.0,0.0,147.71667,76.48132,-25.131226
1768029950876,-0.97021484,0.123535156,-0.18359375,3.2958984,2.8686523,-1.5258789,0.0,0.0,0.0,147.71667,76.48132,-25.131226
1768029950888,-0.97021484,0.123535156,-0.18359375,3.2958984,2.8686523,-1.5258789,0.0,0.0,0.0,149.10645,76.278076,-23.88977
1768029950976,-0.9785156,0.11376953,-0.21191406,1.8920898,2.1972656,-0.79345703,0.0,0.0,0.0,149.10645,76.278076,-23.88977
1768029950988,-0.9785156,0.11376953,-0.21191406,1.8920898,2.1972656,-0.79345703,0.0,0.0,0.0,149.79309,76.2616,-23.494263
1768029951076,-0.9716797,0.11669922,-0.19824219,0.36621094,1.7700195,-0.061035156,0.0,0.0,0.0,149.79309,76.2616,-23.494263
1768029951087,-0.9716797,0.11669922,-0.19824219,0.36621094,1.7700195,-0.061035156,0.0,0.0,0.0,151.25977,76.02539,-22.313232
1768029951175,-0.9741211,0.11230469,-0.20996094,-0.24414062,0.0,0.30517578,0.0,0.0,0.0,151.25977,76.02539,-22.313232
1768029951187,-0.9741211,0.11230469,-0.20996094,-0.24414062,0.0,0.30517578,0.0,0.0,0.0,151.26526,75.964966,-22.335205
1768029951275,-0.9741211,0.11669922,-0.20800781,0.061035156,0.4272461,0.0,0.0,0.0,0.0,151.26526,75.964966,-22.335205
1768029951286,-0.9741211,0.11669922,-0.20800781,0.061035156,0.4272461,0.0,0.0,0.0,0.0,151.24329,75.92651,-22.296753
1768029951375,-0.97753906,0.115234375,-0.20996094,-1.2207031,-1.2817383,0.18310547,0.0,0.0,0.0,151.24329,75.92651,-22.296753
1768029951386,-0.97753906,0.115234375,-0.20996094,-1.2207031,-1.2817383,0.18310547,0.0,0.0,0.0,150.5896,76.085815,-22.95044
1768029951475,-0.9736328,0.11621094,-0.19824219,-1.0986328,-2.319336,1.2207031,0.0,0.0,0.0,150.5896,76.085815,-22.95044
1768029951486,-0.9736328,0.11621094,-0.19824219,-1.0986328,-2.319336,1.2207031,0.0,0.0,0.0,150.56213,76.118774,-23.05481
1768029951574,-0.9765625,0.1171875,-0.20019531,2.4414062,1.0375977,-0.48828125,0.0,0.0,0.0,150.56213,76.118774,-23.05481
1768029951586,-0.9765625,0.1171875,-0.20019531,2.4414062,1.0375977,-0.48828125,0.0,0.0,0.0,150.72144,76.12427,-23.032837
1768029951674,-0.97509766,0.11279297,-0.20996094,-0.36621094,3.4179688,-1.159668,0.0,0.0,0.0,150.72144,76.12427,-23.032837
1768029951685,-0.97509766,0.11279297,-0.20996094,-0.36621094,3.4179688,-1.159668,0.0,0.0,0.0,151.34766,75.997925,-22.41211
1768029951774,-0.9716797,0.114746094,-0.20898438,0.4272461,0.24414062,-0.30517578,0.0,0.0,0.0,151.34766,75.997925,-22.41211
1768029951785,-0.9716797,0.114746094,-0.20898438,0.4272461,0.24414062,-0.30517578,0.0,0.0,0.0,151.82007,75.93201,-21.994629
1768029951873,-0.97509766,0.111328125,-0.2133789,0.6713867,0.6713867,0.12207031,0.0,0.0,0.0,151.82007,75.93201,-21.994629
1768029951885,-0.97509766,0.111328125,-0.2133789,0.6713867,0.6713867,0.12207031,0.0,0.0,0.0,152.01782,75.88257,-21.868286
1768029951973,-0.9736328,0.11425781,-0.21484375,0.0,-0.18310547,0.5493164,0.0,0.0,0.0,152.01782,75.88257,-21.868286
1768029951985,-0.9736328,0.11425781,-0.21484375,0.0,-0.18310547,0.5493164,0.0,0.0,0.0,151.88599,75.84961,-22.016602
1768029952073,-0.9736328,0.111328125,-0.21044922,0.79345703,0.91552734,0.0,0.0,0.0,0.0,151.88599,75.84961,-22.016602
1768029952084,-0.9736328,0.111328125,-0.21044922,0.79345703,0.91552734,0.0,0.0,0.0,0.0,151.9574,75.81116,-22.000122
1768029952173,-0.97802734,0.10888672,-0.2055664,0.30517578,-2.5024414,1.0986328,0.0,0.0,0.0,151.9574,75.81116,-22.000122
1768029952184,-0.97802734,0.10888672,-0.2055664,0.30517578,-2.5024414,1.0986328,0.0,0.0,0.0,151.5509,75.92651,-22.505493
1768029952272,-0.97265625,0.11767578,-0.19824219,-1.8920898,-1.0375977,0.79345703,0.0,0.0,0.0,151.5509,75.92651,-22.505493
1768029952284,-0.97265625,0.11767578,-0.19824219,-1.8920898,-1.0375977,0.79345703,0.0,0.0,0.0,151.78711,75.88806,-22.285767
1768029952372,-0.97314453,0.11621094,-0.21240234,-0.30517578,1.2207031,-0.30517578,0.0,0.0,0.0,151.78711,75.88806,-22.285767
1768029952384,-0.97314453,0.11621094,-0.21240234,-0.30517578,1.2207031,-0.30517578,0.0,0.0,0.0,151.56189,75.87158,-22.384644
1768029952472,-0.9741211,0.11425781,-0.21923828,-1.0375977,2.5024414,-0.36621094,0.0,0.0,0.0,151.56189,75.87158,-22.384644
1768029952483,-0.9741211,0.11425781,-0.21923828,-1.0375977,2.5024414,-0.36621094,0.0,0.0,0.0,151.7157,75.7782,-22.120972
1768029952572,-0.97509766,0.114746094,-0.21484375,0.061035156,-0.5493164,0.5493164,0.0,0.0,0.0,151.7157,75.7782,-22.120972
1768029952583,-0.97509766,0.114746094,-0.21484375,0.061035156,-0.5493164,0.5493164,0.0,0.0,0.0,151.91895,75.6958,-21.934204
1768029952671,-0.97265625,0.11376953,-0.2084961,0.36621094,-0.24414062,0.4272461,0.0,0.0,0.0,151.91895,75.6958,-21.934204
1768029952683,-0.97265625,0.11376953,-0.2084961,0.36621094,-0.24414062,0.4272461,0.0,0.0,0.0,151.85303,75.69031,-22.071533
1768029952771,-0.9741211,0.11376953,-0.21142578,-1.159668,-1.0375977,0.24414062,0.0,0.0,0.0,151.85303,75.69031,-22.071533
1768029952783,-0.9741211,0.11376953,-0.21142578,-1.159668,-1.0375977,0.24414062,0.0,0.0,0.0,151.6388,75.739746,-22.296753
1768029952871,-0.97265625,0.115234375,-0.20703125,0.18310547,-0.061035156,0.0,0.0,0.0,0.0,151.6388,75.739746,-22.296753
1768029952882,-0.97265625,0.115234375,-0.20703125,0.18310547,-0.061035156,0.0,0.0,0.0,0.0,151.21033,75.80017,-22.60437
1768029952970,-0.9794922,0.115722656,-0.20703125,-1.7700195,-3.540039,1.5258789,0.0,0.0,0.0,151.21033,75.80017,-22.60437
1768029952982,-0.9794922,0.115722656,-0.20703125,-1.7700195,-3.540039,1.5258789,0.0,0.0,0.0,150.27649,76.00342,-23.505249
1768029953070,-0.9716797,0.12451172,-0.19824219,-2.9296875,-1.7700195,1.5258789,0.0,0.0,0.0,150.27649,76.00342,-23.505249
1768029953082,-0.9716797,0.12451172,-0.19824219,-2.9296875,-1.7700195,1.5258789,0.0,0.0,0.0,150.0293,76.00891,-23.670044
1768029953170,-0.9746094,0.12207031,-0.20654297,0.30517578,0.36621094,0.061035156,0.0,0.0,0.0,150.0293,76.00891,-23.670044
1768029953182,-0.9746094,0.12207031,-0.20654297,0.30517578,0.36621094,0.061035156,0.0,0.0,0.0,149.57336,75.997925,-24.01062
1768029953270,-0.9760742,0.119140625,-0.20947266,-1.159668,2.4414062,-0.79345703,0.0,0.0,0.0,149.57336,75.997925,-24.01062
1768029953281,-0.9760742,0.119140625,-0.20947266,-1.159668,2.4414062,-0.79345703,0.0,0.0,0.0,149.6283,75.94849,-23.796387
1768029953369,-0.9746094,0.12060547,-0.2084961,0.5493164,-0.61035156,-0.12207031,0.0,0.0,0.0,149.6283,75.94849,-23.796387
1768029953381,-0.9746094,0.12060547,-0.2084961,0.5493164,-0.61035156,-0.12207031,0.0,0.0,0.0,149.89197,75.91553,-23.543701
1768029953469,-0.9760742,0.115722656,-0.20458984,0.7324219,-1.0375977,0.4272461,0.0,0.0,0.0,149.89197,75.91553,-23.543701
1768029953481,-0.9760742,0.115722656,-0.20458984,0.7324219,-1.0375977,0.4272461,0.0,0.0,0.0,149.92493,75.95947,-23.724976
1768029953569,-0.9711914,0.118652344,-0.19873047,-0.91552734,-1.2817383,0.7324219,0.0,0.0,0.0,149.92493,75.95947,-23.724976
1768029953580,-0.9711914,0.118652344,-0.19873047,-0.91552734,-1.2817383,0.7324219,0.0,0.0,0.0,149.55139,76.02539,-24.180908
1768029953668,-0.97802734,0.11621094,-0.20214844,-0.48828125,0.30517578,-0.061035156,0.0,0.0,0.0,149.55139,76.02539,-24.180908
1768029953680,-0.97802734,0.11621094,-0.20214844,-0.48828125,0.30517578,-0.061035156,0.0,0.0,0.0,149.24377,76.102295,-24.515991
1768029953768,-0.97998047,0.11669922,-0.19824219,-1.0986328,-1.953125,0.7324219,0.0,0.0,0.0,149.24377,76.102295,-24.515991
1768029953780,-0.97998047,0.11669922,-0.19824219,-1.0986328,-1.953125,0.7324219,0.0,0.0,0.0,148.78784,76.21765,-24.971924
1768029953868,-0.97216797,0.12451172,-0.19091797,-2.6245117,0.061035156,0.8544922,0.0,0.0,0.0,148.78784,76.21765,-24.971924
1768029953880,-0.97216797,0.12451172,-0.19091797,-2.6245117,0.061035156,0.8544922,0.0,0.0,0.0,149.08447,76.14075,-24.63684
1768029953968,-0.97314453,0.12939453,-0.20019531,1.6479492,1.0986328,-0.061035156,0.0,0.0,0.0,149.08447,76.14075,-24.63684
1768029953979,-0.97314453,0.12939453,-0.20019531,1.6479492,1.0986328,-0.061035156,0.0,0.0,0.0,148.93616,76.05286,-24.697266
1768029954067,-0.9746094,0.12011719,-0.20654297,-0.30517578,2.1362305,-0.30517578,0.0,0.0,0.0,148.93616,76.05286,-24.697266
1768029954079,-0.9746094,0.12011719,-0.20654297,-0.30517578,2.1362305,-0.30517578,0.0,0.0,0.0,149.17786,75.981445,-24.526978
1768029954167,-0.9746094,0.1274414,-0.20410156,1.953125,-1.4038086,-0.4272461,0.0,0.0,0.0,149.17786,75.981445,-24.526978
1768029954179,-0.9746094,0.1274414,-0.20410156,1.953125,-1.4038086,-0.4272461,0.0,0.0,0.0,149.4635,75.97595,-24.395142
1768029954267,-0.97216797,0.10839844,-0.20263672,0.48828125,-1.7700195,0.79345703,0.0,0.0,0.0,149.4635,75.97595,-24.395142
1768029954278,-0.97216797,0.10839844,-0.20263672,0.48828125,-1.7700195,0.79345703,0.0,0.0,0.0,149.6228,76.102295,-24.494019
1768029954367,-0.9760742,0.118652344,-0.20507812,-4.5166016,-2.4414062,4.0893555,0.0,0.0,0.0,149.6228,76.102295,-24.494019
1768029954378,-0.9760742,0.118652344,-0.20507812,-4.5166016,-2.4414062,4.0893555,0.0,0.0,0.0,148.13416,76.0968,-25.795898
1768029954466,-0.9790039,0.14404297,-0.19384766,5.7373047,-2.1362305,-0.79345703,0.0,0.0,0.0,148.13416,76.0968,-25.795898
1768029954478,-0.9790039,0.14404297,-0.19384766,5.7373047,-2.1362305,-0.79345703,0.0,0.0,0.0,146.43677,76.33301,-27.493286
1768029954566,-0.98583984,0.11279297,-0.17675781,1.8920898,-7.5683594,2.6245117,0.0,0.0,0.0,146.43677,76.33301,-27.493286
1768029954578,-0.98583984,0.11279297,-0.17675781,1.8920898,-7.5683594,2.6245117,0.0,0.0,0.0,146.04126,76.640625,-28.399658
1768029954666,-0.9770508,0.14697266,-0.16503906,6.0424805,-4.699707,0.18310547,0.0,0.0,0.0,146.04126,76.640625,-28.399658
1768029954678,-0.9770508,0.14697266,-0.16503906,6.0424805,-4.699707,0.18310547,0.0,0.0,0.0,144.36035,76.96472,-30.404663
1768029954766,-0.99121094,0.12109375,-0.1875,12.817383,2.0751953,-3.90625,0.0,0.0,0.0,144.36035,76.96472,-30.404663
1768029954777,-0.99121094,0.12109375,-0.1875,12.817383,2.0751953,-3.90625,0.0,0.0,0.0,145.15137,77.26135,-30.574951
1768029954865,-0.9970703,0.11621094,-0.114746094,-20.263672,-4.0893555,1.3427734,0.0,0.0,0.0,145.15137,77.26135,-30.574951
1768029954877,-0.9970703,0.11621094,-0.114746094,-20.263672,-4.0893555,1.3427734,0.0,0.0,0.0,145.9259,77.3053,-29.838867
1768029954965,-0.88916016,0.15966797,-0.19482422,5.2490234,9.216309,-1.4038086,0.0,0.0,0.0,145.9259,77.3053,-29.838867
1768029954977,-0.88916016,0.15966797,-0.19482422,5.2490234,9.216309,-1.4038086,0.0,0.0,0.0,144.92615,76.8988,-29.344482
1768029955065,-0.99072266,0.06738281,-0.23730469,-11.474609,11.901855,-7.019043,0.0,0.0,0.0,144.92615,76.8988,-29.344482
1768029955076,-0.99072266,0.06738281,-0.23730469,-11.474609,11.901855,-7.019043,0.0,0.0,0.0,149.93591,76.48682,-25.010376
1768029955164,-0.94091797,0.14257812,-0.23242188,-17.211914,6.958008,0.12207031,0.0,0.0,0.0,149.93591,76.48682,-25.010376
1768029955176,-0.94091797,0.14257812,-0.23242188,-17.211914,6.958008,0.12207031,0.0,0.0,0.0,150.21606,75.88806,-22.730713
1768029955264,-0.98046875,0.11328125,-0.20214844,-11.535645,0.24414062,0.36621094,0.0,0.0,0.0,150.21606,75.88806,-22.730713
1768029955276,-0.98046875,0.11328125,-0.20214844,-11.535645,0.24414062,0.36621094,0.0,0.0,0.0,151.9519,75.44861,-20.341187
1768029955364,-0.9785156,0.1303711,-0.2241211,-4.9438477,-1.8920898,1.8310547,0.0,0.0,0.0,151.9519,75.44861,-20.341187
1768029955376,-0.9785156,0.1303711,-0.2241211,-4.9438477,-1.8920898,1.8310547,0.0,0.0,0.0,148.94714,75.635376,-22.148438
1768029955464,-0.97753906,0.13232422,-0.20898438,-5.004883,-2.0751953,2.4414062,0.0,0.0,0.0,148.94714,75.635376,-22.148438
1768029955476,-0.97753906,0.13232422,-0.20898438,-5.004883,-2.0751953,2.4414062,0.0,0.0,0.0,148.40881,75.58594,-22.423096
1768029955564,-1.0029297,0.115722656,-0.23046875,-0.6713867,5.859375,-1.0986328,0.0,0.0,0.0,148.40881,75.58594,-22.423096
1768029955575,-1.0029297,0.115722656,-0.23046875,-0.6713867,5.859375,-1.0986328,0.0,0.0,0.0,148.03528,75.48157,-22.51648
1768029955663,-0.9199219,0.13916016,-0.12988281,5.7373047,10.498047,-2.5024414,0.0,0.0,0.0,148.03528,75.48157,-22.51648
1768029955676,-0.9199219,0.13916016,-0.12988281,5.7373047,10.498047,-2.5024414,0.0,0.0,0.0,150.69397,74.712524,-19.923706
1768029955763,-0.98339844,0.1171875,-0.24951172,-6.3476562,3.6621094,-2.6855469,0.0,0.0,0.0,150.69397,74.712524,-19.923706
1768029955775,-0.98339844,0.1171875,-0.24951172,-6.3476562,3.6621094,-2.6855469,0.0,0.0,0.0,152.64954,74.30603,-17.880249
1768029955863,-0.9604492,0.14501953,-0.25585938,1.8310547,2.0141602,-3.540039,0.0,0.0,0.0,152.64954,74.30603,-17.880249
1768029955874,-0.9604492,0.14501953,-0.25585938,1.8310547,2.0141602,-3.540039,0.0,0.0,0.0,153.17688,74.2511,-16.951904
1768029955963,-0.97216797,0.11035156,-0.24072266,1.2817383,-2.8076172,-1.159668,0.0,0.0,0.0,153.17688,74.2511,-16.951904
1768029955974,-0.97216797,0.11035156,-0.24072266,1.2817383,-2.8076172,-1.159668,0.0,0.0,0.0,153.90747,74.43787,-16.45752
1768029956062,-0.98291016,0.11328125,-0.2319336,-2.5634766,-7.385254,0.6713867,0.0,0.0,0.0,153.90747,74.43787,-16.45752
1768029956073,-0.98291016,0.11328125,-0.2319336,-2.5634766,-7.385254,0.6713867,0.0,0.0,0.0,153.06152,74.95972,-17.330933
1768029956162,-0.9604492,0.118652344,-0.22509766,4.333496,-7.080078,-1.2207031,0.0,0.0,0.0,153.06152,74.95972,-17.330933
1768029956173,-0.9604492,0.118652344,-0.22509766,4.333496,-7.080078,-1.2207031,0.0,0.0,0.0,152.5122,75.46509,-18.001099
1768029956262,-0.9897461,0.106933594,-0.2241211,2.9296875,-7.873535,0.8544922,0.0,0.0,0.0,152.5122,75.46509,-18.001099
1768029956273,-0.9897461,0.106933594,-0.2241211,2.9296875,-7.873535,0.8544922,0.0,0.0,0.0,151.40259,76.10779,-19.363403
1768029956361,-0.96533203,0.099609375,-0.16748047,-5.79834,-13.427734,4.333496,0.0,0.0,0.0,151.40259,76.10779,-19.363403
1768029956373,-0.96533203,0.099609375,-0.16748047,-5.79834,-13.427734,4.333496,0.0,0.0,0.0,148.11768,76.92078,-22.609863
1768029956461,-0.9824219,0.11621094,-0.17822266,-0.91552734,-0.24414062,0.79345703,0.0,0.0,0.0,148.11768,76.92078,-22.609863
1768029956473,-0.9824219,0.11621094,-0.17822266,-0.91552734,-0.24414062,0.79345703,0.0,0.0,0.0,145.25024,77.34924,-25.153198
1768029956561,-0.9838867,0.13916016,-0.18896484,-1.2207031,2.2583008,1.6479492,0.0,0.0,0.0,145.25024,77.34924,-25.153198
1768029956572,-0.9838867,0.13916016,-0.18896484,-1.2207031,2.2583008,1.6479492,0.0,0.0,0.0,145.89294,77.091064,-24.433594
1768029956660,-0.97314453,0.13183594,-0.18701172,2.8686523,4.211426,0.48828125,0.0,0.0,0.0,145.89294,77.091064,-24.433594
1768029956672,-0.97314453,0.13183594,-0.18701172,2.8686523,4.211426,0.48828125,0.0,0.0,0.0,146.75537,76.69006,-23.71399
1768029956760,-0.9794922,0.111328125,-0.19091797,0.61035156,1.8920898,-0.79345703,0.0,0.0,0.0,146.75537,76.69006,-23.71399
1768029956772,-0.9794922,0.111328125,-0.19091797,0.61035156,1.8920898,-0.79345703,0.0,0.0,0.0,147.49146,76.48132,-23.076782
