timestamp,accX,accY,accZ,gyroX,gyroY,gyroZ,magX,magY,magZ,roll,pitch,yaw
1768997889193,-0.9638672,0.083496094,-0.26611328,-0.30517578,-0.6713867,0.061035156,0.0,0.0,0.0,163.61938,73.602905,-145.39307
1768997889204,-0.9638672,0.083496094,-0.26611328,-0.30517578,-0.6713867,0.061035156,0.0,0.0,0.0,163.526,73.64136,-145.448
1768997889292,-0.9638672,0.0859375,-0.26611328,2.0141602,0.61035156,-0.24414062,0.0,0.0,0.0,163.526,73.64136,-145.448
1768997889304,-0.9638672,0.0859375,-0.26611328,2.0141602,0.61035156,-0.24414062,0.0,0.0,0.0,163.55347,73.64685,-145.46997
1768997889393,-0.9716797,0.07910156,-0.27197266,0.48828125,1.159668,0.0,0.0,0.0,0.0,163.55347,73.64685,-145.46997
1768997889406,-0.9716797,0.07910156,-0.27197266,0.48828125,1.159668,0.0,0.0,0.0,0.0,163.61938,73.586426,-145.42053
1768997889492,-0.96435547,0.08300781,-0.26660156,1.3427734,1.159668,0.0,0.0,0.0,0.0,163.61938,73.586426,-145.42053
1768997889504,-0.96435547,0.08300781,-0.26660156,1.3427734,1.159668,0.0,0.0,0.0,0.0,163.78967,73.46008,-145.24475
1768997889591,-0.9604492,0.08496094,-0.26904297,-0.18310547,1.4038086,-0.061035156,0.0,0.0,0.0,163.78967,73.46008,-145.24475
1768997889603,-0.9604492,0.08496094,-0.26904297,-0.18310547,1.4038086,-0.061035156,0.0,0.0,0.0,163.80066,73.35571,-145.16785
1768997889692,-0.9609375,0.08642578,-0.2758789,-0.9765625,1.2207031,0.24414062,0.0,0.0,0.0,163.80066,73.35571,-145.16785
1768997889703,-0.9609375,0.08642578,-0.2758789,-0.9765625,1.2207031,0.24414062,0.0,0.0,0.0,163.91052,73.21838,-144.99207
1768997889791,-0.9604492,0.083984375,-0.27441406,-0.8544922,1.7089844,0.4272461,0.0,0.0,0.0,163.91052,73.21838,-144.99207
1768997889802,-0.9604492,0.083984375,-0.27441406,-0.8544922,1.7089844,0.4272461,0.0,0.0,0.0,163.89404,73.081055,-144.9701
1768997889891,-0.96191406,0.0859375,-0.28076172,0.0,1.3427734,0.36621094,0.0,0.0,0.0,163.89404,73.081055,-144.9701
1768997889902,-0.96191406,0.0859375,-0.28076172,0.0,1.3427734,0.36621094,0.0,0.0,0.0,163.8501,72.94922,-144.93713
1768997889990,-0.9609375,0.08544922,-0.28125,2.0141602,2.380371,0.24414062,0.0,0.0,0.0,163.8501,72.94922,-144.93713
1768997890002,-0.9609375,0.08544922,-0.28125,2.0141602,2.380371,0.24414062,0.0,0.0,0.0,164.02039,72.74597,-144.82727
1768997890090,-0.9628906,0.08105469,-0.29296875,-0.12207031,0.79345703,0.061035156,0.0,0.0,0.0,164.02039,72.74597,-144.82727
1768997890101,-0.9628906,0.08105469,-0.29296875,-0.12207031,0.79345703,0.061035156,0.0,0.0,0.0,164.07532,72.57568,-144.74487
1768997890190,-0.95996094,0.083496094,-0.29101562,-0.6713867,0.24414062,0.30517578,0.0,0.0,0.0,164.07532,72.57568,-144.74487
1768997890202,-0.95996094,0.083496094,-0.29101562,-0.6713867,0.24414062,0.30517578,0.0,0.0,0.0,164.4159,72.44934,-144.4812
1768997890289,-0.953125,0.08300781,-0.28857422,0.79345703,-0.30517578,-0.30517578,0.0,0.0,0.0,164.4159,72.44934,-144.4812
1768997890302,-0.953125,0.08300781,-0.28857422,0.79345703,-0.30517578,-0.30517578,0.0,0.0,0.0,164.50928,72.388916,-144.39331
1768997890389,-0.95214844,0.0859375,-0.28173828,1.2207031,-0.61035156,0.0,0.0,0.0,0.0,164.50928,72.388916,-144.39331
1768997890401,-0.95214844,0.0859375,-0.28173828,1.2207031,-0.61035156,0.0,0.0,0.0,0.0,164.55322,72.46033,-144.38782
1768997890489,-0.9555664,0.08496094,-0.2836914,2.0141602,-0.5493164,-0.18310547,0.0,0.0,0.0,164.55322,72.46033,-144.38782
1768997890500,-0.9555664,0.08496094,-0.2836914,2.0141602,-0.5493164,-0.18310547,0.0,0.0,0.0,164.58618,72.52075,-144.47021
1768997890589,-0.95751953,0.08251953,-0.2861328,0.18310547,-0.5493164,-0.12207031,0.0,0.0,0.0,164.58618,72.52075,-144.47021
1768997890601,-0.95751953,0.08251953,-0.2861328,0.18310547,-0.5493164,-0.12207031,0.0,0.0,0.0,164.4159,72.58667,-144.67346
1768997890688,-0.9604492,0.079589844,-0.28515625,1.159668,-0.7324219,0.12207031,0.0,0.0,0.0,164.4159,72.58667,-144.67346
1768997890700,-0.9604492,0.079589844,-0.28515625,1.159668,-0.7324219,0.12207031,0.0,0.0,0.0,164.44885,72.63611,-144.7284
1768997890788,-0.9667969,0.08154297,-0.29003906,-2.2583008,-1.4648438,0.061035156,0.0,0.0,0.0,164.44885,72.63611,-144.7284
1768997890799,-0.9667969,0.08154297,-0.29003906,-2.2583008,-1.4648438,0.061035156,0.0,0.0,0.0,164.2511,72.724,-144.77234
1768997890888,-0.96533203,0.083496094,-0.27783203,-2.5024414,-1.4038086,0.61035156,0.0,0.0,0.0,164.2511,72.724,-144.77234
1768997890899,-0.96533203,0.083496094,-0.27783203,-2.5024414,-1.4038086,0.61035156,0.0,0.0,0.0,164.15771,72.77893,-144.82178
1768997890987,-0.9638672,0.083984375,-0.27246094,-1.7089844,-1.4038086,-0.18310547,0.0,0.0,0.0,164.15771,72.77893,-144.82178
1768997890999,-0.9638672,0.083984375,-0.27246094,-1.7089844,-1.4038086,-0.18310547,0.0,0.0,0.0,164.02588,72.89978,-144.8822
1768997891087,-0.9663086,0.08496094,-0.2709961,-0.30517578,-1.0375977,-0.061035156,0.0,0.0,0.0,164.02588,72.89978,-144.8822
1768997891099,-0.9663086,0.08496094,-0.2709961,-0.30517578,-1.0375977,-0.061035156,0.0,0.0,0.0,163.98193,72.99866,-144.90967
1768997891187,-0.9628906,0.083984375,-0.27246094,0.0,-1.5258789,0.0,0.0,0.0,0.0,163.98193,72.99866,-144.90967
1768997891198,-0.9628906,0.083984375,-0.27246094,0.0,-1.5258789,0.0,0.0,0.0,0.0,163.87756,73.11401,-145.05249
1768997891287,-0.9614258,0.08300781,-0.27246094,0.0,-1.4038086,0.0,0.0,0.0,0.0,163.87756,73.11401,-145.05249
1768997891298,-0.9614258,0.08300781,-0.27246094,0.0,-1.4038086,0.0,0.0,0.0,0.0,163.85559,73.22388,-145.17334
1768997891386,-0.96435547,0.078125,-0.26464844,1.4648438,-0.36621094,0.0,0.0,0.0,0.0,163.85559,73.22388,-145.17334
1768997891398,-0.96435547,0.078125,-0.26464844,1.4648438,-0.36621094,0.0,0.0,0.0,0.0,163.97644,73.273315,-145.21179
1768997891486,-0.9663086,0.076660156,-0.2734375,-0.5493164,-0.61035156,0.12207031,0.0,0.0,0.0,163.97644,73.273315,-145.21179
1768997891497,-0.9663086,0.076660156,-0.2734375,-0.5493164,-0.61035156,0.12207031,0.0,0.0,0.0,163.78418,73.3667,-145.39307
1768997891586,-0.96484375,0.079589844,-0.2705078,-1.0986328,-1.0375977,0.4272461,0.0,0.0,0.0,163.78418,73.3667,-145.39307
1768997891598,-0.96484375,0.079589844,-0.2705078,-1.0986328,-1.0375977,0.4272461,0.0,0.0,0.0,163.74023,73.40515,-145.41504
1768997891685,-0.96533203,0.08154297,-0.26464844,-1.8920898,-0.4272461,0.12207031,0.0,0.0,0.0,163.74023,73.40515,-145.41504
1768997891697,-0.96533203,0.08154297,-0.26464844,-1.8920898,-0.4272461,0.12207031,0.0,0.0,0.0,163.56445,73.4436,-145.48096
1768997891785,-0.9658203,0.08251953,-0.26660156,-0.7324219,0.18310547,0.061035156,0.0,0.0,0.0,163.56445,73.4436,-145.48096
1768997891797,-0.9658203,0.08251953,-0.26660156,-0.7324219,0.18310547,0.061035156,0.0,0.0,0.0,163.50403,73.4491,-145.50293
1768997891885,-0.9633789,0.083496094,-0.265625,-0.12207031,-0.30517578,0.24414062,0.0,0.0,0.0,163.50403,73.4491,-145.50293
1768997891897,-0.9633789,0.083496094,-0.265625,-0.12207031,-0.30517578,0.24414062,0.0,0.0,0.0,163.41064,73.4436,-145.59082
1768997891985,-0.9614258,0.08300781,-0.26464844,0.36621094,0.24414062,0.24414062,0.0,0.0,0.0,163.41064,73.4436,-145.59082
1768997891996,-0.9614258,0.08300781,-0.26464844,0.36621094,0.24414062,0.24414062,0.0,0.0,0.0,163.32275,73.43262,-145.67871
1768997892084,-0.96533203,0.083496094,-0.2680664,0.79345703,1.5869141,0.0,0.0,0.0,0.0,163.32275,73.43262,-145.67871
1768997892096,-0.96533203,0.083496094,-0.2680664,0.79345703,1.5869141,0.0,0.0,0.0,0.0,163.62488,73.289795,-145.50293
1768997892184,-0.9628906,0.08496094,-0.27392578,-0.24414062,0.9765625,0.24414062,0.0,0.0,0.0,163.62488,73.289795,-145.50293
1768997892196,-0.9628906,0.08496094,-0.27392578,-0.24414062,0.9765625,0.24414062,0.0,0.0,0.0,163.66882,73.168945,-145.43701
1768997892284,-0.9614258,0.08642578,-0.27197266,-1.4038086,0.91552734,0.61035156,0.0,0.0,0.0,163.66882,73.168945,-145.43701
1768997892295,-0.9614258,0.08642578,-0.27197266,-1.4038086,0.91552734,0.61035156,0.0,0.0,0.0,163.82263,73.02063,-145.3656
1768997892383,-0.9580078,0.084472656,-0.27929688,-0.48828125,1.4648438,0.30517578,0.0,0.0,0.0,163.82263,73.02063,-145.3656
1768997892395,-0.9580078,0.084472656,-0.27929688,-0.48828125,1.4648438,0.30517578,0.0,0.0,0.0,163.83911,72.888794,-145.35461
1768997892483,-0.95751953,0.0859375,-0.28222656,-0.12207031,1.5258789,0.24414062,0.0,0.0,0.0,163.83911,72.888794,-145.35461
1768997892495,-0.95751953,0.0859375,-0.28222656,-0.12207031,1.5258789,0.24414062,0.0,0.0,0.0,163.927,72.734985,-145.27222
1768997892583,-0.9589844,0.084472656,-0.28466797,-1.0375977,0.9765625,0.8544922,0.0,0.0,0.0,163.927,72.734985,-145.27222
1768997892594,-0.9589844,0.084472656,-0.28466797,-1.0375977,0.9765625,0.8544922,0.0,0.0,0.0,163.94348,72.614136,-145.31067
1768997892683,-0.95751953,0.08642578,-0.28466797,-0.061035156,0.061035156,0.48828125,0.0,0.0,0.0,163.94348,72.614136,-145.31067
1768997892695,-0.95751953,0.08642578,-0.28466797,-0.061035156,0.061035156,0.48828125,0.0,0.0,0.0,163.83362,72.53723,-145.41504
1768997892782,-0.9506836,0.09082031,-0.28271484,-1.0986328,0.7324219,0.18310547,0.0,0.0,0.0,163.83362,72.53723,-145.41504
1768997892794,-0.9506836,0.09082031,-0.28271484,-1.0986328,0.7324219,0.18310547,0.0,0.0,0.0,163.85559,72.454834,-145.40955
1768997892882,-0.95166016,0.09472656,-0.28320312,0.8544922,0.79345703,-0.48828125,0.0,0.0,0.0,163.85559,72.454834,-145.40955
1768997892894,-0.95166016,0.09472656,-0.28320312,0.8544922,0.79345703,-0.48828125,0.0,0.0,0.0,163.7622,72.405396,-145.42053
1768997892982,-0.9589844,0.09033203,-0.2866211,-1.2207031,-0.5493164,0.061035156,0.0,0.0,0.0,163.7622,72.405396,-145.42053
1768997892994,-0.9589844,0.09033203,-0.2866211,-1.2207031,-0.5493164,0.061035156,0.0,0.0,0.0,163.72375,72.42737,-145.45349
1768997893082,-0.95751953,0.09033203,-0.2841797,0.061035156,-1.4648438,0.12207031,0.0,0.0,0.0,163.72375,72.42737,-145.45349
1768997893093,-0.95751953,0.09033203,-0.2841797,0.061035156,-1.4648438,0.12207031,0.0,0.0,0.0,163.63037,72.54822,-145.56885
1768997893182,-0.9560547,0.08886719,-0.2783203,0.48828125,-1.2207031,-0.061035156,0.0,0.0,0.0,163.63037,72.54822,-145.56885
1768997893200,-0.9560547,0.08886719,-0.2783203,0.48828125,-1.2207031,-0.061035156,0.0,0.0,0.0,163.56995,72.66907,-145.72266
1768997893281,-0.95947266,0.08886719,-0.27392578,0.30517578,-1.5258789,-0.061035156,0.0,0.0,0.0,163.56995,72.66907,-145.72266
1768997893293,-0.95947266,0.08886719,-0.27392578,0.30517578,-1.5258789,-0.061035156,0.0,0.0,0.0,163.45459,72.81189,-145.87646
1768997893381,-0.96875,0.08642578,-0.26171875,0.9765625,-0.24414062,-0.4272461,0.0,0.0,0.0,163.45459,72.81189,-145.87646
1768997893395,-0.96875,0.08642578,-0.26171875,0.9765625,-0.24414062,-0.4272461,0.0,0.0,0.0,163.41614,72.95471,-145.95886
1768997893480,-0.96191406,0.08642578,-0.26367188,-0.061035156,-0.5493164,-0.6713867,0.0,0.0,0.0,163.41614,72.95471,-145.95886
1768997893492,-0.96191406,0.08642578,-0.26367188,-0.061035156,-0.5493164,-0.6713867,0.0,0.0,0.0,163.45459,73.05359,-145.90393
1768997893580,-0.95996094,0.08544922,-0.265625,0.12207031,0.061035156,-0.8544922,0.0,0.0,0.0,163.45459,73.05359,-145.90393
1768997893592,-0.95996094,0.08544922,-0.265625,0.12207031,0.061035156,-0.8544922,0.0,0.0,0.0,163.49854,73.152466,-145.81055
1768997893680,-0.9628906,0.08251953,-0.26611328,0.18310547,-0.48828125,-0.61035156,0.0,0.0,0.0,163.49854,73.152466,-145.81055
1768997893691,-0.9628906,0.08251953,-0.26611328,0.18310547,-0.48828125,-0.61035156,0.0,0.0,0.0,163.42163,73.26782,-145.75562
1768997893780,-0.96484375,0.08496094,-0.26708984,0.061035156,-0.79345703,-0.36621094,0.0,0.0,0.0,163.42163,73.26782,-145.75562
1768997893791,-0.96484375,0.08496094,-0.26708984,0.061035156,-0.79345703,-0.36621094,0.0,0.0,0.0,163.41064,73.38867,-145.70068
1768997893879,-0.9638672,0.084472656,-0.26464844,-0.30517578,-1.2207031,0.12207031,0.0,0.0,0.0,163.41064,73.38867,-145.70068
1768997893891,-0.9638672,0.084472656,-0.26464844,-0.30517578,-1.2207031,0.12207031,0.0,0.0,0.0,163.25134,73.515015,-145.82703
1768997893979,-0.96435547,0.083984375,-0.26416016,-0.4272461,-0.91552734,0.4272461,0.0,0.0,0.0,163.25134,73.515015,-145.82703
1768997893990,-0.96435547,0.083984375,-0.26416016,-0.4272461,-0.91552734,0.4272461,0.0,0.0,0.0,163.09753,73.602905,-145.97534
1768997894079,-0.96533203,0.0859375,-0.26513672,1.2207031,0.79345703,0.0,0.0,0.0,0.0,163.09753,73.602905,-145.97534
1768997894090,-0.96533203,0.0859375,-0.26513672,1.2207031,0.79345703,0.0,0.0,0.0,0.0,162.91077,73.65234,-146.14014
1768997894178,-0.96435547,0.084472656,-0.265625,0.7324219,0.0,0.18310547,0.0,0.0,0.0,162.91077,73.65234,-146.14014
1768997894190,-0.96435547,0.084472656,-0.265625,0.7324219,0.0,0.18310547,0.0,0.0,0.0,162.8009,73.635864,-146.21155
1768997894278,-0.96435547,0.087402344,-0.2626953,0.5493164,0.12207031,0.12207031,0.0,0.0,0.0,162.8009,73.635864,-146.21155
1768997894289,-0.96435547,0.087402344,-0.2626953,0.5493164,0.12207031,0.12207031,0.0,0.0,0.0,162.71301,73.619385,-146.26099
1768997894378,-0.9628906,0.08496094,-0.26123047,0.12207031,-0.061035156,0.0,0.0,0.0,0.0,162.71301,73.619385,-146.26099
1768997894389,-0.9628906,0.08496094,-0.26123047,0.12207031,-0.061035156,0.0,0.0,0.0,0.0,162.55371,73.63037,-146.33789
1768997894478,-0.9633789,0.087890625,-0.2602539,-0.30517578,-0.48828125,0.18310547,0.0,0.0,0.0,162.55371,73.63037,-146.33789
1768997894489,-0.9633789,0.087890625,-0.2602539,-0.30517578,-0.48828125,0.18310547,0.0,0.0,0.0,162.35046,73.67432,-146.43127
1768997894577,-0.9638672,0.08935547,-0.26220703,-0.061035156,0.0,0.0,0.0,0.0,0.0,162.35046,73.67432,-146.43127
1768997894589,-0.9638672,0.08935547,-0.26220703,-0.061035156,0.0,0.0,0.0,0.0,0.0,162.19666,73.71277,-146.54114
1768997894677,-0.9682617,0.087402344,-0.26416016,0.30517578,0.30517578,-0.061035156,0.0,0.0,0.0,162.19666,73.71277,-146.54114
1768997894688,-0.9682617,0.087402344,-0.26416016,0.30517578,0.30517578,-0.061035156,0.0,0.0,0.0,162.25159,73.690796,-146.53015
1768997894777,-0.96533203,0.09082031,-0.26464844,2.0751953,1.7700195,-0.5493164,0.0,0.0,0.0,162.25159,73.690796,-146.53015
1768997894788,-0.96533203,0.09082031,-0.26464844,2.0751953,1.7700195,-0.5493164,0.0,0.0,0.0,162.4768,73.619385,-146.39282
1768997894886,-0.9638672,0.08935547,-0.26416016,1.0375977,-0.4272461,-0.12207031,0.0,0.0,0.0,162.4768,73.619385,-146.39282
1768997894889,-0.9638672,0.08935547,-0.26416016,1.0375977,-0.4272461,-0.12207031,0.0,0.0,0.0,162.32849,73.66882,-146.55762
1768997894976,-0.96484375,0.088378906,-0.2631836,0.6713867,-0.5493164,0.18310547,0.0,0.0,0.0,162.32849,73.66882,-146.55762
1768997894988,-0.96484375,0.088378906,-0.2631836,0.6713867,-0.5493164,0.18310547,0.0,0.0,0.0,162.29553,73.6853,-146.63452
1768997895076,-0.9633789,0.08544922,-0.25732422,0.24414062,-0.48828125,0.0,0.0,0.0,0.0,162.29553,73.6853,-146.63452
1768997895088,-0.9633789,0.08544922,-0.25732422,0.24414062,-0.48828125,0.0,0.0,0.0,0.0,162.09778,73.74573,-146.78833
1768997895175,-0.9663086,0.08984375,-0.25830078,-0.12207031,-0.48828125,0.0,0.0,0.0,0.0,162.09778,73.74573,-146.78833
1768997895187,-0.9663086,0.08984375,-0.25830078,-0.12207031,-0.48828125,0.0,0.0,0.0,0.0,161.96594,73.78967,-146.87622
1768997895275,-0.96484375,0.088378906,-0.2529297,-0.9765625,-0.91552734,0.12207031,0.0,0.0,0.0,161.96594,73.78967,-146.87622
1768997895287,-0.96484375,0.088378906,-0.2529297,-0.9765625,-0.91552734,0.12207031,0.0,0.0,0.0,161.8396,73.85559,-146.9751
1768997895375,-0.9658203,0.088378906,-0.25585938,0.061035156,-0.48828125,-0.061035156,0.0,0.0,0.0,161.8396,73.85559,-146.9751
1768997895386,-0.9658203,0.088378906,-0.25585938,0.061035156,-0.48828125,-0.061035156,0.0,0.0,0.0,161.77368,73.927,-147.03552
1768997895475,-0.9682617,0.0859375,-0.2553711,1.7700195,-0.30517578,-0.30517578,0.0,0.0,0.0,161.77368,73.927,-147.03552
1768997895486,-0.9682617,0.0859375,-0.2553711,1.7700195,-0.30517578,-0.30517578,0.0,0.0,0.0,161.93298,73.94348,-146.94214
1768997895574,-0.9711914,0.084472656,-0.25732422,-0.61035156,-0.7324219,0.0,0.0,0.0,0.0,161.93298,73.94348,-146.94214
1768997895586,-0.9711914,0.084472656,-0.25732422,-0.61035156,-0.7324219,0.0,0.0,0.0,0.0,161.8451,73.99292,-146.94214
1768997895678,-0.9682617,0.0859375,-0.2553711,-0.61035156,-1.159668,0.30517578,0.0,0.0,0.0,161.8451,73.99292,-146.94214
1768997895686,-0.9682617,0.0859375,-0.2553711,-0.61035156,-1.159668,0.30517578,0.0,0.0,0.0,161.8396,74.03137,-146.93115
1768997895774,-0.9663086,0.087402344,-0.24707031,-1.2207031,-1.3427734,0.12207031,0.0,0.0,0.0,161.8396,74.03137,-146.93115
1768997895789,-0.9663086,0.087402344,-0.24707031,-1.2207031,-1.3427734,0.12207031,0.0,0.0,0.0,161.70227,74.124756,-147.01904
1768997895874,-0.96728516,0.08886719,-0.2475586,-0.24414062,-0.8544922,0.061035156,0.0,0.0,0.0,161.70227,74.124756,-147.01904
1768997895885,-0.96728516,0.08886719,-0.2475586,-0.24414062,-0.8544922,0.061035156,0.0,0.0,0.0,161.6034,74.20166,-147.06299
1768997895974,-0.9682617,0.087890625,-0.24902344,-0.12207031,-0.36621094,0.061035156,0.0,0.0,0.0,161.6034,74.20166,-147.06299
1768997895985,-0.9682617,0.087890625,-0.24902344,-0.12207031,-0.36621094,0.061035156,0.0,0.0,0.0,161.47705,74.27307,-147.17285
1768997896074,-0.96972656,0.088378906,-0.24707031,0.24414062,0.4272461,-0.061035156,0.0,0.0,0.0,161.47705,74.27307,-147.17285
1768997896085,-0.96972656,0.088378906,-0.24707031,0.24414062,0.4272461,-0.061035156,0.0,0.0,0.0,161.48804,74.278564,-147.15637
1768997896174,-0.96972656,0.088378906,-0.25048828,0.48828125,1.8310547,-0.48828125,0.0,0.0,0.0,161.48804,74.278564,-147.15637
1768997896184,-0.96972656,0.088378906,-0.25048828,0.48828125,1.8310547,-0.48828125,0.0,0.0,0.0,161.96045,74.141235,-146.77734
1768997896272,-0.96777344,0.08300781,-0.25390625,0.48828125,1.3427734,-0.12207031,0.0,0.0,0.0,161.96045,74.141235,-146.77734
1768997896284,-0.96777344,0.08300781,-0.25390625,0.48828125,1.3427734,-0.12207031,0.0,0.0,0.0,162.09778,74.04785,-146.60156
1768997896372,-0.96484375,0.084472656,-0.25634766,0.7324219,1.4648438,-0.18310547,0.0,0.0,0.0,162.09778,74.04785,-146.60156
1768997896384,-0.96484375,0.084472656,-0.25634766,0.7324219,1.4648438,-0.18310547,0.0,0.0,0.0,162.30103,73.932495,-146.4148
1768997896472,-0.9658203,0.08886719,-0.25927734,-0.6713867,0.8544922,0.12207031,0.0,0.0,0.0,162.30103,73.932495,-146.4148
1768997896483,-0.9658203,0.08886719,-0.25927734,-0.6713867,0.8544922,0.12207031,0.0,0.0,0.0,162.3999,73.83911,-146.28296
1768997896571,-0.9663086,0.0859375,-0.25927734,0.5493164,1.2817383,-0.30517578,0.0,0.0,0.0,162.3999,73.83911,-146.28296
1768997896583,-0.9663086,0.0859375,-0.25927734,0.5493164,1.2817383,-0.30517578,0.0,0.0,0.0,162.69653,73.71826,-146.04126
1768997896671,-0.9658203,0.084472656,-0.26416016,0.7324219,1.8310547,-0.36621094,0.0,0.0,0.0,162.69653,73.71826,-146.04126
1768997896683,-0.9658203,0.084472656,-0.26416016,0.7324219,1.8310547,-0.36621094,0.0,0.0,0.0,163.02612,73.586426,-145.74463
1768997896771,-0.9614258,0.08203125,-0.26904297,0.9765625,1.5869141,-0.4272461,0.0,0.0,0.0,163.02612,73.586426,-145.74463
1768997896783,-0.9614258,0.08203125,-0.26904297,0.9765625,1.5869141,-0.4272461,0.0,0.0,0.0,163.39417,73.4436,-145.40955
1768997896871,-0.9589844,0.08251953,-0.2680664,-0.36621094,2.0141602,-0.5493164,0.0,0.0,0.0,163.39417,73.4436,-145.40955
1768997896882,-0.9589844,0.08251953,-0.2680664,-0.36621094,2.0141602,-0.5493164,0.0,0.0,0.0,163.94348,73.26782,-144.95361
1768997896970,-0.95751953,0.08203125,-0.2709961,1.0986328,2.6855469,-0.7324219,0.0,0.0,0.0,163.94348,73.26782,-144.95361
1768997896983,-0.95751953,0.08203125,-0.2709961,1.0986328,2.6855469,-0.7324219,0.0,0.0,0.0,164.17969,73.11951,-144.62402
1768997897070,-0.9584961,0.08300781,-0.27783203,-0.79345703,1.7089844,-0.24414062,0.0,0.0,0.0,164.17969,73.11951,-144.62402
1768997897082,-0.9584961,0.08300781,-0.27783203,-0.79345703,1.7089844,-0.24414062,0.0,0.0,0.0,164.39941,72.94922,-144.37134
1768997897170,-0.95947266,0.08203125,-0.28320312,-0.30517578,0.36621094,-0.061035156,0.0,0.0,0.0,164.39941,72.94922,-144.37134
1768997897181,-0.95947266,0.08203125,-0.28320312,-0.30517578,0.36621094,-0.061035156,0.0,0.0,0.0,164.49829,72.872314,-144.245
1768997897269,-0.95996094,0.08154297,-0.28173828,0.061035156,0.18310547,0.061035156,0.0,0.0,0.0,164.49829,72.872314,-144.245
1768997897281,-0.95996094,0.08154297,-0.28173828,0.061035156,0.18310547,0.061035156,0.0,0.0,0.0,164.61365,72.85034,-144.18457
1768997897369,-0.95751953,0.080566406,-0.28271484,0.79345703,0.18310547,-0.061035156,0.0,0.0,0.0,164.61365,72.85034,-144.18457
1768997897381,-0.95751953,0.080566406,-0.28271484,0.79345703,0.18310547,-0.061035156,0.0,0.0,0.0,164.74548,72.81738,-144.11865
1768997897469,-0.95996094,0.08203125,-0.27685547,1.7700195,0.79345703,-0.36621094,0.0,0.0,0.0,164.74548,72.81738,-144.11865
1768997897481,-0.95996094,0.08203125,-0.27685547,1.7700195,0.79345703,-0.36621094,0.0,0.0,0.0,164.84436,72.8064,-144.09668
1768997897569,-0.95654297,0.07910156,-0.2788086,-0.12207031,-0.30517578,-0.30517578,0.0,0.0,0.0,164.84436,72.8064,-144.09668
1768997897580,-0.95654297,0.07910156,-0.2788086,-0.12207031,-0.30517578,-0.30517578,0.0,0.0,0.0,164.99268,72.81189,-144.01428
1768997897668,-0.9584961,0.078125,-0.2788086,0.7324219,-0.36621094,-0.4272461,0.0,0.0,0.0,164.99268,72.81189,-144.01428
1768997897680,-0.9584961,0.078125,-0.2788086,0.7324219,-0.36621094,-0.4272461,0.0,0.0,0.0,165.0586,72.8833,-143.97034
1768997897768,-0.95947266,0.076660156,-0.2763672,0.61035156,-0.6713867,-0.48828125,0.0,0.0,0.0,165.0586,72.8833,-143.97034
1768997897780,-0.95947266,0.076660156,-0.2763672,0.61035156,-0.6713867,-0.48828125,0.0,0.0,0.0,164.93225,72.98767,-144.03076
1768997897868,-0.96191406,0.078125,-0.27490234,0.48828125,-0.8544922,-0.36621094,0.0,0.0,0.0,164.93225,72.98767,-144.03076
1768997897879,-0.96191406,0.078125,-0.27490234,0.48828125,-0.8544922,-0.36621094,0.0,0.0,0.0,164.82788,73.11401,-144.06921
1768997897967,-0.9628906,0.07861328,-0.27197266,-0.36621094,-1.2207031,0.061035156,0.0,0.0,0.0,164.82788,73.11401,-144.06921
1768997897979,-0.9628906,0.07861328,-0.27197266,-0.36621094,-1.2207031,0.061035156,0.0,0.0,0.0,164.66309,73.22937,-144.17358
1768997898067,-0.96435547,0.080078125,-0.2709961,-0.6713867,-1.3427734,0.30517578,0.0,0.0,0.0,164.66309,73.22937,-144.17358
1768997898079,-0.96435547,0.080078125,-0.2709961,-0.6713867,-1.3427734,0.30517578,0.0,0.0,0.0,164.44336,73.33923,-144.33838
1768997898167,-0.96435547,0.08203125,-0.265625,0.9765625,0.36621094,0.0,0.0,0.0,0.0,164.44336,73.33923,-144.33838
1768997898178,-0.96435547,0.08203125,-0.265625,0.9765625,0.36621094,0.0,0.0,0.0,0.0,164.26208,73.43811,-144.53064
1768997898267,-0.9628906,0.079589844,-0.27001953,0.24414062,-1.2817383,0.061035156,0.0,0.0,0.0,164.26208,73.43811,-144.53064
1768997898278,-0.9628906,0.079589844,-0.27001953,0.24414062,-1.2817383,0.061035156,0.0,0.0,0.0,164.08081,73.50952,-144.67896
1768997898366,-0.9614258,0.080566406,-0.26220703,-0.061035156,-0.6713867,0.18310547,0.0,0.0,0.0,164.08081,73.50952,-144.67896
1768997898378,-0.9614258,0.080566406,-0.26220703,-0.061035156,-0.6713867,0.18310547,0.0,0.0,0.0,163.95447,73.59192,-144.78882
1768997898466,-0.96435547,0.079589844,-0.26220703,0.6713867,-1.2207031,-0.18310547,0.0,0.0,0.0,163.95447,73.59192,-144.78882
1768997898478,-0.96435547,0.079589844,-0.26220703,0.6713867,-1.2207031,-0.18310547,0.0,0.0,0.0,163.65784,73.71277,-145.03052
1768997898566,-0.96728516,0.08203125,-0.26220703,0.36621094,-0.48828125,-0.12207031,0.0,0.0,0.0,163.65784,73.71277,-145.03052
1768997898577,-0.96728516,0.08203125,-0.26220703,0.36621094,-0.48828125,-0.12207031,0.0,0.0,0.0,163.45459,73.828125,-145.17334
1768997898665,-0.96484375,0.08154297,-0.25830078,0.24414062,-0.12207031,0.0,0.0,0.0,0.0,163.45459,73.828125,-145.17334
1768997898677,-0.96484375,0.08154297,-0.25830078,0.24414062,-0.12207031,0.0,0.0,0.0,0.0,163.38318,73.87207,-145.21729
1768997898765,-0.96875,0.08203125,-0.2626953,0.7324219,0.7324219,-0.061035156,0.0,0.0,0.0,163.38318,73.87207,-145.21729
1768997898777,-0.96875,0.08203125,-0.2626953,0.7324219,0.7324219,-0.061035156,0.0,0.0,0.0,163.42712,73.844604,-145.14038
1768997898865,-0.9663086,0.083984375,-0.26416016,2.1972656,1.953125,-0.30517578,0.0,0.0,0.0,163.42712,73.844604,-145.14038
1768997898876,-0.9663086,0.083984375,-0.26416016,2.1972656,1.953125,-0.30517578,0.0,0.0,0.0,163.58093,73.7677,-145.03601
1768997898965,-0.96875,0.07861328,-0.26757812,0.6713867,0.91552734,0.12207031,0.0,0.0,0.0,163.58093,73.7677,-145.03601
1768997898976,-0.96875,0.07861328,-0.26757812,0.6713867,0.91552734,0.12207031,0.0,0.0,0.0,163.65234,73.70178,-144.98108
1768997899064,-0.96435547,0.08300781,-0.26367188,0.91552734,1.8310547,-0.061035156,0.0,0.0,0.0,163.65234,73.70178,-144.98108
1768997899076,-0.96435547,0.08300781,-0.26367188,0.91552734,1.8310547,-0.061035156,0.0,0.0,0.0,163.86658,73.57544,-144.83826
1768997899164,-0.9628906,0.079589844,-0.265625,0.91552734,1.3427734,-0.24414062,0.0,0.0,0.0,163.86658,73.57544,-144.83826
1768997899176,-0.9628906,0.079589844,-0.265625,0.91552734,1.3427734,-0.24414062,0.0,0.0,0.0,163.927,73.47656,-144.75586
1768997899264,-0.96240234,0.08251953,-0.2685547,0.7324219,1.3427734,-0.36621094,0.0,0.0,0.0,163.927,73.47656,-144.75586
1768997899275,-0.96240234,0.08251953,-0.2685547,0.7324219,1.3427734,-0.36621094,0.0,0.0,0.0,164.02039,73.40515,-144.65149
1768997899363,-0.9614258,0.08300781,-0.26904297,-0.12207031,0.8544922,-0.061035156,0.0,0.0,0.0,164.02039,73.40515,-144.65149
1768997899375,-0.9614258,0.08300781,-0.26904297,-0.12207031,0.8544922,-0.061035156,0.0,0.0,0.0,164.10828,73.35022,-144.54712
1768997899463,-0.96240234,0.08154297,-0.2734375,0.36621094,0.91552734,-0.12207031,0.0,0.0,0.0,164.10828,73.35022,-144.54712
1768997899475,-0.96240234,0.08154297,-0.2734375,0.36621094,0.91552734,-0.12207031,0.0,0.0,0.0,164.21265,73.273315,-144.44275
1768997899563,-0.96240234,0.08251953,-0.27246094,1.2817383,1.7089844,-0.61035156,0.0,0.0,0.0,164.21265,73.273315,-144.44275
1768997899575,-0.96240234,0.08251953,-0.27246094,1.2817383,1.7089844,-0.61035156,0.0,0.0,0.0,164.38843,73.2074,-144.31091
1768997899663,-0.9638672,0.084472656,-0.27441406,-0.8544922,-1.3427734,-0.48828125,0.0,0.0,0.0,164.38843,73.2074,-144.31091
1768997899675,-0.9638672,0.084472656,-0.27441406,-0.8544922,-1.3427734,-0.48828125,0.0,0.0,0.0,164.67407,73.17993,-144.0857
1768997899762,-0.95166016,0.07470703,-0.25878906,2.4414062,-0.61035156,-0.36621094,0.0,0.0,0.0,164.67407,73.17993,-144.0857
1768997899774,-0.95166016,0.07470703,-0.25878906,2.4414062,-0.61035156,-0.36621094,0.0,0.0,0.0,164.93225,73.32825,-144.01978
1768997899862,-0.95703125,0.076660156,-0.26611328,3.2958984,-0.4272461,-1.2817383,0.0,0.0,0.0,164.93225,73.32825,-144.01978
1768997899874,-0.95703125,0.076660156,-0.26611328,3.2958984,-0.4272461,-1.2817383,0.0,0.0,0.0,164.76196,73.46008,-144.11865
1768997899962,-0.96484375,0.083496094,-0.26367188,0.0,-0.79345703,0.18310547,0.0,0.0,0.0,164.76196,73.46008,-144.11865
1768997899973,-0.96484375,0.083496094,-0.26367188,0.0,-0.79345703,0.18310547,0.0,0.0,0.0,164.63562,73.526,-144.1626
1768997900061,-0.9682617,0.075683594,-0.25878906,2.5024414,-0.48828125,-0.91552734,0.0,0.0,0.0,164.63562,73.526,-144.1626
1768997900073,-0.9682617,0.075683594,-0.25878906,2.5024414,-0.48828125,-0.91552734,0.0,0.0,0.0,164.60266,73.635864,-144.21204
1768997900161,-0.9682617,0.07861328,-0.26757812,-0.18310547,-0.7324219,0.0,0.0,0.0,0.0,164.60266,73.635864,-144.21204
1768997900173,-0.9682617,0.07861328,-0.26757812,-0.18310547,-0.7324219,0.0,0.0,0.0,0.0,164.54224,73.740234,-144.26697
1768997900261,-0.96435547,0.07763672,-0.25976562,0.91552734,1.2207031,-0.91552734,0.0,0.0,0.0,164.54224,73.740234,-144.26697
1768997900272,-0.96435547,0.07763672,-0.25976562,0.91552734,1.2207031,-0.91552734,0.0,0.0,0.0,164.8938,73.756714,-144.0033
1768997900361,-0.96728516,0.07128906,-0.26367188,0.0,0.0,-0.30517578,0.0,0.0,0.0,164.8938,73.756714,-144.0033
1768997900372,-0.96728516,0.07128906,-0.26367188,0.0,0.0,-0.30517578,0.0,0.0,0.0,165.0531,73.77869,-143.83301
1768997900460,-0.96777344,0.072265625,-0.25976562,0.4272461,0.91552734,-0.5493164,0.0,0.0,0.0,165.0531,73.77869,-143.83301
1768997900472,-0.96777344,0.072265625,-0.25976562,0.4272461,0.91552734,-0.5493164,0.0,0.0,0.0,165.35522,73.74573,-143.54187
1768997900560,-0.9638672,0.07421875,-0.2602539,1.7700195,0.5493164,-0.4272461,0.0,0.0,0.0,165.35522,73.74573,-143.54187
1768997900571,-0.9638672,0.07421875,-0.2602539,1.7700195,0.5493164,-0.4272461,0.0,0.0,0.0,165.42114,73.70178,-143.40454
1768997900660,-0.9711914,0.07373047,-0.26513672,1.4038086,0.5493164,0.36621094,0.0,0.0,0.0,165.42114,73.70178,-143.40454
1768997900672,-0.9711914,0.07373047,-0.26513672,1.4038086,0.5493164,0.36621094,0.0,0.0,0.0,165.2893,73.71826,-143.50891
1768997900759,-0.97314453,0.07373047,-0.26660156,0.0,-0.18310547,0.6713867,0.0,0.0,0.0,165.2893,73.71826,-143.50891
1768997900771,-0.97314453,0.07373047,-0.26660156,0.0,-0.18310547,0.6713867,0.0,0.0,0.0,165.08606,73.6853,-143.65723
1768997900859,-0.96240234,0.06982422,-0.26464844,-1.5869141,1.7089844,0.48828125,0.0,0.0,0.0,165.08606,73.6853,-143.65723
1768997900871,-0.96240234,0.06982422,-0.26464844,-1.5869141,1.7089844,0.48828125,0.0,0.0,0.0,164.93774,73.586426,-143.6737
1768997900959,-0.9589844,0.079589844,-0.27685547,-0.24414062,4.0283203,-0.61035156,0.0,0.0,0.0,164.93774,73.586426,-143.6737
1768997900970,-0.9589844,0.079589844,-0.27685547,-0.24414062,4.0283203,-0.61035156,0.0,0.0,0.0,164.84436,73.38318,-143.50342
1768997901059,-0.9584961,0.080078125,-0.27978516,-2.9907227,0.6713867,0.30517578,0.0,0.0,0.0,164.84436,73.38318,-143.50342
1768997901070,-0.9584961,0.080078125,-0.27978516,-2.9907227,0.6713867,0.30517578,0.0,0.0,0.0,164.93774,73.16345,-143.20679
1768997901158,-0.95996094,0.087402344,-0.28076172,1.2817383,0.6713867,0.0,0.0,0.0,0.0,164.93774,73.16345,-143.20679
1768997901170,-0.95996094,0.087402344,-0.28076172,1.2817383,0.6713867,0.0,0.0,0.0,0.0,164.82788,73.08655,-143.23425
1768997901258,-0.9555664,0.08154297,-0.27978516,0.30517578,-0.18310547,0.18310547,0.0,0.0,0.0,164.82788,73.08655,-143.23425
1768997901269,-0.9555664,0.08154297,-0.27978516,0.30517578,-0.18310547,0.18310547,0.0,0.0,0.0,164.69604,73.064575,-143.443
1768997901358,-0.95654297,0.075683594,-0.2788086,3.0517578,0.18310547,0.48828125,0.0,0.0,0.0,164.69604,73.064575,-143.443
1768997901369,-0.95654297,0.075683594,-0.2788086,3.0517578,0.18310547,0.48828125,0.0,0.0,0.0,164.8169,73.064575,-143.56934
1768997901457,-0.9638672,0.08251953,-0.2783203,0.91552734,0.0,0.61035156,0.0,0.0,0.0,164.8169,73.064575,-143.56934
1768997901469,-0.9638672,0.08251953,-0.2783203,0.91552734,0.0,0.61035156,0.0,0.0,0.0,164.76746,73.03711,-143.82202
1768997901557,-0.95996094,0.06933594,-0.27392578,2.746582,1.2207031,-0.24414062,0.0,0.0,0.0,164.76746,73.03711,-143.82202
1768997901569,-0.95996094,0.06933594,-0.27392578,2.746582,1.2207031,-0.24414062,0.0,0.0,0.0,165.09705,72.94922,-143.73413
1768997901657,-0.9584961,0.072753906,-0.27978516,2.6245117,1.2207031,-0.18310547,0.0,0.0,0.0,165.09705,72.94922,-143.73413
1768997901668,-0.9584961,0.072753906,-0.27978516,2.6245117,1.2207031,-0.18310547,0.0,0.0,0.0,165.08057,72.89978,-143.72314
1768997901757,-0.95214844,0.068847656,-0.28027344,-1.2817383,0.30517578,-0.61035156,0.0,0.0,0.0,165.08057,72.89978,-143.72314
1768997901768,-0.95214844,0.068847656,-0.28027344,-1.2817383,0.30517578,-0.61035156,0.0,0.0,0.0,165.00366,72.89429,-143.6023
1768997901856,-0.9628906,0.080566406,-0.27685547,6.164551,1.4648438,-1.5869141,0.0,0.0,0.0,165.00366,72.89429,-143.6023
1768997901868,-0.9628906,0.080566406,-0.27685547,6.164551,1.4648438,-1.5869141,0.0,0.0,0.0,165.03113,72.94922,-143.33313
1768997901956,-0.9692383,0.09814453,-0.28125,1.7700195,-0.30517578,-1.6479492,0.0,0.0,0.0,165.03113,72.94922,-143.33313
1768997901967,-0.9692383,0.09814453,-0.28125,1.7700195,-0.30517578,-1.6479492,0.0,0.0,0.0,164.87732,73.02612,-143.3551
1768997902056,-0.9663086,0.079589844,-0.26953125,2.8686523,-0.30517578,-1.5869141,0.0,0.0,0.0,164.87732,73.02612,-143.3551
1768997902068,-0.9663086,0.079589844,-0.26953125,2.8686523,-0.30517578,-1.5869141,0.0,0.0,0.0,165.59692,73.05908,-142.93762
1768997902155,-0.9628906,0.08251953,-0.27441406,3.0517578,0.5493164,-1.0375977,0.0,0.0,0.0,165.59692,73.05908,-142.93762
1768997902168,-0.9628906,0.08251953,-0.27441406,3.0517578,0.5493164,-1.0375977,0.0,0.0,0.0,166.22314,73.07007,-142.61353
1768997902255,-0.9526367,0.06591797,-0.26123047,2.746582,-0.18310547,-0.18310547,0.0,0.0,0.0,166.22314,73.07007,-142.61353
1768997902266,-0.9526367,0.06591797,-0.26123047,2.746582,-0.18310547,-0.18310547,0.0,0.0,0.0,166.69556,73.13049,-142.52014
1768997902355,-0.96777344,0.057617188,-0.27001953,4.1503906,0.9765625,0.5493164,0.0,0.0,0.0,166.69556,73.13049,-142.52014
1768997902366,-0.96777344,0.057617188,-0.27001953,4.1503906,0.9765625,0.5493164,0.0,0.0,0.0,166.88782,73.17993,-142.62451
1768997902454,-0.96777344,0.06640625,-0.28125,-4.0893555,1.0986328,1.4038086,0.0,0.0,0.0,166.88782,73.17993,-142.62451
1768997902466,-0.96777344,0.06640625,-0.28125,-4.0893555,1.0986328,1.4038086,0.0,0.0,0.0,166.61865,73.064575,-142.82227
1768997902554,-0.9580078,0.05908203,-0.27392578,-8.972168,0.8544922,2.0751953,0.0,0.0,0.0,166.61865,73.064575,-142.82227
1768997902566,-0.9580078,0.05908203,-0.27392578,-8.972168,0.8544922,2.0751953,0.0,0.0,0.0,166.87134,72.78992,-142.54211
1768997902654,-0.96875,0.087402344,-0.28466797,-0.6713867,0.36621094,0.4272461,0.0,0.0,0.0,166.87134,72.78992,-142.54211
1768997902665,-0.96875,0.087402344,-0.28466797,-0.6713867,0.36621094,0.4272461,0.0,0.0,0.0,165.64636,72.69104,-143.00354
1768997902754,-0.96533203,0.0859375,-0.28808594,4.760742,2.5024414,0.36621094,0.0,0.0,0.0,165.64636,72.69104,-143.00354
1768997902765,-0.96533203,0.0859375,-0.28808594,4.760742,2.5024414,0.36621094,0.0,0.0,0.0,164.9707,72.559204,-143.49792
1768997902853,-0.94677734,0.080566406,-0.2939453,1.8310547,-0.9765625,2.6245117,0.0,0.0,0.0,164.9707,72.559204,-143.49792
1768997902865,-0.94677734,0.080566406,-0.2939453,1.8310547,-0.9765625,2.6245117,0.0,0.0,0.0,164.69604,72.38342,-144.06372
1768997902953,-0.96191406,0.09326172,-0.2998047,0.4272461,-3.540039,0.4272461,0.0,0.0,0.0,164.69604,72.38342,-144.06372
1768997902965,-0.96191406,0.09326172,-0.2998047,0.4272461,-3.540039,0.4272461,0.0,0.0,0.0,164.67957,72.60315,-144.29443
1768997903053,-0.96875,0.08642578,-0.28955078,-0.48828125,-3.540039,-0.24414062,0.0,0.0,0.0,164.67957,72.60315,-144.29443
1768997903064,-0.96875,0.08642578,-0.28955078,-0.48828125,-3.540039,-0.24414062,0.0,0.0,0.0,164.46533,72.822876,-144.63501
1768997903152,-0.9707031,0.071777344,-0.28027344,0.36621094,-0.36621094,-0.18310547,0.0,0.0,0.0,164.46533,72.822876,-144.63501
1768997903164,-0.9707031,0.071777344,-0.28027344,0.36621094,-0.36621094,-0.18310547,0.0,0.0,0.0,164.94873,72.91626,-144.35486
1768997903252,-0.95703125,0.080566406,-0.28515625,1.2207031,1.2817383,-0.5493164,0.0,0.0,0.0,164.94873,72.91626,-144.35486
1768997903264,-0.95703125,0.080566406,-0.28515625,1.2207031,1.2817383,-0.5493164,0.0,0.0,0.0,165.11902,72.84485,-144.15161
1768997903352,-0.9423828,0.06933594,-0.28515625,-1.3427734,0.24414062,-0.18310547,0.0,0.0,0.0,165.11902,72.84485,-144.15161
1768997903363,-0.9423828,0.06933594,-0.28515625,-1.3427734,0.24414062,-0.18310547,0.0,0.0,0.0,165.2948,72.76245,-143.94287
1768997903452,-0.9614258,0.075683594,-0.28076172,2.8686523,-0.18310547,0.24414062,0.0,0.0,0.0,165.2948,72.76245,-143.94287
1768997903463,-0.9614258,0.075683594,-0.28076172,2.8686523,-0.18310547,0.24414062,0.0,0.0,0.0,165.0476,72.81189,-144.03076
1768997903551,-0.9555664,0.092285156,-0.27929688,-0.6713867,-0.79345703,0.36621094,0.0,0.0,0.0,165.0476,72.81189,-144.03076
1768997903563,-0.9555664,0.092285156,-0.27929688,-0.6713867,-0.79345703,0.36621094,0.0,0.0,0.0,164.24011,72.91077,-144.58557
1768997903651,-0.9555664,0.07910156,-0.27929688,-0.4272461,0.12207031,0.8544922,0.0,0.0,0.0,164.24011,72.91077,-144.58557
1768997903663,-0.9555664,0.07910156,-0.27929688,-0.4272461,0.12207031,0.8544922,0.0,0.0,0.0,164.34998,72.855835,-144.63501
1768997903751,-0.95458984,0.09033203,-0.27392578,2.4414062,1.8920898,-0.48828125,0.0,0.0,0.0,164.34998,72.855835,-144.63501
1768997903763,-0.95458984,0.09033203,-0.27392578,2.4414062,1.8920898,-0.48828125,0.0,0.0,0.0,164.22363,72.81189,-144.81079
1768997903850,-0.9658203,0.09765625,-0.2890625,5.3710938,1.8920898,-0.6713867,0.0,0.0,0.0,164.22363,72.81189,-144.81079
1768997903862,-0.9658203,0.09765625,-0.2890625,5.3710938,1.8920898,-0.6713867,0.0,0.0,0.0,164.63013,72.81738,-144.65149
1768997903950,-0.96972656,0.078125,-0.25,8.056641,-0.30517578,0.36621094,0.0,0.0,0.0,164.63013,72.81738,-144.65149
1768997903962,-0.96972656,0.078125,-0.25,8.056641,-0.30517578,0.36621094,0.0,0.0,0.0,165.7782,72.6416,-144.38232
1768997904050,-0.9580078,0.072265625,-0.28125,4.5776367,1.5869141,0.79345703,0.0,0.0,0.0,165.7782,72.6416,-144.38232
1768997904061,-0.9580078,0.072265625,-0.28125,4.5776367,1.5869141,0.79345703,0.0,0.0,0.0,165.16296,72.74597,-145.11841
1768997904150,-0.9638672,0.07324219,-0.27441406,1.7089844,0.61035156,-0.24414062,0.0,0.0,0.0,165.16296,72.74597,-145.11841
1768997904161,-0.9638672,0.07324219,-0.27441406,1.7089844,0.61035156,-0.24414062,0.0,0.0,0.0,165.2124,72.71301,-145.10193
1768997904249,-0.9614258,0.080566406,-0.27783203,-1.8310547,-0.61035156,0.48828125,0.0,0.0,0.0,165.2124,72.71301,-145.10193
1768997904261,-0.9614258,0.080566406,-0.27783203,-1.8310547,-0.61035156,0.48828125,0.0,0.0,0.0,165.11353,72.74048,-145.0415
1768997904349,-0.95654297,0.07861328,-0.28027344,-2.5024414,1.7700195,0.18310547,0.0,0.0,0.0,165.11353,72.74048,-145.0415
1768997904361,-0.95654297,0.07861328,-0.28027344,-2.5024414,1.7700195,0.18310547,0.0,0.0,0.0,164.8938,72.70203,-145.01404
1768997904449,-0.9589844,0.08300781,-0.2841797,0.61035156,2.0751953,-0.18310547,0.0,0.0,0.0,164.8938,72.70203,-145.01404
1768997904460,-0.9589844,0.08300781,-0.2841797,0.61035156,2.0751953,-0.18310547,0.0,0.0,0.0,165.19592,72.46033,-144.66248
1768997904549,-0.9682617,0.080566406,-0.29589844,-1.2817383,0.8544922,0.5493164,0.0,0.0,0.0,165.19592,72.46033,-144.66248
1768997904560,-0.9682617,0.080566406,-0.29589844,-1.2817383,0.8544922,0.5493164,0.0,0.0,0.0,164.87183,72.388916,-144.73389
1768997904648,-0.9604492,0.08300781,-0.2944336,-0.6713867,-0.18310547,0.48828125,0.0,0.0,0.0,164.87183,72.388916,-144.73389
1768997904660,-0.9604492,0.08300781,-0.2944336,-0.6713867,-0.18310547,0.48828125,0.0,0.0,0.0,164.7345,72.317505,-144.7998
1768997904748,-0.9584961,0.08691406,-0.28808594,0.24414062,0.30517578,0.8544922,0.0,0.0,0.0,164.7345,72.317505,-144.7998
1768997904759,-0.9584961,0.08691406,-0.28808594,0.24414062,0.30517578,0.8544922,0.0,0.0,0.0,164.55872,72.26257,-144.99207
1768997904848,-0.9584961,0.08496094,-0.2890625,1.0986328,-1.0375977,0.4272461,0.0,0.0,0.0,164.55872,72.26257,-144.99207
1768997904859,-0.9584961,0.08496094,-0.2890625,1.0986328,-1.0375977,0.4272461,0.0,0.0,0.0,164.34448,72.25708,-145.29968
1768997904947,-0.9589844,0.09033203,-0.29052734,0.0,-0.91552734,0.30517578,0.0,0.0,0.0,164.34448,72.25708,-145.29968
1768997904959,-0.9589844,0.09033203,-0.29052734,0.0,-0.91552734,0.30517578,0.0,0.0,0.0,164.15771,72.323,-145.56335
1768997905047,-0.9589844,0.08496094,-0.2861328,0.91552734,-0.061035156,0.48828125,0.0,0.0,0.0,164.15771,72.323,-145.56335
1768997905058,-0.9589844,0.08496094,-0.2861328,0.91552734,-0.061035156,0.48828125,0.0,0.0,0.0,164.17969,72.32849,-145.69519
1768997905147,-0.9628906,0.08154297,-0.2861328,0.8544922,-1.2207031,0.24414062,0.0,0.0,0.0,164.17969,72.32849,-145.69519
1768997905159,-0.9628906,0.08154297,-0.2861328,0.8544922,-1.2207031,0.24414062,0.0,0.0,0.0,164.27307,72.35596,-145.78857
1768997905246,-0.95751953,0.08496094,-0.27783203,1.953125,-0.4272461,-0.79345703,0.0,0.0,0.0,164.27307,72.35596,-145.78857
1768997905258,-0.95751953,0.08496094,-0.27783203,1.953125,-0.4272461,-0.79345703,0.0,0.0,0.0,164.328,72.421875,-145.71167
1768997905346,-0.95703125,0.087890625,-0.2890625,-0.61035156,-0.18310547,-0.8544922,0.0,0.0,0.0,164.328,72.421875,-145.71167
1768997905358,-0.95703125,0.087890625,-0.2890625,-0.61035156,-0.18310547,-0.8544922,0.0,0.0,0.0,164.62463,72.46033,-145.39856
1768997905446,-0.9555664,0.083496094,-0.28808594,-3.2348633,-0.061035156,0.061035156,0.0,0.0,0.0,164.62463,72.46033,-145.39856
1768997905457,-0.9555664,0.083496094,-0.28808594,-3.2348633,-0.061035156,0.061035156,0.0,0.0,0.0,164.76196,72.48779,-145.1294
1768997905546,-0.95751953,0.07861328,-0.27734375,0.0,-0.24414062,0.18310547,0.0,0.0,0.0,164.76196,72.48779,-145.1294
1768997905557,-0.95751953,0.07861328,-0.27734375,0.0,-0.24414062,0.18310547,0.0,0.0,0.0,164.83337,72.509766,-145.0415
1768997905645,-0.95703125,0.08203125,-0.28173828,-0.18310547,-0.6713867,0.0,0.0,0.0,0.0,164.83337,72.509766,-145.0415
1768997905657,-0.95703125,0.08203125,-0.28173828,-0.18310547,-0.6713867,0.0,0.0,0.0,0.0,164.78943,72.559204,-145.0415
1768997905745,-0.9604492,0.08154297,-0.28515625,-1.7700195,-0.48828125,0.48828125,0.0,0.0,0.0,164.78943,72.559204,-145.0415
1768997905757,-0.9604492,0.08154297,-0.28515625,-1.7700195,-0.48828125,0.48828125,0.0,0.0,0.0,164.729,72.58667,-145.047
1768997905845,-0.953125,0.084472656,-0.27734375,-0.30517578,0.18310547,-0.48828125,0.0,0.0,0.0,164.729,72.58667,-145.047
1768997905856,-0.953125,0.084472656,-0.27734375,-0.30517578,0.18310547,-0.48828125,0.0,0.0,0.0,164.77844,72.58118,-144.9701
1768997905944,-0.94921875,0.08105469,-0.27392578,1.7089844,0.61035156,-0.18310547,0.0,0.0,0.0,164.77844,72.58118,-144.9701
1768997905956,-0.94921875,0.08105469,-0.27392578,1.7089844,0.61035156,-0.18310547,0.0,0.0,0.0,164.84436,72.60315,-144.86572
1768997906044,-0.95458984,0.08203125,-0.27978516,2.9296875,0.0,-0.24414062,0.0,0.0,0.0,164.84436,72.60315,-144.86572
1768997906056,-0.95458984,0.08203125,-0.27978516,2.9296875,0.0,-0.24414062,0.0,0.0,0.0,164.77844,72.6416,-144.91516
1768997906144,-0.95751953,0.08691406,-0.28466797,0.9765625,-0.30517578,-0.4272461,0.0,0.0,0.0,164.77844,72.6416,-144.91516
1768997906155,-0.95751953,0.08691406,-0.28466797,0.9765625,-0.30517578,-0.4272461,0.0,0.0,0.0,164.69055,72.70203,-144.9701
1768997906243,-0.95996094,0.08203125,-0.28125,-1.3427734,-0.61035156,-0.12207031,0.0,0.0,0.0,164.69055,72.70203,-144.9701
1768997906255,-0.95996094,0.08203125,-0.28125,-1.3427734,-0.61035156,-0.12207031,0.0,0.0,0.0,164.68506,72.8009,-144.9591
1768997906343,-0.95947266,0.080566406,-0.27734375,-0.6713867,-0.5493164,-0.12207031,0.0,0.0,0.0,164.68506,72.8009,-144.9591
1768997906355,-0.95947266,0.080566406,-0.27734375,-0.6713867,-0.5493164,-0.12207031,0.0,0.0,0.0,164.67957,72.87781,-144.92615
1768997906443,-0.95751953,0.08300781,-0.27001953,0.5493164,-0.79345703,-0.48828125,0.0,0.0,0.0,164.67957,72.87781,-144.92615
1768997906455,-0.95751953,0.08300781,-0.27001953,0.5493164,-0.79345703,-0.48828125,0.0,0.0,0.0,164.71802,73.00964,-144.8822
1768997906543,-0.95410156,0.08105469,-0.2709961,-0.36621094,-1.159668,-0.5493164,0.0,0.0,0.0,164.71802,73.00964,-144.8822
1768997906554,-0.95410156,0.08105469,-0.2709961,-0.36621094,-1.159668,-0.5493164,0.0,0.0,0.0,164.82788,73.10852,-144.78333
1768997906642,-0.9604492,0.08154297,-0.27197266,0.4272461,-0.8544922,-0.36621094,0.0,0.0,0.0,164.82788,73.10852,-144.78333
1768997906654,-0.9604492,0.08154297,-0.27197266,0.4272461,-0.8544922,-0.36621094,0.0,0.0,0.0,164.71802,73.26233,-144.83826
1768997906742,-0.9628906,0.07714844,-0.26464844,1.8310547,-0.91552734,-0.7324219,0.0,0.0,0.0,164.71802,73.26233,-144.83826
1768997906753,-0.9628906,0.07714844,-0.26464844,1.8310547,-0.91552734,-0.7324219,0.0,0.0,0.0,164.63013,73.38318,-144.87122
1768997906842,-0.96728516,0.078125,-0.265625,1.4038086,-0.91552734,-0.7324219,0.0,0.0,0.0,164.63013,73.38318,-144.87122
1768997906853,-0.96728516,0.078125,-0.265625,1.4038086,-0.91552734,-0.7324219,0.0,0.0,0.0,164.61365,73.531494,-144.84924
1768997906941,-0.96484375,0.07763672,-0.26123047,0.18310547,-1.7089844,-0.48828125,0.0,0.0,0.0,164.61365,73.531494,-144.84924
1768997906953,-0.96484375,0.07763672,-0.26123047,0.18310547,-1.7089844,-0.48828125,0.0,0.0,0.0,164.6576,73.690796,-144.77783
1768997907041,-0.9663086,0.07470703,-0.2553711,0.18310547,-1.5258789,-0.4272461,0.0,0.0,0.0,164.6576,73.690796,-144.77783
1768997907053,-0.9663086,0.07470703,-0.2553711,0.18310547,-1.5258789,-0.4272461,0.0,0.0,0.0,164.63562,73.87756,-144.75037
1768997907141,-0.9692383,0.079589844,-0.25097656,0.18310547,0.18310547,-0.9765625,0.0,0.0,0.0,164.63562,73.87756,-144.75037
1768997907152,-0.9692383,0.079589844,-0.25097656,0.18310547,0.18310547,-0.9765625,0.0,0.0,0.0,164.59167,74.04785,-144.70093
1768997907241,-0.9667969,0.07519531,-0.24707031,-1.3427734,-0.48828125,-0.12207031,0.0,0.0,0.0,164.59167,74.04785,-144.70093
1768997907252,-0.9667969,0.07519531,-0.24707031,-1.3427734,-0.48828125,-0.12207031,0.0,0.0,0.0,164.66309,74.14673,-144.59106
1768997907340,-0.9716797,0.07519531,-0.25439453,-0.5493164,0.91552734,-0.12207031,0.0,0.0,0.0,164.66309,74.14673,-144.59106
1768997907352,-0.9716797,0.07519531,-0.25439453,-0.5493164,0.91552734,-0.12207031,0.0,0.0,0.0,164.60266,74.174194,-144.51965
1768997907440,-0.96484375,0.07324219,-0.2529297,-0.061035156,1.2207031,-0.24414062,0.0,0.0,0.0,164.60266,74.174194,-144.51965
1768997907452,-0.96484375,0.07324219,-0.2529297,-0.061035156,1.2207031,-0.24414062,0.0,0.0,0.0,164.49829,74.141235,-144.47571
1768997907540,-0.9667969,0.075683594,-0.2607422,-0.8544922,1.3427734,-0.18310547,0.0,0.0,0.0,164.49829,74.141235,-144.47571
1768997907551,-0.9667969,0.075683594,-0.2607422,-0.8544922,1.3427734,-0.18310547,0.0,0.0,0.0,164.45984,74.07532,-144.33289
1768997907639,-0.96484375,0.076171875,-0.2602539,-1.2817383,1.3427734,-0.061035156,0.0,0.0,0.0,164.45984,74.07532,-144.33289
1768997907651,-0.96484375,0.076171875,-0.2602539,-1.2817383,1.3427734,-0.061035156,0.0,0.0,0.0,164.50928,73.948975,-144.14062
1768997907739,-0.9667969,0.078125,-0.26464844,-1.159668,1.4038086,0.0,0.0,0.0,0.0,164.50928,73.948975,-144.14062
1768997907751,-0.9667969,0.078125,-0.26464844,-1.159668,1.4038086,0.0,0.0,0.0,0.0,164.49829,73.861084,-144.04724
1768997907839,-0.96484375,0.076660156,-0.2602539,0.24414062,1.2207031,0.0,0.0,0.0,0.0,164.49829,73.861084,-144.04724
1768997907851,-0.96484375,0.076660156,-0.2602539,0.24414062,1.2207031,0.0,0.0,0.0,0.0,164.62463,73.7677,-143.89343
1768997907939,-0.9628906,0.078125,-0.26220703,-1.0375977,1.6479492,0.0,0.0,0.0,0.0,164.62463,73.7677,-143.89343
1768997907951,-0.9628906,0.078125,-0.26220703,-1.0375977,1.6479492,0.0,0.0,0.0,0.0,164.77295,73.61389,-143.73962
1768997908038,-0.96533203,0.07861328,-0.26513672,1.0986328,1.8920898,-0.24414062,0.0,0.0,0.0,164.77295,73.61389,-143.73962
1768997908050,-0.96533203,0.07861328,-0.26513672,1.0986328,1.8920898,-0.24414062,0.0,0.0,0.0,164.85535,73.50403,-143.66821
1768997908138,-0.95996094,0.07714844,-0.2680664,0.0,1.2207031,0.24414062,0.0,0.0,0.0,164.85535,73.50403,-143.66821
1768997908150,-0.95996094,0.07714844,-0.2680664,0.0,1.2207031,0.24414062,0.0,0.0,0.0,164.86633,73.39966,-143.64624
1768997908238,-0.96240234,0.07714844,-0.27001953,1.159668,0.7324219,-0.061035156,0.0,0.0,0.0,164.86633,73.39966,-143.64624
1768997908249,-0.96240234,0.07714844,-0.27001953,1.159668,0.7324219,-0.061035156,0.0,0.0,0.0,164.86084,73.37219,-143.66272
1768997908337,-0.96240234,0.078125,-0.27148438,0.36621094,0.79345703,0.12207031,0.0,0.0,0.0,164.86084,73.37219,-143.66272
1768997908349,-0.96240234,0.078125,-0.27148438,0.36621094,0.79345703,0.12207031,0.0,0.0,0.0,164.79492,73.33923,-143.73962
1768997908437,-0.9609375,0.075683594,-0.2709961,0.30517578,0.7324219,-0.18310547,0.0,0.0,0.0,164.79492,73.33923,-143.73962
1768997908449,-0.9609375,0.075683594,-0.2709961,0.30517578,0.7324219,-0.18310547,0.0,0.0,0.0,164.84985,73.2843,-143.70117
1768997908537,-0.96435547,0.08251953,-0.26611328,1.159668,1.7700195,-1.5258789,0.0,0.0,0.0,164.84985,73.2843,-143.70117
1768997908549,-0.96435547,0.08251953,-0.26611328,1.159668,1.7700195,-1.5258789,0.0,0.0,0.0,165.07507,73.24585,-143.50342
1768997908636,-0.9604492,0.07714844,-0.27783203,-1.0986328,-0.91552734,1.4038086,0.0,0.0,0.0,165.07507,73.24585,-143.50342
1768997908648,-0.9604492,0.07714844,-0.27783203,-1.0986328,-0.91552734,1.4038086,0.0,0.0,0.0,165.22888,73.26233,-143.50891
1768997908736,-0.95947266,0.07861328,-0.2631836,-2.1362305,-1.7089844,0.61035156,0.0,0.0,0.0,165.22888,73.26233,-143.50891
1768997908748,-0.95947266,0.07861328,-0.2631836,-2.1362305,-1.7089844,0.61035156,0.0,0.0,0.0,164.79492,73.37219,-143.9209
1768997908836,-0.95996094,0.0703125,-0.26611328,-3.1738281,0.18310547,-0.12207031,0.0,0.0,0.0,164.79492,73.37219,-143.9209
1768997908847,-0.95996094,0.0703125,-0.26611328,-3.1738281,0.18310547,-0.12207031,0.0,0.0,0.0,164.59717,73.43262,-143.89893
1768997908936,-0.9633789,0.07861328,-0.27294922,-3.4179688,0.18310547,-0.24414062,0.0,0.0,0.0,164.59717,73.43262,-143.89893
1768997908947,-0.9633789,0.07861328,-0.27294922,-3.4179688,0.18310547,-0.24414062,0.0,0.0,0.0,164.33899,73.42163,-143.70117
1768997909035,-0.95214844,0.080566406,-0.26708984,-3.1738281,-0.6713867,-0.91552734,0.0,0.0,0.0,164.33899,73.42163,-143.70117
1768997909047,-0.95214844,0.080566406,-0.26708984,-3.1738281,-0.6713867,-0.91552734,0.0,0.0,0.0,164.2511,73.46008,-143.432
1768997909135,-0.96191406,0.08251953,-0.2626953,1.7089844,-1.159668,-0.24414062,0.0,0.0,0.0,164.2511,73.46008,-143.432
1768997909147,-0.96191406,0.08251953,-0.2626953,1.7089844,-1.159668,-0.24414062,0.0,0.0,0.0,164.20715,73.59192,-143.3606
1768997909235,-0.9716797,0.09033203,-0.2607422,1.8310547,-1.3427734,-0.12207031,0.0,0.0,0.0,164.20715,73.59192,-143.3606
1768997909246,-0.9716797,0.09033203,-0.2607422,1.8310547,-1.3427734,-0.12207031,0.0,0.0,0.0,163.96545,73.77869,-143.71765
1768997909334,-0.96484375,0.07910156,-0.25146484,1.5869141,-1.0375977,-0.30517578,0.0,0.0,0.0,163.96545,73.77869,-143.71765
1768997909346,-0.96484375,0.07910156,-0.25146484,1.5869141,-1.0375977,-0.30517578,0.0,0.0,0.0,164.22363,73.899536,-143.78357
1768997909434,-0.9682617,0.08105469,-0.25097656,1.7089844,-0.30517578,-0.36621094,0.0,0.0,0.0,164.22363,73.899536,-143.78357
1768997909446,-0.9682617,0.08105469,-0.25097656,1.7089844,-0.30517578,-0.36621094,0.0,0.0,0.0,164.34448,74.020386,-143.84949
1768997909534,-0.96972656,0.07324219,-0.24951172,1.159668,-0.5493164,-0.30517578,0.0,0.0,0.0,164.34448,74.020386,-143.84949
1768997909546,-0.96972656,0.07324219,-0.24951172,1.159668,-0.5493164,-0.30517578,0.0,0.0,0.0,164.4104,74.10278,-143.87146
1768997909634,-0.96777344,0.07470703,-0.2524414,0.18310547,0.0,-0.24414062,0.0,0.0,0.0,164.4104,74.10278,-143.87146
1768997909645,-0.96777344,0.07470703,-0.2524414,0.18310547,0.0,-0.24414062,0.0,0.0,0.0,164.44885,74.16321,-143.83301
1768997909733,-0.9667969,0.07324219,-0.2529297,-1.2207031,0.24414062,-0.12207031,0.0,0.0,0.0,164.44885,74.16321,-143.83301
1768997909745,-0.9667969,0.07324219,-0.2529297,-1.2207031,0.24414062,-0.12207031,0.0,0.0,0.0,164.4049,74.19617,-143.80005
1768997909833,-0.96972656,0.075683594,-0.25830078,-1.2207031,1.4648438,-0.48828125,0.0,0.0,0.0,164.4049,74.19617,-143.80005
1768997909845,-0.96972656,0.075683594,-0.25830078,-1.2207031,1.4648438,-0.48828125,0.0,0.0,0.0,164.43787,74.16321,-143.62976
1768997909933,-0.9711914,0.078125,-0.25097656,-0.24414062,2.8076172,-0.8544922,0.0,0.0,0.0,164.43787,74.16321,-143.62976
1768997909944,-0.9711914,0.078125,-0.25097656,-0.24414062,2.8076172,-0.8544922,0.0,0.0,0.0,164.69055,74.03137,-143.2782
1768997910032,-0.96533203,0.07519531,-0.25830078,-2.0751953,2.380371,-0.18310547,0.0,0.0,0.0,164.69055,74.03137,-143.2782
1768997910044,-0.96533203,0.07519531,-0.25830078,-2.0751953,2.380371,-0.18310547,0.0,0.0,0.0,165.02563,73.8501,-142.89368
1768997910132,-0.9584961,0.07763672,-0.2626953,1.5869141,3.7841797,-0.61035156,0.0,0.0,0.0,165.02563,73.8501,-142.89368
1768997910144,-0.9584961,0.07763672,-0.2626953,1.5869141,3.7841797,-0.61035156,0.0,0.0,0.0,165.31128,73.619385,-142.58606
1768997910232,-0.9584961,0.07421875,-0.2709961,0.4272461,1.2817383,0.061035156,0.0,0.0,0.0,165.31128,73.619385,-142.58606
1768997910244,-0.9584961,0.07421875,-0.2709961,0.4272461,1.2817383,0.061035156,0.0,0.0,0.0,165.44312,73.43811,-142.43225
1768997910332,-0.9589844,0.07080078,-0.2709961,-0.8544922,-1.7089844,1.0375977,0.0,0.0,0.0,165.44312,73.43811,-142.43225
1768997910343,-0.9589844,0.07080078,-0.2709961,-0.8544922,-1.7089844,1.0375977,0.0,0.0,0.0,165.28381,73.43262,-142.60803
1768997910431,-0.9663086,0.07080078,-0.27148438,-3.1738281,-3.2348633,1.3427734,0.0,0.0,0.0,165.28381,73.43262,-142.60803
1768997910443,-0.9663086,0.07080078,-0.27148438,-3.1738281,-3.2348633,1.3427734,0.0,0.0,0.0,164.5697,73.66882,-143.28369
1768997910531,-0.9614258,0.080566406,-0.26367188,-0.8544922,-1.7089844,0.30517578,0.0,0.0,0.0,164.5697,73.66882,-143.28369
1768997910543,-0.9614258,0.080566406,-0.26367188,-0.8544922,-1.7089844,0.30517578,0.0,0.0,0.0,164.1687,73.75122,-143.60779
1768997910631,-0.95996094,0.079589844,-0.25146484,-0.36621094,0.61035156,0.4272461,0.0,0.0,0.0,164.1687,73.75122,-143.60779
1768997910643,-0.95996094,0.079589844,-0.25146484,-0.36621094,0.61035156,0.4272461,0.0,0.0,0.0,163.58643,73.85559,-144.12964
1768997910731,-0.96875,0.08642578,-0.2631836,-0.6713867,0.061035156,0.7324219,0.0,0.0,0.0,163.58643,73.85559,-144.12964
1768997910743,-0.96875,0.08642578,-0.2631836,-0.6713867,0.061035156,0.7324219,0.0,0.0,0.0,163.03711,73.844604,-144.58557
1768997910830,-0.95996094,0.08642578,-0.265625,0.0,0.061035156,0.5493164,0.0,0.0,0.0,163.03711,73.844604,-144.58557
1768997910843,-0.95996094,0.08642578,-0.265625,0.0,0.061035156,0.5493164,0.0,0.0,0.0,162.89978,73.80066,-144.78882
1768997910930,-0.9589844,0.088378906,-0.2553711,0.0,-0.8544922,0.4272461,0.0,0.0,0.0,162.89978,73.80066,-144.78882
1768997910942,-0.9589844,0.088378906,-0.2553711,0.0,-0.8544922,0.4272461,0.0,0.0,0.0,162.42188,73.83911,-145.2887
1768997911030,-0.9638672,0.08691406,-0.2631836,1.2817383,-0.18310547,0.0,0.0,0.0,0.0,162.42188,73.83911,-145.2887
1768997911041,-0.9638672,0.08691406,-0.2631836,1.2817383,-0.18310547,0.0,0.0,0.0,0.0,162.19666,73.932495,-145.66223
1768997911129,-0.96777344,0.08984375,-0.25585938,1.7700195,0.4272461,-0.061035156,0.0,0.0,0.0,162.19666,73.932495,-145.66223
1768997911141,-0.96777344,0.08984375,-0.25585938,1.7700195,0.4272461,-0.061035156,0.0,0.0,0.0,162.19666,73.94348,-145.88196
1768997911229,-0.9692383,0.08642578,-0.25390625,3.4179688,1.3427734,0.18310547,0.0,0.0,0.0,162.19666,73.94348,-145.88196
1768997911241,-0.9692383,0.08642578,-0.25390625,3.4179688,1.3427734,0.18310547,0.0,0.0,0.0,162.41638,73.87756,-145.96436
1768997911329,-0.9658203,0.08496094,-0.25732422,3.3569336,1.7089844,-1.0986328,0.0,0.0,0.0,162.41638,73.87756,-145.96436
1768997911340,-0.9658203,0.08496094,-0.25732422,3.3569336,1.7089844,-1.0986328,0.0,0.0,0.0,162.75696,73.80066,-145.90942
1768997911428,-0.9658203,0.08203125,-0.25830078,-0.30517578,0.4272461,-0.30517578,0.0,0.0,0.0,162.75696,73.80066,-145.90942
1768997911440,-0.9658203,0.08203125,-0.25830078,-0.30517578,0.4272461,-0.30517578,0.0,0.0,0.0,162.9602,73.72925,-145.86548
1768997911528,-0.96484375,0.095703125,-0.2685547,-3.6010742,2.6855469,0.30517578,0.0,0.0,0.0,162.9602,73.72925,-145.86548
1768997911540,-0.96484375,0.095703125,-0.2685547,-3.6010742,2.6855469,0.30517578,0.0,0.0,0.0,163.13599,73.59741,-145.64575
1768997911628,-0.9663086,0.08300781,-0.25878906,-2.8686523,0.61035156,0.061035156,0.0,0.0,0.0,163.13599,73.59741,-145.64575
1768997911639,-0.9663086,0.08300781,-0.25878906,-2.8686523,0.61035156,0.061035156,0.0,0.0,0.0,163.08105,73.427124,-145.70068
1768997911728,-0.96240234,0.087890625,-0.2705078,2.0751953,0.8544922,-1.3427734,0.0,0.0,0.0,163.08105,73.427124,-145.70068
1768997911739,-0.96240234,0.087890625,-0.2705078,2.0751953,0.8544922,-1.3427734,0.0,0.0,0.0,163.14148,73.41614,-145.70068
1768997911827,-0.9633789,0.0859375,-0.26416016,1.2207031,-0.4272461,-0.8544922,0.0,0.0,0.0,163.14148,73.41614,-145.70068
1768997911839,-0.9633789,0.0859375,-0.26416016,1.2207031,-0.4272461,-0.8544922,0.0,0.0,0.0,163.58643,73.43811,-145.5304
1768997911927,-0.9663086,0.083496094,-0.26660156,1.8920898,0.6713867,-0.61035156,0.0,0.0,0.0,163.58643,73.43811,-145.5304
1768997911939,-0.9663086,0.083496094,-0.26660156,1.8920898,0.6713867,-0.61035156,0.0,0.0,0.0,163.72375,73.465576,-145.55786
1768997912027,-0.9628906,0.079589844,-0.2709961,4.638672,1.159668,-1.2817383,0.0,0.0,0.0,163.72375,73.465576,-145.55786
1768997912038,-0.9628906,0.079589844,-0.2709961,4.638672,1.159668,-1.2817383,0.0,0.0,0.0,164.47083,73.42163,-145.23926
1768997912127,-0.96435547,0.076660156,-0.27294922,0.79345703,-0.9765625,-0.24414062,0.0,0.0,0.0,164.47083,73.42163,-145.23926
1768997912138,-0.96435547,0.076660156,-0.27294922,0.79345703,-0.9765625,-0.24414062,0.0,0.0,0.0,164.94873,73.45459,-144.99756
1768997912226,-0.9609375,0.07519531,-0.26171875,-1.4648438,-2.1362305,0.24414062,0.0,0.0,0.0,164.94873,73.45459,-144.99756
1768997912238,-0.9609375,0.07519531,-0.26171875,-1.4648438,-2.1362305,0.24414062,0.0,0.0,0.0,164.67957,73.619385,-145.21179
1768997912326,-0.96435547,0.07714844,-0.2607422,-0.48828125,-0.91552734,-0.18310547,0.0,0.0,0.0,164.67957,73.619385,-145.21179
1768997912337,-0.96435547,0.07714844,-0.2607422,-0.48828125,-0.91552734,-0.18310547,0.0,0.0,0.0,164.64111,73.72925,-145.27222
1768997912426,-0.9658203,0.07324219,-0.26416016,0.48828125,-0.7324219,0.061035156,0.0,0.0,0.0,164.64111,73.72925,-145.27222
1768997912437,-0.9658203,0.07324219,-0.26416016,0.48828125,-0.7324219,0.061035156,0.0,0.0,0.0,164.58618,73.78418,-145.31067
1768997912525,-0.95654297,0.07861328,-0.24658203,1.7089844,-0.5493164,0.061035156,0.0,0.0,0.0,164.58618,73.78418,-145.31067
1768997912537,-0.95654297,0.07861328,-0.24658203,1.7089844,-0.5493164,0.061035156,0.0,0.0,0.0,164.13025,74.00391,-145.75562
1768997912625,-0.9707031,0.08105469,-0.25195312,-1.8920898,-0.5493164,0.79345703,0.0,0.0,0.0,164.13025,74.00391,-145.75562
1768997912637,-0.9707031,0.08105469,-0.25195312,-1.8920898,-0.5493164,0.79345703,0.0,0.0,0.0,163.7677,74.13025,-146.0852
1768997912725,-0.9794922,0.075683594,-0.26367188,-0.7324219,0.30517578,0.8544922,0.0,0.0,0.0,163.7677,74.13025,-146.0852
1768997912736,-0.9794922,0.075683594,-0.26367188,-0.7324219,0.30517578,0.8544922,0.0,0.0,0.0,163.66333,74.020386,-146.21704
1768997912825,-0.9707031,0.078125,-0.26953125,-0.6713867,1.0986328,0.061035156,0.0,0.0,0.0,163.66333,74.020386,-146.21704
1768997912837,-0.9707031,0.078125,-0.26953125,-0.6713867,1.0986328,0.061035156,0.0,0.0,0.0,163.72925,73.94348,-146.18958
1768997912924,-0.9638672,0.07714844,-0.26220703,-0.5493164,-0.24414062,0.6713867,0.0,0.0,0.0,163.72925,73.94348,-146.18958
1768997912936,-0.9638672,0.07714844,-0.26220703,-0.5493164,-0.24414062,0.6713867,0.0,0.0,0.0,163.61938,73.87207,-146.22253
1768997913024,-0.96777344,0.08544922,-0.25976562,-1.2817383,0.24414062,0.6713867,0.0,0.0,0.0,163.61938,73.87207,-146.22253
1768997913035,-0.96777344,0.08544922,-0.25976562,-1.2817383,0.24414062,0.6713867,0.0,0.0,0.0,163.23486,73.88855,-146.51917
1768997913124,-0.95751953,0.08203125,-0.26464844,1.7700195,0.0,-0.061035156,0.0,0.0,0.0,163.23486,73.88855,-146.51917
1768997913135,-0.95751953,0.08203125,-0.26464844,1.7700195,0.0,-0.061035156,0.0,0.0,0.0,163.08655,73.87756,-146.66748
1768997913225,-0.96875,0.08154297,-0.25927734,1.0986328,-0.36621094,0.4272461,0.0,0.0,0.0,163.08655,73.87756,-146.66748
1768997913235,-0.96875,0.08154297,-0.25927734,1.0986328,-0.36621094,0.4272461,0.0,0.0,0.0,163.03162,73.899536,-146.82129
1768997913323,-0.9711914,0.08544922,-0.26757812,1.4648438,-0.61035156,0.4272461,0.0,0.0,0.0,163.03162,73.899536,-146.82129
1768997913334,-0.9711914,0.08544922,-0.26757812,1.4648438,-0.61035156,0.4272461,0.0,0.0,0.0,163.01514,73.92151,-147.01355
1768997913423,-0.95166016,0.083984375,-0.26416016,1.5258789,-2.1362305,0.4272461,0.0,0.0,0.0,163.01514,73.92151,-147.01355
1768997913434,-0.95166016,0.083984375,-0.26416016,1.5258789,-2.1362305,0.4272461,0.0,0.0,0.0,163.41614,74.020386,-147.00806
1768997913522,-0.9633789,0.07763672,-0.24658203,4.5166016,0.30517578,-0.061035156,0.0,0.0,0.0,163.41614,74.020386,-147.00806
1768997913534,-0.9633789,0.07763672,-0.24658203,4.5166016,0.30517578,-0.061035156,0.0,0.0,0.0,163.33374,74.10828,-147.33765
1768997913622,-0.96875,0.060546875,-0.25195312,0.0,0.36621094,3.3569336,0.0,0.0,0.0,163.33374,74.10828,-147.33765
1768997913634,-0.96875,0.060546875,-0.25195312,0.0,0.36621094,3.3569336,0.0,0.0,0.0,162.8833,74.05884,-147.88696
1768997913722,-0.96435547,0.103027344,-0.25,-7.6293945,0.30517578,4.3945312,0.0,0.0,0.0,162.8833,74.05884,-147.88696
1768997913733,-0.96435547,0.103027344,-0.25,-7.6293945,0.30517578,4.3945312,0.0,0.0,0.0,161.25732,73.932495,-149.07349
1768997913822,-0.96875,0.10644531,-0.2548828,-6.286621,1.953125,1.5869141,0.0,0.0,0.0,161.25732,73.932495,-149.07349
1768997913834,-0.96875,0.10644531,-0.2548828,-6.286621,1.953125,1.5869141,0.0,0.0,0.0,160.6311,73.66882,-149.39209
1768997913921,-0.9433594,0.100097656,-0.26171875,-3.6010742,1.6479492,1.2207031,0.0,0.0,0.0,160.6311,73.66882,-149.39209
1768997913933,-0.9433594,0.100097656,-0.26171875,-3.6010742,1.6479492,1.2207031,0.0,0.0,0.0,160.5542,73.39966,-149.34265
1768997914021,-0.95996094,0.09375,-0.2602539,2.380371,0.79345703,-0.061035156,0.0,0.0,0.0,160.5542,73.39966,-149.34265
1768997914033,-0.95996094,0.09375,-0.2602539,2.380371,0.79345703,-0.061035156,0.0,0.0,0.0,160.32898,73.40515,-149.55139
1768997914121,-0.9736328,0.10986328,-0.26220703,-3.112793,-1.7089844,0.18310547,0.0,0.0,0.0,160.32898,73.40515,-149.55139
1768997914132,-0.9736328,0.10986328,-0.26220703,-3.112793,-1.7089844,0.18310547,0.0,0.0,0.0,160.21362,73.427124,-149.6997
1768997914221,-0.95703125,0.07910156,-0.23925781,7.1411133,2.5634766,-0.91552734,0.0,0.0,0.0,160.21362,73.427124,-149.6997
1768997914232,-0.95703125,0.07910156,-0.23925781,7.1411133,2.5634766,-0.91552734,0.0,0.0,0.0,160.92224,73.410645,-149.4635
1768997914320,-0.9716797,0.092285156,-0.26708984,8.605957,3.2958984,-1.5258789,0.0,0.0,0.0,160.92224,73.410645,-149.4635
1768997914332,-0.9716797,0.092285156,-0.26708984,8.605957,3.2958984,-1.5258789,0.0,0.0,0.0,160.91125,73.322754,-149.47449
1768997914420,-0.9770508,0.103027344,-0.28271484,-3.479004,-1.5258789,0.4272461,0.0,0.0,0.0,160.91125,73.322754,-149.47449
1768997914431,-0.9770508,0.103027344,-0.28271484,-3.479004,-1.5258789,0.4272461,0.0,0.0,0.0,161.01562,73.22937,-149.3866
1768997914520,-0.95166016,0.09814453,-0.26171875,-4.8828125,-0.18310547,0.48828125,0.0,0.0,0.0,161.01562,73.22937,-149.3866
1768997914531,-0.95166016,0.09814453,-0.26171875,-4.8828125,-0.18310547,0.48828125,0.0,0.0,0.0,160.92224,73.22937,-149.36462
1768997914619,-0.9614258,0.11376953,-0.27294922,-2.2583008,-0.9765625,-0.8544922,0.0,0.0,0.0,160.92224,73.22937,-149.36462
1768997914631,-0.9614258,0.11376953,-0.27294922,-2.2583008,-0.9765625,-0.8544922,0.0,0.0,0.0,160.97168,73.19641,-149.1394
1768997914719,-0.96484375,0.095703125,-0.2680664,1.159668,1.6479492,-1.4648438,0.0,0.0,0.0,160.97168,73.19641,-149.1394
1768997914730,-0.96484375,0.095703125,-0.2680664,1.159668,1.6479492,-1.4648438,0.0,0.0,0.0,161.58691,73.24036,-148.6615
1768997914819,-0.96435547,0.09423828,-0.26708984,2.1362305,0.48828125,0.4272461,0.0,0.0,0.0,161.58691,73.24036,-148.6615
1768997914830,-0.96435547,0.09423828,-0.26708984,2.1362305,0.48828125,0.4272461,0.0,0.0,0.0,161.63086,73.22388,-148.7384
1768997914918,-0.9628906,0.10449219,-0.2758789,-3.479004,1.2817383,2.5024414,0.0,0.0,0.0,161.63086,73.22388,-148.7384
1768997914930,-0.9628906,0.10449219,-0.2758789,-3.479004,1.2817383,2.5024414,0.0,0.0,0.0,161.15295,73.09204,-149.12842
1768997915018,-0.9536133,0.0859375,-0.27929688,-4.0893555,0.24414062,2.4414062,0.0,0.0,0.0,161.15295,73.09204,-149.12842
1768997915029,-0.9536133,0.0859375,-0.27929688,-4.0893555,0.24414062,2.4414062,0.0,0.0,0.0,160.88379,72.839355,-149.40857
1768997915118,-0.95947266,0.119628906,-0.27294922,2.4414062,2.0751953,0.9765625,0.0,0.0,0.0,160.88379,72.839355,-149.40857
1768997915131,-0.95947266,0.119628906,-0.27294922,2.4414062,2.0751953,0.9765625,0.0,0.0,0.0,160.13123,72.69653,-149.82605
1768997915217,-0.97216797,0.110839844,-0.28564453,-4.272461,-3.6010742,0.79345703,0.0,0.0,0.0,160.13123,72.69653,-149.82605
1768997915229,-0.97216797,0.110839844,-0.28564453,-4.272461,-3.6010742,0.79345703,0.0,0.0,0.0,160.00488,72.70203,-150.17212
1768997915317,-0.94189453,0.080566406,-0.27246094,3.112793,-1.0986328,-0.36621094,0.0,0.0,0.0,160.00488,72.70203,-150.17212
1768997915329,-0.94189453,0.080566406,-0.27246094,3.112793,-1.0986328,-0.36621094,0.0,0.0,0.0,160.42786,72.8064,-150.07874
1768997915417,-0.95996094,0.095703125,-0.27539062,10.070801,1.5258789,-2.4414062,0.0,0.0,0.0,160.42786,72.8064,-150.07874
1768997915428,-0.95996094,0.095703125,-0.27539062,10.070801,1.5258789,-2.4414062,0.0,0.0,0.0,160.50476,72.94922,-150.04028
1768997915517,-0.9663086,0.10107422,-0.2783203,1.953125,1.0375977,-1.2207031,0.0,0.0,0.0,160.50476,72.94922,-150.04028
1768997915528,-0.9663086,0.10107422,-0.2783203,1.953125,1.0375977,-1.2207031,0.0,0.0,0.0,160.58167,72.993164,-149.95789
1768997915616,-0.9536133,0.099121094,-0.27734375,-1.8310547,0.91552734,-1.0375977,0.0,0.0,0.0,160.58167,72.993164,-149.95789
1768997915628,-0.9536133,0.099121094,-0.27734375,-1.8310547,0.91552734,-1.0375977,0.0,0.0,0.0,160.97717,72.91626,-149.55688
1768997915716,-0.97021484,0.103515625,-0.26904297,0.9765625,0.9765625,-1.2817383,0.0,0.0,0.0,160.97717,72.91626,-149.55688
1768997915728,-0.97021484,0.103515625,-0.26904297,0.9765625,0.9765625,-1.2817383,0.0,0.0,0.0,161.30127,72.86682,-149.11743
1768997915816,-0.9560547,0.10546875,-0.28222656,-1.4038086,0.91552734,-0.6713867,0.0,0.0,0.0,161.30127,72.86682,-149.11743
1768997915827,-0.9560547,0.10546875,-0.28222656,-1.4038086,0.91552734,-0.6713867,0.0,0.0,0.0,161.57593,72.77893,-148.9032
1768997915915,-0.9604492,0.08886719,-0.27197266,0.8544922,0.8544922,-0.48828125,0.0,0.0,0.0,161.57593,72.77893,-148.9032
1768997915927,-0.9604492,0.08886719,-0.27197266,0.8544922,0.8544922,-0.48828125,0.0,0.0,0.0,162.0758,72.69653,-148.62305
1768997916015,-0.96191406,0.09375,-0.28125,2.0751953,0.4272461,-0.36621094,0.0,0.0,0.0,162.0758,72.69653,-148.62305
1768997916027,-0.96191406,0.09375,-0.28125,2.0751953,0.4272461,-0.36621094,0.0,0.0,0.0,162.3175,72.61963,-148.48572
1768997916115,-0.95654297,0.091796875,-0.2890625,3.90625,2.2583008,-1.0986328,0.0,0.0,0.0,162.3175,72.61963,-148.48572
1768997916126,-0.95654297,0.091796875,-0.2890625,3.90625,2.2583008,-1.0986328,0.0,0.0,0.0,162.84485,72.4823,-148.16162
1768997916215,-0.96191406,0.08886719,-0.2919922,-1.5258789,0.12207031,-0.30517578,0.0,0.0,0.0,162.84485,72.4823,-148.16162
1768997916226,-0.96191406,0.08886719,-0.2919922,-1.5258789,0.12207031,-0.30517578,0.0,0.0,0.0,163.2898,72.39441,-147.74963
1768997916315,-0.96484375,0.08886719,-0.2939453,-1.7700195,0.9765625,-0.6713867,0.0,0.0,0.0,163.2898,72.39441,-147.74963
1768997916326,-0.96484375,0.08886719,-0.2939453,-1.7700195,0.9765625,-0.6713867,0.0,0.0,0.0,163.70728,72.26807,-147.31018
1768997916414,-0.95996094,0.09033203,-0.2841797,-2.319336,0.79345703,-0.79345703,0.0,0.0,0.0,163.70728,72.26807,-147.31018
1768997916426,-0.95996094,0.09033203,-0.2841797,-2.319336,0.79345703,-0.79345703,0.0,0.0,0.0,163.8501,72.17468,-146.99158
1768997916514,-0.9633789,0.088378906,-0.2915039,-3.1738281,-0.79345703,0.0,0.0,0.0,0.0,163.8501,72.17468,-146.99158
1768997916525,-0.9633789,0.088378906,-0.2915039,-3.1738281,-0.79345703,0.0,0.0,0.0,0.0,163.97095,72.13074,-146.74438
1768997916613,-0.94873047,0.08984375,-0.28808594,-0.12207031,-0.8544922,-0.48828125,0.0,0.0,0.0,163.97095,72.13074,-146.74438
1768997916625,-0.94873047,0.08984375,-0.28808594,-0.12207031,-0.8544922,-0.48828125,0.0,0.0,0.0,164.08081,72.180176,-146.61804
1768997916713,-0.9511719,0.07910156,-0.2783203,2.9907227,-1.8920898,-0.061035156,0.0,0.0,0.0,164.08081,72.180176,-146.61804
1768997916725,-0.9511719,0.07910156,-0.2783203,2.9907227,-1.8920898,-0.061035156,0.0,0.0,0.0,164.04236,72.37793,-146.84326
1768997916813,-0.9580078,0.080566406,-0.28076172,3.3569336,-0.061035156,-0.18310547,0.0,0.0,0.0,164.04236,72.37793,-146.84326
1768997916824,-0.9580078,0.080566406,-0.28076172,3.3569336,-0.061035156,-0.18310547,0.0,0.0,0.0,164.23462,72.47131,-146.95312
1768997916913,-0.9614258,0.088378906,-0.27978516,0.36621094,1.0986328,0.18310547,0.0,0.0,0.0,164.23462,72.47131,-146.95312
1768997916924,-0.9614258,0.088378906,-0.27978516,0.36621094,1.0986328,0.18310547,0.0,0.0,0.0,164.21814,72.454834,-147.03552
1768997917012,-0.95410156,0.0859375,-0.28515625,-2.8076172,0.12207031,-0.48828125,0.0,0.0,0.0,164.21814,72.454834,-147.03552
1768997917024,-0.95410156,0.0859375,-0.28515625,-2.8076172,0.12207031,-0.48828125,0.0,0.0,0.0,164.27856,72.438354,-146.8982
1768997917112,-0.96191406,0.071777344,-0.28222656,2.2583008,0.61035156,-0.24414062,0.0,0.0,0.0,164.27856,72.438354,-146.8982
1768997917124,-0.96191406,0.071777344,-0.28222656,2.2583008,0.61035156,-0.24414062,0.0,0.0,0.0,164.59717,72.41638,-146.651
1768997917212,-0.95654297,0.083984375,-0.2919922,0.91552734,0.24414062,-0.30517578,0.0,0.0,0.0,164.59717,72.41638,-146.651
1768997917223,-0.95654297,0.083984375,-0.2919922,0.91552734,0.24414062,-0.30517578,0.0,0.0,0.0,164.60266,72.41089,-146.62903
1768997917311,-0.95703125,0.07910156,-0.28076172,0.7324219,0.0,-0.36621094,0.0,0.0,0.0,164.60266,72.41089,-146.62903
1768997917323,-0.95703125,0.07910156,-0.28076172,0.7324219,0.0,-0.36621094,0.0,0.0,0.0,164.80042,72.405396,-146.4917
1768997917411,-0.95654297,0.08105469,-0.2861328,2.8076172,0.30517578,-0.36621094,0.0,0.0,0.0,164.80042,72.405396,-146.4917
1768997917423,-0.95654297,0.08105469,-0.2861328,2.8076172,0.30517578,-0.36621094,0.0,0.0,0.0,164.9707,72.41089,-146.44226
1768997917511,-0.95654297,0.075683594,-0.2939453,-0.12207031,0.61035156,-0.4272461,0.0,0.0,0.0,164.9707,72.41089,-146.44226
1768997917522,-0.95654297,0.075683594,-0.2939453,-0.12207031,0.61035156,-0.4272461,0.0,0.0,0.0,165.15747,72.37244,-146.22253
1768997917611,-0.9580078,0.079589844,-0.28955078,-0.18310547,-0.79345703,0.24414062,0.0,0.0,0.0,165.15747,72.37244,-146.22253
1768997917622,-0.9580078,0.079589844,-0.28955078,-0.18310547,-0.79345703,0.24414062,0.0,0.0,0.0,165.17944,72.37793,-146.1676
1768997917710,-0.95996094,0.08251953,-0.2836914,-0.24414062,-2.1972656,0.9765625,0.0,0.0,0.0,165.17944,72.37793,-146.1676
1768997917722,-0.95996094,0.08251953,-0.2836914,-0.24414062,-2.1972656,0.9765625,0.0,0.0,0.0,164.69604,72.53723,-146.59058
1768997917810,-0.96191406,0.079589844,-0.29003906,1.5258789,-0.6713867,1.159668,0.0,0.0,0.0,164.69604,72.53723,-146.59058
1768997917821,-0.96191406,0.079589844,-0.29003906,1.5258789,-0.6713867,1.159668,0.0,0.0,0.0,164.37744,72.55371,-146.8927
1768997917910,-0.96240234,0.08886719,-0.2841797,-1.4648438,-0.91552734,1.2817383,0.0,0.0,0.0,164.37744,72.55371,-146.8927
1768997917921,-0.96240234,0.08886719,-0.2841797,-1.4648438,-0.91552734,1.2817383,0.0,0.0,0.0,163.55347,72.6416,-147.57935
1768997918009,-0.9550781,0.08154297,-0.2861328,-2.5634766,-0.91552734,0.79345703,0.0,0.0,0.0,163.55347,72.6416,-147.57935
1768997918021,-0.9550781,0.08154297,-0.2861328,-2.5634766,-0.91552734,0.79345703,0.0,0.0,0.0,163.21289,72.66907,-147.83752
1768997918109,-0.96435547,0.083984375,-0.29101562,-3.2958984,-2.0141602,0.30517578,0.0,0.0,0.0,163.21289,72.66907,-147.83752
1768997918121,-0.96435547,0.083984375,-0.29101562,-3.2958984,-2.0141602,0.30517578,0.0,0.0,0.0,162.84485,72.8064,-148.12317
1768997918209,-0.95458984,0.091308594,-0.2680664,4.8217773,3.1738281,-2.0141602,0.0,0.0,0.0,162.84485,72.8064,-148.12317
1768997918220,-0.95458984,0.091308594,-0.2680664,4.8217773,3.1738281,-2.0141602,0.0,0.0,0.0,163.03162,72.75696,-147.92542
1768997918309,-0.9633789,0.08935547,-0.27734375,0.9765625,0.4272461,-0.6713867,0.0,0.0,0.0,163.03162,72.75696,-147.92542
1768997918320,-0.9633789,0.08935547,-0.27734375,0.9765625,0.4272461,-0.6713867,0.0,0.0,0.0,163.25684,72.724,-147.73865
1768997918408,-0.9658203,0.08642578,-0.2763672,1.5869141,-1.4648438,-0.61035156,0.0,0.0,0.0,163.25684,72.724,-147.73865
1768997918420,-0.9658203,0.08642578,-0.2763672,1.5869141,-1.4648438,-0.61035156,0.0,0.0,0.0,163.58093,72.77893,-147.59583
1768997918508,-0.95410156,0.088378906,-0.2709961,1.6479492,-0.12207031,-0.9765625,0.0,0.0,0.0,163.58093,72.77893,-147.59583
1768997918520,-0.95410156,0.088378906,-0.2709961,1.6479492,-0.12207031,-0.9765625,0.0,0.0,0.0,163.8446,72.87781,-147.46399
1768997918608,-0.9477539,0.08154297,-0.25927734,0.061035156,-1.6479492,0.0,0.0,0.0,0.0,163.8446,72.87781,-147.46399
1768997918619,-0.9477539,0.08154297,-0.25927734,0.061035156,-1.6479492,0.0,0.0,0.0,0.0,163.95447,73.00964,-147.44751
1768997918707,-0.95947266,0.087890625,-0.2529297,0.48828125,-0.4272461,0.12207031,0.0,0.0,0.0,163.95447,73.00964,-147.44751
1768997918719,-0.95947266,0.087890625,-0.2529297,0.48828125,-0.4272461,0.12207031,0.0,0.0,0.0,163.46008,73.26782,-147.93091
1768997918807,-0.9707031,0.08544922,-0.26464844,0.18310547,-1.159668,0.5493164,0.0,0.0,0.0,163.46008,73.26782,-147.93091
1768997918819,-0.9707031,0.08544922,-0.26464844,0.18310547,-1.159668,0.5493164,0.0,0.0,0.0,163.30627,73.33923,-148.16162
1768997918907,-0.95654297,0.08691406,-0.26513672,1.2207031,0.18310547,0.36621094,0.0,0.0,0.0,163.30627,73.33923,-148.16162
1768997918918,-0.95654297,0.08691406,-0.26513672,1.2207031,0.18310547,0.36621094,0.0,0.0,0.0,163.08655,73.3667,-148.30444
1768997919007,-0.9584961,0.08642578,-0.26513672,0.91552734,0.48828125,-0.18310547,0.0,0.0,0.0,163.08655,73.3667,-148.30444
1768997919018,-0.9584961,0.08642578,-0.26513672,0.91552734,0.48828125,-0.18310547,0.0,0.0,0.0,162.93274,73.35571,-148.35388
1768997919106,-0.9667969,0.08984375,-0.26367188,0.9765625,0.61035156,0.0,0.0,0.0,0.0,162.93274,73.35571,-148.35388
1768997919118,-0.9667969,0.08984375,-0.26367188,0.9765625,0.61035156,0.0,0.0,0.0,0.0,162.86133,73.33923,-148.34839
1768997919206,-0.9682617,0.087890625,-0.2685547,-0.18310547,-0.9765625,0.30517578,0.0,0.0,0.0,162.86133,73.33923,-148.34839
1768997919218,-0.9682617,0.087890625,-0.2685547,-0.18310547,-0.9765625,0.30517578,0.0,0.0,0.0,162.85034,73.33923,-148.40881
1768997919306,-0.98046875,0.08544922,-0.28808594,0.79345703,-3.4179688,0.5493164,0.0,0.0,0.0,162.85034,73.33923,-148.40881
1768997919317,-0.98046875,0.08544922,-0.28808594,0.79345703,-3.4179688,0.5493164,0.0,0.0,0.0,162.94922,73.35022,-148.40332
1768997919405,-0.95751953,0.08105469,-0.2734375,1.4038086,0.12207031,-0.12207031,0.0,0.0,0.0,162.94922,73.35022,-148.40332
1768997919417,-0.95751953,0.08105469,-0.2734375,1.4038086,0.12207031,-0.12207031,0.0,0.0,0.0,163.09753,73.33923,-148.33191
1768997919505,-0.9682617,0.083496094,-0.27197266,-0.91552734,-0.9765625,0.36621094,0.0,0.0,0.0,163.09753,73.33923,-148.33191
1768997919518,-0.9682617,0.083496094,-0.27197266,-0.91552734,-0.9765625,0.36621094,0.0,0.0,0.0,162.85034,73.361206,-148.45825
1768997919605,-0.9868164,0.078125,-0.2939453,-5.065918,-3.0517578,1.159668,0.0,0.0,0.0,162.85034,73.361206,-148.45825
1768997919616,-0.9868164,0.078125,-0.2939453,-5.065918,-3.0517578,1.159668,0.0,0.0,0.0,162.78442,73.3667,-148.51868
1768997919705,-0.9638672,0.08544922,-0.2607422,-3.2958984,-0.30517578,0.79345703,0.0,0.0,0.0,162.78442,73.3667,-148.51868
1768997919716,-0.9638672,0.08544922,-0.2607422,-3.2958984,-0.30517578,0.79345703,0.0,0.0,0.0,162.68555,73.289795,-148.53516
1768997919804,-0.9667969,0.09082031,-0.27392578,-1.2817383,-1.3427734,0.79345703,0.0,0.0,0.0,162.68555,73.289795,-148.53516
1768997919816,-0.9667969,0.09082031,-0.27392578,-1.2817383,-1.3427734,0.79345703,0.0,0.0,0.0,162.30103,73.27881,-148.79333
1768997919904,-0.9633789,0.08886719,-0.26367188,-0.79345703,0.91552734,0.5493164,0.0,0.0,0.0,162.30103,73.27881,-148.79333
1768997919915,-0.9633789,0.08886719,-0.26367188,-0.79345703,0.91552734,0.5493164,0.0,0.0,0.0,162.09229,73.201904,-148.91418
1768997920004,-0.9663086,0.09375,-0.2758789,-0.30517578,0.061035156,0.61035156,0.0,0.0,0.0,162.09229,73.201904,-148.91418
1768997920015,-0.9663086,0.09375,-0.2758789,-0.30517578,0.061035156,0.61035156,0.0,0.0,0.0,161.94397,73.11951,-149.04602
1768997920104,-0.95703125,0.092285156,-0.27001953,-1.6479492,-0.061035156,0.61035156,0.0,0.0,0.0,161.94397,73.11951,-149.04602
1768997920115,-0.95703125,0.092285156,-0.27001953,-1.6479492,-0.061035156,0.61035156,0.0,0.0,0.0,161.93848,73.07007,-149.18335
1768997920203,-0.97216797,0.09423828,-0.27490234,-0.48828125,-0.61035156,0.79345703,0.0,0.0,0.0,161.93848,73.07007,-149.18335
1768997920215,-0.97216797,0.09423828,-0.27490234,-0.48828125,-0.61035156,0.79345703,0.0,0.0,0.0,161.7627,73.0426,-149.34265
1768997920303,-0.95947266,0.09765625,-0.26367188,-0.48828125,0.0,0.7324219,0.0,0.0,0.0,161.7627,73.0426,-149.34265
1768997920314,-0.95947266,0.09765625,-0.26367188,-0.48828125,0.0,0.7324219,0.0,0.0,0.0,161.56494,72.99866,-149.51843
1768997920403,-0.9741211,0.099609375,-0.2734375,-1.4038086,0.4272461,0.0,0.0,0.0,0.0,161.56494,72.99866,-149.51843
1768997920414,-0.9741211,0.099609375,-0.2734375,-1.4038086,0.4272461,0.0,0.0,0.0,0.0,161.26831,72.98218,-149.69421
1768997920502,-0.96972656,0.095703125,-0.2788086,-5.3710938,-1.4038086,1.8920898,0.0,0.0,0.0,161.26831,72.98218,-149.69421
1768997920514,-0.96972656,0.095703125,-0.2788086,-5.3710938,-1.4038086,1.8920898,0.0,0.0,0.0,161.08154,72.86682,-149.79309
1768997920602,-0.9560547,0.10205078,-0.27246094,-2.8076172,-0.24414062,1.0375977,0.0,0.0,0.0,161.08154,72.86682,-149.79309
1768997920614,-0.9560547,0.10205078,-0.27246094,-2.8076172,-0.24414062,1.0375977,0.0,0.0,0.0,160.82886,72.81189,-149.95789
1768997920702,-0.94970703,0.09667969,-0.26660156,-1.5258789,0.6713867,0.6713867,0.0,0.0,0.0,160.82886,72.81189,-149.95789
1768997920713,-0.94970703,0.09667969,-0.26660156,-1.5258789,0.6713867,0.6713867,0.0,0.0,0.0,160.40588,72.78992,-150.28748
1768997920802,-0.96533203,0.10839844,-0.27783203,1.8920898,1.2207031,0.061035156,0.0,0.0,0.0,160.40588,72.78992,-150.28748
1768997920813,-0.96533203,0.10839844,-0.27783203,1.8920898,1.2207031,0.061035156,0.0,0.0,0.0,160.26855,72.70752,-150.41382
1768997920901,-0.9638672,0.10205078,-0.2890625,-0.91552734,0.48828125,0.5493164,0.0,0.0,0.0,160.26855,72.70752,-150.41382
1768997920913,-0.9638672,0.10205078,-0.2890625,-0.91552734,0.48828125,0.5493164,0.0,0.0,0.0,160.2356,72.60864,-150.49622
1768997921001,-0.9555664,0.095703125,-0.2841797,1.4648438,-0.7324219,0.6713867,0.0,0.0,0.0,160.2356,72.60864,-150.49622
1768997921013,-0.9555664,0.095703125,-0.2841797,1.4648438,-0.7324219,0.6713867,0.0,0.0,0.0,160.36743,72.53723,-150.60059
1768997921101,-0.9584961,0.103515625,-0.2861328,0.36621094,-1.8310547,0.30517578,0.0,0.0,0.0,160.36743,72.53723,-150.60059
1768997921112,-0.9584961,0.103515625,-0.2861328,0.36621094,-1.8310547,0.30517578,0.0,0.0,0.0,160.27954,72.58667,-150.8313
1768997921200,-0.9555664,0.099609375,-0.2705078,2.0141602,-0.30517578,-0.4272461,0.0,0.0,0.0,160.27954,72.58667,-150.8313
1768997921212,-0.9555664,0.099609375,-0.2705078,2.0141602,-0.30517578,-0.4272461,0.0,0.0,0.0,160.46631,72.59766,-150.85327
1768997921300,-0.96484375,0.099121094,-0.27246094,4.211426,-0.061035156,-1.159668,0.0,0.0,0.0,160.46631,72.59766,-150.85327
1768997921312,-0.96484375,0.099121094,-0.27246094,4.211426,-0.061035156,-1.159668,0.0,0.0,0.0,160.7904,72.6416,-150.77637
1768997921400,-0.9580078,0.103027344,-0.2758789,0.9765625,-0.24414062,-1.159668,0.0,0.0,0.0,160.7904,72.6416,-150.77637
1768997921411,-0.9580078,0.103027344,-0.2758789,0.9765625,-0.24414062,-1.159668,0.0,0.0,0.0,161.1145,72.68005,-150.54016
1768997921499,-0.9614258,0.09472656,-0.27929688,1.2207031,-0.91552734,-0.7324219,0.0,0.0,0.0,161.1145,72.68005,-150.54016
1768997921511,-0.9614258,0.09472656,-0.27929688,1.2207031,-0.91552734,-0.7324219,0.0,0.0,0.0,161.521,72.69653,-150.21606
1768997921599,-0.9604492,0.09765625,-0.27441406,-0.61035156,-0.8544922,-0.91552734,0.0,0.0,0.0,161.521,72.69653,-150.21606
1768997921612,-0.9604492,0.09765625,-0.27441406,-0.61035156,-0.8544922,-0.91552734,0.0,0.0,0.0,161.50452,72.8064,-150.16113
1768997921699,-0.9663086,0.095703125,-0.27783203,0.0,-0.18310547,-0.79345703,0.0,0.0,0.0,161.50452,72.8064,-150.16113
1768997921711,-0.9663086,0.095703125,-0.27783203,0.0,-0.18310547,-0.79345703,0.0,0.0,0.0,161.71326,72.855835,-149.95789
1768997921799,-0.9584961,0.09423828,-0.2705078,-2.2583008,-0.061035156,-0.48828125,0.0,0.0,0.0,161.71326,72.855835,-149.95789
1768997921811,-0.9584961,0.09423828,-0.2705078,-2.2583008,-0.061035156,-0.48828125,0.0,0.0,0.0,161.66931,72.872314,-149.88098
1768997921898,-0.96777344,0.104003906,-0.27197266,-1.2207031,-0.36621094,-0.61035156,0.0,0.0,0.0,161.66931,72.872314,-149.88098
1768997921910,-0.96777344,0.104003906,-0.27197266,-1.2207031,-0.36621094,-0.61035156,0.0,0.0,0.0,161.71326,72.90527,-149.76562
1768997921998,-0.9589844,0.09277344,-0.2709961,-0.18310547,-0.061035156,-0.061035156,0.0,0.0,0.0,161.71326,72.90527,-149.76562
1768997922010,-0.9589844,0.09277344,-0.2709961,-0.18310547,-0.061035156,-0.061035156,0.0,0.0,0.0,161.78467,72.90527,-149.74365
1768997922098,-0.9638672,0.09667969,-0.28076172,1.0375977,0.91552734,-0.4272461,0.0,0.0,0.0,161.78467,72.90527,-149.74365
1768997922109,-0.9638672,0.09667969,-0.28076172,1.0375977,0.91552734,-0.4272461,0.0,0.0,0.0,161.90552,72.87781,-149.67773
1768997922197,-0.9633789,0.09716797,-0.28320312,2.8076172,3.6010742,-0.7324219,0.0,0.0,0.0,161.90552,72.87781,-149.67773
1768997922209,-0.9633789,0.09716797,-0.28320312,2.8076172,3.6010742,-0.7324219,0.0,0.0,0.0,162.30652,72.72949,-149.41406
1768997922297,-0.9633789,0.08691406,-0.28173828,1.8920898,3.2348633,-0.5493164,0.0,0.0,0.0,162.30652,72.72949,-149.41406
1768997922309,-0.9633789,0.08691406,-0.28173828,1.8920898,3.2348633,-0.5493164,0.0,0.0,0.0,162.74597,72.542725,-149.08997
1768997922397,-0.95458984,0.08935547,-0.2861328,1.8310547,2.5024414,-0.48828125,0.0,0.0,0.0,162.74597,72.542725,-149.08997
1768997922408,-0.95458984,0.08935547,-0.2861328,1.8310547,2.5024414,-0.48828125,0.0,0.0,0.0,163.27881,72.323,-148.68347
1768997922497,-0.9584961,0.0859375,-0.28710938,-0.36621094,0.91552734,-0.4272461,0.0,0.0,0.0,163.27881,72.323,-148.68347
1768997922508,-0.9584961,0.0859375,-0.28710938,-0.36621094,0.91552734,-0.4272461,0.0,0.0,0.0,163.47107,72.229614,-148.45276
1768997922596,-0.9589844,0.087890625,-0.28759766,0.0,0.48828125,-0.4272461,0.0,0.0,0.0,163.47107,72.229614,-148.45276
1768997922608,-0.9589844,0.087890625,-0.28759766,0.0,0.48828125,-0.4272461,0.0,0.0,0.0,163.55896,72.18567,-148.27698
1768997922696,-0.95947266,0.0859375,-0.29003906,-0.18310547,0.9765625,-0.5493164,0.0,0.0,0.0,163.55896,72.18567,-148.27698
1768997922708,-0.95947266,0.0859375,-0.29003906,-0.18310547,0.9765625,-0.5493164,0.0,0.0,0.0,163.7677,72.13623,-147.99133
1768997922796,-0.9555664,0.08691406,-0.29052734,0.9765625,0.5493164,-0.79345703,0.0,0.0,0.0,163.7677,72.13623,-147.99133
1768997922807,-0.9555664,0.08691406,-0.29052734,0.9765625,0.5493164,-0.79345703,0.0,0.0,0.0,163.97644,72.0813,-147.73315
1768997922895,-0.94970703,0.083496094,-0.29882812,1.4038086,1.8920898,-0.48828125,0.0,0.0,0.0,163.97644,72.0813,-147.73315
1768997922907,-0.94970703,0.083496094,-0.29882812,1.4038086,1.8920898,-0.48828125,0.0,0.0,0.0,164.32251,71.971436,-147.43652
1768997922995,-0.953125,0.08300781,-0.30566406,-0.5493164,0.18310547,-0.061035156,0.0,0.0,0.0,164.32251,71.971436,-147.43652
1768997923007,-0.953125,0.08300781,-0.30566406,-0.5493164,0.18310547,-0.061035156,0.0,0.0,0.0,164.4159,71.900024,-147.26074
1768997923095,-0.95166016,0.087402344,-0.29296875,-1.4038086,-1.5258789,0.48828125,0.0,0.0,0.0,164.4159,71.900024,-147.26074
1768997923106,-0.95166016,0.087402344,-0.29296875,-1.4038086,-1.5258789,0.48828125,0.0,0.0,0.0,164.36646,71.94397,-147.31567
1768997923195,-0.9589844,0.087890625,-0.2939453,-1.4038086,-0.91552734,0.61035156,0.0,0.0,0.0,164.36646,71.94397,-147.31567
1768997923206,-0.9589844,0.087890625,-0.2939453,-1.4038086,-0.91552734,0.61035156,0.0,0.0,0.0,164.14673,72.03186,-147.5409
1768997923294,-0.9526367,0.088378906,-0.29248047,-0.30517578,-0.6713867,0.79345703,0.0,0.0,0.0,164.14673,72.03186,-147.5409
1768997923306,-0.9526367,0.088378906,-0.29248047,-0.30517578,-0.6713867,0.79345703,0.0,0.0,0.0,164.0039,72.03735,-147.71667
1768997923394,-0.9536133,0.08935547,-0.2939453,0.30517578,-0.24414062,0.36621094,0.0,0.0,0.0,164.0039,72.03735,-147.71667
1768997923405,-0.9536133,0.08935547,-0.2939453,0.30517578,-0.24414062,0.36621094,0.0,0.0,0.0,163.78967,72.07031,-147.94739
1768997923494,-0.9584961,0.09033203,-0.29248047,0.48828125,-1.5869141,0.18310547,0.0,0.0,0.0,163.78967,72.07031,-147.94739
1768997923506,-0.9584961,0.09033203,-0.29248047,0.48828125,-1.5869141,0.18310547,0.0,0.0,0.0,163.54797,72.1582,-148.1836
1768997923593,-0.9589844,0.088378906,-0.28173828,0.91552734,-1.3427734,0.12207031,0.0,0.0,0.0,163.54797,72.1582,-148.1836
1768997923605,-0.9589844,0.088378906,-0.28173828,0.91552734,-1.3427734,0.12207031,0.0,0.0,0.0,163.5315,72.25159,-148.29895
1768997923693,-0.96191406,0.087890625,-0.28857422,-0.91552734,-0.61035156,-0.12207031,0.0,0.0,0.0,163.5315,72.25159,-148.29895
1768997923705,-0.96191406,0.087890625,-0.28857422,-0.91552734,-0.61035156,-0.12207031,0.0,0.0,0.0,163.35571,72.34497,-148.40881
1768997923793,-0.9609375,0.08496094,-0.29296875,-0.79345703,-1.953125,-0.30517578,0.0,0.0,0.0,163.35571,72.34497,-148.40881
1768997923804,-0.9609375,0.08496094,-0.29296875,-0.79345703,-1.953125,-0.30517578,0.0,0.0,0.0,163.6084,72.37793,-148.21106
1768997923893,-0.95654297,0.08300781,-0.27246094,-1.7700195,-2.380371,0.061035156,0.0,0.0,0.0,163.6084,72.37793,-148.21106
1768997923904,-0.95654297,0.08300781,-0.27246094,-1.7700195,-2.380371,0.061035156,0.0,0.0,0.0,163.56995,72.55371,-148.20557
1768997923992,-0.95996094,0.084472656,-0.27392578,0.61035156,-1.4648438,-0.48828125,0.0,0.0,0.0,163.56995,72.55371,-148.20557
1768997924004,-0.95996094,0.084472656,-0.27392578,0.61035156,-1.4648438,-0.48828125,0.0,0.0,0.0,163.43262,72.76245,-148.30994
1768997924092,-0.9633789,0.083496094,-0.27001953,0.0,-1.4648438,-0.48828125,0.0,0.0,0.0,163.43262,72.76245,-148.30994
1768997924104,-0.9633789,0.083496094,-0.27001953,0.0,-1.4648438,-0.48828125,0.0,0.0,0.0,163.37769,72.94922,-148.34839
1768997924192,-0.96728516,0.08154297,-0.27490234,-1.2817383,-1.8310547,0.061035156,0.0,0.0,0.0,163.37769,72.94922,-148.34839
1768997924203,-0.96728516,0.08154297,-0.27490234,-1.2817383,-1.8310547,0.061035156,0.0,0.0,0.0,163.42163,73.081055,-148.30444
1768997924291,-0.9609375,0.07910156,-0.27294922,-0.79345703,-0.79345703,-0.12207031,0.0,0.0,0.0,163.42163,73.081055,-148.30444
1768997924303,-0.9609375,0.07910156,-0.27294922,-0.79345703,-0.79345703,-0.12207031,0.0,0.0,0.0,163.59192,73.14697,-148.14514
1768997924391,-0.96728516,0.084472656,-0.26660156,-0.18310547,0.48828125,-0.12207031,0.0,0.0,0.0,163.59192,73.14697,-148.14514
1768997924403,-0.96728516,0.084472656,-0.26660156,-0.18310547,0.48828125,-0.12207031,0.0,0.0,0.0,163.48755,73.19092,-148.07922
1768997924491,-0.96728516,0.08496094,-0.26708984,-1.5869141,0.061035156,0.0,0.0,0.0,0.0,163.48755,73.19092,-148.07922
1768997924502,-0.96728516,0.08496094,-0.26708984,-1.5869141,0.061035156,0.0,0.0,0.0,0.0,163.53699,73.16345,-147.96387
1768997924591,-0.95654297,0.08300781,-0.26757812,-0.061035156,0.6713867,-0.18310547,0.0,0.0,0.0,163.53699,73.16345,-147.96387
1768997924602,-0.95654297,0.08300781,-0.26757812,-0.061035156,0.6713867,-0.18310547,0.0,0.0,0.0,163.6084,73.15796,-147.82654
1768997924690,-0.9638672,0.08300781,-0.2680664,0.18310547,0.5493164,-0.12207031,0.0,0.0,0.0,163.6084,73.15796,-147.82654
1768997924702,-0.9638672,0.08300781,-0.2680664,0.18310547,0.5493164,-0.12207031,0.0,0.0,0.0,163.62488,73.13599,-147.7826
1768997924790,-0.9658203,0.07910156,-0.26953125,0.0,-0.12207031,0.24414062,0.0,0.0,0.0,163.62488,73.13599,-147.7826
1768997924802,-0.9658203,0.07910156,-0.26953125,0.0,-0.12207031,0.24414062,0.0,0.0,0.0,163.66882,73.10852,-147.71667
1768997924890,-0.9584961,0.091796875,-0.27929688,2.6855469,1.3427734,0.0,0.0,0.0,0.0,163.66882,73.10852,-147.71667
1768997924902,-0.9584961,0.091796875,-0.27929688,2.6855469,1.3427734,0.0,0.0,0.0,0.0,163.7622,73.03162,-147.63428
1768997924990,-0.96240234,0.08544922,-0.28173828,-0.24414062,0.5493164,1.0375977,0.0,0.0,0.0,163.7622,73.03162,-147.63428
1768997925001,-0.96240234,0.08544922,-0.28173828,-0.24414062,0.5493164,1.0375977,0.0,0.0,0.0,163.80615,72.91077,-147.80457
1768997925089,-0.9550781,0.068847656,-0.2734375,0.79345703,1.0375977,0.24414062,0.0,0.0,0.0,163.80615,72.91077,-147.80457
1768997925101,-0.9550781,0.068847656,-0.2734375,0.79345703,1.0375977,0.24414062,0.0,0.0,0.0,163.71826,72.822876,-147.88147
1768997925189,-0.95703125,0.08300781,-0.28125,-4.8217773,2.2583008,-0.30517578,0.0,0.0,0.0,163.71826,72.822876,-147.88147
1768997925200,-0.95703125,0.08300781,-0.28125,-4.8217773,2.2583008,-0.30517578,0.0,0.0,0.0,163.66882,72.69104,-147.5299
1768997925289,-0.9584961,0.080566406,-0.28955078,-3.6621094,1.7089844,0.061035156,0.0,0.0,0.0,163.66882,72.69104,-147.5299
1768997925300,-0.9584961,0.080566406,-0.28955078,-3.6621094,1.7089844,0.061035156,0.0,0.0,0.0,163.6029,72.46033,-147.09045
1768997925389,-0.9560547,0.09472656,-0.28515625,-0.30517578,1.2817383,0.061035156,0.0,0.0,0.0,163.6029,72.46033,-147.09045
1768997925400,-0.9560547,0.09472656,-0.28515625,-0.30517578,1.2817383,0.061035156,0.0,0.0,0.0,163.55347,72.333984,-146.85974
1768997925488,-0.9614258,0.09667969,-0.29638672,1.7089844,1.159668,0.0,0.0,0.0,0.0,163.55347,72.333984,-146.85974
1768997925499,-0.9614258,0.09667969,-0.29638672,1.7089844,1.159668,0.0,0.0,0.0,0.0,163.50952,72.25159,-146.9696
1768997925588,-0.96728516,0.100097656,-0.2944336,0.36621094,1.8920898,-0.12207031,0.0,0.0,0.0,163.50952,72.25159,-146.9696
1768997925599,-0.96728516,0.100097656,-0.2944336,0.36621094,1.8920898,-0.12207031,0.0,0.0,0.0,163.67981,72.09778,-146.90369
1768997925687,-0.95458984,0.084472656,-0.29248047,2.1972656,1.0986328,0.0,0.0,0.0,0.0,163.67981,72.09778,-146.90369
1768997925699,-0.95458984,0.084472656,-0.29248047,2.1972656,1.0986328,0.0,0.0,0.0,0.0,164.03137,71.954956,-146.79382
1768997925787,-0.9501953,0.088378906,-0.30078125,-0.061035156,1.4648438,0.0,0.0,0.0,0.0,164.03137,71.954956,-146.79382
1768997925799,-0.9501953,0.088378906,-0.30078125,-0.061035156,1.4648438,0.0,0.0,0.0,0.0,164.4159,71.80664,-146.61804
1768997925887,-0.94628906,0.087890625,-0.2890625,0.91552734,-0.4272461,-0.4272461,0.0,0.0,0.0,164.4159,71.80664,-146.61804
1768997925899,-0.94628906,0.087890625,-0.2890625,0.91552734,-0.4272461,-0.4272461,0.0,0.0,0.0,164.53125,71.81213,-146.55762
1768997925987,-0.95458984,0.083496094,-0.2993164,0.7324219,-1.0375977,-0.4272461,0.0,0.0,0.0,164.53125,71.81213,-146.55762
1768997925998,-0.95458984,0.083496094,-0.2993164,0.7324219,-1.0375977,-0.4272461,0.0,0.0,0.0,164.77844,71.90552,-146.44226
1768997926087,-0.953125,0.08251953,-0.29785156,-0.48828125,-1.3427734,-0.18310547,0.0,0.0,0.0,164.77844,71.90552,-146.44226
1768997926099,-0.953125,0.08251953,-0.29785156,-0.48828125,-1.3427734,-0.18310547,0.0,0.0,0.0,164.86633,71.987915,-146.34888
1768997926186,-0.95654297,0.083984375,-0.2939453,-0.36621094,-1.5869141,0.061035156,0.0,0.0,0.0,164.86633,71.987915,-146.34888
1768997926199,-0.95654297,0.083984375,-0.2939453,-0.36621094,-1.5869141,0.061035156,0.0,0.0,0.0,164.67407,72.13074,-146.47522
1768997926286,-0.95751953,0.08300781,-0.29101562,-1.0986328,-2.0751953,0.36621094,0.0,0.0,0.0,164.67407,72.13074,-146.47522
1768997926298,-0.95751953,0.08300781,-0.29101562,-1.0986328,-2.0751953,0.36621094,0.0,0.0,0.0,164.42139,72.2406,-146.63452
1768997926385,-0.9614258,0.083496094,-0.29296875,-0.061035156,-0.7324219,0.18310547,0.0,0.0,0.0,164.42139,72.2406,-146.63452
1768997926397,-0.9614258,0.083496094,-0.29296875,-0.061035156,-0.7324219,0.18310547,0.0,0.0,0.0,164.20715,72.32849,-146.69495
1768997926485,-0.95947266,0.09033203,-0.28808594,-0.30517578,-1.5258789,0.48828125,0.0,0.0,0.0,164.20715,72.32849,-146.69495
1768997926497,-0.95947266,0.09033203,-0.28808594,-0.30517578,-1.5258789,0.48828125,0.0,0.0,0.0,163.98193,72.39441,-146.87073
1768997926585,-0.9614258,0.084472656,-0.28271484,-0.4272461,-1.8310547,0.5493164,0.0,0.0,0.0,163.98193,72.39441,-146.87073
1768997926596,-0.9614258,0.084472656,-0.28271484,-0.4272461,-1.8310547,0.5493164,0.0,0.0,0.0,163.87207,72.50427,-147.08496
1768997926685,-0.96435547,0.083496094,-0.27490234,1.0375977,-1.3427734,0.48828125,0.0,0.0,0.0,163.87207,72.50427,-147.08496
1768997926696,-0.96435547,0.083496094,-0.27490234,1.0375977,-1.3427734,0.48828125,0.0,0.0,0.0,163.7732,72.60864,-147.28821
1768997926784,-0.96435547,0.084472656,-0.27734375,0.24414062,0.24414062,-0.36621094,0.0,0.0,0.0,163.7732,72.60864,-147.28821
1768997926796,-0.96435547,0.084472656,-0.27734375,0.24414062,0.24414062,-0.36621094,0.0,0.0,0.0,163.86658,72.62512,-147.20032
1768997926884,-0.96435547,0.092285156,-0.28710938,-0.4272461,-0.061035156,-0.48828125,0.0,0.0,0.0,163.86658,72.62512,-147.20032
1768997926896,-0.96435547,0.092285156,-0.28710938,-0.4272461,-0.061035156,-0.48828125,0.0,0.0,0.0,164.02588,72.630615,-146.92017
1768997926984,-0.95996094,0.080078125,-0.27539062,-0.9765625,-0.4272461,0.0,0.0,0.0,0.0,164.02588,72.630615,-146.92017
1768997926995,-0.95996094,0.080078125,-0.27539062,-0.9765625,-0.4272461,0.0,0.0,0.0,0.0,164.2511,72.6416,-146.76636
1768997927083,-0.95996094,0.0859375,-0.2734375,1.0375977,1.159668,-0.79345703,0.0,0.0,0.0,164.2511,72.6416,-146.76636
1768997927095,-0.95996094,0.0859375,-0.2734375,1.0375977,1.159668,-0.79345703,0.0,0.0,0.0,164.37195,72.63611,-146.5741
1768997927183,-0.95751953,0.09082031,-0.27734375,0.18310547,0.7324219,-0.36621094,0.0,0.0,0.0,164.37195,72.63611,-146.5741
1768997927195,-0.95751953,0.09082031,-0.27734375,0.18310547,0.7324219,-0.36621094,0.0,0.0,0.0,164.38293,72.60864,-146.4917
1768997927283,-0.9638672,0.08251953,-0.28271484,1.2817383,0.5493164,-0.61035156,0.0,0.0,0.0,164.38293,72.60864,-146.4917
1768997927294,-0.9638672,0.08251953,-0.28271484,1.2817383,0.5493164,-0.61035156,0.0,0.0,0.0,164.54773,72.614136,-146.37634
1768997927383,-0.96435547,0.08935547,-0.28857422,-1.7700195,-0.061035156,-0.5493164,0.0,0.0,0.0,164.54773,72.614136,-146.37634
1768997927394,-0.96435547,0.08935547,-0.28857422,-1.7700195,-0.061035156,-0.5493164,0.0,0.0,0.0,164.75647,72.58667,-146.10168
1768997927482,-0.95654297,0.07324219,-0.27929688,0.5493164,-0.5493164,-0.8544922,0.0,0.0,0.0,164.75647,72.58667,-146.10168
1768997927494,-0.95654297,0.07324219,-0.27929688,0.5493164,-0.5493164,-0.8544922,0.0,0.0,0.0,165.18494,72.647095,-145.79407
1768997927582,-0.95947266,0.0859375,-0.27978516,0.79345703,-0.12207031,-1.4648438,0.0,0.0,0.0,165.18494,72.647095,-145.79407
1768997927594,-0.95947266,0.0859375,-0.27978516,0.79345703,-0.12207031,-1.4648438,0.0,0.0,0.0,165.59143,72.70752,-145.42053
1768997927682,-0.9580078,0.07080078,-0.28320312,1.5258789,-0.79345703,-1.0986328,0.0,0.0,0.0,165.59143,72.70752,-145.42053
1768997927693,-0.9580078,0.07080078,-0.28320312,1.5258789,-0.79345703,-1.0986328,0.0,0.0,0.0,166.16272,72.74048,-144.90967
1768997927782,-0.9628906,0.07324219,-0.28076172,-0.61035156,-2.1362305,-0.061035156,0.0,0.0,0.0,166.16272,72.74048,-144.90967
1768997927793,-0.9628906,0.07324219,-0.28076172,-0.61035156,-2.1362305,-0.061035156,0.0,0.0,0.0,166.1737,72.93823,-144.92615
1768997927881,-0.9633789,0.0703125,-0.2758789,-0.61035156,0.061035156,0.0,0.0,0.0,0.0,166.1737,72.93823,-144.92615
1768997927893,-0.9633789,0.0703125,-0.2758789,-0.61035156,0.061035156,0.0,0.0,0.0,0.0,166.20117,72.976685,-144.87122
1768997927981,-0.9604492,0.07128906,-0.27685547,-0.91552734,0.48828125,0.6713867,0.0,0.0,0.0,166.20117,72.976685,-144.87122
1768997927993,-0.9604492,0.07128906,-0.27685547,-0.91552734,0.48828125,0.6713867,0.0,0.0,0.0,166.08032,72.94922,-144.87671
1768997928081,-0.95654297,0.07128906,-0.28173828,-0.12207031,0.7324219,0.5493164,0.0,0.0,0.0,166.08032,72.94922,-144.87671
1768997928092,-0.95654297,0.07128906,-0.28173828,-0.12207031,0.7324219,0.5493164,0.0,0.0,0.0,165.87708,72.888794,-144.99756
1768997928180,-0.9584961,0.07519531,-0.27978516,-0.061035156,-0.36621094,0.79345703,0.0,0.0,0.0,165.87708,72.888794,-144.99756
1768997928192,-0.9584961,0.07519531,-0.27978516,-0.061035156,-0.36621094,0.79345703,0.0,0.0,0.0,165.50354,72.927246,-145.32166
1768997928280,-0.95751953,0.07763672,-0.28125,-1.5869141,1.2207031,0.61035156,0.0,0.0,0.0,165.50354,72.927246,-145.32166
1768997928292,-0.95751953,0.07763672,-0.28125,-1.5869141,1.2207031,0.61035156,0.0,0.0,0.0,165.41016,72.839355,-145.41504
1768997928380,-0.96533203,0.07763672,-0.28222656,-0.9765625,0.36621094,0.061035156,0.0,0.0,0.0,165.41016,72.839355,-145.41504
1768997928392,-0.96533203,0.07763672,-0.28222656,-0.9765625,0.36621094,0.061035156,0.0,0.0,0.0,165.3717,72.75696,-145.43152
1768997928479,-0.96191406,0.07714844,-0.27294922,0.18310547,0.6713867,-0.4272461,0.0,0.0,0.0,165.3717,72.75696,-145.43152
1768997928492,-0.96191406,0.07714844,-0.27294922,0.18310547,0.6713867,-0.4272461,0.0,0.0,0.0,165.60242,72.65259,-145.22827
1768997928579,-0.94921875,0.06738281,-0.28564453,-0.36621094,0.8544922,0.30517578,0.0,0.0,0.0,165.60242,72.65259,-145.22827
1768997928591,-0.94921875,0.06738281,-0.28564453,-0.36621094,0.8544922,0.30517578,0.0,0.0,0.0,165.71228,72.59216,-145.14587
1768997928679,-0.97216797,0.06982422,-0.2788086,-1.2207031,-0.48828125,-1.2207031,0.0,0.0,0.0,165.71228,72.59216,-145.14587
1768997928690,-0.97216797,0.06982422,-0.2788086,-1.2207031,-0.48828125,-1.2207031,0.0,0.0,0.0,165.65735,72.67456,-145.07996
1768997928779,-0.97753906,0.052246094,-0.28320312,-8.422852,0.48828125,-2.746582,0.0,0.0,0.0,165.65735,72.67456,-145.07996
1768997928790,-0.97753906,0.052246094,-0.28320312,-8.422852,0.48828125,-2.746582,0.0,0.0,0.0,165.71777,72.74597,-144.55261
1768997928878,-0.9707031,0.032714844,-0.2705078,-18.554688,2.0141602,-4.8217773,0.0,0.0,0.0,165.71777,72.74597,-144.55261
1768997928890,-0.9707031,0.032714844,-0.2705078,-18.554688,2.0141602,-4.8217773,0.0,0.0,0.0,166.4154,72.718506,-142.75085
1768997928978,-0.9511719,0.041992188,-0.25927734,-25.32959,2.9907227,-5.2490234,0.0,0.0,0.0,166.4154,72.718506,-142.75085
1768997928989,-0.9511719,0.041992188,-0.25927734,-25.32959,2.9907227,-5.2490234,0.0,0.0,0.0,166.62415,72.62512,-140.45471
1768997929078,-0.95458984,0.068847656,-0.27783203,-28.930664,3.3569336,-5.2490234,0.0,0.0,0.0,166.62415,72.62512,-140.45471
1768997929089,-0.95458984,0.068847656,-0.27783203,-28.930664,3.3569336,-5.2490234,0.0,0.0,0.0,165.91003,72.57568,-138.49915
1768997929177,-0.9501953,0.0859375,-0.28466797,-26.855469,1.7089844,-4.8828125,0.0,0.0,0.0,165.91003,72.57568,-138.49915
1768997929189,-0.9501953,0.0859375,-0.28466797,-26.855469,1.7089844,-4.8828125,0.0,0.0,0.0,164.91028,72.55371,-137.05444
1768997929277,-0.95996094,0.103027344,-0.28564453,-23.498535,-0.30517578,-4.8217773,0.0,0.0,0.0,164.91028,72.55371,-137.05444
1768997929288,-0.95996094,0.103027344,-0.28564453,-23.498535,-0.30517578,-4.8217773,0.0,0.0,0.0,163.83911,72.68005,-136.18652
1768997929377,-0.9584961,0.10253906,-0.2626953,-20.446777,-0.5493164,-6.0424805,0.0,0.0,0.0,163.83911,72.68005,-136.18652
1768997929389,-0.9584961,0.10253906,-0.2626953,-20.446777,-0.5493164,-6.0424805,0.0,0.0,0.0,163.34473,72.86133,-135.30762
1768997929476,-0.96484375,0.096191406,-0.26220703,-20.080566,-0.48828125,-7.9345703,0.0,0.0,0.0,163.34473,72.86133,-135.30762
1768997929488,-0.96484375,0.096191406,-0.26220703,-20.080566,-0.48828125,-7.9345703,0.0,0.0,0.0,163.35571,73.13049,-134.13757
1768997929576,-0.96728516,0.084472656,-0.25439453,-18.798828,-1.8310547,-9.277344,0.0,0.0,0.0,163.35571,73.13049,-134.13757
1768997929588,-0.96728516,0.084472656,-0.25439453,-18.798828,-1.8310547,-9.277344,0.0,0.0,0.0,163.82263,73.515015,-132.56653
1768997929676,-0.9814453,0.08496094,-0.25878906,-24.108887,0.61035156,-11.59668,0.0,0.0,0.0,163.82263,73.515015,-132.56653
1768997929687,-0.9814453,0.08496094,-0.25878906,-24.108887,0.61035156,-11.59668,0.0,0.0,0.0,164.9762,73.86658,-130.08362
1768997929776,-0.9814453,0.09472656,-0.25830078,-34.606934,2.0751953,-10.7421875,0.0,0.0,0.0,164.9762,73.86658,-130.08362
1768997929787,-0.9814453,0.09472656,-0.25830078,-34.606934,2.0751953,-10.7421875,0.0,0.0,0.0,166.23962,73.97095,-126.99097
1768997929875,-0.9604492,0.08300781,-0.24267578,-35.88867,3.9672852,-11.71875,0.0,0.0,0.0,166.23962,73.97095,-126.99097
1768997929887,-0.9604492,0.08300781,-0.24267578,-35.88867,3.9672852,-11.71875,0.0,0.0,0.0,166.76697,73.927,-124.227905
1768997929975,-0.9707031,0.106933594,-0.25,-38.33008,5.7373047,-11.71875,0.0,0.0,0.0,166.76697,73.927,-124.227905
1768997929987,-0.9707031,0.106933594,-0.25,-38.33008,5.7373047,-11.71875,0.0,0.0,0.0,167.37671,73.6853,-121.14624
1768997930075,-0.9589844,0.10644531,-0.2607422,-33.081055,5.554199,-11.59668,0.0,0.0,0.0,167.37671,73.6853,-121.14624
1768997930086,-0.9589844,0.10644531,-0.2607422,-33.081055,5.554199,-11.59668,0.0,0.0,0.0,167.50854,73.46008,-118.7677
1768997930174,-0.9746094,0.10449219,-0.265625,-30.761719,4.333496,-10.7421875,0.0,0.0,0.0,167.50854,73.46008,-118.7677
1768997930186,-0.9746094,0.10449219,-0.265625,-30.761719,4.333496,-10.7421875,0.0,0.0,0.0,167.84912,73.34473,-116.795654
1768997930274,-0.96240234,0.0859375,-0.26611328,-26.489258,1.5869141,-9.033203,0.0,0.0,0.0,167.84912,73.34473,-116.795654
1768997930286,-0.96240234,0.0859375,-0.26611328,-26.489258,1.5869141,-9.033203,0.0,0.0,0.0,168.5907,73.13049,-115.00488
1768997930374,-0.9321289,0.021972656,-0.28125,-20.507812,-6.1035156,-12.329102,0.0,0.0,0.0,168.5907,73.13049,-115.00488
1768997930387,-0.9321289,0.021972656,-0.28125,-20.507812,-6.1035156,-12.329102,0.0,0.0,0.0,168.84888,73.65234,-113.9447
1768997930474,-0.9609375,-0.0024414062,-0.2841797,-24.658203,-10.375977,-11.657715,0.0,0.0,0.0,168.84888,73.65234,-113.9447
1768997930485,-0.9609375,-0.0024414062,-0.2841797,-24.658203,-10.375977,-11.657715,0.0,0.0,0.0,170.18372,74.70703,-112.0166
1768997930573,-0.9628906,-0.0043945312,-0.27783203,-28.9917,-9.94873,-9.277344,0.0,0.0,0.0,170.18372,74.70703,-112.0166
1768997930585,-0.9628906,-0.0043945312,-0.27783203,-28.9917,-9.94873,-9.277344,0.0,0.0,0.0,171.67236,75.73425,-109.67102
1768997930673,-0.97802734,0.015625,-0.26171875,-31.37207,-7.019043,-3.540039,0.0,0.0,0.0,171.67236,75.73425,-109.67102
1768997930685,-0.97802734,0.015625,-0.26171875,-31.37207,-7.019043,-3.540039,0.0,0.0,0.0,171.05713,76.60217,-108.98987
1768997930773,-0.95703125,0.0126953125,-0.24560547,-19.89746,2.380371,-1.8310547,0.0,0.0,0.0,171.05713,76.60217,-108.98987
1768997930784,-0.95703125,0.0126953125,-0.24560547,-19.89746,2.380371,-1.8310547,0.0,0.0,0.0,169.6289,76.6626,-109.714966
1768997930873,-0.9746094,-0.0063476562,-0.2475586,-14.770508,13.549805,-2.4414062,0.0,0.0,0.0,169.6289,76.6626,-109.714966
1768997930884,-0.9746094,-0.0063476562,-0.2475586,-14.770508,13.549805,-2.4414062,0.0,0.0,0.0,169.80469,75.82764,-109.58862
1768997930972,-0.97802734,-0.0029296875,-0.25634766,-21.972656,14.099121,-1.159668,0.0,0.0,0.0,169.80469,75.82764,-109.58862
1768997930984,-0.97802734,-0.0029296875,-0.25634766,-21.972656,14.099121,-1.159668,0.0,0.0,0.0,169.80469,74.59717,-109.42932
1768997931072,-0.94189453,-0.018066406,-0.2578125,-22.888184,14.465332,-6.225586,0.0,0.0,0.0,169.80469,74.59717,-109.42932
1768997931083,-0.94189453,-0.018066406,-0.2578125,-22.888184,14.465332,-6.225586,0.0,0.0,0.0,171.01868,73.26233,-107.75391
1768997931173,-0.94384766,-0.0043945312,-0.30419922,-19.470215,11.230469,-9.094238,0.0,0.0,0.0,171.01868,73.26233,-107.75391
1768997931183,-0.94384766,-0.0043945312,-0.30419922,-19.470215,11.230469,-9.094238,0.0,0.0,0.0,172.16125,72.284546,-105.72693
1768997931271,-0.97265625,0.038085938,-0.32470703,-21.057129,10.009766,-5.6152344,0.0,0.0,0.0,172.16125,72.284546,-105.72693
1768997931283,-0.97265625,0.038085938,-0.32470703,-21.057129,10.009766,-5.6152344,0.0,0.0,0.0,172.97424,71.50452,-104.28772
1768997931371,-0.9379883,0.009765625,-0.31347656,-16.784668,9.887695,-6.7749023,0.0,0.0,0.0,172.97424,71.50452,-104.28772
1768997931382,-0.9379883,0.009765625,-0.31347656,-16.784668,9.887695,-6.7749023,0.0,0.0,0.0,173.54553,70.50476,-103.51318
1768997931471,-0.9433594,0.022949219,-0.33984375,-21.118164,6.225586,-7.019043,0.0,0.0,0.0,173.54553,70.50476,-103.51318
1768997931482,-0.9433594,0.022949219,-0.33984375,-21.118164,6.225586,-7.019043,0.0,0.0,0.0,173.61694,69.89502,-102.941895
1768997931571,-0.9379883,0.055664062,-0.35107422,-20.935059,1.8310547,-5.859375,0.0,0.0,0.0,173.61694,69.89502,-102.941895
1768997931583,-0.9379883,0.055664062,-0.35107422,-20.935059,1.8310547,-5.859375,0.0,0.0,0.0,173.67737,69.53247,-102.33215
1768997931670,-0.9482422,0.068359375,-0.35205078,-19.042969,0.8544922,-4.8217773,0.0,0.0,0.0,173.67737,69.53247,-102.33215
1768997931682,-0.9482422,0.068359375,-0.35205078,-19.042969,0.8544922,-4.8217773,0.0,0.0,0.0,173.07312,69.45557,-102.55737
1768997931770,-0.94189453,0.06201172,-0.328125,-17.700195,-4.760742,-4.4555664,0.0,0.0,0.0,173.07312,69.45557,-102.55737
1768997931781,-0.94189453,0.06201172,-0.328125,-17.700195,-4.760742,-4.4555664,0.0,0.0,0.0,172.34253,69.642334,-103.1781
1768997931870,-0.9345703,0.061523438,-0.29638672,-19.226074,-9.338379,-5.432129,0.0,0.0,0.0,172.34253,69.642334,-103.1781
1768997931881,-0.9345703,0.061523438,-0.29638672,-19.226074,-9.338379,-5.432129,0.0,0.0,0.0,171.44165,70.43884,-103.96362
1768997931969,-0.9892578,0.052246094,-0.29345703,-14.099121,-4.3945312,-7.3242188,0.0,0.0,0.0,171.44165,70.43884,-103.96362
1768997931981,-0.9892578,0.052246094,-0.29345703,-14.099121,-4.3945312,-7.3242188,0.0,0.0,0.0,171.19446,71.26282,-104.19983
1768997932069,-0.9633789,0.06298828,-0.29248047,-21.484375,-3.9672852,-4.9438477,0.0,0.0,0.0,171.19446,71.26282,-104.19983
1768997932081,-0.9633789,0.06298828,-0.29248047,-21.484375,-3.9672852,-4.9438477,0.0,0.0,0.0,171.87561,71.59241,-103.672485
1768997932169,-0.9375,0.109375,-0.2758789,-15.74707,-1.8310547,-3.3569336,0.0,0.0,0.0,171.87561,71.59241,-103.672485
1768997932180,-0.9375,0.109375,-0.2758789,-15.74707,-1.8310547,-3.3569336,0.0,0.0,0.0,170.9967,71.987915,-104.23828
1768997932269,-0.97998047,0.13085938,-0.2939453,-14.282227,2.5634766,-0.79345703,0.0,0.0,0.0,170.9967,71.987915,-104.23828
1768997932280,-0.97998047,0.13085938,-0.2939453,-14.282227,2.5634766,-0.79345703,0.0,0.0,0.0,168.78296,72.19116,-106.33118
1768997932368,-0.94921875,0.12646484,-0.28320312,-16.052246,0.6713867,0.0,0.0,0.0,0.0,168.78296,72.19116,-106.33118
1768997932380,-0.94921875,0.12646484,-0.28320312,-16.052246,0.6713867,0.0,0.0,0.0,0.0,166.22864,72.25708,-108.94043
1768997932468,-0.98876953,0.119140625,-0.26757812,-11.535645,-0.91552734,-4.760742,0.0,0.0,0.0,166.22864,72.25708,-108.94043
1768997932479,-0.98876953,0.119140625,-0.26757812,-11.535645,-0.91552734,-4.760742,0.0,0.0,0.0,165.46509,72.34497,-110.13794
1768997932568,-0.93896484,0.13427734,-0.28173828,-12.6953125,5.3100586,-3.7841797,0.0,0.0,0.0,165.46509,72.34497,-110.13794
1768997932579,-0.93896484,0.13427734,-0.28173828,-12.6953125,5.3100586,-3.7841797,0.0,0.0,0.0,166.08032,72.35596,-110.028076
1768997932667,-0.9472656,0.09277344,-0.30029297,-1.159668,1.5869141,-0.6713867,0.0,0.0,0.0,166.08032,72.35596,-110.028076
1768997932679,-0.9472656,0.09277344,-0.30029297,-1.159668,1.5869141,-0.6713867,0.0,0.0,0.0,165.10254,72.059326,-111.44531
1768997932767,-0.9633789,0.07470703,-0.28857422,1.5258789,-4.699707,3.540039,0.0,0.0,0.0,165.10254,72.059326,-111.44531
1768997932779,-0.9633789,0.07470703,-0.28857422,1.5258789,-4.699707,3.540039,0.0,0.0,0.0,164.37744,72.32849,-113.741455
1768997932867,-0.95654297,0.06542969,-0.29638672,15.50293,-0.7324219,2.9296875,0.0,0.0,0.0,164.37744,72.32849,-113.741455
1768997932879,-0.95654297,0.06542969,-0.29638672,15.50293,-0.7324219,2.9296875,0.0,0.0,0.0,163.8446,72.526245,-116.416626
1768997932966,-0.96435547,0.05419922,-0.31152344,11.413574,-0.6713867,5.004883,0.0,0.0,0.0,163.8446,72.526245,-116.416626
1768997932978,-0.96435547,0.05419922,-0.31152344,11.413574,-0.6713867,5.004883,0.0,0.0,0.0,163.7622,72.3999,-118.861084
1768997933066,-0.95166016,0.05078125,-0.3017578,8.544922,3.540039,5.9814453,0.0,0.0,0.0,163.7622,72.3999,-118.861084
1768997933078,-0.95166016,0.05078125,-0.3017578,8.544922,3.540039,5.9814453,0.0,0.0,0.0,163.927,72.02637,-120.97595
1768997933166,-0.95410156,0.06689453,-0.31152344,9.399414,4.760742,5.432129,0.0,0.0,0.0,163.927,72.02637,-120.97595
1768997933180,-0.95410156,0.06689453,-0.31152344,9.399414,4.760742,5.432129,0.0,0.0,0.0,163.67981,71.47156,-123.04138
1768997933265,-0.94970703,0.06591797,-0.3125,11.108398,4.5166016,5.493164,0.0,0.0,0.0,163.67981,71.47156,-123.04138
1768997933277,-0.94970703,0.06591797,-0.3125,11.108398,4.5166016,5.493164,0.0,0.0,0.0,163.81714,70.88379,-124.77722
1768997933365,-0.94140625,0.0703125,-0.31933594,11.413574,1.4648438,3.7841797,0.0,0.0,0.0,163.81714,70.88379,-124.77722
1768997933377,-0.94140625,0.0703125,-0.31933594,11.413574,1.4648438,3.7841797,0.0,0.0,0.0,164.0094,70.53223,-126.38672
1768997933465,-0.94921875,0.07373047,-0.3227539,12.268066,-0.36621094,2.1972656,0.0,0.0,0.0,164.0094,70.53223,-126.38672
1768997933476,-0.94921875,0.07373047,-0.3227539,12.268066,-0.36621094,2.1972656,0.0,0.0,0.0,164.47083,70.4718,-127.72705
1768997933565,-0.953125,0.06542969,-0.32861328,13.427734,-0.12207031,1.0986328,0.0,0.0,0.0,164.47083,70.4718,-127.72705
1768997933576,-0.953125,0.06542969,-0.32861328,13.427734,-0.12207031,1.0986328,0.0,0.0,0.0,165.4596,70.44983,-128.53455
1768997933664,-0.95410156,0.060546875,-0.33203125,7.446289,0.24414062,0.36621094,0.0,0.0,0.0,165.4596,70.44983,-128.53455
1768997933676,-0.95410156,0.060546875,-0.33203125,7.446289,0.24414062,0.36621094,0.0,0.0,0.0,166.31104,70.43884,-129.06738
1768997933764,-0.95166016,0.05810547,-0.33642578,5.6762695,1.7700195,1.0986328,0.0,0.0,0.0,166.31104,70.43884,-129.06738
1768997933776,-0.95166016,0.05810547,-0.33642578,5.6762695,1.7700195,1.0986328,0.0,0.0,0.0,167.26135,70.252075,-129.2926
1768997933864,-0.94140625,0.06201172,-0.32666016,4.4555664,0.91552734,1.4038086,0.0,0.0,0.0,167.26135,70.252075,-129.2926
1768997933875,-0.94140625,0.06201172,-0.32666016,4.4555664,0.91552734,1.4038086,0.0,0.0,0.0,167.56897,70.180664,-129.83093
1768997933963,-0.95214844,0.063964844,-0.33496094,4.5776367,2.5634766,0.5493164,0.0,0.0,0.0,167.56897,70.180664,-129.83093
1768997933975,-0.95214844,0.063964844,-0.33496094,4.5776367,2.5634766,0.5493164,0.0,0.0,0.0,167.7063,70.076294,-130.27588
1768997934063,-0.94970703,0.06689453,-0.33496094,1.0986328,1.2817383,0.24414062,0.0,0.0,0.0,167.7063,70.076294,-130.27588
1768997934075,-0.94970703,0.06689453,-0.33496094,1.0986328,1.2817383,0.24414062,0.0,0.0,0.0,167.90955,69.94995,-130.52856
1768997934163,-0.94921875,0.0703125,-0.33642578,1.2817383,0.7324219,0.24414062,0.0,0.0,0.0,167.90955,69.94995,-130.52856
1768997934174,-0.94921875,0.0703125,-0.33642578,1.2817383,0.7324219,0.24414062,0.0,0.0,0.0,168.08533,69.86206,-130.7428
1768997934263,-0.92871094,0.07421875,-0.32617188,0.061035156,-0.12207031,0.24414062,0.0,0.0,0.0,168.08533,69.86206,-130.7428
1768997934274,-0.92871094,0.07421875,-0.32617188,0.061035156,-0.12207031,0.24414062,0.0,0.0,0.0,168.4259,69.71924,-130.85815
1768997934362,-0.93652344,0.07470703,-0.3330078,4.0893555,-4.3945312,0.12207031,0.0,0.0,0.0,168.4259,69.71924,-130.85815
1768997934374,-0.93652344,0.07470703,-0.3330078,4.0893555,-4.3945312,0.12207031,0.0,0.0,0.0,168.15674,70.01587,-131.48987
1768997934462,-0.9458008,0.087890625,-0.31347656,0.5493164,-1.8310547,0.12207031,0.0,0.0,0.0,168.15674,70.01587,-131.48987
1768997934473,-0.9458008,0.087890625,-0.31347656,0.5493164,-1.8310547,0.12207031,0.0,0.0,0.0,167.55249,70.37842,-132.34131
1768997934562,-0.9555664,0.072753906,-0.32373047,-1.2207031,-1.4038086,1.0986328,0.0,0.0,0.0,167.55249,70.37842,-132.34131
1768997934573,-0.9555664,0.072753906,-0.32373047,-1.2207031,-1.4038086,1.0986328,0.0,0.0,0.0,167.3822,70.493774,-132.84668
1768997934661,-0.9506836,0.07470703,-0.30810547,-0.5493164,-1.4648438,0.61035156,0.0,0.0,0.0,167.3822,70.493774,-132.84668
1768997934673,-0.9506836,0.07470703,-0.30810547,-0.5493164,-1.4648438,0.61035156,0.0,0.0,0.0,167.17896,70.653076,-133.33008
1768997934761,-0.9555664,0.07128906,-0.30908203,0.36621094,-2.746582,0.5493164,0.0,0.0,0.0,167.17896,70.653076,-133.33008
1768997934773,-0.9555664,0.07128906,-0.30908203,0.36621094,-2.746582,0.5493164,0.0,0.0,0.0,166.9867,70.83435,-133.76953
1768997934861,-0.95410156,0.08251953,-0.29785156,1.0375977,0.30517578,-0.18310547,0.0,0.0,0.0,166.9867,70.83435,-133.76953
1768997934872,-0.95410156,0.08251953,-0.29785156,1.0375977,0.30517578,-0.18310547,0.0,0.0,0.0,166.79993,71.01013,-134.14307
1768997934961,-0.96777344,0.06640625,-0.31591797,-0.12207031,-1.0375977,-0.5493164,0.0,0.0,0.0,166.79993,71.01013,-134.14307
1768997934972,-0.96777344,0.06640625,-0.31591797,-0.12207031,-1.0375977,-0.5493164,0.0,0.0,0.0,166.77795,71.14197,-134.29688
1768997935060,-0.9506836,0.07861328,-0.2993164,-1.2207031,-1.0986328,-0.8544922,0.0,0.0,0.0,166.77795,71.14197,-134.29688
1768997935072,-0.9506836,0.07861328,-0.2993164,-1.2207031,-1.0986328,-0.8544922,0.0,0.0,0.0,166.8274,71.24634,-134.2749
1768997935160,-0.96191406,0.076660156,-0.2993164,-0.8544922,-1.7700195,-1.7089844,0.0,0.0,0.0,166.8274,71.24634,-134.2749
1768997935171,-0.96191406,0.076660156,-0.2993164,-0.8544922,-1.7700195,-1.7089844,0.0,0.0,0.0,166.94275,71.44409,-134.1925
1768997935260,-0.9453125,0.07080078,-0.30078125,1.0375977,-0.30517578,-2.6855469,0.0,0.0,0.0,166.94275,71.44409,-134.1925
1768997935271,-0.9453125,0.07080078,-0.30078125,1.0375977,-0.30517578,-2.6855469,0.0,0.0,0.0,167.59644,71.55945,-133.7091
1768997935359,-0.9560547,0.064453125,-0.30322266,1.7089844,0.61035156,-2.4414062,0.0,0.0,0.0,167.59644,71.55945,-133.7091
1768997935371,-0.9560547,0.064453125,-0.30322266,1.7089844,0.61035156,-2.4414062,0.0,0.0,0.0,168.29407,71.658325,-133.21472
1768997935459,-0.95410156,0.06738281,-0.30419922,-1.4038086,-0.8544922,-0.7324219,0.0,0.0,0.0,168.29407,71.658325,-133.21472
1768997935471,-0.95410156,0.06738281,-0.30419922,-1.4038086,-0.8544922,-0.7324219,0.0,0.0,0.0,168.87634,71.6803,-132.81921
1768997935559,-0.9501953,0.05859375,-0.31298828,0.18310547,-0.91552734,0.061035156,0.0,0.0,0.0,168.87634,71.6803,-132.81921
1768997935570,-0.9501953,0.05859375,-0.31298828,0.18310547,-0.91552734,0.061035156,0.0,0.0,0.0,169.18945,71.71326,-132.7533
1768997935659,-0.9482422,0.061523438,-0.30371094,1.8310547,-1.5258789,1.0375977,0.0,0.0,0.0,169.18945,71.71326,-132.7533
1768997935670,-0.9482422,0.061523438,-0.30371094,1.8310547,-1.5258789,1.0375977,0.0,0.0,0.0,169.01917,71.82312,-133.11584
1768997935758,-0.9589844,0.06347656,-0.31201172,-0.6713867,-2.1362305,1.8310547,0.0,0.0,0.0,169.01917,71.82312,-133.11584
1768997935770,-0.9589844,0.06347656,-0.31201172,-0.6713867,-2.1362305,1.8310547,0.0,0.0,0.0,168.55774,71.900024,-133.7915
1768997935858,-0.953125,0.0625,-0.2998047,-0.6713867,-2.1972656,1.5869141,0.0,0.0,0.0,168.55774,71.900024,-133.7915
1768997935869,-0.953125,0.0625,-0.2998047,-0.6713867,-2.1972656,1.5869141,0.0,0.0,0.0,168.2721,71.94397,-134.32434
1768997935958,-0.9589844,0.0703125,-0.2919922,-0.48828125,-0.5493164,1.0986328,0.0,0.0,0.0,168.2721,71.94397,-134.32434
1768997935969,-0.9589844,0.0703125,-0.2919922,-0.48828125,-0.5493164,1.0986328,0.0,0.0,0.0,167.97546,72.03735,-134.8352
1768997936057,-0.95458984,0.06689453,-0.28955078,-0.48828125,-1.0986328,0.9765625,0.0,0.0,0.0,167.97546,72.03735,-134.8352
1768997936069,-0.95458984,0.06689453,-0.28955078,-0.48828125,-1.0986328,0.9765625,0.0,0.0,0.0,167.90405,72.06482,-135.14832
1768997936157,-0.95654297,0.06640625,-0.29248047,1.8310547,0.9765625,0.12207031,0.0,0.0,0.0,167.90405,72.06482,-135.14832
1768997936169,-0.95654297,0.06640625,-0.29248047,1.8310547,0.9765625,0.12207031,0.0,0.0,0.0,167.72278,72.14172,-135.41748
1768997936257,-0.9555664,0.072753906,-0.28759766,-0.18310547,0.48828125,0.0,0.0,0.0,0.0,167.72278,72.14172,-135.41748
1768997936268,-0.9555664,0.072753906,-0.28759766,-0.18310547,0.48828125,0.0,0.0,0.0,0.0,167.76672,72.075806,-135.48889
1768997936356,-0.9536133,0.076171875,-0.28710938,1.4648438,1.7089844,-0.48828125,0.0,0.0,0.0,167.76672,72.075806,-135.48889
1768997936368,-0.9536133,0.076171875,-0.28710938,1.4648438,1.7089844,-0.48828125,0.0,0.0,0.0,167.57996,72.09778,-135.65918
1768997936456,-0.9560547,0.0703125,-0.29296875,1.2817383,1.5869141,0.12207031,0.0,0.0,0.0,167.57996,72.09778,-135.65918
1768997936468,-0.9560547,0.0703125,-0.29296875,1.2817383,1.5869141,0.12207031,0.0,0.0,0.0,167.6239,71.9989,-135.70862
1768997936556,-0.9526367,0.06591797,-0.29833984,2.6245117,-0.30517578,-0.18310547,0.0,0.0,0.0,167.6239,71.9989,-135.70862
1768997936567,-0.9526367,0.06591797,-0.29833984,2.6245117,-0.30517578,-0.18310547,0.0,0.0,0.0,167.64587,72.020874,-135.83496
1768997936656,-0.95410156,0.06689453,-0.2915039,1.4648438,-0.61035156,-0.48828125,0.0,0.0,0.0,167.64587,72.020874,-135.83496
1768997936667,-0.95410156,0.06689453,-0.2915039,1.4648438,-0.61035156,-0.48828125,0.0,0.0,0.0,167.77771,72.09778,-135.87341
1768997936755,-0.9614258,0.06640625,-0.29541016,-0.061035156,-0.24414062,0.18310547,0.0,0.0,0.0,167.77771,72.09778,-135.87341
1768997936767,-0.9614258,0.06640625,-0.29541016,-0.061035156,-0.24414062,0.18310547,0.0,0.0,0.0,167.92053,72.15271,-135.86243
1768997936855,-0.9589844,0.06591797,-0.2919922,0.9765625,0.12207031,0.0,0.0,0.0,0.0,167.92053,72.15271,-135.86243
1768997936867,-0.9589844,0.06591797,-0.2919922,0.9765625,0.12207031,0.0,0.0,0.0,0.0,167.99744,72.180176,-135.87341
1768997936955,-0.9477539,0.06982422,-0.28857422,-0.61035156,1.0375977,0.0,0.0,0.0,0.0,167.99744,72.180176,-135.87341
1768997936966,-0.9477539,0.06982422,-0.28857422,-0.61035156,1.0375977,0.0,0.0,0.0,0.0,168.07434,72.14172,-135.86243
1768997937055,-0.9555664,0.064453125,-0.30126953,1.2207031,1.2207031,0.0,0.0,0.0,0.0,168.07434,72.14172,-135.86243
1768997937066,-0.9555664,0.064453125,-0.30126953,1.2207031,1.2207031,0.0,0.0,0.0,0.0,167.99194,72.10327,-135.93384
1768997937154,-0.9584961,0.06933594,-0.30029297,0.48828125,0.6713867,0.18310547,0.0,0.0,0.0,167.99194,72.10327,-135.93384
1768997937166,-0.9584961,0.06933594,-0.30029297,0.48828125,0.6713867,0.18310547,0.0,0.0,0.0,167.84363,72.04834,-136.0492
1768997937254,-0.9536133,0.0703125,-0.30126953,1.2817383,1.5869141,-0.18310547,0.0,0.0,0.0,167.84363,72.04834,-136.0492
1768997937265,-0.9536133,0.0703125,-0.30126953,1.2817383,1.5869141,-0.18310547,0.0,0.0,0.0,167.90955,71.916504,-135.98328
1768997937354,-0.95214844,0.07080078,-0.29638672,0.36621094,0.36621094,0.0,0.0,0.0,0.0,167.90955,71.916504,-135.98328
1768997937365,-0.95214844,0.07080078,-0.29638672,0.36621094,0.36621094,0.0,0.0,0.0,0.0,167.89307,71.84509,-135.99976
1768997937453,-0.95703125,0.071777344,-0.29589844,-0.24414062,0.61035156,-0.24414062,0.0,0.0,0.0,167.89307,71.84509,-135.99976
1768997937465,-0.95703125,0.071777344,-0.29589844,-0.24414062,0.61035156,-0.24414062,0.0,0.0,0.0,167.96448,71.80115,-135.92834
1768997937553,-0.96240234,0.06933594,-0.30078125,1.0986328,0.48828125,-0.5493164,0.0,0.0,0.0,167.96448,71.80115,-135.92834
1768997937565,-0.96240234,0.06933594,-0.30078125,1.0986328,0.48828125,-0.5493164,0.0,0.0,0.0,168.12927,71.78467,-135.78552
1768997937653,-0.95410156,0.07080078,-0.29248047,-0.61035156,1.3427734,-0.91552734,0.0,0.0,0.0,168.12927,71.78467,-135.78552
1768997937664,-0.95410156,0.07080078,-0.29248047,-0.61035156,1.3427734,-0.91552734,0.0,0.0,0.0,168.57422,71.68579,-135.42297
1768997937753,-0.94921875,0.064941406,-0.30029297,1.2817383,1.0375977,-0.61035156,0.0,0.0,0.0,168.57422,71.68579,-135.42297
1768997937764,-0.94921875,0.064941406,-0.30029297,1.2817383,1.0375977,-0.61035156,0.0,0.0,0.0,168.92029,71.60339,-135.12634
1768997937852,-0.9458008,0.060546875,-0.2998047,2.380371,-1.5869141,-0.61035156,0.0,0.0,0.0,168.92029,71.60339,-135.12634
1768997937864,-0.9458008,0.060546875,-0.2998047,2.380371,-1.5869141,-0.61035156,0.0,0.0,0.0,168.97522,71.70776,-135.09338
1768997937952,-0.9658203,0.0625,-0.30908203,0.061035156,-4.0893555,0.48828125,0.0,0.0,0.0,168.97522,71.70776,-135.09338
1768997937963,-0.9658203,0.0625,-0.30908203,0.061035156,-4.0893555,0.48828125,0.0,0.0,0.0,168.68958,72.07031,-135.43945
1768997938051,-0.9614258,0.0625,-0.28076172,-0.9765625,-2.1972656,0.5493164,0.0,0.0,0.0,168.68958,72.07031,-135.43945
1768997938063,-0.9614258,0.0625,-0.28076172,-0.9765625,-2.1972656,0.5493164,0.0,0.0,0.0,168.44238,72.2406,-135.67017
1768997938151,-0.9633789,0.06640625,-0.29052734,-2.319336,-2.2583008,1.0986328,0.0,0.0,0.0,168.44238,72.2406,-135.67017
