DateTime,UnixTimestamp,AccX,AccY,AccZ,GyroX,GyroY,GyroZ,MagX,MagY,MagZ,Roll,Pitch,Yaw
2026-02-19 23:07:45.631,1771513665631,1771513665631,-0.9682617,-0.18261719,0.1743164,-0.30517578,-1.4038086,0.36621094,0.0,0.0,0.0,-47.340088,75.371704,49.257202
2026-02-19 23:07:45.726,1771513665726,1771513665726,-0.96875,-0.18261719,0.17333984,-0.18310547,-1.5258789,0.24414062,0.0,0.0,0.0,-46.818237,75.28931,49.850464
2026-02-19 23:07:45.825,1771513665825,1771513665825,-0.96777344,-0.18261719,0.17480469,-0.061035156,-1.2207031,0.12207031,0.0,0.0,0.0,-46.345825,75.20691,50.35034
2026-02-19 23:07:45.925,1771513665925,1771513665925,-0.9682617,-0.18115234,0.17578125,-0.24414062,-0.79345703,0.12207031,0.0,0.0,0.0,-46.06018,75.146484,50.64148
2026-02-19 23:07:46.024,1771513666024,1771513666024,-0.96728516,-0.18261719,0.17822266,0.12207031,-0.061035156,0.0,0.0,0.0,0.0,-45.90088,75.10803,50.80078
2026-02-19 23:07:46.124,1771513666124,1771513666124,-0.9682617,-0.1850586,0.16845703,-1.0375977,-1.7700195,0.48828125,0.0,0.0,0.0,-45.681152,75.0531,51.00952
2026-02-19 23:07:46.224,1771513666224,1771513666224,-0.9667969,-0.18408203,0.18359375,0.12207031,-0.5493164,0.18310547,0.0,0.0,0.0,-45.58777,75.04761,51.05896
2026-02-19 23:07:46.323,1771513666323,1771513666323,-0.9658203,-0.18066406,0.1821289,0.5493164,0.24414062,0.0,0.0,0.0,0.0,-45.373535,75.02014,51.289673
2026-02-19 23:07:46.423,1771513666423,1771513666423,-0.96875,-0.18310547,0.17480469,-0.4272461,-0.36621094,0.18310547,0.0,0.0,0.0,-45.26367,75.009155,51.37207
2026-02-19 23:07:46.523,1771513666523,1771513666523,-0.9663086,-0.18164062,0.18457031,-0.4272461,-0.24414062,0.18310547,0.0,0.0,0.0,-45.285645,75.01465,51.328125
2026-02-19 23:07:46.623,1771513666623,1771513666623,-0.9658203,-0.18066406,0.18261719,0.12207031,0.24414062,-0.061035156,0.0,0.0,0.0,-45.2417,75.009155,51.361084
2026-02-19 23:07:46.722,1771513666722,1771513666722,-0.9667969,-0.1821289,0.18115234,0.061035156,0.4272461,-0.12207031,0.0,0.0,0.0,-45.22522,75.009155,51.33911
2026-02-19 23:07:46.822,1771513666822,1771513666822,-0.96728516,-0.18310547,0.17822266,0.0,0.0,0.0,0.0,0.0,0.0,-45.27466,75.009155,51.245728
2026-02-19 23:07:46.922,1771513666922,1771513666922,-0.9628906,-0.18359375,0.17529297,-0.061035156,0.18310547,0.0,0.0,0.0,0.0,-45.340576,75.01465,51.13037
2026-02-19 23:07:47.022,1771513667022,1771513667022,-0.9716797,-0.1850586,0.16894531,-0.30517578,-0.6713867,0.36621094,0.0,0.0,0.0,-45.25818,74.99817,51.16333
2026-02-19 23:07:47.121,1771513667121,1771513667121,-0.9667969,-0.18408203,0.1821289,1.5869141,2.380371,-0.36621094,0.0,0.0,0.0,-45.845947,75.12451,50.388794
2026-02-19 23:07:47.221,1771513667221,1771513667221,-0.9667969,-0.18066406,0.16894531,0.91552734,2.8076172,-0.4272461,0.0,0.0,0.0,-46.241455,75.2124,49.905396
2026-02-19 23:07:47.321,1771513667321,1771513667321,-0.9707031,-0.18603516,0.16748047,0.4272461,1.5258789,-0.36621094,0.0,0.0,0.0,-46.988525,75.33325,48.966064
2026-02-19 23:07:47.421,1771513667421,1771513667421,-0.9663086,-0.18164062,0.17236328,1.4038086,2.8686523,-0.6713867,0.0,0.0,0.0,-47.76306,75.4541,47.999268
2026-02-19 23:07:47.520,1771513667520,1771513667520,-0.96972656,-0.18310547,0.16503906,1.3427734,2.5634766,-0.6713867,0.0,0.0,0.0,-48.36731,75.55298,47.213745
2026-02-19 23:07:47.620,1771513667620,1771513667620,-0.9692383,-0.18457031,0.16210938,0.7324219,1.8920898,-0.36621094,0.0,0.0,0.0,-49.01001,75.64636,46.35681
2026-02-19 23:07:47.720,1771513667720,1771513667720,-0.9707031,-0.18554688,0.15478516,0.18310547,1.5258789,-0.4272461,0.0,0.0,0.0,-49.42749,75.6958,45.81848
2026-02-19 23:07:47.819,1771513667819,1771513667819,-0.96875,-0.18408203,0.16210938,0.48828125,0.91552734,-0.24414062,0.0,0.0,0.0,-49.82849,75.75073,45.29663
2026-02-19 23:07:47.919,1771513667919,1771513667919,-0.96533203,-0.18359375,0.15234375,0.5493164,1.7089844,-0.4272461,0.0,0.0,0.0,-50.17456,75.79468,44.92859
2026-02-19 23:07:48.019,1771513668019,1771513668019,-0.97265625,-0.18652344,0.14941406,0.0,0.48828125,-0.18310547,0.0,0.0,0.0,-50.34485,75.81116,44.692383
2026-02-19 23:07:48.119,1771513668119,1771513668119,-0.9711914,-0.18798828,0.15527344,-0.18310547,0.6713867,-0.061035156,0.0,0.0,0.0,-50.597534,75.83862,44.362793
2026-02-19 23:07:48.218,1771513668218,1771513668218,-0.96972656,-0.18701172,0.1508789,0.6713867,0.7324219,-0.30517578,0.0,0.0,0.0,-50.80078,75.8551,44.09912
2026-02-19 23:07:48.318,1771513668318,1771513668318,-0.9707031,-0.1875,0.15283203,-0.18310547,0.0,0.0,0.0,0.0,0.0,-50.855713,75.860596,44.01123
2026-02-19 23:07:48.418,1771513668418,1771513668418,-0.97021484,-0.18701172,0.15332031,0.24414062,-0.7324219,0.0,0.0,0.0,0.0,-50.635986,75.82764,44.225464
2026-02-19 23:07:48.518,1771513668518,1771513668518,-0.9682617,-0.18554688,0.15478516,-0.7324219,-2.1362305,0.30517578,0.0,0.0,0.0,-50.11963,75.74524,44.79126
2026-02-19 23:07:48.618,1771513668618,1771513668618,-0.9711914,-0.18652344,0.15966797,-0.9765625,-1.5258789,0.48828125,0.0,0.0,0.0,-49.59778,75.66284,45.406494
2026-02-19 23:07:48.717,1771513668717,1771513668717,-0.97216797,-0.1875,0.16455078,-0.24414062,-1.159668,0.061035156,0.0,0.0,0.0,-49.196777,75.596924,45.856934
2026-02-19 23:07:48.817,1771513668817,1771513668817,-0.96777344,-0.18310547,0.16064453,-0.30517578,-0.36621094,0.24414062,0.0,0.0,0.0,-48.806763,75.5365,46.362305
2026-02-19 23:07:48.917,1771513668917,1771513668917,-0.9707031,-0.18554688,0.16455078,-0.7324219,-1.5869141,0.4272461,0.0,0.0,0.0,-48.460693,75.49805,46.7688
2026-02-19 23:07:49.017,1771513669017,1771513669017,-0.96533203,-0.18359375,0.1694336,-0.061035156,-0.5493164,0.12207031,0.0,0.0,0.0,-47.993774,75.426636,47.34558
2026-02-19 23:07:49.116,1771513669116,1771513669116,-0.96875,-0.18408203,0.16455078,-0.7324219,-1.6479492,0.36621094,0.0,0.0,0.0,-47.460938,75.355225,48.026733
2026-02-19 23:07:49.216,1771513669216,1771513669216,-0.9682617,-0.1850586,0.17285156,-0.8544922,-2.4414062,0.48828125,0.0,0.0,0.0,-46.917114,75.25635,48.658447
2026-02-19 23:07:49.316,1771513669316,1771513669316,-0.9667969,-0.1821289,0.1772461,0.12207031,-2.1362305,0.30517578,0.0,0.0,0.0,-46.186523,75.1355,49.47693
2026-02-19 23:07:49.415,1771513669415,1771513669415,-0.96728516,-0.18359375,0.17919922,-0.24414062,-1.6479492,0.36621094,0.0,0.0,0.0,-45.510864,75.01465,50.19104
2026-02-19 23:07:49.515,1771513669515,1771513669515,-0.9682617,-0.18164062,0.18115234,-0.7324219,-0.91552734,0.36621094,0.0,0.0,0.0,-45.082397,74.937744,50.67444
2026-02-19 23:07:49.615,1771513669615,1771513669615,-0.96728516,-0.18164062,0.1875,0.24414062,0.0,0.0,0.0,0.0,0.0,-44.917603,74.904785,50.839233
2026-02-19 23:07:49.714,1771513669714,1771513669714,-0.96728516,-0.18261719,0.17333984,-1.2207031,-1.6479492,0.7324219,0.0,0.0,0.0,-44.505615,74.833374,51.295166
2026-02-19 23:07:49.814,1771513669814,1771513669814,-0.96777344,-0.18408203,0.18701172,0.0,-0.48828125,0.18310547,0.0,0.0,0.0,-44.467163,74.84985,51.295166
2026-02-19 23:07:49.914,1771513669914,1771513669914,-0.9638672,-0.18066406,0.18652344,0.48828125,0.61035156,-0.061035156,0.0,0.0,0.0,-44.3573,74.84436,51.432495
2026-02-19 23:07:50.014,1771513670014,1771513670014,-0.96728516,-0.18017578,0.18066406,-0.36621094,-0.24414062,0.18310547,0.0,0.0,0.0,-44.32434,74.84436,51.470947
2026-02-19 23:07:50.113,1771513670113,1771513670113,-0.96533203,-0.18066406,0.18798828,-0.12207031,0.30517578,0.061035156,0.0,0.0,0.0,-44.351807,74.86084,51.42151
2026-02-19 23:07:50.213,1771513670213,1771513670213,-0.96533203,-0.18115234,0.18408203,0.0,0.0,-0.061035156,0.0,0.0,0.0,-44.346313,74.86084,51.394043
2026-02-19 23:07:50.313,1771513670313,1771513670313,-0.96533203,-0.18115234,0.18457031,0.0,0.4272461,-0.061035156,0.0,0.0,0.0,-44.346313,74.85535,51.366577
2026-02-19 23:07:50.412,1771513670412,1771513670412,-0.96777344,-0.1821289,0.18164062,-0.30517578,0.30517578,0.0,0.0,0.0,0.0,-44.384766,74.86084,51.278687
2026-02-19 23:07:50.512,1771513670512,1771513670512,-0.96484375,-0.18066406,0.18359375,0.0,0.18310547,0.0,0.0,0.0,0.0,-44.483643,74.871826,51.135864
2026-02-19 23:07:50.612,1771513670612,1771513670612,-0.9692383,-0.18408203,0.17138672,-0.79345703,-0.12207031,0.30517578,0.0,0.0,0.0,-44.483643,74.86633,51.086426
2026-02-19 23:07:50.712,1771513670712,1771513670712,-0.9692383,-0.18554688,0.18066406,1.2207031,1.953125,-0.4272461,0.0,0.0,0.0,-45.027466,74.9762,50.39978
2026-02-19 23:07:50.811,1771513670811,1771513670811,-0.96484375,-0.18017578,0.1796875,1.4038086,2.8076172,-0.61035156,0.0,0.0,0.0,-45.653687,75.09155,49.647217
2026-02-19 23:07:50.911,1771513670911,1771513670911,-0.96972656,-0.18164062,0.16992188,0.6713867,2.4414062,-0.5493164,0.0,0.0,0.0,-46.362305,75.20691,48.76831
2026-02-19 23:07:51.011,1771513671011,1771513671011,-0.9682617,-0.18164062,0.17382812,1.0986328,3.2958984,-0.79345703,0.0,0.0,0.0,-47.32361,75.36621,47.625732
2026-02-19 23:07:51.111,1771513671111,1771513671111,-0.9682617,-0.18408203,0.1616211,0.61035156,2.4414062,-0.61035156,0.0,0.0,0.0,-48.015747,75.46509,46.757812
2026-02-19 23:07:51.210,1771513671210,1771513671210,-0.9707031,-0.18603516,0.16455078,0.79345703,2.2583008,-0.48828125,0.0,0.0,0.0,-48.790283,75.580444,45.802002
2026-02-19 23:07:51.310,1771513671310,1771513671310,-0.9692383,-0.18652344,0.15722656,1.159668,2.5024414,-0.7324219,0.0,0.0,0.0,-49.465942,75.668335,44.92859
2026-02-19 23:07:51.410,1771513671410,1771513671410,-0.96728516,-0.18408203,0.16015625,1.5258789,2.8076172,-0.7324219,0.0,0.0,0.0,-50.15808,75.75073,44.049683
2026-02-19 23:07:51.509,1771513671509,1771513671509,-0.96875,-0.1850586,0.14892578,0.7324219,3.3569336,-0.61035156,0.0,0.0,0.0,-51.14685,75.877075,42.89612
2026-02-19 23:07:51.609,1771513671609,1771513671609,-0.9741211,-0.18798828,0.14746094,0.0,1.5869141,-0.18310547,0.0,0.0,0.0,-51.860962,75.981445,42.05017
2026-02-19 23:07:51.709,1771513671709,1771513671709,-0.97314453,-0.18847656,0.14746094,0.6713867,1.5258789,-0.30517578,0.0,0.0,0.0,-52.322388,76.04187,41.467896
2026-02-19 23:07:51.809,1771513671809,1771513671809,-0.96972656,-0.18847656,0.14257812,0.48828125,0.5493164,-0.24414062,0.0,0.0,0.0,-52.503662,76.05835,41.220703
2026-02-19 23:07:51.908,1771513671908,1771513671908,-0.97216797,-0.18945312,0.14648438,-0.5493164,-0.48828125,0.061035156,0.0,0.0,0.0,-52.382812,76.03638,41.325073
2026-02-19 23:07:52.008,1771513672008,1771513672008,-0.9711914,-0.18945312,0.14257812,0.061035156,-0.36621094,0.0,0.0,0.0,0.0,-52.201538,76.00891,41.49536
2026-02-19 23:07:52.108,1771513672108,1771513672108,-0.96972656,-0.18798828,0.14746094,-0.18310547,-1.0986328,0.12207031,0.0,0.0,0.0,-51.954346,75.97046,41.748047
2026-02-19 23:07:52.207,1771513672207,1771513672207,-0.96972656,-0.18603516,0.14990234,-0.5493164,-1.2817383,0.0,0.0,0.0,0.0,-51.5094,75.89905,42.23694
2026-02-19 23:07:52.307,1771513672307,1771513672307,-0.9707031,-0.18554688,0.1538086,-0.5493164,-1.6479492,0.30517578,0.0,0.0,0.0,-50.88318,75.805664,42.89612
2026-02-19 23:07:52.407,1771513672407,1771513672407,-0.96875,-0.18798828,0.14892578,-0.4272461,-0.7324219,0.18310547,0.0,0.0,0.0,-50.482178,75.739746,43.379517
2026-02-19 23:07:52.507,1771513672507,1771513672507,-0.97021484,-0.18798828,0.15576172,-0.24414062,-1.159668,0.30517578,0.0,0.0,0.0,-50.17456,75.701294,43.742065
2026-02-19 23:07:52.606,1771513672606,1771513672606,-0.96777344,-0.18798828,0.15771484,-0.36621094,-0.4272461,0.18310547,0.0,0.0,0.0,-49.713135,75.635376,44.296875
2026-02-19 23:07:52.706,1771513672706,1771513672706,-0.9711914,-0.18847656,0.15185547,-1.4038086,-1.7089844,0.61035156,0.0,0.0,0.0,-49.295654,75.59143,44.84619
2026-02-19 23:07:52.806,1771513672806,1771513672806,-0.97021484,-0.1875,0.16699219,-1.2817383,-2.5634766,0.61035156,0.0,0.0,0.0,-48.894653,75.5365,45.36255
2026-02-19 23:07:52.906,1771513672906,1771513672906,-0.9682617,-0.1850586,0.1640625,-0.12207031,-1.0986328,0.24414062,0.0,0.0,0.0,-48.251953,75.443115,46.13159
2026-02-19 23:07:53.005,1771513673005,1771513673005,-0.96875,-0.18457031,0.16601562,-0.7324219,-2.0751953,0.61035156,0.0,0.0,0.0,-47.62024,75.355225,46.84021
2026-02-19 23:07:53.105,1771513673105,1771513673105,-0.96972656,-0.18408203,0.16845703,-0.7324219,-1.6479492,0.48828125,0.0,0.0,0.0,-47.08191,75.27283,47.438965
2026-02-19 23:07:53.205,1771513673205,1771513673205,-0.9667969,-0.18359375,0.17480469,0.24414062,-0.7324219,0.18310547,0.0,0.0,0.0,-46.653442,75.201416,47.905884
2026-02-19 23:07:53.305,1771513673305,1771513673305,-0.97021484,-0.18457031,0.1640625,-1.5258789,-2.4414062,0.91552734,0.0,0.0,0.0,-46.02173,75.09155,48.619995
2026-02-19 23:07:53.404,1771513673404,1771513673404,-0.96875,-0.18457031,0.18457031,0.061035156,-0.61035156,0.24414062,0.0,0.0,0.0,-45.90088,75.09155,48.740845
2026-02-19 23:07:53.504,1771513673504,1771513673504,-0.96533203,-0.18115234,0.1796875,0.8544922,0.48828125,0.0,0.0,0.0,0.0,-45.543823,75.042114,49.16382
2026-02-19 23:07:53.604,1771513673604,1771513673604,-0.9682617,-0.18408203,0.17578125,-0.5493164,-1.6479492,0.48828125,0.0,0.0,0.0,-45.230713,75.00366,49.47693
2026-02-19 23:07:53.704,1771513673704,1771513673704,-0.9667969,-0.18310547,0.18359375,-0.30517578,0.18310547,0.12207031,0.0,0.0,0.0,-45.115356,74.98718,49.59778
2026-02-19 23:07:53.803,1771513673803,1771513673803,-0.96533203,-0.18066406,0.1796875,-0.24414062,-0.061035156,0.0,0.0,0.0,0.0,-45.098877,74.98169,49.608765
2026-02-19 23:07:53.903,1771513673903,1771513673903,-0.9663086,-0.1821289,0.18017578,-0.061035156,-0.061035156,0.0,0.0,0.0,0.0,-45.093384,74.98169,49.5813
2026-02-19 23:07:54.003,1771513674003,1771513674003,-0.96728516,-0.18310547,0.17822266,-0.061035156,0.061035156,0.0,0.0,0.0,0.0,-45.082397,74.9762,49.559326
2026-02-19 23:07:54.102,1771513674102,1771513674102,-0.9633789,-0.18310547,0.17626953,0.0,0.0,-0.12207031,0.0,0.0,0.0,-45.13733,74.9707,49.48242
2026-02-19 23:07:54.202,1771513674202,1771513674202,-0.9692383,-0.1850586,0.17138672,-0.8544922,-1.4648438,0.4272461,0.0,0.0,0.0,-45.05493,74.94324,49.520874
2026-02-19 23:07:54.302,1771513674302,1771513674302,-0.9663086,-0.18359375,0.18554688,0.7324219,0.4272461,-0.18310547,0.0,0.0,0.0,-45.109863,74.95972,49.405518
2026-02-19 23:07:54.401,1771513674401,1771513674401,-0.96435547,-0.1796875,0.17919922,1.7700195,2.380371,-0.6713867,0.0,0.0,0.0,-45.302124,74.98169,49.14734
2026-02-19 23:07:54.501,1771513674501,1771513674501,-0.9692383,-0.1850586,0.17285156,0.6713867,1.5258789,-0.48828125,0.0,0.0,0.0,-45.86792,75.06958,48.372803
2026-02-19 23:07:54.601,1771513674601,1771513674601,-0.9663086,-0.18261719,0.18066406,1.7089844,2.746582,-0.79345703,0.0,0.0,0.0,-46.58203,75.16846,47.477417
2026-02-19 23:07:54.701,1771513674701,1771513674701,-0.9682617,-0.18310547,0.16894531,1.4648438,2.9296875,-0.8544922,0.0,0.0,0.0,-47.13684,75.250854,46.724854
2026-02-19 23:07:54.800,1771513674800,1771513674800,-0.97021484,-0.18652344,0.16796875,0.91552734,2.8686523,-0.6713867,0.0,0.0,0.0,-48.015747,75.38818,45.62622
2026-02-19 23:07:54.900,1771513674900,1771513674900,-0.96728516,-0.18701172,0.16064453,0.9765625,2.380371,-0.79345703,0.0,0.0,0.0,-48.73535,75.48157,44.68689
2026-02-19 23:07:55.000,1771513675000,1771513675000,-0.96777344,-0.18652344,0.16259766,1.4038086,2.319336,-0.6713867,0.0,0.0,0.0,-49.37256,75.55847,43.840942
2026-02-19 23:07:55.099,1771513675099,1771513675099,-0.96728516,-0.18701172,0.14892578,0.7324219,3.1738281,-0.61035156,0.0,0.0,0.0,-50.059204,75.64087,43.027954
2026-02-19 23:07:55.199,1771513675199,1771513675199,-0.97021484,-0.18945312,0.1538086,0.12207031,2.319336,-0.36621094,0.0,0.0,0.0,-51.080933,75.789185,41.84143
2026-02-19 23:07:55.299,1771513675299,1771513675299,-0.9707031,-0.18896484,0.15039062,0.5493164,2.6855469,-0.61035156,0.0,0.0,0.0,-51.795044,75.88806,41.011963
2026-02-19 23:07:55.399,1771513675399,1771513675399,-0.9707031,-0.1899414,0.13964844,0.91552734,2.1362305,-0.7324219,0.0,0.0,0.0,-52.476196,75.964966,40.220947
2026-02-19 23:07:55.498,1771513675498,1771513675498,-0.9716797,-0.19091797,0.14404297,-0.18310547,0.7324219,-0.18310547,0.0,0.0,0.0,-53.009033,76.0199,39.589233
2026-02-19 23:07:55.598,1771513675598,1771513675598,-0.9692383,-0.18896484,0.14208984,0.61035156,0.12207031,-0.24414062,0.0,0.0,0.0,-53.069458,76.0199,39.468384
2026-02-19 23:07:55.698,1771513675698,1771513675698,-0.96972656,-0.19189453,0.14404297,0.0,-0.12207031,-0.061035156,0.0,0.0,0.0,-53.05298,76.00342,39.40796
2026-02-19 23:07:55.797,1771513675797,1771513675797,-0.9716797,-0.19042969,0.14111328,-0.5493164,-0.8544922,0.12207031,0.0,0.0,0.0,-52.82776,75.95947,39.627686
2026-02-19 23:07:55.897,1771513675897,1771513675897,-0.96972656,-0.18896484,0.1484375,-0.30517578,-0.4272461,0.36621094,0.0,0.0,0.0,-52.608032,75.94299,39.847412
2026-02-19 23:07:55.997,1771513675997,1771513675997,-0.9658203,-0.18896484,0.14501953,0.48828125,0.0,-0.061035156,0.0,0.0,0.0,-52.547607,75.93201,39.924316
2026-02-19 23:07:56.097,1771513676097,1771513676097,-0.97216797,-0.18896484,0.1484375,0.12207031,-0.36621094,0.0,0.0,0.0,0.0,-52.349854,75.91553,40.15503
2026-02-19 23:07:56.196,1771513676196,1771513676196,-0.9716797,-0.19091797,0.14648438,0.0,-0.9765625,0.12207031,0.0,0.0,0.0,-51.915894,75.86609,40.616455
2026-02-19 23:07:56.296,1771513676296,1771513676296,-0.96875,-0.19140625,0.14501953,0.0,-1.4038086,0.0,0.0,0.0,0.0,-51.448975,75.789185,41.12732
2026-02-19 23:07:56.396,1771513676396,1771513676396,-0.9711914,-0.18945312,0.15478516,-0.4272461,-1.5258789,0.12207031,0.0,0.0,0.0,-51.036987,75.71228,41.605225
2026-02-19 23:07:56.496,1771513676496,1771513676496,-0.9692383,-0.1928711,0.15625,-0.61035156,-1.6479492,0.30517578,0.0,0.0,0.0,-50.52063,75.6189,42.160034
2026-02-19 23:07:56.595,1771513676595,1771513676595,-0.97021484,-0.1899414,0.15917969,-0.4272461,-1.0986328,0.30517578,0.0,0.0,0.0,-50.125122,75.55847,42.62146
2026-02-19 23:07:56.695,1771513676695,1771513676695,-0.96875,-0.1899414,0.16210938,-0.91552734,-0.7324219,0.4272461,0.0,0.0,0.0,-49.713135,75.50903,43.121338
2026-02-19 23:07:56.795,1771513676795,1771513676795,-0.96972656,-0.18701172,0.16699219,-0.7324219,-0.79345703,0.24414062,0.0,0.0,0.0,-49.405518,75.46509,43.50586
2026-02-19 23:07:56.894,1771513676894,1771513676894,-0.96728516,-0.18652344,0.15673828,-0.7324219,0.12207031,0.30517578,0.0,0.0,0.0,-49.0979,75.43213,43.934326
2026-02-19 23:07:56.994,1771513676994,1771513676994,-0.9692383,-0.1899414,0.1616211,-1.2207031,-1.0986328,0.5493164,0.0,0.0,0.0,-48.97705,75.426636,44.088135
2026-02-19 23:07:57.094,1771513677094,1771513677094,-0.9658203,-0.1875,0.1665039,0.18310547,-0.24414062,0.0,0.0,0.0,0.0,-48.746338,75.40466,44.37378
2026-02-19 23:07:57.194,1771513677194,1771513677194,-0.9692383,-0.18847656,0.1586914,-0.61035156,-1.0375977,0.24414062,0.0,0.0,0.0,-48.38379,75.34973,44.82422
2026-02-19 23:07:57.293,1771513677293,1771513677293,-0.9692383,-0.1875,0.16699219,-0.6713867,-1.2207031,0.36621094,0.0,0.0,0.0,-48.131104,75.31128,45.126343
2026-02-19 23:07:57.393,1771513677393,1771513677393,-0.9663086,-0.18652344,0.17041016,-0.36621094,-1.2207031,0.18310547,0.0,0.0,0.0,-47.834473,75.26184,45.461426
2026-02-19 23:07:57.493,1771513677493,1771513677493,-0.9682617,-0.18603516,0.17089844,-0.061035156,-0.061035156,0.0,0.0,0.0,0.0,-47.598267,75.2124,45.725098
2026-02-19 23:07:57.593,1771513677593,1771513677593,-0.96777344,-0.18798828,0.17333984,-0.4272461,0.0,0.18310547,0.0,0.0,0.0,-47.42798,75.19592,45.906372
2026-02-19 23:07:57.692,1771513677692,1771513677692,-0.9667969,-0.18408203,0.1796875,0.061035156,-0.061035156,-0.061035156,0.0,0.0,0.0,-47.36206,75.16846,45.93933
2026-02-19 23:07:57.792,1771513677792,1771513677792,-0.96728516,-0.1850586,0.16503906,-0.61035156,-0.61035156,0.24414062,0.0,0.0,0.0,-46.99951,75.10254,46.340332
2026-02-19 23:07:57.892,1771513677892,1771513677892,-0.96875,-0.18847656,0.17626953,-0.48828125,-1.159668,0.30517578,0.0,0.0,0.0,-46.97754,75.113525,46.30188
2026-02-19 23:07:57.991,1771513677991,1771513677991,-0.96484375,-0.18554688,0.17675781,0.61035156,0.36621094,-0.18310547,0.0,0.0,0.0,-46.80725,75.08606,46.46118
2026-02-19 23:07:58.091,1771513678091,1771513678091,-0.96777344,-0.18652344,0.16894531,0.0,0.0,0.0,0.0,0.0,0.0,-46.6864,75.06409,46.58203
2026-02-19 23:07:58.191,1771513678191,1771513678191,-0.96728516,-0.1850586,0.1772461,-0.36621094,-0.12207031,0.18310547,0.0,0.0,0.0,-46.730347,75.07507,46.51062
2026-02-19 23:07:58.291,1771513678291,1771513678291,-0.9663086,-0.18457031,0.17529297,-0.18310547,-0.30517578,0.061035156,0.0,0.0,0.0,-46.68091,75.06958,46.538086
2026-02-19 23:07:58.391,1771513678391,1771513678391,-0.96777344,-0.18554688,0.1772461,0.30517578,0.48828125,-0.18310547,0.0,0.0,0.0,-46.691895,75.06409,46.499634
2026-02-19 23:07:58.491,1771513678491,1771513678491,-0.96777344,-0.18652344,0.1796875,0.36621094,0.91552734,-0.18310547,0.0,0.0,0.0,-46.741333,75.06958,46.411743
2026-02-19 23:07:58.590,1771513678590,1771513678590,-0.96875,-0.1850586,0.1796875,0.6713867,1.5869141,-0.36621094,0.0,0.0,0.0,-46.9281,75.08057,46.13159
2026-02-19 23:07:58.689,1771513678689,1771513678689,-0.9667969,-0.18457031,0.16601562,0.7324219,2.6245117,-0.36621094,0.0,0.0,0.0,-47.235718,75.1355,45.73059
2026-02-19 23:07:58.789,1771513678789,1771513678789,-0.9716797,-0.19042969,0.1665039,0.24414062,0.6713867,-0.12207031,0.0,0.0,0.0,-47.856445,75.250854,44.884644
2026-02-19 23:07:58.889,1771513678889,1771513678889,-0.96728516,-0.18554688,0.17578125,2.1362305,2.0141602,-0.8544922,0.0,0.0,0.0,-48.38379,75.322266,44.170532
2026-02-19 23:07:58.989,1771513678989,1771513678989,-0.96728516,-0.18701172,0.15820312,1.4038086,2.9296875,-0.5493164,0.0,0.0,0.0,-48.636475,75.36072,43.758545
2026-02-19 23:07:59.088,1771513679088,1771513679088,-0.96972656,-0.18896484,0.16113281,0.7324219,1.5258789,-0.5493164,0.0,0.0,0.0,-49.284668,75.459595,42.95105
2026-02-19 23:07:59.188,1771513679188,1771513679188,-0.96972656,-0.18798828,0.15625,0.8544922,1.8310547,-0.6713867,0.0,0.0,0.0,-49.855957,75.51453,42.231445
2026-02-19 23:07:59.288,1771513679288,1771513679288,-0.97021484,-0.18896484,0.16064453,1.159668,1.8920898,-0.6713867,0.0,0.0,0.0,-50.652466,75.6189,41.26465
2026-02-19 23:07:59.388,1771513679388,1771513679388,-0.96533203,-0.1928711,0.15332031,1.4038086,2.6245117,-0.8544922,0.0,0.0,0.0,-51.23474,75.67932,40.545044
2026-02-19 23:07:59.487,1771513679487,1771513679487,-0.9741211,-0.19433594,0.14453125,-0.7324219,1.7089844,-0.48828125,0.0,0.0,0.0,-52.036743,75.75073,39.55078
2026-02-19 23:07:59.587,1771513679587,1771513679587,-0.97265625,-0.19335938,0.14892578,0.61035156,1.4038086,-0.48828125,0.0,0.0,0.0,-52.822266,75.82764,38.59497
2026-02-19 23:07:59.687,1771513679687,1771513679687,-0.9658203,-0.19335938,0.140625,0.91552734,1.6479492,-0.4272461,0.0,0.0,0.0,-53.17932,75.86609,38.10608
2026-02-19 23:07:59.786,1771513679786,1771513679786,-0.9746094,-0.19677734,0.13769531,0.0,0.36621094,0.0,0.0,0.0,0.0,-53.536377,75.910034,37.58972
2026-02-19 23:07:59.886,1771513679886,1771513679886,-0.9667969,-0.1928711,0.14453125,0.18310547,0.4272461,0.0,0.0,0.0,0.0,-53.71765,75.94299,37.353516
2026-02-19 23:07:59.986,1771513679986,1771513679986,-0.96875,-0.19042969,0.14453125,-0.30517578,-0.7324219,0.24414062,0.0,0.0,0.0,-53.530884,75.92102,37.556763
2026-02-19 23:08:00.085,1771513680085,1771513680085,-0.97216797,-0.19189453,0.14208984,-0.24414062,-0.91552734,0.061035156,0.0,0.0,0.0,-53.1958,75.88257,37.89734
2026-02-19 23:08:00.185,1771513680185,1771513680185,-0.97021484,-0.19189453,0.14208984,-0.30517578,-1.2207031,0.12207031,0.0,0.0,0.0,-52.816772,75.82214,38.287354
2026-02-19 23:08:00.285,1771513680285,1771513680285,-0.9692383,-0.1953125,0.1508789,-0.12207031,-1.953125,0.0,0.0,0.0,0.0,-52.349854,75.739746,38.770752
2026-02-19 23:08:00.385,1771513680385,1771513680385,-0.97216797,-0.19482422,0.14648438,-0.61035156,-1.7089844,0.30517578,0.0,0.0,0.0,-51.76758,75.64636,39.42993
2026-02-19 23:08:00.484,1771513680484,1771513680484,-0.97021484,-0.1928711,0.15722656,0.0,-0.8544922,0.36621094,0.0,0.0,0.0,-51.448975,75.6134,39.803467
2026-02-19 23:08:00.584,1771513680584,1771513680584,-0.96777344,-0.19091797,0.14941406,-0.61035156,-1.4038086,0.5493164,0.0,0.0,0.0,-50.85022,75.547485,40.495605
2026-02-19 23:08:00.684,1771513680684,1771513680684,-0.9707031,-0.19189453,0.15283203,-1.2207031,-1.953125,0.7324219,0.0,0.0,0.0,-50.493164,75.52002,40.929565
2026-02-19 23:08:00.784,1771513680784,1771513680784,-0.9682617,-0.1875,0.16455078,-0.36621094,-0.7324219,0.061035156,0.0,0.0,0.0,-50.27893,75.48706,41.23169
2026-02-19 23:08:00.883,1771513680883,1771513680883,-0.96875,-0.18847656,0.15966797,-0.5493164,-0.4272461,0.18310547,0.0,0.0,0.0,-49.92737,75.43762,41.69861
2026-02-19 23:08:00.983,1771513680983,1771513680983,-0.96972656,-0.19140625,0.16113281,-0.91552734,-1.2817383,0.24414062,0.0,0.0,0.0,-49.575806,75.3772,42.11609
2026-02-19 23:08:01.083,1771513681083,1771513681083,-0.9707031,-0.19091797,0.1616211,-0.6713867,-1.0986328,0.36621094,0.0,0.0,0.0,-49.279175,75.33325,42.48413
2026-02-19 23:08:01.182,1771513681182,1771513681182,-0.96435547,-0.19189453,0.1640625,-0.9765625,-1.0986328,0.30517578,0.0,0.0,0.0,-48.96057,75.28381,42.890625
2026-02-19 23:08:01.282,1771513681282,1771513681282,-0.9736328,-0.19238281,0.16015625,-1.4038086,-2.9296875,0.91552734,0.0,0.0,0.0,-48.51013,75.22888,43.390503
2026-02-19 23:08:01.382,1771513681382,1771513681382,-0.9663086,-0.18701172,0.17529297,0.7324219,-0.5493164,0.18310547,0.0,0.0,0.0,-48.136597,75.19043,43.824463
2026-02-19 23:08:01.482,1771513681482,1771513681482,-0.9663086,-0.1850586,0.16748047,-0.4272461,-1.2207031,0.36621094,0.0,0.0,0.0,-47.46643,75.097046,44.571533
2026-02-19 23:08:01.581,1771513681581,1771513681581,-0.97021484,-0.18847656,0.171875,-0.61035156,-1.953125,0.30517578,0.0,0.0,0.0,-47.15332,75.03662,44.86267
2026-02-19 23:08:01.681,1771513681681,1771513681681,-0.9638672,-0.18408203,0.18115234,0.7324219,-0.6713867,-0.061035156,0.0,0.0,0.0,-46.796265,74.9707,45.230713
2026-02-19 23:08:01.781,1771513681781,1771513681781,-0.96484375,-0.18847656,0.17626953,-0.18310547,-0.91552734,0.12207031,0.0,0.0,0.0,-46.417236,74.888306,45.57129
2026-02-19 23:08:01.880,1771513681880,1771513681880,-0.96484375,-0.18701172,0.1772461,-0.4272461,-0.79345703,0.061035156,0.0,0.0,0.0,-46.24695,74.83887,45.725098
2026-02-19 23:08:01.980,1771513681980,1771513681980,-0.9663086,-0.18847656,0.17773438,-0.061035156,-0.5493164,0.24414062,0.0,0.0,0.0,-46.203003,74.82788,45.736084
2026-02-19 23:08:02.080,1771513682080,1771513682080,-0.9614258,-0.18945312,0.17480469,-0.12207031,0.36621094,-0.061035156,0.0,0.0,0.0,-46.159058,74.833374,45.78003
2026-02-19 23:08:02.180,1771513682180,1771513682180,-0.97021484,-0.1899414,0.17285156,-1.0375977,-1.6479492,0.4272461,0.0,0.0,0.0,-46.071167,74.8114,45.829468
2026-02-19 23:08:02.280,1771513682280,1771513682280,-0.96533203,-0.18554688,0.18603516,0.61035156,0.30517578,0.0,0.0,0.0,0.0,-46.09314,74.82239,45.785522
2026-02-19 23:08:02.379,1771513682379,1771513682379,-0.9628906,-0.18457031,0.18017578,0.61035156,0.36621094,-0.12207031,0.0,0.0,0.0,-45.977783,74.80591,45.86792
2026-02-19 23:08:02.479,1771513682479,1771513682479,-0.96875,-0.18896484,0.1772461,-0.4272461,-0.6713867,0.12207031,0.0,0.0,0.0,-45.911865,74.78943,45.856934
2026-02-19 23:08:02.579,1771513682579,1771513682579,-0.96435547,-0.18603516,0.18408203,0.30517578,0.36621094,-0.12207031,0.0,0.0,0.0,-45.977783,74.78943,45.741577
2026-02-19 23:08:02.679,1771513682679,1771513682679,-0.9638672,-0.18652344,0.18164062,-0.061035156,0.0,-0.061035156,0.0,0.0,0.0,-45.928345,74.77295,45.769043
2026-02-19 23:08:02.778,1771513682778,1771513682778,-0.9663086,-0.18847656,0.17822266,0.48828125,0.0,-0.061035156,0.0,0.0,0.0,-45.81848,74.74548,45.81299
2026-02-19 23:08:02.878,1771513682878,1771513682878,-0.9682617,-0.18945312,0.17822266,0.61035156,0.6713867,-0.18310547,0.0,0.0,0.0,-46.038208,74.783936,45.46692
2026-02-19 23:08:02.978,1771513682978,1771513682978,-0.96240234,-0.19091797,0.17041016,0.5493164,0.5493164,-0.30517578,0.0,0.0,0.0,-46.274414,74.82239,45.10437
2026-02-19 23:08:03.078,1771513683078,1771513683078,-0.97021484,-0.18896484,0.17333984,0.36621094,0.7324219,-0.24414062,0.0,0.0,0.0,-46.746826,74.89929,44.472656
2026-02-19 23:08:03.177,1771513683177,1771513683177,-0.9663086,-0.18652344,0.18164062,2.380371,2.6245117,-0.8544922,0.0,0.0,0.0,-47.3291,74.99817,43.720093
2026-02-19 23:08:03.277,1771513683277,1771513683277,-0.9633789,-0.18457031,0.17480469,1.6479492,0.48828125,-0.24414062,0.0,0.0,0.0,-47.53235,75.03113,43.363037
2026-02-19 23:08:03.376,1771513683376,1771513683376,-0.9692383,-0.19042969,0.16601562,0.8544922,1.159668,-0.6713867,0.0,0.0,0.0,-47.67517,75.03113,43.00049
2026-02-19 23:08:03.476,1771513683476,1771513683476,-0.96875,-0.19091797,0.1694336,0.6713867,1.3427734,-0.36621094,0.0,0.0,0.0,-48.12561,75.08057,42.374268
2026-02-19 23:08:03.576,1771513683576,1771513683576,-0.9658203,-0.19042969,0.16748047,0.9765625,1.4038086,-0.48828125,0.0,0.0,0.0,-48.554077,75.14099,41.80298
2026-02-19 23:08:03.676,1771513683676,1771513683676,-0.96777344,-0.19238281,0.16308594,0.7324219,2.1972656,-0.7324219,0.0,0.0,0.0,-49.086914,75.2124,41.132812
2026-02-19 23:08:03.775,1771513683775,1771513683775,-0.96484375,-0.19189453,0.16210938,0.36621094,1.8920898,-0.4272461,0.0,0.0,0.0,-49.779053,75.28381,40.33081
2026-02-19 23:08:03.875,1771513683875,1771513683875,-0.97021484,-0.19091797,0.15625,-0.061035156,2.4414062,-0.6713867,0.0,0.0,0.0,-50.509644,75.371704,39.418945
2026-02-19 23:08:03.975,1771513683975,1771513683975,-0.96972656,-0.19433594,0.15527344,0.24414062,2.6855469,-0.30517578,0.0,0.0,0.0,-51.454468,75.50354,38.320312
2026-02-19 23:08:04.074,1771513684074,1771513684074,-0.96972656,-0.19384766,0.15234375,0.12207031,1.2817383,-0.12207031,0.0,0.0,0.0,-52.058716,75.60242,37.600708
2026-02-19 23:08:04.174,1771513684174,1771513684174,-0.9682617,-0.19433594,0.15283203,0.61035156,1.6479492,-0.12207031,0.0,0.0,0.0,-52.421265,75.668335,37.144775
2026-02-19 23:08:04.274,1771513684274,1771513684274,-0.96728516,-0.19335938,0.14892578,-0.24414062,-0.18310547,0.12207031,0.0,0.0,0.0,-52.492676,75.67932,37.040405
2026-02-19 23:08:04.374,1771513684374,1771513684374,-0.9716797,-0.1928711,0.1484375,-0.61035156,-1.3427734,0.24414062,0.0,0.0,0.0,-52.157593,75.62988,37.402954
2026-02-19 23:08:04.473,1771513684473,1771513684473,-0.9711914,-0.19384766,0.14746094,-0.18310547,-1.5869141,0.12207031,0.0,0.0,0.0,-51.63025,75.55298,37.946777
2026-02-19 23:08:04.573,1771513684573,1771513684573,-0.9692383,-0.19433594,0.15429688,-0.30517578,-1.6479492,0.0,0.0,0.0,0.0,-51.185303,75.46509,38.424683
2026-02-19 23:08:04.673,1771513684673,1771513684673,-0.9663086,-0.19726562,0.1538086,0.30517578,-1.3427734,0.0,0.0,0.0,0.0,-50.685425,75.36621,38.974
2026-02-19 23:08:04.772,1771513684772,1771513684772,-0.9707031,-0.19677734,0.15332031,-0.79345703,-2.0751953,0.48828125,0.0,0.0,0.0,-50.147095,75.28931,39.578247
2026-02-19 23:08:04.872,1771513684872,1771513684872,-0.96728516,-0.19042969,0.1665039,-0.18310547,-1.0986328,0.4272461,0.0,0.0,0.0,-49.822998,75.26184,39.973755
2026-02-19 23:08:04.972,1771513684972,1771513684972,-0.9667969,-0.19140625,0.16210938,-0.61035156,-1.159668,0.36621094,0.0,0.0,0.0,-49.317627,75.20691,40.578003
2026-02-19 23:08:05.072,1771513685072,1771513685072,-0.97021484,-0.19384766,0.1640625,-1.2207031,-1.7700195,0.5493164,0.0,0.0,0.0,-48.971558,75.162964,40.984497
2026-02-19 23:08:05.171,1771513685171,1771513685171,-0.96533203,-0.1899414,0.16748047,-0.24414062,-0.4272461,0.0,0.0,0.0,0.0,-48.762817,75.11902,41.259155
2026-02-19 23:08:05.271,1771513685271,1771513685271,-0.96777344,-0.19091797,0.16748047,-1.0986328,-1.2817383,0.4272461,0.0,0.0,0.0,-48.499146,75.07507,41.59973
2026-02-19 23:08:05.371,1771513685371,1771513685371,-0.96728516,-0.19091797,0.17089844,-0.4272461,-0.48828125,0.18310547,0.0,0.0,0.0,-48.27942,75.042114,41.879883
2026-02-19 23:08:05.471,1771513685471,1771513685471,-0.9682617,-0.19140625,0.16748047,-0.6713867,-0.6713867,0.36621094,0.0,0.0,0.0,-48.0542,75.01465,42.165527
2026-02-19 23:08:05.570,1771513685570,1771513685570,-0.96435547,-0.19238281,0.16992188,-1.3427734,-0.4272461,0.48828125,0.0,0.0,0.0,-47.894897,75.01465,42.440186
2026-02-19 23:08:05.670,1771513685670,1771513685670,-0.9711914,-0.19238281,0.1665039,-1.953125,-2.380371,0.9765625,0.0,0.0,0.0,-47.592773,74.98718,42.84668
2026-02-19 23:08:05.770,1771513685770,1771513685770,-0.9658203,-0.18798828,0.1796875,0.48828125,0.18310547,0.12207031,0.0,0.0,0.0,-47.373047,74.98718,43.15979
2026-02-19 23:08:05.869,1771513685869,1771513685869,-0.9663086,-0.18798828,0.17138672,-0.91552734,-0.7324219,0.48828125,0.0,0.0,0.0,-47.021484,74.95422,43.582764
2026-02-19 23:08:05.969,1771513685969,1771513685969,-0.96875,-0.1899414,0.17382812,-1.0986328,-1.2817383,0.61035156,0.0,0.0,0.0,-46.862183,74.94873,43.764038
2026-02-19 23:08:06.069,1771513686069,1771513686069,-0.96533203,-0.18798828,0.17822266,0.061035156,0.0,0.061035156,0.0,0.0,0.0,-46.730347,74.93225,43.92334
2026-02-19 23:08:06.168,1771513686168,1771513686168,-0.9667969,-0.18603516,0.17529297,-0.30517578,-0.61035156,0.12207031,0.0,0.0,0.0,-46.554565,74.91028,44.126587
2026-02-19 23:08:06.269,1771513686269,1771513686269,-0.9667969,-0.18701172,0.17578125,-0.18310547,-0.12207031,0.0,0.0,0.0,0.0,-46.450195,74.888306,44.214478
2026-02-19 23:08:06.368,1771513686368,1771513686368,-0.9682617,-0.18945312,0.17578125,0.0,-0.36621094,0.0,0.0,0.0,0.0,-46.42273,74.87732,44.214478
2026-02-19 23:08:06.468,1771513686468,1771513686468,-0.9614258,-0.18798828,0.17675781,0.12207031,0.18310547,-0.061035156,0.0,0.0,0.0,-46.433716,74.871826,44.18152
2026-02-19 23:08:06.567,1771513686567,1771513686567,-0.96875,-0.19189453,0.16601562,-1.0375977,-1.0375977,0.5493164,0.0,0.0,0.0,-46.263428,74.83887,44.30786
2026-02-19 23:08:06.667,1771513686667,1771513686667,-0.9667969,-0.1899414,0.18359375,0.30517578,-0.30517578,0.061035156,0.0,0.0,0.0,-46.33484,74.86633,44.18152
2026-02-19 23:08:06.767,1771513686767,1771513686767,-0.9633789,-0.1850586,0.1796875,0.48828125,0.79345703,-0.12207031,0.0,0.0,0.0,-46.24695,74.84985,44.26941
2026-02-19 23:08:06.867,1771513686867,1771513686867,-0.9692383,-0.18847656,0.17333984,-0.36621094,-0.061035156,0.12207031,0.0,0.0,0.0,-46.23047,74.85535,44.25293
2026-02-19 23:08:06.966,1771513686966,1771513686966,-0.96435547,-0.1875,0.18359375,-0.061035156,0.061035156,0.061035156,0.0,0.0,0.0,-46.35132,74.88281,44.088135
2026-02-19 23:08:07.066,1771513687066,1771513687066,-0.9633789,-0.18408203,0.18261719,1.0986328,1.7089844,-0.5493164,0.0,0.0,0.0,-46.49414,74.904785,43.917847
2026-02-19 23:08:07.166,1771513687166,1771513687166,-0.96875,-0.18701172,0.1743164,-0.18310547,0.30517578,-0.24414062,0.0,0.0,0.0,-46.587524,74.89929,43.775024
2026-02-19 23:08:07.265,1771513687265,1771513687265,-0.96728516,-0.18945312,0.17919922,-1.3427734,-0.61035156,0.4272461,0.0,0.0,0.0,-46.571045,74.8938,43.75305
2026-02-19 23:08:07.365,1771513687365,1771513687365,-0.96728516,-0.18603516,0.1850586,0.91552734,0.5493164,-0.30517578,0.0,0.0,0.0,-46.49414,74.86633,43.791504
2026-02-19 23:08:07.465,1771513687465,1771513687465,-0.96435547,-0.18701172,0.17041016,0.0,0.5493164,-0.18310547,0.0,0.0,0.0,-46.33484,74.82239,43.93982
2026-02-19 23:08:07.565,1771513687565,1771513687565,-0.96728516,-0.19091797,0.17626953,-0.30517578,-1.0375977,0.061035156,0.0,0.0,0.0,-46.450195,74.82788,43.725586
2026-02-19 23:08:07.664,1771513687664,1771513687664,-0.9609375,-0.18847656,0.1850586,0.6713867,1.7089844,-0.36621094,0.0,0.0,0.0,-46.47766,74.82239,43.68164
2026-02-19 23:08:07.764,1771513687764,1771513687764,-0.96875,-0.19189453,0.16064453,0.8544922,2.0141602,-0.61035156,0.0,0.0,0.0,-46.51062,74.82788,43.588257
2026-02-19 23:08:07.864,1771513687864,1771513687864,-0.96972656,-0.19384766,0.16455078,0.4272461,2.6245117,-0.36621094,0.0,0.0,0.0,-47.406006,74.98169,42.506104
2026-02-19 23:08:07.963,1771513687963,1771513687963,-0.9667969,-0.19140625,0.16552734,0.7324219,2.1972656,-0.61035156,0.0,0.0,0.0,-48.43872,75.15747,41.297607
2026-02-19 23:08:08.063,1771513688063,1771513688063,-0.96972656,-0.18847656,0.1665039,0.9765625,2.4414062,-0.5493164,0.0,0.0,0.0,-49.240723,75.28381,40.303345
2026-02-19 23:08:08.163,1771513688163,1771513688163,-0.96435547,-0.19238281,0.1640625,2.319336,2.9296875,-0.9765625,0.0,0.0,0.0,-49.89441,75.3772,39.42993
2026-02-19 23:08:08.263,1771513688263,1771513688263,-0.96972656,-0.1953125,0.15039062,0.61035156,2.380371,-0.61035156,0.0,0.0,0.0,-50.67993,75.46509,38.413696
2026-02-19 23:08:08.362,1771513688362,1771513688362,-0.9716797,-0.19580078,0.15234375,0.5493164,2.380371,-0.36621094,0.0,0.0,0.0,-51.536865,75.580444,37.369995
2026-02-19 23:08:08.462,1771513688462,1771513688462,-0.96728516,-0.19482422,0.14746094,0.7324219,1.7089844,-0.36621094,0.0,0.0,0.0,-52.08069,75.651855,36.688843
2026-02-19 23:08:08.562,1771513688562,1771513688562,-0.97558594,-0.1953125,0.14355469,0.18310547,1.2207031,-0.18310547,0.0,0.0,0.0,-52.64099,75.71228,35.97473
2026-02-19 23:08:08.662,1771513688662,1771513688662,-0.96777344,-0.19384766,0.14648438,0.30517578,1.3427734,-0.24414062,0.0,0.0,0.0,-53.1958,75.7782,35.304565
2026-02-19 23:08:08.761,1771513688761,1771513688761,-0.96875,-0.1928711,0.14501953,0.18310547,0.36621094,-0.12207031,0.0,0.0,0.0,-53.415527,75.81116,35.013428
2026-02-19 23:08:08.861,1771513688861,1771513688861,-0.97265625,-0.19580078,0.14208984,0.24414062,0.36621094,-0.30517578,0.0,0.0,0.0,-53.547363,75.81665,34.7937
2026-02-19 23:08:08.961,1771513688961,1771513688961,-0.9663086,-0.19873047,0.14453125,0.5493164,-0.30517578,-0.12207031,0.0,0.0,0.0,-53.519897,75.81116,34.799194
2026-02-19 23:08:09.061,1771513689061,1771513689061,-0.9741211,-0.19921875,0.13720703,-0.8544922,-0.79345703,0.12207031,0.0,0.0,0.0,-53.256226,75.772705,35.06836
2026-02-19 23:08:09.160,1771513689160,1771513689160,-0.97314453,-0.1977539,0.14550781,-0.4272461,-0.6713867,0.4272461,0.0,0.0,0.0,-53.151855,75.772705,35.167236
2026-02-19 23:08:09.260,1771513689260,1771513689260,-0.96533203,-0.19433594,0.14355469,-0.12207031,-1.0986328,0.4272461,0.0,0.0,0.0,-52.72888,75.73425,35.60669
2026-02-19 23:08:09.360,1771513689360,1771513689360,-0.97216797,-0.19384766,0.14453125,-0.91552734,-2.1972656,0.5493164,0.0,0.0,0.0,-52.25647,75.67932,36.123047
2026-02-19 23:08:09.459,1771513689459,1771513689459,-0.96728516,-0.19238281,0.1538086,-0.4272461,-1.5258789,0.30517578,0.0,0.0,0.0,-51.78955,75.6134,36.655884
2026-02-19 23:08:09.559,1771513689559,1771513689559,-0.96875,-0.19091797,0.15332031,-0.30517578,-1.8310547,0.18310547,0.0,0.0,0.0,-51.157837,75.51453,37.386475
2026-02-19 23:08:09.659,1771513689659,1771513689659,-0.96875,-0.1928711,0.15917969,-0.24414062,-1.6479492,0.12207031,0.0,0.0,0.0,-50.652466,75.43213,37.963257
2026-02-19 23:08:09.759,1771513689759,1771513689759,-0.9682617,-0.1928711,0.16113281,-0.061035156,-0.79345703,0.24414062,0.0,0.0,0.0,-50.20752,75.36621,38.518066
2026-02-19 23:08:09.858,1771513689858,1771513689858,-0.9692383,-0.19042969,0.16796875,-1.159668,-1.0375977,0.30517578,0.0,0.0,0.0,-49.94934,75.31677,38.847656
2026-02-19 23:08:09.958,1771513689958,1771513689958,-0.9663086,-0.18847656,0.16455078,-0.7324219,-0.36621094,0.36621094,0.0,0.0,0.0,-49.49341,75.26184,39.46289
2026-02-19 23:08:10.058,1771513690058,1771513690058,-0.9711914,-0.19238281,0.16308594,-1.0986328,-1.4648438,0.6713867,0.0,0.0,0.0,-49.16931,75.23987,39.8584
2026-02-19 23:08:10.157,1771513690157,1771513690157,-0.96533203,-0.18896484,0.1694336,-0.36621094,-0.5493164,0.24414062,0.0,0.0,0.0,-48.867188,75.2124,40.2594
2026-02-19 23:08:10.257,1771513690257,1771513690257,-0.96875,-0.18847656,0.16259766,-0.4272461,-0.9765625,0.30517578,0.0,0.0,0.0,-48.38379,75.15198,40.88562
2026-02-19 23:08:10.357,1771513690357,1771513690357,-0.96777344,-0.19042969,0.17041016,-0.30517578,-0.8544922,0.18310547,0.0,0.0,0.0,-48.169556,75.12451,41.138306
2026-02-19 23:08:10.457,1771513690457,1771513690457,-0.96728516,-0.1899414,0.17138672,-0.30517578,-0.91552734,0.12207031,0.0,0.0,0.0,-47.850952,75.06958,41.517334
2026-02-19 23:08:10.556,1771513690556,1771513690556,-0.9692383,-0.1899414,0.16699219,-0.061035156,-0.91552734,0.18310547,0.0,0.0,0.0,-47.576294,75.02014,41.80298
2026-02-19 23:08:10.656,1771513690656,1771513690656,-0.96191406,-0.19091797,0.17138672,-0.061035156,-0.7324219,0.0,0.0,0.0,0.0,-47.416992,74.98718,41.951294
2026-02-19 23:08:10.756,1771513690756,1771513690756,-0.9711914,-0.19140625,0.16748047,-1.2817383,-2.319336,0.79345703,0.0,0.0,0.0,-47.15332,74.94324,42.209473
2026-02-19 23:08:10.856,1771513690856,1771513690856,-0.9663086,-0.18847656,0.18017578,0.4272461,0.061035156,0.0,0.0,0.0,0.0,-47.01599,74.937744,42.352295
2026-02-19 23:08:10.955,1771513690955,1771513690955,-0.9638672,-0.1875,0.17285156,0.0,-0.18310547,0.18310547,0.0,0.0,0.0,-46.779785,74.904785,42.615967
2026-02-19 23:08:11.055,1771513691055,1771513691055,-0.96777344,-0.18945312,0.17578125,-0.61035156,-0.48828125,0.30517578,0.0,0.0,0.0,-46.73584,74.904785,42.648926
2026-02-19 23:08:11.155,1771513691155,1771513691155,-0.96533203,-0.18701172,0.1796875,-0.18310547,0.30517578,0.061035156,0.0,0.0,0.0,-46.730347,74.91028,42.65442
2026-02-19 23:08:11.254,1771513691254,1771513691254,-0.96533203,-0.18701172,0.17626953,-0.24414062,-0.18310547,0.12207031,0.0,0.0,0.0,-46.697388,74.91028,42.681885
2026-02-19 23:08:11.354,1771513691354,1771513691354,-0.9667969,-0.18701172,0.17822266,0.24414062,0.4272461,-0.061035156,0.0,0.0,0.0,-46.70288,74.91577,42.65442
2026-02-19 23:08:11.454,1771513691454,1771513691454,-0.96533203,-0.18603516,0.18164062,0.061035156,0.61035156,0.0,0.0,0.0,0.0,-46.741333,74.92676,42.583008
2026-02-19 23:08:11.553,1771513691553,1771513691553,-0.9663086,-0.18457031,0.18310547,0.0,0.30517578,-0.12207031,0.0,0.0,0.0,-46.78528,74.92676,42.478638
2026-02-19 23:08:11.653,1771513691653,1771513691653,-0.9663086,-0.18603516,0.1743164,0.30517578,0.91552734,-0.061035156,0.0,0.0,0.0,-46.66443,74.91028,42.593994
2026-02-19 23:08:11.754,1771513691754,1771513691754,-0.9711914,-0.1928711,0.17041016,0.18310547,0.0,0.061035156,0.0,0.0,0.0,-46.741333,74.94324,42.4292
2026-02-19 23:08:11.853,1771513691853,1771513691853,-0.96728516,-0.18896484,0.17236328,1.159668,1.0986328,-0.48828125,0.0,0.0,0.0,-46.97754,74.9707,42.105103
2026-02-19 23:08:11.953,1771513691953,1771513691953,-0.9663086,-0.18798828,0.16845703,1.2207031,2.5634766,-0.61035156,0.0,0.0,0.0,-47.367554,75.03662,41.605225
2026-02-19 23:08:12.052,1771513692052,1771513692052,-0.9692383,-0.18847656,0.16992188,0.5493164,1.159668,-0.4272461,0.0,0.0,0.0,-48.048706,75.14099,40.737305
2026-02-19 23:08:12.152,1771513692152,1771513692152,-0.9667969,-0.1875,0.16845703,1.4038086,1.7700195,-0.79345703,0.0,0.0,0.0,-48.52112,75.19592,40.094604
2026-02-19 23:08:12.252,1771513692252,1771513692252,-0.96972656,-0.19140625,0.16259766,0.61035156,1.159668,-0.5493164,0.0,0.0,0.0,-49.02649,75.23987,39.396973
2026-02-19 23:08:12.351,1771513692351,1771513692351,-0.9638672,-0.19189453,0.16992188,1.5869141,2.2583008,-0.8544922,0.0,0.0,0.0,-49.553833,75.28931,38.704834
2026-02-19 23:08:12.451,1771513692451,1771513692451,-0.9692383,-0.19384766,0.15185547,0.5493164,2.4414062,-0.5493164,0.0,0.0,0.0,-50.092163,75.34424,38.01819
2026-02-19 23:08:12.551,1771513692551,1771513692551,-0.97216797,-0.19482422,0.15820312,0.5493164,1.7700195,-0.24414062,0.0,0.0,0.0,-50.88867,75.46509,37.02942
2026-02-19 23:08:12.651,1771513692651,1771513692651,-0.9692383,-0.19335938,0.15332031,1.0375977,2.4414062,-0.24414062,0.0,0.0,0.0,-51.40503,75.547485,36.37024
2026-02-19 23:08:12.750,1771513692750,1771513692750,-0.9707031,-0.19433594,0.14355469,0.0,1.8310547,-0.061035156,0.0,0.0,0.0,-52.03125,75.66284,35.628662
2026-02-19 23:08:12.850,1771513692850,1771513692850,-0.96875,-0.19384766,0.14941406,0.4272461,1.5869141,-0.30517578,0.0,0.0,0.0,-52.662964,75.75073,34.88159
2026-02-19 23:08:12.950,1771513692950,1771513692950,-0.96875,-0.19091797,0.14746094,0.18310547,0.5493164,-0.12207031,0.0,0.0,0.0,-52.965088,75.789185,34.524536
2026-02-19 23:08:13.050,1771513693050,1771513693050,-0.96972656,-0.19238281,0.15136719,0.12207031,-0.061035156,-0.061035156,0.0,0.0,0.0,-53.041992,75.80017,34.370728
2026-02-19 23:08:13.149,1771513693149,1771513693149,-0.96777344,-0.1928711,0.15283203,-0.36621094,-0.5493164,0.12207031,0.0,0.0,0.0,-52.910156,75.7782,34.48059
2026-02-19 23:08:13.249,1771513693249,1771513693249,-0.97216797,-0.19189453,0.15283203,-0.30517578,-0.9765625,0.12207031,0.0,0.0,0.0,-52.48169,75.71228,34.89258
2026-02-19 23:08:13.353,1771513693353,1771513693353,-0.96875,-0.19140625,0.14990234,-0.18310547,-0.91552734,0.36621094,0.0,0.0,0.0,-52.1521,75.66284,35.24414
2026-02-19 23:08:13.448,1771513693448,1771513693448,-0.9707031,-0.19238281,0.15136719,-0.30517578,-1.8310547,0.36621094,0.0,0.0,0.0,-51.679688,75.60791,35.738525
2026-02-19 23:08:13.548,1771513693548,1771513693548,-0.9682617,-0.19238281,0.15673828,0.18310547,-0.8544922,0.12207031,0.0,0.0,0.0,-51.185303,75.54199,36.28784
2026-02-19 23:08:13.648,1771513693648,1771513693648,-0.96875,-0.19238281,0.14990234,-0.061035156,-0.8544922,0.0,0.0,0.0,0.0,-50.646973,75.46509,36.936035
2026-02-19 23:08:13.748,1771513693748,1771513693748,-0.96972656,-0.1928711,0.15673828,-0.9765625,-1.953125,0.36621094,0.0,0.0,0.0,-50.213013,75.39368,37.435913
2026-02-19 23:08:13.847,1771513693847,1771513693847,-0.9682617,-0.19384766,0.15966797,-0.7324219,-1.6479492,0.36621094,0.0,0.0,0.0,-49.866943,75.34424,37.8479
2026-02-19 23:08:13.947,1771513693947,1771513693947,-0.96777344,-0.19091797,0.1616211,-0.48828125,-0.79345703,0.30517578,0.0,0.0,0.0,-49.61975,75.31128,38.188477
2026-02-19 23:08:14.047,1771513694047,1771513694047,-0.96728516,-0.19335938,0.16113281,-0.36621094,-0.8544922,0.18310547,0.0,0.0,0.0,-49.383545,75.28931,38.52356
2026-02-19 23:08:14.147,1771513694147,1771513694147,-0.97021484,-0.19140625,0.16601562,-0.9765625,-1.3427734,0.4272461,0.0,0.0,0.0,-49.246216,75.267334,38.7323
2026-02-19 23:08:14.246,1771513694246,1771513694246,-0.96533203,-0.18554688,0.16992188,0.48828125,0.4272461,0.0,0.0,0.0,0.0,-48.92212,75.24536,39.18274
2026-02-19 23:08:14.346,1771513694346,1771513694346,-0.9692383,-0.19042969,0.1640625,-0.6713867,-1.4038086,0.36621094,0.0,0.0,0.0,-48.52112,75.19592,39.6167
2026-02-19 23:08:14.445,1771513694445,1771513694445,-0.96972656,-0.1899414,0.17578125,-0.061035156,-1.7700195,0.36621094,0.0,0.0,0.0,-48.240967,75.15198,39.88037
2026-02-19 23:08:14.545,1771513694545,1771513694545,-0.9682617,-0.18798828,0.16601562,0.24414062,-0.79345703,0.061035156,0.0,0.0,0.0,-47.625732,75.042114,40.53955
2026-02-19 23:08:14.645,1771513694645,1771513694645,-0.96777344,-0.18847656,0.17480469,-0.18310547,-0.8544922,0.12207031,0.0,0.0,0.0,-47.455444,75.009155,40.737305
2026-02-19 23:08:14.744,1771513694744,1771513694744,-0.96728516,-0.1899414,0.17382812,0.18310547,-0.36621094,0.0,0.0,0.0,0.0,-47.208252,74.9707,40.98999
2026-02-19 23:08:14.844,1771513694844,1771513694844,-0.9667969,-0.19042969,0.17138672,0.0,-0.61035156,0.061035156,0.0,0.0,0.0,-47.037964,74.93225,41.154785
2026-02-19 23:08:14.944,1771513694944,1771513694944,-0.96435547,-0.19335938,0.17333984,0.12207031,-0.24414062,-0.12207031,0.0,0.0,0.0,-46.988525,74.91577,41.187744
2026-02-19 23:08:15.044,1771513695044,1771513695044,-0.9707031,-0.18896484,0.17626953,-0.24414062,-1.2207031,0.12207031,0.0,0.0,0.0,-46.939087,74.888306,41.176758
2026-02-19 23:08:15.143,1771513695143,1771513695143,-0.9633789,-0.18701172,0.18359375,1.2207031,0.8544922,-0.24414062,0.0,0.0,0.0,-46.845703,74.87732,41.253662
2026-02-19 23:08:15.244,1771513695244,1771513695244,-0.96533203,-0.1875,0.1743164,-0.18310547,0.061035156,0.18310547,0.0,0.0,0.0,-46.691895,74.86084,41.380005
2026-02-19 23:08:15.343,1771513695343,1771513695343,-0.96728516,-0.18945312,0.17529297,-0.5493164,-0.48828125,0.24414062,0.0,0.0,0.0,-46.675415,74.86633,41.358032
2026-02-19 23:08:15.442,1771513695442,1771513695442,-0.96484375,-0.1875,0.1796875,0.12207031,0.30517578,-0.061035156,0.0,0.0,0.0,-46.6864,74.86633,41.341553
2026-02-19 23:08:15.542,1771513695542,1771513695542,-0.9667969,-0.18701172,0.17626953,0.061035156,0.0,-0.061035156,0.0,0.0,0.0,-46.642456,74.86084,41.363525
2026-02-19 23:08:15.642,1771513695642,1771513695642,-0.9667969,-0.18945312,0.17675781,-0.12207031,0.0,-0.18310547,0.0,0.0,0.0,-46.625977,74.84436,41.33606
2026-02-19 23:08:15.742,1771513695742,1771513695742,-0.96728516,-0.19042969,0.17333984,0.061035156,0.0,0.0,0.0,0.0,0.0,-46.66443,74.83887,41.253662
2026-02-19 23:08:15.841,1771513695841,1771513695841,-0.9614258,-0.19140625,0.17382812,-0.061035156,-0.12207031,0.0,0.0,0.0,0.0,-46.71936,74.84985,41.1438
2026-02-19 23:08:15.941,1771513695941,1771513695941,-0.97021484,-0.19140625,0.16845703,-0.79345703,-0.5493164,0.36621094,0.0,0.0,0.0,-46.68091,74.84436,41.16028
2026-02-19 23:08:16.041,1771513696041,1771513696041,-0.96533203,-0.18798828,0.18310547,1.5869141,2.6855469,-0.48828125,0.0,0.0,0.0,-47.18628,74.94873,40.561523
2026-02-19 23:08:16.140,1771513696140,1771513696140,-0.96533203,-0.18701172,0.16992188,1.0375977,3.3569336,-0.4272461,0.0,0.0,0.0,-47.67517,75.05859,40.0177
2026-02-19 23:08:16.240,1771513696240,1771513696240,-0.9711914,-0.19384766,0.1586914,0.12207031,1.3427734,-0.24414062,0.0,0.0,0.0,-48.30139,75.162964,39.204712
2026-02-19 23:08:16.340,1771513696340,1771513696340,-0.9667969,-0.18945312,0.1694336,0.7324219,1.159668,-0.12207031,0.0,0.0,0.0,-48.883667,75.26184,38.47412
2026-02-19 23:08:16.440,1771513696440,1771513696440,-0.96777344,-0.18945312,0.16308594,0.8544922,1.2207031,-0.4272461,0.0,0.0,0.0,-49.05945,75.28381,38.17749
2026-02-19 23:08:16.539,1771513696539,1771513696539,-0.9682617,-0.19189453,0.16259766,0.4272461,1.3427734,-0.4272461,0.0,0.0,0.0,-49.42749,75.322266,37.650146
2026-02-19 23:08:16.640,1771513696640,1771513696640,-0.96972656,-0.19189453,0.15771484,0.12207031,1.4038086,-0.30517578,0.0,0.0,0.0,-49.833984,75.36621,37.128296
2026-02-19 23:08:16.739,1771513696739,1771513696739,-0.9716797,-0.19042969,0.16259766,0.6713867,1.8920898,-0.36621094,0.0,0.0,0.0,-50.317383,75.443115,36.51306
2026-02-19 23:08:16.838,1771513696838,1771513696838,-0.96484375,-0.1899414,0.15527344,1.0375977,3.2348633,-0.4272461,0.0,0.0,0.0,-50.960083,75.5365,35.771484
2026-02-19 23:08:16.938,1771513696938,1771513696938,-0.9711914,-0.19140625,0.15234375,0.24414062,1.3427734,0.0,0.0,0.0,0.0,-51.514893,75.635376,35.10132
2026-02-19 23:08:17.038,1771513697038,1771513697038,-0.96875,-0.19238281,0.15039062,0.30517578,1.7700195,-0.12207031,0.0,0.0,0.0,-51.92688,75.71228,34.56848
2026-02-19 23:08:17.138,1771513697138,1771513697138,-0.96972656,-0.1928711,0.14404297,0.8544922,2.2583008,-0.4272461,0.0,0.0,0.0,-52.421265,75.79468,33.980713
2026-02-19 23:08:17.237,1771513697237,1771513697237,-0.9707031,-0.1928711,0.14697266,-0.12207031,0.91552734,-0.12207031,0.0,0.0,0.0,-52.822266,75.84961,33.519287
2026-02-19 23:08:17.337,1771513697337,1771513697337,-0.96972656,-0.19238281,0.14453125,0.36621094,0.36621094,-0.18310547,0.0,0.0,0.0,-52.904663,75.8551,33.37097
2026-02-19 23:08:17.437,1771513697437,1771513697437,-0.9692383,-0.19238281,0.14648438,0.0,-0.61035156,-0.061035156,0.0,0.0,0.0,-52.783813,75.82764,33.46985
2026-02-19 23:08:17.537,1771513697537,1771513697537,-0.96972656,-0.19433594,0.14892578,0.12207031,-0.79345703,0.0,0.0,0.0,0.0,-52.564087,75.78369,33.684082
2026-02-19 23:08:17.637,1771513697637,1771513697637,-0.9741211,-0.1953125,0.14648438,-0.9765625,-1.4038086,0.12207031,0.0,0.0,0.0,-52.19055,75.71228,34.04663
2026-02-19 23:08:17.736,1771513697736,1771513697736,-0.97021484,-0.19140625,0.15429688,0.0,-0.8544922,0.0,0.0,0.0,0.0,-51.987305,75.67383,34.260864
2026-02-19 23:08:17.836,1771513697836,1771513697836,-0.96875,-0.19238281,0.15527344,-0.18310547,-1.7089844,0.0,0.0,0.0,0.0,-51.59729,75.60242,34.656372
2026-02-19 23:08:17.935,1771513697935,1771513697935,-0.9692383,-0.19042969,0.1586914,0.12207031,-1.0986328,0.061035156,0.0,0.0,0.0,-51.102905,75.52551,35.20569
2026-02-19 23:08:18.035,1771513698035,1771513698035,-0.96728516,-0.1899414,0.15478516,0.36621094,-0.36621094,-0.061035156,0.0,0.0,0.0,-50.597534,75.44861,35.804443
2026-02-19 23:08:18.135,1771513698135,1771513698135,-0.96875,-0.19189453,0.15820312,-0.61035156,-1.6479492,0.30517578,0.0,0.0,0.0,-50.163574,75.38269,36.293335
2026-02-19 23:08:18.235,1771513698235,1771513698235,-0.96972656,-0.19238281,0.1586914,-0.79345703,-1.4648438,0.30517578,0.0,0.0,0.0,-49.729614,75.31128,36.798706
2026-02-19 23:08:18.334,1771513698334,1771513698334,-0.96972656,-0.19091797,0.16357422,-0.48828125,-1.0375977,0.24414062,0.0,0.0,0.0,-49.542847,75.28381,37.05139
2026-02-19 23:08:18.434,1771513698434,1771513698434,-0.96484375,-0.19482422,0.1616211,-0.18310547,-0.48828125,0.061035156,0.0,0.0,0.0,-49.246216,75.23987,37.408447
2026-02-19 23:08:18.534,1771513698534,1771513698534,-0.97216797,-0.19189453,0.16259766,-1.3427734,-1.8920898,0.61035156,0.0,0.0,0.0,-49.02649,75.201416,37.683105
2026-02-19 23:08:18.634,1771513698634,1771513698634,-0.9663086,-0.18798828,0.17382812,0.48828125,0.7324219,0.0,0.0,0.0,0.0,-48.90564,75.2124,37.91382
2026-02-19 23:08:18.733,1771513698733,1771513698733,-0.9667969,-0.18896484,0.1640625,-1.2817383,-0.9765625,0.61035156,0.0,0.0,0.0,-48.554077,75.17395,38.3313
2026-02-19 23:08:18.833,1771513698833,1771513698833,-0.9707031,-0.18945312,0.16894531,-1.3427734,-1.2817383,0.7324219,0.0,0.0,0.0,-48.372803,75.16846,38.56201
2026-02-19 23:08:18.933,1771513698933,1771513698933,-0.9663086,-0.18798828,0.17089844,0.061035156,0.30517578,-0.061035156,0.0,0.0,0.0,-48.169556,75.146484,38.858643
2026-02-19 23:08:19.033,1771513699033,1771513699033,-0.96777344,-0.18847656,0.16796875,-0.7324219,-1.2207031,0.30517578,0.0,0.0,0.0,-47.889404,75.10254,39.188232
2026-02-19 23:08:19.132,1771513699132,1771513699132,-0.96875,-0.18945312,0.17138672,-0.12207031,-0.91552734,0.061035156,0.0,0.0,0.0,-47.642212,75.05859,39.42444
2026-02-19 23:08:19.232,1771513699232,1771513699232,-0.9692383,-0.19042969,0.16845703,-0.061035156,-0.8544922,0.12207031,0.0,0.0,0.0,-47.406006,75.009155,39.666138
2026-02-19 23:08:19.331,1771513699331,1771513699331,-0.9628906,-0.19238281,0.17382812,0.18310547,-0.18310547,-0.18310547,0.0,0.0,0.0,-47.334595,74.992676,39.726562
2026-02-19 23:08:19.431,1771513699431,1771513699431,-0.9716797,-0.18945312,0.17089844,-0.7324219,-1.953125,0.5493164,0.0,0.0,0.0,-47.142334,74.95422,39.885864
2026-02-19 23:08:19.531,1771513699531,1771513699531,-0.96435547,-0.18603516,0.18310547,1.0375977,0.30517578,-0.061035156,0.0,0.0,0.0,-46.99951,74.94873,40.023193
2026-02-19 23:08:19.631,1771513699631,1771513699631,-0.9658203,-0.18652344,0.17236328,-0.061035156,0.24414062,0.061035156,0.0,0.0,0.0,-46.812744,74.92676,40.204468
2026-02-19 23:08:19.730,1771513699730,1771513699730,-0.9682617,-0.18896484,0.17382812,-0.61035156,-0.8544922,0.36621094,0.0,0.0,0.0,-46.82373,74.937744,40.160522
2026-02-19 23:08:19.830,1771513699830,1771513699830,-0.96533203,-0.18603516,0.17919922,0.12207031,0.48828125,-0.061035156,0.0,0.0,0.0,-46.85669,74.94873,40.111084
2026-02-19 23:08:19.930,1771513699930,1771513699930,-0.9658203,-0.18652344,0.17382812,0.18310547,0.18310547,-0.12207031,0.0,0.0,0.0,-46.818237,74.937744,40.12207
2026-02-19 23:08:20.030,1771513700030,1771513700030,-0.96777344,-0.19042969,0.17382812,-0.061035156,-0.061035156,0.0,0.0,0.0,0.0,-46.812744,74.93225,40.08362
2026-02-19 23:08:20.129,1771513700129,1771513700129,-0.9667969,-0.1899414,0.17138672,0.061035156,0.061035156,0.0,0.0,0.0,0.0,-46.84021,74.937744,40.0177
2026-02-19 23:08:20.229,1771513700229,1771513700229,-0.9628906,-0.19189453,0.17089844,-0.18310547,0.18310547,-0.12207031,0.0,0.0,0.0,-46.96106,74.95422,39.852905
2026-02-19 23:08:20.329,1771513700329,1771513700329,-0.97265625,-0.1899414,0.16748047,-0.18310547,-0.48828125,0.12207031,0.0,0.0,0.0,-47.01599,74.95422,39.743042
2026-02-19 23:08:20.428,1771513700428,1771513700428,-0.9658203,-0.1875,0.17919922,1.5869141,2.9296875,-0.5493164,0.0,0.0,0.0,-47.521362,75.04761,39.105835
2026-02-19 23:08:20.528,1771513700528,1771513700528,-0.9658203,-0.18652344,0.1665039,0.30517578,2.9296875,-0.24414062,0.0,0.0,0.0,-47.977295,75.14099,38.583984
2026-02-19 23:08:20.628,1771513700628,1771513700628,-0.97216797,-0.19140625,0.1586914,0.0,1.2207031,-0.12207031,0.0,0.0,0.0,-48.581543,75.23987,37.81494
2026-02-19 23:08:20.728,1771513700728,1771513700728,-0.9663086,-0.18847656,0.16845703,0.7324219,1.8310547,-0.48828125,0.0,0.0,0.0,-49.23523,75.33325,37.023926
2026-02-19 23:08:20.827,1771513700827,1771513700827,-0.96875,-0.18847656,0.16064453,1.0375977,1.5258789,-0.61035156,0.0,0.0,0.0,-49.61975,75.38269,36.518555
2026-02-19 23:08:20.927,1771513700927,1771513700927,-0.96972656,-0.19091797,0.15966797,0.5493164,1.4038086,-0.4272461,0.0,0.0,0.0,-50.092163,75.43213,35.892334
2026-02-19 23:08:21.027,1771513701027,1771513701027,-0.96972656,-0.19189453,0.15625,0.36621094,1.4648438,-0.4272461,0.0,0.0,0.0,-50.53711,75.476074,35.31006
2026-02-19 23:08:21.127,1771513701127,1771513701127,-0.96875,-0.19091797,0.16015625,1.0375977,1.8310547,-0.36621094,0.0,0.0,0.0,-51.00952,75.531006,34.700317
2026-02-19 23:08:21.226,1771513701226,1771513701226,-0.96777344,-0.19238281,0.14648438,0.61035156,2.1362305,-0.24414062,0.0,0.0,0.0,-51.470947,75.596924,34.151
2026-02-19 23:08:21.326,1771513701326,1771513701326,-0.97265625,-0.19384766,0.15136719,0.0,0.9765625,0.061035156,0.0,0.0,0.0,-51.965332,75.69031,33.55774
2026-02-19 23:08:21.426,1771513701426,1771513701426,-0.9667969,-0.19238281,0.14746094,0.7324219,0.9765625,-0.18310547,0.0,0.0,0.0,-52.218018,75.73425,33.217163
2026-02-19 23:08:21.525,1771513701525,1771513701525,-0.9707031,-0.19384766,0.1430664,0.30517578,0.5493164,-0.18310547,0.0,0.0,0.0,-52.41028,75.756226,32.964478
2026-02-19 23:08:21.625,1771513701625,1771513701625,-0.96875,-0.19238281,0.1508789,0.0,0.0,-0.061035156,0.0,0.0,0.0,-52.53662,75.76721,32.783203
2026-02-19 23:08:21.725,1771513701725,1771513701725,-0.96777344,-0.19189453,0.14990234,0.0,-0.61035156,0.0,0.0,0.0,0.0,-52.34436,75.72876,32.942505
2026-02-19 23:08:21.824,1771513701824,1771513701824,-0.96875,-0.19238281,0.15136719,-0.4272461,-1.0375977,0.30517578,0.0,0.0,0.0,-52.025757,75.67932,33.250122
2026-02-19 23:08:21.924,1771513701924,1771513701924,-0.9707031,-0.19335938,0.15332031,-0.4272461,-1.2207031,0.18310547,0.0,0.0,0.0,-51.635742,75.62439,33.67859
2026-02-19 23:08:22.024,1771513702024,1771513702024,-0.9667969,-0.18847656,0.15673828,0.0,-1.4038086,0.18310547,0.0,0.0,0.0,-51.19629,75.547485,34.140015
2026-02-19 23:08:22.123,1771513702123,1771513702123,-0.96875,-0.19140625,0.14990234,-0.5493164,-1.2817383,0.24414062,0.0,0.0,0.0,-50.76233,75.476074,34.67285
2026-02-19 23:08:22.223,1771513702223,1771513702223,-0.96875,-0.1928711,0.16015625,-0.061035156,-1.5869141,0.24414062,0.0,0.0,0.0,-50.421753,75.43213,35.029907
2026-02-19 23:08:22.323,1771513702323,1771513702323,-0.96777344,-0.19238281,0.16064453,0.0,-0.48828125,0.0,0.0,0.0,0.0,-49.954834,75.355225,35.55725
2026-02-19 23:08:22.423,1771513702423,1771513702423,-0.96972656,-0.19482422,0.15527344,-0.91552734,-1.5869141,0.24414062,0.0,0.0,0.0,-49.559326,75.27832,36.02417
2026-02-19 23:08:22.522,1771513702522,1771513702522,-0.96777344,-0.19140625,0.16894531,-0.9765625,-1.2817383,0.4272461,0.0,0.0,0.0,-49.350586,75.23987,36.309814
2026-02-19 23:08:22.622,1771513702622,1771513702622,-0.9682617,-0.18945312,0.16796875,-0.36621094,-0.9765625,0.4272461,0.0,0.0,0.0,-48.949585,75.201416,36.798706
2026-02-19 23:08:22.722,1771513702722,1771513702722,-0.9682617,-0.1899414,0.16992188,-0.79345703,-1.5258789,0.61035156,0.0,0.0,0.0,-48.47168,75.146484,37.353516
2026-02-19 23:08:22.822,1771513702822,1771513702822,-0.9682617,-0.1899414,0.16357422,-0.5493164,-1.2207031,0.5493164,0.0,0.0,0.0,-47.84546,75.06958,38.0896
2026-02-19 23:08:22.921,1771513702921,1771513702921,-0.96435547,-0.18945312,0.17089844,-0.4272461,-1.4648438,0.24414062,0.0,0.0,0.0,-47.510376,75.01465,38.485107
2026-02-19 23:08:23.021,1771513703021,1771513703021,-0.9711914,-0.18798828,0.17285156,-1.0986328,-2.9907227,0.79345703,0.0,0.0,0.0,-47.010498,74.92676,39.023438
2026-02-19 23:08:23.121,1771513703121,1771513703121,-0.9658203,-0.18896484,0.17871094,0.48828125,-1.7700195,0.30517578,0.0,0.0,0.0,-46.21399,74.8114,39.8584
2026-02-19 23:08:23.221,1771513703221,1771513703221,-0.96435547,-0.18847656,0.1821289,0.24414062,-0.24414062,0.12207031,0.0,0.0,0.0,-45.829468,74.74548,40.308838
2026-02-19 23:08:23.321,1771513703321,1771513703321,-0.9667969,-0.18945312,0.17529297,-0.24414062,-0.4272461,0.18310547,0.0,0.0,0.0,-45.703125,74.71802,40.424194
2026-02-19 23:08:23.420,1771513703420,1771513703420,-0.96533203,-0.18652344,0.18603516,-0.12207031,0.0,0.12207031,0.0,0.0,0.0,-45.70862,74.71802,40.407715
2026-02-19 23:08:23.520,1771513703520,1771513703520,-0.96484375,-0.18603516,0.18310547,0.0,-0.061035156,0.0,0.0,0.0,0.0,-45.604248,74.696045,40.490112
2026-02-19 23:08:23.620,1771513703620,1771513703620,-0.96533203,-0.1875,0.18261719,-0.061035156,0.0,-0.061035156,0.0,0.0,0.0,-45.55481,74.68506,40.5011
2026-02-19 23:08:23.719,1771513703719,1771513703719,-0.9663086,-0.18896484,0.17919922,0.12207031,0.24414062,0.0,0.0,0.0,0.0,-45.59326,74.69055,40.4187
2026-02-19 23:08:23.819,1771513703819,1771513703819,-0.96191406,-0.18896484,0.17626953,-0.18310547,0.0,-0.061035156,0.0,0.0,0.0,-45.69214,74.70703,40.27588
2026-02-19 23:08:23.918,1771513703918,1771513703918,-0.97021484,-0.1899414,0.17333984,-0.4272461,-0.48828125,0.24414062,0.0,0.0,0.0,-45.725098,74.70703,40.198975
2026-02-19 23:08:24.018,1771513704018,1771513704018,-0.9638672,-0.18945312,0.18603516,1.5258789,1.8920898,-0.48828125,0.0,0.0,0.0,-46.159058,74.78943,39.63867
2026-02-19 23:08:24.118,1771513704118,1771513704118,-0.9638672,-0.1850586,0.17773438,0.9765625,3.479004,-0.48828125,0.0,0.0,0.0,-46.675415,74.8938,39.02893
2026-02-19 23:08:24.218,1771513704218,1771513704218,-0.96875,-0.19042969,0.17089844,0.36621094,1.5258789,-0.4272461,0.0,0.0,0.0,-47.422485,75.01465,38.062134
2026-02-19 23:08:24.318,1771513704318,1771513704318,-0.9658203,-0.18847656,0.17138672,0.8544922,2.5024414,-0.48828125,0.0,0.0,0.0,-48.048706,75.113525,37.27661
2026-02-19 23:08:24.417,1771513704417,1771513704417,-0.9667969,-0.1899414,0.1665039,1.0375977,2.0751953,-0.61035156,0.0,0.0,0.0,-48.702393,75.20691,36.44165
2026-02-19 23:08:24.517,1771513704517,1771513704517,-0.96777344,-0.19335938,0.16259766,0.5493164,2.1362305,-0.48828125,0.0,0.0,0.0,-49.262695,75.28381,35.69458
2026-02-19 23:08:24.616,1771513704616,1771513704616,-0.96777344,-0.19140625,0.15771484,0.5493164,1.4648438,-0.48828125,0.0,0.0,0.0,-49.72412,75.338745,35.10132
2026-02-19 23:08:24.716,1771513704716,1771513704716,-0.9682617,-0.19042969,0.1640625,0.91552734,2.319336,-0.4272461,0.0,0.0,0.0,-50.273438,75.41565,34.414673
2026-02-19 23:08:24.816,1771513704816,1771513704816,-0.96728516,-0.19140625,0.14941406,0.8544922,3.0517578,-0.61035156,0.0,0.0,0.0,-50.927124,75.50903,33.673096
2026-02-19 23:08:24.916,1771513704916,1771513704916,-0.97021484,-0.19335938,0.15136719,-0.061035156,1.2207031,-0.061035156,0.0,0.0,0.0,-51.591797,75.6134,32.887573
2026-02-19 23:08:25.015,1771513705015,1771513705015,-0.9711914,-0.1928711,0.14941406,0.18310547,1.5258789,-0.30517578,0.0,0.0,0.0,-51.99829,75.668335,32.387695
2026-02-19 23:08:25.115,1771513705115,1771513705115,-0.9692383,-0.1953125,0.1430664,0.61035156,1.2817383,-0.4272461,0.0,0.0,0.0,-52.49817,75.73425,31.794434
2026-02-19 23:08:25.215,1771513705215,1771513705215,-0.9707031,-0.1928711,0.1484375,-0.48828125,-0.061035156,0.0,0.0,0.0,0.0,-52.77832,75.756226,31.470337
2026-02-19 23:08:25.315,1771513705315,1771513705315,-0.9692383,-0.19238281,0.14941406,0.36621094,-0.4272461,0.0,0.0,0.0,0.0,-52.635498,75.73425,31.602173
2026-02-19 23:08:25.414,1771513705414,1771513705414,-0.96972656,-0.19238281,0.15234375,0.0,-0.4272461,0.0,0.0,0.0,0.0,-52.3938,75.701294,31.8219
2026-02-19 23:08:25.514,1771513705514,1771513705514,-0.9711914,-0.19238281,0.14794922,-0.8544922,-1.4038086,0.061035156,0.0,0.0,0.0,-52.020264,75.62439,32.2229
2026-02-19 23:08:25.614,1771513705614,1771513705614,-0.96484375,-0.18896484,0.16015625,0.36621094,-1.0986328,0.0,0.0,0.0,0.0,-51.690674,75.55847,32.55249
2026-02-19 23:08:25.713,1771513705713,1771513705713,-0.9692383,-0.19433594,0.14648438,-0.18310547,-0.5493164,0.12207031,0.0,0.0,0.0,-51.168823,75.476074,33.173218
2026-02-19 23:08:25.814,1771513705814,1771513705814,-0.9711914,-0.19580078,0.15332031,-0.8544922,-2.4414062,0.61035156,0.0,0.0,0.0,-50.734863,75.42114,33.634644
2026-02-19 23:08:25.913,1771513705913,1771513705913,-0.9692383,-0.1928711,0.16113281,-0.24414062,-1.2207031,0.4272461,0.0,0.0,0.0,-50.32837,75.371704,34.09607
2026-02-19 23:08:26.013,1771513706013,1771513706013,-0.97021484,-0.19335938,0.15429688,-0.5493164,-1.3427734,0.36621094,0.0,0.0,0.0,-49.866943,75.31128,34.639893
2026-02-19 23:08:26.113,1771513706113,1771513706113,-0.9682617,-0.19189453,0.16503906,-0.8544922,-1.5258789,0.4272461,0.0,0.0,0.0,-49.575806,75.27283,35.00244
2026-02-19 23:08:26.212,1771513706212,1771513706212,-0.9663086,-0.1899414,0.16455078,-0.5493164,-1.3427734,0.36621094,0.0,0.0,0.0,-49.070435,75.19592,35.601196
2026-02-19 23:08:26.312,1771513706312,1771513706312,-0.96728516,-0.19042969,0.17041016,-0.6713867,-0.91552734,0.24414062,0.0,0.0,0.0,-48.762817,75.15198,35.99121
2026-02-19 23:08:26.412,1771513706412,1771513706412,-0.9682617,-0.19140625,0.1665039,-1.0375977,-1.159668,0.4272461,0.0,0.0,0.0,-48.345337,75.09155,36.49109
2026-02-19 23:08:26.511,1771513706511,1771513706511,-0.9658203,-0.18798828,0.17480469,0.0,-0.6713867,0.18310547,0.0,0.0,0.0,-48.114624,75.04761,36.749268
2026-02-19 23:08:26.611,1771513706611,1771513706611,-0.9692383,-0.19091797,0.16210938,-1.4038086,-1.953125,0.8544922,0.0,0.0,0.0,-47.504883,74.95422,37.441406
2026-02-19 23:08:26.711,1771513706711,1771513706711,-0.9663086,-0.19140625,0.17675781,-0.48828125,-1.4038086,0.5493164,0.0,0.0,0.0,-47.279663,74.937744,37.644653
2026-02-19 23:08:26.810,1771513706810,1771513706810,-0.9658203,-0.18847656,0.17626953,0.30517578,0.79345703,0.12207031,0.0,0.0,0.0,-47.15332,74.94873,37.825928
2026-02-19 23:08:26.910,1771513706910,1771513706910,-0.9692383,-0.18945312,0.17041016,-0.79345703,-0.5493164,0.36621094,0.0,0.0,0.0,-47.076416,74.95422,37.93579
2026-02-19 23:08:27.010,1771513707010,1771513707010,-0.9658203,-0.18847656,0.1772461,-0.061035156,0.12207031,0.061035156,0.0,0.0,0.0,-47.037964,74.94873,37.990723
2026-02-19 23:08:27.110,1771513707110,1771513707110,-0.9658203,-0.1875,0.1743164,-0.18310547,-0.5493164,0.12207031,0.0,0.0,0.0,-46.845703,74.921265,38.199463
2026-02-19 23:08:27.209,1771513707209,1771513707209,-0.9663086,-0.18847656,0.1772461,0.0,0.12207031,-0.061035156,0.0,0.0,0.0,-46.79077,74.91028,38.237915
2026-02-19 23:08:27.309,1771513707309,1771513707309,-0.9667969,-0.18896484,0.1743164,-0.61035156,0.12207031,0.12207031,0.0,0.0,0.0,-46.78528,74.91028,38.21045
2026-02-19 23:08:27.409,1771513707409,1771513707409,-0.96728516,-0.1875,0.17871094,-0.12207031,0.12207031,0.0,0.0,0.0,0.0,-46.851196,74.91577,38.10608
2026-02-19 23:08:27.509,1771513707509,1771513707509,-0.9682617,-0.18847656,0.16748047,-0.61035156,-0.48828125,0.30517578,0.0,0.0,0.0,-46.730347,74.89929,38.221436
2026-02-19 23:08:27.608,1771513707608,1771513707608,-0.96728516,-0.1899414,0.17578125,0.12207031,-0.12207031,-0.061035156,0.0,0.0,0.0,-46.78528,74.91028,38.084106
2026-02-19 23:08:27.708,1771513707708,1771513707708,-0.96533203,-0.18701172,0.17773438,0.48828125,0.061035156,-0.18310547,0.0,0.0,0.0,-46.79077,74.89929,38.034668
2026-02-19 23:08:27.807,1771513707807,1771513707807,-0.96875,-0.18896484,0.17333984,0.18310547,0.61035156,-0.12207031,0.0,0.0,0.0,-46.834717,74.89929,37.957764
2026-02-19 23:08:27.907,1771513707907,1771513707907,-0.96972656,-0.19091797,0.16992188,0.5493164,3.6010742,-0.36621094,0.0,0.0,0.0,-47.384033,75.00366,37.27112
2026-02-19 23:08:28.007,1771513708007,1771513708007,-0.97021484,-0.19042969,0.17382812,1.953125,2.0141602,-0.4272461,0.0,0.0,0.0,-48.565063,75.22888,35.81543
2026-02-19 23:08:28.107,1771513708107,1771513708107,-0.96435547,-0.1850586,0.16796875,-0.18310547,1.8920898,-0.18310547,0.0,0.0,0.0,-49.02649,75.31128,35.249634
2026-02-19 23:08:28.206,1771513708206,1771513708206,-0.9716797,-0.18554688,0.15917969,-0.061035156,0.6713867,-0.12207031,0.0,0.0,0.0,-49.438477,75.36621,34.733276
2026-02-19 23:08:28.306,1771513708306,1771513708306,-0.9663086,-0.18457031,0.17138672,1.4038086,1.8310547,-0.48828125,0.0,0.0,0.0,-49.751587,75.42114,34.260864
2026-02-19 23:08:28.406,1771513708406,1771513708406,-0.96484375,-0.18798828,0.1616211,2.4414062,1.8310547,-1.0375977,0.0,0.0,0.0,-50.1416,75.459595,33.706055
2026-02-19 23:08:28.505,1771513708505,1771513708505,-0.9667969,-0.19140625,0.15966797,0.91552734,0.36621094,-0.4272461,0.0,0.0,0.0,-50.34485,75.4541,33.29956
2026-02-19 23:08:28.605,1771513708605,1771513708605,-0.9682617,-0.1953125,0.15429688,-0.12207031,-0.30517578,-0.18310547,0.0,0.0,0.0,-50.234985,75.40466,33.294067
2026-02-19 23:08:28.705,1771513708705,1771513708705,-0.9682617,-0.1928711,0.15478516,0.0,0.48828125,-0.30517578,0.0,0.0,0.0,-50.44922,75.39917,33.03589
2026-02-19 23:08:28.805,1771513708805,1771513708805,-0.97021484,-0.19091797,0.16113281,0.0,-1.2207031,0.0,0.0,0.0,0.0,-50.498657,75.38269,32.980957
2026-02-19 23:08:28.904,1771513708904,1771513708904,-0.9667969,-0.19238281,0.16259766,0.18310547,-1.6479492,0.0,0.0,0.0,0.0,-49.954834,75.28931,33.530273
2026-02-19 23:08:29.004,1771513709004,1771513709004,-0.9692383,-0.19580078,0.1616211,0.48828125,0.24414062,-0.24414062,0.0,0.0,0.0,-49.691162,75.234375,33.80493
2026-02-19 23:08:29.104,1771513709104,1771513709104,-0.96728516,-0.19580078,0.15966797,0.91552734,0.0,-0.24414062,0.0,0.0,0.0,-49.70215,75.22339,33.815918
2026-02-19 23:08:29.204,1771513709204,1771513709204,-0.97314453,-0.19482422,0.16113281,-0.79345703,-0.12207031,0.12207031,0.0,0.0,0.0,-49.751587,75.217896,33.728027
2026-02-19 23:08:29.303,1771513709303,1771513709303,-0.96972656,-0.19189453,0.1665039,-0.12207031,0.0,0.0,0.0,0.0,0.0,-49.987793,75.27283,33.447876
2026-02-19 23:08:29.403,1771513709403,1771513709403,-0.9658203,-0.19140625,0.16748047,-0.061035156,-0.4272461,0.24414062,0.0,0.0,0.0,-49.954834,75.28381,33.45337
2026-02-19 23:08:29.503,1771513709503,1771513709503,-0.9716797,-0.19384766,0.15917969,-0.18310547,-0.5493164,0.24414062,0.0,0.0,0.0,-49.696655,75.26184,33.722534
2026-02-19 23:08:29.603,1771513709603,1771513709603,-0.9663086,-0.19189453,0.16503906,-0.24414062,-0.8544922,0.24414062,0.0,0.0,0.0,-49.592285,75.25635,33.848877
2026-02-19 23:08:29.702,1771513709702,1771513709702,-0.96728516,-0.19042969,0.1665039,-0.4272461,-1.2207031,0.12207031,0.0,0.0,0.0,-49.229736,75.19592,34.27185
2026-02-19 23:08:29.802,1771513709802,1771513709802,-0.96875,-0.19042969,0.16357422,-0.79345703,-1.2207031,0.36621094,0.0,0.0,0.0,-48.867188,75.14099,34.711304
2026-02-19 23:08:29.902,1771513709902,1771513709902,-0.9667969,-0.1899414,0.16845703,-0.5493164,-0.91552734,0.30517578,0.0,0.0,0.0,-48.570557,75.10803,35.10132
2026-02-19 23:08:30.001,1771513710001,1771513710001,-0.9667969,-0.19189453,0.16894531,-0.12207031,-1.4648438,0.0,0.0,0.0,0.0,-48.240967,75.042114,35.491333
2026-02-19 23:08:30.102,1771513710102,1771513710102,-0.9682617,-0.19140625,0.17626953,-0.79345703,-1.953125,0.18310547,0.0,0.0,0.0,-47.90039,74.95972,35.881348
2026-02-19 23:08:30.201,1771513710201,1771513710201,-0.96435547,-0.18701172,0.17871094,0.48828125,-0.7324219,0.0,0.0,0.0,0.0,-47.25769,74.84985,36.639404
2026-02-19 23:08:30.301,1771513710301,1771513710301,-0.9663086,-0.19189453,0.1772461,-0.6713867,-3.6621094,0.7324219,0.0,0.0,0.0,-46.384277,74.70703,37.545776
2026-02-19 23:08:30.400,1771513710400,1771513710400,-0.96484375,-0.18896484,0.18652344,0.0,-1.3427734,0.4272461,0.0,0.0,0.0,-45.78003,74.61365,38.199463
2026-02-19 23:08:30.500,1771513710500,1771513710500,-0.96484375,-0.18652344,0.17919922,0.18310547,-0.12207031,0.0,0.0,0.0,0.0,-45.401,74.55322,38.68286
2026-02-19 23:08:30.600,1771513710600,1771513710600,-0.96533203,-0.18652344,0.18554688,-0.6713867,-1.3427734,0.4272461,0.0,0.0,0.0,-45.214233,74.53125,38.902588
2026-02-19 23:08:30.699,1771513710699,1771513710699,-0.96484375,-0.18554688,0.18945312,-0.24414062,-1.0986328,0.18310547,0.0,0.0,0.0,-44.923096,74.47632,39.22119
2026-02-19 23:08:30.799,1771513710799,1771513710799,-0.9658203,-0.18652344,0.19091797,0.36621094,0.36621094,0.0,0.0,0.0,0.0,-44.835205,74.470825,39.309082
2026-02-19 23:08:30.899,1771513710899,1771513710899,-0.9638672,-0.18652344,0.18945312,0.24414062,0.0,0.0,0.0,0.0,0.0,-44.763794,74.470825,39.375
2026-02-19 23:08:30.998,1771513710998,1771513710998,-0.96435547,-0.1850586,0.19482422,0.36621094,0.9765625,-0.30517578,0.0,0.0,0.0,-44.87915,74.48181,39.23767
2026-02-19 23:08:31.098,1771513711098,1771513711098,-0.96191406,-0.18359375,0.18652344,0.12207031,0.8544922,0.061035156,0.0,0.0,0.0,-44.747314,74.47632,39.413452
2026-02-19 23:08:31.198,1771513711198,1771513711198,-0.9667969,-0.18798828,0.18603516,-0.48828125,-0.30517578,0.24414062,0.0,0.0,0.0,-44.802246,74.52026,39.28711
2026-02-19 23:08:31.298,1771513711298,1771513711298,-0.9663086,-0.1875,0.1875,0.0,0.18310547,0.0,0.0,0.0,0.0,-44.818726,74.53125,39.265137
2026-02-19 23:08:31.397,1771513711397,1771513711397,-0.96435547,-0.1850586,0.18359375,0.48828125,0.79345703,-0.18310547,0.0,0.0,0.0,-44.890137,74.54773,39.18274
2026-02-19 23:08:31.497,1771513711497,1771513711497,-0.9663086,-0.18652344,0.18701172,0.18310547,0.4272461,-0.18310547,0.0,0.0,0.0,-45.043945,74.58069,38.979492
2026-02-19 23:08:31.597,1771513711597,1771513711597,-0.96484375,-0.18554688,0.18603516,0.36621094,0.0,-0.24414062,0.0,0.0,0.0,-45.093384,74.575195,38.858643
2026-02-19 23:08:31.696,1771513711696,1771513711696,-0.96533203,-0.1850586,0.18652344,0.61035156,0.48828125,-0.30517578,0.0,0.0,0.0,-45.15381,74.56421,38.7323
2026-02-19 23:08:31.796,1771513711796,1771513711796,-0.96435547,-0.18603516,0.1875,0.8544922,1.4648438,-0.5493164,0.0,0.0,0.0,-45.411987,74.59717,38.397217
2026-02-19 23:08:31.896,1771513711896,1771513711896,-0.96533203,-0.1875,0.18652344,0.7324219,2.9907227,-0.7324219,0.0,0.0,0.0,-46.06018,74.69055,37.617188
2026-02-19 23:08:31.996,1771513711996,1771513711996,-0.96435547,-0.18798828,0.1772461,1.7089844,4.0283203,-0.91552734,0.0,0.0,0.0,-46.812744,74.82239,36.7218
2026-02-19 23:08:32.095,1771513712095,1771513712095,-0.9692383,-0.19189453,0.16455078,-0.48828125,2.5024414,-0.12207031,0.0,0.0,0.0,-47.53784,74.95422,35.79895
2026-02-19 23:08:32.195,1771513712195,1771513712195,-0.9707031,-0.19433594,0.17089844,0.36621094,1.953125,-0.4272461,0.0,0.0,0.0,-48.460693,75.11902,34.75525
2026-02-19 23:08:32.295,1771513712295,1771513712295,-0.96533203,-0.18847656,0.16308594,1.159668,4.0283203,-0.79345703,0.0,0.0,0.0,-49.41101,75.25635,33.656616
2026-02-19 23:08:32.395,1771513712395,1771513712395,-0.9682617,-0.19042969,0.1586914,0.18310547,2.746582,-0.7324219,0.0,0.0,0.0,-50.421753,75.40466,32.51953
2026-02-19 23:08:32.494,1771513712494,1771513712494,-0.9711914,-0.19384766,0.15283203,0.91552734,2.8076172,-0.7324219,0.0,0.0,0.0,-51.256714,75.50903,31.530762
2026-02-19 23:08:32.594,1771513712594,1771513712594,-0.96972656,-0.19580078,0.14892578,0.5493164,2.319336,-0.30517578,0.0,0.0,0.0,-51.97632,75.6134,30.646362
2026-02-19 23:08:32.694,1771513712694,1771513712694,-0.96533203,-0.19482422,0.1538086,1.2207031,1.5869141,-0.48828125,0.0,0.0,0.0,-52.61902,75.701294,29.87732
2026-02-19 23:08:32.793,1771513712793,1771513712793,-0.9716797,-0.19482422,0.14111328,-0.36621094,1.953125,-0.18310547,0.0,0.0,0.0,-53.146362,75.76172,29.256592
2026-02-19 23:08:32.893,1771513712893,1771513712893,-0.97216797,-0.1953125,0.14404297,-0.061035156,1.0375977,0.0,0.0,0.0,0.0,-53.706665,75.84961,28.602905
2026-02-19 23:08:32.993,1771513712993,1771513712993,-0.9658203,-0.19482422,0.13867188,0.36621094,0.5493164,-0.18310547,0.0,0.0,0.0,-53.9209,75.877075,28.328247
2026-02-19 23:08:33.092,1771513713092,1771513713092,-0.9736328,-0.19677734,0.13378906,-0.061035156,0.0,-0.061035156,0.0,0.0,0.0,-54.003296,75.88806,28.201904
2026-02-19 23:08:33.192,1771513713192,1771513713192,-0.96875,-0.19677734,0.14160156,-0.30517578,-0.36621094,0.061035156,0.0,0.0,0.0,-54.058228,75.88257,28.114014
2026-02-19 23:08:33.292,1771513713292,1771513713292,-0.9707031,-0.1953125,0.13964844,0.12207031,-0.4272461,0.0,0.0,0.0,0.0,-53.876953,75.8551,28.322754
2026-02-19 23:08:33.392,1771513713392,1771513713392,-0.97021484,-0.19482422,0.140625,-0.12207031,-0.18310547,0.0,0.0,0.0,0.0,-53.761597,75.83313,28.432617
2026-02-19 23:08:33.491,1771513713491,1771513713491,-0.96875,-0.19433594,0.14111328,-0.61035156,-1.2207031,0.18310547,0.0,0.0,0.0,-53.530884,75.79468,28.701782
2026-02-19 23:08:33.591,1771513713591,1771513713591,-0.96875,-0.19335938,0.15039062,-0.48828125,-1.4038086,0.30517578,0.0,0.0,0.0,-53.129883,75.73425,29.141235
2026-02-19 23:08:33.691,1771513713691,1771513713691,-0.97216797,-0.1953125,0.14111328,-0.36621094,-1.2817383,0.24414062,0.0,0.0,0.0,-52.630005,75.66284,29.72351
2026-02-19 23:08:33.790,1771513713790,1771513713790,-0.97021484,-0.19580078,0.15234375,-0.30517578,-1.7700195,0.36621094,0.0,0.0,0.0,-52.22351,75.6134,30.179443
2026-02-19 23:08:33.890,1771513713890,1771513713890,-0.9692383,-0.1928711,0.15234375,-0.4272461,-1.4648438,0.4272461,0.0,0.0,0.0,-51.68518,75.54199,30.767212
2026-02-19 23:08:33.990,1771513713990,1771513713990,-0.9707031,-0.1953125,0.14990234,-1.159668,-1.953125,0.7324219,0.0,0.0,0.0,-51.21826,75.49255,31.316528
2026-02-19 23:08:34.090,1771513714090,1771513714090,-0.9682617,-0.1928711,0.16015625,-0.6713867,-1.3427734,0.48828125,0.0,0.0,0.0,-50.81726,75.4541,31.810913
2026-02-19 23:08:34.189,1771513714189,1771513714189,-0.96875,-0.1899414,0.1586914,-0.61035156,-1.6479492,0.48828125,0.0,0.0,0.0,-50.26245,75.38269,32.475586
2026-02-19 23:08:34.289,1771513714289,1771513714289,-0.9692383,-0.19335938,0.15820312,-0.61035156,-1.953125,0.5493164,0.0,0.0,0.0,-49.63623,75.31128,33.17871
2026-02-19 23:08:34.389,1771513714389,1771513714389,-0.96875,-0.19335938,0.16308594,0.0,-1.953125,0.30517578,0.0,0.0,0.0,-49.136353,75.234375,33.728027
2026-02-19 23:08:34.489,1771513714489,1771513714489,-0.9663086,-0.19335938,0.1640625,0.0,-1.4038086,0.0,0.0,0.0,0.0,-48.619995,75.14099,34.28833
2026-02-19 23:08:34.588,1771513714588,1771513714588,-0.97216797,-0.19238281,0.16601562,-0.5493164,-2.1362305,0.4272461,0.0,0.0,0.0,-48.235474,75.06958,34.694824
2026-02-19 23:08:34.688,1771513714688,1771513714688,-0.96191406,-0.18896484,0.17382812,1.4038086,0.30517578,-0.24414062,0.0,0.0,0.0,-48.00476,75.03662,34.925537
2026-02-19 23:08:34.788,1771513714788,1771513714788,-0.96972656,-0.19140625,0.16503906,-0.79345703,-1.8310547,0.18310547,0.0,0.0,0.0,-47.65869,74.9762,35.216675
2026-02-19 23:08:34.888,1771513714888,1771513714888,-0.96875,-0.19042969,0.17578125,0.4272461,0.24414062,-0.12207031,0.0,0.0,0.0,-47.686157,74.9707,35.128784
2026-02-19 23:08:34.987,1771513714987,1771513714987,-0.96240234,-0.18652344,0.17919922,1.0986328,1.0375977,0.0,0.0,0.0,0.0,-47.686157,75.00366,35.112305
2026-02-19 23:08:35.087,1771513715087,1771513715087,-0.9663086,-0.18798828,0.16845703,-0.24414062,-0.30517578,0.061035156,0.0,0.0,0.0,-47.521362,74.9762,35.238647
2026-02-19 23:08:35.187,1771513715187,1771513715187,-0.9614258,-0.18457031,0.17626953,0.0,0.0,0.24414062,0.0,0.0,0.0,-47.625732,75.02014,35.117798
2026-02-19 23:08:35.286,1771513715286,1771513715286,-0.96728516,-0.18457031,0.17089844,0.24414062,0.36621094,-0.48828125,0.0,0.0,0.0,-47.54883,75.00366,35.216675
2026-02-19 23:08:35.386,1771513715386,1771513715386,-0.9604492,-0.18115234,0.1796875,0.30517578,-0.24414062,0.0,0.0,0.0,0.0,-47.76306,75.03113,34.925537
2026-02-19 23:08:35.486,1771513715486,1771513715486,-0.9711914,-0.18701172,0.1743164,0.0,-0.79345703,0.061035156,0.0,0.0,0.0,-47.70813,75.02014,34.909058
2026-02-19 23:08:35.585,1771513715585,1771513715585,-0.9692383,-0.18652344,0.17041016,-0.91552734,2.2583008,-0.48828125,0.0,0.0,0.0,-47.91687,75.042114,34.815674
2026-02-19 23:08:35.685,1771513715685,1771513715685,-0.9741211,-0.19970703,0.17089844,-0.12207031,3.1738281,-0.24414062,0.0,0.0,0.0,-49.158325,75.20691,33.447876
2026-02-19 23:08:35.785,1771513715785,1771513715785,-0.9711914,-0.19433594,0.15722656,0.7324219,2.380371,-0.30517578,0.0,0.0,0.0,-49.625244,75.31128,32.975464
2026-02-19 23:08:35.885,1771513715885,1771513715885,-0.96972656,-0.19042969,0.15234375,1.0375977,2.8076172,-0.36621094,0.0,0.0,0.0,-50.47119,75.46509,31.953735
2026-02-19 23:08:35.984,1771513715984,1771513715984,-0.97021484,-0.18945312,0.16064453,1.6479492,0.36621094,-0.61035156,0.0,0.0,0.0,-51.141357,75.547485,31.052856
2026-02-19 23:08:36.084,1771513716084,1771513716084,-0.96728516,-0.19042969,0.1538086,2.6245117,1.4648438,-0.9765625,0.0,0.0,0.0,-51.229248,75.54199,30.717773
2026-02-19 23:08:36.184,1771513716184,1771513716184,-0.9682617,-0.19140625,0.15136719,0.91552734,-0.61035156,-0.4272461,0.0,0.0,0.0,-51.295166,75.50354,30.454102
2026-02-19 23:08:36.284,1771513716284,1771513716284,-0.9663086,-0.19335938,0.14892578,1.4648438,2.380371,-0.6713867,0.0,0.0,0.0,-51.619263,75.52002,30.014648
2026-02-19 23:08:36.383,1771513716383,1771513716383,-0.97265625,-0.19726562,0.14941406,-0.24414062,2.9296875,-0.8544922,0.0,0.0,0.0,-52.53662,75.62439,28.90503
2026-02-19 23:08:36.483,1771513716483,1771513716483,-0.96875,-0.19384766,0.15136719,0.36621094,2.0141602,-0.4272461,0.0,0.0,0.0,-53.530884,75.72876,27.800903
2026-02-19 23:08:36.583,1771513716583,1771513716583,-0.9707031,-0.19238281,0.14453125,0.61035156,1.7089844,-0.48828125,0.0,0.0,0.0,-54.052734,75.772705,27.141724
2026-02-19 23:08:36.682,1771513716682,1771513716682,-0.9736328,-0.1953125,0.13916016,0.61035156,2.6855469,-0.4272461,0.0,0.0,0.0,-54.761353,75.86609,26.28479
2026-02-19 23:08:36.782,1771513716782,1771513716782,-0.96875,-0.1977539,0.13964844,0.61035156,2.0751953,-0.48828125,0.0,0.0,0.0,-55.618286,75.95947,25.279541
2026-02-19 23:08:36.882,1771513716882,1771513716882,-0.96972656,-0.19677734,0.13623047,0.12207031,0.91552734,0.12207031,0.0,0.0,0.0,-55.849,75.997925,24.977417
2026-02-19 23:08:36.982,1771513716982,1771513716982,-0.9716797,-0.19482422,0.13964844,-0.18310547,-0.6713867,0.36621094,0.0,0.0,0.0,-55.651245,75.99243,25.12024
2026-02-19 23:08:37.081,1771513717081,1771513717081,-0.9711914,-0.1928711,0.13769531,-0.48828125,-1.4648438,0.30517578,0.0,0.0,0.0,-55.167847,75.93201,25.60913
2026-02-19 23:08:37.182,1771513717182,1771513717182,-0.9707031,-0.19726562,0.1381836,0.0,-3.2958984,0.5493164,0.0,0.0,0.0,-54.310913,75.83313,26.515503
2026-02-19 23:08:37.281,1771513717281,1771513717281,-0.9716797,-0.19677734,0.14697266,-0.24414062,-3.2958984,0.18310547,0.0,0.0,0.0,-53.371582,75.701294,27.493286
2026-02-19 23:08:37.380,1771513717380,1771513717380,-0.96728516,-0.19238281,0.15576172,0.36621094,-1.5869141,0.0,0.0,0.0,0.0,-52.64099,75.57495,28.311768
2026-02-19 23:08:37.480,1771513717480,1771513717480,-0.96875,-0.19433594,0.14794922,-0.30517578,-1.8310547,0.12207031,0.0,0.0,0.0,-51.89392,75.459595,29.135742
2026-02-19 23:08:37.580,1771513717580,1771513717580,-0.96972656,-0.19580078,0.15966797,-0.4272461,-1.6479492,0.061035156,0.0,0.0,0.0,-51.54785,75.38818,29.51477
2026-02-19 23:08:37.679,1771513717679,1771513717679,-0.96484375,-0.19238281,0.16064453,0.6713867,-0.36621094,-0.12207031,0.0,0.0,0.0,-51.174316,75.31677,29.959717
2026-02-19 23:08:37.779,1771513717779,1771513717779,-0.97021484,-0.19580078,0.15527344,-0.18310547,-0.91552734,0.24414062,0.0,0.0,0.0,-50.80078,75.25635,30.333252
2026-02-19 23:08:37.879,1771513717879,1771513717879,-0.96728516,-0.19482422,0.16357422,-0.18310547,-1.3427734,0.4272461,0.0,0.0,0.0,-50.53711,75.22888,30.585938
2026-02-19 23:08:37.979,1771513717979,1771513717979,-0.9663086,-0.19140625,0.16259766,0.0,-0.36621094,0.24414062,0.0,0.0,0.0,-50.009766,75.16846,31.184692
2026-02-19 23:08:38.078,1771513718078,1771513718078,-0.9663086,-0.19384766,0.16210938,-0.24414062,-0.24414062,0.061035156,0.0,0.0,0.0,-49.746094,75.130005,31.45935
2026-02-19 23:08:38.178,1771513718178,1771513718178,-0.9663086,-0.19140625,0.17382812,0.18310547,-0.61035156,-0.18310547,0.0,0.0,0.0,-49.70764,75.10803,31.464844
2026-02-19 23:08:38.278,1771513718278,1771513718278,-0.9633789,-0.19140625,0.16357422,0.48828125,0.6713867,-0.4272461,0.0,0.0,0.0,-49.432983,75.03662,31.77246
2026-02-19 23:08:38.377,1771513718377,1771513718377,-0.96777344,-0.19726562,0.16601562,-0.30517578,-0.7324219,0.0,0.0,0.0,0.0,-49.416504,75.02014,31.706543
2026-02-19 23:08:38.477,1771513718477,1771513718477,-0.9658203,-0.1977539,0.1665039,0.36621094,0.061035156,-0.061035156,0.0,0.0,0.0,-49.257202,74.9762,31.860352
2026-02-19 23:08:38.577,1771513718577,1771513718577,-0.96777344,-0.1977539,0.16308594,-0.48828125,-0.36621094,0.18310547,0.0,0.0,0.0,-49.246216,74.9707,31.854858
2026-02-19 23:08:38.677,1771513718677,1771513718677,-0.9667969,-0.19433594,0.17041016,-0.061035156,-0.18310547,0.24414062,0.0,0.0,0.0,-49.25171,74.9762,31.8219
2026-02-19 23:08:38.777,1771513718777,1771513718777,-0.9658203,-0.19238281,0.16992188,0.4272461,0.6713867,0.0,0.0,0.0,0.0,-49.262695,74.99817,31.783447
2026-02-19 23:08:38.876,1771513718876,1771513718876,-0.9667969,-0.1953125,0.16210938,0.12207031,0.91552734,-0.12207031,0.0,0.0,0.0,-49.3396,75.01465,31.657104
2026-02-19 23:08:38.976,1771513718976,1771513718976,-0.9692383,-0.19482422,0.15966797,0.0,-0.12207031,0.0,0.0,0.0,0.0,-49.487915,75.03113,31.409912
2026-02-19 23:08:39.075,1771513719075,1771513719075,-0.9628906,-0.19335938,0.1665039,0.36621094,0.7324219,-0.24414062,0.0,0.0,0.0,-49.68567,75.0531,31.140747
2026-02-19 23:08:39.176,1771513719176,1771513719176,-0.9711914,-0.19824219,0.15185547,-0.5493164,-0.4272461,0.0,0.0,0.0,0.0,-49.60327,75.02014,31.184692
2026-02-19 23:08:39.275,1771513719275,1771513719275,-0.9667969,-0.19677734,0.1694336,0.4272461,0.0,0.0,0.0,0.0,0.0,-49.89441,75.05859,30.772705
2026-02-19 23:08:39.375,1771513719375,1771513719375,-0.96484375,-0.19482422,0.16455078,0.48828125,1.159668,0.0,0.0,0.0,0.0,-49.92737,75.08057,30.706787
2026-02-19 23:08:39.474,1771513719474,1771513719474,-0.9711914,-0.19873047,0.15332031,-0.061035156,0.48828125,0.061035156,0.0,0.0,0.0,-49.99878,75.10254,30.585938
2026-02-19 23:08:39.574,1771513719574,1771513719574,-0.96728516,-0.19384766,0.1640625,0.24414062,0.7324219,0.0,0.0,0.0,0.0,-50.410767,75.17395,30.08606
2026-02-19 23:08:39.674,1771513719674,1771513719674,-0.96777344,-0.1928711,0.15478516,0.36621094,1.7700195,-0.30517578,0.0,0.0,0.0,-50.663452,75.2124,29.800415
2026-02-19 23:08:39.773,1771513719773,1771513719773,-0.9682617,-0.19726562,0.1586914,0.7324219,2.5634766,-0.5493164,0.0,0.0,0.0,-51.63025,75.34973,28.668823
2026-02-19 23:08:39.873,1771513719873,1771513719873,-0.96728516,-0.19726562,0.15527344,1.0375977,1.3427734,-0.4272461,0.0,0.0,0.0,-52.3114,75.43213,27.800903
2026-02-19 23:08:39.973,1771513719973,1771513719973,-0.96484375,-0.19726562,0.15576172,0.9765625,1.2817383,-0.4272461,0.0,0.0,0.0,-52.564087,75.44861,27.427368
2026-02-19 23:08:40.073,1771513720073,1771513720073,-0.96875,-0.19628906,0.1459961,0.7324219,2.0751953,-0.48828125,0.0,0.0,0.0,-53.05298,75.50354,26.834106
2026-02-19 23:08:40.172,1771513720172,1771513720172,-0.9716797,-0.2006836,0.14111328,0.12207031,1.7089844,-0.4272461,0.0,0.0,0.0,-53.55835,75.563965,26.202393
2026-02-19 23:08:40.272,1771513720272,1771513720272,-0.97216797,-0.1977539,0.13867188,1.0986328,2.746582,-0.8544922,0.0,0.0,0.0,-54.415283,75.65735,25.246582
2026-02-19 23:08:40.372,1771513720372,1771513720372,-0.97753906,-0.20019531,0.12988281,2.0751953,0.12207031,-0.9765625,0.0,0.0,0.0,-54.970093,75.668335,24.4281
2026-02-19 23:08:40.471,1771513720471,1771513720471,-0.96875,-0.19873047,0.14892578,0.30517578,0.24414062,0.36621094,0.0,0.0,0.0,-55.178833,75.701294,24.109497
2026-02-19 23:08:40.571,1771513720571,1771513720571,-0.96435547,-0.19970703,0.13427734,0.4272461,-1.8920898,0.24414062,0.0,0.0,0.0,-54.492188,75.64636,24.752197
2026-02-19 23:08:40.671,1771513720671,1771513720671,-0.96777344,-0.20361328,0.14013672,1.2817383,0.4272461,-0.36621094,0.0,0.0,0.0,-54.25049,75.58594,24.818115
2026-02-19 23:08:40.771,1771513720771,1771513720771,-0.96875,-0.2006836,0.14501953,-0.4272461,-1.0986328,0.5493164,0.0,0.0,0.0,-54.140625,75.59143,24.840088
2026-02-19 23:08:40.871,1771513720871,1771513720871,-0.96728516,-0.20019531,0.14355469,2.319336,3.479004,-0.36621094,0.0,0.0,0.0,-54.25598,75.65735,24.664307
2026-02-19 23:08:40.970,1771513720970,1771513720970,-0.9682617,-0.20263672,0.12548828,1.8920898,6.652832,-0.9765625,0.0,0.0,0.0,-55.57434,75.86609,23.164673
2026-02-19 23:08:41.070,1771513721070,1771513721070,-0.9667969,-0.20605469,0.119628906,-0.061035156,4.1503906,-0.24414062,0.0,0.0,0.0,-57.227783,76.102295,21.280518
2026-02-19 23:08:41.171,1771513721171,1771513721171,-0.9711914,-0.1977539,0.1303711,1.0986328,5.432129,-0.9765625,0.0,0.0,0.0,-59.28772,76.31653,19.050293
2026-02-19 23:08:41.269,1771513721269,1771513721269,-0.97216797,-0.19970703,0.11328125,-0.30517578,1.5869141,0.0,0.0,0.0,0.0,-60.3479,76.42639,17.808838
2026-02-19 23:08:41.369,1771513721369,1771513721369,-0.9707031,-0.20019531,0.12451172,-0.79345703,-0.61035156,0.5493164,0.0,0.0,0.0,-60.62256,76.47583,17.457275
2026-02-19 23:08:41.469,1771513721469,1771513721469,-0.96972656,-0.19873047,0.11376953,-1.2207031,-2.8686523,0.5493164,0.0,0.0,0.0,-59.49646,76.39343,18.654785
2026-02-19 23:08:41.568,1771513721568,1771513721568,-0.97558594,-0.1977539,0.12060547,-1.3427734,-3.479004,0.5493164,0.0,0.0,0.0,-58.584595,76.30005,19.654541
2026-02-19 23:08:41.669,1771513721669,1771513721669,-0.9746094,-0.19384766,0.12939453,-0.48828125,-3.112793,0.48828125,0.0,0.0,0.0,-57.370605,76.1792,21.038818
2026-02-19 23:08:41.768,1771513721768,1771513721768,-0.97265625,-0.19335938,0.13867188,-0.7324219,-2.8686523,0.6713867,0.0,0.0,0.0,-56.21704,76.06384,22.357178
2026-02-19 23:08:41.868,1771513721868,1771513721868,-0.9716797,-0.19580078,0.12939453,-0.8544922,-2.4414062,0.7324219,0.0,0.0,0.0,-54.838257,75.910034,23.983154
2026-02-19 23:08:41.967,1771513721967,1771513721967,-0.97216797,-0.19677734,0.14355469,-0.6713867,-4.3945312,0.91552734,0.0,0.0,0.0,-53.9209,75.81665,25.054321
2026-02-19 23:08:42.067,1771513722067,1771513722067,-0.96777344,-0.19580078,0.14501953,0.0,-0.36621094,0.12207031,0.0,0.0,0.0,-52.86621,75.69031,26.312256
2026-02-19 23:08:42.167,1771513722167,1771513722167,-0.9736328,-0.19824219,0.14111328,-0.9765625,-1.0375977,0.36621094,0.0,0.0,0.0,-52.56958,75.65735,26.707764
2026-02-19 23:08:42.266,1771513722266,1771513722266,-0.9716797,-0.1953125,0.15136719,-0.30517578,-0.061035156,0.79345703,0.0,0.0,0.0,-52.44873,75.67932,26.916504
2026-02-19 23:08:42.366,1771513722366,1771513722366,-0.96435547,-0.19042969,0.14794922,0.7324219,0.48828125,0.24414062,0.0,0.0,0.0,-52.349854,75.73425,27.037354
2026-02-19 23:08:42.466,1771513722466,1771513722466,-0.9692383,-0.19189453,0.14355469,-0.79345703,-0.5493164,0.30517578,0.0,0.0,0.0,-52.16858,75.72327,27.191162
2026-02-19 23:08:42.566,1771513722566,1771513722566,-0.97021484,-0.19091797,0.15234375,-0.12207031,-0.9765625,0.5493164,0.0,0.0,0.0,-52.091675,75.739746,27.284546
2026-02-19 23:08:42.665,1771513722665,1771513722665,-0.9663086,-0.19335938,0.1430664,-0.36621094,-0.30517578,-0.18310547,0.0,0.0,0.0,-51.635742,75.6958,27.800903
2026-02-19 23:08:42.765,1771513722765,1771513722765,-0.9741211,-0.19091797,0.15625,0.36621094,-1.3427734,-0.24414062,0.0,0.0,0.0,-51.690674,75.65735,27.67456
2026-02-19 23:08:42.865,1771513722865,1771513722865,-0.9663086,-0.18847656,0.16259766,1.159668,1.7089844,-0.5493164,0.0,0.0,0.0,-51.6687,75.64636,27.784424
2026-02-19 23:08:42.965,1771513722965,1771513722965,-0.97216797,-0.1928711,0.14794922,-1.0375977,-1.6479492,0.30517578,0.0,0.0,0.0,-51.229248,75.563965,28.218384
2026-02-19 23:08:43.064,1771513723064,1771513723064,-0.97021484,-0.19335938,0.16210938,-0.061035156,-0.18310547,0.0,0.0,0.0,0.0,-51.33911,75.57495,28.070068
2026-02-19 23:08:43.164,1771513723164,1771513723164,-0.9682617,-0.19189453,0.15136719,0.18310547,0.9765625,-0.12207031,0.0,0.0,0.0,-51.23474,75.55847,28.223877
2026-02-19 23:08:43.264,1771513723264,1771513723264,-0.9707031,-0.19238281,0.15136719,-1.0986328,-1.2207031,0.36621094,0.0,0.0,0.0,-51.157837,75.547485,28.300781
2026-02-19 23:08:43.364,1771513723364,1771513723364,-0.9692383,-0.19238281,0.15625,-0.18310547,0.0,0.061035156,0.0,0.0,0.0,-51.168823,75.55298,28.300781
2026-02-19 23:08:43.463,1771513723463,1771513723463,-0.96972656,-0.19238281,0.1538086,-0.24414062,0.0,0.0,0.0,0.0,0.0,-51.04248,75.54199,28.432617
2026-02-19 23:08:43.563,1771513723563,1771513723563,-0.9707031,-0.19091797,0.15625,-0.91552734,-0.061035156,0.061035156,0.0,0.0,0.0,-51.00403,75.531006,28.47107
2026-02-19 23:08:43.663,1771513723663,1771513723663,-0.96728516,-0.1928711,0.15722656,0.18310547,0.61035156,-0.18310547,0.0,0.0,0.0,-51.064453,75.531006,28.388672
2026-02-19 23:08:43.762,1771513723762,1771513723762,-0.97216797,-0.1953125,0.14501953,-1.5869141,-1.5258789,0.5493164,0.0,0.0,0.0,-50.806274,75.476074,28.624878
2026-02-19 23:08:43.862,1771513723862,1771513723862,-0.9682617,-0.19384766,0.16113281,-0.061035156,-0.24414062,0.061035156,0.0,0.0,0.0,-50.965576,75.50354,28.42163
2026-02-19 23:08:43.962,1771513723962,1771513723962,-0.9682617,-0.19091797,0.15673828,0.4272461,0.5493164,-0.12207031,0.0,0.0,0.0,-50.855713,75.48706,28.536987
2026-02-19 23:08:44.061,1771513724061,1771513724061,-0.9707031,-0.19335938,0.15039062,-0.18310547,-0.12207031,0.0,0.0,0.0,0.0,-50.789795,75.47058,28.591919
2026-02-19 23:08:44.161,1771513724161,1771513724161,-0.96728516,-0.19189453,0.16015625,-0.24414062,-0.061035156,0.0,0.0,0.0,0.0,-50.949097,75.48157,28.383179
2026-02-19 23:08:44.261,1771513724261,1771513724261,-0.96875,-0.19238281,0.15820312,0.12207031,-0.18310547,-0.12207031,0.0,0.0,0.0,-50.916138,75.46509,28.372192
2026-02-19 23:08:44.361,1771513724361,1771513724361,-0.97021484,-0.19238281,0.15429688,0.18310547,0.24414062,-0.6713867,0.0,0.0,0.0,-50.88318,75.42114,28.388672
2026-02-19 23:08:44.460,1771513724460,1771513724460,-0.9711914,-0.19921875,0.15527344,-0.18310547,0.4272461,0.061035156,0.0,0.0,0.0,-51.026,75.42114,28.196411
2026-02-19 23:08:44.560,1771513724560,1771513724560,-0.9707031,-0.19970703,0.15429688,0.48828125,0.18310547,-0.12207031,0.0,0.0,0.0,-51.245728,75.46509,27.91626
2026-02-19 23:08:44.660,1771513724660,1771513724660,-0.9741211,-0.19677734,0.14501953,0.79345703,3.479004,-0.9765625,0.0,0.0,0.0,-51.98181,75.55298,27.130737
2026-02-19 23:08:44.760,1771513724760,1771513724760,-0.9667969,-0.19042969,0.1640625,1.5869141,2.380371,-0.7324219,0.0,0.0,0.0,-53.24524,75.71777,25.801392
2026-02-19 23:08:44.859,1771513724859,1771513724859,-0.97314453,-0.19628906,0.13574219,-0.061035156,2.319336,-0.30517578,0.0,0.0,0.0,-53.432007,75.74524,25.50476
2026-02-19 23:08:44.959,1771513724959,1771513724959,-0.97558594,-0.19970703,0.14160156,0.5493164,1.2207031,-0.4272461,0.0,0.0,0.0,-54.223022,75.84412,24.543457
2026-02-19 23:08:45.059,1771513725059,1771513725059,-0.9682617,-0.19677734,0.13964844,1.2207031,1.953125,-0.4272461,0.0,0.0,0.0,-54.838257,75.910034,23.7854
2026-02-19 23:08:45.158,1771513725158,1771513725158,-0.97265625,-0.19384766,0.13574219,0.4272461,0.48828125,0.0,0.0,0.0,0.0,-55.151367,75.94299,23.33496
2026-02-19 23:08:45.258,1771513725258,1771513725258,-0.97314453,-0.19726562,0.13085938,0.61035156,0.18310547,0.4272461,0.0,0.0,0.0,-55.14038,75.981445,23.225098
2026-02-19 23:08:45.358,1771513725358,1771513725358,-0.97021484,-0.19384766,0.13378906,0.79345703,0.5493164,0.061035156,0.0,0.0,0.0,-55.195312,76.03638,23.109741
2026-02-19 23:08:45.458,1771513725458,1771513725458,-0.9667969,-0.19580078,0.13769531,0.9765625,0.9765625,-0.18310547,0.0,0.0,0.0,-55.546875,76.0968,22.681274
2026-02-19 23:08:45.558,1771513725558,1771513725558,-0.97802734,-0.19628906,0.12890625,-0.6713867,0.7324219,-0.30517578,0.0,0.0,0.0,-55.854492,76.118774,22.280273
