DateTime,UnixTimestamp,AccX,AccY,AccZ,GyroX,GyroY,GyroZ,MagX,MagY,MagZ,Roll,Pitch,Yaw
2026-02-19 23:01:45.260,1771513305260,1771513305260,0.123046875,0.30371094,-0.93408203,-28.137207,0.9765625,14.099121,0.0,0.0,0.0,162.77344,-6.5863037,131.80847
2026-02-19 23:01:45.359,1771513305359,1771513305359,0.13232422,0.29003906,-0.9658203,7.5683594,15.136719,16.723633,0.0,0.0,0.0,163.45459,-7.9925537,131.68213
2026-02-19 23:01:45.459,1771513305459,1771513305459,0.16552734,0.27294922,-0.94384766,10.864258,19.348145,23.19336,0.0,0.0,0.0,163.71826,-9.667969,131.71509
2026-02-19 23:01:45.559,1771513305559,1771513305559,0.20214844,0.3154297,-0.8798828,-3.0517578,-2.319336,-9.033203,0.0,0.0,0.0,164.0039,-11.491699,132.594
2026-02-19 23:01:45.659,1771513305659,1771513305659,0.11816406,0.22851562,-0.8330078,118.59131,11.474609,-20.385742,0.0,0.0,0.0,167.89856,-11.184082,135.4065
2026-02-19 23:01:45.758,1771513305758,1771513305758,0.20410156,0.05126953,-0.7949219,87.28027,-15.930176,-31.433105,0.0,0.0,0.0,174.776,-10.854492,138.42224
2026-02-19 23:01:45.858,1771513305858,1771513305858,0.18798828,-0.26464844,-1.0405273,105.10254,-14.6484375,-51.26953,0.0,0.0,0.0,-174.68262,-9.250488,143.97034
2026-02-19 23:01:45.958,1771513305958,1771513305958,0.24560547,-0.38330078,-1.0478516,68.359375,-55.603027,-75.13428,0.0,0.0,0.0,-167.39319,-7.272949,150.29846
2026-02-19 23:01:46.057,1771513306057,1771513306057,0.20019531,-0.43847656,-0.9682617,89.05029,-10.986328,-101.01318,0.0,0.0,0.0,-161.49353,-6.9213867,158.45032
2026-02-19 23:01:46.157,1771513306157,1771513306157,0.056152344,-0.47998047,-0.91748047,53.222656,-13.305664,-67.44385,0.0,0.0,0.0,-156.2091,-8.876953,165.9375
2026-02-19 23:01:46.257,1771513306257,1771513306257,0.30908203,-0.48632812,-0.82958984,51.51367,-23.620605,-68.84766,0.0,0.0,0.0,-152.22107,-8.311157,171.8866
2026-02-19 23:01:46.356,1771513306356,1771513306356,0.17919922,-0.6386719,-0.8623047,-30.395508,-68.29834,-75.43945,0.0,0.0,0.0,-149.61731,-9.107666,176.89087
2026-02-19 23:01:46.456,1771513306456,1771513306456,0.18603516,-0.24902344,-0.85253906,22.521973,-15.136719,-82.70264,0.0,0.0,0.0,-153.43506,-9.146118,-178.17627
2026-02-19 23:01:46.556,1771513306556,1771513306556,0.21435547,-0.62353516,-0.90771484,48.706055,49.01123,-34.301758,0.0,0.0,0.0,-152.85278,-11.134644,-176.15479
2026-02-19 23:01:46.656,1771513306656,1771513306656,0.04296875,-0.7529297,-1.0488281,275.57373,-35.095215,80.444336,0.0,0.0,0.0,-134.05518,-12.068481,-178.85742
2026-02-19 23:01:46.755,1771513306755,1771513306755,0.103027344,-0.9428711,-0.5151367,161.25488,-74.035645,69.94629,0.0,0.0,0.0,-112.32422,-7.6135254,-177.07214
2026-02-19 23:01:46.855,1771513306855,1771513306855,0.21777344,-0.9555664,-0.40527344,55.17578,-103.02734,13.427734,0.0,0.0,0.0,-106.94641,-3.4661865,-167.79419
2026-02-19 23:01:46.955,1771513306955,1771513306955,0.060058594,-0.94677734,-0.2783203,-10.070801,-6.0424805,21.30127,0.0,0.0,0.0,-107.61658,0.97229004,-167.40417
2026-02-19 23:01:47.054,1771513307054,1771513307054,0.09375,-0.7519531,-0.22314453,-29.35791,11.962891,23.31543,0.0,0.0,0.0,-108.94043,2.7520752,-173.54553
2026-02-19 23:01:47.154,1771513307154,1771513307154,0.07470703,-0.7363281,-0.24365234,-23.132324,78.308105,-11.413574,0.0,0.0,0.0,-111.64307,-0.31860352,175.55054
2026-02-19 23:01:47.254,1771513307254,1771513307254,0.091308594,-0.7661133,-0.16015625,23.07129,74.645996,-27.58789,0.0,0.0,0.0,-110.703735,-6.1688232,163.6084
2026-02-19 23:01:47.353,1771513307353,1771513307353,0.29052734,-0.89697266,-0.087402344,45.654297,42.297363,-25.32959,0.0,0.0,0.0,-106.468506,-11.321411,153.5669
2026-02-19 23:01:47.453,1771513307453,1771513307453,0.28564453,-0.8095703,-0.09375,-21.118164,13.366699,-15.50293,0.0,0.0,0.0,-103.480225,-14.523926,145.56885
2026-02-19 23:01:47.553,1771513307553,1771513307553,0.41210938,-0.7753906,-0.21142578,0.9765625,-0.18310547,7.080078,0.0,0.0,0.0,-104.88098,-15.205078,141.35559
2026-02-19 23:01:47.653,1771513307653,1771513307653,0.45214844,-0.9970703,-0.2211914,13.671875,5.9814453,-28.137207,0.0,0.0,0.0,-104.58435,-16.97937,137.7356
2026-02-19 23:01:47.752,1771513307752,1771513307752,0.5258789,-1.0908203,-0.18359375,36.743164,45.410156,-61.340332,0.0,0.0,0.0,-100.48096,-23.087769,133.2367
2026-02-19 23:01:47.852,1771513307852,1771513307852,0.068847656,-0.9628906,0.0703125,-8.483887,-6.652832,9.399414,0.0,0.0,0.0,-93.83423,-22.626343,124.34326
2026-02-19 23:01:47.952,1771513307952,1771513307952,0.5317383,-0.86279297,-0.27392578,-83.25195,-129.27246,-7.3242188,0.0,0.0,0.0,-105.650024,-21.708984,133.68713
2026-02-19 23:01:48.051,1771513308051,1771513308051,0.5239258,-1.128418,-0.32470703,-88.86719,10.803223,-26.306152,0.0,0.0,0.0,-116.75171,-22.906494,135.41199
2026-02-19 23:01:48.151,1771513308151,1771513308151,0.37548828,-1.1621094,-0.52783203,-48.706055,88.43994,-15.441895,0.0,0.0,0.0,-120.162964,-28.756714,127.30408
2026-02-19 23:01:48.251,1771513308251,1771513308251,0.36669922,-0.69140625,-0.4970703,-28.259277,22.094727,10.192871,0.0,0.0,0.0,-115.96069,-32.074585,119.25659
2026-02-19 23:01:48.350,1771513308350,1771513308350,0.55078125,-0.7758789,-0.5410156,-43.273926,7.1411133,64.453125,0.0,0.0,0.0,-118.38318,-27.185669,115.9552
2026-02-19 23:01:48.450,1771513308450,1771513308450,0.47753906,-0.80078125,-0.4970703,-33.691406,29.60205,23.925781,0.0,0.0,0.0,-120.49255,-24.807129,112.08801
2026-02-19 23:01:48.550,1771513308550,1771513308550,0.40039062,-0.7519531,-0.62646484,-44.73877,-24.414062,16.540527,0.0,0.0,0.0,-124.32129,-23.532715,110.10498
2026-02-19 23:01:48.649,1771513308649,1771513308649,0.3334961,-0.6689453,-0.7314453,-33.63037,-14.099121,0.79345703,0.0,0.0,0.0,-128.71033,-20.593872,111.76941
2026-02-19 23:01:48.749,1771513308749,1771513308749,0.20458984,-0.59814453,-0.6347656,-34.179688,-33.569336,7.2021484,0.0,0.0,0.0,-131.3855,-19.841309,113.31299
2026-02-19 23:01:48.849,1771513308849,1771513308849,0.26367188,-0.74072266,-0.71435547,-41.381836,-80.81055,15.930176,0.0,0.0,0.0,-135.14832,-14.150391,117.93823
2026-02-19 23:01:48.949,1771513308949,1771513308949,0.001953125,-0.6538086,-0.6894531,35.27832,-75.805664,15.50293,0.0,0.0,0.0,-135.71411,-8.31665,124.17297
2026-02-19 23:01:49.048,1771513309048,1771513309048,-0.0024414062,-0.8154297,-0.6982422,46.50879,-74.95117,18.676758,0.0,0.0,0.0,-133.86292,-1.2854004,130.67139
2026-02-19 23:01:49.148,1771513309148,1771513309148,-0.19873047,-0.85839844,-0.51171875,68.359375,-9.155273,32.65381,0.0,0.0,0.0,-129.24866,1.3568115,133.27515
2026-02-19 23:01:49.248,1771513309248,1771513309248,-0.1772461,-0.7866211,-0.2758789,87.09717,-23.986816,-10.7421875,0.0,0.0,0.0,-121.47034,2.7355957,138.22449
2026-02-19 23:01:49.347,1771513309347,1771513309347,0.18847656,-0.6074219,-0.24169922,41.3208,-57.31201,-49.37744,0.0,0.0,0.0,-113.40088,3.35083,148.69446
2026-02-19 23:01:49.447,1771513309447,1771513309447,-0.05908203,-0.6088867,-0.13769531,40.100098,-59.2041,-40.771484,0.0,0.0,0.0,-107.995605,1.3018799,152.63306
2026-02-19 23:01:49.547,1771513309547,1771513309547,-0.18457031,-0.9873047,-0.21533203,-19.836426,14.770508,-77.63672,0.0,0.0,0.0,-108.220825,-2.8179932,157.34619
2026-02-19 23:01:49.647,1771513309647,1771513309647,0.2397461,-1.3710938,-0.4741211,-36.499023,5.004883,3.6621094,0.0,0.0,0.0,-113.02734,-7.6574707,163.97644
2026-02-19 23:01:49.746,1771513309746,1771513309746,0.22558594,-1.0375977,-0.66845703,56.884766,-47.729492,13.48877,0.0,0.0,0.0,-112.46704,-5.3997803,162.04285
2026-02-19 23:01:49.846,1771513309846,1771513309846,-0.041015625,-0.8383789,-0.51708984,-23.07129,-28.442383,9.521484,0.0,0.0,0.0,-111.92322,-0.3076172,163.09204
2026-02-19 23:01:49.946,1771513309946,1771513309946,-0.19628906,-0.7709961,-0.37304688,-39.611816,-4.9438477,-38.146973,0.0,0.0,0.0,-114.16443,-1.0546875,168.51929
2026-02-19 23:01:50.045,1771513310045,1771513310045,-0.068359375,-0.8022461,-0.59716797,-71.77734,-20.263672,-31.799316,0.0,0.0,0.0,-118.690796,-3.010254,176.15479
2026-02-19 23:01:50.145,1771513310145,1771513310145,0.075683594,-0.9472656,-0.5996094,2.6855469,-17.27295,-39.42871,0.0,0.0,0.0,-123.50281,-4.180298,-176.31409
2026-02-19 23:01:50.245,1771513310245,1771513310245,0.2421875,-0.9868164,-0.4453125,23.55957,-40.893555,-40.222168,0.0,0.0,0.0,-123.56323,-5.559082,-166.60217
2026-02-19 23:01:50.344,1771513310344,1771513310344,0.35253906,-0.6738281,-0.5390625,23.132324,-25.268555,0.36621094,0.0,0.0,0.0,-121.15173,-5.822754,-159.76868
2026-02-19 23:01:50.444,1771513310444,1771513310444,0.20019531,-0.8076172,-0.45458984,25.20752,34.118652,93.20068,0.0,0.0,0.0,-119.036865,-2.307129,-169.56848
2026-02-19 23:01:50.544,1771513310544,1771513310544,0.1586914,-1.1630859,-0.33251953,36.43799,-32.89795,88.74512,0.0,0.0,0.0,-119.76196,4.6362305,-179.90662
2026-02-19 23:01:50.643,1771513310643,1771513310643,-0.34228516,-0.6791992,-0.42382812,11.84082,-59.020996,76.23291,0.0,0.0,0.0,-118.03162,13.062744,177.33032
2026-02-19 23:01:50.743,1771513310743,1771513310743,-0.31933594,-0.7788086,-0.49365234,-8.911133,-29.968262,91.00342,0.0,0.0,0.0,-119.16321,23.840332,-177.37976
2026-02-19 23:01:50.843,1771513310843,1771513310843,-0.6274414,-0.80810547,-0.25830078,-0.9765625,-19.40918,29.35791,0.0,0.0,0.0,-118.50952,29.014893,-173.32031
2026-02-19 23:01:50.942,1771513310942,1771513310942,-0.55908203,-0.5097656,-0.17626953,24.230957,-27.038574,116.51611,0.0,0.0,0.0,-119.28955,37.424927,-169.26636
2026-02-19 23:01:51.043,1771513311043,1771513311043,-0.92041016,-0.5908203,-0.2788086,-67.32178,-46.569824,66.711426,0.0,0.0,0.0,-124.524536,50.767822,-168.53577
2026-02-19 23:01:51.142,1771513311142,1771513311142,-0.86328125,-0.48779297,-0.28320312,-20.202637,-32.165527,-26.184082,0.0,0.0,0.0,-126.76575,56.607056,-160.70251
2026-02-19 23:01:51.242,1771513311242,1771513311242,-0.7475586,-0.29882812,-0.3803711,24.291992,-2.2583008,-10.131836,0.0,0.0,0.0,-121.014404,56.541138,-152.15515
2026-02-19 23:01:51.341,1771513311341,1771513311341,-0.7182617,-0.47607422,-0.35107422,-23.620605,39.733887,15.563965,0.0,0.0,0.0,-125.617676,55.426025,-155.39612
2026-02-19 23:01:51.441,1771513311441,1771513311441,-0.86279297,-0.4008789,-0.2763672,7.873535,18.188477,2.746582,0.0,0.0,0.0,-135.45593,54.613037,-160.62561
2026-02-19 23:01:51.541,1771513311541,1771513311541,-0.8486328,-0.43164062,-0.453125,-40.46631,39.978027,28.564453,0.0,0.0,0.0,-141.47644,52.61902,-157.9065
2026-02-19 23:01:51.640,1771513311640,1771513311640,-0.7788086,-0.30859375,-0.48242188,-3.6621094,20.568848,-14.709473,0.0,0.0,0.0,-142.48169,51.992798,-158.48328
2026-02-19 23:01:51.740,1771513311740,1771513311740,-0.7397461,-0.3959961,-0.53125,49.621582,9.82666,-25.878906,0.0,0.0,0.0,-138.74084,49.26819,-153.63281
2026-02-19 23:01:51.840,1771513311840,1771513311840,-0.74072266,-0.30419922,-0.28564453,122.55859,-33.203125,52.734375,0.0,0.0,0.0,-128.87512,50.13611,-149.03503
2026-02-19 23:01:51.939,1771513311939,1771513311939,-0.9140625,-0.7285156,-0.3334961,40.34424,-14.343262,70.80078,0.0,0.0,0.0,-128.75977,58.502197,-153.89648
2026-02-19 23:01:52.039,1771513312039,1771513312039,-0.66845703,-0.42333984,-0.26953125,7.751465,10.864258,-15.50293,0.0,0.0,0.0,-126.13403,58.408813,-150.47424
2026-02-19 23:01:52.139,1771513312139,1771513312139,-0.98095703,-0.27246094,-0.32666016,16.113281,-36.071777,76.66016,0.0,0.0,0.0,-131.01746,63.17688,-155.1654
2026-02-19 23:01:52.238,1771513312238,1771513312238,-0.9345703,-0.2939453,-0.22607422,-12.756348,2.8686523,12.878418,0.0,0.0,0.0,-131.59424,65.71472,-151.32568
2026-02-19 23:01:52.338,1771513312338,1771513312338,-0.71728516,-0.1538086,-0.33007812,-26.855469,13.977051,53.16162,0.0,0.0,0.0,-144.9646,67.5824,-159.72473
2026-02-19 23:01:52.438,1771513312438,1771513312438,-0.9897461,-0.24023438,-0.2680664,-135.86426,9.460449,19.714355,0.0,0.0,0.0,-153.06152,68.24158,-159.29077
2026-02-19 23:01:52.538,1771513312538,1771513312538,-0.93310547,-0.03564453,-0.2685547,-73.85254,-77.0874,-34.42383,0.0,0.0,0.0,-159.63684,72.50427,-149.26575
2026-02-19 23:01:52.637,1771513312637,1771513312637,-1.0517578,0.0068359375,0.19335938,25.6958,-51.818848,-15.380859,0.0,0.0,0.0,-133.1543,80.48035,-115.96069
2026-02-19 23:01:52.737,1771513312737,1771513312737,-1.0644531,-0.08642578,-0.103515625,22.033691,-22.399902,-7.385254,0.0,0.0,0.0,-119.30054,79.60693,-97.75635
2026-02-19 23:01:52.837,1771513312837,1771513312837,-0.98583984,-0.091796875,-0.015625,3.90625,-0.061035156,-20.263672,0.0,0.0,0.0,-114.66431,79.84314,-88.3905
2026-02-19 23:01:52.936,1771513312936,1771513312936,-1.0791016,-0.3310547,-0.068847656,-8.361816,-12.329102,5.7373047,0.0,0.0,0.0,-108.8031,79.694824,-78.063354
2026-02-19 23:01:53.036,1771513313036,1771513313036,-1.0302734,-0.095703125,0.0048828125,10.7421875,-33.935547,39.855957,0.0,0.0,0.0,-96.00403,84.16626,-60.820312
2026-02-19 23:01:53.136,1771513313136,1771513313136,-0.9663086,0.051757812,0.05517578,-2.5634766,-1.5869141,-94.66553,0.0,0.0,0.0,-66.41785,85.67139,-28.223877
2026-02-19 23:01:53.235,1771513313235,1771513313235,-1.0058594,-0.15527344,0.0390625,-42.96875,16.906738,-47.36328,0.0,0.0,0.0,-89.000244,80.48584,-46.5271
2026-02-19 23:01:53.335,1771513313335,1771513313335,-0.97802734,-0.08691406,-0.023925781,40.71045,45.959473,7.446289,0.0,0.0,0.0,-111.07727,79.156494,-68.25806
2026-02-19 23:01:53.435,1771513313435,1771513313435,-0.6088867,-0.15917969,0.0024414062,37.78076,128.60107,34.91211,0.0,0.0,0.0,-137.52686,78.45337,-103.46924
2026-02-19 23:01:53.535,1771513313535,1771513313535,-0.95751953,-0.07080078,-0.54003906,94.29932,-31.433105,8.422852,0.0,0.0,0.0,-164.15771,67.802124,-135.76904
2026-02-19 23:01:53.634,1771513313634,1771513313634,-0.9111328,-0.12402344,-0.33642578,-50.964355,-10.009766,8.056641,0.0,0.0,0.0,-159.65881,70.54321,-131.79749
2026-02-19 23:01:53.734,1771513313734,1771513313734,-0.9824219,-0.07324219,-0.11328125,21.057129,-1.7089844,66.89453,0.0,0.0,0.0,-167.60742,74.30603,-132.75879
2026-02-19 23:01:53.834,1771513313834,1771513313834,-0.93896484,0.17822266,-0.28027344,-0.9765625,-38.024902,91.97998,0.0,0.0,0.0,158.59863,75.24536,-170.95276
2026-02-19 23:01:53.933,1771513313933,1771513313933,-0.7871094,0.2529297,-0.27783203,7.019043,-35.827637,43.823242,0.0,0.0,0.0,137.1643,72.47131,166.8164
2026-02-19 23:01:54.033,1771513314033,1771513314033,-1.0849609,0.22705078,-0.25927734,10.192871,-65.67383,103.21045,0.0,0.0,0.0,120.146484,70.73547,147.96387
2026-02-19 23:01:54.133,1771513314133,1771513314133,-0.049316406,-0.06591797,-0.19482422,-172.48535,257.1411,-67.19971,0.0,0.0,0.0,120.95947,65.20386,155.41809
2026-02-19 23:01:54.233,1771513314233,1771513314233,-0.7211914,0.33154297,-0.296875,75.805664,-20.690918,-12.023926,0.0,0.0,0.0,143.39905,65.36865,178.52234
2026-02-19 23:01:54.332,1771513314332,1771513314332,-0.9658203,0.3232422,-0.4321289,32.53174,-35.583496,18.249512,0.0,0.0,0.0,167.97546,69.576416,-170.56274
2026-02-19 23:01:54.432,1771513314432,1771513314432,-0.9033203,0.2705078,-0.14013672,163.14697,8.7890625,49.682617,0.0,0.0,0.0,160.09277,69.18091,174.49036
2026-02-19 23:01:54.532,1771513314532,1771513314532,-0.9379883,0.13916016,-0.37158203,-1.0986328,-9.887695,21.66748,0.0,0.0,0.0,161.88354,70.27954,159.57642
2026-02-19 23:01:54.631,1771513314631,1771513314631,-0.9946289,0.14648438,-0.33544922,22.399902,-5.3710938,9.155273,0.0,0.0,0.0,159.61487,71.15845,151.67175
2026-02-19 23:01:54.731,1771513314731,1771513314731,-0.96972656,0.26367188,-0.119140625,64.7583,-23.254395,23.742676,0.0,0.0,0.0,151.21033,71.38367,138.98804
2026-02-19 23:01:54.831,1771513314831,1771513314831,-1.0092773,0.18945312,-0.26513672,81.78711,10.192871,-35.15625,0.0,0.0,0.0,154.63257,72.284546,136.21399
2026-02-19 23:01:54.931,1771513314931,1771513314931,-0.88134766,0.015136719,-0.22607422,6.1035156,-125.67139,8.422852,0.0,0.0,0.0,147.72766,77.10205,125.31555
2026-02-19 23:01:55.030,1771513315030,1771513315030,-0.9711914,0.10546875,-0.1665039,5.1879883,46.75293,-17.456055,0.0,0.0,0.0,148.09021,80.1178,119.44336
2026-02-19 23:01:55.130,1771513315130,1771513315130,-1.1982422,-0.08642578,-0.018554688,-58.654785,-54.19922,-6.591797,0.0,0.0,0.0,176.4679,83.71582,153.85803
2026-02-19 23:01:55.229,1771513315229,1771513315229,-0.9682617,0.017578125,0.3330078,-48.339844,-28.259277,-73.36426,0.0,0.0,0.0,17.111206,83.743286,5.328369
2026-02-19 23:01:55.329,1771513315329,1771513315329,-2.1108398,-0.4975586,-0.08105469,110.961914,25.57373,-25.878906,0.0,0.0,0.0,64.42932,81.75476,47.614746
2026-02-19 23:01:55.429,1771513315429,1771513315429,-0.9902344,0.10839844,0.087890625,-8.178711,-2.8686523,-27.954102,0.0,0.0,0.0,40.671387,86.53381,22.835083
2026-02-19 23:01:55.528,1771513315528,1771513315528,-1.0141602,-0.10595703,-0.0029296875,-3.3569336,-13.183594,-47.546387,0.0,0.0,0.0,-53.041992,84.90784,-69.48303
2026-02-19 23:01:55.628,1771513315628,1771513315628,-0.9584961,-0.13964844,0.068359375,-16.784668,-21.30127,-78.85742,0.0,0.0,0.0,-71.87805,77.98096,-85.808716
2026-02-19 23:01:55.728,1771513315728,1771513315728,-0.92626953,-0.22216797,0.1303711,19.65332,-17.76123,-32.348633,0.0,0.0,0.0,-72.29004,70.85632,-86.50635
2026-02-19 23:01:55.828,1771513315828,1771513315828,-0.96435547,-0.37646484,0.12158203,24.597168,-16.662598,-84.28955,0.0,0.0,0.0,-69.609375,65.77515,-87.17651
2026-02-19 23:01:55.927,1771513315927,1771513315927,-0.88623047,-0.32373047,0.11767578,27.770996,-16.784668,-31.555176,0.0,0.0,0.0,-67.49451,61.188354,-87.30835
2026-02-19 23:01:56.027,1771513316027,1771513316027,-0.81103516,-0.4243164,0.20947266,13.305664,-43.395996,-55.603027,0.0,0.0,0.0,-63.89099,56.815796,-85.391235
2026-02-19 23:01:56.127,1771513316127,1771513316127,-0.77246094,-0.67578125,0.29882812,28.869629,-23.864746,-35.339355,0.0,0.0,0.0,-61.221313,50.05371,-84.8584
2026-02-19 23:01:56.227,1771513316227,1771513316227,-0.7495117,-0.7504883,0.41845703,1.159668,-3.7231445,3.9672852,0.0,0.0,0.0,-59.37561,48.339844,-83.166504
2026-02-19 23:01:56.326,1771513316326,1771513316326,-0.6904297,-0.6816406,0.453125,2.6245117,17.333984,36.315918,0.0,0.0,0.0,-58.92517,50.559082,-82.23816
2026-02-19 23:01:56.426,1771513316426,1771513316426,-0.69873047,-0.5522461,0.37158203,0.36621094,21.66748,67.32178,0.0,0.0,0.0,-57.788086,55.371094,-80.71106
2026-02-19 23:01:56.525,1771513316525,1771513316525,-0.8510742,-0.38671875,0.24707031,-6.7749023,33.935547,42.053223,0.0,0.0,0.0,-58.463745,60.161133,-81.76575
2026-02-19 23:01:56.625,1771513316625,1771513316625,-0.8535156,-0.36279297,0.1616211,-8.605957,44.128418,35.461426,0.0,0.0,0.0,-62.528687,65.65979,-85.14404
2026-02-19 23:01:56.725,1771513316725,1771513316725,-0.92529297,-0.26953125,0.103027344,11.59668,9.521484,8.056641,0.0,0.0,0.0,-65.05554,68.670044,-87.80823
2026-02-19 23:01:56.825,1771513316825,1771513316825,-0.89501953,-0.23046875,0.12988281,22.583008,-20.629883,-21.728516,0.0,0.0,0.0,-63.29773,67.901,-87.264404
2026-02-19 23:01:56.924,1771513316924,1771513316924,-0.9633789,-0.328125,0.14453125,26.916504,-31.12793,-37.719727,0.0,0.0,0.0,-57.81555,63.918457,-83.51807
2026-02-19 23:01:57.024,1771513317024,1771513317024,-0.80322266,-0.35351562,0.26513672,16.479492,-41.809082,-29.60205,0.0,0.0,0.0,-54.91516,59.68872,-82.177734
2026-02-19 23:01:57.124,1771513317124,1771513317124,-0.8515625,-0.4897461,0.40039062,4.760742,-33.325195,-18.920898,0.0,0.0,0.0,-50.92163,55.426025,-77.612915
2026-02-19 23:01:57.223,1771513317223,1771513317223,-0.828125,-0.54345703,0.5078125,-10.070801,-0.061035156,7.873535,0.0,0.0,0.0,-50.13611,54.63501,-74.92676
2026-02-19 23:01:57.323,1771513317323,1771513317323,-0.82128906,-0.52734375,0.46289062,-5.004883,-12.023926,10.009766,0.0,0.0,0.0,-49.361572,54.77234,-73.03162
2026-02-19 23:01:57.423,1771513317423,1771513317423,-0.7949219,-0.4086914,0.36767578,-11.169434,0.79345703,9.82666,0.0,0.0,0.0,-48.31787,54.486694,-70.52673
2026-02-19 23:01:57.522,1771513317522,1771513317522,-0.8144531,-0.4111328,0.38134766,-8.178711,11.047363,10.437012,0.0,0.0,0.0,-49.21875,55.827026,-69.801636
2026-02-19 23:01:57.622,1771513317622,1771513317622,-0.8535156,-0.44140625,0.35546875,-5.92041,6.7749023,10.925293,0.0,0.0,0.0,-49.454956,57.08496,-68.829346
2026-02-19 23:01:57.722,1771513317722,1771513317722,-0.8095703,-0.4267578,0.35546875,-5.1879883,1.6479492,6.4086914,0.0,0.0,0.0,-49.77356,57.947388,-68.40637
2026-02-19 23:01:57.822,1771513317822,1771513317822,-0.8466797,-0.37646484,0.33398438,-3.479004,-4.8828125,3.6010742,0.0,0.0,0.0,-49.56482,58.007812,-67.37366
2026-02-19 23:01:57.921,1771513317921,1771513317921,-0.8569336,-0.4008789,0.3413086,3.3569336,-4.3945312,-0.91552734,0.0,0.0,0.0,-48.894653,57.71118,-66.346436
2026-02-19 23:01:58.021,1771513318021,1771513318021,-0.81884766,-0.4038086,0.35888672,-1.159668,-2.1362305,0.4272461,0.0,0.0,0.0,-48.40576,57.507935,-65.57739
2026-02-19 23:01:58.121,1771513318121,1771513318121,-0.84277344,-0.3876953,0.37304688,-3.7231445,-9.155273,-0.79345703,0.0,0.0,0.0,-47.922363,57.1344,-64.209595
2026-02-19 23:01:58.220,1771513318220,1771513318220,-0.83251953,-0.39501953,0.36376953,-3.7231445,-6.0424805,-0.30517578,0.0,0.0,0.0,-47.471924,56.557617,-63.198853
2026-02-19 23:01:58.321,1771513318321,1771513318321,-0.84521484,-0.4189453,0.3803711,-7.2021484,-5.493164,-0.91552734,0.0,0.0,0.0,-47.43347,56.244507,-62.32544
2026-02-19 23:01:58.420,1771513318420,1771513318420,-0.81591797,-0.4194336,0.37890625,-4.5166016,-3.8452148,-0.48828125,0.0,0.0,0.0,-47.543335,55.876465,-61.430054
2026-02-19 23:01:58.520,1771513318520,1771513318520,-0.81933594,-0.41308594,0.3828125,-2.746582,-4.5776367,-0.4272461,0.0,0.0,0.0,-47.521362,55.50293,-60.78186
2026-02-19 23:01:58.619,1771513318619,1771513318619,-0.8173828,-0.43554688,0.38916016,0.061035156,-2.8076172,-1.2207031,0.0,0.0,0.0,-47.191772,55.162354,-60.20508
2026-02-19 23:01:58.720,1771513318720,1771513318720,-0.81591797,-0.44189453,0.38867188,-7.6904297,-2.1972656,1.5869141,0.0,0.0,0.0,-47.356567,55.046997,-59.798584
2026-02-19 23:01:58.819,1771513318819,1771513318819,-0.80615234,-0.43798828,0.37109375,-6.713867,-3.4179688,1.0375977,0.0,0.0,0.0,-47.592773,54.854736,-58.952637
2026-02-19 23:01:58.918,1771513318918,1771513318918,-0.81347656,-0.41748047,0.39453125,-3.112793,-3.1738281,0.18310547,0.0,0.0,0.0,-47.817993,54.66797,-58.447266
2026-02-19 23:01:59.018,1771513319018,1771513319018,-0.8173828,-0.43701172,0.38623047,-0.5493164,-0.36621094,-1.4038086,0.0,0.0,0.0,-47.86743,54.54712,-58.320923
2026-02-19 23:01:59.118,1771513319118,1771513319118,-0.8208008,-0.43164062,0.3881836,-0.91552734,-0.30517578,-0.18310547,0.0,0.0,0.0,-47.927856,54.437256,-58.167114
2026-02-19 23:01:59.217,1771513319217,1771513319217,-0.8095703,-0.4345703,0.38671875,0.79345703,2.0751953,0.4272461,0.0,0.0,0.0,-47.94983,54.525146,-58.128662
2026-02-19 23:01:59.317,1771513319317,1771513319317,-0.80908203,-0.44140625,0.38232422,0.48828125,1.6479492,0.4272461,0.0,0.0,0.0,-47.993774,54.662476,-58.1781
2026-02-19 23:01:59.417,1771513319417,1771513319417,-0.81591797,-0.4321289,0.38232422,-0.18310547,1.4648438,0.5493164,0.0,0.0,0.0,-48.14209,54.744873,-58.16162
2026-02-19 23:01:59.517,1771513319517,1771513319517,-0.80810547,-0.43554688,0.3803711,0.61035156,1.5869141,0.5493164,0.0,0.0,0.0,-48.164062,54.832764,-58.156128
2026-02-19 23:01:59.616,1771513319616,1771513319616,-0.8198242,-0.43164062,0.37548828,0.48828125,0.24414062,0.24414062,0.0,0.0,0.0,-48.098145,54.82727,-57.963867
2026-02-19 23:01:59.716,1771513319716,1771513319716,-0.81347656,-0.43115234,0.3798828,1.0375977,-0.18310547,1.159668,0.0,0.0,0.0,-47.94983,54.89868,-57.804565
2026-02-19 23:01:59.816,1771513319816,1771513319816,-0.8100586,-0.42919922,0.3881836,0.61035156,-0.24414062,0.7324219,0.0,0.0,0.0,-47.77954,54.942627,-57.56836
2026-02-19 23:01:59.915,1771513319915,1771513319915,-0.8208008,-0.42871094,0.38183594,-0.12207031,0.0,0.24414062,0.0,0.0,0.0,-47.697144,54.926147,-57.409058
2026-02-19 23:02:00.015,1771513320015,1771513320015,-0.81689453,-0.42089844,0.3857422,0.8544922,0.30517578,0.24414062,0.0,0.0,0.0,-47.680664,54.942627,-57.354126
2026-02-19 23:02:00.115,1771513320115,1771513320115,-0.8173828,-0.4248047,0.3857422,0.61035156,0.5493164,0.48828125,0.0,0.0,0.0,-47.592773,54.986572,-57.299194
2026-02-19 23:02:00.215,1771513320215,1771513320215,-0.81689453,-0.42578125,0.3828125,0.61035156,0.5493164,-0.30517578,0.0,0.0,0.0,-47.55432,55.00305,-57.2937
2026-02-19 23:02:00.314,1771513320314,1771513320314,-0.81689453,-0.42089844,0.3857422,-0.36621094,-0.24414062,0.0,0.0,0.0,0.0,-47.53784,54.959106,-57.216797
2026-02-19 23:02:00.414,1771513320414,1771513320414,-0.81347656,-0.42822266,0.38476562,0.30517578,-0.48828125,0.24414062,0.0,0.0,0.0,-47.438965,54.89868,-57.079468
2026-02-19 23:02:00.514,1771513320514,1771513320514,-0.8203125,-0.4272461,0.3881836,0.9765625,-0.48828125,0.36621094,0.0,0.0,0.0,-47.230225,54.838257,-56.832275
2026-02-19 23:02:00.613,1771513320613,1771513320613,-0.8144531,-0.43408203,0.38916016,-0.9765625,-0.4272461,0.24414062,0.0,0.0,0.0,-47.15332,54.78882,-56.70044
2026-02-19 23:02:00.713,1771513320713,1771513320713,-0.8183594,-0.41992188,0.38476562,-1.3427734,-0.6713867,0.79345703,0.0,0.0,0.0,-47.11487,54.73938,-56.35437
2026-02-19 23:02:00.813,1771513320813,1771513320813,-0.81396484,-0.42822266,0.38964844,0.36621094,-0.18310547,0.4272461,0.0,0.0,0.0,-47.04895,54.733887,-56.211548
2026-02-19 23:02:00.913,1771513320913,1771513320913,-0.8183594,-0.41845703,0.38916016,-1.8920898,-2.0141602,2.319336,0.0,0.0,0.0,-46.9281,54.777832,-55.88745
2026-02-19 23:02:01.012,1771513321012,1771513321012,-0.81591797,-0.42138672,0.3984375,1.8310547,0.5493164,-0.18310547,0.0,0.0,0.0,-46.763306,54.783325,-55.66223
2026-02-19 23:02:01.112,1771513321112,1771513321112,-0.8173828,-0.4243164,0.3881836,0.48828125,0.0,0.36621094,0.0,0.0,0.0,-46.604004,54.761353,-55.568848
2026-02-19 23:02:01.211,1771513321211,1771513321211,-0.8208008,-0.4267578,0.38427734,-1.0986328,-1.7089844,0.0,0.0,0.0,0.0,-46.58203,54.733887,-55.51941
2026-02-19 23:02:01.311,1771513321311,1771513321311,-0.8129883,-0.4169922,0.3959961,1.0375977,0.0,-0.5493164,0.0,0.0,0.0,-46.56006,54.66797,-55.404053
2026-02-19 23:02:01.411,1771513321411,1771513321411,-0.8125,-0.421875,0.39794922,0.4272461,-0.061035156,-0.24414062,0.0,0.0,0.0,-46.46118,54.60205,-55.376587
2026-02-19 23:02:01.511,1771513321511,1771513321511,-0.81884766,-0.4267578,0.39111328,-0.4272461,-0.8544922,-0.24414062,0.0,0.0,0.0,-46.42273,54.536133,-55.266724
2026-02-19 23:02:01.610,1771513321610,1771513321610,-0.80859375,-0.42529297,0.3955078,-0.9765625,-0.061035156,-0.7324219,0.0,0.0,0.0,-46.56555,54.475708,-55.27771
2026-02-19 23:02:01.710,1771513321710,1771513321710,-0.8144531,-0.41796875,0.39501953,-1.2207031,-1.2817383,-0.18310547,0.0,0.0,0.0,-46.66443,54.349365,-55.184326
2026-02-19 23:02:01.810,1771513321810,1771513321810,-0.8105469,-0.4272461,0.40039062,1.0986328,0.4272461,-0.18310547,0.0,0.0,0.0,-46.625977,54.310913,-55.10742
2026-02-19 23:02:01.909,1771513321909,1771513321909,-0.8105469,-0.4248047,0.39648438,1.0986328,0.4272461,0.0,0.0,0.0,0.0,-46.54358,54.3219,-55.025024
2026-02-19 23:02:02.009,1771513322009,1771513322009,-0.81152344,-0.43066406,0.4033203,0.6713867,-0.24414062,-0.12207031,0.0,0.0,0.0,-46.54358,54.349365,-55.096436
2026-02-19 23:02:02.109,1771513322109,1771513322109,-0.8129883,-0.42773438,0.4008789,-0.12207031,0.4272461,-0.36621094,0.0,0.0,0.0,-46.532593,54.30542,-55.030518
2026-02-19 23:02:02.209,1771513322209,1771513322209,-0.8076172,-0.42529297,0.39697266,0.7324219,1.7089844,0.30517578,0.0,0.0,0.0,-46.538086,54.310913,-55.025024
2026-02-19 23:02:02.308,1771513322308,1771513322308,-0.81884766,-0.4248047,0.39257812,-0.6713867,-0.79345703,0.8544922,0.0,0.0,0.0,-46.483154,54.349365,-54.84375
2026-02-19 23:02:02.408,1771513322408,1771513322408,-0.8125,-0.42822266,0.39990234,-0.12207031,0.30517578,-0.12207031,0.0,0.0,0.0,-46.538086,54.398804,-54.909668
2026-02-19 23:02:02.508,1771513322508,1771513322508,-0.8100586,-0.42822266,0.39501953,0.24414062,1.3427734,-0.18310547,0.0,0.0,0.0,-46.554565,54.404297,-54.93164
2026-02-19 23:02:02.607,1771513322607,1771513322607,-0.8095703,-0.4243164,0.39501953,0.7324219,0.24414062,-0.36621094,0.0,0.0,0.0,-46.609497,54.404297,-55.057983
2026-02-19 23:02:02.707,1771513322707,1771513322707,-0.81640625,-0.4194336,0.39648438,1.0986328,0.5493164,-0.48828125,0.0,0.0,0.0,-46.61499,54.37683,-55.134888
2026-02-19 23:02:02.807,1771513322807,1771513322807,-0.8095703,-0.42041016,0.4033203,-0.36621094,1.3427734,-0.18310547,0.0,0.0,0.0,-46.68091,54.42627,-55.33264
2026-02-19 23:02:02.907,1771513322907,1771513322907,-0.8129883,-0.43603516,0.38671875,-0.9765625,-0.18310547,-0.79345703,0.0,0.0,0.0,-46.713867,54.39331,-55.371094
2026-02-19 23:02:03.006,1771513323006,1771513323006,-0.80810547,-0.43408203,0.40185547,-1.953125,-0.7324219,-1.5869141,0.0,0.0,0.0,-46.988525,54.283447,-55.475464
2026-02-19 23:02:03.106,1771513323106,1771513323106,-0.8125,-0.4326172,0.39160156,-1.7700195,-0.18310547,-0.30517578,0.0,0.0,0.0,-47.10388,54.124146,-55.393066
2026-02-19 23:02:03.205,1771513323205,1771513323205,-0.8129883,-0.42919922,0.38867188,1.159668,0.7324219,0.61035156,0.0,0.0,0.0,-47.08191,54.157104,-55.321655
2026-02-19 23:02:03.305,1771513323305,1771513323305,-0.8027344,-0.43408203,0.39941406,0.7324219,0.12207031,-0.24414062,0.0,0.0,0.0,-47.021484,54.190063,-55.321655
2026-02-19 23:02:03.405,1771513323405,1771513323405,-0.8100586,-0.4345703,0.39746094,-1.0375977,-1.3427734,-0.8544922,0.0,0.0,0.0,-47.03247,54.06372,-55.26123
2026-02-19 23:02:03.505,1771513323505,1771513323505,-0.8041992,-0.43652344,0.3955078,-0.79345703,-0.61035156,-1.0986328,0.0,0.0,0.0,-47.09839,53.9209,-55.195312
2026-02-19 23:02:03.604,1771513323604,1771513323604,-0.8071289,-0.42626953,0.4038086,-0.61035156,-0.8544922,-0.5493164,0.0,0.0,0.0,-47.175293,53.78357,-55.18982
2026-02-19 23:02:03.704,1771513323704,1771513323704,-0.8076172,-0.4326172,0.40673828,0.6713867,-0.7324219,-0.6713867,0.0,0.0,0.0,-47.11487,53.651733,-55.217285
2026-02-19 23:02:03.804,1771513323804,1771513323804,-0.79833984,-0.43652344,0.40429688,0.61035156,0.6713867,0.12207031,0.0,0.0,0.0,-47.005005,53.61328,-55.24475
2026-02-19 23:02:03.903,1771513323903,1771513323903,-0.8022461,-0.4404297,0.3984375,0.48828125,-0.6713867,-1.0375977,0.0,0.0,0.0,-46.939087,53.519897,-55.233765
2026-02-19 23:02:04.003,1771513324003,1771513324003,-0.8051758,-0.43847656,0.40283203,0.12207031,-0.7324219,-0.5493164,0.0,0.0,0.0,-46.966553,53.40454,-55.239258
2026-02-19 23:02:04.103,1771513324103,1771513324103,-0.7973633,-0.43701172,0.40576172,0.79345703,0.61035156,-0.6713867,0.0,0.0,0.0,-46.966553,53.344116,-55.266724
2026-02-19 23:02:04.203,1771513324203,1771513324203,-0.79785156,-0.4375,0.40283203,0.61035156,-0.24414062,-0.7324219,0.0,0.0,0.0,-46.9281,53.239746,-55.26123
2026-02-19 23:02:04.302,1771513324302,1771513324302,-0.7993164,-0.4404297,0.40527344,0.18310547,-1.2207031,-1.0375977,0.0,0.0,0.0,-46.89514,53.096924,-55.22827
2026-02-19 23:02:04.402,1771513324402,1771513324402,-0.80078125,-0.44091797,0.40771484,0.61035156,-0.79345703,-0.9765625,0.0,0.0,0.0,-46.862183,52.9541,-55.233765
2026-02-19 23:02:04.502,1771513324502,1771513324502,-0.7890625,-0.44482422,0.40527344,0.36621094,-0.7324219,-0.7324219,0.0,0.0,0.0,-46.84021,52.86621,-55.321655
2026-02-19 23:02:04.601,1771513324601,1771513324601,-0.7998047,-0.45117188,0.40429688,0.18310547,-2.380371,-1.2207031,0.0,0.0,0.0,-46.801758,52.712402,-55.33264
2026-02-19 23:02:04.701,1771513324701,1771513324701,-0.7915039,-0.4477539,0.4169922,1.0986328,0.18310547,-1.2817383,0.0,0.0,0.0,-46.834717,52.591553,-55.376587
2026-02-19 23:02:04.801,1771513324801,1771513324801,-0.7915039,-0.44726562,0.41308594,0.30517578,-0.061035156,-1.0375977,0.0,0.0,0.0,-46.801758,52.46521,-55.426025
2026-02-19 23:02:04.901,1771513324901,1771513324901,-0.7944336,-0.44726562,0.4091797,1.0986328,0.0,-0.7324219,0.0,0.0,0.0,-46.801758,52.3938,-55.48645
2026-02-19 23:02:05.000,1771513325000,1771513325000,-0.78759766,-0.4482422,0.4169922,0.4272461,0.8544922,-0.24414062,0.0,0.0,0.0,-46.85669,52.399292,-55.618286
2026-02-19 23:02:05.100,1771513325100,1771513325100,-0.78759766,-0.44726562,0.4116211,0.91552734,0.91552734,-0.30517578,0.0,0.0,0.0,-46.862183,52.41577,-55.706177
2026-02-19 23:02:05.200,1771513325200,1771513325200,-0.7910156,-0.44628906,0.4111328,0.5493164,0.36621094,-0.12207031,0.0,0.0,0.0,-46.862183,52.41577,-55.805054
2026-02-19 23:02:05.299,1771513325299,1771513325299,-0.79345703,-0.4477539,0.4091797,0.0,0.48828125,0.12207031,0.0,0.0,0.0,-46.862183,52.426758,-55.849
2026-02-19 23:02:05.399,1771513325399,1771513325399,-0.7919922,-0.44970703,0.4116211,0.5493164,2.2583008,-0.18310547,0.0,0.0,0.0,-46.91162,52.503662,-55.947876
2026-02-19 23:02:05.499,1771513325499,1771513325499,-0.79589844,-0.44873047,0.40283203,-0.4272461,-0.30517578,0.24414062,0.0,0.0,0.0,-46.939087,52.509155,-56.002808
2026-02-19 23:02:05.598,1771513325598,1771513325598,-0.79003906,-0.44921875,0.4116211,0.36621094,-0.061035156,0.12207031,0.0,0.0,0.0,-46.94458,52.53662,-56.019287
2026-02-19 23:02:05.698,1771513325698,1771513325698,-0.7919922,-0.44628906,0.41308594,-0.24414062,0.36621094,-0.36621094,0.0,0.0,0.0,-46.966553,52.52014,-56.079712
2026-02-19 23:02:05.798,1771513325798,1771513325798,-0.79541016,-0.4477539,0.40820312,0.36621094,0.36621094,-0.48828125,0.0,0.0,0.0,-46.972046,52.46521,-56.11267
2026-02-19 23:02:05.898,1771513325898,1771513325898,-0.79248047,-0.44726562,0.4116211,0.61035156,0.24414062,-0.4272461,0.0,0.0,0.0,-47.010498,52.443237,-56.20056
2026-02-19 23:02:05.997,1771513325997,1771513325997,-0.79003906,-0.44921875,0.41357422,0.061035156,0.12207031,-0.36621094,0.0,0.0,0.0,-47.01599,52.41028,-56.244507
2026-02-19 23:02:06.097,1771513326097,1771513326097,-0.7895508,-0.4477539,0.41503906,-0.30517578,0.18310547,-0.24414062,0.0,0.0,0.0,-47.04895,52.371826,-56.271973
2026-02-19 23:02:06.197,1771513326197,1771513326197,-0.7890625,-0.4482422,0.4140625,-0.18310547,0.30517578,0.12207031,0.0,0.0,0.0,-47.06543,52.366333,-56.29944
2026-02-19 23:02:06.297,1771513326297,1771513326297,-0.79345703,-0.44726562,0.41552734,-0.79345703,0.0,-0.12207031,0.0,0.0,0.0,-47.059937,52.34436,-56.310425
2026-02-19 23:02:06.396,1771513326396,1771513326396,-0.7871094,-0.4477539,0.41064453,0.0,0.061035156,0.24414062,0.0,0.0,0.0,-47.092896,52.333374,-56.381836
2026-02-19 23:02:06.496,1771513326496,1771513326496,-0.79248047,-0.44921875,0.41503906,-0.12207031,-0.79345703,0.18310547,0.0,0.0,0.0,-47.070923,52.349854,-56.365356
2026-02-19 23:02:06.596,1771513326596,1771513326596,-0.7871094,-0.4477539,0.41552734,0.12207031,0.7324219,-0.061035156,0.0,0.0,0.0,-47.06543,52.32788,-56.40381
2026-02-19 23:02:06.696,1771513326696,1771513326696,-0.7910156,-0.4477539,0.40966797,-0.7324219,-0.061035156,0.24414062,0.0,0.0,0.0,-47.04895,52.316895,-56.376343
2026-02-19 23:02:06.795,1771513326795,1771513326795,-0.7895508,-0.4506836,0.4091797,0.61035156,0.061035156,0.0,0.0,0.0,0.0,-47.043457,52.322388,-56.38733
2026-02-19 23:02:06.895,1771513326895,1771513326895,-0.79003906,-0.44726562,0.41308594,-0.30517578,-0.7324219,0.0,0.0,0.0,0.0,-47.005005,52.300415,-56.343384
2026-02-19 23:02:06.995,1771513326995,1771513326995,-0.78808594,-0.4501953,0.41064453,0.30517578,-0.18310547,0.0,0.0,0.0,0.0,-46.96106,52.267456,-56.32141
2026-02-19 23:02:07.094,1771513327094,1771513327094,-0.7915039,-0.44580078,0.4194336,0.30517578,0.8544922,0.12207031,0.0,0.0,0.0,-46.939087,52.250977,-56.293945
2026-02-19 23:02:07.194,1771513327194,1771513327194,-0.78808594,-0.4506836,0.4194336,0.0,0.79345703,0.0,0.0,0.0,0.0,-46.939087,52.283936,-56.359863
2026-02-19 23:02:07.294,1771513327294,1771513327294,-0.79052734,-0.44433594,0.4111328,0.0,0.18310547,0.0,0.0,0.0,0.0,-46.900635,52.23999,-56.310425
2026-02-19 23:02:07.393,1771513327393,1771513327393,-0.7910156,-0.44921875,0.41064453,0.30517578,-0.30517578,0.18310547,0.0,0.0,0.0,-46.85669,52.25647,-56.315918
2026-02-19 23:02:07.493,1771513327493,1771513327493,-0.78515625,-0.4482422,0.41357422,-0.18310547,-0.12207031,0.0,0.0,0.0,0.0,-46.851196,52.245483,-56.33789
2026-02-19 23:02:07.593,1771513327593,1771513327593,-0.79541016,-0.4404297,0.40722656,1.2207031,0.7324219,0.4272461,0.0,0.0,0.0,-46.796265,52.25647,-56.32141
2026-02-19 23:02:07.692,1771513327692,1771513327692,-0.7895508,-0.44970703,0.41455078,-1.5869141,-1.4648438,-0.30517578,0.0,0.0,0.0,-46.84021,52.212524,-56.315918
2026-02-19 23:02:07.792,1771513327792,1771513327792,-0.7807617,-0.45898438,0.4111328,-0.9765625,0.0,0.0,0.0,0.0,0.0,-46.867676,52.108154,-56.16211
2026-02-19 23:02:07.892,1771513327892,1771513327892,-0.7895508,-0.45361328,0.42041016,-1.5869141,-0.8544922,-0.61035156,0.0,0.0,0.0,-47.026978,52.01477,-56.184082
2026-02-19 23:02:07.991,1771513327991,1771513327991,-0.7885742,-0.4453125,0.41992188,1.0986328,0.5493164,-0.12207031,0.0,0.0,0.0,-47.026978,51.970825,-56.239014
2026-02-19 23:02:08.091,1771513328091,1771513328091,-0.7895508,-0.45117188,0.42041016,-0.6713867,1.2207031,0.18310547,0.0,0.0,0.0,-47.005005,52.025757,-56.37085
2026-02-19 23:02:08.191,1771513328191,1771513328191,-0.7919922,-0.4506836,0.40673828,-0.8544922,0.18310547,0.0,0.0,0.0,0.0,-47.037964,52.009277,-56.40381
2026-02-19 23:02:08.291,1771513328291,1771513328291,-0.7890625,-0.45263672,0.4116211,0.0,-0.061035156,0.24414062,0.0,0.0,0.0,-47.08191,52.04773,-56.47522
2026-02-19 23:02:08.390,1771513328390,1771513328390,-0.7861328,-0.4501953,0.41455078,-0.91552734,0.6713867,0.12207031,0.0,0.0,0.0,-47.1698,52.097168,-56.552124
2026-02-19 23:02:08.490,1771513328490,1771513328490,-0.7919922,-0.45507812,0.40527344,-0.7324219,1.0986328,0.61035156,0.0,0.0,0.0,-47.296143,52.157593,-56.618042
2026-02-19 23:02:08.590,1771513328590,1771513328590,-0.78808594,-0.45947266,0.40820312,-0.6713867,0.061035156,0.12207031,0.0,0.0,0.0,-47.373047,52.212524,-56.645508
2026-02-19 23:02:08.689,1771513328689,1771513328689,-0.78808594,-0.44921875,0.40820312,-0.79345703,-0.9765625,0.0,0.0,0.0,0.0,-47.43347,52.163086,-56.601562
2026-02-19 23:02:08.789,1771513328789,1771513328789,-0.7861328,-0.45654297,0.4165039,-1.4038086,-0.48828125,0.4272461,0.0,0.0,0.0,-47.493896,52.146606,-56.59607
2026-02-19 23:02:08.889,1771513328889,1771513328889,-0.79541016,-0.4423828,0.40771484,-0.24414062,-0.18310547,0.24414062,0.0,0.0,0.0,-47.471924,52.069702,-56.392822
2026-02-19 23:02:08.991,1771513328991,1771513328991,-0.78222656,-0.45898438,0.41015625,1.5869141,0.79345703,-0.7324219,0.0,0.0,0.0,-47.444458,52.130127,-56.54663
2026-02-19 23:02:09.088,1771513329088,1771513329088,-0.79003906,-0.45947266,0.3955078,0.0,-0.4272461,-0.91552734,0.0,0.0,0.0,-47.460938,52.058716,-56.59607
2026-02-19 23:02:09.188,1771513329188,1771513329188,-0.7890625,-0.45410156,0.41015625,0.79345703,0.24414062,-1.953125,0.0,0.0,0.0,-47.63672,51.965332,-56.777344
2026-02-19 23:02:09.288,1771513329288,1771513329288,-0.7866211,-0.4555664,0.4165039,0.4272461,1.0986328,-1.2207031,0.0,0.0,0.0,-47.752075,51.888428,-57.002563
2026-02-19 23:02:09.387,1771513329387,1771513329387,-0.79052734,-0.4609375,0.40625,0.061035156,0.18310547,0.0,0.0,0.0,0.0,-47.76306,51.85547,-57.06299
2026-02-19 23:02:09.487,1771513329487,1771513329487,-0.78515625,-0.46679688,0.4111328,0.24414062,0.24414062,-0.12207031,0.0,0.0,0.0,-47.801514,51.87195,-57.145386
2026-02-19 23:02:09.587,1771513329587,1771513329587,-0.7832031,-0.46679688,0.40673828,0.36621094,0.0,-0.061035156,0.0,0.0,0.0,-47.790527,51.866455,-57.183838
2026-02-19 23:02:09.686,1771513329686,1771513329686,-0.78271484,-0.4580078,0.40820312,0.36621094,0.0,0.36621094,0.0,0.0,0.0,-47.774048,51.860962,-57.194824
2026-02-19 23:02:09.786,1771513329786,1771513329786,-0.7832031,-0.45507812,0.41015625,0.061035156,0.12207031,0.61035156,0.0,0.0,0.0,-47.713623,51.882935,-57.178345
2026-02-19 23:02:09.886,1771513329886,1771513329886,-0.78808594,-0.45458984,0.4169922,-0.48828125,0.0,0.0,0.0,0.0,0.0,-47.6532,51.899414,-57.145386
2026-02-19 23:02:09.985,1771513329985,1771513329985,-0.7861328,-0.45751953,0.40820312,-1.4648438,-0.30517578,0.061035156,0.0,0.0,0.0,-47.647705,51.833496,-57.04651
2026-02-19 23:02:10.085,1771513330085,1771513330085,-0.79248047,-0.46435547,0.41455078,-0.79345703,-0.12207031,0.0,0.0,0.0,0.0,-47.702637,51.82251,-57.08496
2026-02-19 23:02:10.185,1771513330185,1771513330185,-0.7836914,-0.45654297,0.41455078,-1.8310547,1.4038086,-0.12207031,0.0,0.0,0.0,-47.91687,51.849976,-57.183838
2026-02-19 23:02:10.285,1771513330285,1771513330285,-0.81152344,-0.46289062,0.4033203,-2.6855469,2.6855469,1.4038086,0.0,0.0,0.0,-48.251953,51.987305,-57.337646
2026-02-19 23:02:10.384,1771513330384,1771513330384,-0.8041992,-0.46875,0.39892578,-2.6855469,3.90625,1.159668,0.0,0.0,0.0,-48.76831,52.37732,-57.595825
2026-02-19 23:02:10.484,1771513330484,1771513330484,-0.7944336,-0.45996094,0.4038086,0.36621094,8.911133,1.3427734,0.0,0.0,0.0,-49.328613,52.684937,-58.34839
2026-02-19 23:02:10.584,1771513330584,1771513330584,-0.80078125,-0.4638672,0.39208984,-2.380371,8.178711,0.0,0.0,0.0,0.0,-50.130615,53.1958,-59.276733
2026-02-19 23:02:10.683,1771513330683,1771513330683,-0.80859375,-0.4609375,0.3696289,-2.6245117,10.375977,1.8310547,0.0,0.0,0.0,-51.185303,53.756104,-60.408325
2026-02-19 23:02:10.783,1771513330783,1771513330783,-0.8496094,-0.47070312,0.36035156,-3.479004,13.122559,3.4179688,0.0,0.0,0.0,-52.41028,54.58557,-61.72119
2026-02-19 23:02:10.883,1771513330883,1771513330883,-0.8334961,-0.44580078,0.34814453,-7.2021484,21.240234,8.850098,0.0,0.0,0.0,-54.06372,55.87097,-63.407593
2026-02-19 23:02:10.983,1771513330983,1771513330983,-0.8413086,-0.4868164,0.3173828,-6.286621,16.967773,4.760742,0.0,0.0,0.0,-56.66748,57.70569,-66.00586
2026-02-19 23:02:11.082,1771513331082,1771513331082,-0.8535156,-0.39501953,0.19091797,1.4038086,12.023926,-0.061035156,0.0,0.0,0.0,-58.52417,58.16162,-68.00537
2026-02-19 23:02:11.182,1771513331182,1771513331182,-0.84228516,-0.47558594,0.19482422,5.065918,21.911621,-8.544922,0.0,0.0,0.0,-61.534424,59.035034,-71.72424
2026-02-19 23:02:11.282,1771513331282,1771513331282,-0.81347656,-0.48046875,0.19628906,-6.8969727,8.911133,-12.145996,0.0,0.0,0.0,-64.7699,58.85376,-75.27283
2026-02-19 23:02:11.381,1771513331381,1771513331381,-0.8520508,-0.47070312,0.16894531,-10.437012,0.30517578,-5.6762695,0.0,0.0,0.0,-67.142944,58.172607,-77.03613
2026-02-19 23:02:11.481,1771513331481,1771513331481,-0.8378906,-0.47607422,0.16796875,-10.7421875,6.7749023,-1.5258789,0.0,0.0,0.0,-68.99963,58.07373,-77.79419
2026-02-19 23:02:11.581,1771513331581,1771513331581,-0.8486328,-0.49804688,0.14697266,-6.7749023,1.7700195,2.9296875,0.0,0.0,0.0,-70.43884,58.326416,-78.35449
2026-02-19 23:02:11.680,1771513331680,1771513331680,-0.83691406,-0.49023438,0.14892578,-11.474609,1.7089844,3.9672852,0.0,0.0,0.0,-71.746216,58.79883,-78.63464
2026-02-19 23:02:11.780,1771513331780,1771513331780,-0.86816406,-0.50439453,0.14501953,-7.080078,-3.6621094,12.817383,0.0,0.0,0.0,-71.883545,59.485474,-77.77771
2026-02-19 23:02:11.880,1771513331880,1771513331880,-0.8779297,-0.47558594,0.15722656,-6.5307617,-3.7231445,10.986328,0.0,0.0,0.0,-71.53198,60.46875,-76.536255
2026-02-19 23:02:11.980,1771513331980,1771513331980,-0.91845703,-0.36376953,0.15185547,16.235352,-6.7749023,4.0893555,0.0,0.0,0.0,-68.98865,60.721436,-74.328
2026-02-19 23:02:12.079,1771513332079,1771513332079,-0.828125,-0.5234375,0.17822266,3.6621094,12.084961,10.009766,0.0,0.0,0.0,-68.862305,61.990356,-75.59143
2026-02-19 23:02:12.179,1771513332179,1771513332179,-0.87158203,-0.43847656,0.171875,0.61035156,-5.493164,-2.5024414,0.0,0.0,0.0,-68.724976,61.80359,-75.580444
2026-02-19 23:02:12.279,1771513332279,1771513332279,-0.8964844,-0.41552734,0.15625,-1.5258789,0.61035156,-0.79345703,0.0,0.0,0.0,-68.49426,61.501465,-74.95972
2026-02-19 23:02:12.378,1771513332378,1771513332378,-0.88378906,-0.421875,0.16992188,-0.6713867,-1.4648438,2.0141602,0.0,0.0,0.0,-68.637085,61.59485,-75.00366
2026-02-19 23:02:12.478,1771513332478,1771513332478,-0.8828125,-0.42626953,0.17333984,-0.24414062,0.061035156,1.8920898,0.0,0.0,0.0,-68.43933,61.814575,-74.767456
2026-02-19 23:02:12.578,1771513332578,1771513332578,-0.8886719,-0.4272461,0.17089844,4.0283203,2.8076172,-0.18310547,0.0,0.0,0.0,-68.1427,61.90796,-74.7345
2026-02-19 23:02:12.678,1771513332678,1771513332678,-0.8857422,-0.43359375,0.16796875,0.79345703,-0.8544922,0.5493164,0.0,0.0,0.0,-67.93945,62.006836,-74.73999
2026-02-19 23:02:12.777,1771513332777,1771513332777,-0.8803711,-0.4321289,0.16894531,1.2817383,0.4272461,-0.18310547,0.0,0.0,0.0,-67.93396,62.0343,-74.8938
2026-02-19 23:02:12.877,1771513332877,1771513332877,-0.88623047,-0.4350586,0.17480469,0.91552734,0.91552734,0.48828125,0.0,0.0,0.0,-67.901,62.078247,-74.95972
2026-02-19 23:02:12.977,1771513332977,1771513332977,-0.8876953,-0.44335938,0.16796875,1.0375977,2.6245117,0.24414062,0.0,0.0,0.0,-67.94495,62.160645,-75.113525
2026-02-19 23:02:13.076,1771513333076,1771513333076,-0.8823242,-0.4345703,0.16796875,1.5258789,0.7324219,-0.36621094,0.0,0.0,0.0,-68.12622,62.166138,-75.42114
2026-02-19 23:02:13.176,1771513333176,1771513333176,-0.8833008,-0.42578125,0.1640625,0.61035156,-0.36621094,-0.5493164,0.0,0.0,0.0,-68.24158,62.045288,-75.64087
2026-02-19 23:02:13.276,1771513333276,1771513333276,-0.88134766,-0.42871094,0.16113281,-0.6713867,-1.8920898,0.24414062,0.0,0.0,0.0,-68.12622,62.0343,-75.47058
2026-02-19 23:02:13.375,1771513333375,1771513333375,-0.8857422,-0.42871094,0.16748047,0.5493164,0.0,0.0,0.0,0.0,0.0,-67.94495,62.045288,-75.28381
2026-02-19 23:02:13.475,1771513333475,1771513333475,-0.88183594,-0.43701172,0.1772461,1.5258789,0.36621094,0.18310547,0.0,0.0,0.0,-67.76367,62.089233,-75.305786
2026-02-19 23:02:13.575,1771513333575,1771513333575,-0.85546875,-0.44677734,0.16455078,-3.112793,-3.112793,0.8544922,0.0,0.0,0.0,-67.5824,62.127686,-75.06958
2026-02-19 23:02:13.675,1771513333675,1771513333675,-0.8852539,-0.40576172,0.1616211,3.540039,-4.760742,0.061035156,0.0,0.0,0.0,-66.96167,62.02881,-74.11926
2026-02-19 23:02:13.774,1771513333774,1771513333774,-0.8618164,-0.43359375,0.18701172,1.5258789,-4.8828125,2.319336,0.0,0.0,0.0,-65.84656,61.94641,-73.17993
2026-02-19 23:02:13.874,1771513333874,1771513333874,-0.8823242,-0.40283203,0.203125,7.9956055,-15.258789,-1.2207031,0.0,0.0,0.0,-63.59436,61.479492,-70.99365
2026-02-19 23:02:13.974,1771513333974,1771513333974,-0.86279297,-0.41601562,0.22314453,7.8125,-8.605957,-4.8217773,0.0,0.0,0.0,-61.083984,60.69397,-68.88977
2026-02-19 23:02:14.073,1771513334073,1771513334073,-0.88183594,-0.42871094,0.24023438,11.59668,-11.657715,-6.3476562,0.0,0.0,0.0,-58.71643,59.65576,-67.10449
2026-02-19 23:02:14.173,1771513334173,1771513334173,-0.8671875,-0.4321289,0.2685547,7.507324,-11.047363,-4.211426,0.0,0.0,0.0,-56.887207,58.78784,-65.86853
2026-02-19 23:02:14.273,1771513334273,1771513334273,-0.84472656,-0.4375,0.30859375,6.7749023,-8.483887,-5.3710938,0.0,0.0,0.0,-55.717163,58.029785,-65.1709
2026-02-19 23:02:14.372,1771513334372,1771513334372,-0.8408203,-0.45117188,0.3232422,4.9438477,-6.5307617,-2.6245117,0.0,0.0,0.0,-54.60205,57.34314,-64.37988
2026-02-19 23:02:14.472,1771513334472,1771513334472,-0.8334961,-0.44628906,0.3540039,3.9672852,-5.065918,-1.7700195,0.0,0.0,0.0,-53.728638,56.826782,-63.863525
2026-02-19 23:02:14.572,1771513334572,1771513334572,-0.8388672,-0.4375,0.33984375,1.4648438,-3.8452148,-4.638672,0.0,0.0,0.0,-52.965088,56.222534,-63.215332
2026-02-19 23:02:14.672,1771513334672,1771513334672,-0.8330078,-0.4555664,0.35205078,2.8686523,-0.9765625,-2.0141602,0.0,0.0,0.0,-52.65747,55.859985,-63.198853
2026-02-19 23:02:14.771,1771513334771,1771513334771,-0.8232422,-0.44384766,0.35253906,1.4038086,-1.4648438,-1.3427734,0.0,0.0,0.0,-52.388306,55.629272,-63.12744
2026-02-19 23:02:14.871,1771513334871,1771513334871,-0.8251953,-0.44677734,0.3466797,1.7700195,-0.36621094,-2.1972656,0.0,0.0,0.0,-52.250977,55.442505,-63.1604
2026-02-19 23:02:14.971,1771513334971,1771513334971,-0.8227539,-0.45166016,0.35009766,1.159668,-0.4272461,-1.159668,0.0,0.0,0.0,-52.201538,55.288696,-63.29773
2026-02-19 23:02:15.070,1771513335070,1771513335070,-0.8203125,-0.4560547,0.3515625,0.48828125,-0.5493164,-1.159668,0.0,0.0,0.0,-52.124634,55.145874,-63.319702
2026-02-19 23:02:15.170,1771513335170,1771513335170,-0.81933594,-0.45507812,0.35351562,0.0,-0.79345703,-0.8544922,0.0,0.0,0.0,-52.075195,54.992065,-63.31421
2026-02-19 23:02:15.270,1771513335270,1771513335270,-0.8129883,-0.4584961,0.35546875,0.061035156,-1.2817383,-0.30517578,0.0,0.0,0.0,-52.009277,54.865723,-63.20984
2026-02-19 23:02:15.370,1771513335370,1771513335370,-0.8144531,-0.46240234,0.35888672,-1.159668,-0.91552734,0.24414062,0.0,0.0,0.0,-52.003784,54.79431,-63.116455
2026-02-19 23:02:15.469,1771513335469,1771513335469,-0.8120117,-0.45410156,0.3642578,-1.7089844,-0.91552734,0.91552734,0.0,0.0,0.0,-52.009277,54.783325,-62.93518
2026-02-19 23:02:15.569,1771513335569,1771513335569,-0.8129883,-0.4560547,0.3564453,-1.7089844,-0.36621094,0.79345703,0.0,0.0,0.0,-51.98181,54.81079,-62.731934
2026-02-19 23:02:15.669,1771513335669,1771513335669,-0.81689453,-0.4584961,0.3515625,-1.8310547,0.5493164,1.7700195,0.0,0.0,0.0,-52.058716,54.89868,-62.63855
2026-02-19 23:02:15.768,1771513335768,1771513335768,-0.81640625,-0.4584961,0.35253906,-2.380371,1.0986328,2.1362305,0.0,0.0,0.0,-52.141113,55.05249,-62.523193
2026-02-19 23:02:15.868,1771513335868,1771513335868,-0.81884766,-0.4428711,0.34570312,0.30517578,1.7700195,2.4414062,0.0,0.0,0.0,-52.1521,55.266724,-62.38037
2026-02-19 23:02:15.968,1771513335968,1771513335968,-0.82666016,-0.44482422,0.34228516,-0.30517578,1.3427734,2.5024414,0.0,0.0,0.0,-52.141113,55.54138,-62.38037
2026-02-19 23:02:16.068,1771513336068,1771513336068,-0.84033203,-0.44970703,0.34326172,0.18310547,2.380371,2.319336,0.0,0.0,0.0,-52.174072,55.849,-62.402344
2026-02-19 23:02:16.167,1771513336167,1771513336167,-0.85302734,-0.44433594,0.3540039,-4.1503906,6.1035156,7.2021484,0.0,0.0,0.0,-52.437744,56.47522,-62.391357
2026-02-19 23:02:16.267,1771513336267,1771513336267,-0.84033203,-0.46728516,0.34521484,-8.911133,10.498047,8.178711,0.0,0.0,0.0,-53.393555,57.58484,-62.666016
2026-02-19 23:02:16.367,1771513336367,1771513336367,-0.84228516,-0.43652344,0.31152344,-10.620117,9.58252,5.92041,0.0,0.0,0.0,-54.926147,58.52417,-63.44055
2026-02-19 23:02:16.466,1771513336466,1771513336466,-0.8286133,-0.4428711,0.26464844,-19.042969,4.9438477,9.82666,0.0,0.0,0.0,-56.75537,59.49646,-64.1272
2026-02-19 23:02:16.566,1771513336566,1771513336566,-0.86376953,-0.4091797,0.24365234,-26.794434,2.0751953,11.047363,0.0,0.0,0.0,-58.425293,60.3479,-63.061523
2026-02-19 23:02:16.666,1771513336666,1771513336666,-0.88134766,-0.37939453,0.23095703,-19.16504,1.0375977,10.803223,0.0,0.0,0.0,-59.831543,61.331177,-62.08374
2026-02-19 23:02:16.765,1771513336765,1771513336765,-0.9033203,-0.42285156,0.20703125,-16.052246,1.7700195,6.958008,0.0,0.0,0.0,-60.891724,62.23755,-61.484985
2026-02-19 23:02:16.865,1771513336865,1771513336865,-0.91308594,-0.36132812,0.19189453,-15.686035,2.0751953,4.211426,0.0,0.0,0.0,-62.38037,62.633057,-61.270752
2026-02-19 23:02:16.965,1771513336965,1771513336965,-0.89746094,-0.38378906,0.20214844,-1.5869141,6.8969727,1.8920898,0.0,0.0,0.0,-63.53943,63.22632,-61.759644
2026-02-19 23:02:17.065,1771513337065,1771513337065,-0.8984375,-0.38964844,0.18164062,2.0751953,0.4272461,4.9438477,0.0,0.0,0.0,-63.693237,63.61084,-61.89148
2026-02-19 23:02:17.164,1771513337164,1771513337164,-0.8935547,-0.4580078,0.17333984,-8.483887,-0.4272461,6.286621,0.0,0.0,0.0,-63.759155,64.176636,-61.748657
2026-02-19 23:02:17.264,1771513337264,1771513337264,-0.8876953,-0.33544922,0.21533203,-4.4555664,3.6621094,6.286621,0.0,0.0,0.0,-64.522705,64.61609,-61.28174
2026-02-19 23:02:17.364,1771513337364,1771513337364,-0.90771484,-0.4321289,0.15966797,5.6762695,1.4038086,2.4414062,0.0,0.0,0.0,-64.41284,64.923706,-61.935425
2026-02-19 23:02:17.463,1771513337463,1771513337463,-0.92871094,-0.32910156,0.15722656,7.8125,9.033203,5.2490234,0.0,0.0,0.0,-64.434814,65.494995,-62.20459
2026-02-19 23:02:17.563,1771513337563,1771513337563,-0.90478516,-0.33984375,0.18017578,1.953125,11.535645,5.859375,0.0,0.0,0.0,-65.53894,66.59912,-63.934937
2026-02-19 23:02:17.663,1771513337663,1771513337663,-0.9272461,-0.3618164,0.13427734,-4.0893555,-0.61035156,5.432129,0.0,0.0,0.0,-65.58838,67.16492,-64.2865
2026-02-19 23:02:17.763,1771513337763,1771513337763,-0.93896484,-0.37158203,0.140625,-10.131836,3.90625,0.4272461,0.0,0.0,0.0,-66.467285,67.38464,-64.48425
2026-02-19 23:02:17.862,1771513337862,1771513337862,-0.9091797,-0.30419922,0.13623047,-8.422852,4.699707,2.6245117,0.0,0.0,0.0,-68.60962,67.543945,-65.81909
2026-02-19 23:02:17.962,1771513337962,1771513337962,-0.9116211,-0.29248047,0.1430664,-9.643555,-9.521484,21.240234,0.0,0.0,0.0,-68.323975,68.35144,-65.423584
2026-02-19 23:02:18.062,1771513338062,1771513338062,-0.96533203,-0.2890625,0.09082031,1.953125,12.756348,23.620605,0.0,0.0,0.0,-67.60437,70.34546,-65.03357
2026-02-19 23:02:18.161,1771513338161,1771513338161,-0.98046875,-0.21728516,0.10205078,-12.512207,-1.4648438,38.208008,0.0,0.0,0.0,-64.44031,72.91626,-60.01831
2026-02-19 23:02:18.261,1771513338261,1771513338261,-0.9248047,-0.23144531,0.12988281,2.0751953,-14.526367,41.259766,0.0,0.0,0.0,-56.25,75.50903,-49.301147
2026-02-19 23:02:18.361,1771513338361,1771513338361,-0.9902344,-0.1352539,0.05810547,17.211914,-2.9296875,27.160645,0.0,0.0,0.0,-45.752563,77.475586,-36.75476
2026-02-19 23:02:18.460,1771513338460,1771513338460,-0.9868164,-0.13720703,0.095703125,7.080078,40.58838,22.766113,0.0,0.0,0.0,-41.726074,80.74951,-32.06909
2026-02-19 23:02:18.560,1771513338560,1771513338560,-0.9760742,-0.057617188,0.15185547,4.0283203,8.544922,25.268555,0.0,0.0,0.0,-45.269165,84.49036,-33.9093
2026-02-19 23:02:18.660,1771513338660,1771513338660,-0.75097656,-0.08154297,0.04345703,-57.617188,-83.00781,-36.56006,0.0,0.0,0.0,-20.220337,82.00745,-5.08667
2026-02-19 23:02:18.759,1771513338759,1771513338759,-0.95947266,0.06591797,0.18945312,-42.23633,-9.70459,37.231445,0.0,0.0,0.0,-10.365601,79.94202,10.266724
2026-02-19 23:02:18.859,1771513338859,1771513338859,-0.8491211,-0.05908203,0.17285156,62.316895,65.06348,-30.151367,0.0,0.0,0.0,-7.772827,84.70459,12.810059
2026-02-19 23:02:18.959,1771513338959,1771513338959,-1.1689453,0.08251953,0.11816406,32.958984,-1.7089844,-25.024414,0.0,0.0,0.0,-76.398926,85.91858,-60.809326
2026-02-19 23:02:19.059,1771513339059,1771513339059,-1.0244141,-0.064941406,0.06591797,-26.672363,-65.55176,1.4038086,0.0,0.0,0.0,-29.525757,80.617676,-11.293945
2026-02-19 23:02:19.158,1771513339158,1771513339158,-0.94628906,-0.17529297,0.21240234,-1.5869141,7.507324,-32.348633,0.0,0.0,0.0,-28.954468,78.28308,-8.201294
2026-02-19 23:02:19.258,1771513339258,1771513339258,-1.0097656,-0.053710938,0.14648438,59.32617,4.0283203,-32.592773,0.0,0.0,0.0,-41.522827,76.173706,-24.082031
2026-02-19 23:02:19.358,1771513339358,1771513339358,-0.96533203,-0.13769531,0.20898438,-2.0141602,-5.065918,-1.8920898,0.0,0.0,0.0,-40.19348,75.17395,-23.48877
2026-02-19 23:02:19.457,1771513339457,1771513339457,-0.9614258,-0.16552734,0.18798828,2.9907227,-0.7324219,0.4272461,0.0,0.0,0.0,-41.52832,75.305786,-25.065308
2026-02-19 23:02:19.557,1771513339557,1771513339557,-1.0014648,-0.19482422,0.18066406,-0.48828125,5.9814453,-4.1503906,0.0,0.0,0.0,-41.56128,75.46509,-24.576416
2026-02-19 23:02:19.657,1771513339657,1771513339657,-0.9067383,-0.15820312,0.1875,-0.5493164,4.0283203,-6.3476562,0.0,0.0,0.0,-45.1593,75.43762,-27.49878
2026-02-19 23:02:19.757,1771513339757,1771513339757,-0.9951172,-0.18652344,0.1430664,6.286621,1.4038086,-5.004883,0.0,0.0,0.0,-45.060425,74.9707,-26.894531
2026-02-19 23:02:19.857,1771513339857,1771513339857,-0.9472656,-0.16699219,0.20117188,-3.6621094,-0.91552734,3.479004,0.0,0.0,0.0,-46.466675,75.146484,-27.965698
2026-02-19 23:02:19.956,1771513339956,1771513339956,-0.9692383,-0.17089844,0.16601562,3.90625,0.0,1.2207031,0.0,0.0,0.0,-45.005493,75.234375,-25.933228
2026-02-19 23:02:20.056,1771513340056,1771513340056,-0.96972656,-0.17919922,0.16796875,3.7231445,0.0,0.30517578,0.0,0.0,0.0,-44.697876,75.355225,-25.50476
2026-02-19 23:02:20.156,1771513340156,1771513340156,-0.9658203,-0.18847656,0.18017578,-2.8686523,5.065918,-1.2207031,0.0,0.0,0.0,-45.752563,75.48706,-26.087036
2026-02-19 23:02:20.256,1771513340256,1771513340256,-0.97753906,-0.18847656,0.1694336,-3.112793,-0.18310547,3.7841797,0.0,0.0,0.0,-45.48889,75.6189,-24.933472
2026-02-19 23:02:20.355,1771513340355,1771513340355,-0.95654297,-0.16796875,0.17871094,-7.446289,1.8920898,2.8686523,0.0,0.0,0.0,-46.21399,76.04736,-24.708252
2026-02-19 23:02:20.455,1771513340455,1771513340455,-1.0083008,-0.16113281,0.17529297,7.080078,2.746582,2.8076172,0.0,0.0,0.0,-45.543823,76.294556,-23.59314
2026-02-19 23:02:20.554,1771513340554,1771513340554,-0.96728516,-0.1616211,0.15429688,13.183594,12.451172,5.493164,0.0,0.0,0.0,-46.257935,77.29431,-25.164185
2026-02-19 23:02:20.654,1771513340654,1771513340654,-0.9794922,-0.1381836,0.1274414,8.239746,9.460449,6.4086914,0.0,0.0,0.0,-45.31311,78.32703,-24.647827
2026-02-19 23:02:20.754,1771513340754,1771513340754,-0.96484375,-0.11621094,0.115234375,10.192871,2.0141602,2.5634766,0.0,0.0,0.0,-45.406494,78.931274,-25.164185
2026-02-19 23:02:20.854,1771513340854,1771513340854,-0.9814453,-0.12695312,0.111328125,3.540039,6.225586,0.24414062,0.0,0.0,0.0,-46.208496,79.29382,-26.032104
2026-02-19 23:02:20.953,1771513340953,1771513340953,-0.9707031,-0.12402344,0.109375,6.5307617,-2.0751953,-4.0283203,0.0,0.0,0.0,-46.774292,79.20593,-26.641846
2026-02-19 23:02:21.053,1771513341053,1771513341053,-0.98339844,-0.12109375,0.111328125,3.540039,-2.5024414,-0.6713867,0.0,0.0,0.0,-46.19751,79.16199,-25.83435
2026-02-19 23:02:21.152,1771513341152,1771513341152,-0.9736328,-0.11328125,0.107910156,6.4697266,-0.7324219,-1.4038086,0.0,0.0,0.0,-45.928345,79.03015,-25.631104
2026-02-19 23:02:21.252,1771513341252,1771513341252,-0.98583984,-0.1430664,0.13183594,7.873535,2.1972656,-4.8217773,0.0,0.0,0.0,-46.499634,78.97522,-26.411133
2026-02-19 23:02:21.352,1771513341352,1771513341352,-0.97265625,-0.14892578,0.1303711,2.6855469,-3.1738281,-3.8452148,0.0,0.0,0.0,-47.109375,78.689575,-26.878052
2026-02-19 23:02:21.452,1771513341452,1771513341452,-0.9916992,-0.1274414,0.13134766,-3.6010742,-4.4555664,0.5493164,0.0,0.0,0.0,-46.516113,78.349,-25.592651
2026-02-19 23:02:21.551,1771513341551,1771513341551,-0.9711914,-0.15185547,0.14013672,-2.8076172,-0.4272461,0.12207031,0.0,0.0,0.0,-46.5271,78.31055,-25.037842
2026-02-19 23:02:21.651,1771513341651,1771513341651,-0.9790039,-0.1484375,0.13427734,-2.6855469,-2.6855469,0.24414062,0.0,0.0,0.0,-45.69214,78.17322,-23.47229
2026-02-19 23:02:21.751,1771513341751,1771513341751,-0.9892578,-0.115722656,0.13134766,2.5024414,-0.5493164,-1.6479492,0.0,0.0,0.0,-45.065918,78.046875,-22.252808
2026-02-19 23:02:21.851,1771513341851,1771513341851,-0.9746094,-0.1538086,0.16308594,2.1362305,3.4179688,0.30517578,0.0,0.0,0.0,-45.302124,78.20068,-22.313232
2026-02-19 23:02:21.950,1771513341950,1771513341950,-0.98291016,-0.14746094,0.13720703,-5.1879883,-2.9907227,2.0141602,0.0,0.0,0.0,-44.41223,78.17871,-20.95642
2026-02-19 23:02:22.051,1771513342051,1771513342051,-0.9819336,-0.15429688,0.15673828,-1.5258789,2.9296875,1.2207031,0.0,0.0,0.0,-44.01123,78.29956,-19.951172
2026-02-19 23:02:22.150,1771513342150,1771513342150,-0.97753906,-0.119140625,0.14355469,-4.4555664,-0.18310547,-0.24414062,0.0,0.0,0.0,-43.796997,78.28308,-19.050293
2026-02-19 23:02:22.250,1771513342250,1771513342250,-0.9746094,-0.13427734,0.15136719,2.5024414,-1.2817383,-0.18310547,0.0,0.0,0.0,-43.75305,78.239136,-18.945923
2026-02-19 23:02:22.349,1771513342349,1771513342349,-0.97216797,-0.13330078,0.14697266,2.0751953,-0.12207031,-1.2817383,0.0,0.0,0.0,-42.868652,78.09631,-17.962646
2026-02-19 23:02:22.449,1771513342449,1771513342449,-0.9765625,-0.14990234,0.15136719,0.48828125,-3.90625,-1.5869141,0.0,0.0,0.0,-42.11609,77.81616,-17.111206
2026-02-19 23:02:22.548,1771513342548,1771513342548,-0.9863281,-0.13134766,0.16455078,3.479004,-4.0283203,-1.159668,0.0,0.0,0.0,-41.401978,77.39319,-16.408081
2026-02-19 23:02:22.648,1771513342648,1771513342648,-0.9741211,-0.14355469,0.1586914,-0.18310547,-3.479004,0.24414062,0.0,0.0,0.0,-40.46814,77.08557,-15.606079
2026-02-19 23:02:22.748,1771513342748,1771513342748,-0.9633789,-0.140625,0.1850586,0.4272461,-6.5307617,0.061035156,0.0,0.0,0.0,-39.34204,76.81091,-14.386597
2026-02-19 23:02:22.847,1771513342847,1771513342847,-0.9711914,-0.15673828,0.19238281,0.48828125,-7.019043,1.8920898,0.0,0.0,0.0,-36.85913,76.33301,-11.8927
2026-02-19 23:02:22.947,1771513342947,1771513342947,-0.96191406,-0.12597656,0.19482422,2.5024414,-6.1035156,1.8310547,0.0,0.0,0.0,-34.541016,75.87158,-9.519653
2026-02-19 23:02:23.047,1771513343047,1771513343047,-0.9736328,-0.14208984,0.2109375,0.061035156,-6.713867,1.7089844,0.0,0.0,0.0,-32.299805,75.50354,-7.3773193
2026-02-19 23:02:23.147,1771513343147,1771513343147,-0.97021484,-0.13574219,0.22265625,0.061035156,-6.591797,2.0141602,0.0,0.0,0.0,-30.52002,75.07507,-5.586548
2026-02-19 23:02:23.246,1771513343246,1771513343246,-0.9667969,-0.11621094,0.22705078,3.479004,-6.8359375,1.4038086,0.0,0.0,0.0,-28.78418,74.63562,-3.850708
2026-02-19 23:02:23.346,1771513343346,1771513343346,-0.9628906,-0.12939453,0.24609375,2.8076172,-1.8920898,0.6713867,0.0,0.0,0.0,-27.213135,74.26758,-2.647705
2026-02-19 23:02:23.446,1771513343446,1771513343446,-0.96728516,-0.118652344,0.2529297,0.91552734,-4.0893555,-0.4272461,0.0,0.0,0.0,-26.416626,73.95447,-2.005005
2026-02-19 23:02:23.545,1771513343545,1771513343545,-0.96484375,-0.114746094,0.2602539,4.4555664,-0.79345703,-1.0375977,0.0,0.0,0.0,-25.944214,73.64685,-1.8621826
2026-02-19 23:02:23.645,1771513343645,1771513343645,-0.9560547,-0.12060547,0.2529297,3.0517578,-3.2348633,-2.1362305,0.0,0.0,0.0,-25.740967,73.40515,-2.1313477
2026-02-19 23:02:23.745,1771513343745,1771513343745,-0.9506836,-0.14550781,0.26220703,0.7324219,-4.5776367,0.36621094,0.0,0.0,0.0,-25.466309,73.125,-2.246704
2026-02-19 23:02:23.845,1771513343845,1771513343845,-0.95996094,-0.12695312,0.2734375,-3.6621094,-2.1362305,0.61035156,0.0,0.0,0.0,-24.44458,72.6416,-0.99975586
2026-02-19 23:02:23.944,1771513343944,1771513343944,-0.9472656,-0.111328125,0.26757812,-0.30517578,-9.887695,-1.7700195,0.0,0.0,0.0,-24.664307,72.10327,-1.3952637
2026-02-19 23:02:24.044,1771513344044,1771513344044,-0.94628906,-0.11376953,0.31835938,2.8686523,-1.3427734,-4.760742,0.0,0.0,0.0,-24.559937,71.36719,-1.2414551
2026-02-19 23:02:24.144,1771513344144,1771513344144,-0.95214844,-0.1796875,0.31640625,1.159668,-6.8969727,-0.18310547,0.0,0.0,0.0,-24.279785,71.015625,-1.6259766
2026-02-19 23:02:24.243,1771513344243,1771513344243,-0.94873047,-0.12158203,0.3071289,-1.0375977,1.0986328,-2.2583008,0.0,0.0,0.0,-24.208374,70.50476,-1.5655518
2026-02-19 23:02:24.343,1771513344343,1771513344343,-0.9433594,-0.13330078,0.30322266,1.953125,-0.79345703,-1.4648438,0.0,0.0,0.0,-24.53247,70.44983,-2.2521973
2026-02-19 23:02:24.443,1771513344443,1771513344443,-0.9399414,-0.13183594,0.31103516,3.3569336,-0.24414062,-1.4038086,0.0,0.0,0.0,-24.63684,70.356445,-2.8289795
2026-02-19 23:02:24.542,1771513344542,1771513344542,-0.94384766,-0.15478516,0.3017578,0.5493164,0.79345703,-0.061035156,0.0,0.0,0.0,-24.488525,70.32898,-3.0596924
2026-02-19 23:02:24.643,1771513344643,1771513344643,-0.9370117,-0.14257812,0.30322266,-0.12207031,0.12207031,-1.3427734,0.0,0.0,0.0,-24.796143,70.31799,-3.4606934
2026-02-19 23:02:24.743,1771513344743,1771513344743,-0.94140625,-0.14257812,0.30566406,-0.12207031,0.9765625,-0.7324219,0.0,0.0,0.0,-25.054321,70.25757,-3.7957764
2026-02-19 23:02:24.842,1771513344842,1771513344842,-0.9423828,-0.13574219,0.31445312,-1.2207031,-1.6479492,-0.9765625,0.0,0.0,0.0,-25.378418,70.164185,-4.251709
2026-02-19 23:02:24.941,1771513344941,1771513344941,-0.93310547,-0.15283203,0.31640625,-0.24414062,0.8544922,-1.4648438,0.0,0.0,0.0,-25.5542,70.059814,-4.5373535
2026-02-19 23:02:25.041,1771513345041,1771513345041,-0.93359375,-0.15283203,0.30322266,-1.5869141,-2.1362305,-1.8310547,0.0,0.0,0.0,-25.828857,69.8291,-4.8449707
2026-02-19 23:02:25.141,1771513345141,1771513345141,-0.9379883,-0.14990234,0.31103516,-4.272461,-2.6855469,-2.1362305,0.0,0.0,0.0,-26.400146,69.55444,-5.2459717
2026-02-19 23:02:25.240,1771513345240,1771513345240,-0.9355469,-0.15966797,0.3022461,-4.760742,-1.2207031,0.24414062,0.0,0.0,0.0,-26.779175,69.35669,-5.3448486
2026-02-19 23:02:25.340,1771513345340,1771513345340,-0.9326172,-0.17333984,0.3232422,-6.8359375,-3.479004,0.30517578,0.0,0.0,0.0,-27.191162,69.21936,-5.256958
2026-02-19 23:02:25.440,1771513345440,1771513345440,-0.93066406,-0.16796875,0.31982422,-5.6762695,-3.7231445,0.36621094,0.0,0.0,0.0,-27.251587,68.81836,-4.7790527
2026-02-19 23:02:25.540,1771513345540,1771513345540,-0.9301758,-0.18603516,0.32421875,-3.9672852,-2.6855469,-1.3427734,0.0,0.0,0.0,-27.284546,68.40088,-4.5373535
2026-02-19 23:02:25.640,1771513345640,1771513345640,-0.9248047,-0.16894531,0.3330078,-3.479004,-4.3945312,-2.1972656,0.0,0.0,0.0,-27.789917,68.05481,-4.949341
2026-02-19 23:02:25.739,1771513345739,1771513345739,-0.92578125,-0.18457031,0.33984375,1.0986328,-1.5869141,-3.2348633,0.0,0.0,0.0,-28.152466,67.74719,-5.6085205
2026-02-19 23:02:25.839,1771513345839,1771513345839,-0.9111328,-0.1821289,0.33984375,-0.9765625,-3.90625,-2.8076172,0.0,0.0,0.0,-28.267822,67.302246,-5.8721924
2026-02-19 23:02:25.938,1771513345938,1771513345938,-0.92333984,-0.19091797,0.34423828,-1.3427734,-3.8452148,-2.5634766,0.0,0.0,0.0,-28.399658,66.80786,-6.16333
2026-02-19 23:02:26.038,1771513346038,1771513346038,-0.91796875,-0.19140625,0.3515625,1.2207031,-4.4555664,-1.4038086,0.0,0.0,0.0,-28.284302,66.41785,-6.322632
2026-02-19 23:02:26.138,1771513346138,1771513346138,-0.9165039,-0.203125,0.3564453,0.7324219,-0.79345703,-2.0141602,0.0,0.0,0.0,-28.21289,66.08826,-6.602783
2026-02-19 23:02:26.238,1771513346238,1771513346238,-0.9086914,-0.20214844,0.36279297,0.30517578,-1.7700195,-1.0375977,0.0,0.0,0.0,-28.339233,65.895996,-7.025757
2026-02-19 23:02:26.337,1771513346337,1771513346337,-0.91015625,-0.20214844,0.3618164,-1.5258789,-0.7324219,-0.61035156,0.0,0.0,0.0,-28.465576,65.72571,-7.3553467
2026-02-19 23:02:26.437,1771513346437,1771513346437,-0.9086914,-0.20605469,0.3618164,-0.061035156,-0.8544922,-0.8544922,0.0,0.0,0.0,-28.608398,65.62683,-7.728882
2026-02-19 23:02:26.537,1771513346537,1771513346537,-0.90527344,-0.20800781,0.3618164,0.6713867,-0.5493164,-0.91552734,0.0,0.0,0.0,-28.69629,65.511475,-8.1188965
2026-02-19 23:02:26.637,1771513346637,1771513346637,-0.9116211,-0.20458984,0.36376953,-0.30517578,-1.8920898,-0.12207031,0.0,0.0,0.0,-28.795166,65.43457,-8.470459
2026-02-19 23:02:26.736,1771513346736,1771513346736,-0.9042969,-0.20800781,0.36621094,0.6713867,0.79345703,-1.0986328,0.0,0.0,0.0,-28.762207,65.27527,-8.596802
2026-02-19 23:02:26.836,1771513346836,1771513346836,-0.9038086,-0.20898438,0.36572266,-1.3427734,-1.4648438,-1.0375977,0.0,0.0,0.0,-28.99292,65.1709,-9.036255
2026-02-19 23:02:26.936,1771513346936,1771513346936,-0.91259766,-0.20410156,0.3647461,-1.0375977,-2.5634766,-0.6713867,0.0,0.0,0.0,-29.157715,64.96216,-9.28894
2026-02-19 23:02:27.035,1771513347035,1771513347035,-0.9042969,-0.21240234,0.3696289,0.12207031,-0.4272461,-0.9765625,0.0,0.0,0.0,-29.174194,64.80835,-9.470215
2026-02-19 23:02:27.135,1771513347135,1771513347135,-0.89941406,-0.21533203,0.37353516,-0.30517578,-2.1972656,-1.4038086,0.0,0.0,0.0,-29.284058,64.627075,-9.755859
2026-02-19 23:02:27.235,1771513347235,1771513347235,-0.90185547,-0.21679688,0.37646484,0.0,-0.4272461,-1.159668,0.0,0.0,0.0,-29.388428,64.40735,-10.019531
2026-02-19 23:02:27.334,1771513347334,1771513347334,-0.9082031,-0.21386719,0.37841797,-1.0986328,-0.6713867,-0.24414062,0.0,0.0,0.0,-29.569702,64.32495,-10.415039
2026-02-19 23:02:27.434,1771513347434,1771513347434,-0.8989258,-0.21777344,0.37890625,-0.061035156,1.4038086,-0.4272461,0.0,0.0,0.0,-29.761963,64.3634,-10.8654785
2026-02-19 23:02:27.534,1771513347534,1771513347534,-0.9003906,-0.21826172,0.375,0.6713867,0.24414062,-0.4272461,0.0,0.0,0.0,-29.970703,64.401855,-11.255493
2026-02-19 23:02:27.634,1771513347634,1771513347634,-0.89941406,-0.21875,0.37695312,1.0375977,2.9907227,-0.36621094,0.0,0.0,0.0,-30.108032,64.489746,-11.6015625
2026-02-19 23:02:27.733,1771513347733,1771513347733,-0.90283203,-0.22167969,0.36083984,0.7324219,1.8920898,-0.12207031,0.0,0.0,0.0,-30.223389,64.56116,-11.925659
2026-02-19 23:02:27.833,1771513347833,1771513347833,-0.9116211,-0.22363281,0.3671875,-0.8544922,-0.12207031,0.30517578,0.0,0.0,0.0,-30.410156,64.70398,-12.260742
2026-02-19 23:02:27.933,1771513347933,1771513347933,-0.9013672,-0.2211914,0.37109375,0.4272461,1.5258789,0.0,0.0,0.0,0.0,-30.448608,64.69299,-12.348633
2026-02-19 23:02:28.032,1771513348032,1771513348032,-0.9038086,-0.21435547,0.36865234,-1.5258789,-0.4272461,0.0,0.0,0.0,0.0,-30.585938,64.72046,-12.557373
2026-02-19 23:02:28.132,1771513348132,1771513348132,-0.9003906,-0.22216797,0.37451172,-0.5493164,-0.24414062,-0.7324219,0.0,0.0,0.0,-30.71228,64.69849,-12.744141
2026-02-19 23:02:28.232,1771513348232,1771513348232,-0.90185547,-0.21972656,0.3623047,-0.8544922,-0.4272461,-0.30517578,0.0,0.0,0.0,-30.756226,64.57214,-12.766113
2026-02-19 23:02:28.332,1771513348332,1771513348332,-0.8989258,-0.2290039,0.3725586,0.61035156,-0.79345703,-0.4272461,0.0,0.0,0.0,-30.761719,64.51721,-12.903442
2026-02-19 23:02:28.431,1771513348431,1771513348431,-0.9042969,-0.22363281,0.36279297,0.8544922,-1.7089844,-0.61035156,0.0,0.0,0.0,-30.662842,64.3634,-12.919922
2026-02-19 23:02:28.531,1771513348531,1771513348531,-0.89746094,-0.2241211,0.375,-0.36621094,-1.8310547,-0.91552734,0.0,0.0,0.0,-30.62439,64.209595,-12.9748535
2026-02-19 23:02:28.631,1771513348631,1771513348631,-0.89746094,-0.22607422,0.37060547,-0.061035156,-3.3569336,-1.4038086,0.0,0.0,0.0,-30.536499,63.929443,-12.952881
2026-02-19 23:02:28.731,1771513348731,1771513348731,-0.87890625,-0.24316406,0.37109375,-1.953125,-5.3710938,-3.540039,0.0,0.0,0.0,-30.60791,63.451538,-13.013306
2026-02-19 23:02:28.830,1771513348830,1771513348830,-0.88671875,-0.23046875,0.3720703,-1.8920898,-12.023926,-4.8828125,0.0,0.0,0.0,-30.74524,62.418823,-12.980347
2026-02-19 23:02:28.930,1771513348930,1771513348930,-0.87890625,-0.26611328,0.3876953,-2.5634766,-12.268066,-7.751465,0.0,0.0,0.0,-30.72876,61.12793,-12.848511
2026-02-19 23:02:29.030,1771513349030,1771513349030,-0.8691406,-0.2631836,0.42626953,-2.9296875,-13.916016,-7.873535,0.0,0.0,0.0,-31.14624,59.661255,-13.117676
2026-02-19 23:02:29.129,1771513349129,1771513349129,-0.8359375,-0.27685547,0.47509766,-4.4555664,-11.230469,-7.9345703,0.0,0.0,0.0,-31.497803,58.22754,-13.331909
2026-02-19 23:02:29.229,1771513349229,1771513349229,-0.83496094,-0.26416016,0.47851562,-1.159668,-11.962891,-4.272461,0.0,0.0,0.0,-31.503296,56.931152,-13.491211
2026-02-19 23:02:29.329,1771513349329,1771513349329,-0.8232422,-0.29785156,0.49121094,1.159668,-4.5776367,-1.953125,0.0,0.0,0.0,-31.085815,56.21704,-13.370361
2026-02-19 23:02:29.428,1771513349428,1771513349428,-0.8383789,-0.30078125,0.49804688,3.540039,-2.8686523,-3.3569336,0.0,0.0,0.0,-30.882568,55.72815,-13.771362
2026-02-19 23:02:29.528,1771513349528,1771513349528,-0.82177734,-0.29589844,0.48486328,2.5024414,0.0,-3.540039,0.0,0.0,0.0,-30.866089,55.420532,-14.639282
2026-02-19 23:02:29.628,1771513349628,1771513349628,-0.8208008,-0.2841797,0.49658203,8.056641,1.0986328,-2.746582,0.0,0.0,0.0,-30.739746,55.299683,-15.534668
2026-02-19 23:02:29.727,1771513349727,1771513349727,-0.8222656,-0.29052734,0.49560547,5.493164,-1.8920898,-2.6245117,0.0,0.0,0.0,-30.371704,55.041504,-16.056519
2026-02-19 23:02:29.827,1771513349827,1771513349827,-0.8144531,-0.29003906,0.50146484,3.6621094,-1.0375977,-1.953125,0.0,0.0,0.0,-30.10254,54.865723,-16.616821
2026-02-19 23:02:29.927,1771513349927,1771513349927,-0.81103516,-0.2919922,0.5048828,1.8310547,-1.4038086,-0.5493164,0.0,0.0,0.0,-29.822388,54.656982,-16.924438
2026-02-19 23:02:30.027,1771513350027,1771513350027,-0.80859375,-0.2841797,0.5097656,1.4648438,0.5493164,0.18310547,0.0,0.0,0.0,-29.657593,54.591064,-17.155151
2026-02-19 23:02:30.127,1771513350127,1771513350127,-0.80810547,-0.29296875,0.5053711,-0.79345703,1.5869141,0.30517578,0.0,0.0,0.0,-29.66858,54.673462,-17.380371
2026-02-19 23:02:30.226,1771513350226,1771513350226,-0.8144531,-0.28759766,0.50439453,0.4272461,2.319336,-0.36621094,0.0,0.0,0.0,-29.910278,54.865723,-17.803345
2026-02-19 23:02:30.326,1771513350326,1771513350326,-0.8154297,-0.29541016,0.49365234,-0.48828125,0.0,0.12207031,0.0,0.0,0.0,-29.954224,54.832764,-17.95166
2026-02-19 23:02:30.425,1771513350425,1771513350425,-0.8129883,-0.28955078,0.4975586,1.4648438,0.0,-0.30517578,0.0,0.0,0.0,-29.915771,54.805298,-18.127441
2026-02-19 23:02:30.525,1771513350525,1771513350525,-0.8154297,-0.29345703,0.49902344,2.0141602,0.30517578,-0.18310547,0.0,0.0,0.0,-29.778442,54.777832,-18.314209
2026-02-19 23:02:30.625,1771513350625,1771513350625,-0.81396484,-0.29003906,0.50146484,0.9765625,0.24414062,-0.24414062,0.0,0.0,0.0,-29.690552,54.766846,-18.533936
2026-02-19 23:02:30.724,1771513350724,1771513350724,-0.81396484,-0.28515625,0.50097656,0.79345703,0.79345703,0.061035156,0.0,0.0,0.0,-29.641113,54.79431,-18.73169
2026-02-19 23:02:30.824,1771513350824,1771513350824,-0.8154297,-0.28808594,0.5029297,1.0375977,0.61035156,-0.18310547,0.0,0.0,0.0,-29.630127,54.816284,-18.890991
2026-02-19 23:02:30.924,1771513350924,1771513350924,-0.81591797,-0.28808594,0.49804688,0.30517578,0.6713867,0.18310547,0.0,0.0,0.0,-29.630127,54.816284,-19.022827
2026-02-19 23:02:31.024,1771513351024,1771513351024,-0.8129883,-0.2919922,0.4970703,0.8544922,0.91552734,-0.12207031,0.0,0.0,0.0,-29.630127,54.854736,-19.171143
2026-02-19 23:02:31.123,1771513351123,1771513351123,-0.8208008,-0.2890625,0.5019531,0.24414062,0.9765625,0.0,0.0,0.0,0.0,-29.685059,54.9646,-19.37439
2026-02-19 23:02:31.223,1771513351223,1771513351223,-0.81640625,-0.2861328,0.5,0.48828125,1.3427734,0.0,0.0,0.0,0.0,-29.707031,54.99756,-19.517212
2026-02-19 23:02:31.323,1771513351323,1771513351323,-0.8173828,-0.28564453,0.4921875,0.061035156,0.7324219,0.0,0.0,0.0,0.0,-29.75647,55.057983,-19.67102
2026-02-19 23:02:31.423,1771513351423,1771513351423,-0.8208008,-0.28808594,0.4921875,0.0,0.36621094,0.0,0.0,0.0,0.0,-29.811401,55.1239,-19.80835
2026-02-19 23:02:31.522,1771513351522,1771513351522,-0.81884766,-0.28857422,0.4946289,-0.061035156,-0.24414062,-0.4272461,0.0,0.0,0.0,-29.811401,55.112915,-19.87976
2026-02-19 23:02:31.622,1771513351622,1771513351622,-0.8203125,-0.29345703,0.50146484,-0.36621094,0.6713867,-1.3427734,0.0,0.0,0.0,-29.915771,55.057983,-20.039062
2026-02-19 23:02:31.722,1771513351722,1771513351722,-0.8173828,-0.29345703,0.4892578,-1.3427734,-0.12207031,-1.5869141,0.0,0.0,0.0,-30.19043,54.91516,-20.214844
2026-02-19 23:02:31.821,1771513351821,1771513351821,-0.80908203,-0.2915039,0.4946289,-1.8310547,-2.2583008,0.30517578,0.0,0.0,0.0,-30.322266,54.766846,-20.286255
2026-02-19 23:02:31.921,1771513351921,1771513351921,-0.8129883,-0.30419922,0.49414062,-0.48828125,-1.2817383,-0.61035156,0.0,0.0,0.0,-30.316772,54.640503,-20.154419
2026-02-19 23:02:32.021,1771513352021,1771513352021,-0.8105469,-0.29882812,0.4970703,1.7700195,-0.6713867,-0.7324219,0.0,0.0,0.0,-30.31128,54.475708,-20.220337
2026-02-19 23:02:32.120,1771513352120,1771513352120,-0.8100586,-0.3022461,0.5004883,6.8969727,0.8544922,-1.5869141,0.0,0.0,0.0,-29.998169,54.45923,-20.407104
2026-02-19 23:02:32.220,1771513352220,1771513352220,-0.82177734,-0.3046875,0.51464844,4.0283203,-1.8920898,-1.8920898,0.0,0.0,0.0,-29.542236,54.349365,-20.654297
2026-02-19 23:02:32.320,1771513352320,1771513352320,-0.8022461,-0.30859375,0.5102539,-1.953125,-4.3945312,-5.3100586,0.0,0.0,0.0,-29.679565,53.76709,-20.895996
2026-02-19 23:02:32.420,1771513352420,1771513352420,-0.79589844,-0.28466797,0.515625,2.1362305,0.0,-3.3569336,0.0,0.0,0.0,-30.130005,53.294678,-21.522217
2026-02-19 23:02:32.519,1771513352519,1771513352519,-0.8076172,-0.28808594,0.51416016,3.6010742,-0.48828125,0.5493164,0.0,0.0,0.0,-29.86084,53.239746,-21.588135
2026-02-19 23:02:32.619,1771513352619,1771513352619,-0.80029297,-0.2939453,0.5131836,8.666992,-0.30517578,0.12207031,0.0,0.0,0.0,-29.245605,53.168335,-21.483765
2026-02-19 23:02:32.719,1771513352719,1771513352719,-0.80322266,-0.2890625,0.51220703,28.015137,5.1879883,-3.2348633,0.0,0.0,0.0,-27.773438,53.16284,-21.71997
2026-02-19 23:02:32.818,1771513352818,1771513352818,-0.80029297,-0.27783203,0.5444336,2.0141602,-3.9672852,1.6479492,0.0,0.0,0.0,-26.548462,53.772583,-22.802124
2026-02-19 23:02:32.918,1771513352918,1771513352918,-0.79785156,-0.2578125,0.5151367,-2.746582,9.58252,0.61035156,0.0,0.0,0.0,-26.312256,53.690186,-22.543945
2026-02-19 23:02:33.018,1771513353018,1771513353018,-0.8051758,-0.24804688,0.51123047,-5.493164,16.967773,3.2958984,0.0,0.0,0.0,-27.44934,55.14038,-23.285522
2026-02-19 23:02:33.117,1771513353117,1771513353117,-0.8442383,-0.28808594,0.5029297,-4.8217773,12.145996,0.79345703,0.0,0.0,0.0,-28.734741,56.30493,-24.038086
2026-02-19 23:02:33.217,1771513353217,1771513353217,-0.84814453,-0.25341797,0.4716797,-0.91552734,2.0141602,1.7089844,0.0,0.0,0.0,-29.119263,56.727905,-24.208374
2026-02-19 23:02:33.317,1771513353317,1771513353317,-0.8457031,-0.25,0.47460938,-0.30517578,0.24414062,0.6713867,0.0,0.0,0.0,-29.108276,56.854248,-24.01062
2026-02-19 23:02:33.417,1771513353417,1771513353417,-0.8413086,-0.26367188,0.4741211,-0.30517578,0.9765625,-0.12207031,0.0,0.0,0.0,-29.058838,56.887207,-23.812866
2026-02-19 23:02:33.516,1771513353516,1771513353516,-0.83935547,-0.26660156,0.47216797,-0.5493164,1.4038086,-0.24414062,0.0,0.0,0.0,-29.163208,56.95862,-23.757935
2026-02-19 23:02:33.616,1771513353616,1771513353616,-0.84033203,-0.26611328,0.4711914,-0.24414062,0.4272461,-0.79345703,0.0,0.0,0.0,-29.295044,57.01355,-23.741455
2026-02-19 23:02:33.716,1771513353716,1771513353716,-0.84033203,-0.27148438,0.46972656,-0.18310547,0.7324219,-1.4648438,0.0,0.0,0.0,-29.498291,57.019043,-23.851318
2026-02-19 23:02:33.816,1771513353816,1771513353816,-0.83691406,-0.2705078,0.46826172,-0.48828125,1.4648438,-1.7089844,0.0,0.0,0.0,-29.794922,56.991577,-24.060059
2026-02-19 23:02:33.915,1771513353915,1771513353915,-0.83984375,-0.27197266,0.46777344,-0.5493164,1.4648438,-0.91552734,0.0,0.0,0.0,-30.042114,57.002563,-24.180908
2026-02-19 23:02:34.015,1771513354015,1771513354015,-0.8388672,-0.27783203,0.46728516,0.0,0.0,-0.4272461,0.0,0.0,0.0,-30.124512,57.01355,-24.153442
2026-02-19 23:02:34.114,1771513354114,1771513354114,-0.8378906,-0.2758789,0.46679688,0.12207031,-0.4272461,-0.061035156,0.0,0.0,0.0,-30.075073,56.953125,-24.01062
2026-02-19 23:02:34.214,1771513354214,1771513354214,-0.8378906,-0.27685547,0.46875,0.18310547,-0.91552734,-1.0986328,0.0,0.0,0.0,-30.020142,56.848755,-23.867798
2026-02-19 23:02:34.314,1771513354314,1771513354314,-0.83447266,-0.28515625,0.4741211,-0.18310547,0.30517578,-6.4697266,0.0,0.0,0.0,-30.525513,56.61255,-24.362183
2026-02-19 23:02:34.414,1771513354414,1771513354414,-0.8261719,-0.27685547,0.47753906,1.6479492,-6.286621,-2.319336,0.0,0.0,0.0,-30.772705,55.997314,-24.675293
2026-02-19 23:02:34.513,1771513354513,1771513354513,-0.8149414,-0.28125,0.49169922,2.6855469,-10.131836,-1.0986328,0.0,0.0,0.0,-30.036621,55.151367,-24.01062
2026-02-19 23:02:34.613,1771513354613,1771513354613,-0.79052734,-0.2919922,0.50146484,1.8310547,-6.4086914,0.8544922,0.0,0.0,0.0,-29.09729,54.448242,-23.076782
2026-02-19 23:02:34.713,1771513354713,1771513354713,-0.8198242,-0.29492188,0.5283203,-5.6762695,-1.6479492,2.380371,0.0,0.0,0.0,-28.613892,54.261475,-22.263794
2026-02-19 23:02:34.813,1771513354813,1771513354813,-0.79541016,-0.27734375,0.50146484,-8.117676,1.6479492,6.713867,0.0,0.0,0.0,-28.910522,54.35486,-21.340942
2026-02-19 23:02:34.912,1771513354912,1771513354912,-0.8227539,-0.28222656,0.5078125,-8.972168,0.24414062,6.0424805,0.0,0.0,0.0,-28.987427,54.882202,-19.725952
2026-02-19 23:02:35.012,1771513355012,1771513355012,-0.8154297,-0.28564453,0.49609375,-6.164551,-2.2583008,5.065918,0.0,0.0,0.0,-28.778687,54.942627,-17.045288
2026-02-19 23:02:35.112,1771513355112,1771513355112,-0.8515625,-0.31201172,0.49560547,-8.483887,2.319336,0.061035156,0.0,0.0,0.0,-29.190674,55.063477,-14.122925
2026-02-19 23:02:35.211,1771513355211,1771513355211,-0.8154297,-0.2783203,0.47265625,-0.7324219,9.277344,-0.5493164,0.0,0.0,0.0,-30.130005,55.48645,-11.123657
2026-02-19 23:02:35.311,1771513355311,1771513355311,-0.83935547,-0.27001953,0.4790039,2.1972656,6.225586,-0.61035156,0.0,0.0,0.0,-30.629883,56.30493,-8.1188965
2026-02-19 23:02:35.411,1771513355411,1771513355411,-0.8222656,-0.2709961,0.46533203,1.953125,1.4038086,2.5634766,0.0,0.0,0.0,-30.454102,56.497192,-3.6749268
2026-02-19 23:02:35.510,1771513355510,1771513355510,-0.8408203,-0.26416016,0.46923828,8.117676,2.380371,0.4272461,0.0,0.0,0.0,-29.82788,56.689453,1.0601807
2026-02-19 23:02:35.610,1771513355610,1771513355610,-0.83203125,-0.2998047,0.47705078,7.3242188,6.591797,1.2207031,0.0,0.0,0.0,-29.190674,57.1344,5.487671
2026-02-19 23:02:35.710,1771513355710,1771513355710,-0.86035156,-0.2734375,0.46484375,-1.0375977,-3.90625,1.159668,0.0,0.0,0.0,-28.981934,57.337646,9.783325
2026-02-19 23:02:35.810,1771513355810,1771513355810,-0.85058594,-0.25439453,0.46044922,1.5869141,0.48828125,1.5869141,0.0,0.0,0.0,-28.707275,57.008057,14.924927
2026-02-19 23:02:35.909,1771513355909,1771513355909,-0.8378906,-0.25,0.46142578,-0.5493164,1.4648438,6.958008,0.0,0.0,0.0,-28.081055,57.38159,19.835815
2026-02-19 23:02:36.009,1771513356009,1771513356009,-0.86083984,-0.24511719,0.48486328,4.1503906,4.760742,5.79834,0.0,0.0,0.0,-27.29004,57.95288,24.960938
2026-02-19 23:02:36.109,1771513356109,1771513356109,-0.8491211,-0.27197266,0.47802734,-2.8076172,0.36621094,1.8310547,0.0,0.0,0.0,-26.520996,58.35388,29.734497
2026-02-19 23:02:36.208,1771513356208,1771513356208,-0.8515625,-0.24414062,0.4638672,-0.4272461,1.0986328,-2.380371,0.0,0.0,0.0,-26.73523,58.33191,33.59619
2026-02-19 23:02:36.308,1771513356308,1771513356308,-0.8588867,-0.25,0.44921875,1.8310547,4.0893555,-4.211426,0.0,0.0,0.0,-27.460327,58.562622,36.28784
2026-02-19 23:02:36.408,1771513356408,1771513356408,-0.8339844,-0.234375,0.46435547,-1.4038086,0.79345703,-1.7700195,0.0,0.0,0.0,-28.163452,58.606567,39.42444
2026-02-19 23:02:36.508,1771513356508,1771513356508,-0.8515625,-0.25146484,0.4350586,-2.5634766,-2.0751953,1.2207031,0.0,0.0,0.0,-28.234863,58.480225,42.956543
2026-02-19 23:02:36.607,1771513356607,1771513356607,-0.8730469,-0.23779297,0.45263672,3.479004,0.61035156,0.12207031,0.0,0.0,0.0,-28.097534,58.47473,46.43921
2026-02-19 23:02:36.707,1771513356707,1771513356707,-0.8564453,-0.25976562,0.45507812,2.1972656,0.61035156,-0.36621094,0.0,0.0,0.0,-27.850342,58.45276,49.70764
2026-02-19 23:02:36.807,1771513356807,1771513356807,-0.8574219,-0.25732422,0.4633789,-0.18310547,-1.159668,-1.3427734,0.0,0.0,0.0,-27.905273,58.49121,52.454224
2026-02-19 23:02:36.906,1771513356906,1771513356906,-0.8623047,-0.25341797,0.4404297,3.0517578,4.5166016,-2.6245117,0.0,0.0,0.0,-28.22937,58.408813,54.87671
2026-02-19 23:02:37.006,1771513357006,1771513357006,-0.84716797,-0.24414062,0.46484375,0.0,-0.7324219,-0.8544922,0.0,0.0,0.0,-28.580933,58.502197,57.260742
2026-02-19 23:02:37.106,1771513357106,1771513357106,-0.8515625,-0.26220703,0.44433594,-0.48828125,-2.6245117,-1.4648438,0.0,0.0,0.0,-28.526001,58.16162,60.369873
2026-02-19 23:02:37.206,1771513357206,1771513357206,-0.85058594,-0.26123047,0.45166016,-1.3427734,-0.061035156,-1.5869141,0.0,0.0,0.0,-28.789673,58.013306,62.715454
2026-02-19 23:02:37.305,1771513357305,1771513357305,-0.84521484,-0.2524414,0.45947266,-1.4038086,-2.6245117,-0.79345703,0.0,0.0,0.0,-29.031372,57.843018,65.03906
2026-02-19 23:02:37.405,1771513357405,1771513357405,-0.84521484,-0.26367188,0.45410156,0.6713867,0.8544922,-0.6713867,0.0,0.0,0.0,-29.119263,57.683716,67.39563
2026-02-19 23:02:37.505,1771513357505,1771513357505,-0.84375,-0.2553711,0.47021484,-0.48828125,-0.12207031,0.12207031,0.0,0.0,0.0,-29.21814,57.7771,69.49951
2026-02-19 23:02:37.604,1771513357604,1771513357604,-0.84277344,-0.27197266,0.45898438,-0.5493164,-0.24414062,0.36621094,0.0,0.0,0.0,-29.064331,57.71118,71.82312
2026-02-19 23:02:37.705,1771513357705,1771513357705,-0.8432617,-0.2602539,0.46240234,0.61035156,0.9765625,0.0,0.0,0.0,0.0,-29.086304,57.716675,73.77319
2026-02-19 23:02:37.804,1771513357804,1771513357804,-0.84277344,-0.2578125,0.45703125,-0.79345703,-1.953125,1.2817383,0.0,0.0,0.0,-28.97644,57.68921,75.73425
2026-02-19 23:02:37.904,1771513357904,1771513357904,-0.8466797,-0.26611328,0.4658203,2.8076172,1.7700195,0.24414062,0.0,0.0,0.0,-28.789673,57.821045,77.49756
2026-02-19 23:02:38.003,1771513358003,1771513358003,-0.8442383,-0.25830078,0.46289062,-0.7324219,0.0,-1.4038086,0.0,0.0,0.0,-28.910522,57.826538,79.035645
2026-02-19 23:02:38.103,1771513358103,1771513358103,-0.8457031,-0.2626953,0.44970703,0.24414062,0.18310547,0.0,0.0,0.0,0.0,-28.948975,57.79358,80.62866
2026-02-19 23:02:38.203,1771513358203,1771513358203,-0.8588867,-0.25976562,0.46191406,3.3569336,3.479004,-1.0986328,0.0,0.0,0.0,-29.053345,57.98584,81.8042
2026-02-19 23:02:38.302,1771513358302,1771513358302,-0.8520508,-0.2524414,0.4609375,1.5258789,0.36621094,-0.91552734,0.0,0.0,0.0,-29.09729,58.04077,82.996216
2026-02-19 23:02:38.402,1771513358402,1771513358402,-0.8491211,-0.25976562,0.45117188,0.0,1.159668,-0.61035156,0.0,0.0,0.0,-29.21814,58.095703,84.16626
2026-02-19 23:02:38.502,1771513358502,1771513358502,-0.84814453,-0.26757812,0.45703125,0.061035156,0.18310547,-1.0375977,0.0,0.0,0.0,-29.349976,58.134155,85.30884
2026-02-19 23:02:38.601,1771513358601,1771513358601,-0.8496094,-0.26171875,0.44384766,3.3569336,4.272461,-1.2817383,0.0,0.0,0.0,-29.481812,58.200073,86.31958
2026-02-19 23:02:38.701,1771513358701,1771513358701,-0.84814453,-0.25341797,0.4633789,1.0986328,1.2207031,-0.30517578,0.0,0.0,0.0,-29.630127,58.4198,87.01721
2026-02-19 23:02:38.801,1771513358801,1771513358801,-0.85253906,-0.265625,0.44433594,-1.4038086,-0.6713867,0.4272461,0.0,0.0,0.0,-29.498291,58.4198,88.395996
2026-02-19 23:02:38.900,1771513358900,1771513358900,-0.85498047,-0.26123047,0.44189453,-0.61035156,0.5493164,0.6713867,0.0,0.0,0.0,-29.51477,58.485718,89.58252
2026-02-19 23:02:39.000,1771513359000,1771513359000,-0.85498047,-0.2553711,0.45507812,-2.380371,0.061035156,1.0986328,0.0,0.0,0.0,-29.558716,58.584595,90.81299
2026-02-19 23:02:39.100,1771513359100,1771513359100,-0.8540039,-0.2578125,0.44335938,-0.061035156,0.061035156,1.159668,0.0,0.0,0.0,-29.454346,58.49121,92.23572
2026-02-19 23:02:39.200,1771513359200,1771513359200,-0.84716797,-0.26757812,0.44873047,-0.91552734,-1.159668,0.9765625,0.0,0.0,0.0,-29.328003,58.50769,93.3728
2026-02-19 23:02:39.299,1771513359299,1771513359299,-0.8417969,-0.24414062,0.45947266,-0.36621094,-0.7324219,2.0751953,0.0,0.0,0.0,-29.223633,58.485718,94.4989
2026-02-19 23:02:39.399,1771513359399,1771513359399,-0.85791016,-0.25,0.43652344,-7.446289,-7.8125,3.8452148,0.0,0.0,0.0,-28.762207,58.233032,96.14685
2026-02-19 23:02:39.499,1771513359499,1771513359499,-0.8696289,-0.28271484,0.47705078,2.9907227,-1.6479492,-0.8544922,0.0,0.0,0.0,-28.322754,57.667236,98.201294
2026-02-19 23:02:39.598,1771513359598,1771513359598,-0.8408203,-0.27246094,0.48242188,-11.779785,-2.8076172,0.48828125,0.0,0.0,0.0,-28.822632,57.562866,98.85498
2026-02-19 23:02:39.698,1771513359698,1771513359698,-0.8466797,-0.26171875,0.46826172,-8.361816,-0.4272461,1.4038086,0.0,0.0,0.0,-29.641113,57.387085,99.678955
2026-02-19 23:02:39.798,1771513359798,1771513359798,-0.8276367,-0.25585938,0.44482422,-5.3710938,-2.0751953,1.8310547,0.0,0.0,0.0,-30.009155,57.453003,100.579834
2026-02-19 23:02:39.897,1771513359897,1771513359897,-0.83203125,-0.2758789,0.44433594,5.1879883,-2.5024414,0.0,0.0,0.0,0.0,-29.690552,57.23877,101.49719
2026-02-19 23:02:39.997,1771513359997,1771513359997,-0.82177734,-0.27734375,0.45947266,5.7373047,-0.36621094,1.5258789,0.0,0.0,0.0,-28.97644,57.20581,102.27722
2026-02-19 23:02:40.097,1771513360097,1771513360097,-0.84716797,-0.25732422,0.47509766,9.643555,-1.8310547,-0.36621094,0.0,0.0,0.0,-28.157959,57.15088,103.0957
2026-02-19 23:02:40.198,1771513360198,1771513360198,-0.83740234,-0.25878906,0.48779297,11.71875,8.911133,-3.2958984,0.0,0.0,0.0,-27.487793,57.365112,103.05176
2026-02-19 23:02:40.296,1771513360296,1771513360296,-0.8564453,-0.22460938,0.48046875,-0.12207031,-2.319336,1.953125,0.0,0.0,0.0,-27.460327,57.44751,103.013306
2026-02-19 23:02:40.396,1771513360396,1771513360396,-0.8417969,-0.2446289,0.47558594,0.7324219,1.3427734,0.7324219,0.0,0.0,0.0,-27.284546,57.348633,103.5791
2026-02-19 23:02:40.496,1771513360496,1771513360496,-0.8535156,-0.25585938,0.47851562,-0.4272461,-0.18310547,-0.4272461,0.0,0.0,0.0,-27.312012,57.35962,103.9032
2026-02-19 23:02:40.595,1771513360595,1771513360595,-0.8491211,-0.2578125,0.47851562,1.4038086,1.0375977,-1.3427734,0.0,0.0,0.0,-27.39441,57.34314,104.17786
2026-02-19 23:02:40.695,1771513360695,1771513360695,-0.84033203,-0.24951172,0.4711914,2.5024414,0.91552734,-0.8544922,0.0,0.0,0.0,-27.383423,57.31018,104.3866
2026-02-19 23:02:40.795,1771513360795,1771513360795,-0.84277344,-0.25146484,0.47265625,3.7231445,0.18310547,-1.5258789,0.0,0.0,0.0,-27.262573,57.354126,104.51843
2026-02-19 23:02:40.894,1771513360894,1771513360894,-0.8408203,-0.24951172,0.47558594,2.0141602,-2.0751953,-1.2817383,0.0,0.0,0.0,-27.2406,57.249756,104.49646
2026-02-19 23:02:40.994,1771513360994,1771513360994,-0.83935547,-0.24951172,0.47802734,1.2817383,-0.24414062,-1.4038086,0.0,0.0,0.0,-27.218628,57.090454,104.6228
2026-02-19 23:02:41.094,1771513361094,1771513361094,-0.8432617,-0.2475586,0.48339844,2.9296875,2.319336,-0.30517578,0.0,0.0,0.0,-27.196655,57.128906,104.60632
2026-02-19 23:02:41.194,1771513361194,1771513361194,-0.83935547,-0.24951172,0.4790039,1.4648438,-0.48828125,-0.36621094,0.0,0.0,0.0,-27.037354,57.139893,104.7876
2026-02-19 23:02:41.293,1771513361293,1771513361293,-0.8300781,-0.24804688,0.4794922,1.5258789,0.36621094,0.91552734,0.0,0.0,0.0,-26.954956,57.15088,104.974365
2026-02-19 23:02:41.393,1771513361393,1771513361393,-0.83740234,-0.24511719,0.48291016,0.91552734,0.36621094,-0.12207031,0.0,0.0,0.0,-26.861572,57.20581,105.14465
2026-02-19 23:02:41.493,1771513361493,1771513361493,-0.84033203,-0.2475586,0.4765625,0.6713867,0.36621094,0.0,0.0,0.0,0.0,-26.795654,57.22229,105.34241
2026-02-19 23:02:41.592,1771513361592,1771513361592,-0.83740234,-0.25,0.47070312,2.380371,1.4648438,-0.8544922,0.0,0.0,0.0,-26.795654,57.249756,105.41382
2026-02-19 23:02:41.692,1771513361692,1771513361692,-0.84033203,-0.2475586,0.4765625,-0.061035156,-0.061035156,0.30517578,0.0,0.0,0.0,-26.850586,57.282715,105.48523
2026-02-19 23:02:41.792,1771513361792,1771513361792,-0.83935547,-0.24511719,0.4794922,-0.061035156,-0.18310547,0.61035156,0.0,0.0,0.0,-26.773682,57.27173,105.7489
2026-02-19 23:02:41.891,1771513361891,1771513361891,-0.8364258,-0.24072266,0.4814453,0.0,0.12207031,0.0,0.0,0.0,0.0,-26.658325,57.161865,106.01257
2026-02-19 23:02:41.991,1771513361991,1771513361991,-0.82910156,-0.2446289,0.48583984,1.2817383,-0.8544922,-0.4272461,0.0,0.0,0.0,-26.592407,57.090454,106.16638
2026-02-19 23:02:42.091,1771513362091,1771513362091,-0.83447266,-0.2529297,0.4736328,0.6713867,0.061035156,1.159668,0.0,0.0,0.0,-26.575928,56.7334,106.37512
2026-02-19 23:02:42.191,1771513362191,1771513362191,-0.8457031,-0.25146484,0.484375,0.36621094,-2.5024414,0.24414062,0.0,0.0,0.0,-26.564941,56.61255,106.484985
2026-02-19 23:02:42.290,1771513362290,1771513362290,-0.83251953,-0.25341797,0.47851562,-0.4272461,-1.953125,0.24414062,0.0,0.0,0.0,-26.449585,56.42578,106.73767
2026-02-19 23:02:42.390,1771513362390,1771513362390,-0.8330078,-0.25,0.49609375,0.0,-0.61035156,-0.91552734,0.0,0.0,0.0,-26.537476,56.381836,106.75415
2026-02-19 23:02:42.490,1771513362490,1771513362490,-0.83496094,-0.2548828,0.4975586,-0.7324219,-0.24414062,-0.61035156,0.0,0.0,0.0,-26.586914,56.260986,106.85852
2026-02-19 23:02:42.589,1771513362589,1771513362589,-0.83251953,-0.25097656,0.49316406,-0.61035156,-1.2817383,0.0,0.0,0.0,0.0,-26.592407,56.151123,107.01782
2026-02-19 23:02:42.689,1771513362689,1771513362689,-0.8286133,-0.25390625,0.49658203,-0.18310547,-0.24414062,-0.24414062,0.0,0.0,0.0,-26.608887,56.068726,107.16614
2026-02-19 23:02:42.789,1771513362789,1771513362789,-0.82910156,-0.2548828,0.49609375,0.12207031,-0.4272461,-0.61035156,0.0,0.0,0.0,-26.592407,55.96985,107.265015
2026-02-19 23:02:42.889,1771513362889,1771513362889,-0.8286133,-0.2548828,0.4975586,0.18310547,-0.12207031,-0.48828125,0.0,0.0,0.0,-26.619873,55.898438,107.30896
2026-02-19 23:02:42.988,1771513362988,1771513362988,-0.82714844,-0.25439453,0.4975586,0.18310547,-0.36621094,0.0,0.0,0.0,0.0,-26.592407,55.86548,107.40784
2026-02-19 23:02:43.088,1771513363088,1771513363088,-0.828125,-0.25439453,0.49902344,0.12207031,-0.24414062,0.0,0.0,0.0,0.0,-26.575928,55.849,107.506714
2026-02-19 23:02:43.188,1771513363188,1771513363188,-0.8261719,-0.2548828,0.5,0.12207031,-0.24414062,-0.12207031,0.0,0.0,0.0,-26.537476,55.79956,107.60559
2026-02-19 23:02:43.287,1771513363287,1771513363287,-0.82666016,-0.25390625,0.50146484,-0.061035156,-0.48828125,0.0,0.0,0.0,0.0,-26.488037,55.72815,107.715454
2026-02-19 23:02:43.387,1771513363387,1771513363387,-0.83203125,-0.25048828,0.5048828,-5.1879883,-4.0893555,0.12207031,0.0,0.0,0.0,-26.52649,55.513916,108.03406
2026-02-19 23:02:43.487,1771513363487,1771513363487,-0.8222656,-0.2631836,0.49951172,-5.6152344,2.6855469,0.5493164,0.0,0.0,0.0,-27.070312,55.475464,108.28125
2026-02-19 23:02:43.587,1771513363587,1771513363587,-0.85058594,-0.25732422,0.50390625,-9.521484,8.422852,2.319336,0.0,0.0,0.0,-28.146973,56.068726,107.874756
2026-02-19 23:02:43.686,1771513363686,1771513363686,-0.8413086,-0.26953125,0.47314453,-11.230469,9.70459,6.3476562,0.0,0.0,0.0,-29.042358,57.06299,107.85828
2026-02-19 23:02:43.786,1771513363786,1771513363786,-0.86621094,-0.25878906,0.45263672,-13.061523,11.108398,7.507324,0.0,0.0,0.0,-30.146484,58.222046,108.17139
2026-02-19 23:02:43.886,1771513363886,1771513363886,-0.8613281,-0.25830078,0.4345703,-2.6245117,16.723633,2.0751953,0.0,0.0,0.0,-31.349487,59.589844,107.62756
2026-02-19 23:02:43.985,1771513363985,1771513363985,-0.85498047,-0.26660156,0.41552734,-1.159668,12.817383,-1.953125,0.0,0.0,0.0,-32.91504,60.924683,105.91919
2026-02-19 23:02:44.085,1771513364085,1771513364085,-0.88183594,-0.25146484,0.38378906,-0.5493164,1.2817383,2.1972656,0.0,0.0,0.0,-33.425903,61.254272,105.078735
2026-02-19 23:02:44.185,1771513364185,1771513364185,-0.875,-0.30078125,0.3696289,2.6855469,10.314941,-0.91552734,0.0,0.0,0.0,-33.55774,61.836548,104.80957
2026-02-19 23:02:44.284,1771513364284,1771513364284,-0.89501953,-0.26123047,0.36767578,0.48828125,6.591797,-2.1972656,0.0,0.0,0.0,-34.82666,62.36389,103.430786
2026-02-19 23:02:44.385,1771513364385,1771513364385,-0.8671875,-0.30419922,0.36376953,-4.5776367,8.239746,1.3427734,0.0,0.0,0.0,-35.809937,63.03955,102.44751
2026-02-19 23:02:44.484,1771513364484,1771513364484,-0.8935547,-0.25683594,0.37109375,-4.8217773,-5.2490234,1.8920898,0.0,0.0,0.0,-36.260376,63.078003,102.67273
2026-02-19 23:02:44.584,1771513364584,1771513364584,-0.8989258,-0.25195312,0.34423828,7.9345703,-4.8828125,-0.061035156,0.0,0.0,0.0,-35.408936,62.715454,103.44177
2026-02-19 23:02:44.683,1771513364683,1771513364683,-0.8925781,-0.28320312,0.34472656,0.6713867,1.953125,2.319336,0.0,0.0,0.0,-34.453125,62.63855,104.10095
2026-02-19 23:02:44.783,1771513364783,1771513364783,-0.8901367,-0.24072266,0.3671875,0.79345703,4.0893555,-0.12207031,0.0,0.0,0.0,-34.88159,63.03955,103.776855
2026-02-19 23:02:44.883,1771513364883,1771513364883,-0.8979492,-0.2475586,0.37402344,2.746582,1.5869141,2.8076172,0.0,0.0,0.0,-34.854126,63.396606,103.71094
2026-02-19 23:02:44.982,1771513364982,1771513364982,-0.89404297,-0.27978516,0.36621094,-1.2207031,-0.061035156,2.5634766,0.0,0.0,0.0,-34.123535,63.621826,104.3811
2026-02-19 23:02:45.082,1771513365082,1771513365082,-0.91015625,-0.25390625,0.36376953,-2.2583008,2.8686523,0.7324219,0.0,0.0,0.0,-34.25537,63.825073,104.44702
2026-02-19 23:02:45.182,1771513365182,1771513365182,-0.8930664,-0.25585938,0.35107422,-0.24414062,3.7841797,0.7324219,0.0,0.0,0.0,-34.61792,64.06128,104.18884
