DateTime,UnixTimestamp,AccX,AccY,AccZ,GyroX,GyroY,GyroZ,MagX,MagY,MagZ,Roll,Pitch,Yaw
2026-02-19 23:04:45.432,1771513485432,1771513485432,-0.97753906,-0.15478516,0.17578125,0.91552734,1.6479492,-0.6713867,0.0,0.0,0.0,-40.352783,76.311035,105.68848
2026-02-19 23:04:45.532,1771513485532,1771513485532,-0.9707031,-0.15185547,0.18115234,1.2207031,2.380371,-0.8544922,0.0,0.0,0.0,-41.21521,76.43738,104.628296
2026-02-19 23:04:45.631,1771513485631,1771513485631,-0.9716797,-0.1538086,0.17236328,0.79345703,1.7089844,-0.48828125,0.0,0.0,0.0,-41.726074,76.503296,103.96362
2026-02-19 23:04:45.731,1771513485731,1771513485731,-0.97509766,-0.15283203,0.17236328,0.30517578,1.3427734,-0.36621094,0.0,0.0,0.0,-42.214966,76.58569,103.392334
2026-02-19 23:04:45.831,1771513485831,1771513485831,-0.97314453,-0.15332031,0.16748047,0.61035156,1.5869141,-0.36621094,0.0,0.0,0.0,-42.539062,76.63513,102.98035
2026-02-19 23:04:45.931,1771513485931,1771513485931,-0.9741211,-0.15234375,0.16455078,-1.0375977,0.4272461,0.18310547,0.0,0.0,0.0,-42.714844,76.66809,102.78259
2026-02-19 23:04:46.030,1771513486030,1771513486030,-0.9814453,-0.15429688,0.16552734,-0.9765625,0.0,0.061035156,0.0,0.0,0.0,-42.819214,76.69006,102.59033
2026-02-19 23:04:46.130,1771513486130,1771513486130,-0.9711914,-0.1538086,0.17236328,0.24414062,0.4272461,0.0,0.0,0.0,0.0,-43.12683,76.75049,102.23877
2026-02-19 23:04:46.230,1771513486230,1771513486230,-0.9746094,-0.1538086,0.16796875,0.061035156,-0.12207031,0.0,0.0,0.0,0.0,-43.00049,76.73401,102.34314
2026-02-19 23:04:46.329,1771513486329,1771513486329,-0.97802734,-0.1538086,0.1665039,0.36621094,0.30517578,-0.061035156,0.0,0.0,0.0,-43.033447,76.744995,102.27722
2026-02-19 23:04:46.429,1771513486429,1771513486429,-0.9707031,-0.1538086,0.16699219,-0.24414062,-0.6713867,0.18310547,0.0,0.0,0.0,-42.907104,76.71753,102.403564
2026-02-19 23:04:46.529,1771513486529,1771513486529,-0.9746094,-0.15234375,0.16748047,-0.48828125,-1.5869141,0.24414062,0.0,0.0,0.0,-42.56653,76.65161,102.76062
2026-02-19 23:04:46.629,1771513486629,1771513486629,-0.9716797,-0.15527344,0.17333984,0.5493164,-1.2207031,0.0,0.0,0.0,0.0,-42.182007,76.5802,103.14514
2026-02-19 23:04:46.728,1771513486728,1771513486728,-0.97265625,-0.15039062,0.1743164,-0.48828125,-1.159668,0.12207031,0.0,0.0,0.0,-41.764526,76.48682,103.63403
2026-02-19 23:04:46.828,1771513486828,1771513486828,-0.9741211,-0.1508789,0.1796875,0.0,-0.61035156,-0.12207031,0.0,0.0,0.0,-41.451416,76.40442,103.94165
2026-02-19 23:04:46.928,1771513486928,1771513486928,-0.97265625,-0.15234375,0.17333984,-0.36621094,0.36621094,0.12207031,0.0,0.0,0.0,-41.16028,76.343994,104.33716
2026-02-19 23:04:47.028,1771513487028,1771513487028,-0.9746094,-0.15625,0.17480469,-0.48828125,-1.6479492,0.24414062,0.0,0.0,0.0,-40.93506,76.30005,104.55139
2026-02-19 23:04:47.127,1771513487127,1771513487127,-0.9682617,-0.15283203,0.18164062,0.12207031,0.0,0.0,0.0,0.0,0.0,-40.786743,76.26709,104.732666
2026-02-19 23:04:47.227,1771513487227,1771513487227,-0.97314453,-0.15283203,0.17236328,-0.30517578,0.18310547,0.061035156,0.0,0.0,0.0,-40.60547,76.239624,105.007324
2026-02-19 23:04:47.327,1771513487327,1771513487327,-0.97216797,-0.15429688,0.17871094,-1.2207031,-0.79345703,0.5493164,0.0,0.0,0.0,-40.534058,76.24512,105.14465
2026-02-19 23:04:47.427,1771513487427,1771513487427,-0.97314453,-0.15283203,0.17919922,-1.2817383,-0.7324219,0.61035156,0.0,0.0,0.0,-40.29785,76.23413,105.52368
2026-02-19 23:04:47.526,1771513487526,1771513487526,-0.9736328,-0.15283203,0.1796875,-0.61035156,-0.6713867,0.36621094,0.0,0.0,0.0,-40.149536,76.22864,105.79285
2026-02-19 23:04:47.626,1771513487626,1771513487626,-0.9663086,-0.15576172,0.17578125,-0.18310547,-1.159668,0.061035156,0.0,0.0,0.0,-39.803467,76.16821,106.21582
2026-02-19 23:04:47.725,1771513487725,1771513487725,-0.97753906,-0.15429688,0.17822266,-1.4648438,-2.4414062,0.8544922,0.0,0.0,0.0,-39.561768,76.118774,106.49048
2026-02-19 23:04:47.825,1771513487825,1771513487825,-0.96972656,-0.14990234,0.19091797,0.6713867,0.12207031,0.0,0.0,0.0,0.0,-39.35852,76.0968,106.75415
2026-02-19 23:04:47.925,1771513487925,1771513487925,-0.9707031,-0.14941406,0.18115234,-0.18310547,0.061035156,0.18310547,0.0,0.0,0.0,-39.067383,76.05286,107.07825
2026-02-19 23:04:48.025,1771513488025,1771513488025,-0.97265625,-0.15283203,0.18066406,-0.91552734,-1.3427734,0.48828125,0.0,0.0,0.0,-38.897095,76.02539,107.24304
2026-02-19 23:04:48.124,1771513488124,1771513488124,-0.97021484,-0.14892578,0.19042969,0.30517578,0.4272461,-0.12207031,0.0,0.0,0.0,-38.935547,76.04187,107.21008
2026-02-19 23:04:48.224,1771513488224,1771513488224,-0.97216797,-0.14892578,0.18310547,0.061035156,0.061035156,-0.061035156,0.0,0.0,0.0,-38.825684,76.02539,107.32544
2026-02-19 23:04:48.324,1771513488324,1771513488324,-0.9707031,-0.15136719,0.18554688,-0.24414062,-0.12207031,0.0,0.0,0.0,0.0,-38.83667,76.0199,107.28699
2026-02-19 23:04:48.424,1771513488424,1771513488424,-0.9716797,-0.14990234,0.18261719,-0.24414062,0.0,0.0,0.0,0.0,0.0,-38.825684,76.014404,107.281494
2026-02-19 23:04:48.523,1771513488523,1771513488523,-0.97265625,-0.15039062,0.18798828,-0.12207031,0.48828125,0.0,0.0,0.0,0.0,-38.88611,76.0199,107.18811
2026-02-19 23:04:48.623,1771513488623,1771513488623,-0.97314453,-0.1508789,0.1772461,-0.8544922,-0.48828125,0.30517578,0.0,0.0,0.0,-38.792725,75.981445,107.265015
2026-02-19 23:04:48.723,1771513488723,1771513488723,-0.9716797,-0.15234375,0.18798828,-0.30517578,-0.79345703,0.18310547,0.0,0.0,0.0,-38.875122,76.00891,107.10571
2026-02-19 23:04:48.823,1771513488823,1771513488823,-0.96972656,-0.14892578,0.18945312,0.61035156,0.6713867,-0.24414062,0.0,0.0,0.0,-38.80371,75.997925,107.17163
2026-02-19 23:04:48.922,1771513488922,1771513488922,-0.9716797,-0.14990234,0.1796875,0.0,0.30517578,-0.12207031,0.0,0.0,0.0,-38.759766,75.981445,107.20459
2026-02-19 23:04:49.022,1771513489022,1771513489022,-0.9707031,-0.1508789,0.18896484,-0.18310547,-0.36621094,0.061035156,0.0,0.0,0.0,-38.847656,75.997925,107.07825
2026-02-19 23:04:49.122,1771513489122,1771513489122,-0.97021484,-0.14941406,0.18847656,0.061035156,0.18310547,-0.12207031,0.0,0.0,0.0,-38.842163,75.981445,107.05078
2026-02-19 23:04:49.222,1771513489222,1771513489222,-0.97265625,-0.15136719,0.18457031,0.18310547,0.5493164,-0.12207031,0.0,0.0,0.0,-38.897095,75.99243,106.94641
2026-02-19 23:04:49.321,1771513489321,1771513489321,-0.97314453,-0.15332031,0.18164062,0.4272461,0.30517578,-0.12207031,0.0,0.0,0.0,-39.039917,76.0199,106.726685
2026-02-19 23:04:49.421,1771513489421,1771513489421,-0.9682617,-0.15527344,0.1796875,0.6713867,1.4038086,-0.4272461,0.0,0.0,0.0,-39.34204,76.09131,106.33118
2026-02-19 23:04:49.520,1771513489520,1771513489520,-0.9794922,-0.15527344,0.16796875,-0.36621094,0.24414062,0.061035156,0.0,0.0,0.0,-39.605713,76.135254,105.95764
2026-02-19 23:04:49.620,1771513489620,1771513489620,-0.9682617,-0.15039062,0.18554688,1.8310547,3.540039,-0.79345703,0.0,0.0,0.0,-40.29785,76.294556,105.16113
2026-02-19 23:04:49.720,1771513489720,1771513489720,-0.9741211,-0.15234375,0.17138672,0.0,1.953125,-0.30517578,0.0,0.0,0.0,-40.775757,76.38794,104.573364
2026-02-19 23:04:49.820,1771513489820,1771513489820,-0.97753906,-0.15576172,0.17333984,0.61035156,1.5258789,-0.36621094,0.0,0.0,0.0,-41.42395,76.50879,103.776855
2026-02-19 23:04:49.920,1771513489920,1771513489920,-0.9736328,-0.15429688,0.17138672,0.8544922,1.6479492,-0.48828125,0.0,0.0,0.0,-41.97876,76.58569,103.07922
2026-02-19 23:04:50.019,1771513490019,1771513490019,-0.9741211,-0.1538086,0.16796875,0.5493164,1.4038086,-0.48828125,0.0,0.0,0.0,-42.418213,76.64612,102.52991
2026-02-19 23:04:50.119,1771513490119,1771513490119,-0.97558594,-0.15429688,0.1665039,0.5493164,1.0375977,-0.30517578,0.0,0.0,0.0,-42.764282,76.70105,102.06848
2026-02-19 23:04:50.219,1771513490219,1771513490219,-0.9741211,-0.15429688,0.1665039,0.5493164,1.2207031,-0.30517578,0.0,0.0,0.0,-43.115845,76.761475,101.61255
2026-02-19 23:04:50.318,1771513490318,1771513490318,-0.9746094,-0.15332031,0.16503906,-0.4272461,0.4272461,0.0,0.0,0.0,0.0,-43.324585,76.78894,101.36536
2026-02-19 23:04:50.418,1771513490418,1771513490418,-0.9794922,-0.15332031,0.16699219,-0.48828125,0.30517578,-0.061035156,0.0,0.0,0.0,-43.450928,76.79993,101.14563
2026-02-19 23:04:50.518,1771513490518,1771513490518,-0.97216797,-0.15429688,0.16601562,0.5493164,1.3427734,-0.18310547,0.0,0.0,0.0,-43.703613,76.849365,100.859985
2026-02-19 23:04:50.617,1771513490617,1771513490617,-0.9746094,-0.15478516,0.16210938,0.18310547,0.18310547,-0.12207031,0.0,0.0,0.0,-43.692627,76.85486,100.82153
2026-02-19 23:04:50.717,1771513490717,1771513490717,-0.9770508,-0.15478516,0.16259766,0.48828125,0.24414062,-0.12207031,0.0,0.0,0.0,-43.74756,76.86035,100.72266
2026-02-19 23:04:50.817,1771513490817,1771513490817,-0.97314453,-0.15478516,0.16113281,0.12207031,0.061035156,-0.061035156,0.0,0.0,0.0,-43.807983,76.865845,100.64026
2026-02-19 23:04:50.917,1771513490917,1771513490917,-0.97558594,-0.15429688,0.16455078,-0.30517578,-0.61035156,0.0,0.0,0.0,0.0,-43.780518,76.85486,100.667725
2026-02-19 23:04:51.016,1771513491016,1771513491016,-0.9741211,-0.15478516,0.16455078,0.24414062,-0.5493164,0.0,0.0,0.0,0.0,-43.588257,76.81641,100.83801
2026-02-19 23:04:51.116,1771513491116,1771513491116,-0.97314453,-0.1538086,0.1640625,-0.18310547,-0.8544922,0.0,0.0,0.0,0.0,-43.275146,76.7395,101.1676
2026-02-19 23:04:51.216,1771513491216,1771513491216,-0.97558594,-0.15527344,0.16308594,-0.36621094,-0.61035156,0.0,0.0,0.0,0.0,-42.989502,76.66809,101.45874
2026-02-19 23:04:51.315,1771513491315,1771513491315,-0.9711914,-0.15332031,0.16894531,-0.30517578,-0.9765625,0.0,0.0,0.0,0.0,-42.714844,76.60217,101.73889
2026-02-19 23:04:51.415,1771513491415,1771513491415,-0.9760742,-0.15625,0.1616211,-0.79345703,-1.3427734,0.36621094,0.0,0.0,0.0,-42.297363,76.50879,102.23328
2026-02-19 23:04:51.515,1771513491515,1771513491515,-0.97314453,-0.15771484,0.17382812,-0.36621094,-1.5258789,0.61035156,0.0,0.0,0.0,-41.9458,76.47583,102.62329
2026-02-19 23:04:51.615,1771513491615,1771513491615,-0.9746094,-0.15576172,0.17236328,-0.6713867,-0.79345703,0.48828125,0.0,0.0,0.0,-41.434937,76.40442,103.238525
2026-02-19 23:04:51.714,1771513491714,1771513491714,-0.97558594,-0.15576172,0.16845703,-0.7324219,-0.8544922,0.5493164,0.0,0.0,0.0,-41.204224,76.38794,103.54614
2026-02-19 23:04:51.814,1771513491814,1771513491814,-0.9716797,-0.15136719,0.1796875,-0.79345703,-0.4272461,0.4272461,0.0,0.0,0.0,-41.12732,76.39343,103.69995
2026-02-19 23:04:51.914,1771513491914,1771513491914,-0.97314453,-0.1508789,0.17578125,-0.48828125,-0.6713867,0.30517578,0.0,0.0,0.0,-40.819702,76.35498,104.08447
2026-02-19 23:04:52.014,1771513492014,1771513492014,-0.97509766,-0.15234375,0.1772461,-0.6713867,-0.5493164,0.18310547,0.0,0.0,0.0,-40.60547,76.311035,104.348145
2026-02-19 23:04:52.113,1771513492113,1771513492113,-0.9716797,-0.15332031,0.18017578,-0.48828125,-0.7324219,0.061035156,0.0,0.0,0.0,-40.424194,76.26709,104.58435
2026-02-19 23:04:52.213,1771513492213,1771513492213,-0.9711914,-0.15185547,0.18164062,-0.79345703,-0.36621094,0.12207031,0.0,0.0,0.0,-40.24292,76.21216,104.79309
2026-02-19 23:04:52.313,1771513492313,1771513492313,-0.9711914,-0.15136719,0.18701172,0.0,0.4272461,-0.4272461,0.0,0.0,0.0,-40.231934,76.1792,104.7876
2026-02-19 23:04:52.412,1771513492412,1771513492412,-0.97265625,-0.15283203,0.17382812,-0.48828125,-0.30517578,0.12207031,0.0,0.0,0.0,-39.94629,76.12427,105.12268
2026-02-19 23:04:52.512,1771513492512,1771513492512,-0.97314453,-0.15478516,0.18164062,-0.48828125,-1.2207031,0.24414062,0.0,0.0,0.0,-39.973755,76.135254,105.04028
2026-02-19 23:04:52.612,1771513492612,1771513492612,-0.9711914,-0.15039062,0.18408203,0.30517578,0.36621094,0.0,0.0,0.0,0.0,-39.891357,76.12976,105.128174
2026-02-19 23:04:52.712,1771513492712,1771513492712,-0.97265625,-0.15283203,0.17675781,0.061035156,0.12207031,0.0,0.0,0.0,0.0,-39.814453,76.12427,105.20508
2026-02-19 23:04:52.811,1771513492811,1771513492811,-0.9716797,-0.15136719,0.18554688,-0.18310547,-0.4272461,0.061035156,0.0,0.0,0.0,-39.869385,76.135254,105.14465
2026-02-19 23:04:52.911,1771513492911,1771513492911,-0.9707031,-0.1508789,0.18457031,0.24414062,0.061035156,-0.061035156,0.0,0.0,0.0,-39.80896,76.118774,105.17212
2026-02-19 23:04:53.011,1771513493011,1771513493011,-0.97216797,-0.15234375,0.18066406,0.061035156,0.061035156,-0.061035156,0.0,0.0,0.0,-39.743042,76.102295,105.20508
2026-02-19 23:04:53.110,1771513493110,1771513493110,-0.9716797,-0.15234375,0.1850586,0.18310547,0.061035156,0.0,0.0,0.0,0.0,-39.781494,76.11328,105.13367
2026-02-19 23:04:53.210,1771513493210,1771513493210,-0.97021484,-0.14941406,0.18798828,0.61035156,0.48828125,0.0,0.0,0.0,0.0,-39.814453,76.12427,105.07324
2026-02-19 23:04:53.310,1771513493310,1771513493310,-0.9692383,-0.15039062,0.18945312,0.48828125,0.24414062,-0.30517578,0.0,0.0,0.0,-39.84192,76.12976,105.00183
2026-02-19 23:04:53.410,1771513493410,1771513493410,-0.96972656,-0.14892578,0.1850586,1.159668,1.5258789,-0.48828125,0.0,0.0,0.0,-39.770508,76.11328,105.06775
2026-02-19 23:04:53.509,1771513493509,1771513493509,-0.9741211,-0.1538086,0.17773438,0.18310547,0.12207031,-0.12207031,0.0,0.0,0.0,-39.814453,76.118774,104.9469
2026-02-19 23:04:53.609,1771513493609,1771513493609,-0.9736328,-0.1538086,0.18115234,0.91552734,1.159668,-0.30517578,0.0,0.0,0.0,-40.006714,76.16272,104.68323
2026-02-19 23:04:53.709,1771513493709,1771513493709,-0.97216797,-0.15283203,0.17675781,1.0986328,1.953125,-0.48828125,0.0,0.0,0.0,-40.33081,76.23413,104.28223
2026-02-19 23:04:53.809,1771513493809,1771513493809,-0.97509766,-0.15429688,0.17480469,0.4272461,0.9765625,-0.36621094,0.0,0.0,0.0,-40.792236,76.311035,103.69995
2026-02-19 23:04:53.909,1771513493909,1771513493909,-0.9736328,-0.15234375,0.17480469,0.7324219,1.2817383,-0.4272461,0.0,0.0,0.0,-41.209717,76.37146,103.15613
2026-02-19 23:04:54.009,1771513494009,1771513494009,-0.9741211,-0.15283203,0.17285156,0.79345703,1.4648438,-0.4272461,0.0,0.0,0.0,-41.63269,76.44287,102.595825
2026-02-19 23:04:54.108,1771513494108,1771513494108,-0.9746094,-0.15576172,0.17333984,0.79345703,1.5869141,-0.4272461,0.0,0.0,0.0,-42.11609,76.52527,101.9751
2026-02-19 23:04:54.208,1771513494208,1771513494208,-0.9741211,-0.15478516,0.17041016,0.48828125,1.2817383,-0.30517578,0.0,0.0,0.0,-42.51709,76.58569,101.47522
2026-02-19 23:04:54.307,1771513494307,1771513494307,-0.9794922,-0.15673828,0.16699219,-0.6713867,0.61035156,-0.18310547,0.0,0.0,0.0,-42.923584,76.640625,100.93689
2026-02-19 23:04:54.407,1771513494407,1771513494407,-0.9716797,-0.15429688,0.16992188,0.61035156,1.8310547,-0.30517578,0.0,0.0,0.0,-43.478394,76.7395,100.2832
2026-02-19 23:04:54.506,1771513494506,1771513494506,-0.9741211,-0.15576172,0.1640625,0.24414062,1.159668,-0.18310547,0.0,0.0,0.0,-43.720093,76.79443,99.975586
2026-02-19 23:04:54.606,1771513494606,1771513494606,-0.9760742,-0.15527344,0.16308594,0.48828125,1.2207031,-0.18310547,0.0,0.0,0.0,-44.04419,76.86035,99.5636
2026-02-19 23:04:54.706,1771513494706,1771513494706,-0.97314453,-0.15527344,0.1616211,0.24414062,1.159668,-0.24414062,0.0,0.0,0.0,-44.318848,76.8988,99.23401
2026-02-19 23:04:54.805,1771513494805,1771513494805,-0.97558594,-0.15527344,0.15966797,-0.061035156,0.18310547,0.0,0.0,0.0,0.0,-44.41223,76.91528,99.11316
2026-02-19 23:04:54.905,1771513494905,1771513494905,-0.9746094,-0.15625,0.15917969,0.12207031,-0.24414062,-0.061035156,0.0,0.0,0.0,-44.37378,76.9043,99.08569
2026-02-19 23:04:55.005,1771513495005,1771513495005,-0.97509766,-0.15576172,0.16064453,0.0,0.18310547,0.0,0.0,0.0,0.0,-44.318848,76.89331,99.124146
2026-02-19 23:04:55.105,1771513495105,1771513495105,-0.9765625,-0.15576172,0.15820312,-0.4272461,-0.24414062,0.061035156,0.0,0.0,0.0,-44.25293,76.87683,99.17908
2026-02-19 23:04:55.204,1771513495204,1771513495204,-0.9765625,-0.15478516,0.16503906,-0.4272461,-0.6713867,0.0,0.0,0.0,0.0,-44.1156,76.84387,99.28345
2026-02-19 23:04:55.304,1771513495304,1771513495304,-0.9711914,-0.15527344,0.16015625,0.18310547,-0.36621094,0.0,0.0,0.0,0.0,-43.89038,76.78345,99.541626
2026-02-19 23:04:55.404,1771513495404,1771513495404,-0.97558594,-0.15625,0.16015625,-0.36621094,-1.2817383,0.12207031,0.0,0.0,0.0,-43.483887,76.70654,99.975586
2026-02-19 23:04:55.504,1771513495504,1771513495504,-0.9741211,-0.15917969,0.16259766,-0.4272461,-1.159668,0.12207031,0.0,0.0,0.0,-43.121338,76.63513,100.34912
2026-02-19 23:04:55.603,1771513495603,1771513495603,-0.9746094,-0.15917969,0.15966797,-0.4272461,-1.3427734,0.12207031,0.0,0.0,0.0,-42.769775,76.569214,100.73364
2026-02-19 23:04:55.703,1771513495703,1771513495703,-0.9746094,-0.15527344,0.17138672,-0.7324219,-1.5869141,0.24414062,0.0,0.0,0.0,-42.583008,76.519775,100.98633
2026-02-19 23:04:55.803,1771513495803,1771513495803,-0.97314453,-0.15478516,0.17236328,-0.24414062,-0.91552734,0.24414062,0.0,0.0,0.0,-42.20398,76.448364,101.42029
2026-02-19 23:04:55.902,1771513495902,1771513495902,-0.97509766,-0.15673828,0.17089844,-0.61035156,-0.5493164,0.18310547,0.0,0.0,0.0,-41.934814,76.40442,101.74988
2026-02-19 23:04:56.002,1771513496002,1771513496002,-0.9746094,-0.15673828,0.17089844,-0.4272461,-0.79345703,0.30517578,0.0,0.0,0.0,-41.709595,76.37146,102.03552
2026-02-19 23:04:56.102,1771513496102,1771513496102,-0.9692383,-0.15966797,0.17041016,-0.061035156,-0.5493164,0.0,0.0,0.0,0.0,-41.52832,76.3385,102.26074
2026-02-19 23:04:56.201,1771513496201,1771513496201,-0.9785156,-0.15527344,0.17626953,-1.2207031,-2.5024414,0.5493164,0.0,0.0,0.0,-41.396484,76.30005,102.40906
2026-02-19 23:04:56.301,1771513496301,1771513496301,-0.9707031,-0.15185547,0.18310547,0.79345703,0.61035156,-0.12207031,0.0,0.0,0.0,-41.11084,76.25061,102.788086
2026-02-19 23:04:56.402,1771513496402,1771513496402,-0.9741211,-0.15527344,0.171875,-0.4272461,-0.36621094,0.12207031,0.0,0.0,0.0,-40.81421,76.190186,103.0957
2026-02-19 23:04:56.501,1771513496501,1771513496501,-0.9736328,-0.15625,0.1796875,-0.61035156,-0.61035156,0.24414062,0.0,0.0,0.0,-40.770264,76.18469,103.13965
2026-02-19 23:04:56.600,1771513496600,1771513496600,-0.97021484,-0.15332031,0.18017578,0.24414062,0.36621094,0.0,0.0,0.0,0.0,-40.73181,76.1792,103.18909
2026-02-19 23:04:56.700,1771513496700,1771513496700,-0.97216797,-0.1538086,0.17773438,-0.18310547,-0.12207031,0.12207031,0.0,0.0,0.0,-40.67688,76.1792,103.22754
2026-02-19 23:04:56.800,1771513496800,1771513496800,-0.9716797,-0.15429688,0.17822266,-0.18310547,-0.30517578,0.12207031,0.0,0.0,0.0,-40.599976,76.16821,103.27698
2026-02-19 23:04:56.899,1771513496899,1771513496899,-0.97265625,-0.15332031,0.18115234,0.061035156,0.12207031,0.0,0.0,0.0,0.0,-40.567017,76.16272,103.29346
2026-02-19 23:04:56.999,1771513496999,1771513496999,-0.97021484,-0.15136719,0.1850586,0.18310547,0.4272461,0.0,0.0,0.0,0.0,-40.51758,76.15173,103.326416
2026-02-19 23:04:57.099,1771513497099,1771513497099,-0.9682617,-0.1508789,0.18945312,0.36621094,0.24414062,-0.30517578,0.0,0.0,0.0,-40.534058,76.16272,103.26599
2026-02-19 23:04:57.199,1771513497199,1771513497199,-0.9707031,-0.15185547,0.18115234,0.8544922,1.4648438,-0.4272461,0.0,0.0,0.0,-40.385742,76.12976,103.39783
2026-02-19 23:04:57.298,1771513497298,1771513497298,-0.9741211,-0.15625,0.1743164,0.0,-0.24414062,0.0,0.0,0.0,0.0,-40.43518,76.14075,103.26599
2026-02-19 23:04:57.399,1771513497399,1771513497399,-0.97216797,-0.15429688,0.18310547,0.36621094,0.061035156,0.0,0.0,0.0,0.0,-40.528564,76.16272,103.12317
2026-02-19 23:04:57.498,1771513497498,1771513497498,-0.9716797,-0.1538086,0.1772461,0.7324219,1.2207031,-0.30517578,0.0,0.0,0.0,-40.528564,76.16821,103.11218
2026-02-19 23:04:57.597,1771513497597,1771513497597,-0.97558594,-0.15429688,0.17626953,0.36621094,0.0,-0.12207031,0.0,0.0,0.0,-40.616455,76.18469,102.96936
2026-02-19 23:04:57.697,1771513497697,1771513497697,-0.9741211,-0.15332031,0.17675781,0.79345703,0.7324219,-0.18310547,0.0,0.0,0.0,-40.786743,76.223145,102.68921
2026-02-19 23:04:57.797,1771513497797,1771513497797,-0.9736328,-0.15478516,0.17333984,0.91552734,1.8310547,-0.48828125,0.0,0.0,0.0,-41.149292,76.294556,102.20032
2026-02-19 23:04:57.897,1771513497897,1771513497897,-0.9741211,-0.15673828,0.17236328,0.9765625,1.953125,-0.61035156,0.0,0.0,0.0,-41.797485,76.40991,101.4093
2026-02-19 23:04:57.996,1771513497996,1771513497996,-0.9682617,-0.15478516,0.17236328,1.0986328,1.6479492,-0.36621094,0.0,0.0,0.0,-42.20398,76.48132,100.85449
2026-02-19 23:04:58.096,1771513498096,1771513498096,-0.97558594,-0.15332031,0.15966797,0.24414062,2.0751953,-0.12207031,0.0,0.0,0.0,-42.561035,76.552734,100.41504
2026-02-19 23:04:58.196,1771513498196,1771513498196,-0.97509766,-0.15771484,0.16992188,0.6713867,1.3427734,-0.18310547,0.0,0.0,0.0,-43.14331,76.67908,99.67346
2026-02-19 23:04:58.296,1771513498296,1771513498296,-0.97314453,-0.1538086,0.16259766,0.8544922,1.953125,-0.4272461,0.0,0.0,0.0,-43.527832,76.75049,99.20105
2026-02-19 23:04:58.395,1771513498395,1771513498395,-0.97753906,-0.15966797,0.15625,0.24414062,1.3427734,-0.061035156,0.0,0.0,0.0,-43.9563,76.83838,98.65723
2026-02-19 23:04:58.495,1771513498495,1771513498495,-0.97314453,-0.15673828,0.16064453,0.24414062,1.4038086,-0.24414062,0.0,0.0,0.0,-44.467163,76.92078,98.0365
2026-02-19 23:04:58.595,1771513498595,1771513498595,-0.9746094,-0.15429688,0.15673828,0.0,0.5493164,0.0,0.0,0.0,0.0,-44.68689,76.96472,97.767334
2026-02-19 23:04:58.695,1771513498695,1771513498695,-0.9765625,-0.15771484,0.15576172,0.0,0.4272461,0.0,0.0,0.0,0.0,-44.91211,77.00867,97.45422
2026-02-19 23:04:58.795,1771513498795,1771513498795,-0.97509766,-0.15820312,0.15576172,0.24414062,0.36621094,-0.18310547,0.0,0.0,0.0,-45.038452,77.02515,97.27295
2026-02-19 23:04:58.894,1771513498894,1771513498894,-0.9746094,-0.15771484,0.1586914,0.9765625,0.36621094,-0.18310547,0.0,0.0,0.0,-44.972534,77.00867,97.28943
2026-02-19 23:04:58.994,1771513498994,1771513498994,-0.97753906,-0.15722656,0.14892578,0.18310547,0.30517578,0.0,0.0,0.0,0.0,-44.901123,76.99219,97.36633
2026-02-19 23:04:59.093,1771513499093,1771513499093,-0.9785156,-0.15771484,0.15527344,-0.36621094,-0.7324219,0.24414062,0.0,0.0,0.0,-44.752808,76.9812,97.48718
2026-02-19 23:04:59.193,1771513499193,1771513499193,-0.97558594,-0.15722656,0.15478516,-0.061035156,-0.9765625,0.18310547,0.0,0.0,0.0,-44.500122,76.937256,97.717896
2026-02-19 23:04:59.293,1771513499293,1771513499293,-0.9760742,-0.15820312,0.15478516,-0.36621094,-1.6479492,0.18310547,0.0,0.0,0.0,-44.230957,76.882324,97.98157
2026-02-19 23:04:59.393,1771513499393,1771513499393,-0.97314453,-0.15576172,0.16503906,-0.30517578,-1.159668,0.0,0.0,0.0,0.0,-43.93982,76.79993,98.31665
2026-02-19 23:04:59.492,1771513499492,1771513499492,-0.97314453,-0.15332031,0.16748047,-0.061035156,-1.159668,0.0,0.0,0.0,0.0,-43.56079,76.70654,98.72864
2026-02-19 23:04:59.592,1771513499592,1771513499592,-0.9765625,-0.15722656,0.16552734,-0.36621094,-1.159668,0.0,0.0,0.0,0.0,-43.121338,76.607666,99.19006
2026-02-19 23:04:59.692,1771513499692,1771513499692,-0.97509766,-0.1586914,0.16845703,-0.24414062,-1.0986328,0.0,0.0,0.0,0.0,-42.890625,76.54724,99.45923
2026-02-19 23:04:59.791,1771513499791,1771513499791,-0.97314453,-0.16015625,0.16992188,0.24414062,-0.9765625,0.0,0.0,0.0,0.0,-42.74231,76.4978,99.6405
2026-02-19 23:04:59.891,1771513499891,1771513499891,-0.9760742,-0.15722656,0.17089844,-0.6713867,-1.8310547,0.4272461,0.0,0.0,0.0,-42.522583,76.44287,99.87671
2026-02-19 23:04:59.991,1771513499991,1771513499991,-0.9716797,-0.15332031,0.1772461,0.6713867,0.48828125,0.0,0.0,0.0,0.0,-42.225952,76.40991,100.233765
2026-02-19 23:05:00.091,1771513500091,1771513500091,-0.9736328,-0.15673828,0.16992188,-0.79345703,-0.79345703,0.4272461,0.0,0.0,0.0,-41.885376,76.36597,100.61279
2026-02-19 23:05:00.190,1771513500190,1771513500190,-0.97265625,-0.15576172,0.1772461,-0.4272461,-0.8544922,0.18310547,0.0,0.0,0.0,-41.797485,76.36047,100.71167
2026-02-19 23:05:00.290,1771513500290,1771513500290,-0.97314453,-0.15478516,0.17333984,0.36621094,0.36621094,-0.12207031,0.0,0.0,0.0,-41.643677,76.327515,100.89844
2026-02-19 23:05:00.390,1771513500390,1771513500390,-0.9741211,-0.15429688,0.17333984,-0.48828125,-0.61035156,0.18310547,0.0,0.0,0.0,-41.539307,76.311035,101.0083
2026-02-19 23:05:00.490,1771513500490,1771513500490,-0.97265625,-0.15576172,0.1772461,-0.12207031,-0.12207031,0.0,0.0,0.0,0.0,-41.500854,76.294556,101.03577
2026-02-19 23:05:00.589,1771513500589,1771513500589,-0.97265625,-0.15576172,0.17480469,0.061035156,0.061035156,0.0,0.0,0.0,0.0,-41.401978,76.26709,101.10718
2026-02-19 23:05:00.689,1771513500689,1771513500689,-0.97216797,-0.15478516,0.17822266,-0.5493164,0.30517578,0.061035156,0.0,0.0,0.0,-41.40747,76.27258,101.0907
2026-02-19 23:05:00.789,1771513500789,1771513500789,-0.9716797,-0.15234375,0.18310547,0.0,0.61035156,0.0,0.0,0.0,0.0,-41.42395,76.27258,101.052246
2026-02-19 23:05:00.889,1771513500889,1771513500889,-0.9716797,-0.15478516,0.17041016,-0.061035156,0.36621094,0.061035156,0.0,0.0,0.0,-41.23169,76.24512,101.24451
2026-02-19 23:05:00.988,1771513500988,1771513500988,-0.9746094,-0.15771484,0.17382812,-0.4272461,-0.7324219,0.18310547,0.0,0.0,0.0,-41.253662,76.2616,101.15662
2026-02-19 23:05:01.088,1771513501088,1771513501088,-0.9707031,-0.1538086,0.1796875,0.48828125,0.30517578,-0.12207031,0.0,0.0,0.0,-41.259155,76.2616,101.12915
2026-02-19 23:05:01.188,1771513501188,1771513501188,-0.97314453,-0.15478516,0.17285156,0.30517578,0.36621094,-0.18310547,0.0,0.0,0.0,-41.204224,76.2561,101.1676
2026-02-19 23:05:01.287,1771513501287,1771513501287,-0.97265625,-0.1538086,0.17822266,-0.061035156,-0.18310547,0.0,0.0,0.0,0.0,-41.26465,76.2616,101.07971
2026-02-19 23:05:01.387,1771513501387,1771513501387,-0.9716797,-0.1538086,0.17871094,0.0,0.0,0.0,0.0,0.0,0.0,-41.259155,76.2616,101.04675
2026-02-19 23:05:01.487,1771513501487,1771513501487,-0.9736328,-0.15625,0.17480469,0.0,0.12207031,0.0,0.0,0.0,0.0,-41.23169,76.2616,101.03027
2026-02-19 23:05:01.586,1771513501586,1771513501586,-0.97314453,-0.15625,0.1743164,0.18310547,0.061035156,0.0,0.0,0.0,0.0,-41.292114,76.278076,100.9314
2026-02-19 23:05:01.686,1771513501686,1771513501686,-0.97314453,-0.15771484,0.17626953,0.5493164,0.4272461,0.0,0.0,0.0,0.0,-41.385498,76.30554,100.79956
2026-02-19 23:05:01.786,1771513501786,1771513501786,-0.9790039,-0.15673828,0.171875,0.18310547,0.48828125,0.0,0.0,0.0,0.0,-41.5448,76.35498,100.58533
2026-02-19 23:05:01.886,1771513501886,1771513501886,-0.9711914,-0.15429688,0.18164062,2.0141602,2.4414062,-0.61035156,0.0,0.0,0.0,-42.022705,76.46484,100.05249
2026-02-19 23:05:01.985,1771513501985,1771513501985,-0.9736328,-0.15332031,0.16796875,0.12207031,0.9765625,0.0,0.0,0.0,0.0,-42.24243,76.51428,99.70093
2026-02-19 23:05:02.086,1771513502086,1771513502086,-0.9770508,-0.15527344,0.1665039,0.5493164,0.0,-0.061035156,0.0,0.0,0.0,-42.46765,76.56372,99.33838
2026-02-19 23:05:02.185,1771513502185,1771513502185,-0.9711914,-0.15576172,0.17041016,0.9765625,1.5258789,-0.36621094,0.0,0.0,0.0,-42.769775,76.61316,98.9209
2026-02-19 23:05:02.285,1771513502285,1771513502285,-0.97509766,-0.15625,0.16357422,0.5493164,0.91552734,-0.24414062,0.0,0.0,0.0,-42.994995,76.65161,98.61328
2026-02-19 23:05:02.384,1771513502384,1771513502384,-0.9746094,-0.15771484,0.16210938,0.6713867,1.0986328,-0.30517578,0.0,0.0,0.0,-43.3136,76.712036,98.168335
2026-02-19 23:05:02.484,1771513502484,1771513502484,-0.9741211,-0.15625,0.16064453,0.79345703,1.953125,-0.4272461,0.0,0.0,0.0,-43.742065,76.78345,97.630005
2026-02-19 23:05:02.584,1771513502584,1771513502584,-0.9746094,-0.15673828,0.16259766,0.48828125,0.9765625,-0.36621094,0.0,0.0,0.0,-44.225464,76.85486,97.01477
2026-02-19 23:05:02.683,1771513502683,1771513502683,-0.9736328,-0.15527344,0.1616211,0.79345703,1.2817383,-0.36621094,0.0,0.0,0.0,-44.544067,76.9043,96.5863
2026-02-19 23:05:02.783,1771513502783,1771513502783,-0.97216797,-0.15332031,0.15283203,0.8544922,1.6479492,-0.4272461,0.0,0.0,0.0,-44.94507,76.96472,96.13037
2026-02-19 23:05:02.883,1771513502883,1771513502883,-0.9765625,-0.15722656,0.15625,0.061035156,0.24414062,-0.18310547,0.0,0.0,0.0,-45.214233,77.003174,95.756836
2026-02-19 23:05:02.983,1771513502983,1771513502983,-0.9746094,-0.15917969,0.15820312,0.12207031,0.4272461,-0.30517578,0.0,0.0,0.0,-45.373535,77.01416,95.50415
2026-02-19 23:05:03.082,1771513503082,1771513503082,-0.9741211,-0.15917969,0.15283203,1.0375977,0.5493164,-0.4272461,0.0,0.0,0.0,-45.472412,77.01416,95.322876
2026-02-19 23:05:03.182,1771513503182,1771513503182,-0.97802734,-0.15771484,0.15722656,-0.9765625,-1.3427734,0.24414062,0.0,0.0,0.0,-45.368042,76.9812,95.427246
2026-02-19 23:05:03.282,1771513503282,1771513503282,-0.9746094,-0.15722656,0.1586914,0.6713867,-0.18310547,0.0,0.0,0.0,0.0,-45.1593,76.94824,95.64148
2026-02-19 23:05:03.382,1771513503382,1771513503382,-0.9736328,-0.15917969,0.15771484,-1.0375977,-1.6479492,0.36621094,0.0,0.0,0.0,-44.697876,76.87134,96.12488
2026-02-19 23:05:03.481,1771513503481,1771513503481,-0.9765625,-0.15771484,0.16259766,-0.5493164,-1.2207031,0.0,0.0,0.0,0.0,-44.42871,76.79993,96.448975
2026-02-19 23:05:03.581,1771513503581,1771513503581,-0.97265625,-0.1586914,0.16552734,0.4272461,-0.4272461,-0.12207031,0.0,0.0,0.0,-44.104614,76.728516,96.81152
2026-02-19 23:05:03.681,1771513503681,1771513503681,-0.9785156,-0.1616211,0.15283203,-0.6713867,-1.5869141,0.18310547,0.0,0.0,0.0,-43.615723,76.62964,97.36633
2026-02-19 23:05:03.781,1771513503781,1771513503781,-0.9741211,-0.15771484,0.16992188,-0.30517578,-1.2817383,0.24414062,0.0,0.0,0.0,-43.53882,76.60217,97.46521
2026-02-19 23:05:03.880,1771513503880,1771513503880,-0.9746094,-0.15722656,0.1616211,-0.8544922,-1.2817383,0.24414062,0.0,0.0,0.0,-43.049927,76.51428,98.02551
2026-02-19 23:05:03.980,1771513503980,1771513503980,-0.97558594,-0.16357422,0.16845703,-1.5869141,-1.8920898,0.7324219,0.0,0.0,0.0,-42.857666,76.47583,98.28369
2026-02-19 23:05:04.080,1771513504080,1771513504080,-0.9716797,-0.1538086,0.1796875,-0.24414062,-1.159668,0.30517578,0.0,0.0,0.0,-42.57202,76.431885,98.69568
2026-02-19 23:05:04.180,1771513504180,1771513504180,-0.9716797,-0.15527344,0.17382812,0.0,-0.8544922,0.12207031,0.0,0.0,0.0,-42.055664,76.32202,99.25598
2026-02-19 23:05:04.279,1771513504279,1771513504279,-0.97216797,-0.15917969,0.17236328,-0.48828125,-1.5258789,0.24414062,0.0,0.0,0.0,-41.627197,76.239624,99.70642
2026-02-19 23:05:04.379,1771513504379,1771513504379,-0.9716797,-0.15722656,0.17871094,-0.61035156,-1.8310547,0.30517578,0.0,0.0,0.0,-41.19873,76.14624,100.217285
2026-02-19 23:05:04.479,1771513504479,1771513504479,-0.97021484,-0.15673828,0.18310547,0.0,0.061035156,-0.30517578,0.0,0.0,0.0,-40.94055,76.069336,100.5249
2026-02-19 23:05:04.578,1771513504578,1771513504578,-0.9707031,-0.15673828,0.18701172,0.12207031,-0.79345703,-0.4272461,0.0,0.0,0.0,-40.858154,75.981445,100.50842
2026-02-19 23:05:04.678,1771513504678,1771513504678,-0.9707031,-0.15722656,0.1772461,-0.061035156,-0.36621094,0.12207031,0.0,0.0,0.0,-40.4187,75.877075,100.96985
2026-02-19 23:05:04.778,1771513504778,1771513504778,-0.97265625,-0.15917969,0.1821289,0.061035156,-1.7089844,0.30517578,0.0,0.0,0.0,-40.177002,75.83862,101.14014
2026-02-19 23:05:04.878,1771513504878,1771513504878,-0.96875,-0.15478516,0.19091797,0.61035156,0.30517578,-0.061035156,0.0,0.0,0.0,-40.00122,75.81665,101.326904
2026-02-19 23:05:04.977,1771513504977,1771513504977,-0.9716797,-0.15527344,0.17871094,-0.12207031,0.30517578,0.12207031,0.0,0.0,0.0,-39.847412,75.80017,101.53015
2026-02-19 23:05:05.077,1771513505077,1771513505077,-0.97021484,-0.15576172,0.18701172,-0.79345703,-1.2207031,0.4272461,0.0,0.0,0.0,-39.830933,75.81116,101.53015
2026-02-19 23:05:05.177,1771513505177,1771513505177,-0.9692383,-0.1538086,0.19042969,-0.12207031,-0.30517578,0.0,0.0,0.0,0.0,-39.748535,75.79468,101.61255
2026-02-19 23:05:05.277,1771513505277,1771513505277,-0.9707031,-0.15673828,0.18310547,0.0,0.30517578,-0.061035156,0.0,0.0,0.0,-39.64966,75.772705,101.68396
2026-02-19 23:05:05.376,1771513505376,1771513505376,-0.9707031,-0.15771484,0.18310547,0.061035156,-0.12207031,-0.061035156,0.0,0.0,0.0,-39.693604,75.7782,101.61255
2026-02-19 23:05:05.476,1771513505476,1771513505476,-0.96728516,-0.16015625,0.18359375,0.12207031,0.0,-0.18310547,0.0,0.0,0.0,-39.73755,75.78369,101.52466
2026-02-19 23:05:05.576,1771513505576,1771513505576,-0.97509766,-0.15673828,0.17919922,-0.9765625,-1.2817383,0.4272461,0.0,0.0,0.0,-39.68811,75.756226,101.55762
2026-02-19 23:05:05.675,1771513505675,1771513505675,-0.96875,-0.15527344,0.19482422,0.30517578,-0.061035156,0.0,0.0,0.0,0.0,-39.819946,75.789185,101.37085
2026-02-19 23:05:05.775,1771513505775,1771513505775,-0.9692383,-0.15332031,0.18652344,0.061035156,0.48828125,0.0,0.0,0.0,0.0,-39.75952,75.7782,101.39282
2026-02-19 23:05:05.875,1771513505875,1771513505875,-0.9741211,-0.1586914,0.18115234,0.0,0.0,0.061035156,0.0,0.0,0.0,-39.814453,75.79468,101.25549
2026-02-19 23:05:05.974,1771513505974,1771513505974,-0.9707031,-0.15625,0.18261719,0.9765625,2.8076172,-0.61035156,0.0,0.0,0.0,-40.308838,75.89905,100.67871
2026-02-19 23:05:06.074,1771513506074,1771513506074,-0.97216797,-0.15625,0.18164062,0.61035156,1.8310547,-0.30517578,0.0,0.0,0.0,-41.099854,76.06384,99.73938
2026-02-19 23:05:06.174,1771513506174,1771513506174,-0.9736328,-0.15625,0.17773438,1.4648438,2.380371,-0.7324219,0.0,0.0,0.0,-41.638184,76.173706,99.03076
2026-02-19 23:05:06.274,1771513506274,1771513506274,-0.9736328,-0.15820312,0.16992188,1.4648438,2.319336,-0.6713867,0.0,0.0,0.0,-42.143555,76.27258,98.360596
2026-02-19 23:05:06.373,1771513506373,1771513506373,-0.9707031,-0.16064453,0.1694336,0.9765625,1.4038086,-0.24414062,0.0,0.0,0.0,-42.769775,76.38794,97.525635
2026-02-19 23:05:06.473,1771513506473,1771513506473,-0.9790039,-0.16015625,0.16601562,-0.30517578,0.61035156,-0.061035156,0.0,0.0,0.0,-43.24768,76.48132,96.833496
2026-02-19 23:05:06.573,1771513506573,1771513506573,-0.97265625,-0.15673828,0.1743164,1.7700195,2.5634766,-0.36621094,0.0,0.0,0.0,-43.807983,76.59119,96.14136
2026-02-19 23:05:06.672,1771513506672,1771513506672,-0.97216797,-0.1586914,0.1640625,1.2207031,2.2583008,-0.24414062,0.0,0.0,0.0,-44.192505,76.69556,95.581055
2026-02-19 23:05:06.772,1771513506772,1771513506772,-0.9760742,-0.15966797,0.15722656,0.36621094,1.159668,0.0,0.0,0.0,0.0,-44.609985,76.79993,95.009766
2026-02-19 23:05:06.872,1771513506872,1771513506872,-0.97314453,-0.15820312,0.15820312,0.36621094,1.8310547,-0.24414062,0.0,0.0,0.0,-45.05493,76.89331,94.504395
2026-02-19 23:05:06.972,1771513506972,1771513506972,-0.97509766,-0.15820312,0.15527344,-0.5493164,0.6713867,0.0,0.0,0.0,0.0,-45.439453,76.95923,94.10339
2026-02-19 23:05:07.071,1771513507071,1771513507071,-0.97558594,-0.15722656,0.15722656,0.0,-0.5493164,0.0,0.0,0.0,0.0,-45.45044,76.95923,94.020996
2026-02-19 23:05:07.171,1771513507171,1771513507171,-0.9741211,-0.15820312,0.15771484,0.18310547,-0.79345703,0.0,0.0,0.0,0.0,-45.203247,76.90979,94.24072
2026-02-19 23:05:07.271,1771513507271,1771513507271,-0.97509766,-0.15820312,0.16113281,-0.4272461,-0.8544922,0.0,0.0,0.0,0.0,-44.89563,76.83838,94.57031
2026-02-19 23:05:07.370,1771513507370,1771513507370,-0.9770508,-0.15820312,0.16552734,-1.0375977,-2.0141602,0.30517578,0.0,0.0,0.0,-44.46167,76.75049,94.9823
2026-02-19 23:05:07.470,1771513507470,1771513507470,-0.97314453,-0.15673828,0.16699219,0.061035156,-0.91552734,0.12207031,0.0,0.0,0.0,-44.02771,76.66809,95.476685
2026-02-19 23:05:07.570,1771513507570,1771513507570,-0.9741211,-0.15722656,0.16601562,0.0,-0.91552734,0.18310547,0.0,0.0,0.0,-43.54431,76.59668,96.00403
2026-02-19 23:05:07.670,1771513507670,1771513507670,-0.97265625,-0.15625,0.1665039,-0.061035156,-0.6713867,0.12207031,0.0,0.0,0.0,-43.121338,76.519775,96.49292
2026-02-19 23:05:07.769,1771513507769,1771513507769,-0.97314453,-0.15722656,0.16503906,-0.24414062,-1.0986328,0.061035156,0.0,0.0,0.0,-42.736816,76.448364,96.954346
2026-02-19 23:05:07.869,1771513507869,1771513507869,-0.97509766,-0.15673828,0.17041016,-0.8544922,-1.159668,0.18310547,0.0,0.0,0.0,-42.489624,76.38794,97.300415
2026-02-19 23:05:07.969,1771513507969,1771513507969,-0.9736328,-0.1586914,0.17480469,-0.30517578,-0.8544922,0.0,0.0,0.0,0.0,-42.27539,76.33301,97.56409
2026-02-19 23:05:08.068,1771513508068,1771513508068,-0.97265625,-0.15722656,0.17773438,-0.7324219,-0.61035156,0.24414062,0.0,0.0,0.0,-41.989746,76.278076,97.93762
2026-02-19 23:05:08.168,1771513508168,1771513508168,-0.9736328,-0.15771484,0.17480469,-1.2817383,-0.5493164,0.4272461,0.0,0.0,0.0,-41.7041,76.223145,98.31116
2026-02-19 23:05:08.268,1771513508268,1771513508268,-0.97216797,-0.15478516,0.1850586,-0.36621094,0.0,0.24414062,0.0,0.0,0.0,-41.59424,76.206665,98.464966
2026-02-19 23:05:08.368,1771513508368,1771513508368,-0.9746094,-0.15673828,0.16699219,-1.159668,-0.12207031,0.5493164,0.0,0.0,0.0,-41.083374,76.12976,99.11865
2026-02-19 23:05:08.467,1771513508467,1771513508467,-0.97314453,-0.15771484,0.17675781,-1.0375977,-1.4038086,0.5493164,0.0,0.0,0.0,-41.011963,76.14624,99.19556
2026-02-19 23:05:08.567,1771513508567,1771513508567,-0.97021484,-0.15429688,0.18115234,0.24414062,0.0,-0.061035156,0.0,0.0,0.0,-40.907593,76.12976,99.332886
2026-02-19 23:05:08.667,1771513508667,1771513508667,-0.9736328,-0.15673828,0.17333984,0.0,-0.12207031,0.0,0.0,0.0,0.0,-40.775757,76.10779,99.49219
2026-02-19 23:05:08.766,1771513508766,1771513508766,-0.9716797,-0.15527344,0.18359375,-0.18310547,-0.4272461,0.12207031,0.0,0.0,0.0,-40.79773,76.11328,99.45923
2026-02-19 23:05:08.866,1771513508866,1771513508866,-0.9711914,-0.1538086,0.1821289,0.0,-0.18310547,0.0,0.0,0.0,0.0,-40.715332,76.09131,99.53064
2026-02-19 23:05:08.966,1771513508966,1771513508966,-0.9711914,-0.15673828,0.1796875,-0.061035156,0.0,-0.061035156,0.0,0.0,0.0,-40.671387,76.07483,99.55261
2026-02-19 23:05:09.066,1771513509066,1771513509066,-0.97265625,-0.15771484,0.1772461,0.061035156,-0.24414062,0.0,0.0,0.0,0.0,-40.687866,76.07483,99.50867
2026-02-19 23:05:09.165,1771513509165,1771513509165,-0.96728516,-0.15722656,0.17578125,0.0,0.12207031,-0.12207031,0.0,0.0,0.0,-40.72632,76.07483,99.437256
2026-02-19 23:05:09.265,1771513509265,1771513509265,-0.9760742,-0.15771484,0.16992188,-1.0986328,-1.159668,0.5493164,0.0,0.0,0.0,-40.610962,76.04187,99.558105
2026-02-19 23:05:09.365,1771513509365,1771513509365,-0.9707031,-0.15625,0.18652344,-0.12207031,-0.4272461,0.18310547,0.0,0.0,0.0,-40.76477,76.08032,99.33838
2026-02-19 23:05:09.465,1771513509465,1771513509465,-0.97021484,-0.15332031,0.18310547,0.30517578,0.79345703,0.0,0.0,0.0,0.0,-40.698853,76.07483,99.4043
2026-02-19 23:05:09.564,1771513509564,1771513509564,-0.9741211,-0.15771484,0.17333984,0.0,0.12207031,0.0,0.0,0.0,0.0,-40.69336,76.07483,99.36035
2026-02-19 23:05:09.664,1771513509664,1771513509664,-0.9711914,-0.15478516,0.18115234,0.18310547,0.5493164,0.0,0.0,0.0,0.0,-40.91858,76.118774,99.07471
2026-02-19 23:05:09.764,1771513509764,1771513509764,-0.97216797,-0.15478516,0.17871094,0.8544922,1.5869141,-0.4272461,0.0,0.0,0.0,-41.24817,76.190186,98.65173
2026-02-19 23:05:09.863,1771513509863,1771513509863,-0.97558594,-0.15771484,0.17041016,0.91552734,2.0141602,-0.48828125,0.0,0.0,0.0,-41.63269,76.2616,98.151855
2026-02-19 23:05:09.963,1771513509963,1771513509963,-0.9741211,-0.15820312,0.17041016,0.79345703,1.5258789,-0.5493164,0.0,0.0,0.0,-42.330322,76.37695,97.3114
2026-02-19 23:05:10.064,1771513510064,1771513510064,-0.9716797,-0.15917969,0.16845703,1.0986328,1.4038086,-0.6713867,0.0,0.0,0.0,-42.808228,76.448364,96.690674
2026-02-19 23:05:10.163,1771513510163,1771513510163,-0.9794922,-0.1616211,0.16015625,-0.30517578,1.0375977,0.0,0.0,0.0,0.0,-43.19275,76.50879,96.15784
2026-02-19 23:05:10.263,1771513510263,1771513510263,-0.97558594,-0.15771484,0.17089844,0.9765625,1.6479492,-0.30517578,0.0,0.0,0.0,-43.76953,76.61316,95.43274
2026-02-19 23:05:10.362,1771513510362,1771513510362,-0.97216797,-0.15771484,0.1616211,0.91552734,1.5258789,-0.36621094,0.0,0.0,0.0,-44.07715,76.66809,95.009766
2026-02-19 23:05:10.462,1771513510462,1771513510462,-0.9790039,-0.16210938,0.15673828,0.4272461,0.9765625,-0.18310547,0.0,0.0,0.0,-44.467163,76.744995,94.47693
2026-02-19 23:05:10.561,1771513510561,1771513510561,-0.9741211,-0.15966797,0.16015625,0.30517578,1.4648438,-0.18310547,0.0,0.0,0.0,-44.917603,76.81091,93.933105
2026-02-19 23:05:10.661,1771513510661,1771513510661,-0.9736328,-0.15722656,0.1586914,0.12207031,0.9765625,-0.061035156,0.0,0.0,0.0,-45.291138,76.882324,93.51013
2026-02-19 23:05:10.761,1771513510761,1771513510761,-0.97558594,-0.1586914,0.15820312,0.0,0.5493164,-0.061035156,0.0,0.0,0.0,-45.53833,76.93176,93.19702
2026-02-19 23:05:10.861,1771513510861,1771513510861,-0.9746094,-0.1586914,0.15625,0.24414062,0.36621094,-0.12207031,0.0,0.0,0.0,-45.631714,76.953735,93.048706
2026-02-19 23:05:10.960,1771513510960,1771513510960,-0.9716797,-0.16015625,0.1616211,0.9765625,0.24414062,-0.24414062,0.0,0.0,0.0,-45.653687,76.953735,92.98279
2026-02-19 23:05:11.060,1771513511060,1771513511060,-0.9790039,-0.1616211,0.1459961,-0.18310547,0.0,0.0,0.0,0.0,0.0,-45.53833,76.92078,93.07617
2026-02-19 23:05:11.160,1771513511160,1771513511160,-0.97802734,-0.16210938,0.15576172,-0.24414062,-1.0375977,0.0,0.0,0.0,0.0,-45.499878,76.92078,93.07068
2026-02-19 23:05:11.260,1771513511260,1771513511260,-0.9711914,-0.15966797,0.15820312,0.18310547,-0.4272461,0.0,0.0,0.0,0.0,-45.27466,76.865845,93.2959
2026-02-19 23:05:11.359,1771513511359,1771513511359,-0.9770508,-0.16064453,0.15820312,-0.24414062,-1.5258789,0.0,0.0,0.0,0.0,-44.994507,76.80542,93.57605
2026-02-19 23:05:11.459,1771513511459,1771513511459,-0.97216797,-0.15625,0.16259766,-0.12207031,-1.5258789,0.0,0.0,0.0,0.0,-44.56604,76.70105,94.04297
2026-02-19 23:05:11.559,1771513511559,1771513511559,-0.97509766,-0.15722656,0.16601562,-0.48828125,-1.8310547,0.0,0.0,0.0,0.0,-44.049683,76.5802,94.608765
2026-02-19 23:05:11.658,1771513511658,1771513511658,-0.97509766,-0.15966797,0.16796875,-0.24414062,-1.5258789,0.0,0.0,0.0,0.0,-43.621216,76.48132,95.04822
2026-02-19 23:05:11.758,1771513511758,1771513511758,-0.9736328,-0.1586914,0.16894531,-0.12207031,-1.2207031,0.061035156,0.0,0.0,0.0,-43.187256,76.38794,95.53162
2026-02-19 23:05:11.858,1771513511858,1771513511858,-0.97216797,-0.1586914,0.17285156,0.0,0.0,0.18310547,0.0,0.0,0.0,-43.027954,76.36047,95.74585
2026-02-19 23:05:11.958,1771513511958,1771513511958,-0.97216797,-0.15673828,0.18017578,-0.48828125,-1.3427734,0.18310547,0.0,0.0,0.0,-42.802734,76.32202,95.98755
2026-02-19 23:05:12.057,1771513512057,1771513512057,-0.9716797,-0.15576172,0.17333984,0.18310547,0.8544922,0.0,0.0,0.0,0.0,-42.374268,76.27258,96.54236
2026-02-19 23:05:12.157,1771513512157,1771513512157,-0.9741211,-0.16015625,0.16845703,-0.7324219,-1.159668,0.4272461,0.0,0.0,0.0,-42.088623,76.239624,96.85547
2026-02-19 23:05:12.257,1771513512257,1771513512257,-0.96972656,-0.15625,0.18017578,-0.061035156,-0.061035156,0.061035156,0.0,0.0,0.0,-42.03369,76.24512,96.93237
2026-02-19 23:05:12.356,1771513512356,1771513512356,-0.97314453,-0.15576172,0.17041016,-0.18310547,-0.061035156,0.18310547,0.0,0.0,0.0,-41.671143,76.19568,97.39929
2026-02-19 23:05:12.456,1771513512456,1771513512456,-0.97314453,-0.15722656,0.17578125,-1.159668,-1.5869141,0.5493164,0.0,0.0,0.0,-41.44043,76.16272,97.67944
2026-02-19 23:05:12.556,1771513512556,1771513512556,-0.9716797,-0.15576172,0.17919922,-0.30517578,-0.4272461,0.18310547,0.0,0.0,0.0,-41.242676,76.12976,97.93213
2026-02-19 23:05:12.655,1771513512655,1771513512655,-0.9707031,-0.15673828,0.17773438,-0.30517578,-0.30517578,0.0,0.0,0.0,0.0,-41.11084,76.0968,98.07495
2026-02-19 23:05:12.755,1771513512755,1771513512755,-0.97216797,-0.1586914,0.17773438,-0.061035156,-0.48828125,0.0,0.0,0.0,0.0,-41.04492,76.08032,98.12988
2026-02-19 23:05:12.855,1771513512855,1771513512855,-0.97021484,-0.15673828,0.17919922,0.0,0.061035156,-0.12207031,0.0,0.0,0.0,-41.04492,76.06384,98.1134
2026-02-19 23:05:12.955,1771513512955,1771513512955,-0.9746094,-0.16015625,0.1694336,-1.2817383,-1.159668,0.61035156,0.0,0.0,0.0,-40.880127,76.0199,98.26721
2026-02-19 23:05:13.054,1771513513054,1771513513054,-0.9716797,-0.1586914,0.18310547,-0.12207031,-0.5493164,0.18310547,0.0,0.0,0.0,-40.951538,76.04736,98.12439
2026-02-19 23:05:13.154,1771513513154,1771513513154,-0.96875,-0.15527344,0.18310547,0.4272461,0.6713867,0.0,0.0,0.0,0.0,-40.880127,76.03638,98.1958
2026-02-19 23:05:13.254,1771513513254,1771513513254,-0.97314453,-0.15820312,0.17480469,-0.24414062,-0.18310547,0.12207031,0.0,0.0,0.0,-40.78125,76.0199,98.272705
2026-02-19 23:05:13.354,1771513513354,1771513513354,-0.97021484,-0.15478516,0.18457031,-0.36621094,-0.36621094,0.18310547,0.0,0.0,0.0,-40.83618,76.03088,98.184814
2026-02-19 23:05:13.453,1771513513453,1771513513453,-0.96972656,-0.15527344,0.18164062,0.24414062,0.12207031,-0.12207031,0.0,0.0,0.0,-40.786743,76.0199,98.1958
2026-02-19 23:05:13.553,1771513513553,1771513513553,-0.97216797,-0.15771484,0.17871094,0.0,-0.061035156,0.0,0.0,0.0,0.0,-40.759277,76.014404,98.17383
2026-02-19 23:05:13.653,1771513513653,1771513513653,-0.9711914,-0.15820312,0.17871094,0.18310547,0.0,0.0,0.0,0.0,0.0,-40.753784,76.0199,98.135376
2026-02-19 23:05:13.752,1771513513752,1771513513752,-0.9711914,-0.16064453,0.17919922,0.30517578,-0.061035156,-0.12207031,0.0,0.0,0.0,-40.753784,76.014404,98.08594
2026-02-19 23:05:13.852,1771513513852,1771513513852,-0.9760742,-0.1586914,0.17871094,-0.5493164,-1.2817383,0.24414062,0.0,0.0,0.0,-40.715332,75.997925,98.07495
2026-02-19 23:05:13.952,1771513513952,1771513513952,-0.96777344,-0.15576172,0.19238281,1.2817383,0.8544922,-0.30517578,0.0,0.0,0.0,-40.874634,76.03088,97.855225
2026-02-19 23:05:14.052,1771513514052,1771513514052,-0.9716797,-0.15478516,0.17773438,0.12207031,1.0986328,-0.12207031,0.0,0.0,0.0,-40.858154,76.03088,97.82776
2026-02-19 23:05:14.151,1771513514151,1771513514151,-0.9765625,-0.16015625,0.17236328,-0.18310547,0.12207031,0.18310547,0.0,0.0,0.0,-40.98999,76.069336,97.60803
2026-02-19 23:05:14.251,1771513514251,1771513514251,-0.97265625,-0.15576172,0.18017578,0.5493164,0.8544922,-0.18310547,0.0,0.0,0.0,-41.35254,76.15723,97.16858
2026-02-19 23:05:14.351,1771513514351,1771513514351,-0.9736328,-0.15625,0.17529297,0.6713867,1.5869141,-0.48828125,0.0,0.0,0.0,-41.627197,76.20117,96.81152
2026-02-19 23:05:14.450,1771513514450,1771513514450,-0.97314453,-0.15820312,0.171875,0.5493164,1.7089844,-0.4272461,0.0,0.0,0.0,-42.105103,76.28906,96.20178
2026-02-19 23:05:14.550,1771513514550,1771513514550,-0.9736328,-0.15673828,0.17333984,0.48828125,1.7089844,-0.4272461,0.0,0.0,0.0,-42.648926,76.38245,95.52612
2026-02-19 23:05:14.650,1771513514650,1771513514650,-0.9741211,-0.15820312,0.16796875,0.061035156,1.3427734,-0.30517578,0.0,0.0,0.0,-43.10486,76.448364,94.94934
2026-02-19 23:05:14.750,1771513514750,1771513514750,-0.97802734,-0.16015625,0.171875,0.061035156,1.159668,-0.30517578,0.0,0.0,0.0,-43.555298,76.519775,94.37256
2026-02-19 23:05:14.850,1771513514850,1771513514850,-0.9692383,-0.15673828,0.16845703,0.6713867,1.6479492,-0.4272461,0.0,0.0,0.0,-44.038696,76.59668,93.83423
2026-02-19 23:05:14.949,1771513514949,1771513514949,-0.97558594,-0.15771484,0.16259766,0.12207031,0.91552734,-0.12207031,0.0,0.0,0.0,-44.274902,76.64612,93.52661
2026-02-19 23:05:15.049,1771513515049,1771513515049,-0.97265625,-0.16015625,0.16748047,0.4272461,0.4272461,0.0,0.0,0.0,0.0,-44.467163,76.69006,93.25745
2026-02-19 23:05:15.148,1771513515148,1771513515148,-0.9707031,-0.1586914,0.1640625,0.18310547,0.0,0.0,0.0,0.0,0.0,-44.42871,76.68457,93.25745
2026-02-19 23:05:15.248,1771513515248,1771513515248,-0.97509766,-0.15722656,0.16308594,-0.36621094,-1.0375977,0.18310547,0.0,0.0,0.0,-44.18701,76.640625,93.51013
2026-02-19 23:05:15.348,1771513515348,1771513515348,-0.9741211,-0.1586914,0.16308594,-0.18310547,-1.4038086,0.0,0.0,0.0,0.0,-43.775024,76.56372,93.933105
2026-02-19 23:05:15.448,1771513515448,1771513515448,-0.97265625,-0.15820312,0.16748047,-0.61035156,-1.0375977,0.0,0.0,0.0,0.0,-43.41797,76.47583,94.30664
2026-02-19 23:05:15.547,1771513515547,1771513515547,-0.97509766,-0.16064453,0.16503906,-0.79345703,-0.8544922,0.0,0.0,0.0,0.0,-43.137817,76.398926,94.63623
2026-02-19 23:05:15.647,1771513515647,1771513515647,-0.96972656,-0.16015625,0.17236328,-0.6713867,-0.8544922,0.0,0.0,0.0,0.0,-42.945557,76.3385,94.88342
2026-02-19 23:05:15.747,1771513515747,1771513515747,-0.97802734,-0.16113281,0.16113281,-2.0751953,-2.380371,0.8544922,0.0,0.0,0.0,-42.41272,76.239624,95.53162
2026-02-19 23:05:15.846,1771513515846,1771513515846,-0.9716797,-0.15771484,0.17871094,0.061035156,-0.79345703,0.30517578,0.0,0.0,0.0,-42.280884,76.23413,95.7074
2026-02-19 23:05:15.946,1771513515946,1771513515946,-0.97265625,-0.15771484,0.16992188,-0.5493164,-0.48828125,0.4272461,0.0,0.0,0.0,-41.84143,76.1792,96.23474
2026-02-19 23:05:16.046,1771513516046,1771513516046,-0.9760742,-0.16015625,0.171875,-1.2817383,-1.4648438,0.61035156,0.0,0.0,0.0,-41.671143,76.16821,96.45996
2026-02-19 23:05:16.146,1771513516146,1771513516146,-0.9711914,-0.15527344,0.18115234,-0.061035156,-0.061035156,0.0,0.0,0.0,0.0,-41.59424,76.15173,96.55884
2026-02-19 23:05:16.245,1771513516245,1771513516245,-0.9707031,-0.15576172,0.17773438,-0.18310547,-0.4272461,0.061035156,0.0,0.0,0.0,-41.396484,76.118774,96.78955
2026-02-19 23:05:16.345,1771513516345,1771513516345,-0.97216797,-0.15820312,0.17675781,-0.061035156,-0.36621094,0.0,0.0,0.0,0.0,-41.259155,76.08032,96.90491
2026-02-19 23:05:16.445,1771513516445,1771513516445,-0.9707031,-0.15722656,0.18115234,0.0,-0.12207031,0.0,0.0,0.0,0.0,-41.237183,76.069336,96.91589
2026-02-19 23:05:16.545,1771513516545,1771513516545,-0.96972656,-0.15478516,0.18457031,0.36621094,0.48828125,-0.12207031,0.0,0.0,0.0,-41.237183,76.06384,96.9104
2026-02-19 23:05:16.644,1771513516644,1771513516644,-0.96972656,-0.15478516,0.18847656,0.4272461,0.5493164,-0.36621094,0.0,0.0,0.0,-41.281128,76.06384,96.81152
2026-02-19 23:05:16.744,1771513516744,1771513516744,-0.96972656,-0.1538086,0.1796875,0.5493164,0.61035156,-0.18310547,0.0,0.0,0.0,-41.05591,76.02539,97.04224
2026-02-19 23:05:16.844,1771513516844,1771513516844,-0.97314453,-0.15820312,0.17773438,-0.30517578,-0.7324219,0.18310547,0.0,0.0,0.0,-40.962524,76.014404,97.075195
2026-02-19 23:05:16.943,1771513516943,1771513516943,-0.9711914,-0.15722656,0.18457031,0.4272461,0.12207031,0.0,0.0,0.0,0.0,-40.962524,76.0199,97.04224
2026-02-19 23:05:17.044,1771513517044,1771513517044,-0.9707031,-0.15527344,0.17822266,0.5493164,0.79345703,-0.24414062,0.0,0.0,0.0,-40.93506,76.014404,97.0697
2026-02-19 23:05:17.143,1771513517143,1771513517143,-0.97216797,-0.15576172,0.1796875,0.0,-0.12207031,0.0,0.0,0.0,0.0,-40.946045,76.0199,97.03674
2026-02-19 23:05:17.242,1771513517242,1771513517242,-0.9716797,-0.15625,0.18164062,0.12207031,-0.061035156,0.0,0.0,0.0,0.0,-40.913086,76.00891,97.02576
2026-02-19 23:05:17.342,1771513517342,1771513517342,-0.9716797,-0.15722656,0.18017578,0.061035156,0.0,0.0,0.0,0.0,0.0,-40.896606,76.00891,97.01477
2026-02-19 23:05:17.442,1771513517442,1771513517442,-0.97216797,-0.15722656,0.18164062,0.4272461,0.18310547,0.0,0.0,0.0,0.0,-40.929565,76.0199,96.93787
2026-02-19 23:05:17.542,1771513517542,1771513517542,-0.9746094,-0.15722656,0.1821289,0.5493164,-0.12207031,0.0,0.0,0.0,0.0,-40.93506,76.03088,96.882935
2026-02-19 23:05:17.641,1771513517641,1771513517641,-0.97558594,-0.15722656,0.18017578,0.61035156,0.36621094,-0.24414062,0.0,0.0,0.0,-41.000977,76.04187,96.745605
2026-02-19 23:05:17.741,1771513517741,1771513517741,-0.9682617,-0.15722656,0.1821289,2.0141602,2.746582,-0.7324219,0.0,0.0,0.0,-41.418457,76.135254,96.22925
2026-02-19 23:05:17.841,1771513517841,1771513517841,-0.9741211,-0.15625,0.17138672,-0.18310547,1.4648438,-0.18310547,0.0,0.0,0.0,-41.868896,76.223145,95.652466
2026-02-19 23:05:17.941,1771513517941,1771513517941,-0.97753906,-0.16064453,0.17041016,0.8544922,1.5258789,-0.36621094,0.0,0.0,0.0,-42.41272,76.327515,94.94934
2026-02-19 23:05:18.041,1771513518041,1771513518041,-0.96972656,-0.15771484,0.17382812,1.2817383,2.2583008,-0.6713867,0.0,0.0,0.0,-43.00598,76.431885,94.20776
2026-02-19 23:05:18.140,1771513518140,1771513518140,-0.97509766,-0.15722656,0.16455078,0.5493164,1.159668,-0.24414062,0.0,0.0,0.0,-43.412476,76.503296,93.67493
2026-02-19 23:05:18.240,1771513518240,1771513518240,-0.9746094,-0.16113281,0.16503906,0.7324219,1.2817383,-0.30517578,0.0,0.0,0.0,-43.813477,76.58569,93.10364
2026-02-19 23:05:18.339,1771513518339,1771513518339,-0.97265625,-0.15917969,0.16210938,0.24414062,1.6479492,-0.30517578,0.0,0.0,0.0,-44.230957,76.64612,92.58728
2026-02-19 23:05:18.439,1771513518439,1771513518439,-0.9746094,-0.15966797,0.15966797,0.12207031,0.91552734,-0.36621094,0.0,0.0,0.0,-44.664917,76.70654,92.05444
2026-02-19 23:05:18.539,1771513518539,1771513518539,-0.9736328,-0.15820312,0.16357422,0.48828125,0.8544922,-0.24414062,0.0,0.0,0.0,-44.934082,76.7395,91.708374
2026-02-19 23:05:18.639,1771513518639,1771513518639,-0.9741211,-0.15820312,0.15625,0.4272461,1.2817383,-0.18310547,0.0,0.0,0.0,-45.1593,76.777954,91.45569
2026-02-19 23:05:18.738,1771513518738,1771513518738,-0.9770508,-0.16113281,0.1586914,-0.18310547,0.061035156,0.061035156,0.0,0.0,0.0,-45.34607,76.8219,91.19751
2026-02-19 23:05:18.838,1771513518838,1771513518838,-0.97509766,-0.1616211,0.15771484,0.061035156,0.18310547,0.061035156,0.0,0.0,0.0,-45.368042,76.82739,91.13159
2026-02-19 23:05:18.938,1771513518938,1771513518938,-0.9746094,-0.16210938,0.15283203,0.061035156,0.0,0.0,0.0,0.0,0.0,-45.36255,76.82739,91.104126
2026-02-19 23:05:19.037,1771513519037,1771513519037,-0.9765625,-0.15966797,0.1586914,-0.48828125,-0.8544922,0.0,0.0,0.0,0.0,-45.26367,76.80542,91.224976
2026-02-19 23:05:19.138,1771513519138,1771513519138,-0.9736328,-0.15722656,0.16015625,-0.12207031,-1.3427734,0.0,0.0,0.0,0.0,-44.961548,76.73401,91.54358
2026-02-19 23:05:19.237,1771513519237,1771513519237,-0.97509766,-0.16015625,0.16210938,-0.36621094,-1.4648438,0.0,0.0,0.0,0.0,-44.544067,76.64612,91.972046
2026-02-19 23:05:19.337,1771513519337,1771513519337,-0.9736328,-0.15966797,0.16503906,0.0,-1.2817383,0.0,0.0,0.0,0.0,-44.159546,76.54724,92.406006
2026-02-19 23:05:19.436,1771513519436,1771513519436,-0.9711914,-0.1616211,0.16894531,0.061035156,-0.9765625,0.0,0.0,0.0,0.0,-43.840942,76.46484,92.77954
2026-02-19 23:05:19.536,1771513519536,1771513519536,-0.97265625,-0.16113281,0.17480469,-0.4272461,-1.7089844,0.0,0.0,0.0,0.0,-43.588257,76.398926,93.048706
2026-02-19 23:05:19.636,1771513519636,1771513519636,-0.9707031,-0.15673828,0.17236328,0.30517578,0.36621094,-0.061035156,0.0,0.0,0.0,-43.115845,76.30554,93.636475
2026-02-19 23:05:19.735,1771513519735,1771513519735,-0.97509766,-0.16259766,0.16796875,-0.79345703,-1.4038086,0.48828125,0.0,0.0,0.0,-42.824707,76.278076,93.9386
2026-02-19 23:05:19.835,1771513519835,1771513519835,-0.96972656,-0.15771484,0.17578125,0.18310547,-0.12207031,0.061035156,0.0,0.0,0.0,-42.615967,76.25061,94.20776
2026-02-19 23:05:19.935,1771513519935,1771513519935,-0.9741211,-0.16015625,0.16455078,-0.61035156,-0.4272461,0.24414062,0.0,0.0,0.0,-42.319336,76.21216,94.575806
2026-02-19 23:05:20.035,1771513520035,1771513520035,-0.9716797,-0.15917969,0.1772461,-0.7324219,-0.9765625,0.36621094,0.0,0.0,0.0,-42.209473,76.19568,94.729614
2026-02-19 23:05:20.134,1771513520134,1771513520134,-0.9716797,-0.15771484,0.17480469,0.0,-0.24414062,0.0,0.0,0.0,0.0,-41.97876,76.15723,95.009766
2026-02-19 23:05:20.234,1771513520234,1771513520234,-0.97265625,-0.15771484,0.17675781,-0.18310547,-0.4272461,0.0,0.0,0.0,0.0,-41.85791,76.118774,95.1416
2026-02-19 23:05:20.334,1771513520334,1771513520334,-0.9716797,-0.1586914,0.18017578,0.18310547,0.48828125,-0.061035156,0.0,0.0,0.0,-41.791992,76.102295,95.20752
2026-02-19 23:05:20.433,1771513520433,1771513520433,-0.9711914,-0.15771484,0.1796875,-0.18310547,0.48828125,0.061035156,0.0,0.0,0.0,-41.748047,76.09131,95.24597
2026-02-19 23:05:20.533,1771513520533,1771513520533,-0.96972656,-0.15673828,0.1850586,0.18310547,0.5493164,-0.24414062,0.0,0.0,0.0,-41.775513,76.085815,95.19104
2026-02-19 23:05:20.633,1771513520633,1771513520633,-0.9707031,-0.15820312,0.17382812,0.12207031,0.5493164,0.0,0.0,0.0,0.0,-41.5448,76.05835,95.427246
2026-02-19 23:05:20.733,1771513520733,1771513520733,-0.97314453,-0.16064453,0.17480469,-0.48828125,-0.91552734,0.18310547,0.0,0.0,0.0,-41.533813,76.05835,95.3833
2026-02-19 23:05:20.832,1771513520832,1771513520832,-0.97021484,-0.15771484,0.1821289,0.48828125,0.18310547,-0.061035156,0.0,0.0,0.0,-41.550293,76.069336,95.33386
2026-02-19 23:05:20.932,1771513520932,1771513520932,-0.9716797,-0.15771484,0.17578125,0.4272461,0.5493164,-0.18310547,0.0,0.0,0.0,-41.52832,76.06384,95.34485
2026-02-19 23:05:21.032,1771513521032,1771513521032,-0.97314453,-0.15771484,0.17919922,0.0,-0.30517578,0.061035156,0.0,0.0,0.0,-41.539307,76.05835,95.3009
2026-02-19 23:05:21.132,1771513521132,1771513521132,-0.96972656,-0.15722656,0.18017578,0.18310547,0.0,0.0,0.0,0.0,0.0,-41.49536,76.05286,95.3064
2026-02-19 23:05:21.231,1771513521231,1771513521231,-0.9711914,-0.15820312,0.17822266,0.0,0.061035156,0.0,0.0,0.0,0.0,-41.47339,76.05286,95.28992
2026-02-19 23:05:21.331,1771513521331,1771513521331,-0.9707031,-0.15771484,0.1821289,0.061035156,0.24414062,0.0,0.0,0.0,0.0,-41.484375,76.05286,95.251465
2026-02-19 23:05:21.431,1771513521431,1771513521431,-0.9692383,-0.15771484,0.18359375,-0.24414062,0.6713867,0.0,0.0,0.0,0.0,-41.48987,76.05286,95.224
2026-02-19 23:05:21.531,1771513521531,1771513521531,-0.97216797,-0.15576172,0.18652344,0.0,0.48828125,0.0,0.0,0.0,0.0,-41.500854,76.05835,95.18555
2026-02-19 23:05:21.630,1771513521630,1771513521630,-0.9707031,-0.15673828,0.17382812,0.48828125,1.0375977,-0.18310547,0.0,0.0,0.0,-41.380005,76.03088,95.3064
2026-02-19 23:05:21.730,1771513521730,1771513521730,-0.9741211,-0.16113281,0.17480469,-0.12207031,-0.36621094,0.061035156,0.0,0.0,0.0,-41.462402,76.04736,95.1416
2026-02-19 23:05:21.830,1771513521830,1771513521830,-0.96972656,-0.15625,0.17822266,1.3427734,1.7089844,-0.48828125,0.0,0.0,0.0,-41.764526,76.11328,94.75159
2026-02-19 23:05:21.929,1771513521929,1771513521929,-0.9746094,-0.15917969,0.16552734,0.48828125,2.319336,-0.4272461,0.0,0.0,0.0,-42.198486,76.21216,94.2572
2026-02-19 23:05:22.029,1771513522029,1771513522029,-0.9765625,-0.15771484,0.17578125,0.12207031,1.3427734,-0.18310547,0.0,0.0,0.0,-42.857666,76.33301,93.499146
2026-02-19 23:05:22.129,1771513522129,1771513522129,-0.9736328,-0.15722656,0.16992188,0.30517578,1.8920898,0.0,0.0,0.0,0.0,-43.2312,76.415405,93.04321
2026-02-19 23:05:22.228,1771513522228,1771513522228,-0.97802734,-0.16552734,0.16552734,-0.5493164,1.4648438,0.0,0.0,0.0,0.0,-43.621216,76.519775,92.543335
2026-02-19 23:05:22.328,1771513522328,1771513522328,-0.97265625,-0.15966797,0.1640625,1.953125,3.2958984,-0.61035156,0.0,0.0,0.0,-44.296875,76.64612,91.7688
2026-02-19 23:05:22.428,1771513522428,1771513522428,-0.9736328,-0.15820312,0.15820312,0.18310547,1.953125,0.18310547,0.0,0.0,0.0,-44.939575,76.78894,90.928345
2026-02-19 23:05:22.528,1771513522528,1771513522528,-0.9794922,-0.16064453,0.1586914,0.18310547,1.6479492,-0.5493164,0.0,0.0,0.0,-45.565796,76.9043,90.131836
2026-02-19 23:05:22.627,1771513522627,1771513522627,-0.97265625,-0.15332031,0.16357422,0.18310547,1.3427734,-0.61035156,0.0,0.0,0.0,-46.192017,76.97571,89.49463
2026-02-19 23:05:22.727,1771513522727,1771513522727,-0.97314453,-0.15576172,0.13964844,1.2207031,2.1362305,0.7324219,0.0,0.0,0.0,-46.18103,76.9812,89.329834
2026-02-19 23:05:22.827,1771513522827,1771513522827,-0.9663086,-0.1665039,0.13867188,0.4272461,-0.061035156,-0.6713867,0.0,0.0,0.0,-46.054688,77.15698,89.48364
2026-02-19 23:05:22.926,1771513522926,1771513522926,-0.97802734,-0.16455078,0.16699219,-2.1362305,-0.4272461,-1.5258789,0.0,0.0,0.0,-46.691895,77.178955,88.791504
2026-02-19 23:05:23.026,1771513523026,1771513523026,-0.97998047,-0.16113281,0.14990234,-1.159668,-1.7700195,-2.1972656,0.0,0.0,0.0,-46.708374,76.92627,88.90137
2026-02-19 23:05:23.126,1771513523126,1771513523126,-0.9663086,-0.16308594,0.14892578,-1.4038086,-2.746582,-1.0375977,0.0,0.0,0.0,-46.84021,76.6626,88.78052
2026-02-19 23:05:23.226,1771513523226,1771513523226,-0.9663086,-0.1616211,0.14941406,1.7089844,-1.0986328,-2.0751953,0.0,0.0,0.0,-46.61499,76.38245,89.1156
2026-02-19 23:05:23.325,1771513523325,1771513523325,-0.9667969,-0.1772461,0.15429688,2.0141602,-1.5869141,-1.2207031,0.0,0.0,0.0,-46.56006,76.206665,88.983765
2026-02-19 23:05:23.425,1771513523425,1771513523425,-0.9692383,-0.18359375,0.17089844,-0.36621094,-2.746582,0.6713867,0.0,0.0,0.0,-45.76355,76.05286,89.71985
2026-02-19 23:05:23.525,1771513523525,1771513523525,-0.9765625,-0.16503906,0.16699219,-2.5024414,-5.6152344,0.61035156,0.0,0.0,0.0,-44.763794,75.82764,91.06018
2026-02-19 23:05:23.625,1771513523625,1771513523625,-0.9765625,-0.17382812,0.17871094,5.859375,0.79345703,-2.380371,0.0,0.0,0.0,-44.07715,75.60242,91.658936
2026-02-19 23:05:23.724,1771513523724,1771513523724,-0.9765625,-0.17236328,0.17333984,2.2583008,-1.0986328,0.30517578,0.0,0.0,0.0,-43.50586,75.47058,91.917114
2026-02-19 23:05:23.824,1771513523824,1771513523824,-0.96435547,-0.18603516,0.19140625,-1.159668,-0.9765625,-0.4272461,0.0,0.0,0.0,-43.53882,75.48157,91.604004
2026-02-19 23:05:23.924,1771513523924,1771513523924,-0.9741211,-0.18017578,0.1640625,4.0283203,0.061035156,-2.1362305,0.0,0.0,0.0,-43.187256,75.2948,92.06543
2026-02-19 23:05:24.024,1771513524024,1771513524024,-0.96777344,-0.16748047,0.20507812,-0.7324219,0.0,1.8310547,0.0,0.0,0.0,-43.588257,75.34424,91.38977
2026-02-19 23:05:24.123,1771513524123,1771513524123,-0.96972656,-0.16748047,0.17871094,1.3427734,-1.4038086,0.9765625,0.0,0.0,0.0,-42.53357,75.305786,92.438965
2026-02-19 23:05:24.223,1771513524223,1771513524223,-0.97265625,-0.18408203,0.18652344,0.79345703,0.36621094,-0.061035156,0.0,0.0,0.0,-42.25891,75.32776,92.56531
2026-02-19 23:05:24.322,1771513524322,1771513524322,-0.96484375,-0.16064453,0.1796875,-0.5493164,-0.79345703,-0.12207031,0.0,0.0,0.0,-42.25891,75.27832,92.70813
2026-02-19 23:05:24.422,1771513524422,1771513524422,-0.9711914,-0.16796875,0.20166016,1.0986328,0.0,0.48828125,0.0,0.0,0.0,-42.407227,75.32776,92.31262
2026-02-19 23:05:24.522,1771513524522,1771513524522,-0.9692383,-0.16699219,0.18896484,0.12207031,0.0,-0.18310547,0.0,0.0,0.0,-42.06665,75.26184,92.68616
2026-02-19 23:05:24.621,1771513524621,1771513524621,-0.96972656,-0.16992188,0.1821289,0.0,-0.6713867,0.0,0.0,0.0,0.0,-41.901855,75.20691,92.79602
2026-02-19 23:05:24.721,1771513524721,1771513524721,-0.96435547,-0.16992188,0.19824219,-0.7324219,0.24414062,0.0,0.0,0.0,0.0,-42.143555,75.26184,92.53235
2026-02-19 23:05:24.821,1771513524821,1771513524821,-0.9682617,-0.16748047,0.16894531,1.5869141,0.4272461,-0.12207031,0.0,0.0,0.0,-41.91284,75.18494,92.8125
2026-02-19 23:05:24.921,1771513524921,1771513524921,-0.9658203,-0.16601562,0.19628906,-0.061035156,-0.4272461,1.2207031,0.0,0.0,0.0,-41.97876,75.338745,92.60376
2026-02-19 23:05:25.020,1771513525020,1771513525020,-0.97509766,-0.17626953,0.18798828,0.4272461,1.3427734,0.0,0.0,0.0,0.0,-41.731567,75.33325,92.82898
2026-02-19 23:05:25.120,1771513525120,1771513525120,-0.97021484,-0.15917969,0.17871094,0.79345703,-0.12207031,0.48828125,0.0,0.0,0.0,-41.687622,75.34973,92.91687
2026-02-19 23:05:25.220,1771513525220,1771513525220,-0.9667969,-0.18017578,0.20263672,-0.79345703,2.319336,2.5634766,0.0,0.0,0.0,-41.638184,75.60791,92.87842
2026-02-19 23:05:25.320,1771513525320,1771513525320,-0.9716797,-0.15722656,0.18261719,-1.4038086,0.0,1.2207031,0.0,0.0,0.0,-41.358032,75.668335,93.36182
2026-02-19 23:05:25.420,1771513525420,1771513525420,-0.96972656,-0.16259766,0.18017578,0.7324219,2.0751953,-0.24414062,0.0,0.0,0.0,-41.35254,75.76721,93.378296
2026-02-19 23:05:25.519,1771513525519,1771513525519,-0.97558594,-0.16308594,0.18701172,-1.7700195,0.0,1.2207031,0.0,0.0,0.0,-41.555786,75.90454,93.22998
2026-02-19 23:05:25.619,1771513525619,1771513525619,-0.97314453,-0.17675781,0.18457031,3.4179688,4.0283203,-0.4272461,0.0,0.0,0.0,-41.275635,75.964966,93.59802
2026-02-19 23:05:25.719,1771513525719,1771513525719,-0.9711914,-0.1538086,0.17285156,0.6713867,-1.2817383,2.0751953,0.0,0.0,0.0,-40.72632,75.99243,94.1803
2026-02-19 23:05:25.818,1771513525818,1771513525818,-0.98583984,-0.17236328,0.1928711,-1.7700195,1.8920898,0.6713867,0.0,0.0,0.0,-40.545044,76.14075,94.39453
2026-02-19 23:05:25.918,1771513525918,1771513525918,-0.9765625,-0.1459961,0.16992188,3.7231445,-0.30517578,-1.2817383,0.0,0.0,0.0,-40.270386,76.06384,94.76807
2026-02-19 23:05:26.018,1771513526018,1771513526018,-0.98535156,-0.15234375,0.19189453,0.061035156,2.6855469,-1.2207031,0.0,0.0,0.0,-41.396484,76.20117,93.26294
2026-02-19 23:05:26.117,1771513526117,1771513526117,-0.9604492,-0.140625,0.1694336,5.7373047,3.2348633,-2.9907227,0.0,0.0,0.0,-42.313843,76.23413,91.95557
2026-02-19 23:05:26.217,1771513526217,1771513526217,-0.9741211,-0.1821289,0.17626953,-0.48828125,2.380371,-3.112793,0.0,0.0,0.0,-43.654175,76.32202,90.00549
2026-02-19 23:05:26.317,1771513526317,1771513526317,-0.9658203,-0.14501953,0.15185547,-1.0986328,-0.6713867,-3.0517578,0.0,0.0,0.0,-44.813232,76.04736,89.159546
2026-02-19 23:05:26.416,1771513526416,1771513526416,-0.97265625,-0.18066406,0.16113281,1.7089844,1.3427734,-4.9438477,0.0,0.0,0.0,-46.1261,75.84961,87.47864
2026-02-19 23:05:26.516,1771513526516,1771513526516,-0.9633789,-0.17822266,0.18017578,-2.319336,-0.24414062,-2.0141602,0.0,0.0,0.0,-47.21924,75.72876,86.292114
2026-02-19 23:05:26.616,1771513526616,1771513526616,-0.97021484,-0.18896484,0.1586914,3.0517578,2.8076172,-5.065918,0.0,0.0,0.0,-47.631226,75.39917,86.033936
2026-02-19 23:05:26.716,1771513526716,1771513526716,-0.9604492,-0.20458984,0.17773438,-3.3569336,-0.8544922,-0.9765625,0.0,0.0,0.0,-48.916626,75.250854,84.50134
2026-02-19 23:05:26.815,1771513526815,1771513526815,-0.9638672,-0.19628906,0.1616211,-1.0375977,-1.4648438,-2.9907227,0.0,0.0,0.0,-48.90564,74.96521,84.70459
2026-02-19 23:05:26.915,1771513526915,1771513526915,-0.9609375,-0.18408203,0.17041016,1.8310547,-0.5493164,-2.1972656,0.0,0.0,0.0,-49.421997,74.696045,84.072876
2026-02-19 23:05:27.015,1771513527015,1771513527015,-0.95751953,-0.20019531,0.18115234,-0.4272461,-1.2817383,0.91552734,0.0,0.0,0.0,-48.90564,74.54773,84.50134
2026-02-19 23:05:27.115,1771513527115,1771513527115,-0.96777344,-0.1928711,0.16992188,-1.0375977,-1.4648438,3.3569336,0.0,0.0,0.0,-48.02124,74.55322,85.5011
2026-02-19 23:05:27.214,1771513527214,1771513527214,-0.95703125,-0.18652344,0.18457031,-1.953125,0.0,3.7231445,0.0,0.0,0.0,-47.373047,74.767456,86.347046
2026-02-19 23:05:27.314,1771513527314,1771513527314,-0.9741211,-0.19580078,0.1586914,2.2583008,0.6713867,3.6621094,0.0,0.0,0.0,-45.81299,74.9762,88.00598
2026-02-19 23:05:27.414,1771513527414,1771513527414,-0.9609375,-0.19238281,0.18017578,-2.5634766,-1.8310547,6.164551,0.0,0.0,0.0,-44.626465,75.3772,89.296875
2026-02-19 23:05:27.513,1771513527513,1771513527513,-0.97314453,-0.17871094,0.1875,-3.112793,-0.61035156,2.6855469,0.0,0.0,0.0,-43.38501,75.580444,91.03821
2026-02-19 23:05:27.613,1771513527613,1771513527613,-0.9785156,-0.15527344,0.17578125,0.48828125,-2.0751953,2.8076172,0.0,0.0,0.0,-42.357788,75.55847,92.471924
2026-02-19 23:05:27.713,1771513527713,1771513527713,-0.9746094,-0.16699219,0.1743164,1.953125,-0.18310547,1.8310547,0.0,0.0,0.0,-41.28662,75.62988,93.3728
2026-02-19 23:05:27.812,1771513527812,1771513527812,-0.9589844,-0.14746094,0.18798828,2.1362305,-0.5493164,2.1972656,0.0,0.0,0.0,-40.594482,75.756226,93.878174
2026-02-19 23:05:27.913,1771513527913,1771513527913,-0.96875,-0.14892578,0.18017578,4.272461,0.18310547,2.380371,0.0,0.0,0.0,-39.347534,75.8551,94.823
2026-02-19 23:05:28.012,1771513528012,1771513528012,-0.98046875,-0.16210938,0.19433594,0.4272461,-1.5869141,1.5869141,0.0,0.0,0.0,-38.391724,75.98694,95.48767
2026-02-19 23:05:28.112,1771513528112,1771513528112,-0.96435547,-0.14404297,0.19921875,-1.8920898,-0.4272461,0.4272461,0.0,0.0,0.0,-37.98523,75.92651,96.04248
2026-02-19 23:05:28.212,1771513528212,1771513528212,-0.9785156,-0.15283203,0.18652344,-3.540039,-1.159668,-0.36621094,0.0,0.0,0.0,-37.869873,75.83862,96.3501
2026-02-19 23:05:28.311,1771513528311,1771513528311,-0.96728516,-0.15283203,0.20361328,-4.3945312,0.61035156,-0.6713867,0.0,0.0,0.0,-38.737793,75.83313,95.81726
2026-02-19 23:05:28.411,1771513528411,1771513528411,-0.9707031,-0.16455078,0.18701172,-4.1503906,-0.24414062,-1.4648438,0.0,0.0,0.0,-39.265137,75.75073,95.77881
2026-02-19 23:05:28.510,1771513528510,1771513528510,-0.97509766,-0.15332031,0.18066406,-5.126953,-2.4414062,0.12207031,0.0,0.0,0.0,-39.63318,75.59143,95.64697
2026-02-19 23:05:28.610,1771513528610,1771513528610,-0.96191406,-0.13085938,0.1875,-1.5258789,-2.8686523,0.18310547,0.0,0.0,0.0,-39.6167,75.49805,95.90515
2026-02-19 23:05:28.710,1771513528710,1771513528710,-0.97753906,-0.1586914,0.19726562,3.2958984,-0.79345703,0.7324219,0.0,0.0,0.0,-38.809204,75.46509,96.38855
2026-02-19 23:05:28.810,1771513528810,1771513528810,-0.97216797,-0.171875,0.18652344,3.8452148,-0.6713867,0.5493164,0.0,0.0,0.0,-37.71057,75.40466,97.20703
2026-02-19 23:05:28.909,1771513528909,1771513528909,-0.9477539,-0.1352539,0.19921875,2.6855469,-1.2207031,-6.591797,0.0,0.0,0.0,-38.83667,75.14099,95.806274
2026-02-19 23:05:29.009,1771513529009,1771513529009,-0.97509766,-0.17919922,0.20263672,2.2583008,1.4038086,-1.0986328,0.0,0.0,0.0,-38.710327,75.06958,95.73486
2026-02-19 23:05:29.109,1771513529109,1771513529109,-0.97265625,-0.14208984,0.20605469,0.18310547,-1.2817383,0.8544922,0.0,0.0,0.0,-38.693848,75.03662,95.581055
2026-02-19 23:05:29.208,1771513529208,1771513529208,-0.96240234,-0.16113281,0.21289062,1.8920898,1.7089844,0.18310547,0.0,0.0,0.0,-38.649902,75.11902,95.284424
2026-02-19 23:05:29.308,1771513529308,1771513529308,-0.97216797,-0.15722656,0.19140625,-0.6713867,-1.5869141,0.24414062,0.0,0.0,0.0,-38.270874,75.02014,95.61951
2026-02-19 23:05:29.408,1771513529408,1771513529408,-0.97802734,-0.1586914,0.2006836,3.4179688,1.2207031,-0.8544922,0.0,0.0,0.0,-38.496094,75.07507,95.13611
2026-02-19 23:05:29.507,1771513529507,1771513529507,-0.96875,-0.16259766,0.19628906,3.112793,3.0517578,-1.7700195,0.0,0.0,0.0,-39.11133,75.162964,94.22974
2026-02-19 23:05:29.607,1771513529607,1771513529607,-0.96972656,-0.15771484,0.203125,1.2207031,1.7089844,-1.159668,0.0,0.0,0.0,-39.94629,75.23987,93.12561
2026-02-19 23:05:29.707,1771513529707,1771513529707,-0.9707031,-0.16308594,0.18261719,0.36621094,1.5258789,-0.48828125,0.0,0.0,0.0,-40.231934,75.26184,92.60925
2026-02-19 23:05:29.807,1771513529807,1771513529807,-0.9638672,-0.16845703,0.19335938,2.8076172,2.8686523,-1.159668,0.0,0.0,0.0,-40.962524,75.41016,91.571045
2026-02-19 23:05:29.906,1771513529906,1771513529906,-0.96875,-0.16992188,0.18017578,0.30517578,0.79345703,-0.12207031,0.0,0.0,0.0,-41.27014,75.459595,91.10962
2026-02-19 23:05:30.006,1771513530006,1771513530006,-0.96972656,-0.16015625,0.18652344,0.5493164,1.159668,-0.30517578,0.0,0.0,0.0,-41.819458,75.55847,90.510864
2026-02-19 23:05:30.106,1771513530106,1771513530106,-0.9692383,-0.16210938,0.18310547,0.91552734,1.5258789,-0.4272461,0.0,0.0,0.0,-42.072144,75.60791,90.08789
2026-02-19 23:05:30.206,1771513530206,1771513530206,-0.9716797,-0.16796875,0.1743164,0.6713867,1.5869141,-0.24414062,0.0,0.0,0.0,-42.313843,75.66284,89.6759
2026-02-19 23:05:30.306,1771513530306,1771513530306,-0.96875,-0.1665039,0.18701172,-0.18310547,0.8544922,0.061035156,0.0,0.0,0.0,-42.841187,75.7782,89.04968
2026-02-19 23:05:30.405,1771513530405,1771513530405,-0.96728516,-0.1665039,0.17578125,0.7324219,1.7700195,-0.48828125,0.0,0.0,0.0,-43.044434,75.805664,88.78601
2026-02-19 23:05:30.505,1771513530505,1771513530505,-0.96875,-0.16503906,0.17529297,-0.48828125,0.5493164,0.12207031,0.0,0.0,0.0,-43.302612,75.8551,88.50037
2026-02-19 23:05:30.605,1771513530605,1771513530605,-0.9716797,-0.1640625,0.17773438,-0.7324219,-0.7324219,0.18310547,0.0,0.0,0.0,-43.258667,75.8551,88.54431
2026-02-19 23:05:30.704,1771513530704,1771513530704,-0.9663086,-0.16552734,0.18164062,0.061035156,-0.30517578,0.0,0.0,0.0,0.0,-43.066406,75.81665,88.7146
2026-02-19 23:05:30.804,1771513530804,1771513530804,-0.96875,-0.16894531,0.16992188,-0.30517578,0.18310547,0.061035156,0.0,0.0,0.0,-42.857666,75.772705,88.983765
2026-02-19 23:05:30.903,1771513530903,1771513530903,-0.9711914,-0.1665039,0.17919922,-1.4038086,-0.7324219,0.6713867,0.0,0.0,0.0,-42.93457,75.80017,88.97278
2026-02-19 23:05:31.003,1771513531003,1771513531003,-0.97265625,-0.16552734,0.17138672,-1.5869141,-0.12207031,0.61035156,0.0,0.0,0.0,-42.703857,75.7782,89.34631
2026-02-19 23:05:31.103,1771513531103,1771513531103,-0.97265625,-0.16796875,0.17236328,-2.0751953,-1.159668,0.79345703,0.0,0.0,0.0,-42.698364,75.81665,89.47815
2026-02-19 23:05:31.203,1771513531203,1771513531203,-0.97021484,-0.16455078,0.18164062,-1.7089844,-0.36621094,0.6713867,0.0,0.0,0.0,-42.615967,75.83313,89.76929
2026-02-19 23:05:31.302,1771513531302,1771513531302,-0.97021484,-0.16259766,0.17871094,-1.7700195,-1.4038086,0.7324219,0.0,0.0,0.0,-42.29187,75.805664,90.30762
2026-02-19 23:05:31.402,1771513531402,1771513531402,-0.9707031,-0.1616211,0.18310547,-0.24414062,-0.8544922,0.061035156,0.0,0.0,0.0,-41.989746,75.756226,90.74158
2026-02-19 23:05:31.502,1771513531502,1771513531502,-0.96972656,-0.16308594,0.18310547,-0.36621094,-0.48828125,0.18310547,0.0,0.0,0.0,-41.7041,75.69031,91.09314
2026-02-19 23:05:31.602,1771513531602,1771513531602,-0.9692383,-0.1640625,0.18359375,-1.2207031,-0.18310547,0.36621094,0.0,0.0,0.0,-41.517334,75.65735,91.35681
2026-02-19 23:05:31.701,1771513531701,1771513531701,-0.9682617,-0.16357422,0.18896484,-0.061035156,0.24414062,-0.24414062,0.0,0.0,0.0,-41.434937,75.62988,91.48865
2026-02-19 23:05:31.801,1771513531801,1771513531801,-0.97021484,-0.16503906,0.171875,-1.5869141,-1.159668,0.61035156,0.0,0.0,0.0,-41.03943,75.52551,91.94458
2026-02-19 23:05:31.901,1771513531901,1771513531901,-0.96875,-0.16357422,0.19042969,-0.5493164,-1.159668,0.30517578,0.0,0.0,0.0,-41.099854,75.54199,91.884155
2026-02-19 23:05:32.001,1771513532001,1771513532001,-0.9667969,-0.1616211,0.18798828,0.48828125,0.61035156,-0.12207031,0.0,0.0,0.0,-40.913086,75.50354,92.092896
2026-02-19 23:05:32.100,1771513532100,1771513532100,-0.9711914,-0.1665039,0.18017578,-0.18310547,-0.24414062,0.0,0.0,0.0,0.0,-40.819702,75.48706,92.17529
2026-02-19 23:05:32.200,1771513532200,1771513532200,-0.96972656,-0.16210938,0.19238281,0.061035156,0.0,0.0,0.0,0.0,0.0,-40.95703,75.50354,92.021484
2026-02-19 23:05:32.299,1771513532299,1771513532299,-0.9682617,-0.16113281,0.1899414,0.30517578,0.12207031,-0.12207031,0.0,0.0,0.0,-40.907593,75.48706,92.06543
2026-02-19 23:05:32.399,1771513532399,1771513532399,-0.9707031,-0.1640625,0.18554688,0.061035156,0.12207031,-0.061035156,0.0,0.0,0.0,-40.841675,75.46509,92.09839
2026-02-19 23:05:32.499,1771513532499,1771513532499,-0.9667969,-0.16357422,0.18701172,-0.061035156,0.12207031,0.0,0.0,0.0,0.0,-40.841675,75.46509,92.0874
2026-02-19 23:05:32.599,1771513532599,1771513532599,-0.9682617,-0.16210938,0.18798828,-0.30517578,-0.061035156,0.0,0.0,0.0,0.0,-40.863647,75.46509,92.037964
2026-02-19 23:05:32.698,1771513532698,1771513532698,-0.97021484,-0.16259766,0.18896484,0.12207031,0.61035156,0.0,0.0,0.0,0.0,-40.863647,75.459595,92.01599
2026-02-19 23:05:32.798,1771513532798,1771513532798,-0.97216797,-0.1665039,0.1796875,-0.91552734,-1.5869141,0.4272461,0.0,0.0,0.0,-40.78125,75.426636,92.05994
2026-02-19 23:05:32.898,1771513532898,1771513532898,-0.96728516,-0.16259766,0.19677734,0.61035156,-0.12207031,0.0,0.0,0.0,0.0,-40.9021,75.459595,91.87866
2026-02-19 23:05:32.998,1771513532998,1771513532998,-0.96728516,-0.16259766,0.18603516,0.5493164,1.0986328,-0.24414062,0.0,0.0,0.0,-40.83069,75.43762,91.900635
2026-02-19 23:05:33.097,1771513533097,1771513533097,-0.97265625,-0.16601562,0.1821289,0.061035156,0.0,0.061035156,0.0,0.0,0.0,-40.86914,75.443115,91.796265
2026-02-19 23:05:33.197,1771513533197,1771513533197,-0.9663086,-0.1640625,0.19189453,0.9765625,1.5258789,-0.30517578,0.0,0.0,0.0,-41.281128,75.54199,91.29089
2026-02-19 23:05:33.296,1771513533296,1771513533296,-0.96972656,-0.16552734,0.17871094,0.61035156,1.7700195,-0.36621094,0.0,0.0,0.0,-41.49536,75.58594,91.00525
2026-02-19 23:05:33.396,1771513533396,1771513533396,-0.97021484,-0.16552734,0.18017578,0.61035156,1.8920898,-0.48828125,0.0,0.0,0.0,-42.03369,75.684814,90.35156
2026-02-19 23:05:33.497,1771513533497,1771513533497,-0.9716797,-0.16748047,0.1772461,0.7324219,1.8920898,-0.48828125,0.0,0.0,0.0,-42.544556,75.76721,89.72534
2026-02-19 23:05:33.596,1771513533596,1771513533596,-0.97216797,-0.16552734,0.17675781,1.3427734,0.9765625,-0.6713867,0.0,0.0,0.0,-42.989502,75.82214,89.13757
2026-02-19 23:05:33.696,1771513533696,1771513533696,-0.9692383,-0.16796875,0.17382812,1.5869141,1.7089844,-0.6713867,0.0,0.0,0.0,-43.450928,75.88257,88.516846
2026-02-19 23:05:33.795,1771513533795,1771513533795,-0.9746094,-0.16845703,0.17382812,-0.18310547,1.3427734,-0.30517578,0.0,0.0,0.0,-44.071655,75.97046,87.70935
2026-02-19 23:05:33.895,1771513533895,1771513533895,-0.9692383,-0.16845703,0.17626953,0.8544922,2.746582,-0.5493164,0.0,0.0,0.0,-44.730835,76.07483,86.89636
2026-02-19 23:05:33.994,1771513533994,1771513533994,-0.9716797,-0.16894531,0.16796875,0.36621094,1.5869141,-0.24414062,0.0,0.0,0.0,-45.19226,76.14624,86.30859
2026-02-19 23:05:34.094,1771513534094,1771513534094,-0.97265625,-0.16894531,0.16601562,1.0986328,2.319336,-0.4272461,0.0,0.0,0.0,-45.736084,76.24512,85.64392
2026-02-19 23:05:34.194,1771513534194,1771513534194,-0.96972656,-0.16894531,0.16015625,0.12207031,1.2817383,-0.24414062,0.0,0.0,0.0,-46.219482,76.31653,85.05615
2026-02-19 23:05:34.294,1771513534294,1771513534294,-0.97265625,-0.16699219,0.16455078,0.30517578,0.30517578,-0.061035156,0.0,0.0,0.0,-46.417236,76.35498,84.81445
2026-02-19 23:05:34.393,1771513534393,1771513534393,-0.9716797,-0.1694336,0.16064453,0.48828125,0.6713867,-0.12207031,0.0,0.0,0.0,-46.417236,76.36047,84.75403
2026-02-19 23:05:34.493,1771513534493,1771513534493,-0.97216797,-0.1694336,0.16064453,0.061035156,0.0,-0.12207031,0.0,0.0,0.0,-46.40625,76.35498,84.72656
2026-02-19 23:05:34.593,1771513534593,1771513534593,-0.97558594,-0.16796875,0.16210938,-0.18310547,-0.6713867,0.0,0.0,0.0,0.0,-46.31836,76.31653,84.781494
2026-02-19 23:05:34.692,1771513534692,1771513534692,-0.97021484,-0.171875,0.16845703,0.61035156,-0.6713867,0.12207031,0.0,0.0,0.0,-46.087646,76.27258,84.98474
2026-02-19 23:05:34.792,1771513534792,1771513534792,-0.9746094,-0.171875,0.1586914,0.61035156,-1.4648438,-0.061035156,0.0,0.0,0.0,-45.52185,76.16821,85.56702
2026-02-19 23:05:34.893,1771513534893,1771513534893,-0.9716797,-0.16894531,0.1694336,-0.061035156,-1.8310547,0.24414062,0.0,0.0,0.0,-45.08789,76.07483,86.017456
2026-02-19 23:05:34.992,1771513534992,1771513534992,-0.96972656,-0.16992188,0.16601562,-0.79345703,-2.0751953,0.48828125,0.0,0.0,0.0,-44.538574,75.97595,86.59973
2026-02-19 23:05:35.091,1771513535091,1771513535091,-0.97216797,-0.17138672,0.17089844,-0.8544922,-1.4648438,0.48828125,0.0,0.0,0.0,-44.28589,75.9375,86.92932
2026-02-19 23:05:35.191,1771513535191,1771513535191,-0.9682617,-0.16845703,0.17626953,-0.7324219,-0.061035156,0.30517578,0.0,0.0,0.0,-44.121094,75.91553,87.214966
2026-02-19 23:05:35.290,1771513535290,1771513535290,-0.97021484,-0.16796875,0.1694336,-1.3427734,-1.3427734,0.61035156,0.0,0.0,0.0,-43.75305,75.86609,87.70935
2026-02-19 23:05:35.390,1771513535390,1771513535390,-0.97216797,-0.16894531,0.17626953,-1.0986328,-1.2207031,0.4272461,0.0,0.0,0.0,-43.494873,75.83313,88.099365
2026-02-19 23:05:35.490,1771513535490,1771513535490,-0.96972656,-0.16601562,0.17626953,-0.8544922,-1.0986328,0.36621094,0.0,0.0,0.0,-43.115845,75.76172,88.621216
2026-02-19 23:05:35.590,1771513535590,1771513535590,-0.9716797,-0.16845703,0.17871094,-0.61035156,-1.4038086,0.30517578,0.0,0.0,0.0,-42.857666,75.71777,88.92334
2026-02-19 23:05:35.689,1771513535689,1771513535689,-0.9658203,-0.16992188,0.17382812,-0.24414062,-0.30517578,-0.061035156,0.0,0.0,0.0,-42.648926,75.67932,89.192505
2026-02-19 23:05:35.789,1771513535789,1771513535789,-0.97265625,-0.17089844,0.1743164,-1.3427734,-3.1738281,0.61035156,0.0,0.0,0.0,-42.48413,75.62439,89.35181
2026-02-19 23:05:35.889,1771513535889,1771513535889,-0.96728516,-0.16455078,0.19140625,0.6713867,0.48828125,-0.061035156,0.0,0.0,0.0,-42.456665,75.6134,89.417725
2026-02-19 23:05:35.988,1771513535988,1771513535988,-0.9692383,-0.16699219,0.17578125,-0.24414062,0.48828125,0.0,0.0,0.0,0.0,-42.253418,75.57495,89.63196
2026-02-19 23:05:36.088,1771513536088,1771513536088,-0.97021484,-0.16845703,0.18017578,-0.7324219,-1.0986328,0.30517578,0.0,0.0,0.0,-42.269897,75.58594,89.61548
2026-02-19 23:05:36.188,1771513536188,1771513536188,-0.9682617,-0.16503906,0.18603516,-0.061035156,0.6713867,-0.061035156,0.0,0.0,0.0,-42.29187,75.58594,89.62097
2026-02-19 23:05:36.288,1771513536288,1771513536288,-0.97021484,-0.16601562,0.18017578,-0.24414062,-0.18310547,0.061035156,0.0,0.0,0.0,-42.253418,75.57495,89.65393
2026-02-19 23:05:36.387,1771513536387,1771513536387,-0.9707031,-0.1665039,0.18310547,-0.18310547,0.0,0.0,0.0,0.0,0.0,-42.247925,75.57495,89.63745
2026-02-19 23:05:36.487,1771513536487,1771513536487,-0.9682617,-0.16748047,0.1796875,-0.18310547,-0.061035156,0.0,0.0,0.0,0.0,-42.198486,75.55847,89.67041
2026-02-19 23:05:36.587,1771513536587,1771513536587,-0.97021484,-0.16796875,0.18066406,0.0,-0.12207031,0.061035156,0.0,0.0,0.0,-42.214966,75.563965,89.63196
2026-02-19 23:05:36.687,1771513536687,1771513536687,-0.9658203,-0.16796875,0.17578125,-0.36621094,-0.12207031,0.0,0.0,0.0,0.0,-42.17102,75.54199,89.6814
2026-02-19 23:05:36.786,1771513536786,1771513536786,-0.9716797,-0.1694336,0.17626953,-1.0986328,-2.1972656,0.5493164,0.0,0.0,0.0,-42.110596,75.51453,89.70337
2026-02-19 23:05:36.886,1771513536886,1771513536886,-0.96777344,-0.1665039,0.1928711,0.61035156,-0.12207031,-0.12207031,0.0,0.0,0.0,-42.072144,75.50903,89.714355
2026-02-19 23:05:36.986,1771513536986,1771513536986,-0.96972656,-0.16748047,0.17822266,-0.18310547,0.4272461,0.0,0.0,0.0,0.0,-41.901855,75.459595,89.87366
2026-02-19 23:05:37.085,1771513537085,1771513537085,-0.97216797,-0.16992188,0.18115234,-0.61035156,-0.8544922,0.24414062,0.0,0.0,0.0,-41.89087,75.459595,89.84619
2026-02-19 23:05:37.185,1771513537185,1771513537185,-0.96777344,-0.16601562,0.18945312,0.18310547,0.5493164,-0.061035156,0.0,0.0,0.0,-42.05017,75.48706,89.659424
2026-02-19 23:05:37.285,1771513537285,1771513537285,-0.97216797,-0.16699219,0.18017578,0.30517578,0.5493164,-0.12207031,0.0,0.0,0.0,-42.022705,75.476074,89.659424
2026-02-19 23:05:37.385,1771513537385,1771513537385,-0.9707031,-0.16796875,0.18164062,0.7324219,0.5493164,0.0,0.0,0.0,0.0,-42.160034,75.50903,89.42871
2026-02-19 23:05:37.484,1771513537484,1771513537484,-0.96875,-0.16845703,0.1796875,0.7324219,2.1972656,-0.30517578,0.0,0.0,0.0,-42.583008,75.6134,88.91785
2026-02-19 23:05:37.584,1771513537584,1771513537584,-0.9707031,-0.17138672,0.17773438,0.6713867,2.0141602,-0.61035156,0.0,0.0,0.0,-43.302612,75.74524,88.08838
2026-02-19 23:05:37.684,1771513537684,1771513537684,-0.9658203,-0.17236328,0.17333984,0.36621094,1.5258789,-0.36621094,0.0,0.0,0.0,-43.692627,75.805664,87.62146
2026-02-19 23:05:37.784,1771513537784,1771513537784,-0.97558594,-0.16992188,0.16357422,-0.30517578,0.36621094,0.0,0.0,0.0,0.0,-43.961792,75.84412,87.247925
2026-02-19 23:05:37.883,1771513537883,1771513537883,-0.96972656,-0.16894531,0.17919922,0.48828125,1.0375977,-0.18310547,0.0,0.0,0.0,-44.53308,75.94299,86.53931
2026-02-19 23:05:37.983,1771513537983,1771513537983,-0.9682617,-0.16894531,0.16748047,1.0375977,2.1362305,-0.5493164,0.0,0.0,0.0,-44.851685,75.997925,86.13281
2026-02-19 23:05:38.083,1771513538083,1771513538083,-0.9746094,-0.17285156,0.16357422,0.12207031,0.61035156,-0.18310547,0.0,0.0,0.0,-45.335083,76.069336,85.50659
2026-02-19 23:05:38.183,1771513538183,1771513538183,-0.96972656,-0.17041016,0.16796875,-0.061035156,0.79345703,-0.12207031,0.0,0.0,0.0,-45.69763,76.11328,85.07263
2026-02-19 23:05:38.282,1771513538282,1771513538282,-0.97021484,-0.16845703,0.16552734,0.18310547,0.30517578,-0.12207031,0.0,0.0,0.0,-45.78003,76.11328,84.940796
2026-02-19 23:05:38.382,1771513538382,1771513538382,-0.9716797,-0.17138672,0.16552734,0.0,0.12207031,0.0,0.0,0.0,0.0,-45.823975,76.12427,84.836426
2026-02-19 23:05:38.481,1771513538481,1771513538481,-0.9707031,-0.17285156,0.16210938,0.30517578,0.061035156,-0.12207031,0.0,0.0,0.0,-45.85144,76.118774,84.77051
2026-02-19 23:05:38.581,1771513538581,1771513538581,-0.9682617,-0.1743164,0.1640625,1.159668,0.0,-0.30517578,0.0,0.0,0.0,-45.85144,76.11328,84.75403
2026-02-19 23:05:38.681,1771513538681,1771513538681,-0.9736328,-0.171875,0.16064453,-0.30517578,-0.24414062,0.0,0.0,0.0,0.0,-45.769043,76.085815,84.84192
2026-02-19 23:05:38.781,1771513538781,1771513538781,-0.9716797,-0.17089844,0.17138672,-0.061035156,-1.159668,0.18310547,0.0,0.0,0.0,-45.648193,76.06384,84.94629
2026-02-19 23:05:38.880,1771513538880,1771513538880,-0.9663086,-0.16845703,0.17236328,0.18310547,-1.2817383,0.12207031,0.0,0.0,0.0,-45.247192,75.99243,85.35278
2026-02-19 23:05:38.980,1771513538980,1771513538980,-0.9716797,-0.1694336,0.1694336,-0.4272461,-0.9765625,0.18310547,0.0,0.0,0.0,-44.91211,75.93201,85.73181
2026-02-19 23:05:39.080,1771513539080,1771513539080,-0.96972656,-0.16894531,0.17236328,-0.7324219,-0.6713867,0.18310547,0.0,0.0,0.0,-44.68689,75.88257,86.03943
2026-02-19 23:05:39.180,1771513539180,1771513539180,-0.9707031,-0.1694336,0.17333984,-0.79345703,-1.3427734,0.24414062,0.0,0.0,0.0,-44.368286,75.81116,86.44043
2026-02-19 23:05:39.279,1771513539279,1771513539279,-0.9707031,-0.17041016,0.17138672,-0.4272461,-0.91552734,0.12207031,0.0,0.0,0.0,-44.016724,75.73425,86.8634
2026-02-19 23:05:39.379,1771513539379,1771513539379,-0.9692383,-0.1694336,0.17822266,-0.79345703,-0.8544922,0.30517578,0.0,0.0,0.0,-43.824463,75.701294,87.11609
2026-02-19 23:05:39.479,1771513539479,1771513539479,-0.9711914,-0.1694336,0.17773438,-1.3427734,-0.61035156,0.4272461,0.0,0.0,0.0,-43.549805,75.651855,87.48413
2026-02-19 23:05:39.579,1771513539579,1771513539579,-0.9692383,-0.1665039,0.18652344,-0.36621094,-0.061035156,0.18310547,0.0,0.0,0.0,-43.374023,75.6189,87.73682
2026-02-19 23:05:39.678,1771513539678,1771513539678,-0.9716797,-0.16992188,0.16796875,-1.8920898,-1.5258789,0.79345703,0.0,0.0,0.0,-42.907104,75.52551,88.29712
2026-02-19 23:05:39.778,1771513539778,1771513539778,-0.96875,-0.16894531,0.18701172,-0.36621094,-1.8920898,0.4272461,0.0,0.0,0.0,-42.802734,75.52002,88.412476
2026-02-19 23:05:39.878,1771513539878,1771513539878,-0.9667969,-0.1694336,0.18261719,0.36621094,0.4272461,0.0,0.0,0.0,0.0,-42.385254,75.44861,88.90686
2026-02-19 23:05:39.977,1771513539977,1771513539977,-0.9716797,-0.17089844,0.17626953,-0.7324219,-1.0986328,0.4272461,0.0,0.0,0.0,-42.198486,75.426636,89.13757
2026-02-19 23:05:40.077,1771513540077,1771513540077,-0.9682617,-0.16699219,0.19042969,-0.12207031,-0.30517578,0.061035156,0.0,0.0,0.0,-42.20398,75.426636,89.14307
2026-02-19 23:05:40.177,1771513540177,1771513540177,-0.9692383,-0.16552734,0.1850586,0.061035156,-0.30517578,0.0,0.0,0.0,0.0,-41.99524,75.371704,89.3573
2026-02-19 23:05:40.276,1771513540276,1771513540276,-0.9692383,-0.16748047,0.18652344,0.18310547,-0.24414062,0.0,0.0,0.0,0.0,-41.92932,75.36072,89.39575
2026-02-19 23:05:40.376,1771513540376,1771513540376,-0.9682617,-0.16699219,0.1875,0.4272461,0.4272461,-0.18310547,0.0,0.0,0.0,-41.901855,75.34973,89.41223
2026-02-19 23:05:40.476,1771513540476,1771513540476,-0.9663086,-0.16601562,0.19042969,0.91552734,0.12207031,-0.24414062,0.0,0.0,0.0,-41.896362,75.34424,89.39026
2026-02-19 23:05:40.576,1771513540576,1771513540576,-0.9667969,-0.16699219,0.1953125,0.8544922,0.18310547,-0.61035156,0.0,0.0,0.0,-41.901855,75.33325,89.329834
2026-02-19 23:05:40.675,1771513540675,1771513540675,-0.9667969,-0.16455078,0.19189453,1.0986328,1.3427734,-0.36621094,0.0,0.0,0.0,-41.781006,75.30029,89.434204
2026-02-19 23:05:40.775,1771513540775,1771513540775,-0.97021484,-0.16992188,0.18359375,-0.061035156,-0.30517578,0.061035156,0.0,0.0,0.0,-41.748047,75.30029,89.39026
2026-02-19 23:05:40.875,1771513540875,1771513540875,-0.9692383,-0.16894531,0.18896484,0.18310547,-0.12207031,0.0,0.0,0.0,0.0,-41.791992,75.31677,89.30237
2026-02-19 23:05:40.975,1771513540975,1771513540975,-0.97021484,-0.16796875,0.18261719,0.79345703,0.7324219,-0.061035156,0.0,0.0,0.0,-41.80847,75.32776,89.24194
2026-02-19 23:05:41.074,1771513541074,1771513541074,-0.96875,-0.16699219,0.18847656,0.79345703,0.79345703,-0.30517578,0.0,0.0,0.0,-42.061157,75.38818,88.90686
2026-02-19 23:05:41.174,1771513541174,1771513541174,-0.97021484,-0.16748047,0.18945312,1.7089844,1.6479492,-0.61035156,0.0,0.0,0.0,-42.313843,75.43213,88.52783
2026-02-19 23:05:41.274,1771513541274,1771513541274,-0.9692383,-0.16992188,0.17089844,0.7324219,1.3427734,-0.24414062,0.0,0.0,0.0,-42.41272,75.43213,88.22571
2026-02-19 23:05:41.374,1771513541374,1771513541374,-0.96972656,-0.17089844,0.18408203,0.8544922,0.8544922,-0.30517578,0.0,0.0,0.0,-42.874146,75.531006,87.59949
2026-02-19 23:05:41.473,1771513541473,1771513541473,-0.9667969,-0.171875,0.18066406,1.5258789,1.2207031,-0.6713867,0.0,0.0,0.0,-43.203735,75.58594,87.16553
2026-02-19 23:05:41.573,1771513541573,1771513541573,-0.97314453,-0.16992188,0.18017578,-0.7324219,0.12207031,0.0,0.0,0.0,0.0,-43.53882,75.62439,86.73157
2026-02-19 23:05:41.673,1771513541673,1771513541673,-0.96728516,-0.16601562,0.18359375,1.0375977,2.1972656,-0.36621094,0.0,0.0,0.0,-43.945312,75.70679,86.242676
2026-02-19 23:05:41.772,1771513541772,1771513541772,-0.9707031,-0.17138672,0.17285156,0.18310547,1.6479492,-0.12207031,0.0,0.0,0.0,-44.176025,75.772705,85.94055
2026-02-19 23:05:41.872,1771513541872,1771513541872,-0.97216797,-0.17138672,0.17089844,0.0,0.9765625,-0.12207031,0.0,0.0,0.0,-44.555054,75.84961,85.46265
2026-02-19 23:05:41.972,1771513541972,1771513541972,-0.9682617,-0.16992188,0.17041016,0.30517578,1.4038086,-0.24414062,0.0,0.0,0.0,-44.906616,75.910034,85.06714
2026-02-19 23:05:42.072,1771513542072,1771513542072,-0.9711914,-0.1694336,0.17089844,0.0,0.4272461,-0.12207031,0.0,0.0,0.0,-45.10437,75.94849,84.82544
2026-02-19 23:05:42.171,1771513542171,1771513542171,-0.9711914,-0.17089844,0.16699219,0.0,0.36621094,-0.061035156,0.0,0.0,0.0,-45.142822,75.95398,84.74304
2026-02-19 23:05:42.271,1771513542271,1771513542271,-0.97021484,-0.17089844,0.16894531,-0.18310547,-0.061035156,0.0,0.0,0.0,0.0,-45.164795,75.95398,84.6991
2026-02-19 23:05:42.371,1771513542371,1771513542371,-0.9711914,-0.16894531,0.1694336,-0.4272461,-0.48828125,0.0,0.0,0.0,0.0,-45.065918,75.92102,84.78699
2026-02-19 23:05:42.470,1771513542470,1771513542470,-0.9707031,-0.16894531,0.17285156,-0.061035156,-0.9765625,0.0,0.0,0.0,0.0,-44.851685,75.87158,84.973755
2026-02-19 23:05:42.570,1771513542570,1771513542570,-0.96875,-0.1694336,0.16992188,-0.18310547,-0.9765625,0.0,0.0,0.0,0.0,-44.538574,75.789185,85.32532
2026-02-19 23:05:42.670,1771513542670,1771513542670,-0.97021484,-0.17089844,0.17285156,-0.18310547,-1.0986328,0.0,0.0,0.0,0.0,-44.197998,75.701294,85.68237
2026-02-19 23:05:42.770,1771513542770,1771513542770,-0.96777344,-0.171875,0.17480469,-0.18310547,-0.18310547,0.0,0.0,0.0,0.0,-43.901367,75.62439,86.00647
2026-02-19 23:05:42.870,1771513542870,1771513542870,-0.97021484,-0.17382812,0.17285156,-0.5493164,-0.79345703,0.061035156,0.0,0.0,0.0,-43.659668,75.57495,86.31409
2026-02-19 23:05:42.969,1771513542969,1771513542969,-0.97216797,-0.16992188,0.18261719,0.0,-1.3427734,0.0,0.0,0.0,0.0,-43.511353,75.531006,86.49536
2026-02-19 23:05:43.069,1771513543069,1771513543069,-0.96875,-0.16894531,0.18164062,0.8544922,0.0,-0.18310547,0.0,0.0,0.0,-43.2312,75.46509,86.75354
2026-02-19 23:05:43.169,1771513543169,1771513543169,-0.9682617,-0.1694336,0.18017578,-0.6713867,-0.7324219,0.30517578,0.0,0.0,0.0,-42.989502,75.41565,87.01172
2026-02-19 23:05:43.268,1771513543268,1771513543268,-0.9682617,-0.16894531,0.18798828,0.5493164,-0.48828125,0.0,0.0,0.0,0.0,-42.835693,75.40466,87.160034
2026-02-19 23:05:43.368,1771513543368,1771513543368,-0.9658203,-0.16748047,0.18701172,0.30517578,0.36621094,0.12207031,0.0,0.0,0.0,-42.626953,75.371704,87.32483
2026-02-19 23:05:43.468,1771513543468,1771513543468,-0.96777344,-0.1665039,0.19042969,-0.12207031,-0.30517578,0.0,0.0,0.0,0.0,-42.473145,75.34424,87.456665
2026-02-19 23:05:43.567,1771513543567,1771513543567,-0.96777344,-0.16748047,0.18115234,0.18310547,0.9765625,-0.061035156,0.0,0.0,0.0,-42.110596,75.28931,87.88513
2026-02-19 23:05:43.667,1771513543667,1771513543667,-0.97021484,-0.17041016,0.18359375,-0.36621094,-1.2817383,0.30517578,0.0,0.0,0.0,-42.121582,75.305786,87.80823
2026-02-19 23:05:43.767,1771513543767,1771513543767,-0.96728516,-0.16699219,0.1899414,0.24414062,0.24414062,0.0,0.0,0.0,0.0,-42.088623,75.305786,87.84668
2026-02-19 23:05:43.867,1771513543867,1771513543867,-0.9692383,-0.16748047,0.18115234,0.12207031,0.36621094,-0.12207031,0.0,0.0,0.0,-41.967773,75.28381,87.9895
2026-02-19 23:05:43.966,1771513543966,1771513543966,-0.9692383,-0.16748047,0.19042969,-0.18310547,-0.6713867,0.061035156,0.0,0.0,0.0,-42.01172,75.2948,87.91809
2026-02-19 23:05:44.066,1771513544066,1771513544066,-0.96777344,-0.16748047,0.18896484,0.12207031,-0.061035156,0.0,0.0,0.0,0.0,-41.885376,75.267334,88.011475
2026-02-19 23:05:44.166,1771513544166,1771513544166,-0.96875,-0.16894531,0.1875,0.0,-0.48828125,0.0,0.0,0.0,0.0,-41.759033,75.234375,88.10486
2026-02-19 23:05:44.266,1771513544266,1771513544266,-0.96875,-0.16796875,0.19189453,0.18310547,0.061035156,0.0,0.0,0.0,0.0,-41.72058,75.22339,88.12683
2026-02-19 23:05:44.365,1771513544365,1771513544365,-0.9667969,-0.16748047,0.18945312,0.91552734,0.48828125,0.0,0.0,0.0,0.0,-41.687622,75.217896,88.132324
2026-02-19 23:05:44.465,1771513544465,1771513544465,-0.9682617,-0.16552734,0.19433594,0.30517578,-0.18310547,0.0,0.0,0.0,0.0,-41.69861,75.22888,88.05542
2026-02-19 23:05:44.565,1771513544565,1771513544565,-0.96777344,-0.16601562,0.19042969,1.4038086,2.5024414,-0.5493164,0.0,0.0,0.0,-41.72058,75.23987,88.011475
2026-02-19 23:05:44.664,1771513544664,1771513544664,-0.9711914,-0.171875,0.1796875,0.18310547,0.7324219,-0.12207031,0.0,0.0,0.0,-42.077637,75.32776,87.528076
2026-02-19 23:05:44.764,1771513544764,1771513544764,-0.9716797,-0.16796875,0.18408203,0.0,0.18310547,-0.12207031,0.0,0.0,0.0,-42.456665,75.38818,87.06665
2026-02-19 23:05:44.864,1771513544864,1771513544864,-0.97216797,-0.17041016,0.17919922,0.61035156,1.8920898,-0.36621094,0.0,0.0,0.0,-42.808228,75.44861,86.605225
2026-02-19 23:05:44.963,1771513544963,1771513544963,-0.9707031,-0.17041016,0.17871094,0.30517578,0.30517578,0.0,0.0,0.0,0.0,-43.170776,75.531006,86.121826
2026-02-19 23:05:45.063,1771513545063,1771513545063,-0.9716797,-0.16748047,0.18017578,1.0986328,1.2817383,-0.4272461,0.0,0.0,0.0,-43.412476,75.580444,85.77576
2026-02-19 23:05:45.163,1771513545163,1771513545163,-0.9692383,-0.16992188,0.17822266,0.91552734,0.79345703,-0.12207031,0.0,0.0,0.0,-43.703613,75.651855,85.31433
2026-02-19 23:05:45.263,1771513545263,1771513545263,-0.96972656,-0.17041016,0.1772461,1.159668,2.0751953,-0.36621094,0.0,0.0,0.0,-43.961792,75.72327,84.940796
2026-02-19 23:05:45.363,1771513545363,1771513545363,-0.9667969,-0.17285156,0.171875,1.5869141,1.5869141,-0.5493164,0.0,0.0,0.0,-44.225464,75.7782,84.572754
