timestamp,accX,accY,accZ,gyroX,gyroY,gyroZ,magX,magY,magZ,roll,pitch,yaw
1769255557761,-0.8105469,0.23632812,-0.024902344,-3.6010742,71.3501,-12.939453,0.0,0.0,0.0,133.97278,63.90747,-2.7026367
1769255557773,-0.8105469,0.23632812,-0.024902344,-3.6010742,71.3501,-12.939453,0.0,0.0,0.0,143.16833,60.67749,1.642456
1769255557861,-1.0014648,0.31347656,-0.29492188,-18.493652,-11.108398,-19.104004,0.0,0.0,0.0,143.16833,60.67749,1.642456
1769255557875,-1.0014648,0.31347656,-0.29492188,-18.493652,-11.108398,-19.104004,0.0,0.0,0.0,147.2113,60.979614,8.772583
1769255557961,-0.7758789,0.18164062,-0.33789062,-6.8969727,-32.226562,-11.84082,0.0,0.0,0.0,147.2113,60.979614,8.772583
1769255557972,-0.7758789,0.18164062,-0.33789062,-6.8969727,-32.226562,-11.84082,0.0,0.0,0.0,145.42603,63.28125,8.843994
1769255558060,-1.1367188,0.3095703,-0.6635742,23.132324,-47.36328,-9.94873,0.0,0.0,0.0,145.42603,63.28125,8.843994
1769255558072,-1.1367188,0.3095703,-0.6635742,23.132324,-47.36328,-9.94873,0.0,0.0,0.0,139.77356,67.648315,1.7303467
1769255558162,-0.65283203,0.23144531,-0.30273438,25.45166,52.490234,17.822266,0.0,0.0,0.0,139.77356,67.648315,1.7303467
1769255558172,-0.65283203,0.23144531,-0.30273438,25.45166,52.490234,17.822266,0.0,0.0,0.0,141.31165,66.225586,-0.368042
1769255558260,-1.1669922,0.33691406,-0.079589844,-36.43799,-19.042969,-34.91211,0.0,0.0,0.0,141.31165,66.225586,-0.368042
1769255558271,-1.1669922,0.33691406,-0.079589844,-36.43799,-19.042969,-34.91211,0.0,0.0,0.0,146.95862,63.012085,5.223999
1769255558362,-0.62353516,0.22509766,-0.29052734,-47.424316,-1.953125,-15.075684,0.0,0.0,0.0,146.95862,63.012085,5.223999
1769255558372,-0.62353516,0.22509766,-0.29052734,-47.424316,-1.953125,-15.075684,0.0,0.0,0.0,145.70068,63.468018,8.0529785
1769255558459,-1.2329102,0.2709961,-0.7036133,-18.981934,6.225586,4.9438477,0.0,0.0,0.0,145.70068,63.468018,8.0529785
1769255558471,-1.2329102,0.2709961,-0.7036133,-18.981934,6.225586,4.9438477,0.0,0.0,0.0,139.70764,64.45679,6.789551
1769255558559,-0.6977539,-0.09082031,-0.13427734,-70.19043,86.30371,-19.226074,0.0,0.0,0.0,139.70764,64.45679,6.789551
1769255558571,-0.6977539,-0.09082031,-0.13427734,-70.19043,86.30371,-19.226074,0.0,0.0,0.0,145.18433,58.200073,14.210815
1769255558659,-1.0063477,0.14160156,-0.22753906,-6.0424805,-26.062012,-2.6245117,0.0,0.0,0.0,145.18433,58.200073,14.210815
1769255558671,-1.0063477,0.14160156,-0.22753906,-6.0424805,-26.062012,-2.6245117,0.0,0.0,0.0,145.00305,59.683228,20.549927
1769255558758,-0.82910156,0.21728516,-0.4248047,109.069824,-89.904785,50.354004,0.0,0.0,0.0,145.00305,59.683228,20.549927
1769255558770,-0.82910156,0.21728516,-0.4248047,109.069824,-89.904785,50.354004,0.0,0.0,0.0,139.48242,63.912964,6.2731934
1769255558858,-0.82910156,0.3515625,-0.53271484,-6.4697266,-57.373047,-0.7324219,0.0,0.0,0.0,139.48242,63.912964,6.2731934
1769255558869,-0.82910156,0.3515625,-0.53271484,-6.4697266,-57.373047,-0.7324219,0.0,0.0,0.0,132.14905,66.74194,-11.376343
1769255558958,-0.7583008,0.7324219,-0.18554688,-27.893066,93.01758,-21.911621,0.0,0.0,0.0,132.14905,66.74194,-11.376343
1769255558969,-0.7583008,0.7324219,-0.18554688,-27.893066,93.01758,-21.911621,0.0,0.0,0.0,140.51514,65.76965,-1.8896484
1769255559057,-0.9746094,0.18701172,-0.3881836,-56.70166,35.7666,-20.385742,0.0,0.0,0.0,140.51514,65.76965,-1.8896484
1769255559069,-0.9746094,0.18701172,-0.3881836,-56.70166,35.7666,-20.385742,0.0,0.0,0.0,140.4602,62.48474,8.602295
1769255559157,-1.4414062,0.2524414,-0.8330078,-17.456055,56.518555,28.015137,0.0,0.0,0.0,140.4602,62.48474,8.602295
1769255559169,-1.4414062,0.2524414,-0.8330078,-17.456055,56.518555,28.015137,0.0,0.0,0.0,141.19629,61.54541,12.980347
1769255559257,-0.71533203,-0.12451172,0.3876953,-85.02197,-107.84912,-55.480957,0.0,0.0,0.0,141.19629,61.54541,12.980347
1769255559269,-0.71533203,-0.12451172,0.3876953,-85.02197,-107.84912,-55.480957,0.0,0.0,0.0,139.35059,60.12268,14.683228
1769255559357,-0.19042969,0.13085938,-0.033203125,73.6084,-46.936035,-5.432129,0.0,0.0,0.0,139.35059,60.12268,14.683228
1769255559368,-0.19042969,0.13085938,-0.033203125,73.6084,-46.936035,-5.432129,0.0,0.0,0.0,142.34436,66.291504,9.415283
1769255559456,-1.8364258,0.62841797,-0.68603516,108.70361,-73.85254,34.66797,0.0,0.0,0.0,142.34436,66.291504,9.415283
1769255559468,-1.8364258,0.62841797,-0.68603516,108.70361,-73.85254,34.66797,0.0,0.0,0.0,124.974976,69.9884,-12.22229
1769255559556,-0.6323242,0.50341797,-0.30126953,-14.6484375,92.65137,-35.27832,0.0,0.0,0.0,124.974976,69.9884,-12.22229
1769255559567,-0.6323242,0.50341797,-0.30126953,-14.6484375,92.65137,-35.27832,0.0,0.0,0.0,132.28638,71.82312,-8.904419
1769255559656,-0.13574219,0.06201172,0.67333984,-91.918945,25.817871,16.601562,0.0,0.0,0.0,132.28638,71.82312,-8.904419
1769255559667,-0.13574219,0.06201172,0.67333984,-91.918945,25.817871,16.601562,0.0,0.0,0.0,142.85522,64.99512,8.02002
1769255559755,-2.3251953,0.39697266,-1.2817383,45.22705,-100.21973,-9.460449,0.0,0.0,0.0,142.85522,64.99512,8.02002
1769255559767,-2.3251953,0.39697266,-1.2817383,45.22705,-100.21973,-9.460449,0.0,0.0,0.0,129.23767,71.015625,-7.531128
1769255559855,-0.39404297,-0.017089844,-0.12792969,17.51709,71.22803,76.11084,0.0,0.0,0.0,129.23767,71.015625,-7.531128
1769255559867,-0.39404297,-0.017089844,-0.12792969,17.51709,71.22803,76.11084,0.0,0.0,0.0,130.06714,63.71521,-11.184082
1769255559955,-0.90771484,0.057128906,0.12939453,-58.71582,-25.756836,-25.146484,0.0,0.0,0.0,130.06714,63.71521,-11.184082
1769255559966,-0.90771484,0.057128906,0.12939453,-58.71582,-25.756836,-25.146484,0.0,0.0,0.0,134.5166,61.331177,-10.881958
1769255560054,-0.5888672,0.14990234,0.2919922,11.291504,-113.342285,16.967773,0.0,0.0,0.0,134.5166,61.331177,-10.881958
1769255560066,-0.5888672,0.14990234,0.2919922,11.291504,-113.342285,16.967773,0.0,0.0,0.0,118.08655,66.62109,-26.724243
1769255560154,-1.3349609,0.62402344,-0.80615234,118.774414,-90.88135,-0.91552734,0.0,0.0,0.0,118.08655,66.62109,-26.724243
1769255560166,-1.3349609,0.62402344,-0.80615234,118.774414,-90.88135,-0.91552734,0.0,0.0,0.0,113.878784,70.21912,-53.10791
1769255560254,-0.7626953,0.8144531,-0.3569336,52.124023,171.75293,-36.92627,0.0,0.0,0.0,113.878784,70.21912,-53.10791
1769255560266,-0.7626953,0.8144531,-0.3569336,52.124023,171.75293,-36.92627,0.0,0.0,0.0,123.931274,72.22412,-47.889404
1769255560354,-0.7998047,0.16064453,0.2705078,12.512207,-45.166016,-36.010742,0.0,0.0,0.0,123.931274,72.22412,-47.889404
1769255560365,-0.7998047,0.16064453,0.2705078,12.512207,-45.166016,-36.010742,0.0,0.0,0.0,138.3728,67.43408,-29.536743
1769255560453,-1.2124023,0.13330078,-0.6699219,12.084961,-76.66016,-4.5166016,0.0,0.0,0.0,138.3728,67.43408,-29.536743
1769255560465,-1.2124023,0.13330078,-0.6699219,12.084961,-76.66016,-4.5166016,0.0,0.0,0.0,128.77625,73.24585,-44.522095
1769255560553,-0.921875,0.029296875,-0.6015625,13.977051,103.271484,27.58789,0.0,0.0,0.0,128.77625,73.24585,-44.522095
1769255560564,-0.921875,0.029296875,-0.6015625,13.977051,103.271484,27.58789,0.0,0.0,0.0,128.71033,71.96594,-54.316406
1769255560653,-1.0146484,0.12792969,0.14550781,66.52832,-15.563965,-10.375977,0.0,0.0,0.0,128.71033,71.96594,-54.316406
1769255560665,-1.0146484,0.12792969,0.14550781,66.52832,-15.563965,-10.375977,0.0,0.0,0.0,140.28442,67.84607,-41.742554
1769255560752,-0.4482422,0.080566406,-0.10986328,-66.16211,-14.831543,-17.578125,0.0,0.0,0.0,140.28442,67.84607,-41.742554
1769255560764,-0.4482422,0.080566406,-0.10986328,-66.16211,-14.831543,-17.578125,0.0,0.0,0.0,141.5039,69.30725,-42.841187
1769255560852,-1.671875,0.3671875,-0.97265625,7.5683594,-72.021484,-46.38672,0.0,0.0,0.0,141.5039,69.30725,-42.841187
1769255560864,-1.671875,0.3671875,-0.97265625,7.5683594,-72.021484,-46.38672,0.0,0.0,0.0,125.39795,76.00891,-55.958862
1769255560952,-0.3803711,0.119628906,-0.068359375,10.253906,129.15039,87.70752,0.0,0.0,0.0,125.39795,76.00891,-55.958862
1769255560963,-0.3803711,0.119628906,-0.068359375,10.253906,129.15039,87.70752,0.0,0.0,0.0,135.17029,69.41162,-55.788574
1769255561052,-1.027832,0.39208984,-0.24414062,28.015137,2.746582,-34.973145,0.0,0.0,0.0,135.17029,69.41162,-55.788574
1769255561063,-1.027832,0.39208984,-0.24414062,28.015137,2.746582,-34.973145,0.0,0.0,0.0,139.36707,63.33618,-53.206787
1769255561151,-1.043457,0.31152344,-0.52490234,-29.47998,10.131836,-24.841309,0.0,0.0,0.0,139.36707,63.33618,-53.206787
1769255561163,-1.043457,0.31152344,-0.52490234,-29.47998,10.131836,-24.841309,0.0,0.0,0.0,137.3346,66.8573,-54.591064
1769255561251,-0.7993164,0.1665039,-0.26123047,-32.470703,18.615723,-32.104492,0.0,0.0,0.0,137.3346,66.8573,-54.591064
1769255561262,-0.7993164,0.1665039,-0.26123047,-32.470703,18.615723,-32.104492,0.0,0.0,0.0,144.54712,66.170654,-47.087402
1769255561351,-1.1728516,0.26123047,-0.625,1.2207031,-74.645996,10.620117,0.0,0.0,0.0,144.54712,66.170654,-47.087402
1769255561362,-1.1728516,0.26123047,-0.625,1.2207031,-74.645996,10.620117,0.0,0.0,0.0,139.16382,69.3512,-54.662476
1769255561452,-0.62939453,0.09033203,-0.3696289,11.352539,53.649902,60.11963,0.0,0.0,0.0,139.16382,69.3512,-54.662476
1769255561462,-0.62939453,0.09033203,-0.3696289,11.352539,53.649902,60.11963,0.0,0.0,0.0,131.56128,66.698,-70.41687
1769255561550,-1.1064453,0.38183594,-0.080078125,-71.28906,55.358887,-55.480957,0.0,0.0,0.0,131.56128,66.698,-70.41687
1769255561561,-1.1064453,0.38183594,-0.080078125,-71.28906,55.358887,-55.480957,0.0,0.0,0.0,142.09167,61.210327,-60.166626
1769255561650,-0.8461914,0.17285156,-0.3774414,13.061523,-25.32959,10.7421875,0.0,0.0,0.0,142.09167,61.210327,-60.166626
1769255561661,-0.8461914,0.17285156,-0.3774414,13.061523,-25.32959,10.7421875,0.0,0.0,0.0,142.7893,62.330933,-59.128418
1769255561749,-0.9033203,0.32763672,-0.43603516,8.544922,-1.4648438,4.0283203,0.0,0.0,0.0,142.7893,62.330933,-59.128418
1769255561761,-0.9033203,0.32763672,-0.43603516,8.544922,-1.4648438,4.0283203,0.0,0.0,0.0,141.2622,63.10547,-66.6156
1769255561849,-0.87841797,0.2265625,-0.4165039,-6.8359375,22.277832,-11.474609,0.0,0.0,0.0,141.2622,63.10547,-66.6156
1769255561861,-0.87841797,0.2265625,-0.4165039,-6.8359375,22.277832,-11.474609,0.0,0.0,0.0,143.5199,61.968384,-67.142944
1769255561949,-0.8671875,0.18115234,-0.45166016,17.150879,8.728027,10.070801,0.0,0.0,0.0,143.5199,61.968384,-67.142944
1769255561960,-0.8671875,0.18115234,-0.45166016,17.150879,8.728027,10.070801,0.0,0.0,0.0,144.67896,61.2323,-69.158936
1769255562049,-0.89160156,0.2319336,-0.41552734,0.4272461,22.216797,-6.225586,0.0,0.0,0.0,144.67896,61.2323,-69.158936
1769255562061,-0.89160156,0.2319336,-0.41552734,0.4272461,22.216797,-6.225586,0.0,0.0,0.0,147.18384,59.661255,-70.97168
1769255562149,-0.87060547,0.25,-0.3696289,15.380859,14.160156,6.713867,0.0,0.0,0.0,147.18384,59.661255,-70.97168
1769255562161,-0.87060547,0.25,-0.3696289,15.380859,14.160156,6.713867,0.0,0.0,0.0,150.3479,58.05725,-70.86731
1769255562248,-0.8642578,0.3022461,-0.47509766,17.822266,5.7373047,31.921387,0.0,0.0,0.0,150.3479,58.05725,-70.86731
1769255562259,-0.8642578,0.3022461,-0.47509766,17.822266,5.7373047,31.921387,0.0,0.0,0.0,150.5841,56.73889,-75.443115
1769255562348,-0.7397461,0.2241211,-0.42773438,58.044434,2.1972656,19.592285,0.0,0.0,0.0,150.5841,56.73889,-75.443115
1769255562359,-0.7397461,0.2241211,-0.42773438,58.044434,2.1972656,19.592285,0.0,0.0,0.0,152.22656,54.733887,-81.03516
1769255562447,-0.77783203,0.100097656,-0.49169922,-3.7231445,-26.062012,-13.916016,0.0,0.0,0.0,152.22656,54.733887,-81.03516
1769255562459,-0.77783203,0.100097656,-0.49169922,-3.7231445,-26.062012,-13.916016,0.0,0.0,0.0,154.58313,55.788574,-85.38574
1769255562547,-0.87890625,0.16064453,-0.57177734,-13.977051,41.259766,-29.663086,0.0,0.0,0.0,154.58313,55.788574,-85.38574
1769255562559,-0.87890625,0.16064453,-0.57177734,-13.977051,41.259766,-29.663086,0.0,0.0,0.0,157.20337,56.315918,-83.04016
1769255562647,-0.7792969,0.24121094,-0.40673828,5.432129,20.690918,-16.723633,0.0,0.0,0.0,157.20337,56.315918,-83.04016
1769255562658,-0.7792969,0.24121094,-0.40673828,5.432129,20.690918,-16.723633,0.0,0.0,0.0,162.29004,53.096924,-78.59619
1769255562747,-0.8935547,0.32177734,-0.4711914,10.437012,-13.793945,9.216309,0.0,0.0,0.0,162.29004,53.096924,-78.59619
1769255562758,-0.8935547,0.32177734,-0.4711914,10.437012,-13.793945,9.216309,0.0,0.0,0.0,163.14697,54.541626,-80.37048
1769255562846,-0.9995117,0.35009766,-0.3725586,-19.836426,7.873535,7.5683594,0.0,0.0,0.0,163.14697,54.541626,-80.37048
1769255562858,-0.9995117,0.35009766,-0.3725586,-19.836426,7.873535,7.5683594,0.0,0.0,0.0,162.0758,54.00879,-82.98523
1769255562946,-1.3061523,0.1328125,-0.64990234,-19.40918,-6.652832,-29.11377,0.0,0.0,0.0,162.0758,54.00879,-82.98523
1769255562957,-1.3061523,0.1328125,-0.64990234,-19.40918,-6.652832,-29.11377,0.0,0.0,0.0,161.97144,54.992065,-82.2052
1769255563046,-0.7832031,0.08984375,-0.43310547,-4.333496,-177.4292,5.1879883,0.0,0.0,0.0,161.97144,54.992065,-82.2052
1769255563057,-0.7832031,0.08984375,-0.43310547,-4.333496,-177.4292,5.1879883,0.0,0.0,0.0,153.13293,66.5332,-90.1593
1769255563145,-0.86035156,0.13427734,-0.6166992,90.33203,-77.63672,54.504395,0.0,0.0,0.0,153.13293,66.5332,-90.1593
1769255563157,-0.86035156,0.13427734,-0.6166992,90.33203,-77.63672,54.504395,0.0,0.0,0.0,126.23291,73.56445,-127.41394
1769255563245,-0.74121094,0.24414062,-0.4716797,0.30517578,53.40576,-11.413574,0.0,0.0,0.0,126.23291,73.56445,-127.41394
1769255563256,-0.74121094,0.24414062,-0.4716797,0.30517578,53.40576,-11.413574,0.0,0.0,0.0,131.69861,71.25183,-127.98523
1769255563345,-0.9223633,0.24658203,-0.38134766,-11.84082,131.22559,-37.841797,0.0,0.0,0.0,131.69861,71.25183,-127.98523
1769255563356,-0.9223633,0.24658203,-0.38134766,-11.84082,131.22559,-37.841797,0.0,0.0,0.0,153.49548,62.79785,-105.46326
1769255563444,-0.90966797,0.19873047,-0.3227539,1.7089844,-64.819336,75.25635,0.0,0.0,0.0,153.49548,62.79785,-105.46326
1769255563456,-0.90966797,0.19873047,-0.3227539,1.7089844,-64.819336,75.25635,0.0,0.0,0.0,149.55688,60.166626,-110.55542
1769255563544,-0.8120117,0.20166016,-0.3642578,76.416016,5.3100586,-32.592773,0.0,0.0,0.0,149.55688,60.166626,-110.55542
1769255563556,-0.8120117,0.20166016,-0.3642578,76.416016,5.3100586,-32.592773,0.0,0.0,0.0,150.28748,60.897217,-115.88379
1769255563644,-0.7939453,0.2734375,-0.44189453,-43.762207,40.46631,-29.60205,0.0,0.0,0.0,150.28748,60.897217,-115.88379
1769255563656,-0.7939453,0.2734375,-0.44189453,-43.762207,40.46631,-29.60205,0.0,0.0,0.0,156.63208,60.787354,-108.132935
1769255563743,-0.75146484,0.1328125,-0.37158203,-20.812988,55.358887,-50.90332,0.0,0.0,0.0,156.63208,60.787354,-108.132935
1769255563755,-0.75146484,0.1328125,-0.37158203,-20.812988,55.358887,-50.90332,0.0,0.0,0.0,161.1969,57.01355,-98.58032
1769255563843,-0.8461914,0.3149414,-0.42285156,24.108887,-27.58789,26.855469,0.0,0.0,0.0,161.1969,57.01355,-98.58032
1769255563855,-0.8461914,0.3149414,-0.42285156,24.108887,-27.58789,26.855469,0.0,0.0,0.0,163.27881,56.574097,-96.21826
1769255563943,-0.7895508,0.2211914,-0.49853516,44.433594,-21.1792,35.15625,0.0,0.0,0.0,163.27881,56.574097,-96.21826
1769255563954,-0.7895508,0.2211914,-0.49853516,44.433594,-21.1792,35.15625,0.0,0.0,0.0,159.33472,58.485718,-106.74866
1769255564043,-0.87402344,0.1459961,-0.5073242,-29.846191,64.14795,-21.66748,0.0,0.0,0.0,159.33472,58.485718,-106.74866
1769255564054,-0.87402344,0.1459961,-0.5073242,-29.846191,64.14795,-21.66748,0.0,0.0,0.0,159.93896,55.81604,-106.86951
1769255564142,-1.0893555,0.13085938,-0.5258789,-58.59375,22.766113,-55.96924,0.0,0.0,0.0,159.93896,55.81604,-106.86951
1769255564154,-1.0893555,0.13085938,-0.5258789,-58.59375,22.766113,-55.96924,0.0,0.0,0.0,161.61987,52.56958,-97.25098
1769255564249,-0.98339844,0.2705078,-0.5498047,-14.099121,-106.62842,57.006836,0.0,0.0,0.0,161.61987,52.56958,-97.25098
1769255564254,-0.98339844,0.2705078,-0.5498047,-14.099121,-106.62842,57.006836,0.0,0.0,0.0,154.35242,57.749634,-102.35962
1769255564342,-0.6923828,0.19042969,-0.47558594,37.41455,-77.63672,49.804688,0.0,0.0,0.0,154.35242,57.749634,-102.35962
1769255564354,-0.6923828,0.19042969,-0.47558594,37.41455,-77.63672,49.804688,0.0,0.0,0.0,139.91638,62.094727,-124.23889
1769255564441,-0.87841797,0.18066406,-0.58154297,-3.9672852,56.33545,-15.014648,0.0,0.0,0.0,139.91638,62.094727,-124.23889
1769255564453,-0.87841797,0.18066406,-0.58154297,-3.9672852,56.33545,-15.014648,0.0,0.0,0.0,138.31787,61.60034,-128.8092
1769255564541,-0.8798828,0.17333984,-0.41357422,-66.833496,91.61377,-64.94141,0.0,0.0,0.0,138.31787,61.60034,-128.8092
1769255564553,-0.8798828,0.17333984,-0.41357422,-66.833496,91.61377,-64.94141,0.0,0.0,0.0,151.57288,56.376343,-110.462036
1769255564641,-0.8911133,0.35009766,-0.29101562,-9.338379,-6.8969727,1.5869141,0.0,0.0,0.0,151.57288,56.376343,-110.462036
1769255564653,-0.8911133,0.35009766,-0.29101562,-9.338379,-6.8969727,1.5869141,0.0,0.0,0.0,154.70398,54.992065,-101.94763
1769255564741,-1.0908203,0.26171875,-0.123046875,-39.42871,-25.32959,18.310547,0.0,0.0,0.0,154.70398,54.992065,-101.94763
1769255564752,-1.0908203,0.26171875,-0.123046875,-39.42871,-25.32959,18.310547,0.0,0.0,0.0,150.0238,56.0083,-108.05054
1769255564840,-0.72021484,0.118652344,-0.31689453,-5.859375,-93.99414,6.1035156,0.0,0.0,0.0,150.0238,56.0083,-108.05054
1769255564852,-0.72021484,0.118652344,-0.31689453,-5.859375,-93.99414,6.1035156,0.0,0.0,0.0,141.53687,60.265503,-114.21936
1769255564940,-0.90527344,0.25,-0.60595703,78.24707,-105.285645,47.973633,0.0,0.0,0.0,141.53687,60.265503,-114.21936
1769255564951,-0.90527344,0.25,-0.60595703,78.24707,-105.285645,47.973633,0.0,0.0,0.0,126.0022,67.13745,-137.95532
1769255565040,-0.79003906,0.15673828,-0.53515625,58.10547,9.277344,10.009766,0.0,0.0,0.0,126.0022,67.13745,-137.95532
1769255565051,-0.79003906,0.15673828,-0.53515625,58.10547,9.277344,10.009766,0.0,0.0,0.0,121.71753,65.0885,-153.9679
1769255565139,-0.89208984,0.37353516,-0.4580078,-0.6713867,78.61328,-49.438477,0.0,0.0,0.0,121.71753,65.0885,-153.9679
1769255565151,-0.89208984,0.37353516,-0.4580078,-0.6713867,78.61328,-49.438477,0.0,0.0,0.0,136.81824,64.06677,-141.53687
1769255565239,-1.1791992,0.43115234,0.3251953,-31.860352,26.428223,-19.348145,0.0,0.0,0.0,136.81824,64.06677,-141.53687
1769255565250,-1.1791992,0.43115234,0.3251953,-31.860352,26.428223,-19.348145,0.0,0.0,0.0,152.13318,58.71643,-124.3927
1769255565339,-0.9604492,0.17529297,-0.48046875,27.34375,19.40918,-11.71875,0.0,0.0,0.0,152.13318,58.71643,-124.3927
1769255565350,-0.9604492,0.17529297,-0.48046875,27.34375,19.40918,-11.71875,0.0,0.0,0.0,155.31921,59.21631,-120.72876
1769255565438,-0.8847656,0.07910156,-0.41503906,23.986816,-7.2631836,-20.263672,0.0,0.0,0.0,155.31921,59.21631,-120.72876
1769255565450,-0.8847656,0.07910156,-0.41503906,23.986816,-7.2631836,-20.263672,0.0,0.0,0.0,160.90027,58.930664,-117.69104
1769255565538,-0.86035156,0.11035156,-0.39257812,34.79004,-10.437012,6.4697266,0.0,0.0,0.0,160.90027,58.930664,-117.69104
1769255565550,-0.86035156,0.11035156,-0.39257812,34.79004,-10.437012,6.4697266,0.0,0.0,0.0,164.0094,60.759888,-117.350464
1769255565638,-0.7426758,0.15527344,-0.40771484,9.765625,-66.04004,5.92041,0.0,0.0,0.0,164.0094,60.759888,-117.350464
1769255565649,-0.7426758,0.15527344,-0.40771484,9.765625,-66.04004,5.92041,0.0,0.0,0.0,163.35022,64.55017,-121.08032
1769255565737,-0.84375,0.15917969,-0.56933594,-18.798828,-2.746582,-1.2207031,0.0,0.0,0.0,163.35022,64.55017,-121.08032
1769255565749,-0.84375,0.15917969,-0.56933594,-18.798828,-2.746582,-1.2207031,0.0,0.0,0.0,158.48328,68.28552,-126.73279
1769255565837,-0.89941406,0.10107422,-0.43359375,-5.3710938,76.11084,-15.258789,0.0,0.0,0.0,158.48328,68.28552,-126.73279
1769255565849,-0.89941406,0.10107422,-0.43359375,-5.3710938,76.11084,-15.258789,0.0,0.0,0.0,162.724,64.47327,-121.31653
1769255565937,-0.9160156,0.068847656,-0.13720703,14.953613,-51.757812,27.70996,0.0,0.0,0.0,162.724,64.47327,-121.31653
1769255565948,-0.9160156,0.068847656,-0.13720703,14.953613,-51.757812,27.70996,0.0,0.0,0.0,162.21313,62.177124,-118.8501
1769255566037,-0.95410156,0.037597656,-0.6923828,-38.69629,63.415527,-17.8833,0.0,0.0,0.0,162.21313,62.177124,-118.8501
1769255566048,-0.95410156,0.037597656,-0.6923828,-38.69629,63.415527,-17.8833,0.0,0.0,0.0,163.9325,62.979126,-119.61365
1769255566136,-0.96240234,0.115722656,-0.33447266,-36.193848,-11.352539,-13.427734,0.0,0.0,0.0,163.9325,62.979126,-119.61365
1769255566148,-0.96240234,0.115722656,-0.33447266,-36.193848,-11.352539,-13.427734,0.0,0.0,0.0,166.71753,59.298706,-112.29675
1769255566236,-1.1186523,0.16210938,-0.41455078,62.316895,-4.5166016,45.166016,0.0,0.0,0.0,166.71753,59.298706,-112.29675
1769255566247,-1.1186523,0.16210938,-0.41455078,62.316895,-4.5166016,45.166016,0.0,0.0,0.0,160.77393,62.490234,-120.3772
1769255566336,-0.62353516,0.0625,-0.26708984,53.649902,-45.532227,36.499023,0.0,0.0,0.0,160.77393,62.490234,-120.3772
1769255566347,-0.62353516,0.0625,-0.26708984,53.649902,-45.532227,36.499023,0.0,0.0,0.0,158.45032,61.957397,-129.31458
1769255566435,-1.0917969,0.09765625,-0.65527344,46.936035,-62.25586,8.666992,0.0,0.0,0.0,158.45032,61.957397,-129.31458
1769255566447,-1.0917969,0.09765625,-0.65527344,46.936035,-62.25586,8.666992,0.0,0.0,0.0,151.51245,66.813354,-142.76184
1769255566535,-0.73046875,0.080566406,-0.48583984,26.855469,15.197754,-14.892578,0.0,0.0,0.0,151.51245,66.813354,-142.76184
1769255566547,-0.73046875,0.080566406,-0.48583984,26.855469,15.197754,-14.892578,0.0,0.0,0.0,152.45178,68.97217,-147.76611
1769255566635,-0.83740234,0.17041016,-0.38378906,-23.07129,64.27002,-36.499023,0.0,0.0,0.0,152.45178,68.97217,-147.76611
1769255566646,-0.83740234,0.17041016,-0.38378906,-23.07129,64.27002,-36.499023,0.0,0.0,0.0,161.07605,65.478516,-138.25195
1769255566735,-0.91308594,0.16015625,-0.15527344,-13.427734,-24.658203,7.507324,0.0,0.0,0.0,161.07605,65.478516,-138.25195
1769255566746,-0.91308594,0.16015625,-0.15527344,-13.427734,-24.658203,7.507324,0.0,0.0,0.0,162.6416,63.29773,-137.07092
1769255566834,-0.94873047,0.12841797,-0.44726562,-51.818848,45.532227,-31.555176,0.0,0.0,0.0,162.6416,63.29773,-137.07092
1769255566846,-0.94873047,0.12841797,-0.44726562,-51.818848,45.532227,-31.555176,0.0,0.0,0.0,163.69629,62.314453,-130.78674
1769255566934,-1.0200195,0.13232422,-0.41796875,-7.446289,-3.2348633,-0.61035156,0.0,0.0,0.0,163.69629,62.314453,-130.78674
1769255566945,-1.0200195,0.13232422,-0.41796875,-7.446289,-3.2348633,-0.61035156,0.0,0.0,0.0,165.0531,60.836792,-127.369995
1769255567034,-0.82177734,0.18261719,-0.37158203,-4.211426,-36.010742,20.080566,0.0,0.0,0.0,165.0531,60.836792,-127.369995
1769255567045,-0.82177734,0.18261719,-0.37158203,-4.211426,-36.010742,20.080566,0.0,0.0,0.0,160.88928,63.62732,-131.31958
1769255567133,-0.89208984,0.10253906,-0.47998047,1.8310547,-88.92822,24.414062,0.0,0.0,0.0,160.88928,63.62732,-131.31958
1769255567145,-0.89208984,0.10253906,-0.47998047,1.8310547,-88.92822,24.414062,0.0,0.0,0.0,148.19458,68.28003,-145.2008
1769255567233,-0.7246094,0.17333984,-0.55029297,-51.14746,12.451172,4.5166016,0.0,0.0,0.0,148.19458,68.28003,-145.2008
1769255567244,-0.7246094,0.17333984,-0.55029297,-51.14746,12.451172,4.5166016,0.0,0.0,0.0,135.48889,71.103516,-156.87927
1769255567333,-1.0771484,0.16015625,-0.42529297,-103.21045,150.20752,-51.330566,0.0,0.0,0.0,135.48889,71.103516,-156.87927
1769255567344,-1.0771484,0.16015625,-0.42529297,-103.21045,150.20752,-51.330566,0.0,0.0,0.0,151.1554,62.374878,-134.86816
1769255567432,-0.9658203,0.15185547,-0.119628906,-65.91797,-9.643555,-28.686523,0.0,0.0,0.0,151.1554,62.374878,-134.86816
1769255567444,-0.9658203,0.15185547,-0.119628906,-65.91797,-9.643555,-28.686523,0.0,0.0,0.0,154.10522,59.035034,-120.06958
1769255567532,-0.9506836,0.11230469,-0.5439453,45.34912,-57.128906,49.49951,0.0,0.0,0.0,154.10522,59.035034,-120.06958
1769255567544,-0.9506836,0.11230469,-0.5439453,45.34912,-57.128906,49.49951,0.0,0.0,0.0,144.8822,62.556152,-131.05042
1769255567632,-0.8618164,0.19433594,-0.46484375,11.413574,33.87451,-7.507324,0.0,0.0,0.0,144.8822,62.556152,-131.05042
1769255567643,-0.8618164,0.19433594,-0.46484375,11.413574,33.87451,-7.507324,0.0,0.0,0.0,145.38757,60.88623,-137.1753
1769255567732,-0.9663086,0.45654297,-0.12011719,-33.813477,45.10498,-12.023926,0.0,0.0,0.0,145.38757,60.88623,-137.1753
1769255567743,-0.9663086,0.45654297,-0.12011719,-33.813477,45.10498,-12.023926,0.0,0.0,0.0,151.00708,57.766113,-129.4519
1769255567831,-1.0097656,0.3046875,-0.42773438,-35.949707,-35.88867,2.5634766,0.0,0.0,0.0,151.00708,57.766113,-129.4519
1769255567843,-1.0097656,0.3046875,-0.42773438,-35.949707,-35.88867,2.5634766,0.0,0.0,0.0,148.09021,59.01306,-128.3313
1769255567931,-0.65234375,0.12597656,-0.35205078,-0.18310547,-51.3916,25.268555,0.0,0.0,0.0,148.09021,59.01306,-128.3313
1769255567942,-0.65234375,0.12597656,-0.35205078,-0.18310547,-51.3916,25.268555,0.0,0.0,0.0,137.54883,61.940918,-139.54285
1769255568031,-1.065918,0.35986328,-0.6298828,20.629883,-21.850586,8.422852,0.0,0.0,0.0,137.54883,61.940918,-139.54285
1769255568042,-1.065918,0.35986328,-0.6298828,20.629883,-21.850586,8.422852,0.0,0.0,0.0,130.56702,63.901978,-149.02405
1769255568130,-0.72216797,0.22314453,-0.19580078,21.850586,63.659668,-2.319336,0.0,0.0,0.0,130.56702,63.901978,-149.02405
1769255568142,-0.72216797,0.22314453,-0.19580078,21.850586,63.659668,-2.319336,0.0,0.0,0.0,138.02124,59.96338,-145.40405
1769255568230,-0.8457031,0.30615234,-0.4116211,48.217773,-55.41992,13.671875,0.0,0.0,0.0,138.02124,59.96338,-145.40405
1769255568242,-0.8457031,0.30615234,-0.4116211,48.217773,-55.41992,13.671875,0.0,0.0,0.0,136.27441,62.02881,-151.10046
1769255568330,-0.8378906,0.3383789,-0.3803711,19.16504,28.625488,-0.4272461,0.0,0.0,0.0,136.27441,62.02881,-151.10046
1769255568341,-0.8378906,0.3383789,-0.3803711,19.16504,28.625488,-0.4272461,0.0,0.0,0.0,136.49414,62.57263,-154.71497
1769255568430,-1.0205078,0.41064453,-0.12158203,31.00586,-22.644043,7.3242188,0.0,0.0,0.0,136.49414,62.57263,-154.71497
1769255568441,-1.0205078,0.41064453,-0.12158203,31.00586,-22.644043,7.3242188,0.0,0.0,0.0,139.68567,62.06726,-152.84729
1769255568529,-0.89990234,0.32861328,-0.35058594,-29.846191,12.512207,-29.968262,0.0,0.0,0.0,139.68567,62.06726,-152.84729
1769255568541,-0.89990234,0.32861328,-0.35058594,-29.846191,12.512207,-29.968262,0.0,0.0,0.0,139.3451,63.215332,-154.19861
1769255568629,-0.78271484,0.37646484,-0.29052734,-82.214355,-1.159668,-45.532227,0.0,0.0,0.0,139.3451,63.215332,-154.19861
1769255568640,-0.78271484,0.37646484,-0.29052734,-82.214355,-1.159668,-45.532227,0.0,0.0,0.0,141.89941,66.121216,-143.47595
1769255568729,-1.1044922,0.19580078,-0.5908203,22.399902,-67.38281,19.348145,0.0,0.0,0.0,141.89941,66.121216,-143.47595
1769255568740,-1.1044922,0.19580078,-0.5908203,22.399902,-67.38281,19.348145,0.0,0.0,0.0,134.37378,67.74719,-149.15588
1769255568828,-0.6040039,0.087890625,-0.3696289,14.160156,53.710938,10.620117,0.0,0.0,0.0,134.37378,67.74719,-149.15588
1769255568841,-0.6040039,0.087890625,-0.3696289,14.160156,53.710938,10.620117,0.0,0.0,0.0,131.09436,66.51123,-157.28027
1769255568928,-1.1484375,0.3930664,-0.24169922,-34.484863,98.93799,-23.19336,0.0,0.0,0.0,131.09436,66.51123,-157.28027
1769255568939,-1.1484375,0.3930664,-0.24169922,-34.484863,98.93799,-23.19336,0.0,0.0,0.0,146.59607,60.22705,-141.33362
1769255569028,-0.87890625,0.18652344,-0.35791016,-2.1972656,-29.60205,3.90625,0.0,0.0,0.0,146.59607,60.22705,-141.33362
1769255569040,-0.87890625,0.18652344,-0.35791016,-2.1972656,-29.60205,3.90625,0.0,0.0,0.0,146.9751,59.34265,-139.3341
1769255569127,-0.9057617,0.24121094,-0.47509766,26.367188,-21.66748,12.451172,0.0,0.0,0.0,146.9751,59.34265,-139.3341
1769255569139,-0.9057617,0.24121094,-0.47509766,26.367188,-21.66748,12.451172,0.0,0.0,0.0,144.7174,60.908203,-144.8053
1769255569227,-0.99316406,0.29003906,-0.28515625,-9.643555,54.138184,-7.5683594,0.0,0.0,0.0,144.7174,60.908203,-144.8053
1769255569239,-0.99316406,0.29003906,-0.28515625,-9.643555,54.138184,-7.5683594,0.0,0.0,0.0,146.58508,59.935913,-144.77234
1769255569327,-1.0180664,0.25341797,-0.32128906,-19.28711,-36.376953,-26.062012,0.0,0.0,0.0,146.58508,59.935913,-144.77234
1769255569338,-1.0180664,0.25341797,-0.32128906,-19.28711,-36.376953,-26.062012,0.0,0.0,0.0,149.21082,59.51294,-138.80127
1769255569426,-0.6689453,0.16552734,-0.32617188,-28.503418,-60.85205,-20.935059,0.0,0.0,0.0,149.21082,59.51294,-138.80127
1769255569438,-0.6689453,0.16552734,-0.32617188,-28.503418,-60.85205,-20.935059,0.0,0.0,0.0,143.2013,66.00586,-144.7229
1769255569526,-1.0703125,0.27148438,-0.6166992,3.112793,-9.338379,-2.746582,0.0,0.0,0.0,143.2013,66.00586,-144.7229
1769255569538,-1.0703125,0.27148438,-0.6166992,3.112793,-9.338379,-2.746582,0.0,0.0,0.0,138.90564,70.372925,-147.854
1769255569626,-0.7680664,0.1459961,-0.0625,52.06299,15.869141,26.794434,0.0,0.0,0.0,138.90564,70.372925,-147.854
1769255569637,-0.7680664,0.1459961,-0.0625,52.06299,15.869141,26.794434,0.0,0.0,0.0,144.9701,65.53894,-147.75513
1769255569725,-0.9707031,0.31152344,-0.4741211,57.9834,-42.541504,39.916992,0.0,0.0,0.0,144.9701,65.53894,-147.75513
1769255569737,-0.9707031,0.31152344,-0.4741211,57.9834,-42.541504,39.916992,0.0,0.0,0.0,137.93884,67.51648,-162.21863
1769255569825,-0.8666992,0.3491211,-0.3383789,17.63916,42.419434,-2.5024414,0.0,0.0,0.0,137.93884,67.51648,-162.21863
1769255569837,-0.8666992,0.3491211,-0.3383789,17.63916,42.419434,-2.5024414,0.0,0.0,0.0,139.30115,65.96741,-166.20667
1769255569925,-1.0463867,0.2680664,-0.1743164,-2.4414062,4.4555664,-4.8828125,0.0,0.0,0.0,139.30115,65.96741,-166.20667
1769255569937,-1.0463867,0.2680664,-0.1743164,-2.4414062,4.4555664,-4.8828125,0.0,0.0,0.0,144.7229,63.775635,-160.58167
1769255570025,-0.9345703,0.32666016,-0.38330078,-12.451172,14.953613,-1.4648438,0.0,0.0,0.0,144.7229,63.775635,-160.58167
1769255570036,-0.9345703,0.32666016,-0.38330078,-12.451172,14.953613,-1.4648438,0.0,0.0,0.0,145.00854,62.819824,-160.69702
1769255570124,-0.8642578,0.27246094,-0.3671875,-37.719727,8.666992,-5.3710938,0.0,0.0,0.0,145.00854,62.819824,-160.69702
1769255570136,-0.8642578,0.27246094,-0.3671875,-37.719727,8.666992,-5.3710938,0.0,0.0,0.0,144.02527,62.402344,-158.42285
1769255570224,-0.8959961,0.1665039,-0.41064453,-14.221191,-7.6293945,-5.554199,0.0,0.0,0.0,144.02527,62.402344,-158.42285
1769255570235,-0.8959961,0.1665039,-0.41064453,-14.221191,-7.6293945,-5.554199,0.0,0.0,0.0,142.32239,62.319946,-158.2196
1769255570324,-0.89746094,0.19921875,-0.41503906,-2.0751953,-10.192871,-13.366699,0.0,0.0,0.0,142.32239,62.319946,-158.2196
1769255570335,-0.89746094,0.19921875,-0.41503906,-2.0751953,-10.192871,-13.366699,0.0,0.0,0.0,142.01477,63.517456,-158.5437
1769255570424,-0.89941406,0.37597656,-0.41357422,-24.353027,18.249512,-27.832031,0.0,0.0,0.0,142.01477,63.517456,-158.5437
1769255570435,-0.89941406,0.37597656,-0.41357422,-24.353027,18.249512,-27.832031,0.0,0.0,0.0,144.47021,65.23682,-155.7312
1769255570523,-0.9057617,0.06640625,-0.2626953,-3.90625,45.654297,-2.9296875,0.0,0.0,0.0,144.47021,65.23682,-155.7312
1769255570535,-0.9057617,0.06640625,-0.2626953,-3.90625,45.654297,-2.9296875,0.0,0.0,0.0,149.79858,62.072754,-148.24402
1769255570623,-1.0976562,0.27685547,-0.111328125,24.719238,-35.949707,24.536133,0.0,0.0,0.0,149.79858,62.072754,-148.24402
1769255570635,-1.0976562,0.27685547,-0.111328125,24.719238,-35.949707,24.536133,0.0,0.0,0.0,150.88074,61.831055,-148.08472
1769255570722,-1.0136719,0.16015625,-0.32958984,39.489746,-43.518066,29.296875,0.0,0.0,0.0,150.88074,61.831055,-148.08472
1769255570734,-1.0136719,0.16015625,-0.32958984,39.489746,-43.518066,29.296875,0.0,0.0,0.0,143.95935,64.2041,-159.97192
1769255570823,-0.96777344,0.24853516,-0.3798828,-9.765625,-31.61621,-28.747559,0.0,0.0,0.0,143.95935,64.2041,-159.97192
1769255570834,-0.96777344,0.24853516,-0.3798828,-9.765625,-31.61621,-28.747559,0.0,0.0,0.0,142.229,66.83533,-164.729
1769255570922,-0.64160156,0.26416016,-0.3046875,-34.851074,-22.277832,-13.85498,0.0,0.0,0.0,142.229,66.83533,-164.729
1769255570934,-0.64160156,0.26416016,-0.3046875,-34.851074,-22.277832,-13.85498,0.0,0.0,0.0,139.6637,71.39465,-166.36047
1769255571022,-1.0449219,0.30322266,-0.5566406,12.145996,10.986328,16.357422,0.0,0.0,0.0,139.6637,71.39465,-166.36047
1769255571033,-1.0449219,0.30322266,-0.5566406,12.145996,10.986328,16.357422,0.0,0.0,0.0,137.68066,71.62537,-167.20642
1769255571121,-0.86035156,0.16357422,-0.22607422,34.057617,28.198242,7.873535,0.0,0.0,0.0,137.68066,71.62537,-167.20642
1769255571133,-0.86035156,0.16357422,-0.22607422,34.057617,28.198242,7.873535,0.0,0.0,0.0,143.08044,65.85205,-167.05261
1769255571221,-0.92285156,0.42236328,-0.14990234,-14.892578,-12.023926,-12.451172,0.0,0.0,0.0,143.08044,65.85205,-167.05261
1769255571233,-0.92285156,0.42236328,-0.14990234,-14.892578,-12.023926,-12.451172,0.0,0.0,0.0,145.11841,67.126465,-165.92102
1769255571321,-0.96972656,0.16064453,-0.44384766,-45.654297,35.949707,-34.851074,0.0,0.0,0.0,145.11841,67.126465,-165.92102
1769255571333,-0.96972656,0.16064453,-0.44384766,-45.654297,35.949707,-34.851074,0.0,0.0,0.0,147.55188,68.07678,-159.22485
1769255571420,-1.0151367,0.2602539,-0.24316406,2.5634766,-24.841309,-7.6293945,0.0,0.0,0.0,147.55188,68.07678,-159.22485
1769255571432,-1.0151367,0.2602539,-0.24316406,2.5634766,-24.841309,-7.6293945,0.0,0.0,0.0,151.3916,66.63757,-152.63855
1769255571520,-0.8129883,0.23925781,-0.4296875,17.76123,-4.9438477,45.043945,0.0,0.0,0.0,151.3916,66.63757,-152.63855
1769255571532,-0.8129883,0.23925781,-0.4296875,17.76123,-4.9438477,45.043945,0.0,0.0,0.0,141.49841,68.291016,-164.3335
1769255571620,-0.94433594,0.08300781,-0.35888672,-29.846191,72.631836,-4.211426,0.0,0.0,0.0,141.49841,68.291016,-164.3335
1769255571631,-0.94433594,0.08300781,-0.35888672,-29.846191,72.631836,-4.211426,0.0,0.0,0.0,145.29419,62.39685,-161.24634
1769255571719,-0.9194336,0.23779297,-0.24414062,21.972656,-21.362305,18.554688,0.0,0.0,0.0,145.29419,62.39685,-161.24634
1769255571731,-0.9194336,0.23779297,-0.24414062,21.972656,-21.362305,18.554688,0.0,0.0,0.0,146.8872,61.100464,-159.79614
1769255571819,-0.8129883,0.2578125,-0.36083984,-0.12207031,-35.52246,9.643555,0.0,0.0,0.0,146.8872,61.100464,-159.79614
1769255571830,-0.8129883,0.2578125,-0.36083984,-0.12207031,-35.52246,9.643555,0.0,0.0,0.0,142.09167,63.22632,-167.42615
1769255571919,-0.92529297,0.25732422,-0.4897461,17.089844,-12.512207,18.554688,0.0,0.0,0.0,142.09167,63.22632,-167.42615
1769255571930,-0.92529297,0.25732422,-0.4897461,17.089844,-12.512207,18.554688,0.0,0.0,0.0,138.11462,64.37988,-174.55627
1769255572018,-0.8515625,0.31982422,-0.33251953,-23.742676,57.06787,-20.019531,0.0,0.0,0.0,138.11462,64.37988,-174.55627
1769255572030,-0.8515625,0.31982422,-0.33251953,-23.742676,57.06787,-20.019531,0.0,0.0,0.0,142.20703,62.649536,-171.27686
1769255572118,-1.0126953,0.25976562,-0.17919922,-36.56006,4.699707,-22.705078,0.0,0.0,0.0,142.20703,62.649536,-171.27686
1769255572130,-1.0126953,0.25976562,-0.17919922,-36.56006,4.699707,-22.705078,0.0,0.0,0.0,146.36536,60.88623,-161.44409
1769255572218,-0.87939453,0.1665039,-0.3798828,22.094727,-31.921387,17.028809,0.0,0.0,0.0,146.36536,60.88623,-161.44409
1769255572229,-0.87939453,0.1665039,-0.3798828,22.094727,-31.921387,17.028809,0.0,0.0,0.0,142.09717,63.10547,-166.51428
1769255572318,-0.9199219,0.25878906,-0.41992188,16.113281,11.352539,-0.7324219,0.0,0.0,0.0,142.09717,63.10547,-166.51428
1769255572329,-0.9199219,0.25878906,-0.41992188,16.113281,11.352539,-0.7324219,0.0,0.0,0.0,142.37183,63.709717,-169.6344
1769255572417,-0.82177734,0.23925781,-0.25585938,12.573242,12.329102,-2.5634766,0.0,0.0,0.0,142.37183,63.709717,-169.6344
1769255572429,-0.82177734,0.23925781,-0.25585938,12.573242,12.329102,-2.5634766,0.0,0.0,0.0,146.9751,62.25403,-167.06909
1769255572517,-0.91845703,0.28320312,-0.4008789,-7.2631836,-22.583008,-9.216309,0.0,0.0,0.0,146.9751,62.25403,-167.06909
1769255572529,-0.91845703,0.28320312,-0.4008789,-7.2631836,-22.583008,-9.216309,0.0,0.0,0.0,147.22778,63.68225,-167.64038
1769255572617,-0.8496094,0.32470703,-0.44482422,-8.7890625,-10.375977,-1.8920898,0.0,0.0,0.0,147.22778,63.68225,-167.64038
1769255572628,-0.8496094,0.32470703,-0.44482422,-8.7890625,-10.375977,-1.8920898,0.0,0.0,0.0,145.09644,65.72571,-169.28284
1769255572716,-0.9370117,0.2163086,-0.4272461,-0.48828125,41.68701,10.803223,0.0,0.0,0.0,145.09644,65.72571,-169.28284
1769255572728,-0.9370117,0.2163086,-0.4272461,-0.48828125,41.68701,10.803223,0.0,0.0,0.0,145.6018,63.028564,-169.21692
1769255572816,-0.98535156,0.28710938,-0.18798828,-6.225586,-9.643555,-5.79834,0.0,0.0,0.0,145.6018,63.028564,-169.21692
1769255572828,-0.98535156,0.28710938,-0.18798828,-6.225586,-9.643555,-5.79834,0.0,0.0,0.0,147.62878,61.001587,-166.30554
1769255572916,-0.8754883,0.22558594,-0.41845703,6.164551,-37.04834,4.0893555,0.0,0.0,0.0,147.62878,61.001587,-166.30554
1769255572927,-0.8754883,0.22558594,-0.41845703,6.164551,-37.04834,4.0893555,0.0,0.0,0.0,143.65173,63.86902,-171.78772
1769255573016,-0.8930664,0.21826172,-0.4111328,-4.638672,20.446777,-7.9345703,0.0,0.0,0.0,143.65173,63.86902,-171.78772
1769255573027,-0.8930664,0.21826172,-0.4111328,-4.638672,20.446777,-7.9345703,0.0,0.0,0.0,143.09143,64.65454,-173.40271
1769255573115,-0.98046875,0.23876953,-0.20947266,-0.91552734,4.211426,-6.591797,0.0,0.0,0.0,143.09143,64.65454,-173.40271
1769255573127,-0.98046875,0.23876953,-0.20947266,-0.91552734,4.211426,-6.591797,0.0,0.0,0.0,147.00256,63.396606,-169.16748
1769255573215,-0.89990234,0.2290039,-0.35546875,10.314941,-19.16504,4.8828125,0.0,0.0,0.0,147.00256,63.396606,-169.16748
1769255573227,-0.89990234,0.2290039,-0.35546875,10.314941,-19.16504,4.8828125,0.0,0.0,0.0,145.6018,64.714966,-172.05688
1769255573315,-0.9140625,0.265625,-0.33691406,-7.1411133,6.652832,-3.6621094,0.0,0.0,0.0,145.6018,64.714966,-172.05688
1769255573327,-0.9140625,0.265625,-0.33691406,-7.1411133,6.652832,-3.6621094,0.0,0.0,0.0,145.07996,65.2478,-173.33679
1769255573414,-0.91796875,0.25,-0.3203125,-4.9438477,-2.9296875,-0.5493164,0.0,0.0,0.0,145.07996,65.2478,-173.33679
1769255573426,-0.91796875,0.25,-0.3203125,-4.9438477,-2.9296875,-0.5493164,0.0,0.0,0.0,145.16785,65.23682,-172.79846
1769255573514,-0.90283203,0.25097656,-0.3515625,-2.0751953,0.9765625,1.8310547,0.0,0.0,0.0,145.16785,65.23682,-172.79846
1769255573525,-0.90283203,0.25097656,-0.3515625,-2.0751953,0.9765625,1.8310547,0.0,0.0,0.0,144.29443,65.374146,-173.90259
1769255573614,-0.9238281,0.24658203,-0.3251953,-3.8452148,4.5776367,1.3427734,0.0,0.0,0.0,144.29443,65.374146,-173.90259
1769255573625,-0.9238281,0.24658203,-0.3251953,-3.8452148,4.5776367,1.3427734,0.0,0.0,0.0,144.19556,64.96216,-174.14429
1769255573713,-0.9243164,0.24804688,-0.32128906,-5.6152344,2.0141602,-0.12207031,0.0,0.0,0.0,144.19556,64.96216,-174.14429
1769255573725,-0.9243164,0.24804688,-0.32128906,-5.6152344,2.0141602,-0.12207031,0.0,0.0,0.0,143.97583,64.67651,-174.33105
1769255573813,-0.9135742,0.26416016,-0.31884766,-3.6010742,-3.4179688,1.7700195,0.0,0.0,0.0,143.97583,64.67651,-174.33105
1769255573825,-0.9135742,0.26416016,-0.31884766,-3.6010742,-3.4179688,1.7700195,0.0,0.0,0.0,143.09692,64.72046,-175.19348
1769255573913,-0.8911133,0.2553711,-0.3310547,-5.432129,-2.9296875,0.91552734,0.0,0.0,0.0,143.09692,64.72046,-175.19348
1769255573924,-0.8911133,0.2553711,-0.3310547,-5.432129,-2.9296875,0.91552734,0.0,0.0,0.0,141.9104,64.89624,-176.38
1769255574012,-0.9375,0.2631836,-0.31884766,-6.225586,-3.0517578,-5.6762695,0.0,0.0,0.0,141.9104,64.89624,-176.38
1769255574024,-0.9375,0.2631836,-0.31884766,-6.225586,-3.0517578,-5.6762695,0.0,0.0,0.0,141.13037,65.093994,-177.0227
1769255574112,-0.8730469,0.28173828,-0.34570312,-24.475098,-17.700195,-28.9917,0.0,0.0,0.0,141.13037,65.093994,-177.0227
1769255574124,-0.8730469,0.28173828,-0.34570312,-24.475098,-17.700195,-28.9917,0.0,0.0,0.0,141.08643,67.142944,-176.07788
1769255574212,-0.9453125,0.21728516,-0.3857422,-33.02002,28.320312,-18.066406,0.0,0.0,0.0,141.08643,67.142944,-176.07788
1769255574223,-0.9453125,0.21728516,-0.3857422,-33.02002,28.320312,-18.066406,0.0,0.0,0.0,143.42651,68.4613,-170.1947
1769255574312,-0.9321289,0.07128906,-0.234375,-12.207031,12.512207,-7.8125,0.0,0.0,0.0,143.42651,68.4613,-170.1947
1769255574324,-0.9321289,0.07128906,-0.234375,-12.207031,12.512207,-7.8125,0.0,0.0,0.0,147.32117,66.63208,-163.78418
1769255574411,-0.95166016,0.16357422,-0.30273438,22.033691,-9.887695,-0.8544922,0.0,0.0,0.0,147.32117,66.63208,-163.78418
1769255574423,-0.95166016,0.16357422,-0.30273438,22.033691,-9.887695,-0.8544922,0.0,0.0,0.0,149.57336,67.12097,-162.82837
1769255574511,-0.9038086,0.22363281,-0.35595703,5.3100586,-6.7749023,-3.2958984,0.0,0.0,0.0,149.57336,67.12097,-162.82837
1769255574523,-0.9038086,0.22363281,-0.35595703,5.3100586,-6.7749023,-3.2958984,0.0,0.0,0.0,150.51819,67.76367,-165.48706
1769255574611,-0.8022461,0.39257812,-0.2475586,-78.063965,9.887695,-23.864746,0.0,0.0,0.0,150.51819,67.76367,-165.48706
1769255574622,-0.8022461,0.39257812,-0.2475586,-78.063965,9.887695,-23.864746,0.0,0.0,0.0,148.29346,68.115234,-164.04236
1769255574710,-1.0224609,0.079589844,-0.49316406,-83.80127,68.481445,-17.089844,0.0,0.0,0.0,148.29346,68.115234,-164.04236
1769255574722,-1.0224609,0.079589844,-0.49316406,-83.80127,68.481445,-17.089844,0.0,0.0,0.0,147.60132,66.00037,-155.86853
1769255574810,-1.0107422,-0.05419922,-0.099609375,-79.52881,64.453125,-28.381348,0.0,0.0,0.0,147.60132,66.00037,-155.86853
1769255574822,-1.0107422,-0.05419922,-0.099609375,-79.52881,64.453125,-28.381348,0.0,0.0,0.0,152.06177,60.287476,-142.53662
1769255574910,-0.9746094,0.16894531,-0.40283203,-8.666992,-55.358887,-11.291504,0.0,0.0,0.0,152.06177,60.287476,-142.53662
1769255574921,-0.9746094,0.16894531,-0.40283203,-8.666992,-55.358887,-11.291504,0.0,0.0,0.0,151.93542,62.62207,-139.86145
1769255575010,-0.83154297,0.27441406,-0.40625,21.66748,-12.390137,21.728516,0.0,0.0,0.0,151.93542,62.62207,-139.86145
1769255575021,-0.83154297,0.27441406,-0.40625,21.66748,-12.390137,21.728516,0.0,0.0,0.0,145.50842,65.80261,-150.38635
1769255575109,-0.8925781,0.2944336,-0.38134766,-35.095215,24.719238,-11.59668,0.0,0.0,0.0,145.50842,65.80261,-150.38635
1769255575121,-0.8925781,0.2944336,-0.38134766,-35.095215,24.719238,-11.59668,0.0,0.0,0.0,146.98608,64.96765,-145.72266
1769255575209,-0.9042969,0.20507812,-0.2939453,-2.380371,10.803223,9.643555,0.0,0.0,0.0,146.98608,64.96765,-145.72266
1769255575222,-0.9042969,0.20507812,-0.2939453,-2.380371,10.803223,9.643555,0.0,0.0,0.0,146.66748,63.12744,-145.16235
1769255575309,-0.94873047,0.26416016,-0.29589844,-20.874023,-14.465332,-4.5166016,0.0,0.0,0.0,146.66748,63.12744,-145.16235
1769255575321,-0.94873047,0.26416016,-0.29589844,-20.874023,-14.465332,-4.5166016,0.0,0.0,0.0,144.91516,63.621826,-144.76685
1769255575408,-0.89941406,0.2368164,-0.36572266,5.554199,-21.484375,10.986328,0.0,0.0,0.0,144.91516,63.621826,-144.76685
1769255575420,-0.89941406,0.2368164,-0.36572266,5.554199,-21.484375,10.986328,0.0,0.0,0.0,140.3888,64.81384,-150.19409
1769255575508,-0.9008789,0.23583984,-0.38378906,-6.652832,9.58252,-6.4697266,0.0,0.0,0.0,140.3888,64.81384,-150.19409
1769255575520,-0.9008789,0.23583984,-0.38378906,-6.652832,9.58252,-6.4697266,0.0,0.0,0.0,139.77905,65.34668,-150.7544
1769255575608,-0.9399414,0.24902344,-0.2631836,0.0,11.59668,-5.6762695,0.0,0.0,0.0,139.77905,65.34668,-150.7544
1769255575619,-0.9399414,0.24902344,-0.2631836,0.0,11.59668,-5.6762695,0.0,0.0,0.0,143.3606,64.42932,-146.76086
1769255575708,-0.9238281,0.26953125,-0.32421875,6.225586,-15.319824,6.4086914,0.0,0.0,0.0,143.3606,64.42932,-146.76086
1769255575719,-0.9238281,0.26953125,-0.32421875,6.225586,-15.319824,6.4086914,0.0,0.0,0.0,142.20703,65.0061,-148.67798
1769255575807,-0.9057617,0.2841797,-0.34326172,-10.986328,-1.2817383,-3.90625,0.0,0.0,0.0,142.20703,65.0061,-148.67798
1769255575819,-0.9057617,0.2841797,-0.34326172,-10.986328,-1.2817383,-3.90625,0.0,0.0,0.0,140.7074,65.6488,-149.9469
1769255575907,-0.9165039,0.2553711,-0.32128906,-13.122559,2.6245117,-2.9296875,0.0,0.0,0.0,140.7074,65.6488,-149.9469
1769255575918,-0.9165039,0.2553711,-0.32128906,-13.122559,2.6245117,-2.9296875,0.0,0.0,0.0,140.26794,65.71472,-149.02405
1769255576007,-0.9213867,0.2529297,-0.3203125,-16.174316,6.591797,-5.9814453,0.0,0.0,0.0,140.26794,65.71472,-149.02405
1769255576018,-0.9213867,0.2529297,-0.3203125,-16.174316,6.591797,-5.9814453,0.0,0.0,0.0,140.27344,65.65979,-147.54639
1769255576106,-0.9145508,0.26367188,-0.29785156,-16.235352,5.92041,-6.225586,0.0,0.0,0.0,140.27344,65.65979,-147.54639
1769255576118,-0.9145508,0.26367188,-0.29785156,-16.235352,5.92041,-6.225586,0.0,0.0,0.0,140.7898,65.511475,-145.40405
1769255576206,-0.9165039,0.22558594,-0.30810547,-19.89746,4.760742,-9.399414,0.0,0.0,0.0,140.7898,65.511475,-145.40405
1769255576217,-0.9165039,0.22558594,-0.30810547,-19.89746,4.760742,-9.399414,0.0,0.0,0.0,140.93811,65.6488,-143.22876
1769255576306,-0.90771484,0.22216797,-0.31640625,-10.009766,3.8452148,-5.2490234,0.0,0.0,0.0,140.93811,65.6488,-143.22876
1769255576317,-0.90771484,0.22216797,-0.31640625,-10.009766,3.8452148,-5.2490234,0.0,0.0,0.0,141.47644,65.83557,-141.23474
1769255576405,-0.9394531,0.2421875,-0.2866211,-20.812988,6.4697266,-12.145996,0.0,0.0,0.0,141.47644,65.83557,-141.23474
1769255576417,-0.9394531,0.2421875,-0.2866211,-20.812988,6.4697266,-12.145996,0.0,0.0,0.0,142.4762,65.912476,-138.76831
1769255576505,-0.9316406,0.20507812,-0.29736328,-6.652832,0.061035156,-2.8686523,0.0,0.0,0.0,142.4762,65.912476,-138.76831
1769255576517,-0.9316406,0.20507812,-0.29736328,-6.652832,0.061035156,-2.8686523,0.0,0.0,0.0,142.60254,66.33545,-137.0874
1769255576605,-0.95654297,0.25097656,-0.23486328,-3.3569336,-4.5166016,-2.380371,0.0,0.0,0.0,142.60254,66.33545,-137.0874
1769255576616,-0.95654297,0.25097656,-0.23486328,-3.3569336,-4.5166016,-2.380371,0.0,0.0,0.0,142.7124,66.692505,-136.41174
1769255576705,-0.95751953,0.22509766,-0.2861328,4.5776367,-11.59668,1.159668,0.0,0.0,0.0,142.7124,66.692505,-136.41174
1769255576716,-0.95751953,0.22509766,-0.2861328,4.5776367,-11.59668,1.159668,0.0,0.0,0.0,140.71838,67.75818,-138.55408
1769255576804,-0.92626953,0.22851562,-0.2607422,15.197754,-13.366699,7.751465,0.0,0.0,0.0,140.71838,67.75818,-138.55408
1769255576816,-0.92626953,0.22851562,-0.2607422,15.197754,-13.366699,7.751465,0.0,0.0,0.0,139.13086,68.31299,-141.36658
1769255576904,-0.92333984,0.25048828,-0.2866211,19.348145,-2.2583008,8.605957,0.0,0.0,0.0,139.13086,68.31299,-141.36658
1769255576915,-0.92333984,0.25048828,-0.2866211,19.348145,-2.2583008,8.605957,0.0,0.0,0.0,138.03223,68.37341,-144.69543
1769255577004,-0.9316406,0.27197266,-0.28125,12.023926,-2.9907227,6.5307617,0.0,0.0,0.0,138.03223,68.37341,-144.69543
1769255577015,-0.9316406,0.27197266,-0.28125,12.023926,-2.9907227,6.5307617,0.0,0.0,0.0,137.76306,68.010864,-146.92017
1769255577103,-0.93310547,0.2626953,-0.2758789,1.7089844,0.61035156,2.746582,0.0,0.0,0.0,137.76306,68.010864,-146.92017
1769255577115,-0.93310547,0.2626953,-0.2758789,1.7089844,0.61035156,2.746582,0.0,0.0,0.0,137.53235,67.697754,-147.88696
1769255577203,-0.92822266,0.25390625,-0.28076172,-3.6621094,2.0141602,-0.30517578,0.0,0.0,0.0,137.53235,67.697754,-147.88696
1769255577215,-0.92822266,0.25390625,-0.28076172,-3.6621094,2.0141602,-0.30517578,0.0,0.0,0.0,137.31812,67.52197,-148.04077
1769255577303,-0.9345703,0.26513672,-0.27441406,-9.338379,7.507324,-2.0141602,0.0,0.0,0.0,137.31812,67.52197,-148.04077
1769255577314,-0.9345703,0.26513672,-0.27441406,-9.338379,7.507324,-2.0141602,0.0,0.0,0.0,137.59827,67.28027,-147.14539
1769255577403,-0.9355469,0.24658203,-0.27978516,-10.7421875,5.493164,-2.746582,0.0,0.0,0.0,137.59827,67.28027,-147.14539
1769255577414,-0.9355469,0.24658203,-0.27978516,-10.7421875,5.493164,-2.746582,0.0,0.0,0.0,138.04321,66.97266,-145.50842
1769255577502,-0.9555664,0.22802734,-0.2705078,-0.36621094,8.911133,-1.5258789,0.0,0.0,0.0,138.04321,66.97266,-145.50842
1769255577514,-0.9555664,0.22802734,-0.2705078,-0.36621094,8.911133,-1.5258789,0.0,0.0,0.0,139.03748,66.62659,-143.73413
1769255577602,-0.95654297,0.2319336,-0.2133789,25.634766,-0.8544922,16.723633,0.0,0.0,0.0,139.03748,66.62659,-143.73413
1769255577613,-0.95654297,0.2319336,-0.2133789,25.634766,-0.8544922,16.723633,0.0,0.0,0.0,140.24597,66.154175,-143.70117
1769255577702,-0.9008789,0.25,-0.29003906,59.936523,-26.794434,35.52246,0.0,0.0,0.0,140.24597,66.154175,-143.70117
1769255577713,-0.9008789,0.25,-0.29003906,59.936523,-26.794434,35.52246,0.0,0.0,0.0,137.69165,65.54443,-151.44104
1769255577801,-0.93115234,0.31201172,-0.359375,41.44287,-15.380859,16.845703,0.0,0.0,0.0,137.69165,65.54443,-151.44104
1769255577814,-0.93115234,0.31201172,-0.359375,41.44287,-15.380859,16.845703,0.0,0.0,0.0,135.09888,65.1709,-160.65857
1769255577901,-0.86572266,0.29638672,-0.31201172,2.1362305,16.540527,-3.2348633,0.0,0.0,0.0,135.09888,65.1709,-160.65857
1769255577913,-0.86572266,0.29638672,-0.31201172,2.1362305,16.540527,-3.2348633,0.0,0.0,0.0,135.87341,65.20386,-162.21313
1769255578001,-0.94873047,0.2836914,-0.3017578,-3.7841797,0.30517578,-7.9956055,0.0,0.0,0.0,135.87341,65.20386,-162.21313
1769255578012,-0.94873047,0.2836914,-0.3017578,-3.7841797,0.30517578,-7.9956055,0.0,0.0,0.0,138.48267,64.75342,-158.88428
1769255578100,-0.8129883,0.23095703,-0.3540039,-8.239746,-15.869141,0.0,0.0,0.0,0.0,138.48267,64.75342,-158.88428
1769255578112,-0.8129883,0.23095703,-0.3540039,-8.239746,-15.869141,0.0,0.0,0.0,0.0,137.07642,65.54443,-160.04883
1769255578200,-1.0776367,0.19873047,-0.296875,-42.053223,-77.88086,111.450195,0.0,0.0,0.0,137.07642,65.54443,-160.04883
1769255578212,-1.0776367,0.19873047,-0.296875,-42.053223,-77.88086,111.450195,0.0,0.0,0.0,123.74451,64.82483,-173.52905
1769255578300,-0.8198242,0.61328125,-0.18798828,-9.338379,-43.21289,-49.865723,0.0,0.0,0.0,123.74451,64.82483,-173.52905
1769255578311,-0.8198242,0.61328125,-0.18798828,-9.338379,-43.21289,-49.865723,0.0,0.0,0.0,112.576904,64.39087,174.9408
1769255578400,-1.0058594,0.20800781,-0.059570312,-17.578125,33.38623,-41.992188,0.0,0.0,0.0,112.576904,64.39087,174.9408
1769255578411,-1.0058594,0.20800781,-0.059570312,-17.578125,33.38623,-41.992188,0.0,0.0,0.0,110.36316,67.85156,174.34204
1769255578499,-1.019043,0.24853516,-0.15820312,26.489258,-5.2490234,-3.3569336,0.0,0.0,0.0,110.36316,67.85156,174.34204
1769255578511,-1.019043,0.24853516,-0.15820312,26.489258,-5.2490234,-3.3569336,0.0,0.0,0.0,117.89429,70.1532,-176.24817
1769255578599,-0.8129883,0.26660156,-0.099121094,93.99414,-14.587402,20.751953,0.0,0.0,0.0,117.89429,70.1532,-176.24817
1769255578611,-0.8129883,0.26660156,-0.099121094,93.99414,-14.587402,20.751953,0.0,0.0,0.0,116.60339,69.60388,175.75378
1769255578699,-1.0708008,0.35742188,-0.1586914,43.640137,28.9917,-0.30517578,0.0,0.0,0.0,116.60339,69.60388,175.75378
1769255578710,-1.0708008,0.35742188,-0.1586914,43.640137,28.9917,-0.30517578,0.0,0.0,0.0,123.87085,68.2251,175.9021
1769255578799,-0.9160156,0.40185547,-0.22607422,64.819336,-51.574707,4.5166016,0.0,0.0,0.0,123.87085,68.2251,175.9021
1769255578810,-0.9160156,0.40185547,-0.22607422,64.819336,-51.574707,4.5166016,0.0,0.0,0.0,126.694336,68.19214,174.02893
1769255578898,-0.8305664,0.4296875,-0.30322266,45.34912,-19.226074,24.719238,0.0,0.0,0.0,126.694336,68.19214,174.02893
1769255578910,-0.8305664,0.4296875,-0.30322266,45.34912,-19.226074,24.719238,0.0,0.0,0.0,120.36621,68.71948,161.69128
1769255578998,-0.86376953,0.29785156,-0.38134766,44.86084,3.90625,25.6958,0.0,0.0,0.0,120.36621,68.71948,161.69128
1769255579009,-0.86376953,0.29785156,-0.38134766,44.86084,3.90625,25.6958,0.0,0.0,0.0,119.61914,66.659546,155.74768
1769255579098,-0.92578125,0.24316406,-0.22070312,21.66748,46.325684,1.2207031,0.0,0.0,0.0,119.61914,66.659546,155.74768
1769255579109,-0.92578125,0.24316406,-0.22070312,21.66748,46.325684,1.2207031,0.0,0.0,0.0,129.35303,63.078003,161.86157
1769255579197,-0.7236328,0.19335938,-0.22265625,67.68799,-37.353516,20.629883,0.0,0.0,0.0,129.35303,63.078003,161.86157
1769255579209,-0.7236328,0.19335938,-0.22265625,67.68799,-37.353516,20.629883,0.0,0.0,0.0,131.84143,63.45703,158.83484
1769255579297,-1.390625,0.75146484,-0.2626953,40.100098,-15.197754,28.076172,0.0,0.0,0.0,131.84143,63.45703,158.83484
1769255579309,-1.390625,0.75146484,-0.2626953,40.100098,-15.197754,28.076172,0.0,0.0,0.0,130.9845,63.533936,150.93018
1769255579397,-0.89990234,0.23828125,-0.25195312,27.46582,53.222656,-11.535645,0.0,0.0,0.0,130.9845,63.533936,150.93018
1769255579408,-0.89990234,0.23828125,-0.25195312,27.46582,53.222656,-11.535645,0.0,0.0,0.0,135.85693,62.95166,155.24231
1769255579496,-0.93359375,0.46435547,-0.17089844,73.12012,-54.748535,30.639648,0.0,0.0,0.0,135.85693,62.95166,155.24231
1769255579508,-0.93359375,0.46435547,-0.17089844,73.12012,-54.748535,30.639648,0.0,0.0,0.0,138.91663,62.53418,153.22632
1769255579596,-0.85058594,0.4819336,-0.37451172,-20.568848,-19.53125,-1.953125,0.0,0.0,0.0,138.91663,62.53418,153.22632
1769255579608,-0.85058594,0.4819336,-0.37451172,-20.568848,-19.53125,-1.953125,0.0,0.0,0.0,131.55579,65.077515,142.92114
1769255579696,-0.9482422,0.16210938,-0.38232422,-45.22705,50.964355,-28.808594,0.0,0.0,0.0,131.55579,65.077515,142.92114
1769255579707,-0.9482422,0.16210938,-0.38232422,-45.22705,50.964355,-28.808594,0.0,0.0,0.0,133.50586,64.86328,150.15015
1769255579796,-0.9667969,0.1586914,-0.10253906,11.71875,-5.9814453,2.4414062,0.0,0.0,0.0,133.50586,64.86328,150.15015
1769255579807,-0.9667969,0.1586914,-0.10253906,11.71875,-5.9814453,2.4414062,0.0,0.0,0.0,138.83423,63.83606,156.24207
1769255579895,-0.87841797,0.17871094,-0.39208984,17.578125,-65.73486,-5.554199,0.0,0.0,0.0,138.83423,63.83606,156.24207
1769255579907,-0.87841797,0.17871094,-0.39208984,17.578125,-65.73486,-5.554199,0.0,0.0,0.0,134.07715,67.22534,149.00208
1769255579995,-0.9057617,0.38671875,-0.47558594,69.885254,15.563965,6.225586,0.0,0.0,0.0,134.07715,67.22534,149.00208
1769255580007,-0.9057617,0.38671875,-0.47558594,69.885254,15.563965,6.225586,0.0,0.0,0.0,127.9303,70.59265,136.89514
1769255580095,-0.8984375,0.30371094,-0.075683594,-11.657715,47.668457,-27.282715,0.0,0.0,0.0,127.9303,70.59265,136.89514
1769255580106,-0.8984375,0.30371094,-0.075683594,-11.657715,47.668457,-27.282715,0.0,0.0,0.0,142.73987,66.83533,151.8695
1769255580194,-1.0585938,0.20507812,-0.38671875,31.555176,-26.306152,-0.30517578,0.0,0.0,0.0,142.73987,66.83533,151.8695
1769255580206,-1.0585938,0.20507812,-0.38671875,31.555176,-26.306152,-0.30517578,0.0,0.0,0.0,146.8158,68.52722,154.11072
1769255580294,-0.828125,0.35205078,-0.2553711,-38.208008,15.075684,-78.24707,0.0,0.0,0.0,146.8158,68.52722,154.11072
1769255580306,-0.828125,0.35205078,-0.2553711,-38.208008,15.075684,-78.24707,0.0,0.0,0.0,154.4458,71.51001,161.0321
1769255580394,-0.9692383,0.19970703,-0.26757812,-139.5874,44.189453,-85.20508,0.0,0.0,0.0,154.4458,71.51001,161.0321
1769255580405,-0.9692383,0.19970703,-0.26757812,-139.5874,44.189453,-85.20508,0.0,0.0,0.0,168.21716,69.400635,-171.91956
1769255580493,-0.93066406,0.10986328,-0.42089844,-113.64746,30.456543,-60.058594,0.0,0.0,0.0,168.21716,69.400635,-171.91956
1769255580505,-0.93066406,0.10986328,-0.42089844,-113.64746,30.456543,-60.058594,0.0,0.0,0.0,174.6222,66.73645,-149.81506
1769255580593,-0.8696289,0.033691406,-0.43164062,-19.042969,2.6855469,-3.3569336,0.0,0.0,0.0,174.6222,66.73645,-149.81506
1769255580605,-0.8696289,0.033691406,-0.43164062,-19.042969,2.6855469,-3.3569336,0.0,0.0,0.0,174.94629,65.181885,-143.0365
1769255580693,-0.96240234,-0.11279297,-0.57421875,31.799316,-10.253906,24.780273,0.0,0.0,0.0,174.94629,65.181885,-143.0365
1769255580704,-0.96240234,-0.11279297,-0.57421875,31.799316,-10.253906,24.780273,0.0,0.0,0.0,169.2279,66.121216,-150.24353
1769255580793,-0.99121094,-0.1665039,-0.3334961,22.033691,20.202637,-26.489258,0.0,0.0,0.0,169.2279,66.121216,-150.24353
1769255580804,-0.99121094,-0.1665039,-0.3334961,22.033691,20.202637,-26.489258,0.0,0.0,0.0,172.71606,64.69299,-150.32593
1769255580892,-0.8666992,-0.060058594,-0.44970703,35.339355,-51.086426,16.418457,0.0,0.0,0.0,172.71606,64.69299,-150.32593
1769255580904,-0.8666992,-0.060058594,-0.44970703,35.339355,-51.086426,16.418457,0.0,0.0,0.0,174.97925,68.516235,-151.51245
1769255580992,-0.8666992,0.115722656,-0.33642578,10.7421875,-10.864258,-9.033203,0.0,0.0,0.0,174.97925,68.516235,-151.51245
1769255581004,-0.8666992,0.115722656,-0.33642578,10.7421875,-10.864258,-9.033203,0.0,0.0,0.0,178.73657,70.806885,-150.63904
1769255581092,-0.9614258,0.13476562,-0.36376953,2.1362305,-4.1503906,23.55957,0.0,0.0,0.0,178.73657,70.806885,-150.63904
1769255581103,-0.9614258,0.13476562,-0.36376953,2.1362305,-4.1503906,23.55957,0.0,0.0,0.0,174.04541,72.1637,-155.44006
1769255581191,-0.98583984,-0.048828125,-0.24121094,-21.30127,27.09961,2.0141602,0.0,0.0,0.0,174.04541,72.1637,-155.44006
1769255581203,-0.98583984,-0.048828125,-0.24121094,-21.30127,27.09961,2.0141602,0.0,0.0,0.0,170.00244,69.84558,-158.85681
1769255581291,-1.0253906,0.0048828125,-0.29492188,29.174805,-24.291992,28.747559,0.0,0.0,0.0,170.00244,69.84558,-158.85681
1769255581303,-1.0253906,0.0048828125,-0.29492188,29.174805,-24.291992,28.747559,0.0,0.0,0.0,167.41516,69.24133,-162.57568
1769255581391,-0.8691406,0.09082031,-0.3486328,56.33545,-14.892578,38.146973,0.0,0.0,0.0,167.41516,69.24133,-162.57568
1769255581403,-0.8691406,0.09082031,-0.3486328,56.33545,-14.892578,38.146973,0.0,0.0,0.0,161.09253,70.99365,-175.77576
1769255581491,-0.96435547,0.118652344,-0.27392578,42.297363,16.601562,33.081055,0.0,0.0,0.0,161.09253,70.99365,-175.77576
1769255581502,-0.96435547,0.118652344,-0.27392578,42.297363,16.601562,33.081055,0.0,0.0,0.0,157.28577,68.983154,174.52881
1769255581590,-0.94628906,0.1875,-0.30273438,14.038086,1.8310547,17.63916,0.0,0.0,0.0,157.28577,68.983154,174.52881
1769255581602,-0.94628906,0.1875,-0.30273438,14.038086,1.8310547,17.63916,0.0,0.0,0.0,154.56665,67.769165,167.92053
1769255581690,-0.94921875,0.17333984,-0.30078125,-18.432617,1.0375977,-11.59668,0.0,0.0,0.0,154.56665,67.769165,167.92053
1769255581702,-0.94921875,0.17333984,-0.30078125,-18.432617,1.0375977,-11.59668,0.0,0.0,0.0,153.6383,67.71973,167.3822
1769255581790,-0.95996094,0.1640625,-0.29736328,-11.413574,2.319336,-6.225586,0.0,0.0,0.0,153.6383,67.71973,167.3822
1769255581801,-0.95996094,0.1640625,-0.29736328,-11.413574,2.319336,-6.225586,0.0,0.0,0.0,154.06677,68.219604,169.61243
1769255581889,-0.9692383,0.1875,-0.2626953,-7.2021484,-10.437012,-0.61035156,0.0,0.0,0.0,154.06677,68.219604,169.61243
1769255581901,-0.9692383,0.1875,-0.2626953,-7.2021484,-10.437012,-0.61035156,0.0,0.0,0.0,153.2373,68.83484,169.3927
1769255581989,-0.9716797,0.2163086,-0.28320312,-2.6245117,-14.770508,5.7373047,0.0,0.0,0.0,153.2373,68.83484,169.3927
1769255582001,-0.9716797,0.2163086,-0.28320312,-2.6245117,-14.770508,5.7373047,0.0,0.0,0.0,150.33691,70.24658,167.08557
1769255582089,-0.95996094,0.19824219,-0.25634766,11.84082,-8.361816,17.028809,0.0,0.0,0.0,150.33691,70.24658,167.08557
1769255582101,-0.95996094,0.19824219,-0.25634766,11.84082,-8.361816,17.028809,0.0,0.0,0.0,146.46423,70.460815,162.60315
1769255582189,-0.8154297,0.20166016,-0.35009766,-12.023926,-19.40918,8.728027,0.0,0.0,0.0,146.46423,70.460815,162.60315
1769255582200,-0.8154297,0.20166016,-0.35009766,-12.023926,-19.40918,8.728027,0.0,0.0,0.0,141.21277,70.36194,156.01685
1769255582288,-0.9394531,0.22265625,-0.50634766,16.784668,36.987305,24.047852,0.0,0.0,0.0,141.21277,70.36194,156.01685
1769255582300,-0.9394531,0.22265625,-0.50634766,16.784668,36.987305,24.047852,0.0,0.0,0.0,137.406,70.30151,151.72119
1769255582388,-1.1342773,0.17919922,0.056152344,-16.479492,19.958496,-23.620605,0.0,0.0,0.0,137.406,70.30151,151.72119
1769255582400,-1.1342773,0.17919922,0.056152344,-16.479492,19.958496,-23.620605,0.0,0.0,0.0,145.15686,65.98938,159.97742
1769255582488,-0.9111328,0.18701172,-0.40283203,23.31543,-26.611328,13.916016,0.0,0.0,0.0,145.15686,65.98938,159.97742
1769255582499,-0.9111328,0.18701172,-0.40283203,23.31543,-26.611328,13.916016,0.0,0.0,0.0,144.38782,67.93396,158.17017
1769255582587,-0.98876953,0.25195312,-0.21533203,7.1411133,-10.070801,6.1035156,0.0,0.0,0.0,144.38782,67.93396,158.17017
1769255582599,-0.98876953,0.25195312,-0.21533203,7.1411133,-10.070801,6.1035156,0.0,0.0,0.0,142.21252,68.28003,153.3966
1769255582687,-0.9326172,0.19482422,-0.2211914,-5.3100586,-19.89746,-1.8310547,0.0,0.0,0.0,142.21252,68.28003,153.3966
1769255582699,-0.9326172,0.19482422,-0.2211914,-5.3100586,-19.89746,-1.8310547,0.0,0.0,0.0,139.19128,69.33472,149.63379
1769255582787,-0.8491211,0.13134766,-0.32177734,-0.8544922,-6.286621,-3.540039,0.0,0.0,0.0,139.19128,69.33472,149.63379
1769255582798,-0.8491211,0.13134766,-0.32177734,-0.8544922,-6.286621,-3.540039,0.0,0.0,0.0,137.34009,70.70801,147.74414
1769255582887,-0.8076172,0.099121094,-0.16894531,47.11914,-4.0283203,10.437012,0.0,0.0,0.0,137.34009,70.70801,147.74414
1769255582898,-0.8076172,0.099121094,-0.16894531,47.11914,-4.0283203,10.437012,0.0,0.0,0.0,138.7793,70.41138,146.29944
1769255582986,-1.0810547,0.42822266,-0.27197266,42.907715,-21.911621,20.080566,0.0,0.0,0.0,138.7793,70.41138,146.29944
1769255582998,-1.0810547,0.42822266,-0.27197266,42.907715,-21.911621,20.080566,0.0,0.0,0.0,136.78528,70.548706,137.74658
1769255583086,-0.92822266,0.25341797,-0.15771484,-2.319336,0.24414062,-20.324707,0.0,0.0,0.0,136.78528,70.548706,137.74658
1769255583097,-0.92822266,0.25341797,-0.15771484,-2.319336,0.24414062,-20.324707,0.0,0.0,0.0,136.77429,71.37268,135.49438
1769255583186,-0.9399414,0.14453125,-0.2685547,18.981934,9.643555,-1.4648438,0.0,0.0,0.0,136.77429,71.37268,135.49438
1769255583197,-0.9399414,0.14453125,-0.2685547,18.981934,9.643555,-1.4648438,0.0,0.0,0.0,139.19128,71.1969,138.10913
1769255583285,-0.93603516,0.27197266,-0.22216797,30.517578,-3.2348633,-11.535645,0.0,0.0,0.0,139.19128,71.1969,138.10913
1769255583297,-0.93603516,0.27197266,-0.22216797,30.517578,-3.2348633,-11.535645,0.0,0.0,0.0,144.0857,72.11426,140.15259
1769255583385,-0.9560547,0.20996094,-0.25146484,-64.27002,48.461914,-53.100586,0.0,0.0,0.0,144.0857,72.11426,140.15259
1769255583397,-0.9560547,0.20996094,-0.25146484,-64.27002,48.461914,-53.100586,0.0,0.0,0.0,153.23181,72.01538,152.97913
1769255583485,-0.9448242,0.103515625,-0.28564453,-98.81592,53.95508,-85.14404,0.0,0.0,0.0,153.23181,72.01538,152.97913
1769255583496,-0.9448242,0.103515625,-0.28564453,-98.81592,53.95508,-85.14404,0.0,0.0,0.0,169.21143,69.680786,-179.96155
1769255583585,-1.0107422,-0.020019531,-0.26123047,-56.640625,14.465332,-54.6875,0.0,0.0,0.0,169.21143,69.680786,-179.96155
1769255583596,-1.0107422,-0.020019531,-0.26123047,-56.640625,14.465332,-54.6875,0.0,0.0,0.0,176.98975,66.692505,-160.08179
1769255583684,-0.875,-0.09814453,-0.45166016,19.40918,-15.808105,8.422852,0.0,0.0,0.0,176.98975,66.692505,-160.08179
1769255583696,-0.875,-0.09814453,-0.45166016,19.40918,-15.808105,8.422852,0.0,0.0,0.0,178.797,68.20862,-155.79712
1769255583784,-0.8354492,-0.19970703,-0.4794922,3.2958984,-5.79834,2.319336,0.0,0.0,0.0,178.797,68.20862,-155.79712
1769255583795,-0.8354492,-0.19970703,-0.4794922,3.2958984,-5.79834,2.319336,0.0,0.0,0.0,178.75305,69.2688,-158.08777
1769255583884,-0.9501953,0.08886719,-0.42236328,-2.6245117,20.385742,-13.366699,0.0,0.0,0.0,178.75305,69.2688,-158.08777
1769255583895,-0.9501953,0.08886719,-0.42236328,-2.6245117,20.385742,-13.366699,0.0,0.0,0.0,-178.04993,67.97241,-153.75366
1769255583983,-0.9428711,-0.041992188,-0.3515625,-11.84082,-5.493164,-4.0893555,0.0,0.0,0.0,-178.04993,67.97241,-153.75366
1769255583995,-0.9428711,-0.041992188,-0.3515625,-11.84082,-5.493164,-4.0893555,0.0,0.0,0.0,-178.2312,66.79138,-153.77563
1769255584083,-0.9165039,-0.010253906,-0.4609375,-10.986328,-8.911133,-3.4179688,0.0,0.0,0.0,-178.2312,66.79138,-153.77563
1769255584095,-0.9165039,-0.010253906,-0.4609375,-10.986328,-8.911133,-3.4179688,0.0,0.0,0.0,-178.40698,67.873535,-152.26501
1769255584183,-0.9116211,-0.06689453,-0.39746094,-8.544922,23.010254,-10.192871,0.0,0.0,0.0,-178.40698,67.873535,-152.26501
1769255584194,-0.9116211,-0.06689453,-0.39746094,-8.544922,23.010254,-10.192871,0.0,0.0,0.0,-178.17078,66.64307,-150.9082
1769255584282,-0.9086914,-0.051757812,-0.3852539,12.207031,-16.296387,7.9956055,0.0,0.0,0.0,-178.17078,66.64307,-150.9082
1769255584295,-0.9086914,-0.051757812,-0.3852539,12.207031,-16.296387,7.9956055,0.0,0.0,0.0,-176.98975,66.11023,-149.99084
1769255584382,-0.91796875,-0.021972656,-0.49658203,7.019043,-3.7231445,-1.159668,0.0,0.0,0.0,-176.98975,66.11023,-149.99084
1769255584394,-0.91796875,-0.021972656,-0.49658203,7.019043,-3.7231445,-1.159668,0.0,0.0,0.0,-176.6217,67.697754,-151.2323
1769255584482,-0.9628906,-0.044921875,-0.2578125,10.864258,-2.0141602,-1.0375977,0.0,0.0,0.0,-176.6217,67.697754,-151.2323
1769255584493,-0.9628906,-0.044921875,-0.2578125,10.864258,-2.0141602,-1.0375977,0.0,0.0,0.0,-175.0122,66.588135,-150.0238
1769255584582,-0.8544922,-0.08691406,-0.42285156,30.090332,-38.879395,9.399414,0.0,0.0,0.0,-175.0122,66.588135,-150.0238
1769255584593,-0.8544922,-0.08691406,-0.42285156,30.090332,-38.879395,9.399414,0.0,0.0,0.0,-173.83667,69.88403,-150.94666
1769255584681,-0.9946289,0.03125,-0.5566406,0.24414062,-1.7089844,-5.004883,0.0,0.0,0.0,-173.83667,69.88403,-150.94666
1769255584693,-0.9946289,0.03125,-0.5566406,0.24414062,-1.7089844,-5.004883,0.0,0.0,0.0,-172.21619,72.784424,-151.27075
1769255584781,-0.9667969,0.09814453,-0.08642578,-34.484863,-40.71045,8.178711,0.0,0.0,0.0,-172.21619,72.784424,-151.27075
1769255584792,-0.9667969,0.09814453,-0.08642578,-34.484863,-40.71045,8.178711,0.0,0.0,0.0,-173.30383,71.49353,-150.90271
1769255584881,-0.89697266,-0.048339844,-0.2421875,-55.541992,20.141602,-3.2958984,0.0,0.0,0.0,-173.30383,71.49353,-150.90271
1769255584892,-0.89697266,-0.048339844,-0.2421875,-55.541992,20.141602,-3.2958984,0.0,0.0,0.0,179.53308,71.89453,-151.64978
1769255584980,-0.9326172,-0.09423828,-0.32763672,50.231934,-12.756348,47.729492,0.0,0.0,0.0,179.53308,71.89453,-151.64978
1769255584992,-0.9326172,-0.09423828,-0.32763672,50.231934,-12.756348,47.729492,0.0,0.0,0.0,173.70483,72.11975,-158.90625
1769255585080,-0.9609375,0.068847656,-0.3305664,41.68701,-13.427734,37.719727,0.0,0.0,0.0,173.70483,72.11975,-158.90625
1769255585092,-0.9609375,0.068847656,-0.3305664,41.68701,-13.427734,37.719727,0.0,0.0,0.0,163.65784,72.54822,-175.72083
1769255585180,-1.0239258,0.10986328,-0.21142578,3.7841797,-0.36621094,14.892578,0.0,0.0,0.0,163.65784,72.54822,-175.72083
1769255585191,-1.0239258,0.10986328,-0.21142578,3.7841797,-0.36621094,14.892578,0.0,0.0,0.0,157.91748,72.08679,175.47363
1769255585280,-0.95996094,0.11669922,-0.23339844,-0.36621094,-1.7700195,8.728027,0.0,0.0,0.0,157.91748,72.08679,175.47363
1769255585291,-0.95996094,0.11669922,-0.23339844,-0.36621094,-1.7700195,8.728027,0.0,0.0,0.0,155.79163,72.180176,173.51807
1769255585379,-0.9868164,0.13671875,-0.24511719,10.437012,1.8310547,13.916016,0.0,0.0,0.0,155.79163,72.180176,173.51807
1769255585391,-0.9868164,0.13671875,-0.24511719,10.437012,1.8310547,13.916016,0.0,0.0,0.0,152.66602,71.80115,169.02466
1769255585479,-0.96484375,0.091308594,-0.25439453,6.225586,-1.5258789,0.61035156,0.0,0.0,0.0,152.66602,71.80115,169.02466
1769255585490,-0.96484375,0.091308594,-0.25439453,6.225586,-1.5258789,0.61035156,0.0,0.0,0.0,151.83105,71.30676,166.95374
1769255585579,-0.953125,0.15185547,-0.24560547,18.493652,-4.3945312,11.474609,0.0,0.0,0.0,151.83105,71.30676,166.95374
1769255585590,-0.953125,0.15185547,-0.24560547,18.493652,-4.3945312,11.474609,0.0,0.0,0.0,151.44653,71.51001,164.86084
1769255585679,-0.9433594,0.22949219,-0.24902344,-3.90625,-0.18310547,0.30517578,0.0,0.0,0.0,151.44653,71.51001,164.86084
1769255585690,-0.9433594,0.22949219,-0.24902344,-3.90625,-0.18310547,0.30517578,0.0,0.0,0.0,150.60059,71.378174,162.91626
1769255585778,-0.94628906,0.24804688,-0.25732422,-22.888184,10.803223,8.544922,0.0,0.0,0.0,150.60059,71.378174,162.91626
1769255585789,-0.94628906,0.24804688,-0.25732422,-22.888184,10.803223,8.544922,0.0,0.0,0.0,148.29346,70.653076,161.98242
1769255585878,-1.0029297,0.19433594,-0.24951172,-21.850586,7.9956055,-11.352539,0.0,0.0,0.0,148.29346,70.653076,161.98242
1769255585889,-1.0029297,0.19433594,-0.24951172,-21.850586,7.9956055,-11.352539,0.0,0.0,0.0,147.27173,70.09277,163.64685
1769255585977,-1.0556641,0.2319336,-0.2915039,26.184082,29.60205,34.729004,0.0,0.0,0.0,147.27173,70.09277,163.64685
1769255585989,-1.0556641,0.2319336,-0.2915039,26.184082,29.60205,34.729004,0.0,0.0,0.0,146.37085,68.6261,164.24011
1769255586077,-0.9082031,0.11669922,-0.21582031,69.82422,-19.89746,58.410645,0.0,0.0,0.0,146.37085,68.6261,164.24011
1769255586089,-0.9082031,0.11669922,-0.21582031,69.82422,-19.89746,58.410645,0.0,0.0,0.0,143.72314,64.539185,157.23633
1769255586177,-0.8457031,0.1694336,-0.30126953,98.2666,-36.315918,70.373535,0.0,0.0,0.0,143.72314,64.539185,157.23633
1769255586188,-0.8457031,0.1694336,-0.30126953,98.2666,-36.315918,70.373535,0.0,0.0,0.0,139.4165,61.57837,141.24023
1769255586277,-0.8725586,0.29833984,-0.43115234,75.07324,-47.11914,49.37744,0.0,0.0,0.0,139.4165,61.57837,141.24023
1769255586288,-0.8725586,0.29833984,-0.43115234,75.07324,-47.11914,49.37744,0.0,0.0,0.0,134.29138,61.523438,124.32129
1769255586376,-0.7836914,0.33398438,-0.3984375,59.570312,-28.442383,24.780273,0.0,0.0,0.0,134.29138,61.523438,124.32129
1769255586388,-0.7836914,0.33398438,-0.3984375,59.570312,-28.442383,24.780273,0.0,0.0,0.0,131.92932,61.00708,112.10449
1769255586476,-0.9116211,0.4790039,-0.46923828,9.521484,-9.399414,-3.9672852,0.0,0.0,0.0,131.92932,61.00708,112.10449
1769255586487,-0.9116211,0.4790039,-0.46923828,9.521484,-9.399414,-3.9672852,0.0,0.0,0.0,132.84668,61.468506,106.69922
1769255586576,-0.83203125,0.5004883,-0.37939453,-25.268555,16.784668,-3.3569336,0.0,0.0,0.0,132.84668,61.468506,106.69922
1769255586587,-0.83203125,0.5004883,-0.37939453,-25.268555,16.784668,-3.3569336,0.0,0.0,0.0,132.28638,61.2323,106.85852
1769255586675,-0.9057617,0.24804688,-0.38867188,-17.944336,34.118652,-1.4648438,0.0,0.0,0.0,132.28638,61.2323,106.85852
1769255586687,-0.9057617,0.24804688,-0.38867188,-17.944336,34.118652,-1.4648438,0.0,0.0,0.0,133.08289,59.067993,110.05554
1769255586775,-0.92333984,0.3618164,-0.19482422,-20.263672,-4.5166016,-12.573242,0.0,0.0,0.0,133.08289,59.067993,110.05554
1769255586787,-0.92333984,0.3618164,-0.19482422,-20.263672,-4.5166016,-12.573242,0.0,0.0,0.0,135.7196,58.07373,114.642334
1769255586875,-0.8623047,0.4248047,-0.37841797,-49.804688,-32.226562,-11.535645,0.0,0.0,0.0,135.7196,58.07373,114.642334
1769255586886,-0.8623047,0.4248047,-0.37841797,-49.804688,-32.226562,-11.535645,0.0,0.0,0.0,129.95728,60.897217,110.69275
1769255586974,-0.69433594,0.3022461,-0.37646484,-84.96094,-7.5683594,-29.35791,0.0,0.0,0.0,129.95728,60.897217,110.69275
1769255586986,-0.69433594,0.3022461,-0.37646484,-84.96094,-7.5683594,-29.35791,0.0,0.0,0.0,122.43164,63.69873,109.48425
1769255587074,-0.9091797,0.34570312,-0.48583984,-37.29248,61.584473,-20.568848,0.0,0.0,0.0,122.43164,63.69873,109.48425
1769255587086,-0.9091797,0.34570312,-0.48583984,-37.29248,61.584473,-20.568848,0.0,0.0,0.0,121.36597,64.67102,114.23035
1769255587174,-0.84716797,0.2368164,-0.08251953,-2.0141602,13.73291,-20.141602,0.0,0.0,0.0,121.36597,64.67102,114.23035
1769255587185,-0.84716797,0.2368164,-0.08251953,-2.0141602,13.73291,-20.141602,0.0,0.0,0.0,127.578735,63.53943,127.144775
1769255587274,-0.9326172,0.28955078,-0.12060547,-1.5869141,22.705078,0.48828125,0.0,0.0,0.0,127.578735,63.53943,127.144775
1769255587285,-0.9326172,0.28955078,-0.12060547,-1.5869141,22.705078,0.48828125,0.0,0.0,0.0,130.4242,63.621826,132.37976
1769255587373,-0.84521484,0.41064453,-0.3046875,1.4038086,11.291504,-9.58252,0.0,0.0,0.0,130.4242,63.621826,132.37976
1769255587385,-0.84521484,0.41064453,-0.3046875,1.4038086,11.291504,-9.58252,0.0,0.0,0.0,132.32483,63.97339,133.17078
1769255587473,-0.6689453,0.23828125,-0.296875,-6.4086914,19.65332,-11.535645,0.0,0.0,0.0,132.32483,63.97339,133.17078
1769255587485,-0.6689453,0.23828125,-0.296875,-6.4086914,19.65332,-11.535645,0.0,0.0,0.0,135.25269,63.73169,137.66418
1769255587573,-1.3730469,0.5048828,-0.69140625,-36.92627,-10.803223,-11.474609,0.0,0.0,0.0,135.25269,63.73169,137.66418
1769255587584,-1.3730469,0.5048828,-0.69140625,-36.92627,-10.803223,-11.474609,0.0,0.0,0.0,136.43372,64.64905,140.13611
1769255587672,-0.953125,0.018066406,-0.17626953,53.16162,24.169922,0.30517578,0.0,0.0,0.0,136.43372,64.64905,140.13611
1769255587684,-0.953125,0.018066406,-0.17626953,53.16162,24.169922,0.30517578,0.0,0.0,0.0,137.52686,63.22632,141.47644
1769255587772,-0.7578125,0.14453125,-0.39111328,15.258789,-37.65869,-1.4648438,0.0,0.0,0.0,137.52686,63.22632,141.47644
1769255587784,-0.7578125,0.14453125,-0.39111328,15.258789,-37.65869,-1.4648438,0.0,0.0,0.0,140.50415,64.63257,140.10315
1769255587872,-0.9316406,0.2163086,-0.43017578,-28.869629,2.6855469,-28.137207,0.0,0.0,0.0,140.50415,64.63257,140.10315
1769255587883,-0.9316406,0.2163086,-0.43017578,-28.869629,2.6855469,-28.137207,0.0,0.0,0.0,141.61377,66.02783,140.75684
1769255587971,-0.82714844,0.2524414,-0.1484375,10.620117,-103.271484,12.512207,0.0,0.0,0.0,141.61377,66.02783,140.75684
1769255587983,-0.82714844,0.2524414,-0.1484375,10.620117,-103.271484,12.512207,0.0,0.0,0.0,130.57251,70.5542,128.23242
1769255588071,-0.9008789,0.33398438,-0.328125,-31.066895,53.344727,-16.113281,0.0,0.0,0.0,130.57251,70.5542,128.23242
1769255588083,-0.9008789,0.33398438,-0.328125,-31.066895,53.344727,-16.113281,0.0,0.0,0.0,130.91858,71.015625,130.20447
1769255588171,-0.99902344,0.35498047,-0.29345703,17.63916,0.36621094,11.169434,0.0,0.0,0.0,130.91858,71.015625,130.20447
1769255588182,-0.99902344,0.35498047,-0.29345703,17.63916,0.36621094,11.169434,0.0,0.0,0.0,135.59875,69.65332,134.60449
1769255588271,-0.7216797,0.22363281,-0.1538086,1.4038086,5.1879883,3.112793,0.0,0.0,0.0,135.59875,69.65332,134.60449
1769255588282,-0.7216797,0.22363281,-0.1538086,1.4038086,5.1879883,3.112793,0.0,0.0,0.0,132.29736,68.74695,130.73181
1769255588370,-1.0947266,0.04638672,-0.39941406,-18.432617,63.293457,-0.5493164,0.0,0.0,0.0,132.29736,68.74695,130.73181
1769255588382,-1.0947266,0.04638672,-0.39941406,-18.432617,63.293457,-0.5493164,0.0,0.0,0.0,137.14783,66.99463,137.74109
1769255588470,-0.9824219,0.15039062,-0.22070312,42.541504,-28.015137,24.047852,0.0,0.0,0.0,137.14783,66.99463,137.74109
1769255588482,-0.9824219,0.15039062,-0.22070312,42.541504,-28.015137,24.047852,0.0,0.0,0.0,139.79553,66.86279,138.8617
1769255588570,-0.80371094,0.18408203,-0.3149414,42.175293,-26.611328,10.925293,0.0,0.0,0.0,139.79553,66.86279,138.8617
1769255588581,-0.80371094,0.18408203,-0.3149414,42.175293,-26.611328,10.925293,0.0,0.0,0.0,135.86243,68.56018,128.32031
1769255588670,-0.9892578,0.2734375,-0.35546875,33.325195,22.033691,-6.958008,0.0,0.0,0.0,135.86243,68.56018,128.32031
1769255588682,-0.9892578,0.2734375,-0.35546875,33.325195,22.033691,-6.958008,0.0,0.0,0.0,141.77307,67.39014,128.71033
1769255588769,-0.93115234,0.4453125,-0.2680664,13.305664,-22.277832,7.3242188,0.0,0.0,0.0,141.77307,67.39014,128.71033
1769255588781,-0.93115234,0.4453125,-0.2680664,13.305664,-22.277832,7.3242188,0.0,0.0,0.0,141.39954,68.01636,126.101074
1769255588869,-1.0800781,0.16552734,-0.26171875,-25.817871,38.57422,-27.648926,0.0,0.0,0.0,141.39954,68.01636,126.101074
1769255588880,-1.0800781,0.16552734,-0.26171875,-25.817871,38.57422,-27.648926,0.0,0.0,0.0,143.56934,67.55493,129.07288
1769255588969,-0.9550781,0.13916016,-0.30859375,7.1411133,1.5869141,-9.70459,0.0,0.0,0.0,143.56934,67.55493,129.07288
1769255588980,-0.9550781,0.13916016,-0.30859375,7.1411133,1.5869141,-9.70459,0.0,0.0,0.0,148.44727,67.13745,134.93958
1769255589068,-0.87109375,0.21923828,-0.24414062,28.137207,-0.4272461,13.73291,0.0,0.0,0.0,148.44727,67.13745,134.93958
1769255589080,-0.87109375,0.21923828,-0.24414062,28.137207,-0.4272461,13.73291,0.0,0.0,0.0,149.72168,66.989136,133.34106
1769255589168,-0.99560547,0.28955078,-0.26220703,-4.0283203,-20.019531,14.343262,0.0,0.0,0.0,149.72168,66.989136,133.34106
1769255589179,-0.99560547,0.28955078,-0.26220703,-4.0283203,-20.019531,14.343262,0.0,0.0,0.0,145.78308,67.543945,127.79846
1769255589268,-0.99658203,0.23144531,-0.29589844,-22.277832,-13.977051,6.0424805,0.0,0.0,0.0,145.78308,67.543945,127.79846
1769255589279,-0.99658203,0.23144531,-0.29589844,-22.277832,-13.977051,6.0424805,0.0,0.0,0.0,138.68591,68.549194,122.08008
1769255589367,-0.9692383,0.2626953,-0.27148438,-14.404297,-9.277344,9.155273,0.0,0.0,0.0,138.68591,68.549194,122.08008
1769255589379,-0.9692383,0.2626953,-0.27148438,-14.404297,-9.277344,9.155273,0.0,0.0,0.0,133.16528,68.84033,117.60315
1769255589467,-0.9121094,0.25732422,-0.3618164,-31.066895,24.597168,-4.272461,0.0,0.0,0.0,133.16528,68.84033,117.60315
1769255589479,-0.9121094,0.25732422,-0.3618164,-31.066895,24.597168,-4.272461,0.0,0.0,0.0,131.67664,68.10974,117.58667
1769255589567,-0.9560547,0.14697266,-0.3154297,-7.2631836,55.480957,2.9296875,0.0,0.0,0.0,131.67664,68.10974,117.58667
1769255589578,-0.9560547,0.14697266,-0.3154297,-7.2631836,55.480957,2.9296875,0.0,0.0,0.0,138.3783,65.10498,126.34827
1769255589667,-0.99853516,0.2529297,-0.21191406,19.958496,-24.047852,16.052246,0.0,0.0,0.0,138.3783,65.10498,126.34827
1769255589678,-0.99853516,0.2529297,-0.21191406,19.958496,-24.047852,16.052246,0.0,0.0,0.0,140.3833,63.511963,126.68884
1769255589766,-0.8696289,0.28125,-0.3930664,12.756348,-31.677246,17.8833,0.0,0.0,0.0,140.3833,63.511963,126.68884
1769255589778,-0.8696289,0.28125,-0.3930664,12.756348,-31.677246,17.8833,0.0,0.0,0.0,134.70337,64.940186,117.86682
1769255589866,-0.7553711,0.16992188,-0.27197266,31.738281,16.723633,4.5166016,0.0,0.0,0.0,134.70337,64.940186,117.86682
1769255589877,-0.7553711,0.16992188,-0.27197266,31.738281,16.723633,4.5166016,0.0,0.0,0.0,134.56055,64.121704,113.703
1769255589966,-0.9003906,0.296875,-0.30029297,28.747559,-15.74707,-24.414062,0.0,0.0,0.0,134.56055,64.121704,113.703
1769255589977,-0.9003906,0.296875,-0.30029297,28.747559,-15.74707,-24.414062,0.0,0.0,0.0,140.80078,64.93469,115.702515
1769255590065,-0.91015625,0.29003906,-0.30273438,20.507812,-16.967773,2.1362305,0.0,0.0,0.0,140.80078,64.93469,115.702515
1769255590077,-0.91015625,0.29003906,-0.30273438,20.507812,-16.967773,2.1362305,0.0,0.0,0.0,142.70691,66.934204,115.059814
1769255590165,-0.984375,0.29882812,-0.27929688,-3.9672852,-16.540527,-1.0375977,0.0,0.0,0.0,142.70691,66.934204,115.059814
1769255590177,-0.984375,0.29882812,-0.27929688,-3.9672852,-16.540527,-1.0375977,0.0,0.0,0.0,139.61426,68.04932,110.54993
1769255590265,-0.94970703,0.24804688,-0.2241211,-0.18310547,4.211426,1.4038086,0.0,0.0,0.0,139.61426,68.04932,110.54993
1769255590276,-0.94970703,0.24804688,-0.2241211,-0.18310547,4.211426,1.4038086,0.0,0.0,0.0,138.98804,68.098755,109.64905
1769255590365,-0.9135742,0.26220703,-0.24121094,7.873535,-19.958496,8.178711,0.0,0.0,0.0,138.98804,68.098755,109.64905
1769255590376,-0.9135742,0.26220703,-0.24121094,7.873535,-19.958496,8.178711,0.0,0.0,0.0,137.37305,68.35693,106.68823
1769255590464,-0.89160156,0.26416016,-0.2553711,-16.174316,-2.0141602,-5.554199,0.0,0.0,0.0,137.37305,68.35693,106.68823
1769255590476,-0.89160156,0.26416016,-0.2553711,-16.174316,-2.0141602,-5.554199,0.0,0.0,0.0,133.797,69.22485,102.79358
1769255590564,-0.9658203,0.28222656,-0.23925781,-39.855957,-2.319336,-13.73291,0.0,0.0,0.0,133.797,69.22485,102.79358
1769255590576,-0.9658203,0.28222656,-0.23925781,-39.855957,-2.319336,-13.73291,0.0,0.0,0.0,133.59924,69.801636,105.17212
1769255590664,-0.95214844,0.2553711,-0.24707031,-32.77588,13.48877,2.9907227,0.0,0.0,0.0,133.59924,69.801636,105.17212
1769255590675,-0.95214844,0.2553711,-0.24707031,-32.77588,13.48877,2.9907227,0.0,0.0,0.0,132.44568,69.98291,107.666016
1769255590763,-0.92529297,0.24072266,-0.20898438,0.61035156,2.5024414,19.592285,0.0,0.0,0.0,132.44568,69.98291,107.666016
1769255590775,-0.92529297,0.24072266,-0.20898438,0.61035156,2.5024414,19.592285,0.0,0.0,0.0,130.95703,68.411865,106.83655
1769255590863,-0.90771484,0.22558594,-0.2685547,-5.493164,12.268066,2.1362305,0.0,0.0,0.0,130.95703,68.411865,106.83655
1769255590875,-0.90771484,0.22558594,-0.2685547,-5.493164,12.268066,2.1362305,0.0,0.0,0.0,130.17151,67.15393,105.41382
1769255590963,-0.9223633,0.24804688,-0.2734375,-15.625,3.479004,-5.6762695,0.0,0.0,0.0,130.17151,67.15393,105.41382
1769255590974,-0.9223633,0.24804688,-0.2734375,-15.625,3.479004,-5.6762695,0.0,0.0,0.0,131.51733,67.16492,107.63306
1769255591063,-0.99316406,0.1665039,-0.24853516,47.302246,16.784668,25.57373,0.0,0.0,0.0,131.51733,67.16492,107.63306
1769255591074,-0.99316406,0.1665039,-0.24853516,47.302246,16.784668,25.57373,0.0,0.0,0.0,133.46191,65.857544,107.78137
1769255591162,-0.95166016,0.33496094,-0.23046875,62.5,-15.808105,40.34424,0.0,0.0,0.0,133.46191,65.857544,107.78137
1769255591174,-0.95166016,0.33496094,-0.23046875,62.5,-15.808105,40.34424,0.0,0.0,0.0,134.61548,63.912964,102.91992
1769255591262,-0.7861328,0.21972656,-0.24951172,79.711914,-26.611328,28.686523,0.0,0.0,0.0,134.61548,63.912964,102.91992
1769255591273,-0.7861328,0.21972656,-0.24951172,79.711914,-26.611328,28.686523,0.0,0.0,0.0,133.84094,62.44629,93.76831
1769255591362,-0.9555664,0.3803711,-0.38476562,70.007324,-38.33008,8.7890625,0.0,0.0,0.0,133.84094,62.44629,93.76831
1769255591373,-0.9555664,0.3803711,-0.38476562,70.007324,-38.33008,8.7890625,0.0,0.0,0.0,133.19275,63.5614,83.7323
1769255591461,-0.8417969,0.4814453,-0.31591797,20.935059,-19.16504,9.338379,0.0,0.0,0.0,133.19275,63.5614,83.7323
1769255591473,-0.8417969,0.4814453,-0.31591797,20.935059,-19.16504,9.338379,0.0,0.0,0.0,131.44043,64.93469,76.657104
1769255591561,-0.85498047,0.32958984,-0.39013672,-10.437012,23.4375,2.8686523,0.0,0.0,0.0,131.44043,64.93469,76.657104
1769255591573,-0.85498047,0.32958984,-0.39013672,-10.437012,23.4375,2.8686523,0.0,0.0,0.0,131.07788,64.13269,76.0199
1769255591661,-0.91748047,0.3486328,-0.22998047,-14.892578,13.61084,-4.211426,0.0,0.0,0.0,131.07788,64.13269,76.0199
1769255591672,-0.91748047,0.3486328,-0.22998047,-14.892578,13.61084,-4.211426,0.0,0.0,0.0,133.98926,62.56714,80.69458
1769255591760,-0.8808594,0.3461914,-0.3623047,2.0141602,6.0424805,10.7421875,0.0,0.0,0.0,133.98926,62.56714,80.69458
1769255591772,-0.8808594,0.3461914,-0.3623047,2.0141602,6.0424805,10.7421875,0.0,0.0,0.0,133.45642,61.89148,79.749756
1769255591860,-0.88720703,0.34326172,-0.29785156,-14.6484375,9.155273,0.91552734,0.0,0.0,0.0,133.45642,61.89148,79.749756
1769255591873,-0.88720703,0.34326172,-0.29785156,-14.6484375,9.155273,0.91552734,0.0,0.0,0.0,133.41797,60.759888,80.233154
1769255591960,-0.8901367,0.35742188,-0.2758789,-11.71875,-5.554199,1.5869141,0.0,0.0,0.0,133.41797,60.759888,80.233154
1769255591971,-0.8901367,0.35742188,-0.2758789,-11.71875,-5.554199,1.5869141,0.0,0.0,0.0,132.00073,61.018066,79.91455
1769255592060,-0.8588867,0.40039062,-0.3305664,-7.2631836,-3.90625,2.0751953,0.0,0.0,0.0,132.00073,61.018066,79.91455
1769255592071,-0.8588867,0.40039062,-0.3305664,-7.2631836,-3.90625,2.0751953,0.0,0.0,0.0,130.39124,61.133423,78.31055
1769255592159,-0.89746094,0.38134766,-0.2993164,-39.245605,15.014648,-14.526367,0.0,0.0,0.0,130.39124,61.133423,78.31055
1769255592171,-0.89746094,0.38134766,-0.2993164,-39.245605,15.014648,-14.526367,0.0,0.0,0.0,129.90234,60.90271,80.24963
1769255592259,-0.8911133,0.33642578,-0.28027344,-31.49414,1.8310547,-14.6484375,0.0,0.0,0.0,129.90234,60.90271,80.24963
1769255592270,-0.8911133,0.33642578,-0.28027344,-31.49414,1.8310547,-14.6484375,0.0,0.0,0.0,129.18274,61.506958,83.15552
1769255592359,-0.8696289,0.36279297,-0.30126953,-31.921387,2.2583008,-21.057129,0.0,0.0,0.0,129.18274,61.506958,83.15552
1769255592370,-0.8696289,0.36279297,-0.30126953,-31.921387,2.2583008,-21.057129,0.0,0.0,0.0,128.573,63.03955,85.45166
1769255592458,-0.8881836,0.36816406,-0.25195312,-36.376953,10.070801,-15.74707,0.0,0.0,0.0,128.573,63.03955,85.45166
1769255592470,-0.8881836,0.36816406,-0.25195312,-36.376953,10.070801,-15.74707,0.0,0.0,0.0,128.75427,63.78662,88.81897
1769255592558,-0.91064453,0.28222656,-0.2709961,-34.973145,21.850586,-28.686523,0.0,0.0,0.0,128.75427,63.78662,88.81897
1769255592570,-0.91064453,0.28222656,-0.2709961,-34.973145,21.850586,-28.686523,0.0,0.0,0.0,130.6549,64.58313,94.94934
1769255592658,-0.953125,0.28027344,-0.26757812,-19.836426,8.117676,-17.700195,0.0,0.0,0.0,130.6549,64.58313,94.94934
1769255592669,-0.953125,0.28027344,-0.26757812,-19.836426,8.117676,-17.700195,0.0,0.0,0.0,134.14307,65.30823,101.431274
1769255592757,-0.9169922,0.27294922,-0.25146484,-3.1738281,5.1879883,-10.681152,0.0,0.0,0.0,134.14307,65.30823,101.431274
1769255592769,-0.9169922,0.27294922,-0.25146484,-3.1738281,5.1879883,-10.681152,0.0,0.0,0.0,135.62622,65.93994,103.99658
1769255592857,-0.91552734,0.22070312,-0.28857422,-0.36621094,-2.5634766,-8.666992,0.0,0.0,0.0,135.62622,65.93994,103.99658
1769255592869,-0.91552734,0.22070312,-0.28857422,-0.36621094,-2.5634766,-8.666992,0.0,0.0,0.0,137.1698,66.708984,105.7489
1769255592957,-0.88720703,0.234375,-0.22509766,19.28711,3.540039,-5.004883,0.0,0.0,0.0,137.1698,66.708984,105.7489
1769255592969,-0.88720703,0.234375,-0.22509766,19.28711,3.540039,-5.004883,0.0,0.0,0.0,139.35608,67.109985,106.77612
1769255593057,-0.8017578,0.1616211,-0.27685547,6.4086914,-15.258789,-11.291504,0.0,0.0,0.0,139.35608,67.109985,106.77612
1769255593068,-0.8017578,0.1616211,-0.27685547,6.4086914,-15.258789,-11.291504,0.0,0.0,0.0,140.0647,67.576904,106.19385
1769255593156,-0.93359375,0.27441406,-0.39892578,-17.27295,12.512207,-25.512695,0.0,0.0,0.0,140.0647,67.576904,106.19385
1769255593168,-0.93359375,0.27441406,-0.39892578,-17.27295,12.512207,-25.512695,0.0,0.0,0.0,144.43176,68.93921,110.84656
1769255593256,-1.0244141,0.2421875,-0.34423828,-6.958008,40.161133,-3.4179688,0.0,0.0,0.0,144.43176,68.93921,110.84656
1769255593268,-1.0244141,0.2421875,-0.34423828,-6.958008,40.161133,-3.4179688,0.0,0.0,0.0,150.53467,67.247314,118.37219
1769255593356,-1.0688477,0.23925781,-0.35498047,28.076172,-2.9907227,19.28711,0.0,0.0,0.0,150.53467,67.247314,118.37219
1769255593367,-1.0688477,0.23925781,-0.35498047,28.076172,-2.9907227,19.28711,0.0,0.0,0.0,151.27625,65.703735,118.65234
1769255593455,-0.69677734,0.17285156,0.051757812,10.253906,-38.024902,37.78076,0.0,0.0,0.0,151.27625,65.703735,118.65234
1769255593467,-0.69677734,0.17285156,0.051757812,10.253906,-38.024902,37.78076,0.0,0.0,0.0,145.62378,66.39038,110.40161
1769255593555,-0.9355469,0.14160156,-0.41210938,-32.348633,-12.573242,-31.188965,0.0,0.0,0.0,145.62378,66.39038,110.40161
1769255593567,-0.9355469,0.14160156,-0.41210938,-32.348633,-12.573242,-31.188965,0.0,0.0,0.0,143.08044,67.906494,107.698975
1769255593655,-0.9472656,0.18310547,-0.28076172,15.930176,25.57373,14.343262,0.0,0.0,0.0,143.08044,67.906494,107.698975
1769255593666,-0.9472656,0.18310547,-0.28076172,15.930176,25.57373,14.343262,0.0,0.0,0.0,144.97559,66.73645,109.29199
1769255593755,-0.92089844,0.20703125,-0.32128906,2.6855469,-13.183594,-1.159668,0.0,0.0,0.0,144.97559,66.73645,109.29199
1769255593766,-0.92089844,0.20703125,-0.32128906,2.6855469,-13.183594,-1.159668,0.0,0.0,0.0,145.50293,66.63757,108.57788
1769255593854,-0.92871094,0.2163086,-0.3334961,9.460449,4.5166016,4.333496,0.0,0.0,0.0,145.50293,66.63757,108.57788
1769255593866,-0.92871094,0.2163086,-0.3334961,9.460449,4.5166016,4.333496,0.0,0.0,0.0,145.21729,67.11548,107.21008
1769255593954,-0.9189453,0.21826172,-0.32177734,-0.12207031,0.36621094,-0.12207031,0.0,0.0,0.0,145.21729,67.11548,107.21008
1769255593965,-0.9189453,0.21826172,-0.32177734,-0.12207031,0.36621094,-0.12207031,0.0,0.0,0.0,145.9259,66.725464,107.248535
1769255594054,-0.921875,0.22998047,-0.33154297,-10.131836,5.6762695,-0.18310547,0.0,0.0,0.0,145.9259,66.725464,107.248535
1769255594066,-0.921875,0.22998047,-0.33154297,-10.131836,5.6762695,-0.18310547,0.0,0.0,0.0,145.83252,66.588135,107.42981
1769255594153,-0.92822266,0.25341797,-0.35302734,-26.062012,-2.380371,-7.446289,0.0,0.0,0.0,145.83252,66.588135,107.42981
1769255594165,-0.92822266,0.25341797,-0.35302734,-26.062012,-2.380371,-7.446289,0.0,0.0,0.0,145.08545,66.5387,108.08899
1769255594253,-0.9555664,0.26367188,-0.36279297,-38.45215,29.174805,-1.8310547,0.0,0.0,0.0,145.08545,66.5387,108.08899
1769255594265,-0.9555664,0.26367188,-0.36279297,-38.45215,29.174805,-1.8310547,0.0,0.0,0.0,144.28894,65.86304,110.42908
1769255594353,-0.9091797,0.16748047,-0.3046875,-36.071777,12.451172,-13.73291,0.0,0.0,0.0,144.28894,65.86304,110.42908
1769255594364,-0.9091797,0.16748047,-0.3046875,-36.071777,12.451172,-13.73291,0.0,0.0,0.0,144.20654,64.522705,115.0708
1769255594453,-0.9086914,0.2475586,-0.27539062,-5.1879883,-7.9956055,-5.004883,0.0,0.0,0.0,144.20654,64.522705,115.0708
1769255594464,-0.9086914,0.2475586,-0.27539062,-5.1879883,-7.9956055,-5.004883,0.0,0.0,0.0,144.61853,65.29175,116.93848
1769255594552,-0.9355469,0.3461914,-0.3203125,4.760742,-10.864258,7.6904297,0.0,0.0,0.0,144.61853,65.29175,116.93848
1769255594564,-0.9355469,0.3461914,-0.3203125,4.760742,-10.864258,7.6904297,0.0,0.0,0.0,143.07495,66.23657,115.21912
1769255594652,-0.8676758,0.33935547,-0.30615234,-3.6010742,-11.84082,12.451172,0.0,0.0,0.0,143.07495,66.23657,115.21912
1769255594664,-0.8676758,0.33935547,-0.30615234,-3.6010742,-11.84082,12.451172,0.0,0.0,0.0,138.81775,66.23108,110.357666
1769255594752,-0.8623047,0.32714844,-0.33935547,-40.34424,2.8076172,-3.2348633,0.0,0.0,0.0,138.81775,66.23108,110.357666
1769255594763,-0.8623047,0.32714844,-0.33935547,-40.34424,2.8076172,-3.2348633,0.0,0.0,0.0,135.27466,66.11023,108.75366
1769255594851,-0.93310547,0.19726562,-0.33740234,-16.052246,30.273438,13.305664,0.0,0.0,0.0,135.27466,66.11023,108.75366
1769255594863,-0.93310547,0.19726562,-0.33740234,-16.052246,30.273438,13.305664,0.0,0.0,0.0,134.63745,64.37988,111.02783
1769255594951,-1.0073242,0.41503906,-0.100097656,26.428223,4.9438477,19.65332,0.0,0.0,0.0,134.63745,64.37988,111.02783
1769255594963,-1.0073242,0.41503906,-0.100097656,26.428223,4.9438477,19.65332,0.0,0.0,0.0,137.05444,62.089233,112.75818
1769255595051,-0.9873047,0.3696289,-0.3618164,33.996582,-19.89746,10.7421875,0.0,0.0,0.0,137.05444,62.089233,112.75818
1769255595063,-0.9873047,0.3696289,-0.3618164,33.996582,-19.89746,10.7421875,0.0,0.0,0.0,134.25842,61.726685,106.89148
1769255595151,-0.7578125,0.18017578,-0.3564453,22.888184,8.056641,8.483887,0.0,0.0,0.0,134.25842,61.726685,106.89148
1769255595162,-0.7578125,0.18017578,-0.3564453,22.888184,8.056641,8.483887,0.0,0.0,0.0,133.97278,62.061768,104.139404
1769255595250,-0.87158203,0.26904297,-0.46777344,49.865723,-4.4555664,12.512207,0.0,0.0,0.0,133.97278,62.061768,104.139404
1769255595262,-0.87158203,0.26904297,-0.46777344,49.865723,-4.4555664,12.512207,0.0,0.0,0.0,136.97205,61.809082,103.13965
1769255595350,-0.99316406,0.28466797,-0.4350586,44.006348,37.41455,0.6713867,0.0,0.0,0.0,136.97205,61.809082,103.13965
1769255595362,-0.99316406,0.28466797,-0.4350586,44.006348,37.41455,0.6713867,0.0,0.0,0.0,142.21802,60.117188,101.986084
1769255595450,-0.86035156,0.1538086,-0.40722656,10.498047,1.8310547,-13.061523,0.0,0.0,0.0,142.21802,60.117188,101.986084
1769255595462,-0.86035156,0.1538086,-0.40722656,10.498047,1.8310547,-13.061523,0.0,0.0,0.0,145.29968,58.842773,104.51294
1769255595550,-0.859375,0.23291016,-0.40039062,9.521484,-27.22168,-9.58252,0.0,0.0,0.0,145.29968,58.842773,104.51294
1769255595561,-0.859375,0.23291016,-0.40039062,9.521484,-27.22168,-9.58252,0.0,0.0,0.0,147.82104,61.16638,106.847534
1769255595649,-0.9013672,0.3154297,-0.3491211,54.016113,-50.842285,51.879883,0.0,0.0,0.0,147.82104,61.16638,106.847534
1769255595661,-0.9013672,0.3154297,-0.3491211,54.016113,-50.842285,51.879883,0.0,0.0,0.0,143.23975,62.979126,97.56958
1769255595749,-0.8100586,0.26123047,-0.52246094,-48.217773,18.066406,-25.32959,0.0,0.0,0.0,143.23975,62.979126,97.56958
1769255595760,-0.8100586,0.26123047,-0.52246094,-48.217773,18.066406,-25.32959,0.0,0.0,0.0,140.36133,62.869263,92.8125
1769255595849,-0.921875,0.21679688,-0.29492188,-8.300781,23.254395,-16.601562,0.0,0.0,0.0,140.36133,62.869263,92.8125
1769255595860,-0.921875,0.21679688,-0.29492188,-8.300781,23.254395,-16.601562,0.0,0.0,0.0,144.33289,61.72119,101.590576
1769255595948,-0.96777344,0.21777344,-0.30029297,12.390137,-11.901855,-5.126953,0.0,0.0,0.0,144.33289,61.72119,101.590576
1769255595960,-0.96777344,0.21777344,-0.30029297,12.390137,-11.901855,-5.126953,0.0,0.0,0.0,146.1731,62.01233,102.34863
1769255596048,-0.90185547,0.24951172,-0.33984375,1.7700195,-30.700684,-5.92041,0.0,0.0,0.0,146.1731,62.01233,102.34863
1769255596060,-0.90185547,0.24951172,-0.33984375,1.7700195,-30.700684,-5.92041,0.0,0.0,0.0,145.24475,64.06677,99.51416
1769255596148,-0.90966797,0.3725586,-0.38476562,31.188965,2.5634766,15.625,0.0,0.0,0.0,145.24475,64.06677,99.51416
1769255596159,-0.90966797,0.3725586,-0.38476562,31.188965,2.5634766,15.625,0.0,0.0,0.0,144.69543,65.319214,97.717896
1769255596248,-0.9277344,0.1850586,-0.35302734,13.061523,43.884277,5.7373047,0.0,0.0,0.0,144.69543,65.319214,97.717896
1769255596259,-0.9277344,0.1850586,-0.35302734,13.061523,43.884277,5.7373047,0.0,0.0,0.0,147.40906,62.13318,98.29468
1769255596347,-1.0249023,0.13085938,-0.29345703,15.075684,-2.9296875,-10.070801,0.0,0.0,0.0,147.40906,62.13318,98.29468
1769255596359,-1.0249023,0.13085938,-0.29345703,15.075684,-2.9296875,-10.070801,0.0,0.0,0.0,150.44128,61.188354,101.75537
1769255596447,-0.8642578,0.22363281,-0.29736328,3.2958984,-68.29834,-7.1411133,0.0,0.0,0.0,150.44128,61.188354,101.75537
1769255596459,-0.8642578,0.22363281,-0.29736328,3.2958984,-68.29834,-7.1411133,0.0,0.0,0.0,148.88672,64.94568,98.080444
1769255596547,-0.84472656,0.27490234,-0.45947266,31.12793,-59.08203,24.597168,0.0,0.0,0.0,148.88672,64.94568,98.080444
1769255596558,-0.84472656,0.27490234,-0.45947266,31.12793,-59.08203,24.597168,0.0,0.0,0.0,136.90063,70.62012,83.94104
1769255596646,-0.8881836,0.25976562,-0.46826172,26.916504,21.484375,14.526367,0.0,0.0,0.0,136.90063,70.62012,83.94104
1769255596658,-0.8881836,0.25976562,-0.46826172,26.916504,21.484375,14.526367,0.0,0.0,0.0,133.36304,69.071045,75.6134
1769255596746,-0.9638672,0.21044922,-0.1328125,-31.12793,70.3125,-25.08545,0.0,0.0,0.0,133.36304,69.071045,75.6134
1769255596758,-0.9638672,0.21044922,-0.1328125,-31.12793,70.3125,-25.08545,0.0,0.0,0.0,144.75586,64.02832,87.45117
1769255596846,-0.91015625,0.22949219,-0.35742188,-8.850098,-32.77588,-13.000488,0.0,0.0,0.0,144.75586,64.02832,87.45117
1769255596857,-0.91015625,0.22949219,-0.35742188,-8.850098,-32.77588,-13.000488,0.0,0.0,0.0,146.8872,65.47302,92.872925
1769255596946,-0.8598633,0.2783203,-0.4296875,15.441895,8.117676,24.658203,0.0,0.0,0.0,146.8872,65.47302,92.872925
1769255596957,-0.8598633,0.2783203,-0.4296875,15.441895,8.117676,24.658203,0.0,0.0,0.0,142.78381,66.35742,87.83569
1769255597045,-0.97021484,0.1616211,-0.34814453,-9.338379,69.21387,-18.371582,0.0,0.0,0.0,142.78381,66.35742,87.83569
1769255597057,-0.97021484,0.1616211,-0.34814453,-9.338379,69.21387,-18.371582,0.0,0.0,0.0,148.59558,61.693726,93.2959
1769255597145,-0.9628906,0.41601562,-0.2680664,17.8833,-49.1333,20.812988,0.0,0.0,0.0,148.59558,61.693726,93.2959
1769255597157,-0.9628906,0.41601562,-0.2680664,17.8833,-49.1333,20.812988,0.0,0.0,0.0,151.24878,61.270752,96.119385
1769255597245,-0.8955078,0.32763672,-0.46972656,-20.019531,-48.095703,27.34375,0.0,0.0,0.0,151.24878,61.270752,96.119385
1769255597256,-0.8955078,0.32763672,-0.46972656,-20.019531,-48.095703,27.34375,0.0,0.0,0.0,137.3346,64.79736,81.25488
1769255597344,-0.8095703,0.092285156,-0.3798828,-7.9345703,32.348633,7.751465,0.0,0.0,0.0,137.3346,64.79736,81.25488
1769255597356,-0.8095703,0.092285156,-0.3798828,-7.9345703,32.348633,7.751465,0.0,0.0,0.0,134.78577,62.995605,80.26611
1769255597444,-0.83740234,0.31884766,-0.40234375,38.81836,8.361816,6.713867,0.0,0.0,0.0,134.78577,62.995605,80.26611
1769255597456,-0.83740234,0.31884766,-0.40234375,38.81836,8.361816,6.713867,0.0,0.0,0.0,138.16406,61.743164,80.73303
1769255597544,-0.9370117,0.3173828,-0.33447266,3.479004,58.288574,-12.451172,0.0,0.0,0.0,138.16406,61.743164,80.73303
1769255597555,-0.9370117,0.3173828,-0.33447266,3.479004,58.288574,-12.451172,0.0,0.0,0.0,146.0138,58.590088,86.30859
1769255597644,-0.8935547,0.39111328,-0.30029297,-16.174316,-32.65381,-11.108398,0.0,0.0,0.0,146.0138,58.590088,86.30859
1769255597656,-0.8935547,0.39111328,-0.30029297,-16.174316,-32.65381,-11.108398,0.0,0.0,0.0,147.33215,59.024048,89.34631
1769255597743,-0.8095703,0.17236328,-0.3857422,-18.493652,-9.765625,-3.1738281,0.0,0.0,0.0,147.33215,59.024048,89.34631
1769255597755,-0.8095703,0.17236328,-0.3857422,-18.493652,-9.765625,-3.1738281,0.0,0.0,0.0,142.69043,61.638794,86.57776
1769255597843,-1.0175781,0.21826172,-0.5332031,10.070801,-1.5869141,-7.6904297,0.0,0.0,0.0,142.69043,61.638794,86.57776
1769255597854,-1.0175781,0.21826172,-0.5332031,10.070801,-1.5869141,-7.6904297,0.0,0.0,0.0,143.62427,63.259277,87.33032
1769255597943,-0.9140625,0.3486328,-0.23925781,-20.202637,8.728027,-18.310547,0.0,0.0,0.0,143.62427,63.259277,87.33032
1769255597954,-0.9140625,0.3486328,-0.23925781,-20.202637,8.728027,-18.310547,0.0,0.0,0.0,146.53015,62.616577,89.61548
1769255598043,-0.8911133,0.16845703,-0.28564453,-10.498047,-1.8310547,-12.512207,0.0,0.0,0.0,146.53015,62.616577,89.61548
1769255598054,-0.8911133,0.16845703,-0.28564453,-10.498047,-1.8310547,-12.512207,0.0,0.0,0.0,147.91443,63.187866,93.99902
1769255598142,-0.9589844,0.1875,-0.39013672,13.61084,-20.080566,0.18310547,0.0,0.0,0.0,147.91443,63.187866,93.99902
1769255598154,-0.9589844,0.1875,-0.39013672,13.61084,-20.080566,0.18310547,0.0,0.0,0.0,147.95837,64.31946,93.0542
1769255598242,-0.8886719,0.37939453,-0.4873047,-40.58838,-3.8452148,-29.296875,0.0,0.0,0.0,147.95837,64.31946,93.0542
1769255598253,-0.8886719,0.37939453,-0.4873047,-40.58838,-3.8452148,-29.296875,0.0,0.0,0.0,147.64526,67.631836,93.14758
1769255598342,-0.8413086,0.31640625,-0.3930664,-92.89551,64.27002,-31.555176,0.0,0.0,0.0,147.64526,67.631836,93.14758
1769255598353,-0.8413086,0.31640625,-0.3930664,-92.89551,64.27002,-31.555176,0.0,0.0,0.0,151.3971,64.90723,104.40857
1769255598441,-0.97314453,0.25195312,-0.4404297,-68.481445,48.828125,-12.634277,0.0,0.0,0.0,151.3971,64.90723,104.40857
1769255598453,-0.97314453,0.25195312,-0.4404297,-68.481445,48.828125,-12.634277,0.0,0.0,0.0,151.77612,61.452026,115.285034
1769255598541,-0.94677734,0.056152344,-0.36914062,-22.094727,34.606934,5.004883,0.0,0.0,0.0,151.77612,61.452026,115.285034
1769255598553,-0.94677734,0.056152344,-0.36914062,-22.094727,34.606934,5.004883,0.0,0.0,0.0,151.86401,57.15088,119.08081
1769255598641,-0.91015625,0.11669922,-0.3540039,-11.291504,-29.052734,-8.056641,0.0,0.0,0.0,151.86401,57.15088,119.08081
1769255598652,-0.91015625,0.11669922,-0.3540039,-11.291504,-29.052734,-8.056641,0.0,0.0,0.0,151.41907,57.88147,120.10254
1769255598740,-0.88964844,0.1743164,-0.45166016,29.418945,-72.265625,1.5258789,0.0,0.0,0.0,151.41907,57.88147,120.10254
1769255598752,-0.88964844,0.1743164,-0.45166016,29.418945,-72.265625,1.5258789,0.0,0.0,0.0,148.2605,62.98462,114.40613
1769255598840,-0.86816406,0.21142578,-0.50390625,15.869141,-13.366699,-19.226074,0.0,0.0,0.0,148.2605,62.98462,114.40613
1769255598852,-0.86816406,0.21142578,-0.50390625,15.869141,-13.366699,-19.226074,0.0,0.0,0.0,146.54663,67.13745,107.86377
1769255598940,-0.9223633,0.29003906,-0.44140625,-18.554688,75.19531,-36.071777,0.0,0.0,0.0,146.54663,67.13745,107.86377
1769255598951,-0.9223633,0.29003906,-0.44140625,-18.554688,75.19531,-36.071777,0.0,0.0,0.0,156.17065,66.14868,119.02588
1769255599039,-1.0092773,0.16992188,-0.2866211,-16.723633,58.22754,-9.94873,0.0,0.0,0.0,156.17065,66.14868,119.02588
1769255599051,-1.0092773,0.16992188,-0.2866211,-16.723633,58.22754,-9.94873,0.0,0.0,0.0,163.78418,59.595337,130.0232
1769255599139,-1.0014648,0.24560547,-0.3774414,-6.958008,-107.97119,18.676758,0.0,0.0,0.0,163.78418,59.595337,130.0232
1769255599151,-1.0014648,0.24560547,-0.3774414,-6.958008,-107.97119,18.676758,0.0,0.0,0.0,161.1914,60.930176,129.01245
1769255599239,-0.7416992,0.18896484,-0.46289062,40.100098,-80.68848,67.50488,0.0,0.0,0.0,161.1914,60.930176,129.01245
1769255599250,-0.7416992,0.18896484,-0.46289062,40.100098,-80.68848,67.50488,0.0,0.0,0.0,141.11389,68.85681,105.77637
1769255599339,-0.9868164,0.11621094,-0.60302734,19.470215,57.250977,33.02002,0.0,0.0,0.0,141.11389,68.85681,105.77637
1769255599350,-0.9868164,0.11621094,-0.60302734,19.470215,57.250977,33.02002,0.0,0.0,0.0,132.4237,65.78613,90.406494
1769255599438,-0.88916016,-0.00390625,-0.19091797,-69.51904,106.50635,-67.32178,0.0,0.0,0.0,132.4237,65.78613,90.406494
1769255599450,-0.88916016,-0.00390625,-0.19091797,-69.51904,106.50635,-67.32178,0.0,0.0,0.0,146.05774,58.6615,106.309204
1769255599538,-0.9692383,0.28955078,-0.35498047,3.4179688,-55.603027,-16.723633,0.0,0.0,0.0,146.05774,58.6615,106.309204
1769255599550,-0.9692383,0.28955078,-0.35498047,3.4179688,-55.603027,-16.723633,0.0,0.0,0.0,154.07227,59.666748,119.04236
1769255599638,-0.7817383,0.30615234,-0.4404297,42.3584,-47.729492,21.484375,0.0,0.0,0.0,154.07227,59.666748,119.04236
1769255599649,-0.7817383,0.30615234,-0.4404297,42.3584,-47.729492,21.484375,0.0,0.0,0.0,148.96912,65.302734,109.923706
1769255599738,-0.89697266,0.21777344,-0.48486328,-18.859863,45.715332,-13.48877,0.0,0.0,0.0,148.96912,65.302734,109.923706
1769255599749,-0.89697266,0.21777344,-0.48486328,-18.859863,45.715332,-13.48877,0.0,0.0,0.0,148.90869,64.6051,107.25952
1769255599837,-0.93066406,0.21679688,-0.40185547,-29.296875,77.33154,-24.658203,0.0,0.0,0.0,148.90869,64.6051,107.25952
1769255599849,-0.93066406,0.21679688,-0.40185547,-29.296875,77.33154,-24.658203,0.0,0.0,0.0,155.75317,59.815063,117.630615
1769255599939,-0.9658203,0.1875,-0.27539062,-14.404297,15.625,-10.070801,0.0,0.0,0.0,155.75317,59.815063,117.630615
1769255599950,-0.9658203,0.1875,-0.27539062,-14.404297,15.625,-10.070801,0.0,0.0,0.0,158.95569,56.12915,123.87634
1769255600037,-0.9248047,0.18554688,-0.3852539,3.3569336,-56.518555,12.084961,0.0,0.0,0.0,158.95569,56.12915,123.87634
1769255600049,-0.9248047,0.18554688,-0.3852539,3.3569336,-56.518555,12.084961,0.0,0.0,0.0,155.44006,59.639282,120.16846
1769255600136,-0.8803711,0.19482422,-0.4658203,3.9672852,-43.5791,10.7421875,0.0,0.0,0.0,155.44006,59.639282,120.16846
1769255600148,-0.8803711,0.19482422,-0.4658203,3.9672852,-43.5791,10.7421875,0.0,0.0,0.0,148.91418,64.14368,111.84082
1769255600236,-0.8730469,0.22314453,-0.4423828,3.3569336,8.422852,3.0517578,0.0,0.0,0.0,148.91418,64.14368,111.84082
1769255600247,-0.8730469,0.22314453,-0.4423828,3.3569336,8.422852,3.0517578,0.0,0.0,0.0,147.43652,64.68201,108.81409
1769255600336,-0.90722656,0.26513672,-0.35791016,-0.5493164,24.291992,3.112793,0.0,0.0,0.0,147.43652,64.68201,108.81409
1769255600347,-0.90722656,0.26513672,-0.35791016,-0.5493164,24.291992,3.112793,0.0,0.0,0.0,149.88647,62.48474,110.71472
1769255600435,-0.90625,0.23095703,-0.33203125,-12.6953125,-4.4555664,-1.5869141,0.0,0.0,0.0,149.88647,62.48474,110.71472
1769255600447,-0.90625,0.23095703,-0.33203125,-12.6953125,-4.4555664,-1.5869141,0.0,0.0,0.0,149.68872,61.73767,110.90698
1769255600535,-0.8964844,0.24804688,-0.3852539,-5.554199,-20.507812,4.272461,0.0,0.0,0.0,149.68872,61.73767,110.90698
1769255600547,-0.8964844,0.24804688,-0.3852539,-5.554199,-20.507812,4.272461,0.0,0.0,0.0,146.76636,63.28125,108.76465
1769255600635,-0.88720703,0.2265625,-0.41455078,4.272461,-0.18310547,11.169434,0.0,0.0,0.0,146.76636,63.28125,108.76465
1769255600646,-0.88720703,0.2265625,-0.41455078,4.272461,-0.18310547,11.169434,0.0,0.0,0.0,144.03625,63.52295,104.9469
1769255600735,-0.88427734,0.23535156,-0.3696289,-3.1738281,15.808105,-2.8686523,0.0,0.0,0.0,144.03625,63.52295,104.9469
1769255600746,-0.88427734,0.23535156,-0.3696289,-3.1738281,15.808105,-2.8686523,0.0,0.0,0.0,145.2832,62.402344,105.704956
1769255600834,-0.9082031,0.2841797,-0.35302734,0.36621094,4.1503906,-0.12207031,0.0,0.0,0.0,145.2832,62.402344,105.704956
1769255600846,-0.9082031,0.2841797,-0.35302734,0.36621094,4.1503906,-0.12207031,0.0,0.0,0.0,146.67297,61.90796,107.16614
1769255600934,-0.8964844,0.234375,-0.36767578,1.953125,-3.4179688,2.0751953,0.0,0.0,0.0,146.67297,61.90796,107.16614
1769255600945,-0.8964844,0.234375,-0.36767578,1.953125,-3.4179688,2.0751953,0.0,0.0,0.0,146.27197,61.935425,106.33667
1769255601034,-0.8989258,0.2421875,-0.37939453,3.2958984,-0.30517578,-2.0751953,0.0,0.0,0.0,146.27197,61.935425,106.33667
1769255601045,-0.8989258,0.2421875,-0.37939453,3.2958984,-0.30517578,-2.0751953,0.0,0.0,0.0,146.38184,62.314453,106.00708
1769255601134,-0.90234375,0.2602539,-0.37353516,1.5258789,0.12207031,-4.5166016,0.0,0.0,0.0,146.38184,62.314453,106.00708
1769255601145,-0.90234375,0.2602539,-0.37353516,1.5258789,0.12207031,-4.5166016,0.0,0.0,0.0,147.2992,62.556152,106.40259
1769255601233,-0.89746094,0.24072266,-0.36376953,2.0141602,0.9765625,-0.91552734,0.0,0.0,0.0,147.2992,62.556152,106.40259
1769255601245,-0.89746094,0.24072266,-0.36376953,2.0141602,0.9765625,-0.91552734,0.0,0.0,0.0,147.95837,62.63855,106.77612
1769255601333,-0.90283203,0.23535156,-0.37451172,1.4038086,-1.2207031,-0.91552734,0.0,0.0,0.0,147.95837,62.63855,106.77612
1769255601344,-0.90283203,0.23535156,-0.37451172,1.4038086,-1.2207031,-0.91552734,0.0,0.0,0.0,148.24951,62.924194,106.84204
1769255601433,-0.89208984,0.2265625,-0.37646484,1.2207031,1.2817383,-1.6479492,0.0,0.0,0.0,148.24951,62.924194,106.84204
1769255601444,-0.89208984,0.2265625,-0.37646484,1.2207031,1.2817383,-1.6479492,0.0,0.0,0.0,148.40332,63.05603,106.66077
1769255601532,-0.9082031,0.25341797,-0.375,1.4648438,-0.79345703,-1.0375977,0.0,0.0,0.0,148.40332,63.05603,106.66077
1769255601544,-0.9082031,0.25341797,-0.375,1.4648438,-0.79345703,-1.0375977,0.0,0.0,0.0,149.2273,62.990112,107.13867
1769255601632,-0.89990234,0.22265625,-0.37353516,-3.90625,2.1972656,-2.746582,0.0,0.0,0.0,149.2273,62.990112,107.13867
1769255601644,-0.89990234,0.22265625,-0.37353516,-3.90625,2.1972656,-2.746582,0.0,0.0,0.0,149.74365,63.061523,107.48474
1769255601732,-0.90234375,0.21826172,-0.3779297,0.0,-4.5776367,2.5634766,0.0,0.0,0.0,149.74365,63.061523,107.48474
1769255601743,-0.90234375,0.21826172,-0.3779297,0.0,-4.5776367,2.5634766,0.0,0.0,0.0,149.55688,63.259277,107.46826
1769255601831,-0.8930664,0.20996094,-0.3955078,0.18310547,1.0375977,-0.6713867,0.0,0.0,0.0,149.55688,63.259277,107.46826
1769255601843,-0.8930664,0.20996094,-0.3955078,0.18310547,1.0375977,-0.6713867,0.0,0.0,0.0,149.16687,63.495483,106.51245
1769255601931,-0.9003906,0.21240234,-0.3798828,1.7089844,4.8828125,-2.1972656,0.0,0.0,0.0,149.16687,63.495483,106.51245
1769255601943,-0.9003906,0.21240234,-0.3798828,1.7089844,4.8828125,-2.1972656,0.0,0.0,0.0,150.27649,63.154907,107.336426
1769255602031,-0.9038086,0.24560547,-0.37646484,-1.8310547,0.30517578,0.18310547,0.0,0.0,0.0,150.27649,63.154907,107.336426
1769255602043,-0.9038086,0.24560547,-0.37646484,-1.8310547,0.30517578,0.18310547,0.0,0.0,0.0,150.70496,62.962646,107.50122
1769255602131,-0.89746094,0.24169922,-0.40039062,-16.662598,0.30517578,-4.333496,0.0,0.0,0.0,150.70496,62.962646,107.50122
1769255602142,-0.89746094,0.24169922,-0.40039062,-16.662598,0.30517578,-4.333496,0.0,0.0,0.0,149.76562,63.237305,107.58362
1769255602230,-0.9003906,0.19824219,-0.39697266,-19.65332,10.009766,-11.047363,0.0,0.0,0.0,149.76562,63.237305,107.58362
1769255602242,-0.9003906,0.19824219,-0.39697266,-19.65332,10.009766,-11.047363,0.0,0.0,0.0,149.83154,63.19336,109.7699
1769255602330,-0.94384766,0.19824219,-0.3701172,3.6621094,8.605957,2.1362305,0.0,0.0,0.0,149.83154,63.19336,109.7699
1769255602341,-0.94384766,0.19824219,-0.3701172,3.6621094,8.605957,2.1362305,0.0,0.0,0.0,151.1499,62.556152,111.96167
1769255602430,-0.92822266,0.20751953,-0.328125,11.474609,-13.85498,7.6904297,0.0,0.0,0.0,151.1499,62.556152,111.96167
1769255602441,-0.92822266,0.20751953,-0.328125,11.474609,-13.85498,7.6904297,0.0,0.0,0.0,150.77637,62.451782,110.374146
1769255602529,-0.8959961,0.28466797,-0.3852539,4.211426,-29.60205,13.244629,0.0,0.0,0.0,150.77637,62.451782,110.374146
1769255602541,-0.8959961,0.28466797,-0.3852539,4.211426,-29.60205,13.244629,0.0,0.0,0.0,147.40906,64.26453,105.529175
1769255602629,-0.8671875,0.15527344,-0.3984375,19.226074,1.5258789,20.446777,0.0,0.0,0.0,147.40906,64.26453,105.529175
1769255602642,-0.8671875,0.15527344,-0.3984375,19.226074,1.5258789,20.446777,0.0,0.0,0.0,143.10242,64.37988,99.38782
1769255602729,-0.93652344,0.1772461,-0.34033203,18.005371,16.174316,-16.052246,0.0,0.0,0.0,143.10242,64.37988,99.38782
1769255602740,-0.93652344,0.1772461,-0.34033203,18.005371,16.174316,-16.052246,0.0,0.0,0.0,147.10693,63.31421,101.03577
1769255602828,-0.9160156,0.2734375,-0.3203125,32.77588,-22.338867,-3.8452148,0.0,0.0,0.0,147.10693,63.31421,101.03577
1769255602840,-0.9160156,0.2734375,-0.3203125,32.77588,-22.338867,-3.8452148,0.0,0.0,0.0,151.54541,64.2041,102.90344
1769255602928,-0.89208984,0.18115234,-0.41796875,22.399902,-8.850098,-6.164551,0.0,0.0,0.0,151.54541,64.2041,102.90344
1769255602940,-0.89208984,0.18115234,-0.41796875,22.399902,-8.850098,-6.164551,0.0,0.0,0.0,152.33643,66.17615,100.64026
1769255603028,-0.88427734,0.16552734,-0.3828125,24.414062,16.113281,-7.385254,0.0,0.0,0.0,152.33643,66.17615,100.64026
1769255603040,-0.88427734,0.16552734,-0.3828125,24.414062,16.113281,-7.385254,0.0,0.0,0.0,156.52771,65.93445,102.95288
1769255603128,-0.9394531,0.17041016,-0.3178711,16.357422,10.864258,-5.554199,0.0,0.0,0.0,156.52771,65.93445,102.95288
1769255603139,-0.9394531,0.17041016,-0.3178711,16.357422,10.864258,-5.554199,0.0,0.0,0.0,161.07605,64.78638,105.83679
1769255603227,-0.9140625,0.13964844,-0.35986328,4.3945312,-12.268066,-5.859375,0.0,0.0,0.0,161.07605,64.78638,105.83679
1769255603239,-0.9140625,0.13964844,-0.35986328,4.3945312,-12.268066,-5.859375,0.0,0.0,0.0,162.75696,65.20386,106.94092
1769255603327,-0.88720703,0.16992188,-0.4194336,-10.864258,0.79345703,-5.004883,0.0,0.0,0.0,162.75696,65.20386,106.94092
1769255603339,-0.88720703,0.16992188,-0.4194336,-10.864258,0.79345703,-5.004883,0.0,0.0,0.0,162.52075,66.41785,107.39685
1769255603427,-0.9301758,0.115722656,-0.41015625,-11.047363,27.58789,4.333496,0.0,0.0,0.0,162.52075,66.41785,107.39685
1769255603438,-0.9301758,0.115722656,-0.41015625,-11.047363,27.58789,4.333496,0.0,0.0,0.0,162.12524,65.093994,108.66028
1769255603527,-0.94140625,0.072753906,-0.33984375,1.159668,4.3945312,8.300781,0.0,0.0,0.0,162.12524,65.093994,108.66028
1769255603538,-0.94140625,0.072753906,-0.33984375,1.159668,4.3945312,8.300781,0.0,0.0,0.0,161.56494,62.81433,108.68225
1769255603626,-0.91064453,0.17138672,-0.38134766,5.79834,-21.911621,8.972168,0.0,0.0,0.0,161.56494,62.81433,108.68225
1769255603638,-0.91064453,0.17138672,-0.38134766,5.79834,-21.911621,8.972168,0.0,0.0,0.0,160.0653,63.8031,105.930176
1769255603726,-0.8886719,0.22265625,-0.4169922,-5.7373047,-14.465332,15.014648,0.0,0.0,0.0,160.0653,63.8031,105.930176
1769255603738,-0.8886719,0.22265625,-0.4169922,-5.7373047,-14.465332,15.014648,0.0,0.0,0.0,156.36841,65.462036,101.53015
1769255603826,-0.93115234,0.17822266,-0.4189453,-8.972168,2.5634766,13.977051,0.0,0.0,0.0,156.36841,65.462036,101.53015
1769255603837,-0.93115234,0.17822266,-0.4189453,-8.972168,2.5634766,13.977051,0.0,0.0,0.0,151.84753,65.3302,97.27295
1769255603925,-0.9277344,0.17578125,-0.30273438,-4.9438477,-9.765625,7.080078,0.0,0.0,0.0,151.84753,65.3302,97.27295
1769255603937,-0.9277344,0.17578125,-0.30273438,-4.9438477,-9.765625,7.080078,0.0,0.0,0.0,149.99634,64.42383,95.49866
1769255604025,-0.9296875,0.23632812,-0.37548828,-1.7089844,-23.925781,15.014648,0.0,0.0,0.0,149.99634,64.42383,95.49866
1769255604037,-0.9296875,0.23632812,-0.37548828,-1.7089844,-23.925781,15.014648,0.0,0.0,0.0,145.9259,65.59387,90.76355
1769255604125,-0.86621094,0.24609375,-0.38867188,-10.314941,4.1503906,16.601562,0.0,0.0,0.0,145.9259,65.59387,90.76355
1769255604137,-0.86621094,0.24609375,-0.38867188,-10.314941,4.1503906,16.601562,0.0,0.0,0.0,141.9159,65.22034,86.24817
1769255604224,-0.8935547,0.29785156,-0.36523438,-13.000488,18.493652,2.1362305,0.0,0.0,0.0,141.9159,65.22034,86.24817
1769255604236,-0.8935547,0.29785156,-0.36523438,-13.000488,18.493652,2.1362305,0.0,0.0,0.0,141.9104,63.462524,86.96228
1769255604324,-0.91308594,0.2758789,-0.32373047,-17.700195,12.756348,-2.0751953,0.0,0.0,0.0,141.9104,63.462524,86.96228
1769255604336,-0.91308594,0.2758789,-0.32373047,-17.700195,12.756348,-2.0751953,0.0,0.0,0.0,142.27844,62.232056,88.89038
1769255604424,-0.9189453,0.27441406,-0.34521484,-8.361816,-3.1738281,-7.9956055,0.0,0.0,0.0,142.27844,62.232056,88.89038
1769255604436,-0.9189453,0.27441406,-0.34521484,-8.361816,-3.1738281,-7.9956055,0.0,0.0,0.0,142.36633,62.424316,90.3241
1769255604524,-0.90625,0.2788086,-0.33007812,0.0,2.2583008,-1.2817383,0.0,0.0,0.0,142.36633,62.424316,90.3241
1769255604535,-0.90625,0.2788086,-0.33007812,0.0,2.2583008,-1.2817383,0.0,0.0,0.0,142.58057,62.753906,90.74158
1769255604623,-0.9199219,0.27539062,-0.3203125,2.8686523,-6.652832,-1.4038086,0.0,0.0,0.0,142.58057,62.753906,90.74158
1769255604635,-0.9199219,0.27539062,-0.3203125,2.8686523,-6.652832,-1.4038086,0.0,0.0,0.0,142.68494,63.07251,90.774536
1769255604723,-0.90527344,0.2890625,-0.33984375,3.3569336,-8.728027,1.5869141,0.0,0.0,0.0,142.68494,63.07251,90.774536
1769255604735,-0.90527344,0.2890625,-0.33984375,3.3569336,-8.728027,1.5869141,0.0,0.0,0.0,141.64673,63.885498,89.15405
1769255604823,-0.91015625,0.23828125,-0.31835938,2.1972656,-1.4648438,-3.2348633,0.0,0.0,0.0,141.64673,63.885498,89.15405
1769255604834,-0.91015625,0.23828125,-0.31835938,2.1972656,-1.4648438,-3.2348633,0.0,0.0,0.0,141.37207,64.24805,88.75305
1769255604923,-0.92041016,0.2734375,-0.3154297,7.2021484,-8.728027,0.24414062,0.0,0.0,0.0,141.37207,64.24805,88.75305
1769255604934,-0.92041016,0.2734375,-0.3154297,7.2021484,-8.728027,0.24414062,0.0,0.0,0.0,141.30615,64.81384,87.80823
1769255605022,-0.9091797,0.28076172,-0.32421875,2.8686523,-3.90625,1.0986328,0.0,0.0,0.0,141.30615,64.81384,87.80823
1769255605034,-0.9091797,0.28076172,-0.32421875,2.8686523,-3.90625,1.0986328,0.0,0.0,0.0,140.83923,65.269775,86.73157
1769255605122,-0.9135742,0.27539062,-0.29296875,3.112793,-2.380371,4.3945312,0.0,0.0,0.0,140.83923,65.269775,86.73157
1769255605133,-0.9135742,0.27539062,-0.29296875,3.112793,-2.380371,4.3945312,0.0,0.0,0.0,140.19653,65.22583,85.61096
1769255605222,-0.91796875,0.2548828,-0.3022461,-0.8544922,-5.92041,2.4414062,0.0,0.0,0.0,140.19653,65.22583,85.61096
1769255605233,-0.91796875,0.2548828,-0.3022461,-0.8544922,-5.92041,2.4414062,0.0,0.0,0.0,139.0155,65.33569,84.32556
1769255605321,-0.9135742,0.2602539,-0.31445312,0.0,-2.1972656,0.7324219,0.0,0.0,0.0,139.0155,65.33569,84.32556
1769255605333,-0.9135742,0.2602539,-0.31445312,0.0,-2.1972656,0.7324219,0.0,0.0,0.0,138.0542,65.599365,83.08411
1769255605421,-0.9116211,0.27734375,-0.30615234,-4.5776367,1.7089844,-4.4555664,0.0,0.0,0.0,138.0542,65.599365,83.08411
1769255605433,-0.9116211,0.27734375,-0.30615234,-4.5776367,1.7089844,-4.4555664,0.0,0.0,0.0,138.43323,65.791626,83.59497
1769255605521,-0.9238281,0.26464844,-0.3017578,-0.4272461,4.333496,-0.91552734,0.0,0.0,0.0,138.43323,65.791626,83.59497
1769255605532,-0.9238281,0.26464844,-0.3017578,-0.4272461,4.333496,-0.91552734,0.0,0.0,0.0,139.08142,65.67627,84.44092
1769255605620,-0.9194336,0.25634766,-0.2836914,-5.554199,0.4272461,-5.79834,0.0,0.0,0.0,139.08142,65.67627,84.44092
1769255605632,-0.9194336,0.25634766,-0.2836914,-5.554199,0.4272461,-5.79834,0.0,0.0,0.0,139.78455,65.7312,85.55603
1769255605720,-0.91259766,0.2475586,-0.30908203,7.385254,-2.1362305,1.0375977,0.0,0.0,0.0,139.78455,65.7312,85.55603
1769255605732,-0.91259766,0.2475586,-0.30908203,7.385254,-2.1362305,1.0375977,0.0,0.0,0.0,140.08667,66.09375,85.753784
1769255605820,-0.92285156,0.2685547,-0.2944336,1.0986328,-1.4648438,-1.953125,0.0,0.0,0.0,140.08667,66.09375,85.753784
1769255605831,-0.92285156,0.2685547,-0.2944336,1.0986328,-1.4648438,-1.953125,0.0,0.0,0.0,140.44922,66.20911,85.53955
1769255605920,-0.8911133,0.25,-0.3046875,3.9672852,-4.760742,4.0283203,0.0,0.0,0.0,140.44922,66.20911,85.53955
1769255605931,-0.8911133,0.25,-0.3046875,3.9672852,-4.760742,4.0283203,0.0,0.0,0.0,139.96033,66.46179,84.86389
1769255606019,-0.9536133,0.23486328,-0.17480469,-2.4414062,-13.061523,1.4648438,0.0,0.0,0.0,139.96033,66.46179,84.86389
1769255606031,-0.9536133,0.23486328,-0.17480469,-2.4414062,-13.061523,1.4648438,0.0,0.0,0.0,138.65845,66.467285,82.61719
1769255606119,-0.8613281,0.3173828,-0.28857422,-11.84082,-40.100098,-4.9438477,0.0,0.0,0.0,138.65845,66.467285,82.61719
1769255606130,-0.8613281,0.3173828,-0.28857422,-11.84082,-40.100098,-4.9438477,0.0,0.0,0.0,132.03369,69.91699,77.684326
1769255606219,-0.8774414,0.2993164,-0.0073242188,7.3242188,-45.47119,16.540527,0.0,0.0,0.0,132.03369,69.91699,77.684326
1769255606230,-0.8774414,0.2993164,-0.0073242188,7.3242188,-45.47119,16.540527,0.0,0.0,0.0,125.59021,69.9939,69.609375
1769255606318,-0.88964844,0.24853516,-0.14257812,-20.324707,-23.925781,-2.5024414,0.0,0.0,0.0,125.59021,69.9939,69.609375
1769255606330,-0.88964844,0.24853516,-0.14257812,-20.324707,-23.925781,-2.5024414,0.0,0.0,0.0,113.68103,71.71326,57.002563
1769255606418,-1.0126953,0.29248047,-0.0073242188,-2.5024414,-31.738281,3.8452148,0.0,0.0,0.0,113.68103,71.71326,57.002563
1769255606429,-1.0126953,0.29248047,-0.0073242188,-2.5024414,-31.738281,3.8452148,0.0,0.0,0.0,104.556885,72.51526,48.548584
1769255606518,-0.85058594,0.27392578,-0.11328125,4.3945312,-21.606445,11.413574,0.0,0.0,0.0,104.556885,72.51526,48.548584
1769255606529,-0.85058594,0.27392578,-0.11328125,4.3945312,-21.606445,11.413574,0.0,0.0,0.0,94.24072,72.30652,36.9635
1769255606617,-1.1308594,0.35009766,0.10595703,-14.526367,2.8686523,0.24414062,0.0,0.0,0.0,94.24072,72.30652,36.9635
1769255606629,-1.1308594,0.35009766,0.10595703,-14.526367,2.8686523,0.24414062,0.0,0.0,0.0,94.67468,71.83411,36.968994
1769255606717,-0.90283203,0.25048828,-0.044921875,18.737793,-19.348145,5.065918,0.0,0.0,0.0,94.67468,71.83411,36.968994
1769255606729,-0.90283203,0.25048828,-0.044921875,18.737793,-19.348145,5.065918,0.0,0.0,0.0,89.659424,71.66931,32.51953
1769255606817,-0.9238281,0.3642578,0.017578125,28.686523,-27.58789,2.4414062,0.0,0.0,0.0,89.659424,71.66931,32.51953
1769255606828,-0.9238281,0.3642578,0.017578125,28.686523,-27.58789,2.4414062,0.0,0.0,0.0,87.73682,70.67505,27.01538
1769255606917,-0.8354492,0.33789062,-0.091308594,9.277344,11.108398,-16.235352,0.0,0.0,0.0,87.73682,70.67505,27.01538
1769255606928,-0.8354492,0.33789062,-0.091308594,9.277344,11.108398,-16.235352,0.0,0.0,0.0,85.79773,71.02112,22.357178
1769255607016,-0.9482422,0.26123047,-0.029296875,4.5776367,45.776367,-13.793945,0.0,0.0,0.0,85.79773,71.02112,22.357178
1769255607028,-0.9482422,0.26123047,-0.029296875,4.5776367,45.776367,-13.793945,0.0,0.0,0.0,95.71289,72.36145,32.124023
1769255607116,-0.9868164,0.296875,-0.20507812,-8.178711,61.21826,-6.164551,0.0,0.0,0.0,95.71289,72.36145,32.124023
1769255607129,-0.9868164,0.296875,-0.20507812,-8.178711,61.21826,-6.164551,0.0,0.0,0.0,114.07654,72.61963,49.174805
1769255607216,-1.1738281,0.27441406,-0.2915039,2.2583008,128.23486,-11.962891,0.0,0.0,0.0,114.07654,72.61963,49.174805
1769255607227,-1.1738281,0.27441406,-0.2915039,2.2583008,128.23486,-11.962891,0.0,0.0,0.0,137.36755,67.81311,74.141235
1769255607315,-0.8442383,0.16503906,-0.35498047,-24.658203,83.862305,-25.512695,0.0,0.0,0.0,137.36755,67.81311,74.141235
1769255607327,-0.8442383,0.16503906,-0.35498047,-24.658203,83.862305,-25.512695,0.0,0.0,0.0,152.28699,60.249023,93.09265
1769255607415,-0.85839844,0.1875,-0.51953125,-7.2631836,25.939941,-18.554688,0.0,0.0,0.0,152.28699,60.249023,93.09265
1769255607427,-0.85839844,0.1875,-0.51953125,-7.2631836,25.939941,-18.554688,0.0,0.0,0.0,157.31323,56.40381,103.10669
1769255607515,-0.88623047,0.15234375,-0.59814453,13.48877,4.0893555,0.8544922,0.0,0.0,0.0,157.31323,56.40381,103.10669
1769255607526,-0.88623047,0.15234375,-0.59814453,13.48877,4.0893555,0.8544922,0.0,0.0,0.0,159.36218,56.211548,106.33118
1769255607614,-0.7792969,0.20117188,-0.5986328,30.88379,22.094727,19.958496,0.0,0.0,0.0,159.36218,56.211548,106.33118
